Counter	Temperature	VelInc_X	VelInc_Y	VelInc_Z	OriInc_w	OriInc_x	OriInc_y	OriInc_z	Acc_X	Acc_Y	Acc_Z	Gyr_X	Gyr_Y	Gyr_Z	Mag_X	Mag_Y	Mag_Z	Pressure	Roll	Pitch	Yaw	RSSI
47332	0	0.374507904	-0.09866333	0.06265831	0.999999046	-0.000288963	-0.000167847	0.00030899	9.362697601	-2.466583252	1.566457748	-0.014448166	-0.008392334	0.015449524	-0.805908203	0.450927734	0.504882813	888.78	-57.12261856	-72.3940486	-97.42429672	-78
47333	0	0.374328613	-0.098876953	0.061279297	0.999999046	-0.000297546	-0.000254631	0.000331879	9.358215332	-2.471923828	1.531982422	-0.01487732	-0.012731553	0.016593934	-0.806152344	0.453369141	0.507324219	888.9	-57.24666217	-72.38372084	-97.32928761	-78
47334	0	0.374660492	-0.098369598	0.061882973	0.999999046	-0.000364304	-0.000350952	0.000315666	9.366512299	-2.45923996	1.547074318	-0.018215181	-0.017547608	0.015783311	-0.80859375	0.453369141	0.510253906	888.8	-57.40435687	-72.38089196	-97.21208553	-77
47335	0	0.372009277	-0.098022461	0.063476563	0.999999046	-0.000217438	-0.000346184	0.000324249	9.300231934	-2.450561523	1.586914063	-0.010871888	-0.01730919	0.016212464	-0.806152344	0.453369141	0.512695313	888.72	-57.54528789	-72.37686551	-97.09532376	-77
47336	0	0.376871109	-0.098965645	0.06237793	0.999999046	-9.63211E-05	-0.000385284	3.33786E-05	9.421777725	-2.474141121	1.559448242	-0.004816055	-0.019264222	0.00166893	-0.803710938	0.453369141	0.510009766	888.8	-57.62798563	-72.40335144	-97.01839183	-77
47337	0	0.371826172	-0.098693848	0.065185547	0.999999046	-7.62939E-06	-0.000319481	-0.000167847	9.295654297	-2.467346191	1.629638672	-0.00038147	-0.015974045	-0.008392334	-0.806152344	0.450927734	0.510253906	888.78	-57.64146306	-72.44524426	-97.01080201	-76
47338	0	0.373303413	-0.099607468	0.063418388	0.999999046	-1.90735E-05	-0.000207901	3.43323E-05	9.332585335	-2.490186691	1.585459709	-0.000953674	-0.01039505	0.001716614	-0.803710938	0.450927734	0.512939453	888.76	-57.66127662	-72.46071504	-96.99810718	-76
47339	0	0.374816895	-0.099731445	0.064697266	0.999999046	-0.000244141	0.00011158	1.14441E-05	9.370422363	-2.493286133	1.617431641	-0.012207031	0.005578995	0.000572205	-0.806152344	0.451171875	0.515625	888.68	-57.60446221	-72.45878906	-97.09617039	-77
47340	0	0.372724533	-0.100503922	0.063447952	0.999999046	-0.000533104	0.000141144	2.86102E-06	9.318113327	-2.512598038	1.586198807	-0.026655198	0.00705719	0.000143051	-0.806152344	0.451171875	0.512939453	888.84	-57.57002344	-72.45582975	-97.19954994	-76
47341	0	0.375244141	-0.102722168	0.062927246	0.999999046	0.000175476	4.29153E-05	0.000198364	9.381103516	-2.568054199	1.573181152	0.008773804	0.002145767	0.009918213	-0.805908203	0.446533203	0.513427734	888.84	-57.52257099	-72.43994264	-97.24558552	-76
47342	0	0.374526978	-0.099919319	0.062382698	0.999999046	0.000452042	-0.000154495	0.000209808	9.363174438	-2.497982979	1.559567451	0.022602082	-0.007724762	0.010490418	-0.806152344	0.448730469	0.513183594	888.86	-57.50599938	-72.43510019	-97.22159864	-77
47343	0	0.372497559	-0.10168457	0.063049316	0.999999046	-0.000205994	-6.67572E-06	0.000232697	9.312438965	-2.542114258	1.57623291	-0.010299683	-0.000333786	0.011634827	-0.806152344	0.448730469	0.513183594	888.9	-57.52418172	-72.41891005	-97.23976573	-77
47344	0	0.374098778	-0.101884842	0.063123703	0.999999046	0.000119209	7.05719E-05	0.000339508	9.352469444	-2.547121048	1.578092575	0.005960465	0.003528595	0.016975403	-0.806152344	0.451171875	0.512939453	888.9	-57.50233204	-72.38761251	-97.25527279	-77
47345	0	0.374389648	-0.101379395	0.064880371	0.999999046	0.000385284	-2.86102E-06	0.000385284	9.359741211	-2.534484863	1.622009277	0.019264222	-0.000143051	0.019264222	-0.806152344	0.451171875	0.512939453	888.86	-57.48119133	-72.35637874	-97.24086233	-77
47346	0	0.373944283	-0.102351189	0.063979149	0.999999046	0.000684738	-1.33514E-05	0.000537872	9.348607063	-2.558779716	1.599478722	0.034236912	-0.000667572	0.026893619	-0.806152344	0.451171875	0.512939453	888.72	-57.45845353	-72.31101362	-97.19684686	-77
47347	0	0.373779297	-0.100891113	0.063964844	0.999999046	0.000663757	9.63211E-05	0.000587463	9.344482422	-2.522277832	1.599121094	0.033187871	0.004816056	0.029373173	-0.803710938	0.450927734	0.512939453	888.9	-57.41443759	-72.25409387	-97.1809131	-76
47348	0	0.370903015	-0.099655151	0.064655304	0.999999046	0.000599861	0.000152588	0.00057888	9.272575378	-2.491378784	1.616382599	0.029993061	0.007629395	0.028944019	-0.806152344	0.453369141	0.510009766	888.78	-57.35910452	-72.1945282	-97.18101819	-76
47349	0	0.375244141	-0.099304199	0.061889648	0.999999046	0.000434875	0.000103951	0.000602722	9.381103516	-2.48260498	1.547241211	0.021743776	0.005197526	0.030136111	-0.806152344	0.455566406	0.510009766	888.8	-57.34196789	-72.13572901	-97.15892153	-76
47350	0	0.374865532	-0.100556374	0.062725067	0.999999046	0.000724792	0.000234604	0.000357628	9.371638298	-2.51390934	1.568126678	0.036239628	0.011730195	0.017881396	-0.806152344	0.455566406	0.507080078	888.8	-57.20572917	-72.0925099	-97.22743544	-76
47351	0	0.371582031	-0.098205566	0.061523438	0.999999046	0.000293732	7.72476E-05	0.000312805	9.289550781	-2.45513916	1.538085938	0.014686585	0.003862381	0.015640259	-0.803955078	0.459960938	0.50390625	888.78	-57.15750271	-72.06341976	-97.2389121	-77
47352	0	0.372913361	-0.099928856	0.062066078	0.999999046	0.000157356	0.000179291	0.000506401	9.322834015	-2.498221397	1.551651955	0.007867814	0.008964539	0.025320054	-0.806396484	0.457763672	0.507080078	888.78	-57.13191746	-72.00939289	-97.25883161	-78
47353	0	0.37322998	-0.098388672	0.063293457	0.999999046	0.000270844	0.000180244	0.000297546	9.330749512	-2.459716797	1.582336426	0.013542176	0.009012223	0.01487732	-0.803955078	0.459960938	0.506591797	888.74	-57.05318613	-71.97546411	-97.31379142	-78
47354	0	0.375224113	-0.098823547	0.061467171	0.999999046	-7.82013E-05	-0.00012207	0.000228882	9.380602837	-2.470588684	1.536679268	-0.003910065	-0.006103516	0.011444092	-0.806396484	0.462402344	0.506591797	888.78	-57.09083014	-71.96705882	-97.284177	-78
47355	0	0.37298584	-0.099182129	0.063354492	0.999999046	0.000255585	-5.24521E-05	-4.19617E-05	9.324645996	-2.479553223	1.583862305	0.012779236	-0.002622604	-0.002098084	-0.806152344	0.457763672	0.504150391	888.78	-57.01779457	-71.98041652	-97.34037049	-78
47356	0	0.371291161	-0.099424362	0.063364983	1	5.72205E-06	-3.14713E-05	-6.10352E-05	9.282279015	-2.485609055	1.584124565	0.000286102	-0.001573563	-0.003051758	-0.806396484	0.459960938	0.504150391	888.74	-56.96344571	-71.99432094	-97.39990342	-78
47357	0	0.37298584	-0.100219727	0.066345215	0.999999046	-5.34058E-05	-0.000121117	-0.000175476	9.324645996	-2.505493164	1.658630371	-0.002670288	-0.006055832	-0.008773804	-0.803955078	0.459960938	0.506591797	888.86	-56.92012913	-72.02481156	-97.45377831	-77
47358	0	0.373829842	-0.100278854	0.065083504	0.999999046	-6.67572E-05	0	-0.000274658	9.34574604	-2.506971359	1.627087593	-0.00333786	0	-0.01373291	-0.806396484	0.457763672	0.507080078	888.78	-56.82306939	-72.05723208	-97.57259753	-76
47359	0	0.37298584	-0.101745605	0.064208984	0.999999046	-1.14441E-05	3.14713E-05	-0.000183105	9.324645996	-2.543640137	1.605224609	-0.000572205	0.001573563	-0.009155273	-0.80859375	0.457763672	0.504394531	888.78	-56.72783347	-72.0788371	-97.67963434	-76
47360	0	0.373384476	-0.101366997	0.065327644	0.999999046	9.25064E-05	7.62939E-06	-0.000141144	9.334611893	-2.534174919	1.633191109	0.00462532	0.00038147	-0.00705719	-0.806152344	0.457763672	0.504150391	888.78	-56.6356953	-72.09786218	-97.76700571	-76
47361	0	0.370727539	-0.101806641	0.065307617	0.999999046	0.00012207	-1.04904E-05	-0.000183105	9.268188477	-2.545166016	1.63269043	0.006103516	-0.000524521	-0.009155274	-0.806396484	0.457763672	0.507080078	888.9	-56.53716506	-72.12196537	-97.86051649	-76
47362	0	0.371803284	-0.101838112	0.064530373	0.999999046	2.67029E-05	-0.000200272	-3.43323E-05	9.295082092	-2.545952797	1.613259315	0.001335144	-0.01001358	-0.001716614	-0.806152344	0.455566406	0.504394531	888.78	-56.53490902	-72.14378897	-97.86575204	-76
47363	0	0.373962402	-0.10369873	0.064697266	0.999999046	0.000476837	-9.05991E-05	-0.000255585	9.349060059	-2.592468262	1.617431641	0.023841859	-0.004529953	-0.012779236	-0.80859375	0.455566406	0.507324219	888.86	-56.40505909	-72.17976227	-97.95684494	-76
47364	0	0.369752884	-0.100274086	0.064908028	0.999999046	0.000180244	-0.000228882	2.28882E-05	9.243822098	-2.50685215	1.622700691	0.009012222	-0.011444092	0.001144409	-0.80859375	0.455566406	0.507324219	888.8	-56.40501267	-72.19787219	-97.94697627	-75
47365	0	0.371337891	-0.101379395	0.063598633	0.999999046	-4.19617E-05	-2.86102E-06	0.000465393	9.283447266	-2.534484863	1.58996582	-0.002098084	-0.000143051	0.023269654	-0.80859375	0.453369141	0.504882813	888.84	-56.45067811	-72.15938968	-97.92026789	-75
47366	0	0.371854782	-0.100632668	0.063465118	0.999999046	-4.19617E-05	9.72748E-05	0.000411987	9.296369553	-2.515816689	1.58662796	-0.002098084	0.004863739	0.020599366	-0.80859375	0.455566406	0.501953125	888.84	-56.45613182	-72.11966477	-97.92682003	-75
47367	0	0.372131348	-0.101989746	0.061767578	0.999999046	-0.000415802	-5.24521E-05	0.000278473	9.303283691	-2.549743652	1.544189453	-0.020790101	-0.002622604	0.013923646	-0.80859375	0.457763672	0.504394531	888.8	-56.52273705	-72.10217787	-97.91020995	-75
47368	0	0.371582031	-0.102783203	0.061096191	0.999999046	0.000191689	-0.000301361	0.00019455	9.289550781	-2.569580078	1.527404785	0.009584427	-0.015068055	0.009727478	-0.811035156	0.455566406	0.507568359	888.84	-56.57725008	-72.10843172	-97.84696883	-76
47369	0	0.369527817	-0.098902702	0.062922478	0.999998093	0.000495911	-0.000653267	0.000329971	9.238195419	-2.472567558	1.573061943	0.024795535	-0.03266335	0.016498568	-0.806152344	0.455566406	0.501708984	888.8	-56.72786078	-72.12387292	-97.63530648	-76
47370	0	0.372527122	-0.098893166	0.063145638	0.999999046	1.33514E-05	-0.000614166	0.000347137	9.313178062	-2.47232914	1.578640938	0.000667572	-0.030708316	0.017356874	-0.808837891	0.457763672	0.507080078	888.8	-56.92580397	-72.13505717	-97.43629876	-76
47371	0	0.371826172	-0.099853516	0.062316895	0.999999046	7.62939E-06	-0.000681877	0.000213623	9.295654297	-2.496337891	1.557922363	0.00038147	-0.03409386	0.010681153	-0.803955078	0.457763672	0.506835938	888.78	-57.11916713	-72.1631118	-97.23709143	-76
47372	0	0.374252319	-0.099097252	0.064370155	0.999999046	8.29697E-05	-0.000635147	0.00014782	9.356307983	-2.477431297	1.609253883	0.004148484	-0.031757357	0.007390976	-0.806396484	0.457763672	0.509765625	888.84	-57.27771067	-72.19444456	-97.07158082	-76
47373	0	0.373962402	-0.099243164	0.063598633	0.999999046	-7.62939E-05	-0.000636101	0.00012207	9.349060059	-2.481079102	1.58996582	-0.003814698	-0.031805041	0.006103516	-0.803955078	0.457763672	0.506835938	888.78	-57.45036673	-72.22819603	-96.90266638	-76
47374	0	0.372983932	-0.099954605	0.065365791	0.999999046	0.000169754	-0.000673294	0.000121117	9.324598312	-2.498865128	1.634144783	0.008487702	-0.033664706	0.006055832	-0.803955078	0.457763672	0.512207031	888.78	-57.60636457	-72.26417167	-96.72894943	-75
47375	0	0.374816895	-0.098693848	0.065124512	0.999999046	-0.000255585	-0.000491142	4.95911E-05	9.370422363	-2.467346191	1.628112793	-0.012779236	-0.024557115	0.002479553	-0.803955078	0.457763672	0.512207031	888.78	-57.74262007	-72.2957896	-96.62489326	-75
47376	0	0.376458168	-0.101695061	0.065433502	0.999999046	-0.0001688	-0.000205994	-0.000171661	9.411454201	-2.542376518	1.635837555	-0.008440018	-0.010299683	-0.008583069	-0.803955078	0.460205078	0.511962891	888.76	-57.74002415	-72.33134543	-96.64618675	-75
47377	0	0.372253418	-0.09967041	0.065429688	0.999999046	-0.000118256	-7.53403E-05	-0.000324249	9.306335449	-2.491760254	1.635742188	-0.005912781	-0.003767014	-0.016212464	-0.801513672	0.457763672	0.509277344	888.84	-57.66215181	-72.3736512	-96.73830615	-75
47378	0	0.371840477	-0.101641655	0.062479973	0.999999046	-0.000226974	5.14984E-05	0.000118256	9.296011925	-2.541041374	1.561999321	-0.011348724	0.002574921	0.005912781	-0.803955078	0.455566406	0.512451172	888.74	-57.64330595	-72.36528353	-96.79390461	-75
47379	0	0.373901367	-0.10168457	0.063049316	0.999999046	9.15527E-05	0.000210762	0.000164032	9.34753418	-2.542114258	1.57623291	0.004577637	0.010538101	0.008201599	-0.803955078	0.457763672	0.509521484	888.86	-57.54843383	-72.34266726	-96.8814353	-75
47380	0	0.374269485	-0.101736069	0.060722351	0.999999046	-0.000195503	7.62939E-06	1.43051E-05	9.356737137	-2.543401718	1.518058777	-0.009775162	0.00038147	0.000715256	-0.803955078	0.457763672	0.506835938	888.84	-57.51949285	-72.34699334	-96.9293761	-75
47381	0	0.373596191	-0.102172852	0.060668945	0.999999046	0.000263214	0.000145912	9.91821E-05	9.339904785	-2.554321289	1.516723633	0.013160706	0.007295609	0.004959107	-0.806152344	0.455566406	0.510009766	888.86	-57.41262745	-72.33456743	-97.01818582	-75
47382	0	0.37172699	-0.099590302	0.061682701	0.999999046	0.000249863	-8.01086E-05	0.000225067	9.293174744	-2.489757538	1.542067528	0.012493134	-0.004005432	0.011253357	-0.806152344	0.455566406	0.510009766	888.72	-57.40031592	-72.32392405	-97.01074531	-75
47383	0	0.372680664	-0.101013184	0.062194824	0.999999046	9.53674E-05	-0.000121117	0.00025177	9.317016602	-2.52532959	1.554870605	0.004768372	-0.006055832	0.012588501	-0.803955078	0.457763672	0.509521484	888.8	-57.42334074	-72.3132258	-96.97642002	-75
47384	0	0.374414444	-0.100701332	0.062488556	0.999998093	0.000190735	-0.000130653	0.000117302	9.360361099	-2.517533302	1.562213898	0.009536743	-0.006532669	0.005865097	-0.803955078	0.455566406	0.512451172	888.76	-57.41233004	-72.31610334	-96.97730637	-75
47385	0	0.375610352	-0.100219727	0.064331055	0.999999046	0.000221252	-0.000212669	8.01086E-05	9.390258789	-2.505493164	1.608276367	0.011062622	-0.010633469	0.004005432	-0.803955078	0.457763672	0.509521484	888.72	-57.41538054	-72.32763498	-96.9496763	-75
47386	0	0.374217987	-0.098848343	0.064214706	0.999999046	0.000202179	-6.48499E-05	0.00020504	9.355449677	-2.471208572	1.605367661	0.010108948	-0.003242493	0.010251999	-0.806152344	0.455566406	0.510009766	888.84	-57.39992081	-72.31799325	-96.95417831	-75
47387	0	0.372619629	-0.098999023	0.065551758	0.999999046	0.000205994	1.62125E-05	0.000205994	9.315490723	-2.474975586	1.638793945	0.010299683	0.000810623	0.010299683	-0.803955078	0.457763672	0.509521484	888.78	-57.3595037	-72.30324367	-96.97630608	-76
47388	0	0.373064995	-0.098150253	0.063467026	0.999999046	4.673E-05	0.000123978	2.95639E-05	9.32662487	-2.453756332	1.586675644	0.002336502	0.006198883	0.001478195	-0.803955078	0.457763672	0.509521484	888.72	-57.27052794	-72.29886145	-97.06835802	-76
47389	0	0.375244141	-0.099304199	0.064208984	0.999999046	-5.34058E-05	0.000229836	-0.000225067	9.381103516	-2.48260498	1.605224609	-0.002670288	0.011491776	-0.011253357	-0.806396484	0.457763672	0.509765625	888.78	-57.11143933	-72.31238592	-97.24693001	-76
47390	0	0.371780396	-0.098838806	0.063696861	0.999999046	-0.000167847	0.000318527	-0.000458717	9.294509888	-2.470970154	1.592421532	-0.008392334	0.015926362	-0.022935869	-0.806152344	0.455566406	0.507080078	888.78	-56.89253411	-72.3426577	-97.50082389	-76
47391	0	0.37109375	-0.098876953	0.062438965	0.999999046	-0.000480652	0.000359535	0.000110626	9.27734375	-2.471923828	1.560974121	-0.024032594	0.017976762	0.005531311	-0.806152344	0.455566406	0.510009766	888.8	-56.80888115	-72.31554347	-97.65271313	-77
47392	0	0.37194252	-0.099812508	0.061572075	0.999999046	-0.00036335	0.000185013	0.000117302	9.298563004	-2.495312691	1.539301872	-0.018167496	0.009250641	0.005865097	-0.806152344	0.453369141	0.510009766	888.82	-56.76597035	-72.29870575	-97.75263766	-77
47393	0	0.372802734	-0.099731445	0.059020996	0.999999046	-0.000267029	-0.000136375	-0.000213623	9.320068359	-2.493286133	1.475524902	-0.013351441	-0.006818772	-0.010681153	-0.80859375	0.455566406	0.507324219	888.76	-56.74366046	-72.33380361	-97.80857286	-77
47394	0	0.374204636	-0.10027504	0.059657097	0.999999046	-1.90735E-05	-0.000396729	-0.000374794	9.355115891	-2.506875992	1.491427422	-0.000953674	-0.019836427	-0.018739701	-0.806152344	0.453369141	0.507324219	888.74	-56.73960941	-72.40073611	-97.81619398	-77
47395	0	0.371704102	-0.099304199	0.060974121	0.999999046	0.000171661	-0.000632286	-0.000152588	9.292602539	-2.48260498	1.524353027	0.008583069	-0.031614306	-0.007629395	-0.806152344	0.453369141	0.504638672	888.86	-56.8293402	-72.46116586	-97.6973967	-77
47396	0	0.372850418	-0.098925591	0.062488556	0.999999046	-3.33786E-05	-0.000543594	7.62939E-06	9.321260452	-2.473139763	1.562213898	-0.00166893	-0.027179719	0.00038147	-0.806152344	0.450927734	0.510253906	888.84	-56.94808978	-72.50060606	-97.58626583	-77
47397	0	0.373962402	-0.09979248	0.062866211	0.999999046	-8.39233E-05	-0.000628471	3.05176E-05	9.349060059	-2.494812012	1.571655273	-0.004196167	-0.031423571	0.001525879	-0.806152344	0.453369141	0.510009766	888.78	-57.10368086	-72.54304283	-97.43347873	-77
47398	0	0.374951363	-0.09872818	0.063475609	0.999999046	0.00012207	-0.000650406	6.00815E-05	9.373784065	-2.468204498	1.586890221	0.006103516	-0.032520297	0.003004074	-0.806152344	0.453369141	0.512695313	888.84	-57.24890226	-72.58387444	-97.26997479	-77
47399	0	0.375183105	-0.098205566	0.063049316	0.999999046	-9.53674E-05	-0.000338554	0.000171661	9.379577637	-2.45513916	1.57623291	-0.004768372	-0.01692772	0.008583069	-0.80859375	0.453369141	0.512939453	888.8	-57.34563078	-72.59454071	-97.18564961	-76
47400	0	0.37446022	-0.098529816	0.064118385	0.999999046	-7.53403E-05	-0.000383377	0.000300407	9.361505508	-2.463245392	1.602959633	-0.003767014	-0.019168855	0.015020371	-0.806152344	0.450927734	0.510253906	888.86	-57.47919452	-72.59547359	-97.06148333	-76
47401	0	0.373474121	-0.098022461	0.064025879	0.999999046	1.52588E-05	-0.000182152	0.000259399	9.336853027	-2.450561523	1.600646973	0.000762939	-0.00910759	0.012969971	-0.806396484	0.453369141	0.515625	888.8	-57.53212348	-72.58791021	-97.01185168	-76
47402	0	0.377412796	-0.098278046	0.061571121	0.999999046	-0.000209808	-3.8147E-06	0.000114441	9.435319901	-2.456951141	1.53927803	-0.010490418	-0.000190735	0.005722046	-0.806152344	0.453369141	0.512695313	888.8	-57.52739403	-72.58341308	-97.04446195	-76
47403	0	0.372375488	-0.099365234	0.0625	0.999999046	-8.01086E-05	-3.71933E-05	4.57764E-05	9.309387207	-2.484130859	1.5625	-0.004005432	-0.001859665	0.002288818	-0.806152344	0.451171875	0.512939453	888.7	-57.50459645	-72.58758102	-97.08629882	-75
47404	0	0.372797966	-0.09849453	0.061966896	0.999999046	2.86102E-06	-0.000192642	0.000136375	9.31994915	-2.462363243	1.549172401	0.000143051	-0.009632111	0.006818771	-0.806152344	0.451171875	0.512939453	888.8	-57.53795709	-72.59255455	-97.05902718	-75
47405	0	0.372680664	-0.09967041	0.062561035	0.999999046	-4.19617E-05	-3.71933E-05	1.90735E-05	9.317016602	-2.491760254	1.564025879	-0.002098083	-0.001859665	0.000953674	-0.806152344	0.451171875	0.512939453	888.72	-57.50547569	-72.59927482	-97.10520326	-75
47406	0	0.372680664	-0.100667	0.060997963	0.999999046	-0.000114441	-0.000101089	8.67844E-05	9.317016602	-2.516674995	1.524949074	-0.005722046	-0.005054474	0.004339218	-0.806152344	0.451171875	0.515625	888.74	-57.51439136	-72.60335362	-97.11940447	-75
47407	0	0.375671387	-0.102355957	0.060791016	0.999999046	0.000473022	-0.000243187	6.48499E-05	9.391784668	-2.558898926	1.519775391	0.023651124	-0.012159348	0.003242493	-0.803710938	0.448730469	0.515625	888.78	-57.49569552	-72.61826353	-97.09779678	-75
47408	0	0.373856544	-0.099477768	0.061495781	0.999999046	0.000237465	-0.000236511	0.000278473	9.346413612	-2.486944199	1.537394524	0.011873246	-0.011825562	0.013923645	-0.806152344	0.451171875	0.515625	888.74	-57.54396667	-72.61210013	-97.03092311	-75
47409	0	0.372009277	-0.1015625	0.063476563	0.999999046	-0.000114441	-0.000151634	0.000595093	9.300231934	-2.5390625	1.586914063	-0.005722046	-0.007581711	0.029754641	-0.806152344	0.451171875	0.512939453	888.78	-57.66821658	-72.5699858	-96.9247267	-75
47410	0	0.373007774	-0.100251198	0.063766479	0.999999046	6.48499E-05	-8.2016E-05	0.000784874	9.325194359	-2.506279945	1.594161987	0.003242493	-0.0041008	0.039243702	-0.803955078	0.453369141	0.515380859	888.74	-57.78667084	-72.50511429	-96.80150646	-76
47411	0	0.374511719	-0.100158691	0.063598633	0.999999046	-3.43323E-05	-4.86374E-05	0.000598907	9.362792969	-2.503967285	1.58996582	-0.001716614	-0.00243187	0.029945375	-0.806152344	0.455566406	0.510009766	888.72	-57.86940804	-72.45615655	-96.71847279	-76
47412	0	0.374336243	-0.100550652	0.062577248	0.999999046	0.000449181	-6.29425E-05	0.000433922	9.358406067	-2.513766289	1.56443119	0.022459032	-0.003147125	0.021696092	-0.803710938	0.453369141	0.512695313	888.74	-57.86902949	-72.42405231	-96.67563001	-77
47413	0	0.374816895	-0.098327637	0.062866211	0.999999046	0.00031662	-6.38962E-05	0.000415802	9.370422363	-2.458190918	1.571655273	0.015830994	-0.003194809	0.020790101	-0.803710938	0.453369141	0.512695313	888.72	-57.88043191	-72.39378955	-96.63898728	-77
47414	0	0.370958328	-0.099085808	0.062636375	0.999999046	3.05176E-05	7.24792E-05	0.00045681	9.273958206	-2.477145195	1.565909386	0.001525879	0.003623963	0.022840501	-0.803955078	0.453369141	0.515380859	888.72	-57.89062872	-72.35123624	-96.64364962	-77
47415	0	0.376281738	-0.098876953	0.060546875	0.999999046	-9.15527E-05	-0.000121117	0.000179291	9.407043457	-2.471923828	1.513671875	-0.004577637	-0.006055832	0.008964539	-0.803955078	0.453369141	0.515380859	888.8	-57.92073282	-72.3474689	-96.64142271	-77
47416	0	0.374124527	-0.100609779	0.063610077	0.999999046	0.000121117	-3.05176E-05	-0.000248909	9.353113174	-2.515244484	1.590251923	0.006055832	-0.001525879	-0.01244545	-0.801513672	0.455566406	0.512207031	888.72	-57.81664145	-72.37972703	-96.73935183	-77
47417	0	0.371032715	-0.09942627	0.0625	0.999999046	0.000152588	-0.000174522	-5.72205E-05	9.275817871	-2.485656738	1.5625	0.007629395	-0.00872612	-0.002861023	-0.803955078	0.455566406	0.512451172	888.76	-57.78948731	-72.40215229	-96.75498967	-76
47418	0	0.373628616	-0.100524902	0.062093735	0.999999046	-0.000164032	0.000202179	0.000113487	9.340715408	-2.513122559	1.552343369	-0.008201599	0.010108948	0.005674362	-0.803710938	0.453369141	0.512695313	888.7	-57.71640583	-72.3849924	-96.8626798	-76
47419	0	0.372741699	-0.099609375	0.062133789	0.999999046	-0.000377655	0.000126839	0.000141144	9.31854248	-2.490234375	1.553344727	-0.018882752	0.006341934	0.00705719	-0.803955078	0.455566406	0.512451172	888.8	-57.69622017	-72.36975038	-96.93265868	-76
47420	0	0.373855591	-0.103118896	0.062150002	0.999999046	-0.000199318	-4.00543E-05	0.000124931	9.346389771	-2.577972412	1.553750038	-0.009965897	-0.002002716	0.006246567	-0.806152344	0.453369141	0.510009766	888.8	-57.70348301	-72.36625635	-96.9566325	-75
47421	0	0.374267578	-0.10144043	0.061462402	0.999999046	0.000534058	-0.000208855	-4.19617E-05	9.356689453	-2.536010742	1.536560059	0.026702882	-0.010442734	-0.002098084	-0.803955078	0.457763672	0.512207031	888.78	-57.64603119	-72.38926374	-96.94959763	-75
47422	0	0.371188164	-0.099330902	0.06037426	0.999999046	0.000106812	-0.000289917	0.000202179	9.279704094	-2.483272552	1.509356499	0.005340576	-0.01449585	0.010108948	-0.806152344	0.455566406	0.510009766	888.78	-57.7094837	-72.3936124	-96.87325821	-74
47423	0	0.371337891	-0.100280762	0.063598633	0.999999046	0.000236511	-0.000224113	0.000305176	9.283447266	-2.507019043	1.58996582	0.011825562	-0.011205674	0.01525879	-0.803955078	0.455566406	0.512451172	888.78	-57.7577645	-72.38390781	-96.80015307	-72
47424	0	0.373561859	-0.09974575	0.062378883	0.999998093	0.000415802	-0.000210762	0.000212669	9.339046478	-2.493643761	1.559472084	0.020790101	-0.010538102	0.010633469	-0.806152344	0.455566406	0.510009766	888.8	-57.76354636	-72.38234885	-96.75081881	-73
47425	0	0.372253418	-0.099365234	0.063598633	0.999999046	0.000328064	-0.000349998	0.000148773	9.306335449	-2.484130859	1.58996582	0.016403199	-0.017499924	0.00743866	-0.806396484	0.455566406	0.512695313	888.8	-57.8095202	-72.39547786	-96.67482258	-72
47426	0	0.373976707	-0.099252701	0.062485695	0.999999046	0.000205994	-0.000305176	0.000213623	9.349417686	-2.48131752	1.562142372	0.010299683	-0.01525879	0.010681153	-0.801269531	0.455566406	0.509521484	888.74	-57.86825975	-72.39957302	-96.59129175	-72
47427	0	0.373535156	-0.098327637	0.061767578	0.999999046	0.000267029	-0.000212669	0.000259399	9.338378906	-2.458190918	1.544189453	0.013351441	-0.010633469	0.012969971	-0.801513672	0.455566406	0.512207031	888.76	-57.9004467	-72.39360323	-96.53391059	-72
47428	0	0.372045517	-0.097816467	0.061781883	0.999999046	-4.86374E-05	-0.000190735	0.000293732	9.301137924	-2.445411682	1.544547081	-0.00243187	-0.009536743	0.014686585	-0.803710938	0.455566406	0.507080078	888.74	-57.96854925	-72.38297913	-96.47219082	-73
47429	0	0.377990723	-0.098693848	0.06048584	0.999999046	-0.000221252	-0.000178337	0.000167847	9.449768066	-2.467346191	1.512145996	-0.011062622	-0.008916855	0.008392334	-0.803955078	0.455566406	0.515136719	888.9	-58.02852102	-72.38388359	-96.45034976	-74
47430	0	0.372852325	-0.098725319	0.062626839	0.999999046	6.67572E-05	-8.58307E-05	5.24521E-05	9.321308136	-2.468132973	1.565670967	0.00333786	-0.004291534	0.002622604	-0.803955078	0.457763672	0.509521484	888.76	-58.00499348	-72.3904007	-96.46672774	-75
47431	0	0.372009277	-0.09954834	0.061889648	0.999999046	-0.000125885	-0.00020504	9.53674E-05	9.300231934	-2.488708496	1.547241211	-0.006294251	-0.010251999	0.004768372	-0.801513672	0.457763672	0.512207031	888.78	-58.04822018	-72.39998536	-96.43669858	-76
47432	0	0.375677109	-0.100063324	0.062319756	0.999999046	0.000172615	-5.72205E-06	0.000266075	9.391927719	-2.501583099	1.557993889	0.008630753	-0.000286102	0.013303757	-0.803955078	0.457763672	0.514892578	888.74	-58.02876776	-72.38089355	-96.44438351	-79
47433	0	0.372070313	-0.098632813	0.061279297	0.999999046	-0.000465393	0.000138283	0.000354767	9.301757813	-2.465820313	1.531982422	-0.023269655	0.006914139	0.017738343	-0.801513672	0.455566406	0.514892578	888.86	-58.0552754	-72.34446871	-96.48376372	-82
47434	0	0.374267578	-0.102539063	0.060791016	0.999999046	-0.000328064	-5.72205E-05	0.000255585	9.356689453	-2.563476563	1.519775391	-0.016403199	-0.002861023	0.012779236	-0.803955078	0.457763672	0.512207031	888.78	-58.1069666	-72.32952992	-96.47167095	-82
47435	0	0.371848106	-0.099506378	0.060882568	0.999998093	0.000229836	-0.000145912	1.33514E-05	9.29620266	-2.487659454	1.522064209	0.011491776	-0.007295609	0.000667572	-0.801513672	0.457763672	0.512207031	888.78	-58.07573478	-72.34354642	-96.47724706	-85
47436	0	0.372256279	-0.101305008	0.0620327	0.999999046	6.38962E-05	-0.000207901	3.71933E-05	9.306406975	-2.532625198	1.55081749	0.003194809	-0.01039505	0.001859665	-0.803955078	0.457763672	0.512207031	888.7	-58.08699727	-72.35898083	-96.46029011	-82
47437	0	0.374328613	-0.1015625	0.060424805	0.999999046	9.15527E-05	-0.000258446	0.00018692	9.358215332	-2.5390625	1.510620117	0.004577637	-0.012922287	0.009346008	-0.801513672	0.457763672	0.512207031	888.76	-58.1391885	-72.36290739	-96.39505818	-80
47438	0	0.373346329	-0.09949398	0.061224937	0.999999046	-0.000232697	-9.15527E-05	0.000343323	9.333658218	-2.48734951	1.530623436	-0.011634827	-0.004577637	0.017166138	-0.803955078	0.457763672	0.514892578	888.84	-58.20712977	-72.34152336	-96.35868945	-78
47439	0	0.373596191	-0.100769043	0.060974121	0.999999046	-0.00056839	-0.000296593	0.000564575	9.339904785	-2.519226074	1.524353027	-0.028419498	-0.014829637	0.028228763	-0.801513672	0.455566406	0.512207031	888.78	-58.41788261	-72.31088563	-96.21256776	-76
47440	0	0.371564865	-0.101258278	0.060637474	0.999999046	-0.000275612	-0.000322342	0.000372887	9.289121628	-2.531456947	1.515936852	-0.013780595	-0.016117097	0.018644334	-0.801757813	0.457763672	0.517578125	888.82	-58.56653513	-72.30037552	-96.09743732	-76
47441	0	0.373718262	-0.101806641	0.061157227	0.999999046	1.90735E-05	-0.000411034	0.000183105	9.342956543	-2.545166016	1.528930664	0.000953674	-0.020551682	0.009155274	-0.803955078	0.457763672	0.514892578	888.78	-58.67305485	-72.31363938	-95.98942972	-76
47442	0	0.372450829	-0.101574898	0.062440872	0.999999046	0.000162125	-0.000448227	4.48227E-05	9.311270714	-2.539372444	1.561021805	0.008106232	-0.022411347	0.002241135	-0.799072266	0.457763672	0.517333984	888.72	-58.74889012	-72.34258503	-95.89449698	-76
47443	0	0.378173828	-0.100219727	0.060424805	0.999999046	-1.14441E-05	-0.000422478	0.000347137	9.454345703	-2.505493164	1.510620117	-0.000572205	-0.021123887	0.017356873	-0.801757813	0.457763672	0.517578125	888.8	-58.89323931	-72.34035628	-95.75226786	-77
47444	0	0.375225067	-0.103655815	0.062789917	0.999999046	2.95639E-05	-0.000299454	0.00014019	9.380626678	-2.591395378	1.569747925	0.001478195	-0.014972687	0.007009506	-0.801757813	0.457763672	0.517578125	888.78	-58.95644439	-72.3510382	-95.68999361	-78
47445	0	0.371276855	-0.100280762	0.062805176	0.999999046	0.00018692	-0.000212669	0.000244141	9.281921387	-2.507019043	1.570129395	0.009346009	-0.010633469	0.012207032	-0.799072266	0.457763672	0.517333984	888.74	-58.99398599	-72.34635365	-95.63375164	-79
47446	0	0.376930237	-0.100197792	0.062009811	0.999999046	-2.28882E-05	-7.62939E-06	0.00069046	9.42325592	-2.504944801	1.550245285	-0.001144409	-0.00038147	0.034523013	-0.799072266	0.457763672	0.517333984	888.8	-59.07464965	-72.28573259	-95.560408	-79
47447	0	0.374023438	-0.098571777	0.061035156	0.999999046	-0.000221252	0.00011158	0.00069046	9.350585938	-2.464294434	1.525878906	-0.011062623	0.005578995	0.034523013	-0.801757813	0.460205078	0.517333984	888.8	-59.14073682	-72.21811975	-95.52408382	-80
47448	0	0.379974365	-0.101258278	0.05649662	0.999999046	0.000231743	-6.29425E-05	0.000541687	9.499359131	-2.531456947	1.412415504	0.011587144	-0.003147125	0.027084352	-0.799316406	0.462402344	0.517089844	888.84	-59.18101639	-72.17547972	-95.45438004	-80
47449	0	0.379394531	-0.098876953	0.058410645	0.999998093	0.001828194	-0.000392914	0.000450134	9.484863281	-2.471923828	1.460266113	0.09140974	-0.019645703	0.022506728	-0.799316406	0.460205078	0.517089844	888.86	-59.12246585	-72.16134806	-95.31172431	-79
47450	0	0.377039909	-0.091244698	0.060522079	0.999999046	0.000411987	-0.000236511	0.000400543	9.425997734	-2.281117439	1.513051987	0.020599367	-0.011825562	0.020027162	-0.799316406	0.464599609	0.514160156	888.86	-59.16886413	-72.14310388	-95.21526861	-79
47451	0	0.369995117	-0.096252441	0.057983398	0.999999046	-0.00018692	3.52859E-05	0.000629425	9.24987793	-2.406311035	1.449584961	-0.009346009	0.001764298	0.031471255	-0.799560547	0.464599609	0.516845703	888.84	-59.24227056	-72.08645695	-95.16856001	-79
47452	0	0.373721123	-0.091617584	0.056265831	0.999998093	0.000597	-4.76837E-06	0.001266479	9.343028069	-2.290439606	1.406645775	0.029850016	-0.000238419	0.063323995	-0.797119141	0.464599609	0.516601563	888.84	-59.35227023	-71.96957534	-94.99469541	-77
47453	0	0.377319336	-0.091674805	0.055847168	0.999999046	-0.000179291	0.000275612	0.001159668	9.432983398	-2.291870117	1.396179199	-0.008964541	0.013780597	0.057983412	-0.797119141	0.469238281	0.513427734	888.8	-59.44551244	-71.84702458	-94.91924791	-75
47454	0	0.379816055	-0.095017433	0.054556847	0.999999046	-0.000228882	0.000370026	0.000720978	9.495401382	-2.375435829	1.363921165	-0.011444093	0.018501284	0.036048893	-0.794677734	0.468994141	0.510498047	888.84	-59.43768117	-71.7624818	-94.95297761	-74
47455	0	0.379333496	-0.094116211	0.053588867	0.999999046	0.000312805	0.000325203	0.000709534	9.483337402	-2.352905273	1.33972168	0.015640261	0.016260149	0.035476689	-0.797119141	0.466796875	0.516357422	888.72	-59.37955686	-71.68194027	-94.9962153	-72
47456	0	0.379231453	-0.089432716	0.055049896	0.999998093	-0.00037384	0.000634193	0.001315117	9.480786324	-2.235817909	1.376247406	-0.018692024	0.031709683	0.065755869	-0.797119141	0.471435547	0.513427734	888.74	-59.41477928	-71.52397133	-95.01195978	-70
47457	0	0.375976563	-0.091308594	0.05670166	0.999996185	-0.000731468	0.000881195	0.002159119	9.399414063	-2.282714844	1.417541504	-0.036573446	0.044059797	0.10795604	-0.797363281	0.473632813	0.513183594	888.72	-59.56362353	-71.26859636	-94.95365698	-68
47458	0	0.382257462	-0.088540077	0.065547943	0.999994278	-0.001166344	0.001713753	0.002323151	9.556436539	-2.21350193	1.638698578	-0.058317279	0.085687776	0.116157719	-0.794921875	0.475830078	0.510009766	888.86	-59.54719689	-70.94896062	-95.11814584	-66
47459	0	0.383605957	-0.083679199	0.077575684	0.999983788	-0.003414154	0.003334999	0.003105164	9.590148926	-2.09197998	1.93939209	-0.170708625	0.166750855	0.155259018	-0.795166016	0.48046875	0.509765625	888.74	-59.46382781	-70.4581035	-95.6191679	-63
47460	0	0.392457008	-0.079426765	0.102247238	0.99995327	-0.005898476	0.005945206	0.004722595	9.811425209	-1.985669136	2.556180954	-0.294928326	0.297264864	0.236133399	-0.797363281	0.48046875	0.504394531	888.84	-59.23414468	-69.65509208	-96.58277829	-61
47461	0	0.412780762	-0.074401855	0.131774902	0.999868393	-0.010596275	0.010169983	0.006820679	10.31951904	-1.860046387	3.294372559	-0.529836925	0.508521372	0.341048842	-0.794921875	0.48046875	0.501464844	888.7	-58.83851739	-68.39519937	-98.30309743	-60
47462	0	0.435956001	-0.078033447	0.186565399	0.999704361	-0.01513958	0.016436577	0.00958252	10.89890003	-1.950836182	4.664134979	-0.757053595	0.82190984	0.479173198	-0.799804688	0.482666016	0.49609375	888.68	-58.0395108	-66.48290306	-101.0400432	-59
47463	0	0.45892334	-0.071838379	0.209106445	0.999437332	-0.018157005	0.024101257	0.014640808	11.4730835	-1.795959473	5.227661133	-0.908020559	1.20528891	0.73217772	-0.804443359	0.487060547	0.477050781	888.74	-56.99556056	-63.59243623	-104.4771322	-65
47464	0	0.454566956	-0.084429741	0.190258026	0.999137878	-0.019405365	0.030632973	0.020192146	11.36417389	-2.110743523	4.756450653	-0.970547041	1.532088731	1.00989741	-0.816650391	0.500732422	0.455078125	888.76	-56.1005415	-59.73384909	-108.0249069	-67
47465	0	0.41027832	-0.108947754	0.161865234	0.998984337	-0.013126373	0.035122871	0.02495575	10.25695801	-2.723693848	4.046630859	-0.65654078	1.756737896	1.24820976	-0.823974609	0.523193359	0.418212891	888.82	-54.90066473	-55.10382964	-111.2680769	-62
47466	0	0.324825287	-0.108417511	0.137499809	0.999014854	-0.003313065	0.036670685	0.024751663	8.120632172	-2.710437775	3.437495232	-0.165707621	1.834136283	1.237989522	-0.834228516	0.559326172	0.366943359	888.78	-52.96770976	-50.34351066	-114.2359145	-65
47467	0	0.225585938	-0.085693359	0.094787598	0.999037743	-0.001506805	0.037682533	0.022354126	5.639648438	-2.142333984	2.369689941	-0.075364425	1.884730719	1.118064638	-0.837158203	0.604248047	0.306152344	888.82	-51.07182265	-45.67311458	-117.0602862	-61
47468	0	0.103344917	-0.101366043	0.099733353	0.999073029	0.002771378	0.038199425	0.01960659	2.583622932	-2.534151077	2.493333817	0.138611669	1.910561049	0.980632246	-0.83984375	0.64453125	0.243164063	888.8	-48.91448844	-41.14242774	-119.7751174	-60
47469	0	0.025756836	-0.131469727	0.143249512	0.999026299	0.017066956	0.037045479	0.016811371	0.643920898	-3.286743164	3.581237793	0.853624829	1.852875306	0.840841444	-0.837158203	0.682617188	0.168945313	888.88	-45.46527718	-36.84553996	-122.1868431	-60
47470	0	0.15707016	-0.246143341	0.231331825	0.99881649	0.029653549	0.037441254	0.009178162	3.926753998	-6.153583527	5.783295631	1.483262608	1.872801505	0.459089192	-0.829345703	0.715820313	0.081298828	888.82	-40.53189248	-32.98819087	-124.8597728	-61
47471	0	0.191040039	-0.38067627	0.353637695	0.997917175	0.045041084	0.045845032	0.005455017	4.776000977	-9.516906738	8.840942383	2.253618653	2.29384395	0.272940327	-0.820068359	0.732666016	-0.03515625	888.8	-33.75283287	-28.4147752	-127.9862936	-63
47472	0	0.288555145	-0.499616623	0.379611969	0.996253014	0.059149742	0.062753677	0.006453514	7.213878632	-12.49041557	9.490299225	2.961185761	3.141607878	0.323079246	-0.812011719	0.735839844	-0.188232422	888.8	-25.57531632	-21.78497229	-131.2444778	-65
47473	0	0.514160156	-0.334533691	0.122009277	0.994698524	0.055931091	0.086266518	0.002082825	12.85400391	-8.363342285	3.050231934	2.801506879	4.320964189	0.104325655	-0.791992188	0.710693359	-0.391357422	888.74	-18.0654455	-12.49983801	-134.9001331	-67
47474	0	0.577318192	-0.138842583	-0.153575897	0.993350983	-0.003653526	0.114348412	-0.012792587	14.43295479	-3.471064568	-3.83939743	-0.183082229	5.730124897	-0.641050644	-0.741943359	0.667236328	-0.589599609	888.78	-17.86786093	-0.456859101	-140.4046177	-67
47475	0	0.649414063	-0.174682617	-0.441101074	0.994404793	0.010704041	0.104973793	-0.005012512	16.23535156	-4.36706543	-11.02752686	0.536202463	5.258500862	-0.251094097	-0.658447266	0.667236328	-0.715087891	888.84	-17.02487004	10.85546326	-144.6008518	-69
47476	0	0.045581818	0.537295341	-0.525005341	0.997675896	0.025897026	0.061252594	0.014828682	1.139545441	13.43238354	-13.12513351	1.295855277	3.065004336	0.742008975	-0.521972656	0.62109375	-0.840576172	888.78	-14.12028436	18.0629594	-144.8888595	-75
47477	0	-0.773986816	0.560180664	-0.638244629	0.997817039	-0.034912109	-0.040823936	0.038394928	-19.34967041	14.0045166	-15.95611572	-1.746876326	-2.042682881	1.921144037	-0.369628906	0.614257813	-0.872558594	888.8	-16.51266699	14.71187063	-139.2347837	-67
47478	0	0.28974247	0.304422379	-0.033082962	0.986726761	-0.09276104	-0.133067131	0.007567406	7.243561745	7.610559464	-0.827074051	-4.658680981	-6.682949161	0.38005319	-0.279541016	0.728027344	-0.744873047	888.68	-26.37039931	0.774744678	-132.3893902	-67
47479	0	0.69317627	-0.797607422	0.764770508	0.988297462	-0.060153961	-0.118411064	-0.075012207	17.32940674	-19.94018555	19.1192627	-3.019484996	-5.943755399	-3.765308704	-0.361328125	0.834472656	-0.435546875	888.72	-33.23926394	-15.34645842	-132.9332179	-63
47480	0	0.523939133	-1.381158829	1.256725311	0.994542122	-0.051674843	-0.043445587	-0.07954216	13.09847832	-34.52897072	31.41813278	-2.588452487	-2.176239578	-3.984358552	-0.537841797	0.738525391	-0.232421875	888.72	-37.51986168	-24.72516622	-137.7999158	-69
47481	0	-0.097900391	-1.453308105	1.551086426	0.999238968	0.027256966	-0.025817871	0.010505676	-2.447509766	-36.33270264	38.77716064	1.363193744	-1.291220778	0.525416965	-0.736572266	0.653320313	-0.137451172	888.92	-35.70016054	-26.38770966	-134.8004391	-69
47482	0	-0.084007263	-0.306246758	0.977510452	0.994789124	-0.100275993	0.011385918	0.014463425	-2.10018158	-7.656168938	24.43776131	-5.022526206	0.570286745	0.724429917	-0.83203125	0.696044922	-0.090820313	888.86	-47.38254142	-24.30889345	-134.4159368	-65
47483	0	0.163513184	-0.572631836	0.352478027	0.995785713	-0.084133148	0.033673286	0.014076233	4.08782959	-14.3157959	8.811950684	-4.212576463	1.686033352	0.704801956	-0.809082031	0.721923828	0.035644531	888.86	-56.1956495	-20.65165	-136.6357694	-62
47484	0	0.192163467	-0.432436943	0.153035164	0.998827934	-0.018385887	0.028936386	0.034148216	4.804086685	-10.81092358	3.825879097	-0.919653484	1.447384512	1.70807782	-0.791503906	0.751464844	0.072753906	888.9	-58.08872804	-15.56439198	-137.3526976	-63
47485	0	0.097595215	-0.272888184	0.159423828	0.99902916	0.00433445	0.02205658	0.037872314	2.439880371	-6.82220459	3.985595703	0.216792609	1.103185797	1.894228398	-0.766113281	0.805664063	0.041748047	888.78	-57.63332581	-10.54452342	-137.2139559	-64
47486	0	0.067340851	-0.206884384	0.130702019	0.999205589	0.002592087	0.015899658	0.036445618	1.683521271	-5.172109604	3.267550468	0.129638662	0.79519344	1.822763465	-0.71875	0.861328125	-0.001953125	888.88	-57.44295959	-6.043010586	-136.5488221	-65
47487	0	0.017028809	-0.168151855	0.100524902	0.999457359	0.002529144	0.011647224	0.030693054	0.425720215	-4.203796387	2.513122559	0.126480075	0.582466497	1.534930136	-0.659179688	0.910400391	-0.021240234	888.86	-57.21550879	-2.362482558	-135.8030098	-65
47488	0	0.020171165	-0.151742935	0.054274559	0.999734879	0.010068893	0.006697655	0.019577026	0.504279137	-3.79357338	1.356863976	0.503489111	0.334912297	0.978937723	-0.596679688	0.947998047	-0.048095703	888.88	-56.08117204	-0.067911081	-135.2146381	-66
47489	0	-0.019287109	-0.153808594	0.043151855	0.999789238	0.019538879	-0.002139091	0.005886078	-0.482177734	-3.845214844	1.078796387	0.97701253	-0.10696208	0.294324548	-0.54296875	0.960693359	-0.074707031	888.84	-53.84913616	0.343017506	-134.5999566	-66
47490	0	-0.00911808	-0.13986969	0.102321625	0.999656677	0.023568153	-0.010689735	-0.003903389	-0.227952003	-3.496742249	2.558040619	1.178542239	-0.534547807	-0.195191736	-0.512695313	0.959960938	-0.114990234	888.76	-51.15890188	-0.757263964	-133.8623685	-68
47491	0	-0.020751953	-0.146179199	0.114929199	0.999685287	0.015591621	-0.014339447	-0.013404846	-0.518798828	-3.65447998	2.87322998	0.779662742	-0.717047464	-0.670312527	-0.511474609	0.946044922	-0.143554688	888.78	-49.38880782	-2.987601116	-133.5409102	-70
47492	0	0.03006649	-0.198278427	0.148179054	0.999477386	0.007413864	-0.018593788	-0.025367737	0.751662254	-4.956960678	3.704476357	0.370757751	-0.929851283	-1.26860769	-0.522460938	0.921142578	-0.148925781	888.76	-48.52063019	-6.578304602	-133.7901786	-64
47493	0	0.065002441	-0.269470215	0.203430176	0.999281883	0.01096344	-0.016032219	-0.032505035	1.625061035	-6.736755371	5.085754395	0.548303077	-0.80180263	-1.625640404	-0.557861328	0.883056641	-0.137695313	888.84	-47.09772065	-10.57179539	-134.8710563	-61
47494	0	0.116709709	-0.282315254	0.22974205	0.999107361	0.020186424	-0.016724586	-0.033102989	2.917742729	-7.057881355	5.743551254	1.009621392	-0.836478025	-1.655641713	-0.612060547	0.831542969	-0.137451172	888.86	-44.5039597	-14.62778353	-136.1016083	-60
47495	0	0.171813965	-0.248474121	0.277709961	0.999162674	0.021000862	-0.017780304	-0.030258179	4.295349121	-6.211853027	6.942749023	1.050336067	-0.889263232	-1.513331035	-0.670654297	0.777587891	-0.144775391	888.9	-41.76095877	-18.48598644	-137.2366534	-61
47496	0	0.168517113	-0.204435349	0.290513039	0.999379158	0.012009621	-0.0170784	-0.028374672	4.212927818	-5.110883713	7.262825966	0.600605305	-0.854096704	-1.419027208	-0.727050781	0.723632813	-0.146972656	888.88	-39.94898705	-22.09392747	-138.4711174	-63
47497	0	0.191833496	-0.182556152	0.254516602	0.999493599	-0.004432678	-0.015753746	-0.027271271	4.795837402	-4.563903809	6.362915039	-0.221671294	-0.78782016	-1.363793528	-0.774169922	0.674316406	-0.128417969	888.86	-39.91054001	-25.48554245	-139.8237434	-63
47498	0	0.20821476	-0.400858879	0.270847321	0.999803543	-0.015463829	-0.010537148	-0.006457329	5.205368996	-10.02147198	6.771183014	-0.773241958	-0.526891791	-0.32288753	-0.814941406	0.634277344	-0.089599609	888.78	-41.79681873	-26.88360649	-139.6173501	-61
47499	0	0.228393555	-0.369995117	0.301574707	0.999826431	0.007348061	-0.016559601	0.004165649	5.709838867	-9.24987793	7.539367676	0.367424194	-0.828027736	0.208294468	-0.852539063	0.633056641	-0.045898438	888.8	-41.79781798	-27.98091749	-137.8537731	-60
47500	0	0.231539726	-0.28181076	0.280539513	0.999215126	0.0340662	-0.018785477	0.007359505	5.788493156	-7.045269012	7.013487816	1.703755334	-0.939519403	0.36807144	-0.850830078	0.64453125	-0.033447266	888.8	-39.00214386	-29.07416413	-135.5850795	-60
47501	0	0.24029541	-0.350463867	0.411560059	0.996052742	0.087097168	-0.017092705	0.00063324	6.007385254	-8.76159668	10.28900146	4.360597043	-0.85576144	0.03170371	-0.840576172	0.6484375	-0.067138672	888.78	-29.67795286	-30.6477209	-134.2578627	-62
47502	0	0.218038559	-0.080654144	0.562587738	0.997538567	0.069639206	-0.00434494	0.006937027	5.450963974	-2.016353607	14.06469345	3.484819874	-0.217425424	0.347136202	-0.832519531	0.626953125	-0.171875	888.86	-22.241773	-30.73990834	-133.2099402	-62
47503	0	0.207824707	0.047424316	0.367431641	0.999856949	-0.015677452	-0.000385284	0.006214142	5.195617676	1.18560791	9.185791016	-0.783909784	-0.019265135	0.310721829	-0.833496094	0.619628906	-0.217285156	888.86	-24.42862402	-30.49019032	-132.4967579	-61
47504	0	0.22563839	-0.119171143	0.304510117	0.999697685	-0.024096489	-0.000652313	0.00483799	5.64095974	-2.979278564	7.612752914	-1.204945861	-0.032618948	0.241923867	-0.830322266	0.642822266	-0.181640625	888.84	-27.4943335	-30.30798479	-131.9399462	-60
47505	0	0.198425293	-0.198791504	0.247436523	0.999960899	-0.006084442	-0.002234459	0.005893707	4.960632324	-4.969787598	6.185913086	-0.304225999	-0.111724375	0.294689133	-0.819335938	0.656494141	-0.15625	888.84	-28.60340522	-30.21068357	-131.1602234	-60
47506	0	0.183560371	-0.2113657	0.241202354	0.999936104	0.010414124	-0.002449036	0.003410339	4.589009285	-5.284142494	6.030058861	0.520717119	-0.122454356	0.170520551	-0.814941406	0.665527344	-0.149414063	888.72	-27.68340848	-30.26819617	-130.6480676	-60
47507	0	0.201660156	-0.151000977	0.29296875	0.999974251	0.007007599	0.000355721	0.000926971	5.041503906	-3.775024414	7.32421875	0.350382869	0.017786174	0.046348959	-0.807373047	0.667724609	-0.163574219	888.8	-26.91982785	-30.17753201	-130.5902618	-60
47508	0	0.194417	-0.130812645	0.313217163	0.999975204	-0.005914688	0.002366066	-0.002811432	4.860424995	-3.270316124	7.830429077	-0.295736795	0.118304255	-0.14057273	-0.8046875	0.663085938	-0.168945313	888.8	-27.35428646	-30.07740608	-131.0903609	-61
47509	0	0.188598633	-0.189453125	0.333190918	0.999966621	-0.006637573	0.000660896	-0.004528046	4.71496582	-4.736328125	8.329772949	-0.331882257	0.033045173	-0.226404735	-0.8046875	0.660888672	-0.166015625	888.84	-27.82241793	-30.24445957	-131.6795177	-61
47510	0	0.192155838	-0.169677734	0.308989525	0.999987602	0.000246048	-0.001495361	-0.004721642	4.80389595	-4.241943359	7.724738121	0.012302449	-0.074768373	-0.236083045	-0.809326172	0.654052734	-0.159667969	888.8	-27.55456312	-30.6413455	-132.1570541	-61
47511	0	0.201965332	-0.158325195	0.293029785	0.999985695	0.001506805	-0.001471519	-0.004764557	5.049133301	-3.958129883	7.325744629	0.075340612	-0.073576306	-0.238228922	-0.813964844	0.647216797	-0.156005859	888.8	-27.13364705	-31.03566382	-132.6428455	-61
47512	0	0.214992523	-0.147959709	0.292544365	0.99998951	0.002928734	-0.000972748	-0.003322601	5.37481308	-3.698992729	7.313609123	0.146437193	-0.048637557	-0.166130635	-0.820800781	0.638183594	-0.16015625	888.78	-26.61794734	-31.3011154	-132.997211	-61
47513	0	0.21282959	-0.137756348	0.306335449	0.999997139	0.001502991	-0.00039196	-0.001651764	5.320739746	-3.443908691	7.65838623	0.075149601	-0.019598024	-0.082588267	-0.827880859	0.631591797	-0.158935547	888.9	-26.34910028	-31.41965239	-133.196909	-61
47514	0	0.203899384	-0.141337395	0.311180115	0.999999046	-1.90735E-05	-0.000247955	0.000411987	5.097484589	-3.533434868	7.779502869	-0.000953674	-0.012397767	0.020599366	-0.832763672	0.629394531	-0.158447266	888.76	-26.37893611	-31.41796522	-133.1650469	-61
47515	0	0.200439453	-0.145446777	0.301574707	0.999998093	-0.001471519	-0.000431061	0.001010895	5.010986328	-3.636169434	7.539367676	-0.073576015	-0.021553052	0.050544767	-0.832763672	0.631591797	-0.161376953	888.78	-26.61831742	-31.40430243	-133.0501518	-61
47516	0	0.207268715	-0.159796715	0.294701576	0.999999046	-0.000624657	0.0001297	0.000236511	5.181717873	-3.99491787	7.367539406	-0.031232836	0.006484986	0.011825562	-0.833007813	0.633789063	-0.158935547	888.84	-26.69481687	-31.37279326	-133.0598525	-61
47517	0	0.210632324	-0.15020752	0.29675293	0.999999046	0.000499725	0.000336647	0.000312805	5.265808105	-3.755187988	7.418823242	0.024986269	0.016832353	0.01564026	-0.833007813	0.633789063	-0.158935547	888.8	-26.64073464	-31.31631176	-133.0731123	-61
47518	0	0.203383446	-0.137947083	0.303557396	0.999998093	-0.001467705	0.000584602	0.000536919	5.084586143	-3.448677063	7.588934898	-0.073385273	0.029230131	0.026845944	-0.830566406	0.633789063	-0.158935547	888.84	-26.8179353	-31.22293338	-133.0740063	-61
47519	0	0.198364258	-0.15838623	0.30291748	0.999992371	-0.00373745	0.000434875	0.000160217	4.959106445	-3.959655762	7.572937012	-0.186872924	0.021743826	0.008010883	-0.830566406	0.633789063	-0.15625	888.88	-27.23644232	-31.16429864	-133.1125127	-61
47520	0	0.196587563	-0.164464951	0.297838211	0.999998093	-0.001411438	0.000155449	-0.000470161	4.914689064	-4.111623764	7.445955276	-0.070571926	0.007772449	-0.023508081	-0.828369141	0.636230469	-0.154052734	888.9	-27.35853114	-31.16724786	-133.2023697	-61
47521	0	0.206665039	-0.157287598	0.293518066	0.999995232	-0.001972198	5.81741E-05	-0.002037048	5.166625977	-3.932189941	7.33795166	-0.098610056	0.002908711	-0.101852554	-0.830810547	0.634033203	-0.150878906	888.84	-27.45139449	-31.26298765	-133.4713714	-61
47522	0	0.195129395	-0.169616699	0.308898926	0.999994278	0.001484871	-0.000956535	-0.002613068	4.878234863	-4.24041748	7.722473145	0.074243669	-0.047826846	-0.130653598	-0.830566406	0.631591797	-0.150634766	888.82	-27.14403299	-31.49162976	-133.7401683	-61
47523	0	0.197875977	-0.150268555	0.309020996	0.999993324	0.002616882	-0.001841545	-0.001285553	4.946899414	-3.756713867	7.725524902	0.130844376	-0.092077438	-0.064277776	-0.832763672	0.624755859	-0.152587891	888.88	-26.81640283	-31.74014708	-133.8027415	-61
47524	0	0.20615387	-0.131881714	0.298583031	0.999997139	0.000311852	-0.002029419	4.19617E-05	5.153846741	-3.297042847	7.464575768	0.015592586	-0.101471019	0.002098085	-0.837646484	0.622558594	-0.149414063	888.84	-26.8421182	-31.93916152	-133.7020085	-61
47525	0	0.207092285	-0.157287598	0.299865723	0.999996185	2.00272E-05	-0.002166748	0.00125885	5.177307129	-3.932189941	7.496643066	0.001001359	-0.108337516	0.062942571	-0.840087891	0.622802734	-0.146484375	888.8	-26.98410132	-32.08890927	-133.4507597	-61
47526	0	0.208080292	-0.160668373	0.292684555	0.999998093	0.000647545	-0.001336098	0.000127792	5.202007294	-4.016709328	7.317113876	0.032377255	-0.066804911	0.00638962	-0.840087891	0.625	-0.146728516	888.96	-26.95548377	-32.21238968	-133.3822996	-61
47527	0	0.209777832	-0.158996582	0.293334961	0.999995232	0.002700806	-0.000803947	-0.000991821	5.244445801	-3.974914551	7.333374023	0.135040484	-0.040197432	-0.049591138	-0.840332031	0.625	-0.141357422	888.9	-26.60199963	-32.33946763	-133.4776117	-61
47528	0	0.213294029	-0.142232895	0.302371025	0.999998093	0.001596451	-0.000500679	-0.000934601	5.332350731	-3.555822372	7.559275627	0.079822589	-0.025033966	-0.04673007	-0.840087891	0.622802734	-0.146484375	888.9	-26.36812647	-32.43216504	-133.5831393	-61
47529	0	0.212402344	-0.145874023	0.298706055	0.999999046	9.53674E-05	-0.000430107	-0.000335693	5.310058594	-3.646850586	7.467651367	0.004768372	-0.021505357	-0.016784669	-0.840087891	0.620361328	-0.146240234	888.92	-26.34272921	-32.48698744	-133.6218851	-61
47530	0	0.212463379	-0.143981934	0.299072266	0.999999046	0.00031662	-0.000209808	0.000400543	5.311584473	-3.59954834	7.476806641	0.015830994	-0.010490418	0.020027162	-0.842529297	0.620605469	-0.143310547	888.92	-26.33284126	-32.48178261	-133.5876579	-61
47531	0	0.208007813	-0.153869629	0.300720215	0.999999046	-2.67029E-05	-0.000231743	0.000411987	5.200195313	-3.846740723	7.518005371	-0.001335144	-0.011587143	0.020599366	-0.844970703	0.620605469	-0.143310547	888.78	-26.36381566	-32.4781487	-133.5540473	-61
47532	0	0.207597733	-0.147099495	0.298784256	0.999999046	9.44138E-05	-0.000509262	-0.000229836	5.189943314	-3.677487373	7.4696064	0.004720688	-0.025463106	-0.011491776	-0.842529297	0.620605469	-0.146240234	888.7	-26.34790265	-32.53561356	-133.5771947	-61
47533	0	0.209289551	-0.159667969	0.296264648	0.999998093	0.000855446	-0.000709534	-0.001079559	5.23223877	-3.991699219	7.406616211	0.04277231	-0.035476699	-0.053977988	-0.842529297	0.620605469	-0.143310547	888.84	-26.19560406	-32.65667729	-133.6872152	-61
47534	0	0.208071709	-0.14779377	0.293170929	0.999994278	0.00265789	-0.000609398	-0.001974106	5.201792717	-3.694844246	7.329273224	0.132894767	-0.030469952	-0.098705478	-0.842285156	0.615966797	-0.1484375	888.88	-25.77363673	-32.81185872	-133.9106655	-61
47535	0	0.215332031	-0.150939941	0.300476074	0.999994278	0.002415657	-0.000297546	-0.002243042	5.383300781	-3.773498535	7.511901855	0.120783073	-0.014877346	-0.112152304	-0.844482422	0.611328125	-0.147949219	888.86	-25.35015737	-32.94668905	-134.1868853	-61
47536	0	0.211512566	-0.128663063	0.297009468	0.999995232	0.002175331	-0.000324249	-0.001708984	5.28781414	-3.216576576	7.425236702	0.108766696	-0.016212484	-0.085449329	-0.846679688	0.606933594	-0.147460938	888.84	-24.98944857	-33.05669966	-134.3984805	-61
47537	0	0.215209961	-0.141662598	0.303894043	0.999998093	0.001038551	-0.000370026	-0.001068115	5.380249023	-3.541564941	7.597351074	0.051927587	-0.018501289	-0.053405783	-0.848876953	0.604492188	-0.155273438	888.78	-24.803068	-33.1396693	-134.5290276	-61
47538	0	0.214740753	-0.134179115	0.297544479	0.999999046	0.00043869	-0.0004673	-0.000602722	5.368518829	-3.354477882	7.438611984	0.021934512	-0.023365024	-0.030136112	-0.853759766	0.600097656	-0.154541016	888.76	-24.71968274	-33.21020532	-134.6052972	-61
47539	0	0.21685791	-0.141235352	0.299865723	0.999999046	0.001121521	-0.000231743	-0.000576019	5.421447754	-3.530883789	7.496643066	0.056076065	-0.011587146	-0.028800972	-0.853759766	0.600097656	-0.151611328	888.84	-24.55236465	-33.25482481	-134.6890043	-61
47540	0	0.214291573	-0.140863419	0.300936699	0.999999046	0.001072884	-0.000562668	-0.000652313	5.357289314	-3.521585464	7.523417473	0.053644197	-0.028133401	-0.032615672	-0.853515625	0.597900391	-0.156982422	888.8	-24.39556812	-33.33735663	-134.7622912	-61
47541	0	0.213317871	-0.135864258	0.299316406	0.999997139	0.001941681	-0.000559807	-0.000904083	5.332946777	-3.396606445	7.482910156	0.097084125	-0.027990364	-0.0452042	-0.855957031	0.595458984	-0.153808594	888.76	-24.1214286	-33.43119409	-134.869569	-61
47542	0	0.214390755	-0.140561104	0.294192314	0.999998093	0.001441002	-0.00042057	-0.001094818	5.359768867	-3.514027596	7.354807854	0.072050136	-0.021028531	-0.054740937	-0.858398438	0.595703125	-0.156494141	888.84	-23.88685958	-33.51897626	-135.0056572	-61
47543	0	0.214355469	-0.141174316	0.290222168	0.999984741	0.004746437	-0.001998901	-0.001934052	5.358886719	-3.52935791	7.255554199	0.237323051	-0.099945573	-0.096703063	-0.858154297	0.588867188	-0.155761719	888.68	-23.26223691	-33.8101717	-135.1613103	-61
47544	0	0.220641136	-0.176880836	0.315942764	0.999836922	0.016663551	-0.005121231	-0.0045681	5.516028404	-4.422020912	7.898569107	0.833222671	-0.256075416	-0.228417364	-0.860107422	0.584228516	-0.160644531	888.86	-21.16849988	-34.54327926	-135.4825534	-61
47545	0	0.222717285	-0.151062012	0.304748535	0.999440193	0.032363892	-0.005522728	-0.006282806	5.567932129	-3.776550293	7.618713379	1.618496092	-0.27618785	-0.314198852	-0.861572266	0.568115234	-0.175537109	888.78	-17.12363957	-35.36807857	-136.0491929	-61
47546	0	0.22961235	-0.072207451	0.288010597	0.999614716	0.027056694	-0.002774239	-0.005520821	5.740308762	-1.805186272	7.200264931	1.35300843	-0.138729742	-0.27607648	-0.869628906	0.540771484	-0.205322266	888.84	-13.64097253	-35.83237217	-136.6968184	-61
47547	0	0.22833252	-0.028015137	0.293701172	0.999930382	0.010795593	0.000267982	-0.004657745	5.708312988	-0.700378418	7.342529297	0.539792107	0.013399433	-0.232892637	-0.878173828	0.520019531	-0.227294922	888.76	-12.0163105	-35.91041592	-137.3610903	-62
47548	0	0.226919174	-0.045345306	0.315649033	0.999993324	0.000386238	0.001579285	-0.003264427	5.672979355	-1.13363266	7.891225815	0.019311948	0.078964408	-0.163221721	-0.887451172	0.510986328	-0.231201172	888.8	-11.67392721	-35.79923353	-137.8836159	-62
47549	0	0.2265625	-0.053405762	0.318908691	0.999990463	-0.003733635	0.001235962	-0.001583099	5.6640625	-1.335144043	7.972717285	-0.186682307	0.061798281	-0.079155205	-0.889648438	0.506591797	-0.233398438	888.8	-11.94616117	-35.68679759	-138.1675824	-61
47550	0	0.229109764	-0.06932354	0.316155434	0.999994278	-0.003144264	0.000243187	-0.000263214	5.727744102	-1.733088493	7.903885841	-0.157213473	0.012159368	-0.013160728	-0.89453125	0.506591797	-0.235839844	888.96	-12.2741796	-35.65500795	-138.2442653	-61
47551	0	0.233886719	-0.068115234	0.313476563	0.999998093	0.001328468	-0.000576019	0.000850677	5.847167969	-1.702880859	7.836914063	0.066423447	-0.028800978	0.042533895	-0.89453125	0.506591797	-0.233154297	888.9	-12.19340556	-35.6881034	-138.1455423	-61
47552	0	0.231567383	-0.069885254	0.311706543	0.999999046	0.000676155	-0.00050354	0.000907898	5.78918457	-1.747131348	7.792663574	0.033807763	-0.025177008	0.045394909	-0.892089844	0.506591797	-0.233398438	888.8	-12.1908129	-35.71181293	-138.040255	-61
47553	0	0.227606773	-0.067587852	0.313968658	0.999998093	-0.000720024	-0.000247955	0.000630379	5.690169334	-1.689696312	7.849216461	-0.036001211	-0.012397768	0.031518941	-0.89453125	0.506591797	-0.23046875	888.76	-12.32141391	-35.71351121	-137.9863484	-61
47554	0	0.226285934	-0.078648567	0.312159538	0.999999046	5.53131E-05	-7.05719E-05	-0.000148773	5.657148361	-1.96621418	7.803988457	0.002765656	-0.003528595	-0.00743866	-0.892333984	0.508789063	-0.230712891	888.84	-12.29757088	-35.71427351	-138.0373241	-61
47555	0	0.223754883	-0.069091797	0.307983398	0.999999046	-7.62939E-06	3.52859E-05	-0.000476837	5.59387207	-1.727294922	7.699584961	-0.00038147	0.001764298	-0.023841859	-0.892333984	0.508789063	-0.230712891	888.92	-12.25270431	-35.7111294	-138.1341146	-61
47556	0	0.229538918	-0.071563721	0.313063622	0.999999046	0.000248909	1.14441E-05	-0.000499725	5.738472939	-1.789093018	7.826590538	0.01244545	0.000572205	-0.024986268	-0.892089844	0.506591797	-0.233398438	888.84	-12.1770759	-35.71113764	-138.2326976	-61
47557	0	0.228637695	-0.066650391	0.313659668	0.999999046	0.000469208	-0.000212669	-0.00019455	5.715942383	-1.666259766	7.841491699	0.023460389	-0.010633469	-0.009727479	-0.89453125	0.504394531	-0.230224609	888.8	-12.10459726	-35.7287962	-138.2885728	-61
47558	0	0.231726646	-0.065349579	0.314720154	0.999999046	8.01086E-05	-0.000305176	2.28882E-05	5.793166161	-1.633739471	7.868003845	0.004005432	-0.015258789	0.001144409	-0.894287109	0.504394531	-0.235595703	888.8	-12.09574323	-35.75160128	-138.3077858	-61
47559	0	0.231811523	-0.072570801	0.314453125	0.999999046	0.000526428	-0.000353813	0.000370026	5.795288086	-1.81427002	7.861328125	0.026321413	-0.01769066	0.018501283	-0.89453125	0.504394531	-0.232910156	888.72	-12.06468011	-35.77154089	-138.2793754	-61
47560	0	0.231375694	-0.062708855	0.312096596	0.999999046	0.000317574	-0.000270844	0.000507355	5.784392357	-1.567721367	7.802414894	0.015878679	-0.013542176	0.025367739	-0.892089844	0.504394531	-0.233154297	888.86	-12.06710107	-35.77895103	-138.2324877	-61
47561	0	0.231384277	-0.076538086	0.311828613	0.999998093	0.001496315	-0.000335693	0.000659943	5.784606934	-1.913452148	7.795715332	0.074815785	-0.016784676	0.032997147	-0.89453125	0.504394531	-0.232910156	888.86	-11.94808811	-35.79005829	-138.1666816	-61
47562	0	0.228770256	-0.058750153	0.313987732	0.999997139	0.002214432	-0.000406265	0.000647545	5.719256401	-1.468753815	7.849693298	0.110721689	-0.020313282	0.032377273	-0.891845703	0.504394531	-0.235839844	888.72	-11.74678432	-35.80954668	-138.096737	-61
47563	0	0.229736328	-0.066955566	0.31237793	0.999999046	-0.000869751	3.91006E-05	0.000457764	5.743408203	-1.67388916	7.809448242	-0.043487556	0.001955033	0.022888187	-0.892089844	0.506591797	-0.236083984	888.8	-11.87602684	-35.78357827	-138.0639199	-61
47564	0	0.227329254	-0.069599152	0.312151909	0.999999046	-0.000760078	2.67029E-05	0.000376701	5.683231354	-1.73997879	7.803797722	-0.038003926	0.001335144	0.01883507	-0.89453125	0.506591797	-0.235839844	888.86	-11.98636542	-35.76082116	-138.0463253	-61
47565	0	0.22857666	-0.066711426	0.311218262	0.999999046	-0.000484467	5.81741E-05	8.01086E-05	5.714416504	-1.667785645	7.780456543	-0.024223329	0.002908707	0.004005432	-0.892333984	0.508789063	-0.230712891	888.86	-12.04060842	-35.74158379	-138.0667349	-61
47566	0	0.229748726	-0.074132919	0.313674927	0.999999046	-6.29425E-05	-0.000171661	-0.000107765	5.743718147	-1.853322983	7.841873169	-0.003147125	-0.008583069	-0.00538826	-0.892333984	0.508789063	-0.230712891	888.86	-12.03548178	-35.75258465	-138.1049145	-61
47567	0	0.228149414	-0.065734863	0.314880371	0.999999046	0.000904083	-0.000372887	0.000118256	5.703735352	-1.643371582	7.872009277	0.04520417	-0.018644336	0.005912782	-0.889648438	0.508789063	-0.233642578	888.9	-11.94116841	-35.78070496	-138.1002593	-61
47568	0	0.230561256	-0.064740181	0.309820175	0.999998093	-0.000425339	-0.000167847	6.48499E-05	5.76403141	-1.618504524	7.745504379	-0.021266938	-0.008392334	0.003242493	-0.892089844	0.506591797	-0.233398438	888.86	-11.9913116	-35.78716925	-138.1157964	-61
47569	0	0.228881836	-0.069396973	0.31048584	0.999999046	-7.62939E-05	-6.67572E-06	0.00038147	5.722045898	-1.734924316	7.762145996	-0.003814697	-0.000333786	0.019073487	-0.894775391	0.508789063	-0.23046875	888.84	-12.02431972	-35.76803672	-138.094445	-61
47570	0	0.229079247	-0.066446304	0.316025734	0.999999046	-0.000131607	-0.000144958	0.00032711	5.726981163	-1.661157608	7.900643349	-0.006580353	-0.007247925	0.016355515	-0.892089844	0.508789063	-0.233398438	888.84	-12.06159989	-35.76564771	-138.0721666	-61
47571	0	0.228881836	-0.073425293	0.312927246	0.999999046	-8.7738E-05	8.86917E-05	-4.57764E-05	5.722045898	-1.835632324	7.823181152	-0.004386902	0.004434586	-0.002288818	-0.889892578	0.508789063	-0.230957031	888.78	-12.05985362	-35.74597514	-138.1061927	-61
47572	0	0.230358124	-0.070224762	0.313504219	0.999999046	0.000653267	-0.000110626	-0.000106812	5.758953094	-1.755619049	7.837605476	0.032663348	-0.005531311	-0.005340577	-0.892333984	0.508789063	-0.230712891	888.78	-11.97175399	-35.75008624	-138.1446819	-61
47573	0	0.229492188	-0.063049316	0.309631348	0.999999046	0.00019455	-3.33786E-05	-7.62939E-05	5.737304688	-1.57623291	7.740783691	0.009727478	-0.00166893	-0.003814697	-0.892089844	0.506591797	-0.233398438	888.84	-11.93726948	-35.74483561	-138.1824126	-61
47574	0	0.227265358	-0.070522308	0.313365936	0.999999046	0.000135422	9.53674E-06	-9.63211E-05	5.681633949	-1.763057709	7.834148407	0.006771088	0.000476837	-0.004816055	-0.892333984	0.511230469	-0.233642578	888.92	-11.90730085	-35.73518959	-138.2148936	-61
47575	0	0.229187012	-0.06427002	0.315368652	0.999999046	0.00043869	-0.000170708	0.000278473	5.729675293	-1.606750488	7.884216309	0.02193451	-0.008535386	0.013923646	-0.892089844	0.508789063	-0.236083984	888.9	-11.87580402	-35.73687378	-138.1937009	-61
47576	0	0.229866028	-0.06778717	0.311320305	0.999999046	-0.00039196	-3.05176E-05	0.000205994	5.746650696	-1.69467926	7.783007622	-0.019598008	-0.001525879	0.010299683	-0.892089844	0.506591797	-0.236083984	888.9	-11.93128025	-35.72457791	-138.1912098	-61
47577	0	0.227722168	-0.067382813	0.312988281	0.999999046	0.000106812	-0.000178337	0.000411987	5.693054199	-1.684570313	7.824707031	0.005340576	-0.008916855	0.020599366	-0.892089844	0.506591797	-0.233398438	888.82	-11.94872473	-35.72394698	-138.1585226	-61
47578	0	0.22936821	-0.0629282	0.311453819	0.999999046	-0.000453949	-0.000141144	0.000537872	5.734205246	-1.573204994	7.786345482	-0.022697451	-0.007057191	0.026893618	-0.89453125	0.508789063	-0.233398438	888.9	-12.0398398	-35.71614902	-138.1105038	-61
47579	0	0.232299805	-0.070678711	0.317138672	0.999999046	-0.000751495	5.05447E-05	0.000476837	5.807495117	-1.766967773	7.928466797	-0.037574773	0.002527237	0.023841861	-0.892089844	0.508789063	-0.233398438	888.92	-12.15683839	-35.68825167	-138.0752113	-61
47580	0	0.228475571	-0.073266029	0.317234039	0.999999046	-0.000180244	-0.000310898	0.000239372	5.711889267	-1.831650734	7.930850983	-0.009012223	-0.015544892	0.011968613	-0.892333984	0.511230469	-0.233642578	888.9	-12.19559832	-35.70646737	-138.0576108	-61
47581	0	0.22869873	-0.067749023	0.308959961	0.999999046	-7.62939E-05	-0.000231743	8.7738E-05	5.717468262	-1.693725586	7.723999023	-0.003814697	-0.011587143	0.004386902	-0.889648438	0.508789063	-0.233642578	888.78	-12.20886307	-35.7195227	-138.0638194	-61
47582	0	0.227913857	-0.07101059	0.308232307	0.999999046	-6.67572E-05	8.01086E-05	-7.24792E-05	5.697846413	-1.77526474	7.705807686	-0.00333786	0.004005432	-0.003623962	-0.889892578	0.511230469	-0.231201172	888.76	-12.20277976	-35.70155718	-138.0978748	-61
47583	0	0.228759766	-0.066955566	0.315673828	0.999999046	0.000396729	2.00272E-05	3.05176E-05	5.718994141	-1.67388916	7.891845703	0.019836426	0.001001358	0.001525879	-0.889892578	0.510986328	-0.233886719	888.84	-12.1528756	-35.68778944	-138.1145298	-61
47584	0	0.229475975	-0.067515373	0.31317234	0.999999046	-0.000309944	-0.000148773	0.0001297	5.736899376	-1.687884331	7.82930851	-0.015497208	-0.00743866	0.006484985	-0.889892578	0.511230469	-0.231201172	888.76	-12.19483685	-35.69054207	-138.1137107	-61
47585	0	0.229492188	-0.071411133	0.315979004	0.999999046	-7.24792E-05	-0.000166893	7.62939E-05	5.737304688	-1.78527832	7.899475098	-0.003623962	-0.00834465	0.003814697	-0.892089844	0.508789063	-0.233398438	888.84	-12.20564451	-35.69658955	-138.1257406	-61
47586	0	0.229890823	-0.068379402	0.312107086	0.999999046	9.91821E-05	-0.000204086	0.000243187	5.747270584	-1.709485054	7.802677155	0.004959107	-0.010204315	0.012159348	-0.889892578	0.513427734	-0.234130859	888.84	-12.21085794	-35.70277868	-138.101601	-61
47587	0	0.229492188	-0.06628418	0.313232422	0.999999046	1.90735E-05	-1.43051E-05	0.000255585	5.737304688	-1.657104492	7.830810547	0.000953674	-0.000715256	0.012779236	-0.889648438	0.510986328	-0.236572266	888.88	-12.22287448	-35.68742107	-138.0853819	-61
47588	0	0.230319977	-0.070174217	0.314692497	0.999999046	-0.000664711	-0.000156403	0.000209808	5.75799942	-1.754355431	7.867312431	-0.033235553	-0.00782013	0.010490418	-0.889892578	0.510986328	-0.233886719	888.8	-12.31205626	-35.68907929	-138.0737604	-62
47589	0	0.230041504	-0.074401855	0.311645508	0.999999046	0.000171661	2.38419E-05	0.000198364	5.751037598	-1.860046387	7.791137695	0.008583069	0.001192093	0.009918213	-0.889892578	0.508789063	-0.228271484	888.96	-12.30142942	-35.67085073	-138.0771389	-62
47590	0	0.229878426	-0.066757202	0.311190605	0.999999046	9.53674E-05	0.000171661	0.000128746	5.74696064	-1.668930054	7.779765129	0.004768372	0.008583069	0.006437302	-0.889892578	0.511230469	-0.231201172	888.86	-12.29131309	-35.63780951	-138.0883317	-62
47591	0	0.228088379	-0.069091797	0.31237793	0.999999046	-0.000354767	0.000329018	9.53674E-05	5.702209473	-1.727294922	7.809448242	-0.017738343	0.016450883	0.004768372	-0.892333984	0.513427734	-0.233886719	888.78	-12.32734665	-35.58796607	-138.1070243	-61
47592	0	0.228112221	-0.07106781	0.314002991	0.999999046	-0.000569344	0.000228882	6.38962E-05	5.702805519	-1.776695251	7.850074768	-0.02846718	0.011444093	0.003194809	-0.892333984	0.511230469	-0.233642578	888.9	-12.38721741	-35.55010098	-138.1319521	-62
47593	0	0.229064941	-0.074401855	0.313476563	0.999999046	-0.000114441	0.0002985	-0.000415802	5.726623535	-1.860046387	7.836914063	-0.005722046	0.014925004	-0.020790101	-0.889892578	0.510986328	-0.233886719	888.74	-12.35549911	-35.51622454	-138.2197947	-62
47594	0	0.227836609	-0.069401741	0.314084053	0.999999046	0.000244141	0.000411987	-0.000995636	5.695915222	-1.735043526	7.852101326	0.012207034	0.020599369	-0.049781809	-0.889648438	0.508789063	-0.233642578	888.86	-12.2344869	-35.48369043	-138.3901447	-61
47595	0	0.226867676	-0.074707031	0.313354492	0.999998093	-6.00815E-05	0.000442505	-0.001529694	5.671691895	-1.867675781	7.833862305	-0.003004075	0.022125254	-0.076484713	-0.892089844	0.508789063	-0.233398438	888.9	-12.10546297	-35.46031714	-138.6309886	-62
47596	0	0.226019859	-0.072649956	0.313484192	0.999998093	0.001449585	0.000197411	-0.000995636	5.650496483	-1.816248894	7.837104797	0.072479286	0.009870534	-0.049781825	-0.886962891	0.504150391	-0.236083984	888.92	-11.85045663	-35.451024	-138.7862242	-62
47597	0	0.229736328	-0.049865723	0.316650391	0.999999046	0.000305176	0.000187874	-9.91821E-05	5.743408203	-1.246643066	7.916259766	0.015258789	0.009393692	-0.004959107	-0.891601563	0.499755859	-0.240966797	888.86	-11.79797687	-35.42144567	-138.8299188	-62
47598	0	0.229202271	-0.06152916	0.317688942	0.999997139	-0.001817703	6.86646E-05	0.001097679	5.730056763	-1.538228989	7.942223549	-0.090885231	0.00343323	0.054883998	-0.894287109	0.501953125	-0.240966797	888.84	-12.08597943	-35.37692482	-138.7107561	-61
47599	0	0.229980469	-0.065917969	0.316101074	0.999996185	-0.002123833	-6.86646E-05	0.00164032	5.749511719	-1.647949219	7.902526855	-0.106191763	-0.003433232	0.08201609	-0.892089844	0.506591797	-0.233398438	888.84	-12.45418137	-35.33399561	-138.5135415	-61
47600	0	0.226600647	-0.076841354	0.312512398	0.999997139	-0.001631737	2.28882E-05	0.001209259	5.665016174	-1.921033859	7.812809944	-0.081586894	0.00114441	0.060462993	-0.892089844	0.510986328	-0.236328125	888.84	-12.73001213	-35.29064212	-138.37401	-61
47601	0	0.225524902	-0.077941895	0.313110352	0.999999046	-0.000858307	0.000103951	0.000427246	5.638122559	-1.948547363	7.827758789	-0.042915351	0.005197526	0.021362308	-0.889892578	0.513427734	-0.231201172	888.82	-12.85385602	-35.25763405	-138.3411631	-61
47602	0	0.224049568	-0.078854561	0.31302166	0.999999046	0.000495911	0.000116348	-0.000137329	5.601239204	-1.971364021	7.825541496	0.024795533	0.005817414	-0.006866455	-0.889892578	0.513427734	-0.231201172	888.78	-12.77782478	-35.23753494	-138.3847702	-62
47603	0	0.226379395	-0.073059082	0.314453125	0.999999046	0.000785828	-2.19345E-05	-0.000530243	5.659484863	-1.826477051	7.861328125	0.039291388	-0.001096726	-0.02651215	-0.889648438	0.510986328	-0.236572266	888.92	-12.64004395	-35.24272707	-138.4759783	-62
47604	0	0.225675583	-0.071105957	0.314188004	0.999999046	0.000863075	-0.000259399	-0.000453949	5.641889572	-1.777648926	7.854700089	0.04315377	-0.012969973	-0.022697453	-0.887451172	0.510986328	-0.234130859	888.84	-12.50357132	-35.27238341	-138.5444005	-62
47605	0	0.228027344	-0.068115234	0.314208984	0.999999046	0.000385284	-0.000235558	-0.000183105	5.700683594	-1.702880859	7.855224609	0.019264222	-0.011777878	-0.009155274	-0.889648438	0.508789063	-0.236328125	888.84	-12.44273262	-35.29259398	-138.5812492	-62
47606	0	0.22856617	-0.068584442	0.312810898	0.999999046	-4.95911E-05	-0.000175476	9.53674E-05	5.714154243	-1.714611053	7.820272446	-0.002479553	-0.008773804	0.004768372	-0.889648438	0.508789063	-0.236328125	888.84	-12.4526794	-35.29923689	-138.5816518	-61
47607	0	0.229492188	-0.069763184	0.314086914	0.999999046	-0.000263214	5.05447E-05	0.000213623	5.737304688	-1.74407959	7.852172852	-0.013160706	0.002527237	0.010681153	-0.889648438	0.508789063	-0.233642578	888.84	-12.49249514	-35.27770948	-138.5751858	-62
47608	0	0.228697777	-0.071492195	0.315658569	0.999999046	-0.001116753	0.000244141	-0.000488281	5.71744442	-1.787304878	7.891464233	-0.055837646	0.012207034	-0.024414069	-0.892089844	0.508789063	-0.233398438	888.72	-12.57118488	-35.25198737	-138.672319	-62
47609	0	0.22467041	-0.082458496	0.314208984	0.999998093	-0.000563622	0.000411987	-0.001564026	5.616760254	-2.061462402	7.855224609	-0.02818109	0.020599375	-0.078201332	-0.892089844	0.508789063	-0.233398438	888.78	-12.49881382	-35.23419506	-138.9141312	-62
47610	0	0.222161293	-0.079917908	0.311188698	0.999996185	0.001614571	7.15256E-05	-0.002223969	5.554032326	-1.997947693	7.779717445	0.080728633	0.003576283	-0.111198565	-0.894287109	0.501953125	-0.235351563	888.66	-12.13071832	-35.26982611	-139.2400913	-62
47611	0	0.227294922	-0.063964844	0.314147949	0.999996185	0.001961708	0.000148773	-0.001888275	5.682373047	-1.599121094	7.85369873	0.098085525	0.007438669	-0.094413874	-0.891601563	0.499755859	-0.238037109	888.84	-11.74771026	-35.28711511	-139.5113374	-61
47612	0	0.227861404	-0.061005592	0.31757164	0.999998093	0.001403809	-0.000266075	-0.000659943	5.69653511	-1.525139809	7.939291	0.070190459	-0.013303762	-0.032997145	-0.896484375	0.497558594	-0.237548828	888.84	-11.5326907	-35.32136153	-139.6094642	-62
47613	0	0.230102539	-0.054870605	0.317016602	0.999999046	2.67029E-05	-0.000338554	0.000431061	5.752563477	-1.371765137	7.925415039	0.001335144	-0.01692772	0.021553041	-0.898681641	0.492919922	-0.239746094	888.92	-11.56313064	-35.3386359	-139.568644	-62
47614	0	0.230322838	-0.063353539	0.315520287	0.999998093	-0.001395226	-8.29697E-05	0.000934601	5.758070946	-1.583838463	7.888007164	-0.069761309	-0.004148485	0.046730064	-0.898681641	0.495117188	-0.239990234	888.9	-11.79232942	-35.31550863	-139.4657055	-61
47615	0	0.226135254	-0.073669434	0.313232422	0.999999046	-0.000957489	-6.00815E-05	0.000839233	5.653381348	-1.84173584	7.830810547	-0.047874464	-0.003004075	0.041961681	-0.898925781	0.497558594	-0.240234375	888.8	-11.9634578	-35.29173754	-139.3756516	-61
47616	0	0.226973534	-0.068426132	0.314172745	0.999999046	-0.000198364	-0.00031662	0.00057888	5.674338341	-1.710653305	7.854318619	-0.009918214	-0.015830995	0.028944018	-0.896484375	0.499755859	-0.237792969	888.9	-12.03122479	-35.30276369	-139.3091781	-62
47617	0	0.226318359	-0.073242188	0.312255859	0.999999046	-0.000118256	-9.44138E-05	7.62939E-06	5.657958984	-1.831054688	7.806396484	-0.005912781	-0.004720688	0.00038147	-0.896484375	0.497558594	-0.237548828	888.92	-12.04085233	-35.30250434	-139.3318454	-61
47618	0	0.22747612	-0.068254471	0.315918922	0.999999046	0.000291824	-0.000244141	-8.4877E-05	5.686903	-1.706361771	7.897973061	0.014591217	-0.012207032	-0.004243851	-0.896484375	0.499755859	-0.237792969	888.78	-11.99865793	-35.32122417	-139.3564553	-61
47619	0	0.229248047	-0.065795898	0.315673828	0.999999046	-0.000244141	-0.000338554	0.000225067	5.731201172	-1.644897461	7.891845703	-0.012207032	-0.01692772	0.011253357	-0.896728516	0.499755859	-0.235107422	888.86	-12.04403397	-35.34315715	-139.3379598	-61
47620	0	0.22778511	-0.06324482	0.314816475	0.999999046	-0.00083065	-0.000331879	0.000579834	5.694627762	-1.581120491	7.870411873	-0.041532524	-0.016593936	0.028991705	-0.896728516	0.499755859	-0.232421875	888.8	-12.18461641	-35.3558009	-139.2748355	-61
47621	0	0.227355957	-0.068054199	0.315246582	0.999999046	-0.00087738	-0.000288963	0.000736237	5.683898926	-1.70135498	7.881164551	-0.043869029	-0.014448169	0.036811837	-0.896484375	0.499755859	-0.237792969	888.9	-12.34224327	-35.35967837	-139.1912453	-61
47622	0	0.228647232	-0.076452255	0.315468788	0.999999046	-0.00071907	-0.000324249	0.000498772	5.716180801	-1.911306381	7.886719704	-0.035953527	-0.016212466	0.024938587	-0.896972656	0.504394531	-0.232666016	888.8	-12.46364469	-35.37316198	-139.134577	-61
47623	0	0.226135254	-0.070617676	0.315002441	0.999999046	0.000198364	-0.000338554	0.000270844	5.653381348	-1.765441895	7.875061035	0.009918213	-0.01692772	0.013542176	-0.89453125	0.504394531	-0.230224609	888.78	-12.46207553	-35.39380196	-139.1069571	-61
47624	0	0.225455284	-0.068480492	0.31200695	0.999999046	-0.000472069	-0.000190735	0.000205994	5.636382103	-1.712012291	7.800173759	-0.023603441	-0.009536744	0.010299683	-0.896972656	0.504394531	-0.232666016	888.86	-12.52954898	-35.39949301	-139.0954176	-60
47625	0	0.226928711	-0.071655273	0.313232422	0.999999046	-8.39233E-05	-0.000388145	0.000419617	5.673217773	-1.791381836	7.830810547	-0.004196167	-0.019407273	0.020980836	-0.892089844	0.504394531	-0.233154297	888.84	-12.5730451	-35.42192852	-139.0423508	-60
47626	0	0.227723122	-0.07220459	0.315423012	0.999999046	0.000120163	-0.000524521	0.000266075	5.693078041	-1.805114746	7.885575294	0.006008149	-0.026226045	0.013303758	-0.89453125	0.506591797	-0.233154297	888.84	-12.58340688	-35.46340807	-139.0051289	-60
47627	0	0.230529785	-0.07043457	0.31036377	0.999999046	-0.000247955	-0.000319481	0.000209808	5.763244629	-1.760864258	7.759094238	-0.012397767	-0.015974045	0.010490418	-0.89453125	0.506591797	-0.23046875	888.8	-12.62784681	-35.48342781	-138.9838564	-60
47628	0	0.228380203	-0.074593544	0.314452171	0.999999046	0.000142097	-0.000154495	0.000250816	5.709505081	-1.8648386	7.861304283	0.007104874	-0.007724762	0.012540817	-0.896972656	0.502197266	-0.227050781	888.86	-12.62799515	-35.48395199	-138.9775991	-61
47629	0	0.228271484	-0.065856934	0.315002441	0.999999046	-3.43323E-05	-0.000266075	0.000286102	5.706787109	-1.64642334	7.875061035	-0.001716614	-0.013303757	0.014305115	-0.892089844	0.504394531	-0.23046875	888.92	-12.65302402	-35.49606182	-138.9496923	-61
47630	0	0.228760719	-0.075592041	0.31133461	0.999999046	-0.000152588	-5.34058E-05	0.000335693	5.719017982	-1.889801025	7.78336525	-0.007629395	-0.002670288	0.016784668	-0.89453125	0.506591797	-0.233154297	888.9	-12.69184825	-35.48315634	-138.9200997	-61
47631	0	0.227966309	-0.071777344	0.314208984	0.999999046	0.000228882	-0.000277519	0.000213623	5.699157715	-1.794433594	7.855224609	0.011444092	-0.013875962	0.010681153	-0.89453125	0.506591797	-0.23046875	888.84	-12.68124254	-35.49835998	-138.9021155	-61
47632	0	0.227192879	-0.070512772	0.309292793	0.999999046	-0.00014019	-0.000141144	0.000232697	5.679821968	-1.76281929	7.732319832	-0.007009506	-0.00705719	0.011634827	-0.89453125	0.506591797	-0.227783203	888.9	-12.71199751	-35.49786509	-138.8879285	-61
47633	0	0.227783203	-0.072265625	0.312866211	0.999999046	0.000102997	-0.000109673	0.000106812	5.694580078	-1.806640625	7.821655273	0.005149841	-0.005483627	0.005340576	-0.89453125	0.506591797	-0.227783203	888.86	-12.70429039	-35.49701933	-138.8918696	-62
47634	0	0.228691101	-0.071518898	0.311243057	0.999999046	-8.96454E-05	-0.000312805	0.000114441	5.717277527	-1.78797245	7.781076431	-0.004482269	-0.015640259	0.005722046	-0.897216797	0.506591797	-0.227539063	888.84	-12.72292537	-35.51871746	-138.8921522	-62
47635	0	0.227539063	-0.073425293	0.312133789	0.999999046	5.72205E-05	-0.000166893	0.00018692	5.688476563	-1.835632324	7.803344727	0.002861023	-0.00834465	0.009346008	-0.892089844	0.506591797	-0.227783203	888.82	-12.72791768	-35.52227006	-138.8795198	-61
47636	0	0.229387283	-0.070118904	0.311331749	0.999999046	-4.76837E-06	-0.000213623	0.000228882	5.734682083	-1.752972603	7.783293724	-0.000238419	-0.010681153	0.011444092	-0.892089844	0.506591797	-0.227783203	888.8	-12.74417142	-35.53002273	-138.8602163	-61
47637	0	0.229248047	-0.075195313	0.313781738	0.999999046	-9.15527E-05	-6.77109E-05	2.67029E-05	5.731201172	-1.879882813	7.844543457	-0.004577637	-0.003385544	0.001335144	-0.894775391	0.508789063	-0.23046875	888.9	-12.75166541	-35.5265736	-138.8704495	-61
47638	0	0.22837162	-0.073495865	0.315078735	0.999999046	0.000379562	-0.000310898	2.86102E-06	5.709290504	-1.837396622	7.876968384	0.01897812	-0.015544892	0.000143051	-0.894775391	0.509033203	-0.227783203	888.84	-12.70767239	-35.55087935	-138.8764544	-61
47639	0	0.227844238	-0.067871094	0.309814453	0.999999046	0.00012207	-0.000243187	0.000141144	5.696105957	-1.696777344	7.745361328	0.006103516	-0.012159348	0.00705719	-0.89453125	0.506591797	-0.227783203	888.78	-12.70293071	-35.56415976	-138.870627	-61
47640	0	0.228097916	-0.070057869	0.31008625	0.999999046	-0.000346184	-4.19617E-05	0.00018692	5.702447891	-1.751446724	7.752156258	-0.017309189	-0.002098084	0.009346009	-0.892089844	0.506591797	-0.23046875	888.84	-12.7518448	-35.55381705	-138.8603298	-61
47641	0	0.228881836	-0.074462891	0.31262207	0.999999046	-6.48499E-05	5.05447E-05	0.000232697	5.722045898	-1.861572266	7.815551758	-0.003242493	0.002527237	0.011634827	-0.892333984	0.508789063	-0.230712891	888.86	-12.77054672	-35.53197611	-138.8430456	-61
47642	0	0.228877068	-0.072657585	0.314221382	0.999999046	-0.000188828	-2.67029E-05	0.000136375	5.721926689	-1.816439629	7.855534554	-0.009441376	-0.001335144	0.006818771	-0.894775391	0.508789063	-0.23046875	888.78	-12.79716488	-35.52119855	-138.8408796	-61
47643	0	0.228942871	-0.074707031	0.311950684	0.999999046	0.000228882	-0.000239372	0.000179291	5.723571777	-1.867675781	7.79876709	0.011444092	-0.011968613	0.008964539	-0.89453125	0.506591797	-0.23046875	888.88	-12.7832517	-35.53311086	-138.8308158	-61
47644	0	0.231388092	-0.070251465	0.314801216	0.999999046	0.000103951	-5.72205E-05	0.000369072	5.784702301	-1.756286621	7.870030403	0.005197525	-0.002861023	0.018453598	-0.892333984	0.506591797	-0.225097656	888.92	-12.7954411	-35.51988281	-138.8016175	-61
47645	0	0.229309082	-0.070373535	0.313964844	0.999999046	-0.000366211	4.76837E-06	0.000659943	5.732727051	-1.759338379	7.849121094	-0.018310549	0.000238419	0.032997134	-0.89453125	0.506591797	-0.227783203	888.9	-12.88349709	-35.49230575	-138.7394259	-61
