Counter	Temperature	VelInc_X	VelInc_Y	VelInc_Z	OriInc_w	OriInc_x	OriInc_y	OriInc_z	Acc_X	Acc_Y	Acc_Z	Gyr_X	Gyr_Y	Gyr_Z	Mag_X	Mag_Y	Mag_Z	Pressure	Roll	Pitch	Yaw	RSSI
29788	0	-0.009345055	-0.262842178	0.295125961	0.999999046	1.04904E-05	-0.00019455	7.24792E-05	-0.233626366	-6.571054459	7.378149033	0.000524521	-0.009727478	0.003623962	-0.625488281	0.297607422	-0.833007813	888.56	-41.99106699	0.706016672	159.4899248	-82
29789	0	-0.008666992	-0.260742188	0.293334961	0.999999046	0.000144958	-0.000151634	0.000202179	-0.216674805	-6.518554688	7.333374023	0.007247925	-0.007581711	0.010108948	-0.625488281	0.297607422	-0.838623047	888.5	-41.97671792	0.713253217	159.4939743	-82
29790	0	-0.009903908	-0.260958672	0.294267654	0.999999046	-3.43323E-05	-6.86646E-05	0.000190735	-0.247597694	-6.523966789	7.35669136	-0.001716614	-0.003433228	0.009536743	-0.627929688	0.297607422	-0.835693359	888.5	-41.9830069	0.726695905	159.4977955	-82
29791	0	-0.010559082	-0.262756348	0.294250488	0.999999046	8.39233E-05	-0.000235558	8.39233E-05	-0.263977051	-6.568908691	7.356262207	0.004196167	-0.011777878	0.004196167	-0.627929688	0.297607422	-0.838378906	888.56	-41.97571258	0.717759441	159.5008956	-82
29792	0	-0.009059906	-0.260020256	0.294481277	0.999999046	0.000124931	-0.000188828	5.62668E-05	-0.22649765	-6.500506401	7.362031937	0.006246567	-0.009441376	0.002813339	-0.625488281	0.297607422	-0.838623047	888.68	-41.96376704	0.710680096	159.4953663	-82
29793	0	-0.008789063	-0.260925293	0.294921875	0.999999046	-5.72205E-05	-0.000102043	1.52588E-05	-0.219726563	-6.523132324	7.373046875	-0.002861023	-0.005102158	0.000762939	-0.627929688	0.297607422	-0.835693359	888.54	-41.97281639	0.707847706	159.4868528	-81
29794	0	-0.00928688	-0.261935234	0.292879105	0.999999046	-9.53674E-05	-0.000116348	2.67029E-05	-0.232172012	-6.548380852	7.321977615	-0.004768372	-0.005817413	0.001335144	-0.625488281	0.297607422	-0.835693359	888.56	-41.98623236	0.704674002	159.4773842	-82
29795	0	-0.009765625	-0.262451172	0.294616699	0.999999046	6.86646E-05	-0.000113487	-1.90735E-05	-0.244140625	-6.561279297	7.36541748	0.003433228	-0.005674362	-0.000953674	-0.627929688	0.297607422	-0.838378906	888.62	-41.98091321	0.698249174	159.462648	-82
29796	0	-0.009383202	-0.261252403	0.294775963	0.999999046	0.000191689	-0.000190735	8.67844E-05	-0.23458004	-6.531310081	7.369399071	0.009584427	-0.009536743	0.004339218	-0.625488281	0.297607422	-0.838623047	888.62	-41.96130055	0.693362844	159.4603444	-81
29797	0	-0.009521484	-0.260559082	0.295043945	0.999999046	-1.14441E-05	-8.67844E-05	0.000114441	-0.238037109	-6.513977051	7.376098633	-0.000572205	-0.004339218	0.005722046	-0.627929688	0.297607422	-0.838378906	888.56	-41.96501953	0.699463639	159.4555266	-81
29798	0	-0.009103775	-0.261906624	0.292597771	0.999999046	1.71661E-05	-7.43866E-05	-9.53674E-07	-0.227594376	-6.547665596	7.314944267	0.000858307	-0.00371933	-4.76837E-05	-0.627929688	0.297607422	-0.835693359	888.56	-41.96562578	0.697779387	159.4443842	-80
29799	0	-0.009338379	-0.260559082	0.294799805	0.999999046	1.14441E-05	-0.000151634	0.000102997	-0.233459473	-6.513977051	7.369995117	0.000572205	-0.007581711	0.005149841	-0.627685547	0.293212891	-0.835205078	888.56	-41.96668457	0.697483891	159.440602	-80
29800	0	-0.009972572	-0.259940147	0.297371864	0.999999046	-5.81741E-05	-8.7738E-05	-4.19617E-05	-0.249314308	-6.498503685	7.434296608	-0.002908707	-0.004386902	-0.002098084	-0.625488281	0.297607422	-0.835693359	888.46	-41.97587451	0.691538741	159.4242692	-81
29801	0	-0.008117676	-0.261962891	0.292541504	0.999999046	-0.000225067	-6.77109E-05	-1.14441E-05	-0.202941895	-6.549072266	7.313537598	-0.011253357	-0.003385544	-0.000572205	-0.627929688	0.297607422	-0.835693359	888.56	-42.00421135	0.689618601	159.4109718	-81
29802	0	-0.0103302	-0.262766838	0.293766975	0.999999046	0.000305176	-0.000143051	0.000208855	-0.258255005	-6.569170952	7.344174385	0.015258789	-0.007152558	0.010442734	-0.627929688	0.297607422	-0.838378906	888.46	-41.97151019	0.698194563	159.4187828	-81
29803	0	-0.009521484	-0.25994873	0.29498291	0.999999046	5.34058E-05	-0.000113487	0.000137329	-0.238037109	-6.498718262	7.374572754	0.002670288	-0.005674362	0.006866455	-0.627685547	0.295410156	-0.838134766	888.56	-41.96772911	0.70381322	159.4146633	-81
29804	0	-0.008915901	-0.260586739	0.294341087	0.999999046	-0.00011158	-0.000164032	7.24792E-05	-0.22289753	-6.514668465	7.358527184	-0.005578995	-0.008201599	0.003623962	-0.627929688	0.297607422	-0.835693359	888.62	-41.98287005	0.700151561	159.416226	-80
29805	0	-0.009887695	-0.262512207	0.293762207	0.999999046	-0.00018692	-7.15256E-05	8.01086E-05	-0.247192383	-6.562805176	7.344055176	-0.009346008	-0.003576279	0.004005432	-0.627929688	0.297607422	-0.835693359	888.6	-42.00674484	0.704967348	159.4106192	-80
29806	0	-0.008422852	-0.261950493	0.294458389	0.999999046	0.000108719	-0.000242233	-4.29153E-05	-0.210571289	-6.548762321	7.361459732	0.005435944	-0.012111664	-0.002145767	-0.627929688	0.297607422	-0.833007813	888.56	-41.99671436	0.6857979	159.4117306	-80
29807	0	-0.008972168	-0.260986328	0.295471191	0.999999046	3.8147E-05	-0.000124931	7.62939E-05	-0.224304199	-6.524658203	7.386779785	0.001907349	-0.006246567	0.003814697	-0.627929688	0.295410156	-0.835449219	888.56	-41.99472685	0.685758111	159.4062588	-80
29808	0	-0.008938789	-0.262062073	0.29317379	0.999999046	-9.44138E-05	-6.48499E-05	3.8147E-05	-0.223469734	-6.551551819	7.329344749	-0.004720688	-0.003242493	0.001907349	-0.627929688	0.295410156	-0.835449219	888.6	-42.00804602	0.687908323	159.3928326	-80
29809	0	-0.008911133	-0.260986328	0.293457031	0.999999046	0.000205994	-7.9155E-05	0.000167847	-0.22277832	-6.524658203	7.336425781	0.010299683	-0.003957748	0.008392334	-0.627929688	0.297607422	-0.835693359	888.54	-41.98680025	0.698783749	159.3957463	-79
29810	0	-0.009074211	-0.26086235	0.294725418	0.999999046	-5.14984E-05	-0.000137329	6.86646E-05	-0.226855278	-6.521558762	7.368135452	-0.002574921	-0.006866455	0.003433228	-0.625488281	0.297607422	-0.841308594	888.62	-41.99508322	0.697099259	159.383049	-79
29811	0	-0.009887695	-0.262145996	0.293334961	0.999999046	-7.62939E-06	-0.000117302	2.28882E-05	-0.247192383	-6.553649902	7.333374023	-0.00038147	-0.005865097	0.001144409	-0.627929688	0.297607422	-0.838378906	888.5	-41.99843498	0.693627042	159.372381	-78
29812	0	-0.008670807	-0.26056385	0.294125557	0.999999046	6.19888E-05	-0.000101089	0.000170708	-0.216770172	-6.51409626	7.353138924	0.003099442	-0.005054474	0.008535385	-0.625488281	0.297607422	-0.838623047	888.4	-41.99365434	0.70286039	159.3702574	-78
29813	0	-0.00793457	-0.260375977	0.294799805	0.999999046	-8.01086E-05	-0.000151634	0.000167847	-0.198364258	-6.509399414	7.369995117	-0.004005432	-0.007581711	0.008392334	-0.627929688	0.300048828	-0.8359375	888.54	-42.00510031	0.707548712	159.3822362	-78
29814	0	-0.00939846	-0.262434959	0.293661118	0.999999046	-5.14984E-05	-0.000156403	8.29697E-05	-0.23496151	-6.560873985	7.341527939	-0.002574921	-0.007820129	0.004148483	-0.627929688	0.297607422	-0.835693359	888.62	-42.01336707	0.70532729	159.3828541	-78
29815	0	-0.008789063	-0.262268066	0.294616699	0.999999046	0.0001297	-0.000178337	5.34058E-05	-0.219726563	-6.55670166	7.36541748	0.006484985	-0.008916855	0.002670288	-0.627929688	0.297607422	-0.838378906	888.56	-42.00088037	0.698964466	159.3786989	-78
29816	0	-0.008163452	-0.261886597	0.292734146	0.999999046	0.000184059	-0.000202179	0.000136375	-0.204086304	-6.547164917	7.318353653	0.009202957	-0.010108948	0.006818771	-0.625488281	0.297607422	-0.838623047	888.62	-41.98207443	0.696913624	159.3808089	-78
29817	0	-0.010070801	-0.260559082	0.29296875	0.999999046	0.000110626	-0.000117302	0.00012207	-0.25177002	-6.513977051	7.32421875	0.005531311	-0.005865097	0.006103516	-0.627929688	0.297607422	-0.835693359	888.48	-41.97179021	0.701015787	159.3827711	-78
29818	0	-0.009765625	-0.26184082	0.294006348	0.999999046	2.67029E-05	-8.39233E-05	4.19617E-05	-0.244140625	-6.546020508	7.350158691	0.001335144	-0.004196167	0.002098083	-0.625488281	0.295410156	-0.835693359	888.5	-41.97124039	0.701833989	159.3690896	-78
29819	0	-0.009544373	-0.260774612	0.292309761	0.999998093	-6.77109E-05	-0.000116348	0.000183105	-0.238609314	-6.519365311	7.307744026	-0.003385544	-0.005817413	0.009155274	-0.625488281	0.297607422	-0.838623047	888.56	-41.9813477	0.710715417	159.3689017	-78
29820	0	-0.009880066	-0.26167202	0.296123505	0.999999046	-0.000138283	-9.53674E-05	4.95911E-05	-0.247001648	-6.541800499	7.403087616	-0.006914139	-0.004768372	0.002479553	-0.625488281	0.297607422	-0.835693359	888.54	-41.99968601	0.711162024	159.3599644	-78
29821	0	-0.007873535	-0.262634277	0.293395996	0.999999046	-0.000236511	-0.000102043	6.48499E-05	-0.196838379	-6.565856934	7.334899902	-0.011825562	-0.005102158	0.003242493	-0.625244141	0.295410156	-0.838378906	888.56	-42.02927631	0.712183	159.3438222	-78
29822	0	-0.009617805	-0.262162209	0.293395996	0.999999046	0.000272751	-0.000207901	0.000144005	-0.240445137	-6.554055214	7.334899902	0.013637543	-0.01039505	0.007200241	-0.625488281	0.297607422	-0.835693359	888.56	-42.0003471	0.710270426	159.351652	-78
29823	0	-0.00994873	-0.259155273	0.294799805	0.999999046	0.0001297	-0.000185966	1.52588E-05	-0.248718262	-6.478881836	7.369995117	0.006484985	-0.009298325	0.000762939	-0.627929688	0.297607422	-0.838378906	888.56	-41.98792666	0.700368516	159.3455763	-78
29824	0	-0.00893116	-0.26109314	0.294748306	0.999999046	-0.000224113	-7.24792E-05	7.24792E-05	-0.223278999	-6.527328491	7.368707657	-0.011205673	-0.003623962	0.003623962	-0.623046875	0.297607422	-0.838623047	888.56	-42.01607534	0.704511578	159.329473	-78
29825	0	-0.010131836	-0.261962891	0.294799805	0.999999046	-0.000106812	-0.00014019	8.01086E-05	-0.253295898	-6.549072266	7.369995117	-0.005340576	-0.007009506	0.004005432	-0.627929688	0.295410156	-0.835449219	888.42	-42.03071804	0.703494533	159.3252355	-78
29826	0	-0.008503914	-0.261841774	0.295783043	0.999999046	6.67572E-05	-0.00015831	-2.38419E-05	-0.212597847	-6.54604435	7.394576073	0.00333786	-0.007915497	-0.001192093	-0.625488281	0.297607422	-0.835693359	888.62	-42.02554068	0.692945879	159.3146586	-78
29827	0	-0.009094238	-0.259460449	0.294311523	0.999999046	-6.10352E-05	-0.000144005	8.01086E-05	-0.227355957	-6.48651123	7.357788086	-0.003051758	-0.007200241	0.004005432	-0.627929688	0.297607422	-0.835693359	888.6	-42.03488429	0.691592251	159.3140389	-78
29828	0	-0.009173393	-0.262547493	0.2945261	0.999999046	-0.00014019	-0.000156403	0.000133514	-0.229334831	-6.563687325	7.363152504	-0.007009506	-0.007820129	0.00667572	-0.627929688	0.297607422	-0.838378906	888.56	-42.05323392	0.693283588	159.3139021	-78
29829	0	-0.008544922	-0.261657715	0.293457031	0.999999046	0.000102997	-0.000201225	0.000125885	-0.213623047	-6.541442871	7.336425781	0.005149841	-0.010061264	0.006294251	-0.627929688	0.297607422	-0.838378906	888.56	-42.04368711	0.6905654	159.3166522	-77
29830	0	-0.009468079	-0.261289597	0.295772552	0.999999046	2.28882E-05	0	4.1008E-05	-0.236701965	-6.532239914	7.394313812	0.001144409	0	0.0020504	-0.625244141	0.295410156	-0.841064453	888.6	-42.04355591	0.698464146	159.2866719	-77
29831	0	-0.009338379	-0.26184082	0.293823242	0.999999046	7.24792E-05	-0.000109673	3.8147E-05	-0.233459473	-6.546020508	7.345581055	0.003623962	-0.005483627	0.001907349	-0.627929688	0.297607422	-0.838378906	888.56	-42.03766205	0.696817194	159.2764591	-78
29832	0	-0.009537697	-0.260027885	0.295144081	0.999999046	-1.04904E-05	-0.000141144	0.000114441	-0.238442421	-6.500697136	7.378602028	-0.000524521	-0.00705719	0.005722046	-0.625488281	0.297607422	-0.835693359	888.44	-42.04112902	0.698352964	159.2765679	-78
29833	0	-0.008728027	-0.261962891	0.294677734	0.999999046	-0.000152588	-8.29697E-05	9.15527E-05	-0.218200684	-6.549072266	7.366943359	-0.007629395	-0.004148483	0.004577637	-0.627929688	0.297607422	-0.835693359	888.56	-42.06095861	0.703076498	159.2723003	-78
29834	0	-0.00915432	-0.262539864	0.294537544	0.999999046	1.90735E-06	-0.000139236	6.77109E-05	-0.228857994	-6.56349659	7.363438606	9.53674E-05	-0.006961823	0.003385544	-0.625488281	0.299804688	-0.838623047	888.62	-42.06305437	0.701180237	159.2668641	-78
29835	0	-0.009643555	-0.262145996	0.294372559	0.999999046	7.62939E-05	-0.000166893	0.000110626	-0.241088867	-6.553649902	7.359313965	0.003814697	-0.00834465	0.005531311	-0.627929688	0.297607422	-0.835693359	888.56	-42.05656062	0.700236574	159.2705545	-77
29836	0	-0.009114265	-0.260756493	0.294353485	0.999999046	7.9155E-05	-0.00015831	-4.76837E-06	-0.227856636	-6.518912315	7.358837128	0.003957748	-0.007915497	-0.000238419	-0.627929688	0.297607422	-0.838378906	888.54	-42.04984468	0.691165668	159.2597923	-77
29837	0	-0.008483887	-0.260803223	0.293823242	0.999999046	-3.05176E-05	-0.000121117	0.000179291	-0.212097168	-6.520080566	7.345581055	-0.001525879	-0.006055832	0.008964539	-0.627929688	0.297607422	-0.835693359	888.5	-42.05553406	0.699376071	159.2657212	-78
29838	0	-0.010215759	-0.261550903	0.294236183	0.999999046	-7.05719E-05	-0.00012207	0.000148773	-0.255393982	-6.538772583	7.355904579	-0.003528595	-0.006103516	0.00743866	-0.627929688	0.297607422	-0.838378906	888.54	-42.06583413	0.705183801	159.2644893	-78
29839	0	-0.009033203	-0.261779785	0.293395996	0.999999046	8.7738E-05	-0.000128746	0.000137329	-0.225830078	-6.544494629	7.334899902	0.004386902	-0.006437302	0.006866455	-0.627685547	0.295410156	-0.838134766	888.56	-42.05800268	0.709542465	159.2594165	-78
29840	0	-0.008540154	-0.260322571	0.295152664	0.999999046	-4.673E-05	-8.39233E-05	1.90735E-05	-0.213503838	-6.50806427	7.378816605	-0.002336502	-0.004196167	0.000953674	-0.627929688	0.297607422	-0.835693359	888.54	-42.06572032	0.708623939	159.2488746	-78
29841	0	-0.008178711	-0.26348877	0.293334961	0.999999046	-7.24792E-05	-7.53403E-05	0.000190735	-0.204467773	-6.587219238	7.333374023	-0.003623962	-0.003767014	0.009536743	-0.627929688	0.297607422	-0.835693359	888.56	-42.0762479	0.721595433	159.2518644	-78
29842	0	-0.010309219	-0.26151371	0.295128822	0.999999046	0.000230789	-0.000120163	0.000159264	-0.257730484	-6.537842751	7.378220558	0.011539459	-0.006008148	0.007963181	-0.627929688	0.297607422	-0.838378906	888.6	-42.05199045	0.72835689	159.25214	-78
29843	0	-0.010070801	-0.260864258	0.293701172	0.999999046	-4.19617E-05	-0.000235558	0.000102997	-0.25177002	-6.521606445	7.342529297	-0.002098084	-0.011777878	0.005149841	-0.625488281	0.297607422	-0.835693359	888.5	-42.05892624	0.720992784	159.2574666	-78
29844	0	-0.009741783	-0.261558533	0.294476509	0.999999046	-9.44138E-05	-7.62939E-05	9.91821E-05	-0.243544579	-6.538963318	7.361912727	-0.004720688	-0.003814697	0.004959106	-0.627929688	0.297607422	-0.838378906	888.56	-42.07202454	0.726896123	159.2484409	-78
29845	0	-0.010253906	-0.262756348	0.29486084	0.999999046	-3.8147E-05	-0.000117302	0.000102997	-0.256347656	-6.568908691	7.371520996	-0.001907349	-0.005865097	0.005149841	-0.627929688	0.297607422	-0.835693359	888.62	-42.07863694	0.729620492	159.2468999	-78
29846	0	-0.008468628	-0.26137352	0.294537544	0.999999046	6.29425E-05	-7.05719E-05	4.86374E-05	-0.211715698	-6.534337997	7.363438606	0.003147125	-0.003528595	0.00243187	-0.627929688	0.300048828	-0.8359375	888.6	-42.07375987	0.73212859	159.2413297	-78
29847	0	-0.009521484	-0.261413574	0.294555664	0.999999046	7.62939E-05	-0.000185966	0.000133514	-0.238037109	-6.535339355	7.363891602	0.003814697	-0.009298325	0.00667572	-0.625488281	0.299804688	-0.8359375	888.5	-42.06712887	0.73133989	159.2485506	-78
29848	0	-0.008688927	-0.262831688	0.293316841	0.999999046	3.52859E-05	-0.000160217	0.000156403	-0.217223167	-6.570792198	7.332921028	0.001764298	-0.008010864	0.007820129	-0.627929688	0.297607422	-0.838378906	888.5	-42.06521875	0.734487336	159.2505156	-78
29849	0	-0.008911133	-0.260498047	0.29473877	0.999999046	4.57764E-05	-0.000136375	0.000125885	-0.22277832	-6.512451172	7.368469238	0.002288818	-0.006818771	0.006294251	-0.627929688	0.297607422	-0.835693359	888.62	-42.06213919	0.737311116	159.2522909	-78
29850	0	-0.010483742	-0.263092995	0.295314789	0.999999046	4.00543E-05	-0.000146866	6.38962E-05	-0.262093544	-6.577324867	7.38286972	0.002002716	-0.007343292	0.003194809	-0.627929688	0.297607422	-0.838378906	888.56	-42.05977194	0.734503847	159.2454638	-78
29851	0	-0.010192871	-0.261047363	0.295288086	0.999999046	0.000106812	-0.000136375	2.28882E-05	-0.254821777	-6.526184082	7.382202148	0.005340576	-0.006818771	0.001144409	-0.627929688	0.297607422	-0.835693359	888.56	-42.04978848	0.729457056	159.2389577	-78
29852	0	-0.009269714	-0.260984421	0.296139717	0.999999046	-9.82285E-05	-0.000164032	9.15527E-05	-0.231742859	-6.524610519	7.403492928	-0.004911423	-0.008201599	0.004577637	-0.625488281	0.297607422	-0.835693359	888.54	-42.06315872	0.727324136	159.2371898	-78
29853	0	-0.009338379	-0.261169434	0.295349121	0.999999046	-0.000106812	-0.000109673	0.000144958	-0.233459473	-6.52923584	7.383728027	-0.005340576	-0.005483627	0.007247925	-0.627929688	0.297607422	-0.835693359	888.6	-42.07748864	0.733917392	159.2379076	-78
29854	0	-0.009900093	-0.263365746	0.293524742	0.999999046	-0.000123978	-0.000156403	8.67844E-05	-0.247502327	-6.584143639	7.338118553	-0.006198883	-0.007820129	0.004339218	-0.627929688	0.297607422	-0.838378906	888.5	-42.09382728	0.732078211	159.2324638	-78
29855	0	-0.009399414	-0.262573242	0.293457031	0.999999046	0.00019455	-0.000136375	0.000141144	-0.234985352	-6.564331055	7.336425781	0.009727478	-0.006818771	0.00705719	-0.627929688	0.297607422	-0.835693359	888.36	-42.07364523	0.736117389	159.2349341	-78
29856	0	-0.009513855	-0.260991096	0.296307564	0.999999046	-1.43051E-05	-7.24792E-05	0.000164032	-0.237846375	-6.524777412	7.407689095	-0.000715256	-0.003623962	0.008201599	-0.627929688	0.297607422	-0.833007813	888.62	-42.07739728	0.747350081	159.2384789	-77
29857	0	-0.009521484	-0.261962891	0.29296875	0.999999046	-4.19617E-05	-0.00014782	9.15527E-05	-0.238037109	-6.549072266	7.32421875	-0.002098084	-0.007390976	0.004577637	-0.625488281	0.297607422	-0.835693359	888.56	-42.08433042	0.74660789	159.2344414	-77
29858	0	-0.009970665	-0.261497498	0.29398632	0.999999046	3.43323E-05	-0.000135422	0.00014019	-0.249266624	-6.537437439	7.349658012	0.001716614	-0.006771088	0.007009506	-0.625488281	0.297607422	-0.835693359	888.52	-42.08247475	0.750664672	159.2336356	-78
29859	0	-0.009643555	-0.261291504	0.294067383	0.999999046	-6.86646E-05	-0.000166893	-4.19617E-05	-0.241088867	-6.532287598	7.35168457	-0.003433228	-0.00834465	-0.002098084	-0.625488281	0.299804688	-0.8359375	888.6	-42.09258623	0.738057343	159.2229793	-78
29860	0	-0.007631302	-0.263590813	0.293239594	0.999999046	-2.86102E-06	-3.62396E-05	0.000182152	-0.190782547	-6.589770317	7.330989838	-0.000143051	-0.001811981	0.00910759	-0.627929688	0.297607422	-0.838378906	888.56	-42.09507269	0.753742484	159.2164478	-78
29861	0	-0.010192871	-0.261901855	0.294006348	0.999999046	0.000339508	-0.000163078	0.000293732	-0.254821777	-6.547546387	7.350158691	0.016975403	-0.008153916	0.014686585	-0.627929688	0.297607422	-0.838378906	888.6	-42.05807077	0.76722048	159.2300861	-77
29862	0	-0.010371208	-0.259865761	0.29467392	0.999999046	8.2016E-05	-0.000110626	0.000114441	-0.259280205	-6.49664402	7.366847992	0.0041008	-0.005531311	0.005722046	-0.627929688	0.297607422	-0.835693359	888.6	-42.05080131	0.771406575	159.2289465	-78
29863	0	-0.009643555	-0.261901855	0.29309082	0.999999046	-8.39233E-05	-9.05991E-05	0.0001297	-0.241088867	-6.547546387	7.327270508	-0.004196167	-0.004529953	0.006484985	-0.625488281	0.297607422	-0.835693359	888.56	-42.06256214	0.778466119	159.2246286	-78
29864	0	-0.009658813	-0.262620926	0.293841362	0.999999046	-5.81741E-05	-0.000200272	7.15256E-05	-0.241470337	-6.565523148	7.34603405	-0.002908707	-0.01001358	0.003576279	-0.625732422	0.299804688	-0.833251953	888.5	-42.07134661	0.771728301	159.2310993	-78
29865	0	-0.008728027	-0.26171875	0.294006348	0.999999046	7.24792E-05	-0.00014019	-7.62939E-05	-0.218200684	-6.54296875	7.350158691	0.003623962	-0.007009506	-0.003814697	-0.627929688	0.297607422	-0.835693359	888.48	-42.06538742	0.75873645	159.2153027	-78
29866	0	-0.010314941	-0.261861801	0.292703629	0.999999046	7.62939E-06	-0.000156403	0.000106812	-0.257873535	-6.546545029	7.317590714	0.00038147	-0.007820129	0.005340576	-0.625488281	0.297607422	-0.833007813	888.48	-42.06665214	0.758437028	159.2176687	-78
29867	0	-0.009338379	-0.263122559	0.293334961	0.999999046	0.000102997	-0.00026226	0.000152588	-0.233459473	-6.578063965	7.333374023	0.005149841	-0.013113022	0.007629395	-0.625488281	0.299804688	-0.8359375	888.54	-42.05685609	0.752641004	159.2309717	-78
29868	0	-0.009386063	-0.259885788	0.29321003	0.999999046	8.10623E-05	-9.53674E-05	0.000201225	-0.234651566	-6.497144699	7.33025074	0.004053116	-0.004768372	0.010061264	-0.627929688	0.297607422	-0.838378906	888.48	-42.04967116	0.764775939	159.2307786	-78
29869	0	-0.010131836	-0.262756348	0.294189453	0.999999046	-5.34058E-05	-5.24521E-05	8.01086E-05	-0.253295898	-6.568908691	7.354736328	-0.002670288	-0.002622604	0.004005432	-0.625488281	0.297607422	-0.838623047	888.6	-42.05808622	0.771274333	159.2142173	-78
29870	0	-0.010070801	-0.262756348	0.292907715	0.999999046	0.000198364	-9.15527E-05	0.000102997	-0.25177002	-6.568908691	7.322692871	0.009918213	-0.004577637	0.005149841	-0.627929688	0.297607422	-0.838378906	888.48	-42.0376201	0.776213254	159.2066124	-78
29871	0	-0.008972168	-0.260498047	0.295715332	0.999999046	0.000160217	-0.000132561	4.57764E-05	-0.224304199	-6.512451172	7.392883301	0.008010864	-0.006628037	0.002288818	-0.627929688	0.297607422	-0.838378906	888.62	-42.02151381	0.773259591	159.1979719	-78
29872	0	-0.008795738	-0.26119709	0.294214249	0.999999046	-6.77109E-05	-0.000110626	0.000137329	-0.219893456	-6.529927254	7.355356216	-0.003385544	-0.005531311	0.006866455	-0.625488281	0.297607422	-0.835693359	888.54	-42.0314373	0.779179211	159.1967418	-79
29873	0	-0.009338379	-0.262817383	0.293029785	0.999999046	-8.7738E-05	-0.000155449	-7.62939E-06	-0.233459473	-6.57043457	7.325744629	-0.004386902	-0.007772446	-0.00038147	-0.627929688	0.297607422	-0.833007813	888.54	-42.04381549	0.770156367	159.1929406	-78
29874	0	-0.009670258	-0.262259483	0.294267654	0.999999046	1.90735E-05	-0.000131607	0.000102043	-0.241756439	-6.556487083	7.35669136	0.000953674	-0.006580353	0.005102158	-0.625488281	0.299804688	-0.8359375	888.5	-42.04385307	0.77157718	159.1930918	-78
29875	0	-0.00994873	-0.261230469	0.293884277	0.999999046	0.000152588	-0.000243187	6.86646E-05	-0.248718262	-6.530761719	7.347106934	0.007629395	-0.012159348	0.003433228	-0.627929688	0.297607422	-0.835693359	888.68	-42.02851256	0.760947941	159.1981324	-79
29876	0	-0.009047508	-0.261078835	0.294395447	0.999999046	-0.00014019	-7.24792E-05	0.000144958	-0.226187706	-6.526970863	7.359886169	-0.007009506	-0.003623962	0.007247925	-0.625488281	0.297607422	-0.835693359	888.6	-42.04679506	0.770690305	159.1934574	-79
29877	0	-0.009521484	-0.26171875	0.293457031	0.999999046	7.24792E-05	-0.000197411	1.52588E-05	-0.238037109	-6.54296875	7.336425781	0.003623962	-0.009870529	0.000762939	-0.625488281	0.297607422	-0.835693359	888.54	-42.04073556	0.75984584	159.1874649	-79
29878	0	-0.010023117	-0.260638237	0.294840813	0.999999046	1.90735E-05	-0.000209808	0.000110626	-0.250577927	-6.515955925	7.371020317	0.000953674	-0.010490418	0.005531311	-0.627929688	0.297607422	-0.838378906	888.56	-42.04065358	0.75527535	159.1887227	-79
29879	0	-0.008728027	-0.261291504	0.293823242	0.999999046	-0.000144958	-0.000163078	-0.000102997	-0.218200684	-6.532287598	7.345581055	-0.007247925	-0.008153915	-0.005149841	-0.625488281	0.297607422	-0.835693359	888.56	-42.05965051	0.738270043	159.1694574	-79
29880	0	-0.00845623	-0.263331413	0.291612625	0.999999046	0.000142097	-1.71661E-05	0.000216484	-0.211405754	-6.583285332	7.290315628	0.007104874	-0.000858307	0.010824204	-0.627929688	0.300048828	-0.8359375	888.5	-42.04560689	0.758186193	159.1733263	-79
29881	0	-0.010498047	-0.261352539	0.293640137	0.999999046	0.000385284	-7.53403E-05	9.91821E-05	-0.262451172	-6.533813477	7.341003418	0.019264222	-0.003767014	0.004959107	-0.627929688	0.297607422	-0.835693359	888.68	-42.00376809	0.764170359	159.1692026	-79
29882	0	-0.009100914	-0.259842873	0.294512749	0.999999046	-0.000123978	-0.000165939	-4.19617E-05	-0.22752285	-6.496071815	7.362818718	-0.006198883	-0.008296967	-0.002098084	-0.625488281	0.297607422	-0.841308594	888.48	-42.02031591	0.751607102	159.1482803	-79
29883	0	-0.010437012	-0.262878418	0.293334961	0.999999046	-0.000141144	-0.000144005	8.01086E-05	-0.260925293	-6.571960449	7.333374023	-0.00705719	-0.007200241	0.004005432	-0.627929688	0.300048828	-0.8359375	888.48	-42.03875961	0.750293108	159.1507698	-79
29884	0	-0.010272026	-0.26338768	0.294911385	0.999999046	0.000159264	-9.34601E-05	-3.52859E-05	-0.256800652	-6.584692001	7.372784615	0.007963181	-0.004673004	-0.001764297	-0.627929688	0.297607422	-0.835693359	888.48	-42.02296935	0.744442507	159.1363473	-79
29885	0	-0.009460449	-0.260131836	0.294921875	0.999999046	0.000102997	-7.53403E-05	6.48499E-05	-0.23651123	-6.503295898	7.373046875	0.005149841	-0.003767014	0.003242493	-0.625488281	0.297607422	-0.835693359	888.6	-42.01350024	0.74781792	159.1269411	-79
29886	0	-0.009449959	-0.262022972	0.295343399	0.999999046	-0.000135422	-0.00012207	3.8147E-05	-0.23624897	-6.550574303	7.383584976	-0.006771088	-0.006103516	0.001907349	-0.627929688	0.297607422	-0.838378906	888.6	-42.03132961	0.745167563	159.1168186	-79
29887	0	-0.009155273	-0.263244629	0.294067383	0.999999046	0.000152588	-0.000239372	4.95911E-05	-0.228881836	-6.581115723	7.35168457	0.007629395	-0.011968613	0.002479553	-0.627929688	0.297607422	-0.838378906	888.5	-42.01604969	0.733403522	159.1169006	-79
29888	0	-0.009161949	-0.260651588	0.294700623	0.999999046	0.000153542	-7.62939E-05	0.000124931	-0.229048729	-6.516289711	7.367515564	0.007677078	-0.003814697	0.006246567	-0.627929688	0.297607422	-0.838378906	888.5	-42.00072095	0.741298417	159.1115963	-79
29889	0	-0.009399414	-0.262634277	0.294372559	0.999999046	3.8147E-05	-0.000174522	3.8147E-06	-0.234985352	-6.565856934	7.359313965	0.001907349	-0.00872612	0.000190735	-0.627929688	0.297607422	-0.838378906	888.56	-41.99866666	0.731541582	159.103577	-79
29890	0	-0.009970665	-0.261879921	0.293052673	0.999999046	0.000179291	-0.000167847	0.000105858	-0.249266624	-6.546998024	7.326316833	0.008964539	-0.008392334	0.005292893	-0.627929688	0.297607422	-0.835693359	888.6	-41.98035836	0.73018895	159.1082927	-79
29891	0	-0.009521484	-0.260864258	0.295471191	0.999999046	7.62939E-06	-0.000216484	5.34058E-05	-0.238037109	-6.521606445	7.386779785	0.00038147	-0.010824204	0.002670288	-0.627929688	0.297607422	-0.835693359	888.5	-41.9817084	0.720675173	159.1117912	-79
29892	0	-0.008789063	-0.26159668	0.293334961	0.999999046	-0.000128746	-6.86646E-05	8.01086E-05	-0.219726563	-6.539916992	7.333374023	-0.006437302	-0.003433228	0.004005432	-0.625488281	0.297607422	-0.838623047	888.56	-41.9988079	0.72578787	159.0987367	-79
29893	0	-0.008789063	-0.262145996	0.292602539	0.999999046	3.43323E-05	-0.000132561	4.57764E-05	-0.219726563	-6.553649902	7.315063477	0.001716614	-0.006628037	0.002288818	-0.627929688	0.297607422	-0.838378906	888.56	-41.99723149	0.722818067	159.0908861	-79
29894	0	-0.009833336	-0.261880875	0.293538094	0.999999046	0.00021553	-0.000322342	5.24521E-05	-0.245833397	-6.547021866	7.338452339	0.01077652	-0.016117096	0.002622604	-0.627929688	0.300048828	-0.8359375	888.48	-41.97472216	0.704206184	159.1061805	-79
29895	0	-0.008972168	-0.260803223	0.294433594	0.999999046	0	-9.05991E-05	0.000144958	-0.224304199	-6.520080566	7.360839844	0	-0.004529953	0.007247925	-0.627929688	0.297607422	-0.835693359	888.54	-41.97702093	0.712420675	159.1074547	-79
29896	0	-0.009848595	-0.261289597	0.293763161	0.999999046	-8.29697E-05	-1.52588E-05	6.48499E-05	-0.246214867	-6.532239914	7.344079018	-0.004148483	-0.000762939	0.003242493	-0.627929688	0.297607422	-0.835693359	888.44	-41.98899157	0.720924369	159.0960697	-79
29897	0	-0.009643555	-0.261901855	0.29296875	0.999999046	-8.01086E-05	-0.000170708	8.39233E-05	-0.241088867	-6.547546387	7.32421875	-0.004005432	-0.008535385	0.004196167	-0.627929688	0.297607422	-0.835693359	888.54	-42.00048756	0.71765576	159.0975815	-79
29898	0	-0.009586334	-0.261580467	0.294210434	0.999998093	9.53674E-05	-0.000157356	0.000174522	-0.239658356	-6.539511681	7.355260849	0.004768372	-0.007867813	0.00872612	-0.627929688	0.297607422	-0.838378906	888.5	-41.99178857	0.722476082	159.1016552	-79
29899	0	-0.009887695	-0.260803223	0.293701172	0.999999046	-2.28882E-05	-0.000159264	7.62939E-05	-0.247192383	-6.520080566	7.342529297	-0.001144409	-0.007963181	0.003814697	-0.625488281	0.297607422	-0.835693359	888.54	-41.99673985	0.71961201	159.0988474	-79
29900	0	-0.0079422	-0.262219429	0.293935776	0.999999046	-0.000187874	-5.72205E-05	1.90735E-05	-0.198554993	-6.555485725	7.348394394	-0.009393692	-0.002861023	0.000953674	-0.627929688	0.297607422	-0.835693359	888.62	-42.02077567	0.721024514	159.0855358	-79
29901	0	-0.008728027	-0.263305664	0.294250488	0.999999046	0.000324249	-0.000216484	0.000110626	-0.218200684	-6.582641602	7.356262207	0.016212464	-0.010824204	0.005531311	-0.623046875	0.297607422	-0.8359375	888.48	-41.98588787	0.715883043	159.0874236	-79
29902	0	-0.009756088	-0.259572983	0.294606209	0.999999046	0.00012207	-0.000144958	0.000160217	-0.243902206	-6.48932457	7.36515522	0.006103516	-0.007247925	0.008010864	-0.625488281	0.297607422	-0.838623047	888.44	-41.97415489	0.72064435	159.0869023	-79
29903	0	-0.009521484	-0.261047363	0.294067383	0.999999046	-0.0001297	-9.44138E-05	3.43323E-05	-0.238037109	-6.526184082	7.35168457	-0.006484985	-0.004720688	0.001716614	-0.625488281	0.297607422	-0.835693359	888.54	-41.99145846	0.720066879	159.0760911	-80
29904	0	-0.009606361	-0.262710571	0.293207169	0.999999046	3.33786E-05	-0.000234604	6.00815E-05	-0.240159035	-6.567764282	7.330179214	0.00166893	-0.011730194	0.003004074	-0.623046875	0.297607422	-0.8359375	888.54	-41.98993761	0.709526586	159.074976	-80
29905	0	-0.008972168	-0.262084961	0.295043945	0.999999046	0.000205994	-9.05991E-05	4.19617E-05	-0.224304199	-6.552124023	7.376098633	0.010299683	-0.004529953	0.002098084	-0.627929688	0.297607422	-0.838378906	888.64	-41.96879886	0.7098627	159.0637712	-80
29906	0	-0.009673119	-0.259766579	0.294542313	0.999999046	-0.000104904	-0.000225067	5.34058E-05	-0.241827965	-6.494164467	7.363557816	-0.005245209	-0.011253357	0.002670288	-0.627929688	0.295410156	-0.835449219	888.54	-41.98312192	0.699629886	159.0638121	-80
29907	0	-0.008605957	-0.262390137	0.295227051	0.999999046	-0.000114441	-0.000124931	0.000106812	-0.215148926	-6.559753418	7.38067627	-0.005722046	-0.006246567	0.005340576	-0.625488281	0.297607422	-0.833007813	888.54	-41.99857843	0.702008158	159.0651816	-80
29908	0	-0.009870529	-0.26245594	0.293459892	0.999999046	0.000178337	-0.000211716	8.67844E-05	-0.246763229	-6.561398506	7.336497307	0.008916855	-0.010585785	0.004339218	-0.627929688	0.297607422	-0.835693359	888.5	-41.98044848	0.695474273	159.0701089	-80
29909	0	-0.010070801	-0.262023926	0.29510498	0.999999046	8.39233E-05	-0.000224113	0.000110626	-0.25177002	-6.550598145	7.377624512	0.004196167	-0.011205673	0.005531311	-0.625488281	0.297607422	-0.835693359	888.56	-41.97309435	0.689726259	159.0751914	-80
29910	0	-0.010057449	-0.26252079	0.29368782	0.999998093	0.000118256	-8.86917E-05	0.000128746	-0.251436234	-6.563019753	7.342195511	0.005912781	-0.004434586	0.006437302	-0.627929688	0.297607422	-0.835693359	888.38	-41.96194141	0.696923193	159.0745104	-79
29911	0	-0.009460449	-0.260925293	0.294555664	0.999999046	9.53674E-05	-0.00026226	6.48499E-05	-0.23651123	-6.523132324	7.363891602	0.004768372	-0.013113022	0.003242493	-0.627929688	0.297607422	-0.833007813	888.5	-41.95331035	0.684439633	159.0855147	-80
29912	0	-0.008973122	-0.261234283	0.29503727	0.999999046	-2.86102E-06	-0.000156403	8.39233E-05	-0.224328041	-6.530857086	7.37593174	-0.000143051	-0.007820129	0.004196167	-0.627929688	0.297607422	-0.835693359	888.5	-41.95600052	0.682435662	159.0854714	-79
29913	0	-0.009765625	-0.262512207	0.294372559	0.999999046	-3.43323E-05	-0.000121117	9.91821E-05	-0.244140625	-6.562805176	7.359313965	-0.001716614	-0.006055832	0.004959106	-0.627685547	0.295410156	-0.838134766	888.56	-41.96232436	0.684620474	159.0759904	-80
29914	0	-0.009685516	-0.263141632	0.294478416	0.999999046	9.34601E-05	-0.000291824	0.000109673	-0.242137909	-6.578540802	7.361960411	0.004673004	-0.014591217	0.005483627	-0.627929688	0.297607422	-0.838378906	888.68	-41.95386458	0.673073021	159.0840543	-80
29915	0	-0.010192871	-0.261047363	0.293701172	0.999999046	8.39233E-05	-0.000182152	0.000110626	-0.254821777	-6.526184082	7.342529297	0.004196167	-0.00910759	0.005531311	-0.625488281	0.297607422	-0.835693359	888.62	-41.94659931	0.670963976	159.0854443	-80
29916	0	-0.009349823	-0.260813713	0.294358253	0.999999046	-8.67844E-05	-0.000175476	0.0001297	-0.233745575	-6.520342827	7.358956337	-0.004339218	-0.008773804	0.006484985	-0.627929688	0.297607422	-0.835693359	888.62	-41.95888061	0.670892603	159.089942	-81
29917	0	-0.009155273	-0.26184082	0.29473877	0.999999046	9.53674E-05	-0.000109673	5.72205E-05	-0.228881836	-6.546020508	7.368469238	0.004768372	-0.005483627	0.002861023	-0.627929688	0.295410156	-0.835449219	888.62	-41.95041995	0.670878796	159.0801747	-81
29918	0	-0.010280609	-0.261479378	0.293996811	0.999999046	4.95911E-05	-7.24792E-05	0.000225067	-0.257015228	-6.536984444	7.349920273	0.002479553	-0.003623962	0.011253357	-0.627929688	0.297607422	-0.838378906	888.64	-41.94707746	0.686916378	159.081361	-80
29919	0	-0.00982666	-0.260437012	0.293395996	0.999999046	8.7738E-05	-0.000178337	0.000102997	-0.245666504	-6.510925293	7.334899902	0.004386902	-0.008916855	0.005149841	-0.627929688	0.297607422	-0.838378906	888.64	-41.93939108	0.684593719	159.0804136	-81
29920	0	-0.010019302	-0.261421204	0.294543266	0.999999046	-0.000138283	-0.000125885	3.43323E-05	-0.250482559	-6.53553009	7.363581657	-0.006914139	-0.006294251	0.001716614	-0.627685547	0.297607422	-0.841064453	888.5	-41.95771997	0.681498211	159.0648225	-81
29921	0	-0.00769043	-0.264099121	0.292541504	0.999999046	-6.48499E-05	-8.29697E-05	3.05176E-05	-0.192260742	-6.602478027	7.313537598	-0.003242493	-0.004148483	0.001525879	-0.625488281	0.297607422	-0.835693359	888.62	-41.96774133	0.681736858	159.0517818	-81
29922	0	-0.010648727	-0.262001038	0.294462204	0.999999046	0.000320435	-9.72748E-05	0.000121117	-0.266218185	-6.55002594	7.361555099	0.016021729	-0.004863739	0.006055832	-0.627929688	0.297607422	-0.835693359	888.54	-41.9335194	0.687729135	159.0513775	-81
29923	0	-0.010437012	-0.259216309	0.293334961	0.999999046	-5.34058E-05	-0.000174522	0.000102997	-0.260925293	-6.480407715	7.333374023	-0.002670288	-0.00872612	0.005149841	-0.627929688	0.297607422	-0.835693359	888.6	-41.94206841	0.685773158	159.0547531	-81
29924	0	-0.009167671	-0.261687279	0.292943954	0.999999046	-5.62668E-05	-7.82013E-05	0.000156403	-0.22919178	-6.542181969	7.323598862	-0.002813339	-0.003910065	0.007820129	-0.625488281	0.297607422	-0.833007813	888.54	-41.95100078	0.696115527	159.056546	-81
29925	0	-0.010681152	-0.263366699	0.293151855	0.999999046	2.67029E-05	-0.000121117	9.15527E-05	-0.267028809	-6.58416748	7.328796387	0.001335144	-0.006055832	0.004577637	-0.625488281	0.297607422	-0.835693359	888.5	-41.95049247	0.697859346	159.0518728	-81
29926	0	-0.008582115	-0.261335373	0.29359436	0.999999046	0.000154495	-0.000127792	7.53403E-05	-0.214552879	-6.533384323	7.339859009	0.007724762	-0.006389618	0.003767014	-0.625488281	0.299804688	-0.8359375	888.56	-41.9353626	0.697779359	159.0503235	-81
29927	0	-0.009887695	-0.260742188	0.294799805	0.999999046	-9.53674E-05	-4.86374E-05	0.000148773	-0.247192383	-6.518554688	7.369995117	-0.004768372	-0.00243187	0.00743866	-0.625488281	0.297607422	-0.835693359	888.5	-41.94884711	0.710082152	159.0451698	-81
29928	0	-0.009998322	-0.264030457	0.293895721	0.999999046	1.23978E-05	-1.71661E-05	0.000102043	-0.249958038	-6.600761414	7.347393036	0.000619888	-0.000858307	0.005102158	-0.625488281	0.295410156	-0.835693359	888.56	-41.95010388	0.72149891	159.0302093	-81
29929	0	-0.008972168	-0.260864258	0.293273926	0.999999046	0.000190735	-0.000105858	0.000240326	-0.224304199	-6.521606445	7.331848145	0.009536743	-0.005292893	0.012016297	-0.625732422	0.299804688	-0.833251953	888.56	-41.93070576	0.735938447	159.0461317	-81
29930	0	-0.010194778	-0.262210846	0.294290543	0.999998093	3.71933E-05	-0.000148773	0.000114441	-0.254869461	-6.555271149	7.357263565	0.001859665	-0.00743866	0.005722046	-0.625732422	0.299804688	-0.833251953	888.6	-41.92900913	0.737089672	159.0541956	-81
29931	0	-0.010864258	-0.262084961	0.292541504	0.999999046	5.72205E-05	-8.67844E-05	4.57764E-05	-0.271606445	-6.552124023	7.313537598	0.002861023	-0.004339218	0.002288818	-0.625488281	0.297607422	-0.835693359	888.5	-41.9251816	0.738292959	159.0438501	-81
29932	0	-0.009676933	-0.261074066	0.29464817	0.999999046	2.57492E-05	-0.000234604	-1.14441E-05	-0.241923332	-6.526851654	7.366204262	0.00128746	-0.011730194	-0.000572205	-0.625488281	0.299804688	-0.8359375	888.54	-41.92487313	0.722513687	159.0431516	-81
29933	0	-0.010009766	-0.262084961	0.29309082	0.999999046	-6.10352E-05	-0.000159264	-6.86646E-05	-0.250244141	-6.552124023	7.327270508	-0.003051758	-0.007963181	-0.003433228	-0.625488281	0.297607422	-0.835693359	888.6	-41.93466614	0.708785713	159.0280469	-81
29934	0	-0.009269714	-0.262122154	0.293732643	0.999999046	-6.48499E-05	-0.000127792	9.82285E-05	-0.231742859	-6.553053856	7.343316078	-0.003242493	-0.006389618	0.004911423	-0.625488281	0.299804688	-0.8359375	888.64	-41.94476931	0.710517085	159.0278765	-82
29935	0	-0.009155273	-0.261474609	0.293823242	0.999999046	0.000167847	-0.000136375	1.90735E-05	-0.228881836	-6.536865234	7.345581055	0.008392334	-0.006818771	0.000953674	-0.625488281	0.299804688	-0.8359375	888.5	-41.92828923	0.705450063	159.0221404	-82
29936	0	-0.009450912	-0.261192322	0.29476738	0.999999046	0.0001688	-0.000141144	7.62939E-05	-0.236272812	-6.529808044	7.369184494	0.008440018	-0.00705719	0.003814697	-0.627929688	0.299804688	-0.838623047	888.62	-41.91162909	0.704362195	159.0205438	-81
29937	0	-0.010131836	-0.261901855	0.295166016	0.999999046	-6.86646E-05	-1.04904E-05	0.000133514	-0.253295898	-6.547546387	7.379150391	-0.003433228	-0.000524521	0.00667572	-0.627929688	0.297607422	-0.833007813	888.44	-41.92224787	0.718809124	159.0185841	-81
29938	0	-0.00921917	-0.261878967	0.293176651	0.999999046	-6.67572E-05	-1.71661E-05	0.000117302	-0.23047924	-6.546974182	7.329416275	-0.00333786	-0.000858307	0.005865097	-0.627929688	0.300048828	-0.8359375	888.56	-41.93268367	0.731439413	159.0152159	-81
29939	0	-0.010498047	-0.261962891	0.294189453	0.999999046	0.000144958	-0.000189781	7.62939E-06	-0.262451172	-6.549072266	7.354736328	0.007247925	-0.00948906	0.00038147	-0.627929688	0.297607422	-0.835693359	888.62	-41.91881614	0.720973587	159.0119647	-81
29940	0	-0.010146141	-0.260779381	0.29487896	0.999999046	-3.33786E-05	-0.000164032	0.000114441	-0.253653526	-6.51948452	7.371973991	-0.00166893	-0.008201599	0.005722046	-0.627929688	0.297607422	-0.835693359	888.6	-41.92527964	0.720892815	159.0153585	-81
29941	0	-0.007995605	-0.263549805	0.293273926	0.999999046	-0.000205994	-1.81198E-05	7.24792E-05	-0.199890137	-6.588745117	7.331848145	-0.010299683	-0.000905991	0.003623962	-0.625488281	0.297607422	-0.838623047	888.6	-41.95174593	0.730007594	158.9963674	-81
29942	0	-0.010403633	-0.262693405	0.294202805	0.999999046	0.000249863	-0.000162125	0.000247002	-0.260090828	-6.567335129	7.355070114	0.012493134	-0.008106232	0.012350083	-0.625488281	0.297607422	-0.838623047	888.54	-41.92566175	0.740228875	159.0040322	-81
29943	0	-0.010681152	-0.260070801	0.294616699	0.999999046	7.62939E-06	-0.000155449	0.0001297	-0.267028809	-6.50177002	7.36541748	0.00038147	-0.007772446	0.006484985	-0.625488281	0.297607422	-0.835693359	888.54	-41.92745074	0.74205368	159.0056669	-81
29944	0	-0.009497643	-0.262566566	0.293890953	0.999999046	-0.000254631	-1.90735E-05	3.8147E-05	-0.237441063	-6.564164162	7.347273827	-0.012731552	-0.000953674	0.001907349	-0.625488281	0.299804688	-0.838623047	888.6	-41.95955114	0.748487959	158.9878067	-81
29945	0	-0.010009766	-0.262695313	0.293640137	0.999999046	0.000164032	-0.000227928	5.72205E-05	-0.250244141	-6.567382813	7.341003418	0.008201599	-0.011396408	0.002861023	-0.627929688	0.299804688	-0.838623047	888.48	-41.94347439	0.738588577	158.9904823	-81
29946	0	-0.008624077	-0.262170792	0.293729782	0.999999046	0.000259399	-0.000165939	7.53403E-05	-0.215601921	-6.554269791	7.343244553	0.012969971	-0.008296967	0.003767014	-0.627929688	0.297607422	-0.838378906	888.5	-41.91652367	0.735341288	158.987267	-81
29947	0	-0.010070801	-0.262512207	0.294128418	0.999999046	0.00063324	-0.000266075	7.62939E-05	-0.25177002	-6.562805176	7.353210449	0.03166199	-0.013303758	0.003814698	-0.625488281	0.297607422	-0.835693359	888.44	-41.84665345	0.723630793	158.9951666	-81
29948	0	-0.008666992	-0.25958252	0.296569824	0.999999046	0.00042057	-0.000175476	5.72205E-05	-0.216674805	-6.489562988	7.414245605	0.021028519	-0.008773804	0.002861023	-0.627929688	0.297607422	-0.835693359	888.56	-41.80122308	0.71817656	158.9984122	-81
29949	0	-0.008784294	-0.261450768	0.294653893	0.999998093	9.44138E-05	-0.000242233	9.15527E-05	-0.219607353	-6.536269188	7.366347313	0.004720688	-0.012111664	0.004577637	-0.625488281	0.297607422	-0.838623047	888.5	-41.79307019	0.709628212	159.0021973	-81
29950	0	-0.009521484	-0.262878418	0.293457031	0.999999046	0.000854492	-0.000362396	0.00019455	-0.238037109	-6.571960449	7.336425781	0.042724616	-0.018119815	0.009727479	-0.627685547	0.295410156	-0.838134766	888.56	-41.69764876	0.698660932	159.0254569	-81
29951	0	-0.008422852	-0.259033203	0.294677734	0.999999046	0.00082016	-0.000361443	0.000240326	-0.210571289	-6.475830078	7.366943359	0.041008001	-0.018072131	0.012016298	-0.625244141	0.295410156	-0.838378906	888.5	-41.60610362	0.691202499	159.0515002	-81
29952	0	-0.011392593	-0.266058922	0.290727615	0.999995232	0.002375603	-0.00125885	0.000720978	-0.284814835	-6.651473045	7.268190384	0.118780289	-0.062942586	0.036048936	-0.627929688	0.293212891	-0.832519531	888.64	-41.33521103	0.643111562	159.1986739	-81
29953	0	-0.011657715	-0.277282715	0.283569336	0.999968529	0.007232666	-0.002760887	0.001674652	-0.291442871	-6.932067871	7.089233398	0.361637082	-0.138045801	0.083733481	-0.627441406	0.288574219	-0.840332031	888.6	-40.50631198	0.535268417	159.5350629	-80
29954	0	-0.00567627	-0.269104004	0.29107666	0.999912262	0.012726784	-0.00322628	0.001716614	-0.141906738	-6.727600098	7.276916504	0.636357784	-0.161318725	0.085833197	-0.629394531	0.275146484	-0.841796875	888.44	-39.04856287	0.382846099	159.9174949	-80
29955	0	-0.005187988	-0.253417969	0.30279541	0.9998703	0.015679359	-0.002727509	0.002414703	-0.129699707	-6.335449219	7.569885254	0.784001832	-0.136381317	0.120740383	-0.633300781	0.254638672	-0.842285156	888.54	-37.25312153	0.314361988	160.3348903	-80
29956	0	-0.003616333	-0.23097229	0.321813583	0.999876022	0.015392303	-0.001957893	0.002319336	-0.090408325	-5.774307251	8.045339584	0.769646748	-0.097898685	0.115971555	-0.636962891	0.232177734	-0.850830078	888.48	-35.4909944	0.298248552	160.6858543	-79
29957	0	-0.001281738	-0.223999023	0.315856934	0.99993515	0.010464668	-0.001918793	0.003883362	-0.032043457	-5.599975586	7.89642334	0.5232446	-0.095941687	0.194172242	-0.641113281	0.211914063	-0.8515625	888.56	-34.29250733	0.379781139	161.1704039	-79
29958	0	0.001502991	-0.260710716	0.308310509	0.999835014	0.01697731	-0.002990723	0.005679131	0.037574768	-6.517767906	7.707762718	0.848912122	-0.149544344	0.28397212	-0.645263672	0.200683594	-0.855712891	888.44	-32.3459793	0.458581583	161.9169279	-79
29959	0	-0.007446289	-0.211303711	0.333557129	0.999714851	0.02305603	-0.002501488	0.005641937	-0.186157227	-5.282592773	8.338928223	1.152910994	-0.125086265	0.282123653	-0.644287109	0.173339844	-0.858886719	888.48	-29.70187345	0.554629991	162.6417219	-80
29960	0	-0.004898071	-0.196339607	0.339941978	0.999726295	0.022164345	-0.002607346	0.00693512	-0.122451782	-4.908490181	8.498549461	1.10831814	-0.130379149	0.346787553	-0.642822266	0.144042969	-0.864501953	888.64	-27.15712026	0.679518548	163.4986265	-81
29961	0	-0.013122559	-0.166564941	0.345153809	0.999736786	0.021317482	-0.002689362	0.008003235	-0.328063965	-4.164123535	8.628845215	1.065967514	-0.134479863	0.400196814	-0.648925781	0.114746094	-0.866943359	888.48	-24.70577866	0.813620252	164.4702887	-82
29962	0	-0.019486427	-0.165301323	0.332529068	0.999817848	0.014928818	-0.006278992	0.010076523	-0.487160683	-4.132533073	8.3132267	0.746486158	-0.313968626	0.503856698	-0.650634766	0.094482422	-0.864990234	888.48	-22.98220413	0.633338613	165.8025771	-85
29963	0	-0.020202637	-0.171569824	0.344482422	0.99971199	0.020165443	-0.009635925	0.008663177	-0.505065918	-4.289245605	8.612060547	1.008368746	-0.481842412	0.433200364	-0.655029297	0.081054688	-0.858154297	888.54	-20.66837603	-0.010760259	167.1314035	-87
29964	0	0.018338203	-0.146081924	0.379907608	0.999622345	0.02520752	-0.008488655	0.006883621	0.458455086	-3.652048111	9.497690201	1.260534598	-0.424486171	0.344224377	-0.663818359	0.056396484	-0.850097656	888.5	-17.78985168	-0.657132475	168.2113942	-89
29965	0	0.020568848	-0.054748535	0.379638672	0.999844551	0.016872406	-0.001414299	0.004787445	0.514221191	-1.368713379	9.490966797	0.843663837	-0.0707186	0.239384607	-0.6796875	0.020507813	-0.843261719	888.54	-15.865731	-0.640746613	168.7809901	-87
29966	0	-0.039733887	0.018005371	0.363647461	0.999994278	0.000348091	-0.002192497	-0.002235413	-0.993347168	0.450134277	9.091186523	0.017404585	-0.109625044	-0.111770815	-0.691162109	0.007080078	-0.843994141	888.44	-15.82412008	-0.938637198	168.58118	-87
29967	0	-0.026733398	0.02722168	0.339904785	0.999632835	-0.023670197	-0.006392479	-0.011463165	-0.668334961	0.680541992	8.497619629	-1.18365437	-0.319662983	-0.573228265	-0.69140625	0.007080078	-0.835693359	888.54	-18.50862578	-2.012391485	167.4524715	-89
29968	0	0.005386353	-0.161014557	0.348952293	0.999399185	-0.03024292	-0.009905815	-0.013713837	0.134658813	-4.025363922	8.723807335	-1.512448798	-0.495389936	-0.685829141	-0.699951172	0.036621094	-0.82421875	888.54	-21.92101817	-3.60765066	166.2668707	-88
29969	0	0.019470215	-0.276550293	0.359741211	0.99977684	-0.010004997	-0.013126373	-0.013118744	0.486755371	-6.913757324	8.993530273	-0.500286931	-0.656367297	-0.655985799	-0.713134766	0.055175781	-0.80859375	888.64	-23.00322054	-5.559738985	165.3883158	-88
29970	0	0.018771172	-0.171938896	0.403323174	0.999750137	0.003769875	-0.017666817	-0.013156891	0.469279289	-4.298472404	10.08307934	0.188509422	-0.88341438	-0.657899314	-0.735107422	0.041992188	-0.784423828	888.5	-22.49910751	-7.997199148	164.737879	-86
29971	0	0.028930664	-0.117858887	0.430725098	0.999668121	-0.005736351	-0.020431519	-0.014545441	0.723266602	-2.946472168	10.76812744	-0.286849202	-1.021688662	-0.727352291	-0.756347656	0.013183594	-0.756103516	888.54	-23.05068283	-10.78819067	164.0096298	-84
29972	0	0.087768555	-0.221008301	0.366210938	0.999693871	-0.001471519	-0.020278931	-0.014053345	2.194213867	-5.52520752	9.155273438	-0.073583467	-1.014049798	-0.702738799	-0.785644531	0.000244141	-0.720703125	888.5	-23.09489706	-13.54452326	163.3609235	-82
29973	0	0.114624023	-0.234069824	0.411682129	0.999572754	0.001069069	-0.022686005	-0.01839447	2.865600586	-5.851745605	10.29205322	0.053461058	-1.134461772	-0.919854492	-0.819335938	-0.028320313	-0.683349609	888.48	-22.71933706	-16.74717955	162.3454897	-80
29974	0	0.090784073	-0.171983719	0.393164635	0.999399185	0.001112938	-0.022328377	-0.026452065	2.269601822	-4.299592972	9.829115868	0.055658027	-1.116642151	-1.32286778	-0.847900391	-0.061279297	-0.646240234	888.44	-21.97671368	-20.25351728	160.3964406	-81
29975	0	0.135742188	-0.18371582	0.372009277	0.998944283	0.019382477	-0.022723198	-0.034877777	3.393554688	-4.592895508	9.300231934	0.969464727	-1.136559539	-1.744502264	-0.875244141	-0.126220703	-0.600830078	888.5	-18.59086172	-24.06895609	157.3621712	-81
29976	0	0.164319038	-0.326438904	0.426786423	0.998390198	0.035446167	-0.02541256	-0.036247253	4.10797596	-8.160972595	10.66966057	1.773259712	-1.271310039	-1.813335534	-0.896972656	-0.218017578	-0.551025391	888.5	-12.95767641	-27.98631103	153.8632566	-80
29977	0	0.219665527	-0.052490234	0.440917969	0.998548508	0.042218208	-0.02135849	-0.025722504	5.491638184	-1.312255859	11.02294922	2.111932097	-1.068441375	-1.286747668	-0.913330078	-0.325439453	-0.481201172	888.48	-6.711158125	-30.88389758	151.0528285	-80
29978	0	0.235120773	-0.176046371	0.477442741	0.998949051	0.036227226	-0.009503365	-0.026386261	5.878019333	-4.401159286	11.93606853	1.811995575	-0.475334612	-1.319775017	-0.918457031	-0.408447266	-0.425292969	888.6	-0.752114449	-32.14704336	147.6786799	-82
29979	0	0.284057617	-0.193359375	0.483703613	0.999201775	0.035358429	0.002713203	-0.018375397	7.10144043	-4.833984375	12.09259033	1.768391827	0.135696266	-0.919014288	-0.921386719	-0.48046875	-0.383789063	888.5	4.599832195	-31.74329724	145.3264991	-76
29980	0	0.170378685	-0.114926338	0.443413734	0.999547005	0.020241737	0.0181427	-0.012888908	4.259467125	-2.873158455	11.08534336	1.012239589	0.907271893	-0.644542664	-0.907714844	-0.527832031	-0.372558594	888.56	7.646606772	-29.49403357	144.0196981	-74
29981	0	0.116821289	-0.063842773	0.229064941	0.999422073	0.022561073	0.022621155	-0.01153183	2.920532227	-1.596069336	5.726623535	1.128270684	1.131275336	-0.576702418	-0.884033203	-0.560058594	-0.3984375	888.42	10.69476279	-26.69939463	143.1702428	-79
29982	0	0.222657204	-0.012777328	0.256332397	0.999576569	0.019040108	0.021950722	-0.000879288	5.566430092	-0.319433212	6.408309937	0.952139533	1.09769074	-0.043970581	-0.860351563	-0.592285156	-0.418945313	888.5	12.66566722	-24.19216463	143.7100938	-84
29983	0	0.246948242	-0.04901123	0.284362793	0.999312401	-0.003444672	0.025567055	0.026603699	6.173706055	-1.225280762	7.109069824	-0.172273027	1.278645511	1.330489581	-0.835449219	-0.590576172	-0.450439453	888.54	10.72723056	-21.9178894	147.4441403	-76
29984	0	0.233538628	-0.11691761	0.325972557	0.998300552	0.005550385	0.025528908	0.05208683	5.838465691	-2.922940254	8.149313927	0.277676523	1.277168871	2.605817634	-0.827636719	-0.519042969	-0.511230469	888.5	8.892303286	-20.02737449	154.0025769	-76
29985	0	0.265625	-0.113464355	0.333557129	0.997016907	0.027619362	0.025424957	0.067428589	6.640625	-2.836608887	8.338928223	1.382342593	1.272513156	3.374785079	-0.845214844	-0.422119141	-0.556152344	888.44	9.219631698	-18.34044373	162.3639488	-85
29986	0	0.227308273	-0.058385849	0.277202606	0.996283531	0.043703079	0.024923325	0.069904327	5.682706833	-1.459646225	6.930065155	2.187864505	1.247712019	3.499551962	-0.872558594	-0.324707031	-0.586914063	888.54	11.5408055	-16.94854115	171.1369113	-77
29987	0	0.171569824	-0.086425781	0.102172852	0.99275589	0.110280037	0.022480011	0.042045593	4.289245605	-2.160644531	2.554321289	5.527354413	1.1267224	2.10737049	-0.89453125	-0.248046875	-0.613525391	888.48	22.61133377	-15.87718273	176.9225698	-76
29988	0	0.122980118	0.347429276	-0.042764664	0.978547096	0.204815865	0.006641388	0.021254539	3.074502945	8.685731888	-1.069116592	10.31465874	0.33446457	1.070392286	-0.895263672	-0.376220703	-0.559326172	888.5	45.52306316	-16.58684295	179.5878465	-75
29989	0	-0.008056641	0.508422852	0.147399902	0.99832058	0.053611755	-0.00026226	0.021934509	-0.201416016	12.71057129	3.684997559	2.682089116	-0.013120366	1.097339719	-0.890869141	-0.506103516	-0.416259766	888.5	51.13379121	-18.45571463	-178.7223242	-67
29990	0	0.060214043	0.153280258	0.048273087	0.999588013	0.022906303	-0.004885674	0.016581535	1.505351067	3.832006454	1.206827164	1.145472426	-0.244317217	0.829190602	-0.906494141	-0.485351563	-0.400634766	888.54	53.49123432	-20.27316615	-177.9599702	-65
29991	0	0.113098145	0.205078125	0.026611328	0.99769783	0.066174507	-0.014545441	0.002658844	2.827453613	5.126953125	0.665283203	3.311266041	-0.727830487	0.133044283	-0.929199219	-0.489013672	-0.353027344	888.54	61.53941684	-21.39809644	-179.2770997	-67
29992	0	0.200510979	0.347650528	0.079946518	0.996835709	0.077964783	-0.01510334	0.003142357	5.012774467	8.691263199	1.998662949	3.902354711	-0.755964277	0.157283721	-0.948974609	-0.535400391	-0.250488281	888.6	71.04897043	-22.39849032	179.1807606	-70
29993	0	0.172485352	0.366333008	0.087219238	0.999058723	0.042064667	-0.008482933	0.006278992	4.312133789	9.158325195	2.180480957	2.103893197	-0.424279722	0.314048082	-0.962158203	-0.561279297	-0.155517578	888.54	76.16459436	-23.33934058	178.3984899	-66
29994	0	0.163994789	0.353479385	0.050226212	0.999751091	0.01714325	-0.005468369	0.013136864	4.099869728	8.836984634	1.255655289	0.857233403	-0.273441051	0.656897537	-0.973144531	-0.556152344	-0.106689453	888.56	78.23970577	-24.92327266	178.1057477	-65
29995	0	0.187194824	0.275268555	0.006469727	0.999717712	-0.003806114	-0.003978729	0.023097992	4.679870605	6.881713867	0.161743164	-0.190323598	-0.198955162	1.155008153	-0.986572266	-0.528808594	-0.091796875	888.48	77.73814789	-27.58564906	178.2346646	-63
29996	0	0.189730644	0.19511795	0.049547195	0.999469757	0.001300812	-0.005099297	0.032119751	4.743266106	4.877948761	1.238679886	0.065052078	-0.255009867	1.606271241	-1.005859375	-0.472167969	-0.092773438	888.54	77.75423496	-31.28691576	178.4891075	-63
29997	0	0.211914063	0.224731445	0.042175293	0.99937439	-0.004786491	-0.004337311	0.034751892	5.297851563	5.618286133	1.054382324	-0.239374434	-0.216910724	1.737956638	-1.035400391	-0.401611328	-0.088623047	888.62	76.93581775	-35.26309198	178.966047	-64
29998	0	0.19492054	0.179138184	0.054346085	0.999129295	0.021045685	-0.010162354	0.034537315	4.873013496	4.47845459	1.358652115	1.05258947	-0.508265062	1.72736667	-1.065429688	-0.324462891	-0.082275391	888.5	79.58791257	-39.35789446	178.5607913	-65
29999	0	0.231994629	0.26348877	0.07244873	0.997974396	0.053071022	-0.017147064	0.030590057	5.799865723	6.587219238	1.811218262	2.655343882	-0.857932451	1.530536224	-1.098388672	-0.253417969	-0.037597656	888.54	87.00738529	-43.053084	176.5298885	-65
30000	0	0.243060112	0.282132149	0.056871414	0.996921539	0.071125031	-0.018090248	0.027562141	6.0765028	7.053303719	1.421785355	3.559904245	-0.905441454	1.379522561	-1.124267578	-0.187011719	0.023193359	888.54	97.30429268	-46.11777493	173.4781664	-64
30001	0	0.233703613	0.256286621	0.022583008	0.997135162	0.066460609	-0.021724701	0.028839111	5.842590332	6.407165527	0.564575195	3.326206982	-1.087273387	1.443333943	-1.140625	-0.118408203	0.091308594	888.56	108.345899	-48.77771975	168.8325983	-66
30002	0	0.218844414	0.113413811	-0.02940464	0.997157097	0.062236786	-0.025045395	0.034290314	5.471110344	2.835345268	-0.735116005	3.114790907	-1.253457536	1.716141923	-1.15234375	-0.036376953	0.149902344	888.6	120.5051911	-51.16566053	162.2750624	-66
30003	0	0.170410156	0.018676758	-0.130126953	0.995139122	0.084552765	-0.033019066	0.038173676	4.260253906	0.466918945	-3.253173828	4.234500558	-1.653633124	1.911781957	-1.157714844	0.065917969	0.208984375	888.62	137.3993614	-52.19114883	153.1221918	-66
30004	0	0.177612305	-0.061977386	-0.234808922	0.990890503	0.119194031	-0.045859337	0.042702675	4.440307617	-1.549434662	-5.870223045	5.977862146	-2.29995405	2.141639997	-1.156982422	0.1953125	0.267822266	888.62	159.7240532	-50.25676136	142.0953711	-68
30005	0	0.152526855	-0.057739258	-0.24230957	0.983617783	0.163056374	-0.058666229	0.049667358	3.813171387	-1.443481445	-6.057739258	8.197632751	-2.949435166	2.497018392	-1.140869141	0.371582031	0.310791016	888.56	-174.3998263	-44.3046156	132.5226664	-80
30006	0	0.077013016	0.049444199	-0.144428253	0.987499237	0.142626762	-0.053473473	0.040518761	1.925325394	1.236104965	-3.610706329	7.161201186	-2.684869859	2.034421817	-1.102783203	0.581054688	0.284667969	888.56	-155.4768761	-37.18863238	128.718399	-69
30007	0	0.991394043	-0.713378906	-1.621643066	0.987624168	0.102172852	-0.089625359	0.078266144	24.78485107	-17.83447266	-40.54107666	5.12982123	-4.499845704	3.929530398	-1.033691406	0.735839844	0.274658203	888.54	-142.2674114	-23.73915654	125.9786469	-71
30008	0	0.092510223	-0.166572571	-0.399595261	0.985019684	0.134307861	-0.074032784	0.078843117	2.312755585	-4.16431427	-9.989881516	6.749127592	-3.720234221	3.96195911	-0.966064453	0.936035156	0.255371094	888.54	-126.6574102	-11.33696693	125.6945364	-71
30009	0	0.055725098	-0.322692871	-0.094482422	0.987443924	0.125912666	-0.059268951	0.074745178	1.393127441	-8.067321777	-2.362060547	6.322114945	-2.975912865	3.752979125	-0.78125	1.087646484	0.059082031	888.6	-112.3038069	-0.533272903	127.3963206	-68
30010	0	0.031850815	-0.500409126	-0.27466774	0.996220589	0.052459717	-0.020154953	0.066223145	0.79627037	-12.51022816	-6.866693497	2.626294943	-1.009019003	3.315334513	-0.598876953	1.160400391	-0.108398438	888.6	-106.2995064	7.38679906	127.0585575	-82
30011	0	0.02722168	-0.309020996	-0.046386719	0.995997429	0.074783325	-0.020140648	0.044616699	0.680541992	-7.725524902	-1.159667969	3.744162844	-1.008378075	2.233815988	-0.432373047	1.184326172	-0.222167969	888.54	-97.50158285	12.85592537	128.2718482	-81
30012	0	-0.162687302	-0.619062424	-0.043216705	0.998524666	0.042174339	-0.013177872	0.03155899	-4.067182541	-15.47656059	-1.080417633	2.109754531	-0.659217785	1.578725933	-0.302001953	1.163085938	-0.385986328	888.56	-92.35635607	16.57912862	129.4930512	-87
30013	0	-0.218078613	-0.40032959	0.078186035	0.999446869	-0.032725334	0.004268646	-0.004043579	-5.451965332	-10.00823975	1.954650879	-1.636568346	0.213471657	-0.202216226	-0.222900391	1.150390625	-0.436279297	888.6	-96.24400189	16.0717724	129.0065531	-73
30014	0	-0.140398026	-0.394686699	0.003959656	0.999094963	-0.042503357	-0.001058578	-0.000906944	-3.509950638	-9.867167473	0.098991394	-2.125808922	-0.052944891	-0.045360893	-0.180175781	1.177734375	-0.336425781	888.54	-101.0799901	15.97819419	129.1368969	-76
30015	0	-0.181152344	-0.401855469	-0.226745605	0.99956131	-0.020823479	-0.018592834	0.009803772	-4.528808594	-10.04638672	-5.668640137	-1.041325906	-0.929777416	0.490260147	-0.193115234	1.201660156	-0.227050781	888.6	-102.9155262	17.5113473	131.0611809	-76
30016	0	-0.079004288	-0.206328392	-0.217037201	0.999344826	-0.006764412	-0.034460068	-0.008695602	-1.975107193	-5.158209801	-5.425930023	-0.338294421	-1.723379473	-0.434875022	-0.186523438	1.206298828	-0.200927734	888.6	-102.4187159	17.39582362	135.3191811	-85
30017	0	-0.077392578	-0.32220459	-0.128967285	0.999256134	0.016949654	-0.031650543	-0.014076233	-1.934814453	-8.055114746	-3.224182129	0.847692883	-1.582919676	-0.703986212	-0.179443359	1.197509766	-0.176269531	888.5	-99.30591206	16.48510797	139.3504148	-83
30018	0	-0.134222031	-0.342291832	-0.008199692	0.999290466	0.031529427	-0.017390251	-0.011021614	-3.355550766	-8.557295799	-0.204992294	1.57684414	-0.869718184	-0.551211026	-0.224121094	1.1796875	-0.212158203	888.56	-95.08770085	15.47318968	141.5605904	-77
30019	0	-0.11920166	-0.359741211	0.07989502	0.999464989	0.028121948	-0.009963036	-0.013362885	-2.980041504	-8.993530273	1.997375488	1.406347976	-0.498240549	-0.668263288	-0.270263672	1.154785156	-0.271484375	888.62	-91.54647613	14.00309991	142.8189459	-76
30020	0	-0.06460762	-0.357765198	0.087945938	0.999655724	0.020726204	-0.006748199	-0.014555931	-1.615190506	-8.944129944	2.198648453	1.036428888	-0.337448618	-0.727879912	-0.306640625	1.127685547	-0.325927734	888.5	-88.9914322	12.33139654	143.6086877	-79
30021	0	-0.042785645	-0.394348145	0.05657959	0.99982357	0.009624481	-0.003825188	-0.015644073	-1.069641113	-9.858703613	1.414489746	0.481252296	-0.191270606	-0.782249571	-0.343994141	1.105224609	-0.359130859	888.62	-87.81194049	10.51930309	143.9918363	-78
30022	0	-0.071158409	-0.38703537	-0.001076698	0.999902725	0.004183769	-0.004164696	-0.012572289	-1.778960228	-9.675884247	-0.026917458	0.209195188	-0.208241483	-0.628634639	-0.384033203	1.087402344	-0.373535156	888.5	-87.26293437	9.051645744	144.3997718	-76
30023	0	-0.051330566	-0.37701416	0.026123047	0.999880791	0.002983093	-0.008296013	-0.012657166	-1.28326416	-9.425354004	0.653076172	0.149160578	-0.414817094	-0.632883375	-0.422119141	1.069824219	-0.372070313	888.6	-86.79509341	7.545868743	145.270047	-72
30024	0	-0.00111866	-0.394242287	0.067831993	0.999962807	0.001473427	0.001701355	-0.008255005	-0.027966499	-9.856057167	1.695799828	0.07367224	0.085068787	-0.412755281	-0.453125	1.056640625	-0.376953125	888.6	-86.65758597	6.603608921	145.006339	-73
30025	0	0.014282227	-0.407104492	0.049316406	0.999926567	-0.007640839	0.006417274	-0.006793976	0.357055664	-10.1776123	1.232910156	-0.38205121	0.320871517	-0.339707042	-0.484375	1.050292969	-0.374023438	888.5	-87.61753771	5.852512295	144.2153392	-73
30026	0	-0.019890785	-0.34862709	0.037120819	0.99988842	-0.012519836	0.008012772	-0.001324654	-0.49726963	-8.715677261	0.928020477	-0.626015059	0.400653453	-0.06623514	-0.496826172	1.052978516	-0.362548828	888.6	-89.14524138	5.715916415	143.2756834	-73
30027	0	-0.011413574	-0.400146484	-0.006591797	0.999918938	-0.009918213	0.007687569	0.002059937	-0.285339355	-10.00366211	-0.164794922	-0.495924011	0.384388794	0.102999602	-0.504882813	1.062255859	-0.343994141	888.64	-90.37160724	5.944084061	142.3788366	-72
30028	0	-0.00537014	-0.410634995	-0.019024849	0.999929428	-0.009717941	0.00666523	-0.000741005	-0.134253502	-10.26587486	-0.475621223	-0.485908355	0.333269234	-0.037051108	-0.498291016	1.069091797	-0.328857422	888.56	-91.5642259	5.833742002	141.6002796	-73
30029	0	-0.041564941	-0.400146484	-0.028625488	0.999969482	-0.001215935	0.007369995	-0.001922607	-1.039123535	-10.00366211	-0.715637207	-0.060797341	0.36850341	-0.096131324	-0.488769531	1.073486328	-0.321777344	888.5	-91.78802859	5.576166943	140.7462686	-74
30030	0	-0.090312004	-0.375426292	-0.020568848	0.999995232	0.00025177	0.002161026	-0.001811981	-2.257800102	-9.38565731	-0.514221191	0.012588518	0.108051444	-0.090599181	-0.486083984	1.071044922	-0.329833984	888.48	-91.7832323	5.349248533	140.4918464	-75
30031	0	-0.07019043	-0.396362305	-0.016235352	0.999998093	-0.001574516	-1.52588E-05	0.000213623	-1.754760742	-9.909057617	-0.405883789	-0.078725848	-0.00076294	0.010681157	-0.483642578	1.068847656	-0.327148438	888.6	-91.96471777	5.362653989	140.4805699	-75
30032	0	-0.120465279	-0.382930756	-0.024335861	0.999997139	-0.001189232	0.001409531	0.000699997	-3.011631966	-9.57326889	-0.60839653	-0.059461632	0.070476578	0.03499987	-0.486083984	1.066650391	-0.326904297	888.5	-92.11796651	5.427415097	140.3033952	-74
30033	0	-0.085021973	-0.392578125	-0.026672363	0.999993324	0.000694275	0.000309944	-0.003566742	-2.125549316	-9.814453125	-0.666809082	0.034713822	0.015497242	-0.178337492	-0.483886719	1.071289063	-0.322021484	888.54	-92.04203367	5.008818077	140.2704165	-75
30034	0	-0.042541504	-0.395324707	-0.019897461	0.999946594	0.007149696	0.000985146	-0.007289886	-1.063537598	-9.883117676	-0.497436523	0.357491088	0.049258142	-0.364500717	-0.480957031	1.064208984	-0.329589844	888.54	-91.23164816	4.161851502	140.1686865	-74
30035	0	-0.015014648	-0.398193359	-0.008056641	0.999929428	0.010499001	-4.19617E-05	-0.005451202	-0.375366211	-9.954833984	-0.201416016	0.524962272	-0.002098132	-0.272566477	-0.4921875	1.05078125	-0.349365234	888.6	-90.02945118	3.528426721	140.1676841	-74
30036	0	-0.011914253	-0.385137558	0.008148193	0.999966621	0.008131981	-0.000431061	0.000629425	-0.297856331	-9.62843895	0.203704834	0.406603566	-0.021553279	0.031471602	-0.508056641	1.034912109	-0.37109375	888.62	-89.09606891	3.591248192	140.2047786	-74
30037	0	-0.035522461	-0.394042969	0.000854492	0.999972343	0.007041931	-0.001185417	0.00170517	-0.888061523	-9.851074219	0.021362305	0.352099721	-0.059271391	0.08525925	-0.517578125	1.034912109	-0.381103516	888.56	-88.28188361	3.774865354	140.3322312	-74
30038	0	-0.036194801	-0.387580872	0.019643784	0.999964714	0.00819397	-0.001350403	-0.000515938	-0.904870033	-9.68952179	0.491094589	0.409703214	-0.067520921	-0.025797188	-0.514404297	1.027832031	-0.396972656	888.56	-87.33468828	3.701546738	140.4714331	-73
30039	0	-0.026245117	-0.378051758	0.039306641	0.999995232	0.002601624	-0.000826836	-0.001373291	-0.65612793	-9.451293945	0.982666016	0.130081379	-0.041341846	-0.068664658	-0.513671875	1.016601563	-0.412353516	888.68	-87.03243723	3.531468021	140.5447519	-74
30040	0	-0.021237373	-0.385360718	0.027248383	0.999993324	-0.003584862	-0.00053215	0.000144958	-0.530934334	-9.634017944	0.681209564	-0.179243481	-0.026607572	0.007247941	-0.518554688	1.018798828	-0.414794922	888.6	-87.44070194	3.536710001	140.5929119	-74
30041	0	-0.027893066	-0.396118164	0.012207031	0.999995232	-0.002552032	-0.000437737	0.000965118	-0.69732666	-9.902954102	0.305175781	-0.127601786	-0.021886853	0.048255982	-0.521240234	1.021240234	-0.401367188	888.64	-87.73117424	3.636562781	140.6344005	-75
30042	0	-0.031383514	-0.392418861	0.015235901	0.999999046	-0.000391006	-0.000879288	0.000752449	-0.78458786	-9.810471535	0.380897522	-0.019550328	-0.043964397	0.037622461	-0.516845703	1.025634766	-0.396728516	888.62	-87.77085506	3.710215143	140.7252338	-75
30043	0	-0.030090332	-0.389770508	0.017883301	0.999998093	-0.000720024	-0.001251221	0.000728607	-0.752258301	-9.744262695	0.44708252	-0.036001221	-0.062561062	0.036430375	-0.519042969	1.0234375	-0.398925781	888.62	-87.84536051	3.7795823	140.8585351	-75
30044	0	-0.032270432	-0.390906334	0.015079498	0.999999046	-0.001084328	-0.000804901	0.000183105	-0.806760788	-9.772658348	0.376987457	-0.054216402	-0.040245069	0.009155276	-0.516845703	1.028076172	-0.396728516	888.56	-87.96511544	3.788591652	140.938227	-75
30045	0	-0.030151367	-0.391479492	0.014587402	0.999999046	-0.000858307	-0.000582695	-0.000274658	-0.75378418	-9.786987305	0.364685059	-0.042915352	-0.029134756	-0.013732913	-0.514648438	1.028076172	-0.391601563	888.56	-88.06084275	3.746186272	140.9906095	-75
30046	0	-0.027415276	-0.390120506	0.016451836	0.999998093	-0.001402855	-0.000279427	-8.39233E-05	-0.685381889	-9.753012657	0.411295891	-0.07014277	-0.013971334	-0.004196168	-0.517089844	1.028076172	-0.385986328	888.62	-88.22122149	3.726806212	141.0090352	-75
30047	0	-0.028930664	-0.391113281	0.012268066	0.999998093	-0.001646996	-0.000137329	0.000198364	-0.723266602	-9.777832031	0.30670166	-0.082349815	-0.006866458	0.009918217	-0.517089844	1.030273438	-0.386230469	888.56	-88.41064104	3.740262641	141.0120996	-75
30048	0	-0.029268265	-0.394550323	0.008411407	0.999999046	-0.000628471	2.47955E-05	0.000179291	-0.731706619	-9.863758087	0.210285187	-0.031423571	0.001239777	0.008964539	-0.517333984	1.030517578	-0.380859375	888.48	-88.48468526	3.752015219	140.9965422	-75
30049	0	-0.029846191	-0.394287109	0.009216309	0.999999046	0.000789642	-0.000197411	0.00012207	-0.746154785	-9.857177734	0.230407715	0.039482121	-0.00987053	0.006103516	-0.517333984	1.032714844	-0.381103516	888.56	-88.39466083	3.756503443	141.0062816	-75
30050	0	-0.028717041	-0.391699791	0.011615753	0.999998093	0.001708031	-0.000218391	2.19345E-05	-0.717926025	-9.792494774	0.290393829	0.085401577	-0.010919576	0.001096726	-0.51953125	1.030273438	-0.385986328	888.48	-88.19931594	3.749389601	141.0180602	-75
30051	0	-0.027832031	-0.389404297	0.016967773	0.999999046	0.001285553	-0.000281334	1.90735E-05	-0.695800781	-9.735107422	0.424194336	0.064277667	-0.0140667	0.000953675	-0.517089844	1.028076172	-0.388671875	888.56	-88.05189251	3.741627878	141.0369946	-75
30052	0	-0.028203964	-0.389237404	0.017801285	0.999999046	-0.000105858	-0.000282288	0.000175476	-0.705099106	-9.730935097	0.44503212	-0.005292893	-0.01411438	0.008773804	-0.51953125	1.028076172	-0.388427734	888.68	-88.06384602	3.75171099	141.0566692	-76
30053	0	-0.028869629	-0.390197754	0.016174316	0.999999046	-0.000831604	-0.000178337	0.00018692	-0.721740723	-9.754943848	0.40435791	-0.041580205	-0.008916856	0.009346009	-0.517089844	1.028076172	-0.391357422	888.56	-88.15974931	3.763484665	141.0643763	-76
30054	0	-0.029438972	-0.39136982	0.013580322	0.999999046	-0.001050949	-0.000408173	0.000197411	-0.735974312	-9.784245491	0.339508057	-0.052547466	-0.020408635	0.009870531	-0.51953125	1.030273438	-0.388671875	888.56	-88.27909591	3.775632438	141.0985638	-76
30055	0	-0.030395508	-0.391113281	0.012878418	0.999999046	-0.000823975	-0.00032711	4.95911E-05	-0.759887695	-9.777832031	0.321960449	-0.041198736	-0.016355517	0.002479554	-0.519775391	1.032714844	-0.383544922	888.56	-88.37311883	3.771176146	141.1229539	-76
30056	0	-0.0289011	-0.391436577	0.012190819	0.999999046	-0.000561714	-0.000343323	-9.63211E-05	-0.722527504	-9.785914421	0.30477047	-0.028085711	-0.017166139	-0.004816056	-0.517333984	1.030273438	-0.383544922	888.54	-88.43704482	3.749953558	141.1486801	-76
30057	0	-0.02911377	-0.390625	0.013000488	0.999999046	-0.000591278	-0.000437737	8.7738E-05	-0.727844238	-9.765625	0.325012207	-0.029563907	-0.021886828	0.004386902	-0.517333984	1.032714844	-0.383789063	888.54	-88.50363349	3.749529254	141.1858488	-75
30058	0	-0.029844284	-0.391060829	0.011220932	0.999999046	-0.000679016	-0.000417709	0.000167847	-0.746107101	-9.776520729	0.2805233	-0.033950809	-0.02088547	0.008392335	-0.520019531	1.034912109	-0.381103516	888.6	-88.58045031	3.758373521	141.2210028	-75
30059	0	-0.030151367	-0.391784668	0.008972168	0.999999046	-0.00050354	-1.04904E-05	1.52588E-05	-0.75378418	-9.794616699	0.224304199	-0.025177003	-0.000524521	0.000762939	-0.517333984	1.030517578	-0.375488281	888.6	-88.64032453	3.75090364	141.2089703	-75
30060	0	-0.029065132	-0.392281532	0.009065628	0.999999046	0.00014019	-0.00012207	-6.19888E-05	-0.726628304	-9.807038307	0.226640701	0.007009506	-0.006103516	-0.003099442	-0.517578125	1.032714844	-0.378417969	888.56	-88.62567489	3.734248831	141.2094859	-75
30061	0	-0.02911377	-0.391052246	0.010070801	0.999999046	0.000598907	-9.05991E-05	-6.10352E-05	-0.727844238	-9.776306152	0.25177002	0.029945375	-0.004529953	-0.003051758	-0.520019531	1.032714844	-0.378173828	888.56	-88.5587443	3.717770863	141.2064186	-75
30062	0	-0.029735565	-0.390921593	0.010971069	0.999999046	0.000638962	-2.86102E-05	-6.58035E-05	-0.74338913	-9.773039818	0.274276733	0.031948092	-0.001430512	-0.003290177	-0.519775391	1.030517578	-0.377929688	888.56	-88.48772567	3.70092746	141.1961774	-74
30063	0	-0.029602051	-0.390930176	0.012817383	0.999999046	0.000846863	-1.81198E-05	3.43323E-05	-0.74005127	-9.773254395	0.32043457	0.042343145	-0.000905991	0.001716614	-0.517333984	1.030273438	-0.383544922	888.56	-88.39295484	3.695596122	141.1849477	-74
30064	0	-0.029628754	-0.391027451	0.014334679	0.999999046	0.000617027	-0.000141144	8.01086E-05	-0.740718842	-9.775686264	0.358366966	0.030851366	-0.00705719	0.004005432	-0.522216797	1.030517578	-0.383056641	888.6	-88.32359871	3.695115153	141.188068	-74
30065	0	-0.02935791	-0.391235352	0.01348877	0.999999046	0.000453949	-7.9155E-05	0.000263214	-0.733947754	-9.780883789	0.337219238	0.02269745	-0.003957749	0.013160706	-0.517089844	1.030273438	-0.386230469	888.6	-88.27337076	3.715804241	141.1845999	-74
30066	0	-0.030172348	-0.390598297	0.012809753	0.999999046	0.000249863	-0.000177383	0.000118256	-0.754308701	-9.764957428	0.320243835	0.012493134	-0.008869171	0.005912781	-0.519775391	1.030517578	-0.383300781	888.56	-88.24587089	3.719552955	141.1920005	-75
30067	0	-0.02935791	-0.390441895	0.013977051	0.999999046	-9.53674E-05	-0.000247002	0.000106812	-0.733947754	-9.761047363	0.34942627	-0.004768372	-0.012350083	0.005340576	-0.51953125	1.028076172	-0.385742188	888.7	-88.25743491	3.721732662	141.2072794	-74
30068	0	-0.028747559	-0.390625	0.013671875	0.999999046	-0.000426292	-9.15527E-05	4.95911E-05	-0.718688965	-9.765625	0.341796875	-0.021314622	-0.004577637	0.002479553	-0.51953125	1.028076172	-0.385742188	888.6	-88.30811485	3.717875158	141.2045333	-75
30069	0	-0.029174805	-0.391296387	0.012023926	0.999999046	-0.000556946	-0.000227928	0.000125885	-0.729370117	-9.782409668	0.300598145	-0.027847292	-0.011396409	0.006294251	-0.521972656	1.030517578	-0.385986328	888.5	-88.37278256	3.722284036	141.2177117	-75
30070	0	-0.028902054	-0.391058922	0.011723518	0.999999046	-0.000164032	-7.82013E-05	0.000163078	-0.722551346	-9.776473045	0.293087959	-0.008201599	-0.003910065	0.008153915	-0.517333984	1.030273438	-0.383544922	888.56	-88.39357853	3.731424965	141.213811	-75
30071	0	-0.029785156	-0.391540527	0.011779785	0.999999046	5.72205E-05	-9.44138E-05	7.24792E-05	-0.744628906	-9.788513184	0.294494629	0.002861023	-0.004720688	0.003623962	-0.519775391	1.032714844	-0.380859375	888.62	-88.3889607	3.730128923	141.2115249	-75
30072	0	-0.030695915	-0.393183708	0.008717537	0.999999046	0.00083828	-0.000177383	-2.38419E-05	-0.767397881	-9.829592705	0.217938423	0.041913991	-0.008869172	-0.001192093	-0.522216797	1.032714844	-0.383300781	888.62	-88.29434163	3.717535554	141.2183955	-76
30073	0	-0.029724121	-0.393493652	0.008666992	0.999997139	0.002155304	-0.000182152	-0.000324249	-0.743103027	-9.837341309	0.216674805	0.107765284	-0.009107597	-0.016212476	-0.519775391	1.030517578	-0.383300781	888.64	-88.04895567	3.670490149	141.2246574	-75
30074	0	-0.027391434	-0.390706062	0.014572144	0.999995232	0.002849579	-0.000587463	-0.000137329	-0.684785843	-9.767651558	0.364303589	0.142479144	-0.02937321	-0.006866465	-0.519287109	1.025878906	-0.388427734	888.6	-87.72104109	3.643062613	141.2779273	-76
30075	0	-0.028991699	-0.386962891	0.022033691	0.999998093	0.001362801	-0.000392914	0.000167847	-0.72479248	-9.674072266	0.550842285	0.068140053	-0.019645698	0.008392337	-0.521728516	1.0234375	-0.393310547	888.64	-87.56476877	3.651263337	141.3101829	-75
30076	0	-0.028006554	-0.387443542	0.022500038	0.999999046	-0.000971794	-9.15527E-05	5.34058E-05	-0.700163841	-9.686088562	0.562500954	-0.048589714	-0.004577637	0.002670289	-0.521484375	1.021240234	-0.398681641	888.56	-87.67819446	3.64775774	141.3072647	-75
30077	0	-0.028320313	-0.390686035	0.018310547	0.999997139	-0.002063751	4.29153E-05	0.000244141	-0.708007813	-9.767150879	0.457763672	-0.103187635	0.002145769	0.01220704	-0.521728516	1.028076172	-0.393798828	888.6	-87.9176874	3.666654638	141.2898656	-75
30078	0	-0.030528069	-0.393292427	0.013144493	0.999998093	-0.001515388	-2.38419E-05	0.000292778	-0.763201714	-9.832310677	0.328612328	-0.075769455	-0.001192093	0.014638907	-0.521728516	1.025878906	-0.388183594	888.5	-88.09392497	3.690806947	141.2802808	-76
30079	0	-0.030456543	-0.393859863	0.01184082	0.999999046	-2.67029E-05	-0.000109673	4.57764E-05	-0.761413574	-9.846496582	0.296020508	-0.001335144	-0.005483627	0.002288818	-0.51953125	1.028076172	-0.385742188	888.62	-88.09907888	3.686338162	141.2795544	-75
30080	0	-0.029513359	-0.391295433	0.014144897	0.999999046	0.000628471	-0.000150681	-6.58035E-05	-0.737833977	-9.782385826	0.353622437	0.031423571	-0.007534028	-0.003290177	-0.521972656	1.028076172	-0.388427734	888.6	-88.02891087	3.66892794	141.2830823	-76
30081	0	-0.028076172	-0.390136719	0.016967773	0.999999046	0.000419617	-0.000132561	-2.28882E-05	-0.701904297	-9.753417969	0.424194336	0.020980836	-0.006628037	-0.001144409	-0.51953125	1.028076172	-0.388427734	888.5	-87.98278441	3.656473851	141.2846712	-75
30082	0	-0.028359413	-0.389759064	0.015714645	0.999999046	-0.000347137	-6.48499E-05	0.000133514	-0.708985329	-9.743976593	0.392866135	-0.017356873	-0.003242493	0.00667572	-0.521972656	1.028076172	-0.388427734	888.62	-88.02499179	3.662181965	141.2791299	-76
30083	0	-0.029846191	-0.391784668	0.013549805	0.999999046	-0.000289917	-7.15256E-05	0.000133514	-0.746154785	-9.794616699	0.338745117	-0.01449585	-0.003576279	0.00667572	-0.521972656	1.028076172	-0.388427734	888.5	-88.0606444	3.667865458	141.2743379	-76
30084	0	-0.029888153	-0.391480446	0.014730453	0.999999046	7.9155E-05	-0.000143051	3.33786E-05	-0.747203827	-9.787011147	0.368261337	0.003957748	-0.007152557	0.00166893	-0.517089844	1.028076172	-0.385986328	888.62	-88.0535272	3.661807229	141.277359	-76
30085	0	-0.028381348	-0.390625	0.015014648	0.999999046	0.000106812	-0.000208855	4.57764E-05	-0.709533691	-9.765625	0.375366211	0.005340576	-0.010442734	0.002288818	-0.521972656	1.028076172	-0.388427734	888.54	-88.04277259	3.656890462	141.2879903	-76
30086	0	-0.028777122	-0.390741348	0.015354156	0.999999046	-0.000133514	-0.000144958	0.000247955	-0.719428062	-9.768533707	0.383853912	-0.00667572	-0.007247925	0.012397766	-0.51953125	1.028076172	-0.391357422	888.6	-88.05998569	3.675364847	141.2920312	-76
30087	0	-0.028686523	-0.390991211	0.015014648	0.999999046	-0.00030899	-0.000121117	9.53674E-05	-0.717163086	-9.774780273	0.375366211	-0.015449524	-0.006055832	0.004768372	-0.51953125	1.028076172	-0.385742188	888.6	-88.09753562	3.676440395	141.2928219	-76
30088	0	-0.028819084	-0.391422272	0.013436317	0.999999046	-0.000212669	-8.2016E-05	8.7738E-05	-0.720477104	-9.785556793	0.335907936	-0.010633469	-0.0041008	0.004386902	-0.521972656	1.030273438	-0.388671875	888.5	-88.12437831	3.676775585	141.2890447	-76
30089	0	-0.029602051	-0.391235352	0.013671875	0.999999046	-3.8147E-05	-0.000243187	6.86646E-05	-0.74005127	-9.780883789	0.341796875	-0.001907349	-0.012159348	0.003433228	-0.51953125	1.028076172	-0.388427734	888.54	-88.13007254	3.674321695	141.3036846	-76
30090	0	-0.0291605	-0.391477585	0.01444912	0.999999046	7.62939E-06	-5.91278E-05	6.00815E-05	-0.729012489	-9.786939621	0.361227989	0.00038147	-0.00295639	0.003004074	-0.521972656	1.028076172	-0.385742188	888.54	-88.1318933	3.671565681	141.2972211	-76
30091	0	-0.028076172	-0.391601563	0.015258789	0.999999046	0.000244141	-0.000178337	-5.34058E-05	-0.701904297	-9.790039063	0.381469727	0.012207031	-0.008916855	-0.002670288	-0.521972656	1.028076172	-0.388427734	888.5	-88.10576487	3.655337327	141.3039541	-76
30092	0	-0.028456688	-0.39068222	0.015520096	0.999999046	-7.53403E-05	-0.000148773	9.91821E-05	-0.711417198	-9.767055511	0.388002396	-0.003767014	-0.00743866	0.004959106	-0.51953125	1.028076172	-0.385742188	888.54	-88.11642523	3.656678396	141.3078931	-76
30093	0	-0.030029297	-0.390625	0.015563965	0.999999046	-0.000278473	-0.000208855	9.91821E-05	-0.750732422	-9.765625	0.389099121	-0.013923645	-0.010442734	0.004959107	-0.521972656	1.028076172	-0.385742188	888.56	-88.1499188	3.65780871	141.3187316	-76
30094	0	-0.029003143	-0.39160347	0.013159752	0.999999046	-0.000165939	-0.000232697	4.86374E-05	-0.725078583	-9.790086746	0.328993797	-0.008296967	-0.011634827	0.00243187	-0.51953125	1.028076172	-0.388427734	888.54	-88.17039153	3.653058588	141.3320686	-76
30095	0	-0.028381348	-0.391540527	0.01361084	0.999999046	0.000114441	-0.000174522	5.34058E-05	-0.709533691	-9.788513184	0.340270996	0.005722046	-0.00872612	0.002670288	-0.51953125	1.028076172	-0.385742188	888.56	-88.15918552	3.649049963	141.338807	-76
30096	0	-0.028296471	-0.390314102	0.015357971	0.999999046	8.86917E-05	-0.000167847	7.62939E-05	-0.707411766	-9.757852554	0.38394928	0.004434586	-0.008392334	0.003814697	-0.51953125	1.028076172	-0.388427734	888.54	-88.15096716	3.647667884	141.3448221	-76
30097	0	-0.029602051	-0.391174316	0.01385498	0.999999046	-0.000247955	-0.000159264	7.24792E-05	-0.74005127	-9.77935791	0.346374512	-0.012397766	-0.007963181	0.003623962	-0.51953125	1.028076172	-0.388427734	888.62	-88.18141258	3.645886923	141.3498507	-76
30098	0	-0.028311729	-0.391300201	0.014280319	0.999999046	3.05176E-05	-9.72748E-05	7.53403E-05	-0.707793236	-9.782505035	0.35700798	0.001525879	-0.004863739	0.003767014	-0.521972656	1.025878906	-0.385498047	888.48	-88.18041042	3.644642031	141.3478211	-76
30099	0	-0.028564453	-0.391174316	0.014587402	0.999999046	4.19617E-05	-0.000163078	0.000106812	-0.714111328	-9.77935791	0.364685059	0.002098084	-0.008153915	0.005340576	-0.521972656	1.025878906	-0.385498047	888.56	-88.17761478	3.646749014	141.3534238	-76
30100	0	-0.029009819	-0.3909235	0.013774872	0.999999046	0.000121117	-0.000173569	9.44138E-05	-0.725245476	-9.773087502	0.344371796	0.006055832	-0.008678436	0.004720688	-0.51953125	1.028076172	-0.391357422	888.48	-88.16569518	3.647392202	141.3601186	-76
30101	0	-0.029785156	-0.391113281	0.014648438	0.999999046	0.000141144	-0.00014782	8.7738E-05	-0.744628906	-9.777832031	0.366210938	0.00705719	-0.007390976	0.004386902	-0.51953125	1.028076172	-0.391357422	888.5	-88.1516757	3.647373686	141.3638901	-76
30102	0	-0.028202057	-0.390372276	0.014705658	0.999999046	-1.71661E-05	-0.000196457	-1.14441E-05	-0.705051422	-9.759306908	0.367641449	-0.000858307	-0.009822846	-0.000572205	-0.521972656	1.028076172	-0.385742188	888.64	-88.15547199	3.635796523	141.3729376	-76
30103	0	-0.028442383	-0.390808105	0.015930176	0.999999046	-0.0001297	-8.67844E-05	3.8147E-05	-0.71105957	-9.770202637	0.398254395	-0.006484985	-0.004339218	0.001907349	-0.51953125	1.028076172	-0.388427734	888.6	-88.17293326	3.630289907	141.3694925	-76
30104	0	-0.028991699	-0.391357422	0.01373291	0.999999046	-0.000174522	-2.28882E-05	3.8147E-05	-0.72479248	-9.783935547	0.343322754	-0.00872612	-0.001144409	0.001907349	-0.51953125	1.028076172	-0.385742188	888.6	-88.19601726	3.625011668	141.3587675	-76
30105	0	-0.028404236	-0.391178131	0.012854576	0.999998093	-4.76837E-06	-1.62125E-05	1.43051E-05	-0.710105896	-9.779453278	0.321364403	-0.000238419	-0.000810623	0.000715256	-0.51953125	1.028076172	-0.388427734	888.48	-88.19973754	3.617012024	141.3471509	-76
30106	0	-0.029182434	-0.391789436	0.014657021	0.999999046	-2.47955E-05	-9.34601E-05	4.1008E-05	-0.729560852	-9.794735909	0.366425514	-0.001239777	-0.004673004	0.0020504	-0.521972656	1.028076172	-0.388427734	888.56	-88.2051879	3.611794835	141.3445287	-76
30107	0	-0.028808594	-0.391296387	0.01373291	0.999999046	-1.90735E-05	-0.000124931	7.62939E-05	-0.720214844	-9.782409668	0.343322754	-0.000953674	-0.006246567	0.003814697	-0.521972656	1.028076172	-0.388427734	888.6	-88.20976411	3.610502669	141.3456335	-76
30108	0	-0.029047966	-0.390743256	0.014761925	0.999999046	-6.19888E-05	-0.000244141	7.62939E-05	-0.72619915	-9.76858139	0.369048119	-0.003099442	-0.012207031	0.003814697	-0.521972656	1.028076172	-0.385742188	888.62	-88.21839275	3.60878638	141.3604401	-76
30109	0	-0.028198242	-0.391662598	0.014099121	0.999999046	0.000240326	-0.000166893	-8.7738E-05	-0.704956055	-9.791564941	0.352478027	0.012016297	-0.00834465	-0.004386902	-0.521972656	1.028076172	-0.388427734	888.6	-88.19298269	3.588542349	141.3657503	-77
30110	0	-0.029101372	-0.390867233	0.015334129	0.999999046	6.10352E-05	-5.34058E-05	0.000174522	-0.727534294	-9.771680832	0.383353233	0.003051758	-0.002670288	0.00872612	-0.521972656	1.028076172	-0.388427734	888.6	-88.18886367	3.598751245	141.3590027	-77
30111	0	-0.030090332	-0.39050293	0.015197754	0.999999046	-0.000205994	-0.000170708	9.15527E-05	-0.752258301	-9.762573242	0.379943848	-0.010299683	-0.008535385	0.004577637	-0.521728516	1.025878906	-0.388183594	888.6	-88.21450953	3.599057221	141.365412	-77
30112	0	-0.028265953	-0.392334938	0.013275146	0.999999046	-4.673E-05	-0.000213623	1.04904E-05	-0.706648827	-9.808373451	0.331878662	-0.002336502	-0.010681152	0.000524521	-0.521972656	1.028076172	-0.385742188	888.54	-88.22163932	3.589913829	141.3764811	-77
30113	0	-0.027954102	-0.391601563	0.01348877	0.999999046	0.000259399	-0.000220299	9.91821E-05	-0.698852539	-9.790039063	0.337219238	0.012969971	-0.011014939	0.004959107	-0.521972656	1.028076172	-0.388427734	888.56	-88.19364062	3.590885525	141.3885926	-77
30114	0	-0.029368401	-0.390428543	0.014863014	0.999999046	8.58307E-05	-5.91278E-05	2.57492E-05	-0.734210014	-9.760713577	0.371575356	0.004291534	-0.00295639	0.00128746	-0.521972656	1.025878906	-0.385498047	888.6	-88.18670219	3.584037226	141.3819826	-77
30115	0	-0.028686523	-0.391601563	0.01373291	0.999999046	-0.000213623	-0.000151634	7.62939E-05	-0.717163086	-9.790039063	0.343322754	-0.010681152	-0.007581711	0.003814697	-0.521972656	1.028076172	-0.388427734	888.54	-88.21342223	3.582641613	141.3861216	-76
30116	0	-0.029170036	-0.391664505	0.013512611	0.999999046	-5.62668E-05	-8.58307E-05	8.29697E-05	-0.729250908	-9.791612625	0.337815285	-0.002813339	-0.004291534	0.004148483	-0.521972656	1.030273438	-0.388671875	888.44	-88.22260034	3.58225317	141.3827555	-76
30117	0	-0.027954102	-0.391357422	0.01385498	0.999999046	9.91821E-05	-0.000174522	0.000225067	-0.698852539	-9.783935547	0.346374512	0.004959107	-0.00872612	0.011253357	-0.519287109	1.025878906	-0.388427734	888.56	-88.21330788	3.597808407	141.3900648	-76
30118	0	-0.029346466	-0.391220093	0.013515472	0.999999046	5.72205E-05	-4.19617E-05	0.000136375	-0.733661652	-9.780502319	0.33788681	0.002861023	-0.002098084	0.006818771	-0.524414063	1.030517578	-0.388427734	888.56	-88.20981658	3.603687505	141.38189	-77
30119	0	-0.028869629	-0.390930176	0.014831543	0.999999046	0.000110626	-0.000144005	0.000114441	-0.721740723	-9.773254395	0.370788574	0.005531311	-0.007200241	0.005722046	-0.521728516	1.025878906	-0.388183594	888.62	-88.19946877	3.606688461	141.3853041	-76
30120	0	-0.02864933	-0.391042709	0.01626873	0.999999046	7.72476E-05	-0.0001297	0.000106812	-0.716233253	-9.776067734	0.406718254	0.003862381	-0.006484985	0.005340576	-0.521972656	1.025878906	-0.385498047	888.6	-88.19301913	3.608861428	141.3870879	-77
30121	0	-0.027648926	-0.39074707	0.015441895	0.999999046	-0.00018692	-7.15256E-05	1.14441E-05	-0.691223145	-9.768676758	0.386047363	-0.009346008	-0.003576279	0.000572205	-0.521972656	1.025878906	-0.385498047	888.48	-88.21726758	3.600296875	141.3818283	-77
30122	0	-0.028450012	-0.39111805	0.014261246	0.999999046	-0.000198364	5.91278E-05	8.39233E-05	-0.711250305	-9.777951241	0.356531143	-0.009918213	0.00295639	0.004196167	-0.521972656	1.028076172	-0.391113281	888.5	-88.24375777	3.600486611	141.3617908	-78
30123	0	-0.02746582	-0.391296387	0.015075684	0.999999046	1.14441E-05	-0.000155449	0.0001297	-0.686645508	-9.782409668	0.37689209	0.000572205	-0.007772446	0.006484985	-0.521972656	1.028076172	-0.388427734	888.6	-88.24463563	3.605135607	141.3666094	-78
30124	0	-0.027807236	-0.390435219	0.01533699	0.999999046	0.000144005	-0.000127792	9.82285E-05	-0.695180893	-9.76088047	0.383424759	0.007200241	-0.006389618	0.004911423	-0.51953125	1.028076172	-0.391357422	888.56	-88.23050988	3.606257787	141.3680919	-78
30125	0	-0.02746582	-0.390930176	0.014099121	0.999999046	-5.34058E-05	-0.000273705	0.000160217	-0.686645508	-9.773254395	0.352478027	-0.002670288	-0.013685227	0.008010864	-0.521728516	1.025878906	-0.388183594	888.48	-88.23794305	3.613938719	141.3866058	-77
30126	0	-0.028803825	-0.39080143	0.014621735	0.999999046	5.72205E-05	-0.000135422	0.000174522	-0.720095634	-9.770035744	0.365543365	0.002861023	-0.006771088	0.00872612	-0.521972656	1.028076172	-0.388427734	888.56	-88.23368958	3.623744784	141.3892741	-77
30127	0	-0.028198242	-0.391723633	0.013061523	0.999999046	6.86646E-05	-0.000128746	-6.48499E-05	-0.704956055	-9.79309082	0.326538086	0.003433228	-0.006437302	-0.003242493	-0.51953125	1.028076172	-0.388427734	888.5	-88.22825234	3.606142492	141.3903069	-77
30128	0	-0.027289391	-0.391664505	0.014586449	0.999999046	0.000214577	-0.000141144	0.00014782	-0.682234764	-9.791612625	0.364661217	0.010728836	-0.00705719	0.007390976	-0.519287109	1.025878906	-0.388427734	888.56	-88.20595515	3.612825029	141.393531	-77
30129	0	-0.028930664	-0.390625	0.015869141	0.999999046	-0.000171661	-0.000189781	0.000221252	-0.723266602	-9.765625	0.396728516	-0.008583069	-0.00948906	0.011062622	-0.521972656	1.028076172	-0.385742188	888.6	-88.22752327	3.627746897	141.4026386	-77
30130	0	-0.028671265	-0.391349792	0.014219284	0.999999046	-0.000333786	-0.00018692	-9.15527E-05	-0.716781616	-9.783744812	0.355482101	-0.016689301	-0.009346009	-0.004577637	-0.51953125	1.028076172	-0.388427734	888.6	-88.26776428	3.606849647	141.4102357	-78
30131	0	-0.02746582	-0.391906738	0.012817383	0.999999046	4.19617E-05	-0.000224113	8.39233E-05	-0.686645508	-9.797668457	0.32043457	0.002098084	-0.011205673	0.004196167	-0.521728516	1.025878906	-0.388183594	888.62	-88.26466718	3.605898805	141.4227668	-78
30132	0	-0.028196335	-0.390802383	0.014510155	0.999999046	0.000338554	-0.000230789	4.86374E-05	-0.704908371	-9.770059586	0.362753868	0.01692772	-0.01153946	0.00243187	-0.51953125	1.025878906	-0.385742188	888.5	-88.22753613	3.600867955	141.4359433	-78
30133	0	-0.027954102	-0.39050293	0.015319824	0.999999046	-0.00012207	-8.67844E-05	3.05176E-05	-0.698852539	-9.762573242	0.382995605	-0.006103516	-0.004339218	0.001525879	-0.521972656	1.028076172	-0.385742188	888.56	-88.24421412	3.594253703	141.4325295	-77
30134	0	-0.028342247	-0.391787529	0.01473999	0.999999046	-0.000253677	-0.000179291	-1.23978E-05	-0.708556175	-9.794688225	0.368499756	-0.012683869	-0.008964539	-0.000619888	-0.521972656	1.028076172	-0.385742188	888.58	-88.27531006	3.582393725	141.439569	-77
30135	0	-0.027587891	-0.391540527	0.013244629	0.999999046	0.000102997	-0.00014019	0.000125885	-0.689697266	-9.788513184	0.331115723	0.005149841	-0.007009506	0.006294251	-0.521728516	1.025878906	-0.388183594	888.54	-88.26580154	3.58649007	141.4425854	-77
30136	0	-0.028170586	-0.390676498	0.014858246	0.999999046	0.000136375	-0.000169754	2.95639E-05	-0.704264641	-9.76691246	0.371456146	0.006818771	-0.008487701	0.001478195	-0.521972656	1.028076172	-0.388427734	888.5	-88.25226404	3.57944311	141.4486815	-77
30137	0	-0.028198242	-0.391174316	0.014526367	0.999999046	0.000144958	-9.05991E-05	0.000152588	-0.704956055	-9.77935791	0.36315918	0.007247925	-0.004529953	0.007629395	-0.521728516	1.025878906	-0.388183594	888.56	-88.23827936	3.586757163	141.4461271	-77
30138	0	-0.028681755	-0.390734673	0.015377045	0.999999046	3.24249E-05	-0.000198364	0.000125885	-0.717043877	-9.768366814	0.384426117	0.001621246	-0.009918213	0.006294251	-0.521972656	1.025878906	-0.385498047	888.54	-88.23640316	3.590635626	141.4558696	-77
30139	0	-0.028808594	-0.391174316	0.015441895	0.999999046	0	-6.77109E-05	3.8147E-05	-0.720214844	-9.77935791	0.386047363	0	-0.003385544	0.001907349	-0.521728516	1.025878906	-0.388183594	888.44	-88.23918109	3.584928902	141.4502647	-77
30140	0	-0.027738571	-0.390989304	0.014590263	0.999999046	-6.77109E-05	-4.57764E-05	6.48499E-05	-0.693464279	-9.77473259	0.364756584	-0.003385544	-0.002288818	0.003242493	-0.51953125	1.028076172	-0.388427734	888.48	-88.24986638	3.582342122	141.4422444	-76
30141	0	-0.027648926	-0.391235352	0.01348877	0.999999046	3.43323E-05	-0.000121117	0.00012207	-0.691223145	-9.780883789	0.337219238	0.001716614	-0.006055832	0.006103516	-0.521972656	1.025878906	-0.385498047	888.56	-88.2483219	3.586028553	141.4431219	-76
30142	0	-0.028229713	-0.391471863	0.013644218	0.999999046	0.000169754	-0.000131607	2.19345E-05	-0.705742836	-9.78679657	0.341105461	0.008487701	-0.006580353	0.001096725	-0.521728516	1.025878906	-0.388183594	888.6	-88.23121923	3.578202291	141.4447941	-76
30143	0	-0.027832031	-0.390930176	0.015380859	0.999999046	4.19617E-05	-0.000151634	4.95911E-05	-0.695800781	-9.773254395	0.384521484	0.002098084	-0.007581711	0.002479553	-0.521972656	1.028076172	-0.388427734	888.42	-88.22859358	3.573460577	141.4488796	-75
30144	0	-0.028049469	-0.391231537	0.014994621	0.999999046	-0.000128746	-7.24792E-05	0.000179291	-0.701236725	-9.780788422	0.374865532	-0.006437302	-0.003623962	0.008964539	-0.521972656	1.028076172	-0.391113281	888.44	-88.24605822	3.583846406	141.4443197	-75
30145	0	-0.028442383	-0.391479492	0.014160156	0.999999046	8.01086E-05	-0.000151634	0.00019455	-0.71105957	-9.786987305	0.354003906	0.004005432	-0.007581711	0.009727478	-0.521972656	1.028076172	-0.385742188	888.48	-88.23902292	3.595699908	141.4489657	-75
30146	0	-0.029200554	-0.390916824	0.014902115	0.999999046	0.000112534	-0.000192642	-3.14713E-05	-0.730013847	-9.772920609	0.372552872	0.005626679	-0.009632111	-0.001573563	-0.521972656	1.030273438	-0.388671875	888.6	-88.22801765	3.581531363	141.4574556	-75
30147	0	-0.027160645	-0.391174316	0.014038086	0.999999046	9.91821E-05	-0.000239372	6.10352E-05	-0.679016113	-9.77935791	0.350952148	0.004959107	-0.011968613	0.003051758	-0.51953125	1.028076172	-0.388427734	888.5	-88.21819629	3.577765227	141.4716382	-75
30148	0	-0.027689934	-0.390619278	0.015044212	0.999999046	6.58035E-05	-0.000202179	0.000221252	-0.692248344	-9.765481949	0.376105309	0.003290176	-0.010108948	0.011062622	-0.521972656	1.028076172	-0.388427734	888.5	-88.21241935	3.592466542	141.4821539	-75
30149	0	-0.030395508	-0.391052246	0.015441895	0.999999046	-0.000240326	-0.000243187	8.7738E-05	-0.759887695	-9.776306152	0.386047363	-0.012016297	-0.012159348	0.004386902	-0.51953125	1.028076172	-0.388427734	888.48	-88.24143927	3.59176623	141.4968701	-75
30150	0	-0.02844429	-0.392274857	0.013191223	0.999999046	-6.29425E-05	-0.000131607	3.71933E-05	-0.711107254	-9.806871414	0.329780579	-0.003147125	-0.006580353	0.001859665	-0.519287109	1.025878906	-0.388427734	888.56	-88.25096908	3.585668971	141.4986151	-75
30151	0	-0.028198242	-0.391662598	0.014099121	0.999999046	0.000171661	-0.00026226	7.62939E-05	-0.704956055	-9.791564941	0.352478027	0.008583069	-0.013113022	0.003814697	-0.51953125	1.028076172	-0.385742188	888.56	-88.23267344	3.583583871	141.5155224	-75
30152	0	-0.027395248	-0.390372276	0.015467644	0.999999046	4.1008E-05	-0.000217438	4.57764E-05	-0.68488121	-9.759306908	0.386691093	0.0020504	-0.010871887	0.002288818	-0.521972656	1.028076172	-0.388427734	888.68	-88.2296583	3.578138499	141.5271448	-75
30153	0	-0.028442383	-0.391601563	0.013916016	0.999999046	-0.000278473	-0.000105858	3.43323E-05	-0.71105957	-9.790039063	0.347900391	-0.013923645	-0.005292893	0.001716614	-0.521972656	1.025878906	-0.385498047	888.54	-88.26406582	3.571775969	141.5259487	-75
30154	0	-0.028345108	-0.39191246	0.012665749	0.999999046	-4.00543E-05	-0.000165939	3.71933E-05	-0.708627701	-9.797811508	0.316643715	-0.002002716	-0.008296967	0.001859665	-0.521972656	1.028076172	-0.385742188	888.56	-88.27075237	3.565530544	141.5316402	-74
30155	0	-0.028625488	-0.390930176	0.013671875	0.999999046	0.000137329	-0.000273705	0.0001297	-0.715637207	-9.773254395	0.341796875	0.006866455	-0.013685227	0.006484985	-0.521972656	1.030517578	-0.385986328	888.62	-88.25633133	3.569511001	141.5500209	-75
30156	0	-0.028719902	-0.391469002	0.013489723	0.999999046	4.48227E-05	-0.000232697	9.53674E-05	-0.717997551	-9.786725044	0.33724308	0.002241135	-0.011634827	0.004768372	-0.521972656	1.028076172	-0.385742188	888.5	-88.2528242	3.569704624	141.5635742	-75
30157	0	-0.028747559	-0.390808105	0.013305664	0.999999046	9.91821E-05	-0.000128746	0.000141144	-0.718688965	-9.770202637	0.332641602	0.004959106	-0.006437302	0.00705719	-0.519287109	1.025878906	-0.391113281	888.62	-88.24383806	3.575510742	141.5652983	-75
30158	0	-0.028060913	-0.390980721	0.014060974	0.999999046	2.09808E-05	-0.000106812	0.000114441	-0.701522827	-9.774518013	0.351524353	0.001049042	-0.005340576	0.005722046	-0.51953125	1.028076172	-0.385742188	888.62	-88.24398104	3.578328778	141.5645132	-75
30159	0	-0.028503418	-0.390991211	0.015686035	0.999999046	-7.24792E-05	-9.05991E-05	0.000118256	-0.712585449	-9.774780273	0.392150879	-0.003623962	-0.004529953	0.005912781	-0.521972656	1.028076172	-0.388427734	888.44	-88.25492358	3.581641607	141.561835	-75
30160	0	-0.028227806	-0.391597748	0.013802528	0.999999046	-7.72476E-05	-8.39233E-05	4.57764E-05	-0.705695152	-9.789943695	0.34506321	-0.003862381	-0.004196167	0.002288818	-0.524414063	1.025878906	-0.385253906	888.56	-88.26648549	3.576670648	141.5581802	-74
30161	0	-0.028015137	-0.391784668	0.012817383	0.999999046	-8.7738E-05	-0.000235558	0.0001297	-0.700378418	-9.794616699	0.32043457	-0.004386902	-0.011777878	0.006484985	-0.521972656	1.028076172	-0.388427734	888.62	-88.27817047	3.580778758	141.5721428	-74
30162	0	-0.028476715	-0.391596794	0.013554573	1	1.04904E-05	-5.81741E-05	2.95639E-05	-0.711917877	-9.789919853	0.338864326	0.000524521	-0.002908707	0.001478195	-0.521972656	1.028076172	-0.385742188	888.6	-88.27990136	3.574029339	141.5654599	-75
30163	0	-0.028259277	-0.391296387	0.013793945	0.999999046	-5.72205E-05	-0.000113487	0	-0.706481934	-9.782409668	0.344848633	-0.002861023	-0.005674362	0	-0.51953125	1.025878906	-0.385742188	888.68	-88.2890068	3.563700522	141.5649893	-74
30164	0	-0.028622627	-0.390932083	0.014304161	0.999999046	-0.000124931	-0.000131607	0.000183105	-0.715565681	-9.773302078	0.357604027	-0.006246567	-0.006580353	0.009155274	-0.521972656	1.025878906	-0.385498047	888.56	-88.30569684	3.574288686	141.5672548	-75
30165	0	-0.02935791	-0.391357422	0.014221191	0.999999046	4.19617E-05	-7.9155E-05	7.62939E-05	-0.733947754	-9.783935547	0.355529785	0.002098084	-0.003957748	0.003814697	-0.521972656	1.030517578	-0.385986328	888.62	-88.30365393	3.572838083	141.5631263	-74
30166	0	-0.029904366	-0.391168594	0.014807701	0.999999046	-7.62939E-06	-0.0001297	0.000137329	-0.747609138	-9.779214859	0.370192528	-0.00038147	-0.006484985	0.006866455	-0.51953125	1.025878906	-0.385742188	888.62	-88.30690235	3.578235	141.5649927	-74
30167	0	-0.02746582	-0.391662598	0.013549805	0.999999046	2.67029E-05	-0.000117302	6.86646E-05	-0.686645508	-9.791564941	0.338745117	0.001335144	-0.005865097	0.003433228	-0.521972656	1.028076172	-0.383056641	888.62	-88.30632665	3.57578974	141.5652551	-74
30168	0	-0.028492928	-0.391170502	0.014614105	0.999999046	-1.81198E-05	-8.39233E-05	0.000190735	-0.712323189	-9.779262543	0.365352631	-0.000905991	-0.004196167	0.009536743	-0.521972656	1.028076172	-0.385742188	888.6	-88.31108726	3.587440455	141.5620454	-74
30169	0	-0.028991699	-0.390869141	0.014709473	0.999999046	-0.000125885	-0.000170708	6.48499E-05	-0.72479248	-9.771728516	0.367736816	-0.006294251	-0.008535385	0.003242493	-0.51953125	1.028076172	-0.385742188	888.6	-88.32758483	3.584388749	141.5683712	-74
30170	0	-0.028122902	-0.391845703	0.012849808	0.999999046	-0.000106812	-5.91278E-05	7.24792E-05	-0.703072548	-9.796142578	0.321245193	-0.005340576	-0.00295639	0.003623962	-0.51953125	1.028076172	-0.385742188	888.54	-88.34271346	3.582576245	141.5619342	-74
30171	0	-0.028747559	-0.391174316	0.013549805	0.999999046	0.0001297	-7.15256E-05	6.86646E-05	-0.718688965	-9.77935791	0.338745117	0.006484985	-0.003576279	0.003433228	-0.51953125	1.028076172	-0.388427734	888.56	-88.33065396	3.580290481	141.5568853	-74
30172	0	-0.028372765	-0.390252113	0.01414299	0.999999046	0.000124931	-0.000160217	0.000137329	-0.709319115	-9.756302834	0.353574753	0.006246567	-0.008010864	0.006866455	-0.517089844	1.028076172	-0.385986328	888.54	-88.31848254	3.585572954	141.5622807	-74
30173	0	-0.028808594	-0.391052246	0.013000488	0.999999046	-0.000217438	-0.000197411	4.95911E-05	-0.720214844	-9.776306152	0.325012207	-0.010871887	-0.009870529	0.002479553	-0.521972656	1.028076172	-0.385742188	888.62	-88.34531018	3.580687678	141.5716745	-74
30174	0	-0.027744293	-0.391482353	0.012290955	1	5.43594E-05	-2.00272E-05	1.04904E-05	-0.69360733	-9.78705883	0.307273865	0.002717972	-0.001001358	0.000524521	-0.521972656	1.028076172	-0.383056641	888.62	-88.34229648	3.571899061	141.5605829	-74
30175	0	-0.028015137	-0.390686035	0.014465332	0.999999046	6.48499E-05	-0.000166893	0.0001297	-0.700378418	-9.767150879	0.361633301	0.003242493	-0.00834465	0.006484985	-0.519287109	1.025878906	-0.388427734	888.6	-88.33698885	3.576271376	141.5666205	-74
30176	0	-0.028478622	-0.391287804	0.013976097	0.999999046	-9.53674E-07	-0.000205994	0.000114441	-0.711965561	-9.782195091	0.349402428	-4.76837E-05	-0.010299683	0.005722046	-0.521972656	1.028076172	-0.388427734	888.56	-88.33893857	3.578766365	141.5771954	-74
30177	0	-0.028564453	-0.391479492	0.013549805	0.999999046	0.000137329	-0.000159264	5.34058E-05	-0.714111328	-9.786987305	0.338745117	0.006866455	-0.007963181	0.002670288	-0.521972656	1.028076172	-0.385742188	888.54	-88.32539159	3.574426544	141.5822308	-74
30178	0	-0.028053284	-0.391046524	0.013482094	0.999999046	7.24792E-05	-0.000282288	0.000106812	-0.701332092	-9.776163101	0.337052345	0.003623962	-0.01411438	0.005340576	-0.51953125	1.028076172	-0.388427734	888.54	-88.31838854	3.575782835	141.6014656	-74
30179	0	-0.027954102	-0.390869141	0.015136719	0.999999046	1.90735E-05	-6.00815E-05	5.72205E-05	-0.698852539	-9.771728516	0.378417969	0.000953674	-0.003004074	0.002861023	-0.521972656	1.028076172	-0.385742188	888.5	-88.31908042	3.572196443	141.5951463	-74
30180	0	-0.028181076	-0.39111042	0.014300346	0.999999046	-0.00017643	-0.000110626	0	-0.704526901	-9.777760506	0.357508659	-0.008821487	-0.005531311	0	-0.521972656	1.028076172	-0.385742188	888.62	-88.34181666	3.56188196	141.5943844	-74
30181	0	-0.028259277	-0.391601563	0.013000488	0.999999046	-3.43323E-05	-0.000102043	9.15527E-05	-0.706481934	-9.790039063	0.325012207	-0.001716614	-0.005102158	0.004577637	-0.51953125	1.028076172	-0.383056641	888.5	-88.34832476	3.562081005	141.5929582	-74
30182	0	-0.028634071	-0.390865326	0.014443398	0.999999046	9.72748E-05	-0.000120163	5.62668E-05	-0.715851784	-9.771633148	0.361084938	0.004863739	-0.006008148	0.002813339	-0.51953125	1.028076172	-0.388427734	888.56	-88.33961411	3.558184383	141.5933995	-73
30183	0	-0.028076172	-0.390808105	0.013916016	0.999999046	9.15527E-05	-0.00014019	5.34058E-05	-0.701904297	-9.770202637	0.347900391	0.004577637	-0.007009506	0.002670288	-0.521972656	1.028076172	-0.388427734	888.58	-88.33141295	3.553889891	141.5962259	-73
30184	0	-0.027931213	-0.390803337	0.014178276	0.999999046	-2.19345E-05	-0.000144958	0.000190735	-0.698280334	-9.770083427	0.354456902	-0.001096725	-0.007247925	0.009536743	-0.521972656	1.028076172	-0.385742188	888.6	-88.33614552	3.565303774	141.6000924	-73
30185	0	-0.029296875	-0.391418457	0.013183594	0.999999046	7.24792E-05	-1.81198E-05	4.95911E-05	-0.732421875	-9.785461426	0.329589844	0.003623962	-0.000905991	0.002479553	-0.521972656	1.028076172	-0.388427734	888.56	-88.33100325	3.56099094	141.5888459	-73
30186	0	-0.028420448	-0.390925407	0.014400482	0.999999046	-9.34601E-05	-0.000148773	0.000118256	-0.710511208	-9.773135185	0.360012054	-0.004673004	-0.00743866	0.005912781	-0.521972656	1.028076172	-0.385742188	888.6	-88.34391829	3.564110552	141.5928992	-74
30187	0	-0.026611328	-0.390991211	0.013000488	0.999999046	0.000175476	-0.000212669	5.34058E-05	-0.665283203	-9.774780273	0.325012207	0.008773804	-0.010633469	0.002670288	-0.522216797	1.030517578	-0.383056641	888.6	-88.32558542	3.559556791	141.6040911	-74
30188	0	-0.028783798	-0.390800476	0.014186859	0.999999046	2.76566E-05	-0.000144958	0.000228882	-0.719594955	-9.770011902	0.354671478	0.001382828	-0.007247925	0.011444092	-0.524414063	1.028076172	-0.385498047	888.62	-88.32462895	3.575336767	141.6080314	-74
30189	0	-0.028564453	-0.390808105	0.013183594	0.999999046	-0.00019455	-1.81198E-05	2.67029E-05	-0.714111328	-9.770202637	0.329589844	-0.009727478	-0.000905991	0.001335144	-0.521972656	1.028076172	-0.385742188	888.56	-88.35009582	3.568384619	141.5967033	-74
30190	0	-0.028158188	-0.392093658	0.012787819	0.999999046	0.000123978	-0.000242233	-2.38419E-05	-0.703954697	-9.802341461	0.319695473	0.006198883	-0.012111664	-0.001192093	-0.51953125	1.028076172	-0.385742188	888.56	-88.33748859	3.554894606	141.6109283	-74
30191	0	-0.027587891	-0.390991211	0.01373291	0.999999046	0.000160217	-0.000239372	0.000114441	-0.689697266	-9.774780273	0.343322754	0.008010864	-0.011968613	0.005722046	-0.521972656	1.028076172	-0.385742188	888.54	-88.32072002	3.557237166	141.6253538	-74
30192	0	-0.028647423	-0.39073658	0.015336037	0.999999046	-6.58035E-05	-0.000114441	1.90735E-05	-0.71618557	-9.768414497	0.383400917	-0.003290176	-0.005722046	0.000953674	-0.51953125	1.028076172	-0.383056641	888.54	-88.33073123	3.549080878	141.6251193	-74
30193	0	-0.028747559	-0.391662598	0.013183594	0.999999046	-8.7738E-05	-7.53403E-05	9.15527E-05	-0.718688965	-9.791564941	0.329589844	-0.004386902	-0.003767014	0.004577637	-0.521972656	1.028076172	-0.385742188	888.56	-88.34352983	3.549365993	141.620595	-74
30194	0	-0.02857399	-0.391964912	0.012630463	0.999999046	0.000230789	-0.000116348	4.48227E-05	-0.714349747	-9.79912281	0.315761566	0.011539459	-0.005817413	0.002241135	-0.522216797	1.030517578	-0.383056641	888.66	-88.31956644	3.544168207	141.620711	-74
30195	0	-0.028137207	-0.390625	0.013793945	0.999999046	6.86646E-05	-0.000151634	0.000110626	-0.703430176	-9.765625	0.344848633	0.003433228	-0.007581711	0.005531311	-0.521972656	1.028076172	-0.385742188	888.54	-88.31391685	3.546388258	141.624974	-74
30196	0	-0.028830528	-0.391227722	0.013001442	0.999999046	-5.24521E-05	-0.000125885	0.000148773	-0.720763206	-9.780693054	0.325036049	-0.002622604	-0.006294251	0.00743866	-0.521972656	1.028076172	-0.385742188	888.62	-88.3223367	3.553076067	141.6264489	-74
30197	0	-0.029174805	-0.39074707	0.014038086	0.999999046	1.52588E-05	-9.82285E-05	7.62939E-05	-0.729370117	-9.768676758	0.350952148	0.000762939	-0.004911423	0.003814697	-0.521972656	1.028076172	-0.383056641	888.6	-88.32320423	3.551572533	141.6245828	-74
30198	0	-0.028560638	-0.390987396	0.013872147	0.999999046	0.000131607	-0.000123978	2.95639E-05	-0.714015961	-9.774684906	0.346803665	0.006580353	-0.006198883	0.001478195	-0.51953125	1.028076172	-0.383056641	888.6	-88.31056402	3.544635562	141.6254286	-74
30199	0	-0.028381348	-0.391296387	0.012878418	0.999999046	-4.95911E-05	-8.29697E-05	0.000152588	-0.709533691	-9.782409668	0.321960449	-0.002479553	-0.004148483	0.007629395	-0.521972656	1.025878906	-0.3828125	888.48	-88.31897195	3.55193128	141.6220437	-74
30200	0	-0.027705193	-0.391350746	0.013149261	0.999999046	-9.25064E-05	-2.67029E-05	2.67029E-05	-0.692629814	-9.783768654	0.328731537	-0.00462532	-0.001335144	0.001335144	-0.521972656	1.028076172	-0.388427734	888.56	-88.3327358	3.544984512	141.6115903	-74
30201	0	-0.028442383	-0.391418457	0.013916016	0.999999046	5.34058E-05	-9.05991E-05	8.01086E-05	-0.71105957	-9.785461426	0.347900391	0.002670288	-0.004529953	0.004005432	-0.51953125	1.030273438	-0.385986328	888.6	-88.32931083	3.543945392	141.608793	-74
30202	0	-0.027647972	-0.391107559	0.014267921	0.999999046	1.71661E-05	-6.67572E-05	-1.14441E-05	-0.691199303	-9.77768898	0.356698036	0.000858307	-0.00333786	-0.000572205	-0.51953125	1.028076172	-0.385742188	888.56	-88.33021597	3.532488998	141.6029588	-75
30203	0	-0.027893066	-0.390869141	0.014953613	0.999999046	7.62939E-06	-0.00014019	0.000167847	-0.69732666	-9.771728516	0.373840332	0.00038147	-0.007009506	0.008392334	-0.51953125	1.028076172	-0.385742188	888.56	-88.33163363	3.541319961	141.6061558	-75
30204	0	-0.027898788	-0.390555382	0.013807297	0.999999046	-4.29153E-05	-0.000183105	8.39233E-05	-0.697469711	-9.763884544	0.345182419	-0.002145767	-0.009155274	0.004196167	-0.521972656	1.028076172	-0.385742188	888.54	-88.33855398	3.540390698	141.6140418	-75
30205	0	-0.027893066	-0.391479492	0.014587402	0.999999046	-2.67029E-05	-0.000102043	7.62939E-05	-0.69732666	-9.786987305	0.364685059	-0.001335144	-0.005102158	0.003814697	-0.521972656	1.028076172	-0.385742188	888.6	-88.34417543	3.538851456	141.6125665	-75
30206	0	-0.029232025	-0.390683174	0.014694214	0.999999046	9.53674E-06	-0.000139236	-1.62125E-05	-0.730800629	-9.767079353	0.367355347	0.000476837	-0.006961823	-0.000810623	-0.524414063	1.028320313	-0.3828125	888.64	-88.34538029	3.526613925	141.6151938	-75
30207	0	-0.027954102	-0.391479492	0.013671875	0.999999046	-3.8147E-05	-0.000174522	4.19617E-05	-0.698852539	-9.786987305	0.341796875	-0.001907349	-0.00872612	0.002098084	-0.521972656	1.028076172	-0.385742188	888.54	-88.35178809	3.520919767	141.6217911	-75
30208	0	-0.027616501	-0.390868187	0.013162613	0.999999046	0.000164986	-0.000234604	0.000243187	-0.690412521	-9.771704674	0.329065323	0.008249283	-0.011730194	0.012159348	-0.521972656	1.028076172	-0.388427734	888.52	-88.33446	3.538066906	141.6359525	-75
30209	0	-0.02947998	-0.390563965	0.01361084	0.999999046	-9.53674E-05	-0.000159264	0.00012207	-0.736999512	-9.764099121	0.340270996	-0.004768372	-0.007963181	0.006103516	-0.524414063	1.028076172	-0.385498047	888.6	-88.34752397	3.541615917	141.6413129	-74
30210	0	-0.028351784	-0.391353607	0.012324333	0.999999046	-0.000150681	-0.000144958	-1.14441E-05	-0.708794594	-9.783840179	0.30810833	-0.007534027	-0.007247925	-0.000572205	-0.521972656	1.028076172	-0.385742188	888.6	-88.36707926	3.529921963	141.6444116	-75
30211	0	-0.027832031	-0.391418457	0.012756348	0.999999046	0.000164032	-0.000136375	0.000141144	-0.695800781	-9.785461426	0.318908691	0.008201599	-0.006818771	0.00705719	-0.522216797	1.028320313	-0.380371094	888.62	-88.35061517	3.53572925	141.6472937	-75
30212	0	-0.028916359	-0.390857697	0.012708664	1	3.62396E-05	-2.76566E-05	-4.29153E-05	-0.722908974	-9.771442413	0.317716599	0.001811981	-0.001382828	-0.002145767	-0.521972656	1.028076172	-0.385742188	888.62	-88.34961637	3.520825766	141.6367201	-74
30213	0	-0.02923584	-0.39074707	0.013916016	0.999999046	-0.000270844	-0.000121117	3.8147E-06	-0.730895996	-9.768676758	0.347900391	-0.013542175	-0.006055832	0.000190735	-0.521972656	1.028076172	-0.385742188	888.54	-88.38313102	3.510989325	141.6371068	-74
30214	0	-0.028198242	-0.391487122	0.012611389	0.999999046	-6.48499E-05	-0.000104904	3.71933E-05	-0.704956055	-9.78717804	0.315284729	-0.003242493	-0.005245209	0.001859665	-0.51953125	1.028076172	-0.383056641	888.64	-88.39316187	3.505031873	141.6358364	-74
30215	0	-0.028747559	-0.391174316	0.012695313	0.999999046	8.01086E-05	-0.000220299	2.67029E-05	-0.718688965	-9.77935791	0.317382813	0.004005432	-0.011014938	0.001335144	-0.524414063	1.028076172	-0.385498047	888.62	-88.38578522	3.49751524	141.6477979	-74
30216	0	-0.028076172	-0.39074707	0.013916016	0.999999046	1.62125E-05	-4.95911E-05	0.000171661	-0.701904297	-9.768676758	0.347900391	0.000810623	-0.002479553	0.008583069	-0.521972656	1.028076172	-0.385742188	888.62	-88.38688674	3.50715593	141.6405386	-74
30217	0	-0.028991699	-0.391479492	0.01385498	0.999999046	7.62939E-06	-0.000144005	0.000106812	-0.72479248	-9.786987305	0.346374512	0.00038147	-0.007200241	0.005340576	-0.51953125	1.028076172	-0.383056641	888.6	-88.38831287	3.509082016	141.6439992	-74
30218	0	-0.028400421	-0.390985489	0.013196945	0.999999046	5.91278E-05	-0.000162125	-3.14713E-05	-0.710010529	-9.774637222	0.32992363	0.00295639	-0.008106232	-0.001573563	-0.521972656	1.028076172	-0.385742188	888.56	-88.38373994	3.495116354	141.6490134	-74
30219	0	-0.028320313	-0.39074707	0.013549805	0.999999046	0.000125885	-0.000163078	8.7738E-05	-0.708007813	-9.768676758	0.338745117	0.006294251	-0.008153915	0.004386902	-0.521972656	1.028076172	-0.385742188	888.62	-88.37148334	3.494809117	141.6545627	-74
30220	0	-0.027347565	-0.39037323	0.013839722	0.999999046	-0.000155449	-7.24792E-05	4.19617E-05	-0.683689117	-9.75933075	0.345993042	-0.007772446	-0.003623962	0.002098084	-0.524658203	1.030517578	-0.383056641	888.62	-88.39210024	3.489542142	141.6497972	-74
30221	0	-0.028137207	-0.391296387	0.01348877	0.999999046	-9.53674E-05	-8.67844E-05	9.53674E-05	-0.703430176	-9.782409668	0.337219238	-0.004768372	-0.004339218	0.004768372	-0.51953125	1.025878906	-0.383056641	888.5	-88.40571786	3.490348747	141.6465001	-74
30222	0	-0.028209686	-0.390927315	0.012990952	0.999999046	0.000104904	-0.000143051	0.000105858	-0.705242157	-9.773182869	0.324773788	0.005245209	-0.007152557	0.005292892	-0.522216797	1.030517578	-0.383056641	888.54	-88.3959951	3.492183252	141.6498982	-74
30223	0	-0.028137207	-0.391113281	0.013916016	0.999999046	-6.10352E-05	-6.00815E-05	1.52588E-05	-0.703430176	-9.777832031	0.347900391	-0.003051758	-0.003004074	0.000762939	-0.521972656	1.028076172	-0.385742188	888.62	-88.40587236	3.4839086	141.6432594	-74
