Counter	Temperature	VelInc_X	VelInc_Y	VelInc_Z	OriInc_w	OriInc_x	OriInc_y	OriInc_z	Acc_X	Acc_Y	Acc_Z	Gyr_X	Gyr_Y	Gyr_Z	Mag_X	Mag_Y	Mag_Z	Pressure	Roll	Pitch	Yaw	RSSI
9083	0	0.366394043	-0.108459473	0.081970215	0.999999046	0.000110626	-7.53403E-05	-3.43323E-05	9.159851074	-2.711486816	2.049255371	0.005531311	-0.003767014	-0.001716614	-0.833251953	0.475097656	0.474365234	882.3	-53.36980688	-69.00314758	-102.3853044	-57
9084	0	0.367329597	-0.111895561	0.081877708	0.999999046	-0.000206947	-0.000116348	-0.000137329	9.183239937	-2.79738903	2.046942711	-0.010347366	-0.005817413	-0.006866455	-0.833251953	0.475097656	0.474365234	882.32	-53.35131077	-69.02810886	-102.4355441	-57
9085	0	0.3671875	-0.110961914	0.07989502	0.999999046	0.00030899	-0.000227928	1.14441E-05	9.1796875	-2.774047852	1.997375488	0.015449524	-0.011396408	0.000572205	-0.835693359	0.475341797	0.474365234	882.26	-53.32707672	-69.0470566	-102.4299679	-57
9086	0	0.366732597	-0.107503891	0.079304695	0.999999046	0.000156403	-0.000259399	0.000190735	9.168314934	-2.687597275	1.982617378	0.00782013	-0.012969971	0.009536743	-0.833251953	0.475097656	0.471679688	882.3	-53.35994813	-69.05175713	-102.379534	-57
9087	0	0.364257813	-0.107116699	0.080200195	0.999999046	-0.000244141	3.14713E-05	0.000202179	9.106445313	-2.67791748	2.005004883	-0.012207031	0.001573563	0.010108948	-0.833251953	0.475097656	0.471679688	882.3	-53.37089005	-69.03556988	-102.4014757	-57
9088	0	0.36762619	-0.108830452	0.078520775	0.999999046	-0.000496864	-0.000144958	0.000273705	9.190654755	-2.720761299	1.963019371	-0.024843217	-0.007247925	0.013685227	-0.833496094	0.477539063	0.474121094	882.36	-53.46595042	-69.0249347	-102.3611955	-57
9089	0	0.368347168	-0.110229492	0.07989502	0.999999046	0.000114441	-0.000296593	-0.000183105	9.208679199	-2.755737305	1.997375488	0.005722046	-0.014829636	-0.009155274	-0.830810547	0.475097656	0.474121094	882.2	-53.446109	-69.06674166	-102.370555	-57
9090	0	0.365505219	-0.108429909	0.081105232	0.999999046	0.000228882	-0.000442505	-0.000187874	9.137630463	-2.710747719	2.027630806	0.011444092	-0.022125245	-0.009393692	-0.833251953	0.475097656	0.474365234	882.3	-53.44739101	-69.11898131	-102.3443518	-57
9091	0	0.365722656	-0.10760498	0.082519531	0.999999046	-0.00030899	-0.000185966	8.7738E-05	9.143066406	-2.690124512	2.062988281	-0.015449524	-0.009298325	0.004386902	-0.833251953	0.475097656	0.474365234	882.26	-53.49763348	-69.12836749	-102.3308109	-57
9092	0	0.365306854	-0.108696938	0.082559586	0.999999046	-0.000590324	-0.000152588	0.000152588	9.132671356	-2.717423439	2.063989639	-0.029516222	-0.007629395	0.007629395	-0.833251953	0.472900391	0.474365234	882.36	-53.58357898	-69.12950695	-102.3162103	-57
9093	0	0.367553711	-0.111022949	0.082397461	0.999999046	-0.000137329	-0.000185966	-0.000106812	9.188842773	-2.77557373	2.059936523	-0.006866455	-0.009298325	-0.005340576	-0.835693359	0.472900391	0.474609375	882.24	-53.57936513	-69.1568242	-102.343101	-57
9094	0	0.367546082	-0.110539436	0.080215454	0.999999046	0.000112534	-0.000289917	-0.000245094	9.188652039	-2.763485909	2.005386353	0.005626679	-0.01449585	-0.012254715	-0.835693359	0.470703125	0.477539063	882.26	-53.54698156	-69.20397965	-102.3740542	-57
9095	0	0.365722656	-0.110900879	0.081970215	0.999999046	0.000114441	-0.000338554	-0.000102997	9.143066406	-2.772521973	2.049255371	0.005722046	-0.01692772	-0.005149841	-0.833251953	0.470703125	0.474609375	882.26	-53.55158224	-69.24132033	-102.3606764	-57
9096	0	0.365312576	-0.1112957	0.081930161	0.999999046	0.00017643	-0.00018692	7.9155E-05	9.132814407	-2.782392502	2.048254013	0.008821488	-0.009346008	0.003957748	-0.833251953	0.472900391	0.474365234	882.36	-53.54492764	-69.25150984	-102.3476231	-57
9097	0	0.366638184	-0.110961914	0.081665039	0.999999046	1.52588E-05	-0.000185966	-1.52588E-05	9.16595459	-2.774047852	2.041625977	0.000762939	-0.009298325	-0.000762939	-0.833251953	0.472900391	0.474365234	882.14	-53.53954633	-69.27031481	-102.3524597	-57
9098	0	0.367465019	-0.11198616	0.080431938	0.999999046	-2.28882E-05	-0.00012207	0.000179291	9.186625481	-2.799654007	2.010798454	-0.001144409	-0.006103516	0.008964539	-0.833496094	0.475097656	0.477050781	882.28	-53.55806025	-69.26681779	-102.334443	-57
9099	0	0.367004395	-0.110046387	0.080993652	0.999999046	0.000213623	4.76837E-06	0.000358582	9.175109863	-2.751159668	2.024841309	0.010681153	0.000238419	0.017929078	-0.835693359	0.472900391	0.477294922	882.3	-53.55086924	-69.23815987	-102.3223984	-57
9100	0	0.366254807	-0.107528687	0.081102371	0.999999046	-7.34329E-05	-4.19617E-05	0.000480652	9.156370163	-2.688217163	2.02755928	-0.003671646	-0.002098084	0.024032594	-0.833251953	0.472900391	0.474365234	882.38	-53.60967049	-69.2014545	-102.2723089	-57
9101	0	0.36730957	-0.109375	0.079040527	0.999999046	-0.000286102	-5.62668E-05	0.000434875	9.182739258	-2.734375	1.976013184	-0.014305115	-0.002813339	0.021743775	-0.833251953	0.472900391	0.474365234	882.32	-53.688005	-69.16996405	-102.2278647	-57
9102	0	0.367956161	-0.109313965	0.07972908	0.999999046	0.000349045	-0.000219345	0.000105858	9.198904037	-2.732849121	1.993227005	0.017452241	-0.010967255	0.005292893	-0.833251953	0.472900391	0.477050781	882.38	-53.67440257	-69.17995243	-102.2063794	-57
9103	0	0.366271973	-0.107666016	0.079711914	0.999999046	0.000247955	-0.000247002	0.00019455	9.156799316	-2.691650391	1.992797852	0.012397766	-0.012350083	0.009727478	-0.833251953	0.472900391	0.474365234	882.24	-53.69491168	-69.18367817	-102.1596545	-57
9104	0	0.366574287	-0.107341766	0.080071449	0.999999046	-0.000132561	-0.000133514	0.00043869	9.164357185	-2.683544159	2.001786232	-0.006628037	-0.00667572	0.02193451	-0.833251953	0.475097656	0.474365234	882.3	-53.77487208	-69.15719122	-102.0924438	-57
9105	0	0.364929199	-0.106750488	0.079101563	0.999999046	-0.000473022	-6.77109E-05	0.000411987	9.12322998	-2.668762207	1.977539063	-0.023651125	-0.003385544	0.020599367	-0.833496094	0.475097656	0.477050781	882.32	-53.87290336	-69.12875074	-102.0496212	-57
9106	0	0.369123459	-0.107923508	0.079070091	0.999999046	-3.62396E-05	-0.00022316	0.000281334	9.228086472	-2.698087692	1.976752281	-0.001811981	-0.01115799	0.014066696	-0.830810547	0.475097656	0.474121094	882.36	-53.93532192	-69.12295737	-101.9876818	-57
9107	0	0.368225098	-0.108032227	0.080200195	0.999999046	0.000205994	-0.000128746	-0.000209808	9.205627441	-2.700805664	2.005004883	0.010299683	-0.006437302	-0.010490418	-0.833496094	0.475097656	0.477050781	882.24	-53.86001267	-69.1563221	-102.0467201	-57
9108	0	0.366215706	-0.108273506	0.080210686	0.999999046	8.58307E-06	-0.000188828	-8.7738E-05	9.155392647	-2.706837654	2.005267143	0.000429153	-0.009441376	-0.004386902	-0.833496094	0.475097656	0.477050781	882.32	-53.84341222	-69.18246999	-102.0661808	-56
9109	0	0.366638184	-0.109069824	0.080383301	0.999999046	-4.57764E-05	-0.000178337	-1.14441E-05	9.16595459	-2.726745605	2.00958252	-0.002288818	-0.008916855	-0.000572205	-0.831054688	0.475097656	0.479492188	882.3	-53.843992	-69.20086935	-102.0729822	-57
9110	0	0.366973877	-0.109130859	0.08079052	0.999999046	-2.86102E-05	-0.000141144	-0.000126839	9.174346924	-2.728271484	2.019762993	-0.001430511	-0.00705719	-0.006341934	-0.833251953	0.472900391	0.477050781	882.32	-53.81293	-69.22744228	-102.1148443	-57
9111	0	0.368164063	-0.109985352	0.081726074	0.999999046	-6.48499E-05	-0.000224113	-0.000152588	9.204101563	-2.749633789	2.043151855	-0.003242493	-0.011205673	-0.007629395	-0.830810547	0.472900391	0.474365234	882.32	-53.8014992	-69.26200197	-102.1348596	-57
9112	0	0.367623329	-0.110372543	0.080386162	0.999999046	0.000271797	-0.000156403	0.00014782	9.190583229	-2.759313583	2.009654045	0.013589859	-0.00782013	0.007390976	-0.833251953	0.472900391	0.474365234	882.24	-53.78865535	-69.26419804	-102.1178959	-57
9113	0	0.365844727	-0.108825684	0.081054688	0.999999046	3.8147E-05	-9.44138E-05	0.000106812	9.146118164	-2.72064209	2.026367188	0.001907349	-0.004720688	0.005340576	-0.833251953	0.470703125	0.477294922	882.24	-53.78009524	-69.26599158	-102.1315783	-57
9114	0	0.367667198	-0.110668182	0.080321312	0.999999046	-0.000169754	-0.000297546	7.62939E-05	9.191679955	-2.766704559	2.008032799	-0.008487702	-0.01487732	0.003814697	-0.830810547	0.472900391	0.477050781	882.32	-53.83954203	-69.2843467	-102.0903435	-57
9115	0	0.368713379	-0.11138916	0.081298828	0.999999046	0.000469208	-0.000136375	-0.000305176	9.217834473	-2.784729004	2.032470703	0.023460389	-0.006818772	-0.01525879	-0.833251953	0.472900391	0.477050781	882.26	-53.71799543	-69.32704004	-102.1656865	-57
9116	0	0.366116524	-0.109807968	0.081178665	0.999999046	0.000466347	-0.000213623	-3.8147E-05	9.152913094	-2.745199203	2.029466629	0.023317338	-0.010681153	-0.001907349	-0.833251953	0.470703125	0.477294922	882.36	-53.66345451	-69.35025573	-102.174997	-57
9117	0	0.366699219	-0.108886719	0.080932617	0.999999046	2.28882E-05	1.62125E-05	0.000377655	9.167480469	-2.722167969	2.02331543	0.001144409	0.000810623	0.018882752	-0.833251953	0.472900391	0.477050781	882.26	-53.67824426	-69.31947808	-102.1606756	-57
9118	0	0.365027428	-0.108182907	0.081192017	0.999999046	-0.000293732	0.000343323	0.000494957	9.125685692	-2.704572678	2.029800415	-0.014686586	0.017166139	0.02474785	-0.833251953	0.470703125	0.477294922	882.3	-53.67043039	-69.25566365	-102.2150162	-56
9119	0	0.368408203	-0.109680176	0.079711914	0.999999046	0.000114441	3.52859E-05	0.000431061	9.210205078	-2.742004395	1.992797852	0.005722046	0.001764298	0.02155304	-0.833251953	0.475097656	0.474365234	882.36	-53.67952626	-69.21867838	-102.1911849	-57
9120	0	0.368247986	-0.108210564	0.078723907	0.999999046	0.000281334	-2.47955E-05	5.72205E-05	9.206199646	-2.705264091	1.968097687	0.014066696	-0.001239777	0.002861023	-0.833251953	0.472900391	0.474365234	882.36	-53.61729454	-69.22033629	-102.2284454	-57
9121	0	0.366027832	-0.108886719	0.079345703	0.999999046	0.000106812	-6.00815E-05	0.000221252	9.150695801	-2.722167969	1.983642578	0.005340576	-0.003004074	0.011062622	-0.833496094	0.475097656	0.477050781	882.26	-53.61305305	-69.20927713	-102.2231613	-57
9122	0	0.365683556	-0.109214783	0.07968998	0.999999046	0.000333786	-0.000242233	0.000190735	9.14208889	-2.730369568	1.992249489	0.016689301	-0.012111664	0.009536743	-0.833251953	0.475097656	0.474365234	882.18	-53.62163589	-69.21342924	-102.1752176	-57
9123	0	0.366088867	-0.107177734	0.080688477	0.999999046	0.000221252	-0.000102043	1.90735E-05	9.15222168	-2.679443359	2.017211914	0.011062622	-0.005102158	0.000953674	-0.833251953	0.475097656	0.474365234	882.32	-53.57822818	-69.2239213	-102.1967851	-57
9124	0	0.367444038	-0.108621597	0.080477715	0.999999046	8.29697E-05	-0.000183105	2.28882E-05	9.18610096	-2.715539932	2.011942863	0.004148483	-0.009155273	0.001144409	-0.833251953	0.475097656	0.474365234	882.3	-53.57102223	-69.23959742	-102.1962866	-57
9125	0	0.3671875	-0.108398438	0.079162598	0.999999046	0.000255585	-0.000285149	3.8147E-05	9.1796875	-2.709960938	1.979064941	0.012779236	-0.014257431	0.001907349	-0.833251953	0.472900391	0.474365234	882.26	-53.57167324	-69.26084774	-102.1712499	-57
9126	0	0.36588192	-0.106921196	0.080594063	0.999999046	8.39233E-05	-0.000301361	0.000102997	9.147047997	-2.6730299	2.01485157	0.004196167	-0.015068054	0.005149841	-0.830810547	0.472900391	0.474365234	882.38	-53.60756551	-69.2772476	-102.1273568	-57
9127	0	0.366088867	-0.108459473	0.078979492	0.999999046	-4.19617E-05	-0.000296593	-2.28882E-05	9.15222168	-2.711486816	1.974487305	-0.002098084	-0.014829636	-0.001144409	-0.833251953	0.475097656	0.474365234	882.36	-53.63418462	-69.30495317	-102.1050334	-57
9128	0	0.368461609	-0.11015892	0.081314087	0.999999046	0.000426292	-0.000286102	-0.000321388	9.211540222	-2.753973007	2.032852173	0.021314622	-0.014305116	-0.016069413	-0.831054688	0.475097656	0.476806641	882.3	-53.55075591	-69.35946584	-102.1421308	-57
9129	0	0.366516113	-0.109802246	0.080932617	0.999999046	0.00030899	-0.000247002	-0.000377655	9.162902832	-2.745056152	2.02331543	0.015449525	-0.012350083	-0.018882752	-0.833251953	0.472900391	0.477050781	882.2	-53.46070444	-69.41645271	-102.2061393	-57
9130	0	0.366577148	-0.108316422	0.081122398	0.999999046	-7.62939E-06	-0.000144958	0.000175476	9.164428711	-2.707910538	2.028059959	-0.00038147	-0.007247925	0.008773804	-0.830810547	0.475097656	0.474121094	882.26	-53.48211723	-69.41552179	-102.1806493	-57
9131	0	0.364807129	-0.109008789	0.081115723	0.999999046	-0.000247955	3.52859E-05	0.000156403	9.120178223	-2.725219727	2.027893066	-0.012397766	0.001764298	0.00782013	-0.835693359	0.472900391	0.477294922	882.24	-53.48345682	-69.40402569	-102.2171507	-57
9132	0	0.369099617	-0.111179352	0.081817627	0.999999046	0.000166893	-7.05719E-05	-6.19888E-05	9.227490425	-2.779483795	2.045440674	0.00834465	-0.003528595	-0.003099442	-0.835693359	0.472900391	0.474609375	882.3	-53.42355239	-69.41981271	-102.2656513	-57
9133	0	0.367126465	-0.108886719	0.079345703	0.999999046	0.00018692	-5.24521E-05	-0.000160217	9.178161621	-2.722167969	1.983642578	0.009346008	-0.002622604	-0.008010864	-0.833007813	0.470703125	0.471923828	882.36	-53.33898507	-69.44337887	-102.3377409	-57
9134	0	0.365704536	-0.109167099	0.080811501	0.999999046	0.000205994	-0.000202179	0.000328064	9.142613411	-2.729177475	2.020287514	0.010299683	-0.010108948	0.016403199	-0.833251953	0.472900391	0.474365234	882.36	-53.3779206	-69.43225194	-102.27409	-57
9135	0	0.366394043	-0.108093262	0.078857422	0.999999046	0.000152588	-0.000113487	0.00037384	9.159851074	-2.702331543	1.971435547	0.007629395	-0.005674362	0.018692017	-0.835693359	0.472900391	0.477294922	882.24	-53.40960669	-69.41085625	-102.2306232	-57
9136	0	0.367063522	-0.108038902	0.079660416	0.999999046	6.67572E-06	-9.34601E-05	-9.53674E-05	9.176588058	-2.700972557	1.991510391	0.000333786	-0.004673004	-0.004768372	-0.833251953	0.472900391	0.479736328	882.3	-53.36772273	-69.43126677	-102.2821758	-56
9137	0	0.368041992	-0.108886719	0.080627441	0.999999046	0.000160217	-0.000193596	0.000263214	9.201049805	-2.722167969	2.015686035	0.008010864	-0.009679795	0.013160706	-0.833251953	0.470703125	0.477294922	882.3	-53.3980993	-69.42553516	-102.2416348	-56
9138	0	0.366796494	-0.106552124	0.080823898	0.999999046	0.000164032	-0.000125885	0.00039196	9.169912338	-2.663803101	2.020597458	0.008201599	-0.006294251	0.019598008	-0.835693359	0.472900391	0.477294922	882.36	-53.4347425	-69.40334218	-102.1923862	-57
9139	0	0.366088867	-0.104736328	0.08215332	0.999999046	-0.000137329	5.05447E-05	0.000328064	9.15222168	-2.618408203	2.053833008	-0.006866455	0.002527237	0.016403199	-0.833251953	0.475097656	0.471679688	882.36	-53.45080563	-69.37500763	-102.1906611	-57
9140	0	0.367963791	-0.106098175	0.078803062	0.999999046	-0.000395775	3.8147E-05	0.000128746	9.199094772	-2.652454376	1.970076561	-0.019788743	0.001907349	0.006437302	-0.833251953	0.475097656	0.474365234	882.42	-53.46337595	-69.36593009	-102.2255012	-57
9141	0	0.369262695	-0.107421875	0.080749512	0.999999046	6.10352E-05	-5.62668E-05	-0.00025177	9.231567383	-2.685546875	2.018737793	0.003051758	-0.002813339	-0.012588501	-0.830810547	0.472900391	0.477050781	882.26	-53.37758446	-69.39833677	-102.3130508	-57
9142	0	0.36572361	-0.106312752	0.081086159	0.999999046	-0.000102997	-0.000181198	-0.000457764	9.143090248	-2.657818794	2.027153969	-0.005149842	-0.009059906	-0.022888185	-0.835693359	0.472900391	0.471923828	882.26	-53.30321412	-69.45819663	-102.4054245	-57
9143	0	0.366577148	-0.106750488	0.081298828	0.999999046	-0.000305176	-1.43051E-05	-0.000102997	9.164428711	-2.668762207	2.032470703	-0.015258789	-0.000715256	-0.005149841	-0.835693359	0.470703125	0.474853516	882.3	-53.27558763	-69.47400756	-102.4781157	-57
9144	0	0.365319252	-0.106664658	0.082076073	0.999999046	-0.000184059	-7.62939E-06	-0.000344276	9.1329813	-2.66661644	2.051901817	-0.009202957	-0.00038147	-0.017213822	-0.833251953	0.470703125	0.474609375	882.26	-53.18792929	-69.51146906	-102.5948518	-57
9145	0	0.36932373	-0.109313965	0.080688477	0.999999046	-0.000324249	4.76837E-06	-0.000396729	9.233093262	-2.732849121	2.017211914	-0.016212464	0.000238419	-0.019836427	-0.835693359	0.470703125	0.474853516	882.3	-53.10328982	-69.5528091	-102.7244652	-57
9146	0	0.366967201	-0.108282089	0.080864906	0.999999046	-4.76837E-05	1.52588E-05	-0.000312805	9.174180031	-2.707052231	2.021622658	-0.002384186	0.000762939	-0.015640259	-0.835449219	0.468505859	0.475097656	882.3	-52.99950171	-69.58564078	-102.8436606	-57
9147	0	0.366577148	-0.107727051	0.082214355	0.999999046	-0.0001297	-0.000128746	-1.90735E-05	9.164428711	-2.69317627	2.055358887	-0.006484985	-0.006437302	-0.000953674	-0.835449219	0.468505859	0.472412109	882.24	-52.99470541	-69.60144749	-102.8639311	-57
9148	0	0.365930557	-0.108100891	0.082029343	0.999999046	-0.000115395	4.57764E-05	-0.000183105	9.148263931	-2.702522278	2.050733566	-0.00576973	0.002288818	-0.009155274	-0.835449219	0.468505859	0.475097656	882.24	-52.91478869	-69.62015776	-102.9630688	-57
9149	0	0.366760254	-0.108642578	0.081237793	0.999999046	-0.000267029	4.29153E-05	-2.28882E-05	9.169006348	-2.716064453	2.030944824	-0.013351441	0.002145767	-0.001144409	-0.835693359	0.470703125	0.477539063	882.36	-52.88268264	-69.62434689	-103.0253505	-57
9150	0	0.368467331	-0.108547211	0.080355644	0.999999046	-0.000150681	0.000108719	0.000133514	9.211683273	-2.713680267	2.008891106	-0.007534027	0.005435944	0.00667572	-0.835449219	0.468505859	0.477783203	882.36	-52.85030241	-69.60966416	-103.0787467	-56
9151	0	0.366577148	-0.107177734	0.081237793	0.999999046	-4.57764E-05	-6.00815E-05	0.000240326	9.164428711	-2.679443359	2.030944824	-0.002288818	-0.003004074	0.012016297	-0.835449219	0.468505859	0.475097656	882.26	-52.8672889	-69.59688241	-103.0649859	-56
9152	0	0.366779327	-0.106629372	0.08118248	0.999999046	-8.58307E-06	-6.67572E-05	0.000166893	9.169483185	-2.665734291	2.029561996	-0.000429153	-0.00333786	0.00834465	-0.835449219	0.466308594	0.477783203	882.3	-52.86801234	-69.59126478	-103.071595	-56
9153	0	0.364624023	-0.104858398	0.080505371	0.999999046	-0.000144958	-0.000189781	0.000228882	9.115600586	-2.621459961	2.012634277	-0.007247925	-0.00948906	0.011444092	-0.837890625	0.466308594	0.475341797	882.2	-52.92604968	-69.58849911	-103.0337877	-55
9154	0	0.370891571	-0.109386444	0.082468033	0.999999046	0.000310898	-0.000246048	-0.000157356	9.272289276	-2.734661102	2.061700821	0.015544892	-0.012302399	-0.007867813	-0.837890625	0.466308594	0.475341797	882.32	-52.87391676	-69.62489172	-103.0571106	-55
9155	0	0.366882324	-0.106384277	0.080749512	0.999999046	0.000396729	-0.000201225	-0.000411987	9.172058105	-2.659606934	2.018737793	0.019836427	-0.010061265	-0.020599366	-0.837890625	0.468505859	0.477783203	882.26	-52.75313992	-69.68141235	-103.1382853	-55
9156	0	0.365904808	-0.106322289	0.083065987	0.999999046	-1.43051E-05	-0.000190735	0.000331879	9.147620201	-2.658057213	2.076649666	-0.000715256	-0.009536743	0.016593934	-0.837890625	0.466308594	0.475341797	882.36	-52.81582903	-69.66926979	-103.0781957	-55
9157	0	0.366271973	-0.106750488	0.082946777	0.999999046	2.28882E-05	-2.95639E-05	0.000347137	9.156799316	-2.668762207	2.073669434	0.001144409	-0.001478195	0.017356873	-0.837890625	0.468505859	0.475097656	882.24	-52.83724334	-69.64452026	-103.0531731	-55
9158	0	0.368338585	-0.107064247	0.080426216	0.999999046	-6.67572E-05	-5.34058E-05	0.000106812	9.208464622	-2.676606178	2.010655403	-0.00333786	-0.002670288	0.005340576	-0.837890625	0.466308594	0.478027344	882.42	-52.83000807	-69.6433678	-103.0769916	-56
9159	0	0.368835449	-0.10736084	0.078552246	0.999999046	0.000106812	-3.71933E-05	0.00012207	9.22088623	-2.684020996	1.963806152	0.005340576	-0.001859665	0.006103516	-0.837890625	0.466308594	0.475341797	882.3	-52.80187072	-69.63971727	-103.099865	-56
9160	0	0.365885735	-0.10602951	0.079828262	0.999999046	7.34329E-05	-3.8147E-05	0.000396729	9.147143364	-2.650737762	1.995706558	0.003671646	-0.001907349	0.019836426	-0.835449219	0.468505859	0.475097656	882.3	-52.82904195	-69.61106373	-103.0616072	-55
9161	0	0.366149902	-0.105957031	0.079650879	0.999999046	-6.48499E-05	-0.00014782	0.000274658	9.153747559	-2.648925781	1.991271973	-0.003242493	-0.007390976	0.01373291	-0.837890625	0.468505859	0.477783203	882.26	-52.87625978	-69.60115659	-103.0237536	-55
9162	0	0.367091179	-0.106352806	0.080015182	0.999999046	-5.72205E-06	-0.000196457	2.95639E-05	9.177279472	-2.658820152	2.000379562	-0.000286102	-0.009822846	0.001478195	-0.837890625	0.468505859	0.477783203	882.32	-52.88307829	-69.61701369	-103.0211304	-56
9163	0	0.368286133	-0.106689453	0.081054688	0.999999046	-1.52588E-05	-6.00815E-05	5.34058E-05	9.20715332	-2.667236328	2.026367188	-0.000762939	-0.003004074	0.002670288	-0.837890625	0.468505859	0.477783203	882.24	-52.86187746	-69.62126191	-103.0490917	-55
9164	0	0.367490768	-0.106243134	0.081494331	0.999999046	5.05447E-05	-0.00021553	0.000304222	9.187269211	-2.656078339	2.037358284	0.002527237	-0.01077652	0.015211106	-0.835449219	0.468505859	0.475097656	882.18	-52.91799788	-69.61333764	-102.9830522	-56
9165	0	0.36706543	-0.104553223	0.081787109	0.999999046	-9.15527E-05	-0.000189781	0.000160217	9.176635742	-2.613830566	2.044677734	-0.004577637	-0.00948906	0.008010864	-0.837890625	0.468505859	0.477783203	882.36	-52.95718253	-69.61680245	-102.9566613	-55
9166	0	0.367062569	-0.106334686	0.082298279	0.999999046	4.00543E-05	-0.000209808	-0.000100136	9.176564217	-2.658367157	2.05745697	0.002002716	-0.010490418	-0.00500679	-0.833007813	0.468505859	0.477539063	882.22	-52.93772266	-69.64544398	-102.9710463	-56
9167	0	0.368652344	-0.106140137	0.080993652	0.999999046	0.000183105	-0.000185966	9.91821E-05	9.216308594	-2.653503418	2.024841309	0.009155274	-0.009298325	0.004959107	-0.835449219	0.468505859	0.477783203	882.3	-52.93305982	-69.65422113	-102.955004	-55
9168	0	0.366341591	-0.104597092	0.081016541	0.999999046	-8.67844E-05	-0.000106812	0.000175476	9.158539772	-2.614927292	2.025413513	-0.004339218	-0.005340576	0.008773804	-0.837890625	0.468505859	0.475097656	882.36	-52.95394247	-69.65056888	-102.944665	-56
9169	0	0.369384766	-0.107666016	0.082946777	0.999999046	2.28882E-05	-0.000193596	-8.39233E-05	9.234619141	-2.691650391	2.073669434	0.001144409	-0.009679794	-0.004196167	-0.835449219	0.468505859	0.475097656	882.24	-52.93527449	-69.67660176	-102.9598908	-56
9170	0	0.367724419	-0.105831146	0.081525803	0.999999046	0.000204086	-0.000156403	-0.000222206	9.193110466	-2.645778656	2.038145065	0.010204315	-0.00782013	-0.011110306	-0.835449219	0.466308594	0.475097656	882.24	-52.86069319	-69.71269362	-103.016897	-55
9171	0	0.365966797	-0.106079102	0.081176758	0.999999046	-0.000259399	-6.38962E-05	0.000152588	9.149169922	-2.651977539	2.029418945	-0.012969971	-0.003194809	0.007629395	-0.833007813	0.466064453	0.477783203	882.3	-52.88636753	-69.70811753	-103.0235011	-55
9172	0	0.365760803	-0.106293678	0.080097198	0.999999046	-0.00051403	0.000146866	0.000396729	9.144020081	-2.657341957	2.002429962	-0.025701525	0.007343293	0.019836427	-0.835449219	0.466308594	0.477783203	882.32	-52.93478379	-69.66665181	-103.0383912	-55
9173	0	0.367553711	-0.107727051	0.08013916	0.999999046	-0.000141144	5.05447E-05	0.00037384	9.188842773	-2.69317627	2.003479004	-0.00705719	0.002527237	0.018692017	-0.835449219	0.466308594	0.475097656	882.32	-52.95997546	-69.6339199	-103.0310909	-55
9174	0	0.368563652	-0.107232094	0.078985214	0.999999046	8.2016E-05	-5.91278E-05	7.9155E-05	9.214091301	-2.680802345	1.974630356	0.0041008	-0.00295639	0.003957748	-0.835449219	0.468505859	0.477783203	882.26	-52.93188225	-69.63572703	-103.0501552	-55
9175	0	0.365600586	-0.107421875	0.078735352	0.999999046	-0.000141144	-0.000128746	0.000404358	9.140014648	-2.685546875	1.968383789	-0.00705719	-0.006437302	0.020217896	-0.835449219	0.468505859	0.475097656	882.32	-53.0070608	-69.61258947	-102.9851699	-55
9176	0	0.367243767	-0.106521606	0.080562592	0.999999046	6.00815E-05	-0.000185013	0.000464439	9.18109417	-2.663040161	2.014064789	0.003004074	-0.009250641	0.023221971	-0.835449219	0.466308594	0.477783203	882.3	-53.08404279	-69.58780406	-102.9031186	-55
9177	0	0.366516113	-0.106994629	0.080078125	0.999999046	-1.52588E-05	-0.000315666	0.000183105	9.162902832	-2.674865723	2.001953125	-0.000762939	-0.01578331	0.009155274	-0.835449219	0.468505859	0.475097656	882.3	-53.14972196	-69.59775466	-102.8346877	-55
9178	0	0.368296623	-0.107987404	0.079779625	0.999999046	-6.10352E-05	-0.000205994	0.000213623	9.207415581	-2.699685097	1.994490623	-0.003051758	-0.010299683	0.010681153	-0.833251953	0.468505859	0.480224609	882.24	-53.1993449	-69.59735153	-102.791362	-55
9179	0	0.366760254	-0.10760498	0.079284668	0.999999046	0.000118256	-0.00039196	0.000404358	9.169006348	-2.690124512	1.982116699	0.005912781	-0.019598008	0.020217897	-0.835449219	0.468505859	0.477783203	882.26	-53.30953642	-69.59216513	-102.6631132	-55
9180	0	0.367958069	-0.106236458	0.080058098	0.999999046	3.14713E-05	-0.000209808	0.000392914	9.198951721	-2.655911446	2.001452446	0.001573563	-0.010490418	0.019645692	-0.835449219	0.468505859	0.475097656	882.32	-53.38245682	-69.57551979	-102.5843392	-55
9181	0	0.365966797	-0.107055664	0.080688477	0.999999046	-1.90735E-05	-0.000349998	0.000179291	9.149169922	-2.676391602	2.017211914	-0.000953674	-0.017499924	0.008964539	-0.833007813	0.468505859	0.477539063	882.32	-53.4565274	-69.58806251	-102.5102657	-55
9182	0	0.367572784	-0.107618332	0.082379341	0.999999046	0.000228882	-0.000234604	0.000144005	9.189319611	-2.690458298	2.059483528	0.011444092	-0.011730194	0.007200241	-0.835693359	0.468505859	0.48046875	882.32	-53.46713408	-69.59593756	-102.4791194	-55
9183	0	0.366821289	-0.105163574	0.079284668	0.999999046	-0.000141144	-0.000243187	0.000240326	9.170532227	-2.629089355	1.982116699	-0.00705719	-0.012159348	0.012016297	-0.830810547	0.468505859	0.479980469	882.2	-53.53987256	-69.59555193	-102.4218411	-56
9184	0	0.370286942	-0.109210014	0.07998848	0.999999046	-0.000294685	-0.00019455	6.86646E-05	9.257173538	-2.730250359	1.99971199	-0.014734269	-0.009727478	0.003433228	-0.833251953	0.472900391	0.479736328	882.32	-53.58675069	-69.60765501	-102.4007731	-55
9185	0	0.367553711	-0.107421875	0.08001709	0.999999046	0.000389099	-0.000452995	-0.000240326	9.188842773	-2.685546875	2.000427246	0.019454957	-0.022649767	-0.012016297	-0.833251953	0.468505859	0.480224609	882.32	-53.56286516	-69.66583217	-102.3823889	-56
9186	0	0.365176201	-0.106451035	0.081965446	0.999999046	0.000213623	-0.000221252	-9.63211E-05	9.129405022	-2.661275864	2.049136162	0.010681153	-0.011062622	-0.004816055	-0.833251953	0.470703125	0.477294922	882.3	-53.5276827	-69.69493021	-102.3890331	-56
9187	0	0.367553711	-0.106811523	0.079956055	0.999999046	-0.000282288	0.000130653	2.67029E-05	9.188842773	-2.670288086	1.998901367	-0.01411438	0.006532669	0.001335144	-0.830810547	0.470703125	0.479980469	882.36	-53.48428488	-69.68870582	-102.4638811	-56
9188	0	0.366916656	-0.109134674	0.079501152	0.999999046	-0.000134468	2.09808E-05	4.48227E-05	9.172916412	-2.728366852	1.987528801	-0.006723404	0.001049042	0.002241135	-0.835693359	0.470703125	0.480224609	882.32	-53.45467429	-69.68824128	-102.5101118	-56
9189	0	0.369873047	-0.109680176	0.078491211	0.999999046	0.00038147	-0.000151634	-5.34058E-05	9.246826172	-2.742004395	1.962280273	0.019073487	-0.007581711	-0.002670288	-0.833007813	0.468505859	0.477539063	882.26	-53.3908609	-69.70857767	-102.5310092	-57
9190	0	0.36691761	-0.108177185	0.079316139	0.999999046	0.000339508	-0.000244141	-2.28882E-05	9.172940254	-2.704429626	1.982903481	0.016975403	-0.012207032	-0.001144409	-0.833007813	0.468505859	0.477539063	882.24	-53.36051349	-69.73240414	-102.5216556	-57
9191	0	0.366760254	-0.10736084	0.078918457	0.999999046	4.95911E-05	-0.000273705	0.000144958	9.169006348	-2.684020996	1.972961426	0.002479553	-0.013685227	0.007247925	-0.833251953	0.468505859	0.480224609	882.3	-53.40190196	-69.742806	-102.4738496	-57
9192	0	0.36738205	-0.107093811	0.078421593	0.999999046	0.000212669	-7.05719E-05	-2.76566E-05	9.184551239	-2.677345276	1.960539818	0.010633469	-0.003528595	-0.001382828	-0.833251953	0.470703125	0.479980469	882.24	-53.34204547	-69.75520103	-102.5082133	-57
9193	0	0.368164063	-0.10760498	0.07800293	0.999999046	0.000205994	-0.000197411	-0.000221252	9.204101563	-2.690124512	1.950073242	0.010299683	-0.009870529	-0.011062622	-0.833007813	0.466308594	0.48046875	882.26	-53.27864981	-69.79405834	-102.557367	-57
9194	0	0.369035721	-0.106983185	0.078083038	0.999999046	0.000247955	-0.00025177	-6.48499E-05	9.225893021	-2.67457962	1.952075958	0.012397766	-0.012588501	-0.003242493	-0.835693359	0.468505859	0.483154297	882.3	-53.25308501	-69.82227838	-102.5597539	-57
9195	0	0.368774414	-0.105407715	0.079406738	0.999999046	7.62939E-05	-0.000311852	5.34058E-05	9.219360352	-2.635192871	1.985168457	0.003814697	-0.015592575	0.002670288	-0.833251953	0.468505859	0.480224609	882.26	-53.28424283	-69.84377171	-102.5177112	-57
9196	0	0.367530823	-0.107144356	0.080413818	0.999999046	4.1008E-05	-0.000253677	-8.7738E-05	9.188270569	-2.678608894	2.010345459	0.0020504	-0.012683869	-0.004386902	-0.830810547	0.468505859	0.479980469	882.32	-53.27854439	-69.87421112	-102.5158064	-57
9197	0	0.366394043	-0.104736328	0.079528809	0.999999046	-3.8147E-06	-0.000216484	4.19617E-05	9.159851074	-2.618408203	1.988220215	-0.000190735	-0.010824204	0.002098084	-0.833251953	0.468505859	0.480224609	882.2	-53.29286087	-69.89019088	-102.5001186	-57
9198	0	0.368800163	-0.107027054	0.080587387	0.999999046	-0.000146866	-6.86646E-05	-2.28882E-05	9.220004082	-2.675676346	2.014684677	-0.007343292	-0.003433228	-0.001144409	-0.833007813	0.468505859	0.477539063	882.32	-53.27430002	-69.90197317	-102.5333622	-57
9199	0	0.368835449	-0.107055664	0.08026123	0.999999046	0.000350952	-0.000254631	-0.000305176	9.22088623	-2.676391602	2.006530762	0.017547608	-0.012731553	-0.01525879	-0.835449219	0.466308594	0.48046875	882.32	-53.1923449	-69.95238526	-102.58252	-57
9200	0	0.366498947	-0.105921745	0.080391884	0.999999046	0.000308037	-4.95911E-05	-0.000123024	9.162473679	-2.648043633	2.009797096	0.01540184	-0.002479553	-0.006151199	-0.835449219	0.466308594	0.48046875	882.24	-53.09774486	-69.97194481	-102.6499693	-57
9201	0	0.366210938	-0.107055664	0.078491211	0.999999046	-0.000232697	0.000123024	0.000114441	9.155273438	-2.676391602	1.962280273	-0.011634827	0.006151199	0.005722046	-0.833007813	0.466308594	0.48046875	882.26	-53.06657747	-69.95781028	-102.7128308	-57
9202	0	0.365677834	-0.106993675	0.079445839	0.999999046	-0.00021553	1.90735E-06	0.000304222	9.141945839	-2.674841881	1.986145973	-0.01077652	9.53674E-05	0.015211106	-0.838134766	0.468505859	0.48046875	882.28	-53.09973305	-69.93458338	-102.7045326	-57
9203	0	0.368469238	-0.107849121	0.078430176	0.999999046	0.00037384	-0.000189781	3.43323E-05	9.211730957	-2.696228027	1.960754395	0.018692017	-0.00948906	0.001716614	-0.835449219	0.463867188	0.480712891	882.24	-53.06271431	-69.94925494	-102.7092116	-58
9204	0	0.367818832	-0.10793972	0.076355934	0.999999046	0.000681877	-0.000307083	-0.000214577	9.19547081	-2.698493004	1.908898354	0.03409386	-0.015354158	-0.010728837	-0.835449219	0.468505859	0.475097656	882.3	-52.97291727	-69.99479213	-102.7162174	-57
9205	0	0.36706543	-0.105285645	0.075805664	0.999999046	0.00056839	-0.000380516	0.000270844	9.176635742	-2.632141113	1.895141602	0.028419497	-0.019025804	0.013542177	-0.835449219	0.466308594	0.48046875	882.2	-53.00668795	-70.00099902	-102.6181811	-57
9206	0	0.368776321	-0.105214119	0.077718735	0.999999046	6.10352E-05	-0.000488281	0.000419617	9.219408035	-2.630352974	1.942968369	0.003051758	-0.024414064	0.020980836	-0.835449219	0.468505859	0.477783203	882.2	-53.15395796	-70.00095712	-102.4547653	-56
9207	0	0.367980957	-0.10546875	0.078979492	0.999999046	-0.000175476	-0.000349998	0.000312805	9.199523926	-2.63671875	1.974487305	-0.008773804	-0.017499924	0.015640259	-0.838134766	0.468505859	0.48046875	882.2	-53.27333388	-70.00109586	-102.3548407	-57
9208	0	0.368763924	-0.104873657	0.078866005	0.999999046	0.000277519	-0.000486374	0.000353813	9.219098091	-2.621841431	1.971650124	0.013875962	-0.024318697	0.01769066	-0.835693359	0.470703125	0.480224609	882.24	-53.38292823	-70.00673951	-102.2037709	-57
9209	0	0.367492676	-0.102355957	0.078674316	0.999999046	0.000171661	-0.000315666	0.00038147	9.187316895	-2.558898926	1.96685791	0.008583069	-0.015783311	0.019073487	-0.833007813	0.468505859	0.477539063	882.3	-53.4665807	-69.99813534	-102.0958945	-57
9210	0	0.366122246	-0.102425575	0.079636574	0.999999046	-4.95911E-05	-0.000213623	0.000335693	9.153056145	-2.560639381	1.990914345	-0.002479553	-0.010681153	0.016784668	-0.833251953	0.468505859	0.480224609	882.32	-53.5409584	-69.98676168	-102.0281252	-57
9211	0	0.369750977	-0.105285645	0.077148438	0.999999046	1.90735E-05	-0.000330925	-3.8147E-05	9.243774414	-2.632141113	1.928710938	0.000953674	-0.01654625	-0.001907349	-0.833251953	0.468505859	0.482910156	882.36	-53.56728845	-70.01784152	-102.0043178	-57
9212	0	0.370054245	-0.106048584	0.077577591	0.999999046	0.000754356	-0.000465393	-0.000237465	9.251356125	-2.6512146	1.939439774	0.037717825	-0.023269657	-0.011873247	-0.833251953	0.468505859	0.482910156	882.24	-53.50617453	-70.07646098	-101.9841358	-57
9213	0	0.368713379	-0.105102539	0.077697754	0.999999046	0.000564575	-0.000563622	-0.000244141	9.217834473	-2.627563477	1.942443848	0.028228763	-0.028181079	-0.012207033	-0.833251953	0.468505859	0.480224609	882.32	-53.49052359	-70.14240268	-101.9359794	-57
9214	0	0.368304253	-0.106604576	0.078195572	0.999999046	0.00038147	-0.000507355	0.000205994	9.207606316	-2.665114403	1.954889297	0.019073488	-0.025367739	0.010299683	-0.833251953	0.470703125	0.482666016	882.24	-53.56667102	-70.16299251	-101.8103556	-57
9215	0	0.368591309	-0.106506348	0.077148438	0.999999046	0.000537872	-0.000277519	0.000339508	9.214782715	-2.662658691	1.928710938	0.026893618	-0.013875962	0.016975404	-0.833251953	0.470703125	0.479980469	882.32	-53.59149972	-70.15557843	-101.7206789	-58
9216	0	0.371308327	-0.106736183	0.077544212	0.999999046	0.000628471	-0.000379562	0.000297546	9.282708168	-2.668404579	1.938605309	0.031423572	-0.018978121	0.014877321	-0.830810547	0.470703125	0.482666016	882.3	-53.62417132	-70.15894943	-101.6144242	-58
9217	0	0.36932373	-0.105651855	0.075317383	0.999999046	0.000839233	-0.000308037	0.000465393	9.233093262	-2.641296387	1.88293457	0.041961677	-0.015401843	0.023269657	-0.831054688	0.472900391	0.482421875	882.36	-53.64608355	-70.14197306	-101.4925914	-58
9218	0	0.369943619	-0.105015755	0.075569153	0.999999046	0.000656128	-0.000232697	0.000769615	9.248590469	-2.625393867	1.889228821	0.032806402	-0.011634829	0.038480766	-0.833496094	0.472900391	0.482421875	882.2	-53.72667687	-70.09178534	-101.3382215	-58
9219	0	0.369873047	-0.10345459	0.075683594	0.999999046	0.000881195	-0.000174522	0.00069809	9.246826172	-2.586364746	1.892089844	0.044059763	-0.008726122	0.034904488	-0.831054688	0.475341797	0.482177734	882.36	-53.75276611	-70.0442696	-101.2110872	-58
9220	0	0.371159554	-0.102742195	0.075061798	0.999999046	0.001036644	-0.00015831	0.000502586	9.278988838	-2.568554878	1.876544952	0.051832211	-0.007915499	0.025129324	-0.831054688	0.475341797	0.482177734	882.32	-53.72023274	-70.01380663	-101.1324158	-57
9221	0	0.371154785	-0.102416992	0.077392578	0.999999046	0.001098633	-0.000231743	0.000499725	9.278869629	-2.560424805	1.934814453	0.054931654	-0.011587146	0.024986273	-0.831054688	0.477539063	0.481933594	882.32	-53.69852444	-69.98867144	-101.0339017	-57
9222	0	0.370904922	-0.101279259	0.07567215	0.999999046	0.001113892	-0.000183105	0.000658989	9.272623062	-2.531981468	1.891803741	0.055694596	-0.009155276	0.032949457	-0.828857422	0.479736328	0.479003906	882.36	-53.69216411	-69.94564196	-100.9128466	-57
9223	0	0.369750977	-0.099853516	0.07611084	0.999999046	0.001106262	-0.000102043	0.00056076	9.243774414	-2.496337891	1.902770996	0.055313125	-0.005102159	0.028038032	-0.831298828	0.481933594	0.479003906	882.3	-53.64764137	-69.90631167	-100.8356832	-57
9224	0	0.373069763	-0.102241516	0.075649261	0.999999046	0.001029015	-0.000246048	0.000347137	9.32674408	-2.556037903	1.891231537	0.05145074	-0.012302401	0.017356876	-0.828613281	0.481933594	0.473388672	882.26	-53.60857524	-69.89661022	-100.7584581	-57
9225	0	0.37097168	-0.101989746	0.076843262	0.999998093	0.001740456	-0.000263214	-0.000175476	9.274291992	-2.549743652	1.921081543	0.087022827	-0.013160712	-0.008773808	-0.828857422	0.484130859	0.475830078	882.3	-53.39494952	-69.93636841	-100.7811766	-57
9226	0	0.366530418	-0.101107597	0.076453209	0.999997139	0.001945496	-0.000347137	-8.01086E-05	9.16326046	-2.527689934	1.911330223	0.097274844	-0.017356884	-0.004005435	-0.828857422	0.486328125	0.475585938	882.38	-53.19639857	-69.9731574	-100.7620651	-57
9227	0	0.367858887	-0.101135254	0.07598877	0.999997139	0.002254486	-0.000151634	0.000190735	9.196472168	-2.528381348	1.899719238	0.112724401	-0.007581717	0.009536751	-0.826416016	0.486328125	0.472900391	882.36	-52.96411856	-69.97177897	-100.7438274	-57
9228	0	0.370345116	-0.102705956	0.075911522	0.999996185	0.002473831	-0.000344276	8.7738E-05	9.258627892	-2.567648888	1.897788048	0.123691688	-0.017213839	0.004386906	-0.829101563	0.490966797	0.47265625	882.3	-52.73557009	-69.99324118	-100.6931149	-57
9229	0	0.373840332	-0.104797363	0.074401855	0.999996185	0.002587318	-0.000274658	0.000141144	9.346008301	-2.619934082	1.860046387	0.129366067	-0.013732926	0.007057198	-0.829101563	0.490966797	0.469970703	882.38	-52.48690449	-70.00514736	-100.6556312	-57
9230	0	0.370556831	-0.102375031	0.075826645	0.999995232	0.002723694	-0.000282288	0.000609398	9.263920784	-2.559375763	1.895666122	0.136184871	-0.014114398	0.030469934	-0.829101563	0.493164063	0.467041016	882.3	-52.31444617	-69.97520114	-100.522913	-57
9231	0	0.367248535	-0.101623535	0.076538086	0.999994278	0.002755165	-0.000526428	0.001495361	9.181213379	-2.540588379	1.913452148	0.137758487	-0.026321455	0.074768192	-0.826660156	0.497558594	0.461181641	882.42	-52.36852269	-69.88207917	-100.1410313	-56
9232	0	0.368185997	-0.10138607	0.077073097	0.999992371	0.002914429	-0.000559807	0.002193451	9.204649925	-2.534651756	1.926827431	0.145721766	-0.027990405	0.109672795	-0.826904297	0.504394531	0.460449219	882.42	-52.54229306	-69.72766353	-99.61383422	-56
9233	0	0.366577148	-0.100952148	0.077575684	0.999992371	0.002896309	-0.000648499	0.002281189	9.164428711	-2.523803711	1.93939209	0.144815783	-0.032425002	0.114059715	-0.824462891	0.506591797	0.460205078	882.2	-52.75086407	-69.57088055	-99.06288433	-56
9234	0	0.36384201	-0.100572586	0.078413963	0.999993324	0.002067566	-0.000375748	0.002833366	9.096050262	-2.514314651	1.960349083	0.10337851	-0.018787423	0.141668614	-0.822509766	0.515625	0.461914063	882.36	-53.08220851	-69.34391317	-98.47893049	-56
9235	0	0.359313965	-0.100769043	0.078186035	0.999992371	0.000271797	-9.53674E-05	0.003738403	8.982849121	-2.519226074	1.954650879	0.013589891	-0.004768383	0.186920604	-0.8203125	0.522216797	0.455810547	882.36	-53.70084955	-69.01286282	-97.79987206	-57
9236	0	0.352187157	-0.107392311	0.07634449	0.99998951	0.000273705	-0.000572205	0.004322052	8.804678917	-2.684807777	1.908612251	0.01368527	-0.02861032	0.216103287	-0.818115234	0.529052734	0.457763672	882.3	-54.51282022	-68.65661528	-96.91630755	-57
9237	0	0.344055176	-0.109008789	0.075195313	0.999979973	0.003196716	-0.001543999	0.005115509	8.601379395	-2.725219727	1.879882813	0.159836848	-0.077200435	0.255777104	-0.811035156	0.535644531	0.456787109	882.42	-55.3250538	-68.28535071	-95.68002758	-57
9238	0	0.330606461	-0.102661133	0.071400642	0.999970436	0.004386902	-0.002262115	0.005889893	8.265161514	-2.56652832	1.78501606	0.219347252	-0.113106887	0.294497527	-0.811767578	0.549316406	0.458251953	882.26	-56.25705853	-67.87998934	-94.17561651	-57
9239	0	0.312072754	-0.099975586	0.069824219	0.999954224	0.005745888	-0.00270462	0.00711441	7.801818848	-2.499389648	1.745605469	0.287298743	-0.135233068	0.355725912	-0.802490234	0.562744141	0.453857422	882.3	-57.27414147	-67.37530895	-92.41034685	-56
9240	0	0.288906097	-0.097010612	0.063798904	0.999933243	0.007005692	-0.00332737	0.00848484	7.222652435	-2.425265312	1.59497261	0.350292292	-0.166372149	0.424251364	-0.793457031	0.580566406	0.451660156	882.38	-58.41935583	-66.76272227	-90.35042476	-55
9241	0	0.284729004	-0.096435547	0.054016113	0.99990654	0.00855732	-0.003982544	0.009811401	7.118225098	-2.410888672	1.350402832	0.427879201	-0.199133349	0.490585224	-0.782226563	0.603027344	0.446044922	882.36	-59.62319744	-66.04179875	-88.02486719	-55
9242	0	0.311477661	-0.10129261	0.045342445	0.999893188	0.010062218	-0.004162788	0.009655952	7.786941528	-2.532315254	1.133561134	0.503128648	-0.208146768	0.482814668	-0.766113281	0.629882813	0.4453125	882.3	-60.5726633	-65.32925876	-85.77607183	-55
9243	0	0.329040527	-0.10333252	0.0390625	0.999903679	0.010101318	-0.003397942	0.008789063	8.226013184	-2.583312988	0.9765625	0.505081983	-0.169902484	0.439467103	-0.752441406	0.649902344	0.439941406	882.32	-61.16388555	-64.64880622	-83.91515779	-52
9244	0	0.338942528	-0.101428986	0.042229652	0.999936104	0.007151604	-0.001434326	0.008551598	8.473563194	-2.53572464	1.05574131	0.357587714	-0.071717819	0.427588883	-0.736083984	0.672363281	0.431640625	882.38	-61.58832129	-63.87805695	-82.58648339	-54
9245	0	0.32989502	-0.101806641	0.045227051	0.999946594	0.000454903	0.001144409	0.010211945	8.247375488	-2.545166016	1.13067627	0.022745534	0.057221468	0.510606233	-0.719726563	0.690185547	0.426025391	882.36	-62.37328238	-62.79501906	-81.68283427	-54
9246	0	0.326458931	-0.126641273	0.054389954	0.999901772	-0.002910614	0.003040314	0.013328552	8.161473274	-3.166031837	1.35974884	-0.14553544	0.152020636	0.666449314	-0.705810547	0.703369141	0.424072266	882.32	-63.40921725	-61.28895819	-80.929241	-54
9247	0	0.324035645	-0.153381348	0.07434082	0.999811172	0.000775337	0.005393982	0.018615723	8.100891113	-3.834533691	1.858520508	0.038769292	0.269716012	0.930844509	-0.689453125	0.721435547	0.426757813	882.36	-63.98137455	-59.11515084	-80.26826713	-54
9248	0	0.297958374	-0.162630081	0.094498634	0.999629974	0.005895615	0.008770943	0.025045395	7.448959351	-4.065752029	2.362465858	0.294817048	0.438601164	1.252424026	-0.673583984	0.752685547	0.412109375	882.26	-63.85187262	-56.10756967	-79.78433246	-52
9249	0	0.275390625	-0.172485352	0.114929199	0.99938488	0.009361267	0.011143684	0.031890869	6.884765625	-4.312133789	2.87322998	0.46815927	0.557298398	1.594870212	-0.645751953	0.794921875	0.390380859	882.26	-63.42425712	-52.2772923	-79.21357218	-52
9250	0	0.262701988	-0.210247993	0.146374702	0.999136925	0.013307571	0.011608124	0.037584305	6.567549706	-5.256199837	3.659367561	0.665569951	0.580573129	1.879755753	-0.610595703	0.843994141	0.359375	882.3	-62.79252807	-47.84417498	-78.34147306	-52
9251	0	0.229553223	-0.229736328	0.20098877	0.998737335	0.024365425	0.013080597	0.041938782	5.738830566	-5.743408203	5.024719238	1.218784251	0.654305248	2.097822076	-0.563476563	0.897216797	0.321777344	882.36	-60.94012343	-42.90692665	-77.41676715	-54
9252	0	0.210813522	-0.226643562	0.192064285	0.998339653	0.03306675	0.014932632	0.04473114	5.270338058	-5.666089058	4.801607132	1.65425294	0.747045036	2.2377954	-0.501464844	0.956787109	0.255615234	882.2	-58.08736158	-37.62721635	-76.39187159	-55
9253	0	0.220153809	-0.240539551	0.16229248	0.998373032	0.027684212	0.019996643	0.045654297	5.503845215	-6.01348877	4.057312012	1.384961604	1.000374622	2.283953354	-0.424316406	1.007080078	0.181152344	882.36	-55.55797557	-31.99886596	-75.62544026	-56
9254	0	0.249405861	-0.276736259	0.150542259	0.99842453	0.016219139	0.024962425	0.047560692	6.235146523	-6.918406487	3.76355648	0.811383068	1.248777081	2.379284118	-0.339599609	1.043701172	0.115234375	882.26	-54.13269307	-25.89971301	-74.98943442	-57
9255	0	0.286804199	-0.349121094	0.175720215	0.998094559	0.013257027	0.029663086	0.052452087	7.17010498	-8.728027344	4.393005371	0.66327262	1.484096942	2.624271212	-0.247558594	1.067138672	0.077148438	882.24	-52.95526189	-19.0493218	-74.33819986	-58
9256	0	0.325191498	-0.436034203	0.208835602	0.99774456	0.010104179	0.034824371	0.056483269	8.129787445	-10.90085506	5.220890045	0.505589084	1.742528645	2.826288313	-0.147949219	1.078857422	0.039306641	882.36	-52.00952237	-11.48997802	-73.75495511	-60
9257	0	0.344604492	-0.513366699	0.217529297	0.997456551	0.024814606	0.037552834	0.055263519	8.615112305	-12.83416748	5.438232422	1.241783187	1.879235071	2.765520835	-0.033691406	1.081787109	0.017578125	882.3	-49.26014306	-3.872866609	-73.31331854	-60
9258	0	0.425106049	-0.360801697	0.033449173	0.997590065	0.018798828	0.054409027	0.038714409	10.62765121	-9.020042419	0.836229324	0.940696962	2.722638143	1.937276439	0.091552734	1.068359375	-0.036132813	882.32	-47.11098226	3.576330297	-75.09515904	-66
9259	0	0.129943848	-0.231262207	0.00177002	0.998253822	-0.018726349	0.055047035	0.010402679	3.248596191	-5.781555176	0.044250488	-0.93686278	2.753954803	0.520436912	0.2109375	1.055664063	-0.032714844	882.36	-49.7007541	8.637916046	-78.72227138	-64
9260	0	-0.138027191	-0.367058754	0.281420708	0.998301506	-0.051514626	0.024213791	-0.012377739	-3.450679779	-9.176468849	7.035517693	-2.577190199	1.211375292	-0.619237492	0.276855469	1.055419922	0.054443359	882.38	-56.10986494	9.158173803	-81.21430983	-60
9261	0	-0.41204834	-0.364685059	0.526733398	0.997574806	-0.061435699	0.018158913	-0.027191162	-10.3012085	-9.117126465	13.16833496	-3.074270066	0.908680167	-1.360657997	0.286376953	1.052001953	0.175292969	882.36	-63.66371537	7.486481743	-84.35745599	-60
9262	0	-0.154760361	-0.449123383	0.252893448	0.998010635	-0.059090614	0.009091377	-0.020000458	-3.869009018	-11.22808456	6.322336197	-2.956491292	0.454870507	-1.000686486	0.245361328	1.033447266	0.314697266	882.2	-70.66588618	5.757534635	-86.22699493	-59
9263	0	-0.444458008	-0.495849609	0.323852539	0.999073982	-0.034450531	0.020871162	-0.015075684	-11.1114502	-12.39624023	8.096313477	-1.723058025	1.043880104	-0.754016755	0.178710938	1.001464844	0.424560547	882.36	-74.88090974	4.800365583	-89.05316598	-61
9264	0	-0.196333885	-0.326458931	0.062681198	0.99885273	-0.042811394	0.021261215	-0.002721786	-4.90834713	-8.161473274	1.567029953	-2.141388323	1.063467316	-0.136141371	0.134521484	0.977783203	0.494628906	882.3	-80.00614415	5.012397496	-91.52538795	-60
9265	0	-0.174743652	-0.44744873	-0.046203613	0.999744415	-0.021975517	0.003433228	0.004001617	-4.368591309	-11.18621826	-1.155090332	-1.098869414	0.171675992	0.200097906	0.088623047	0.927490234	0.585693359	882.36	-82.56302271	5.51354569	-91.86302294	-60
9266	0	-0.11352253	-0.325399399	-0.042169571	0.999252319	0.038140297	-0.00621891	-0.000789642	-2.83806324	-8.13498497	-1.054239273	1.907490007	-0.311022987	-0.039491954	0.073974609	0.925292969	0.589599609	882.3	-78.13687518	5.295012957	-91.18941006	-59
9267	0	-0.08782959	-0.225524902	-0.031616211	0.998832703	0.04636097	-0.012554169	-0.004997253	-2.195739746	-5.638122559	-0.790405273	2.318950341	-0.627952652	-0.249959883	0.073974609	0.974121094	0.499267578	882.3	-72.72817938	4.371802802	-89.95421213	-58
9268	0	-0.030107498	-0.244878769	0.089659691	0.999597549	0.024986267	-0.01163578	-0.006605148	-0.752687454	-6.121969223	2.241492271	1.249480684	-0.58186694	-0.33030165	0.079101563	1.013916016	0.414550781	882.48	-69.80792368	3.221179392	-88.95007024	-59
9269	0	-0.024230957	-0.32800293	0.172668457	0.999928474	-0.00592804	-0.006712914	-0.00786972	-0.605773926	-8.200073242	4.316711426	-0.296409	-0.335653627	-0.393495345	0.079345703	1.02734375	0.380859375	882.36	-70.47766068	2.106536792	-88.54997634	-59
9270	0	-0.006662369	-0.418084145	0.208406448	0.999918938	-0.004810333	-0.004179001	-0.010980606	-0.166559219	-10.45210361	5.210161209	-0.240523124	-0.208955656	-0.549045054	0.074462891	1.016113281	0.3984375	882.42	-71.03626706	0.755127564	-88.52983864	-58
9271	0	0.015808105	-0.412658691	0.205383301	0.999957085	-0.001979828	-0.003245354	-0.008407593	0.395202637	-10.31646729	5.13458252	-0.098992799	-0.162269988	-0.420385604	0.0625	1.016357422	0.402099609	882.26	-71.26970868	-0.282957727	-88.50671179	-60
9272	0	0.002001762	-0.469760895	0.257802963	0.999960899	-0.00754261	0.00431633	0.001398087	0.05004406	-11.74402237	6.445074081	-0.377135378	0.215819285	0.06990523	0.040527344	1.012207031	0.414794922	882.32	-72.13791275	0.018070137	-88.9441112	-60
9273	0	-0.055786133	-0.375	0.114379883	0.999993324	-0.00340271	-0.000384331	-0.001056671	-1.39465332	-9.375	2.85949707	-0.170135862	-0.019216579	-0.05283367	0.033203125	1.008056641	0.426269531	882.42	-72.53281856	-0.11620718	-88.95668665	-60
9274	0	-0.038656235	-0.380888939	0.116336823	0.999985695	-0.001945496	-0.004642487	-0.001758575	-0.966405869	-9.522223473	2.908420563	-0.097275241	-0.232125429	-0.087929189	0.030761719	1.003417969	0.432373047	882.42	-72.76300454	-0.472156984	-88.52666073	-60
9275	0	-0.009887695	-0.373840332	0.111877441	0.999987602	0.000205994	-0.004282951	-0.002227783	-0.247192383	-9.346008301	2.796936035	0.010299723	-0.214148401	-0.111389594	0.028076172	1.005859375	0.437744141	882.36	-72.74886864	-0.866243453	-88.15119276	-61
9276	0	0.011321068	-0.348366737	0.09301281	0.999992371	0.000484467	-0.003481865	-0.001699448	0.283026695	-8.709168434	2.325320244	0.024223389	-0.174093689	-0.084972598	0.030761719	1.003417969	0.435058594	882.42	-72.70413551	-1.175618936	-87.84534739	-61
9277	0	0.030517578	-0.359130859	0.104003906	0.999994278	-0.00178051	-0.002372742	-0.001373291	0.762939453	-8.978271484	2.600097656	-0.089025656	-0.118637296	-0.068664673	0.028320313	1.005859375	0.432373047	882.42	-72.91804799	-1.411761342	-87.64953914	-62
9278	0	0.025932312	-0.392566681	0.11798954	0.999992371	-0.00339222	-0.000906944	-0.001020432	0.6483078	-9.814167023	2.949738503	-0.169611355	-0.045347315	-0.05102169	0.028320313	0.999023438	0.440917969	882.44	-73.31351236	-1.559729786	-87.60140944	-62
9279	0	0.020446777	-0.401977539	0.129089355	0.999999046	-0.001018524	-0.000506401	-0.000659943	0.511169434	-10.04943848	3.227233887	-0.050926223	-0.02532006	-0.032997141	0.025878906	0.996826172	0.446777344	882.32	-73.43602531	-1.654979765	-87.58488931	-62
9280	0	0.016023636	-0.389825821	0.126508713	0.999999046	-9.53674E-07	-8.7738E-05	-0.00048542	0.400590897	-9.745645523	3.162717819	-4.76837E-05	-0.004386902	-0.024271012	0.025634766	0.999267578	0.44921875	882.3	-73.44057993	-1.717489181	-87.60849968	-63
9281	0	0.010864258	-0.368530273	0.113708496	0.999999046	-0.000404358	-0.000239372	-0.000465393	0.271606445	-9.213256836	2.842712402	-0.020217897	-0.011968614	-0.023269655	0.0234375	0.997070313	0.449462891	882.38	-73.49178855	-1.782782029	-87.61483577	-62
9282	0	0.014125824	-0.367444038	0.107422829	0.999996185	-0.002225876	-0.000164986	-3.71933E-05	0.353145599	-9.18610096	2.685570717	-0.111293885	-0.00824929	-0.001859666	0.020996094	0.997070313	0.449707031	882.42	-73.75193233	-1.798691487	-87.6153915	-62
9283	0	0.015197754	-0.37890625	0.09942627	0.999994278	-0.003252983	0.000190735	0.000263214	0.379943848	-9.47265625	2.485656738	-0.162649444	0.00953676	0.013160729	0.0234375	0.994873047	0.452392578	882.42	-74.12905417	-1.77033681	-87.6452853	-62
9284	0	0.012513161	-0.388661385	0.099162102	0.999996185	-0.002166748	0.000752449	0.000768661	0.312829018	-9.716534615	2.479052544	-0.108337508	0.037622488	0.038433112	0.020996094	0.990234375	0.461181641	882.36	-74.38054395	-1.668970389	-87.72181093	-62
9285	0	0.012695313	-0.38885498	0.1015625	0.999998093	-0.00020504	0.001083374	0.001022339	0.317382813	-9.721374512	2.5390625	-0.010252003	0.054168722	0.051116963	0.020996094	0.990234375	0.461181641	882.32	-74.40671618	-1.529643912	-87.82723145	-62
9286	0	0.008640289	-0.379213333	0.105026245	0.999998093	0.000441551	0.00101757	0.001255035	0.216007233	-9.480333328	2.625656128	0.022077571	0.050878549	0.062751799	0.023193359	0.990234375	0.463623047	882.42	-74.35944734	-1.366648162	-87.91807184	-62
9287	0	0.005310059	-0.377807617	0.110595703	0.999998093	0.000145912	0.00100708	0.001014709	0.132751465	-9.44519043	2.764892578	0.007295611	0.050354021	0.050735491	0.0234375	0.988037109	0.463867188	882.42	-74.34605909	-1.230407112	-88.01513905	-62
9288	0	0.004312515	-0.378883362	0.113156319	0.999999046	-0.000393867	0.000507355	0.000693321	0.107812881	-9.472084045	2.828907967	-0.019693378	0.025367741	0.034666067	0.023193359	0.990234375	0.463623047	882.32	-74.39551708	-1.145049726	-88.06704768	-62
9289	0	0.004455566	-0.37286377	0.107727051	0.999999046	-0.000167847	0.000203133	0.000473022	0.11138916	-9.321594238	2.69317627	-0.008392334	0.010156632	0.023651124	0.025634766	0.990234375	0.466064453	882.32	-74.41959105	-1.09338663	-88.09204794	-62
9290	0	0.009180069	-0.378036499	0.108823776	0.999999046	-0.00060463	4.57764E-05	0.000254631	0.229501724	-9.450912476	2.720594406	-0.030231478	0.002288819	0.012731553	0.028076172	0.992675781	0.465820313	882.38	-74.493869	-1.070756315	-88.10632554	-62
9291	0	0.008483887	-0.379211426	0.105529785	0.999999046	-3.43323E-05	0.000531197	0.000511169	0.212097168	-9.480285645	2.638244629	-0.001716614	0.026559832	0.025558474	0.028076172	0.990234375	0.46875	882.3	-74.50196829	-1.004998191	-88.16651783	-62
9292	0	0.004992485	-0.379590988	0.105630875	0.999999046	-0.000714302	0.000617981	0.00070858	0.124812126	-9.489774704	2.640771866	-0.035715111	0.030899055	0.035429009	0.028076172	0.990234375	0.466064453	882.34	-74.58799899	-0.914834605	-88.23037217	-62
9293	0	0.000549316	-0.379455566	0.105163574	0.999999046	0.000114441	0.000489235	0.000637054	0.01373291	-9.48638916	2.629089355	0.005722047	0.024461749	0.031852726	0.030761719	0.985839844	0.466308594	882.38	-74.57932872	-0.836464521	-88.28209975	-62
9294	0	0.001915932	-0.378458023	0.105984688	0.999999046	-0.00053978	0.000247955	0.000517845	0.047898293	-9.461450577	2.649617195	-0.026988986	0.012397767	0.02589226	0.030517578	0.988037109	0.46875	882.36	-74.64598002	-0.7785919	-88.31096944	-62
9295	0	0.002563477	-0.381164551	0.104125977	0.999999046	-2.28882E-05	0.000348091	0.000488281	0.064086914	-9.52911377	2.603149414	-0.001144409	0.017404557	0.024414064	0.030517578	0.988037109	0.46875	882.38	-74.65327956	-0.720950813	-88.35186077	-62
9296	0	0.001205444	-0.377631187	0.104841232	0.999999046	-0.000117302	0.000301361	0.000411034	0.030136108	-9.440779686	2.621030807	-0.005865097	0.015068055	0.020551682	0.030517578	0.988037109	0.471435547	882.32	-74.67144615	-0.673238689	-88.38995257	-62
9297	0	0.00012207	-0.374511719	0.103515625	0.999999046	-0.000576019	0.000153542	0.000286102	0.003051758	-9.362792969	2.587890625	-0.028800966	0.007677079	0.014305116	0.028076172	0.988037109	0.46875	882.36	-74.74232879	-0.643786727	-88.41566299	-62
9298	0	0.00164032	-0.381533623	0.106921196	0.999999046	-0.000669479	-4.19617E-05	0.000288963	0.041007996	-9.538340569	2.6730299	-0.033473971	-0.002098084	0.014448167	0.028076172	0.988037109	0.46875	882.3	-74.82411917	-0.619918183	-88.41962583	-62
9299	0	0.000549316	-0.381774902	0.104980469	0.999999046	-0.000366211	-5.24521E-05	3.43323E-05	0.01373291	-9.544372559	2.624511719	-0.018310547	-0.002622604	0.001716614	0.030517578	0.985839844	0.471679688	882.32	-74.87106246	-0.624500782	-88.42982999	-62
9300	0	0.002365112	-0.378798485	0.101833344	0.999999046	-0.000340462	-0.000118256	-8.10623E-05	0.059127808	-9.46996212	2.545833588	-0.017023087	-0.005912781	-0.004053116	0.030517578	0.985839844	0.471679688	882.36	-74.91510454	-0.643825673	-88.43624609	-62
9301	0	0.001831055	-0.379760742	0.101135254	0.999999046	-0.000286102	-0.000151634	0.000114441	0.045776367	-9.494018555	2.528381348	-0.014305115	-0.007581711	0.005722046	0.032958984	0.985839844	0.471435547	882.44	-74.95304535	-0.642506397	-88.43299427	-62
9302	0	0.001469612	-0.38049221	0.103297234	0.999999046	-0.000396729	7.62939E-06	9.91821E-05	0.036740303	-9.51230526	2.58243084	-0.019836426	0.00038147	0.004959107	0.032958984	0.985839844	0.474121094	882.42	-75.00343973	-0.638126611	-88.44795598	-62
9303	0	0.001586914	-0.379150391	0.101989746	0.999999046	-0.000217438	7.72476E-05	0.000148773	0.039672852	-9.478759766	2.549743652	-0.010871887	0.003862381	0.00743866	0.028076172	0.985839844	0.474365234	882.42	-75.03321013	-0.626191756	-88.46959386	-62
9304	0	0.00420475	-0.378769875	0.104266167	0.999999046	-0.00039196	0.000228882	0.000205994	0.105118752	-9.469246864	2.606654167	-0.019598008	0.011444092	0.010299683	0.030517578	0.985839844	0.474365234	882.24	-75.0827727	-0.603494446	-88.505946	-62
9305	0	0.000183105	-0.381591797	0.10333252	0.999999046	-0.000259399	0.000256538	0.000305176	0.004577637	-9.539794922	2.583312988	-0.012969971	0.01282692	0.01525879	0.028076172	0.985839844	0.477050781	882.32	-75.11712997	-0.568989334	-88.5427085	-62
9306	0	-0.000285149	-0.380851746	0.102340698	0.999999046	-0.000177383	0.0001297	0.000182152	-0.007128716	-9.52129364	2.558517456	-0.008869171	0.006484985	0.00910759	0.032958984	0.985839844	0.474121094	882.36	-75.14219258	-0.551819527	-88.5685077	-62
9307	0	-0.000305176	-0.38092041	0.10144043	0.999999046	-0.000312805	-0.000102043	-7.62939E-06	-0.007629395	-9.523010254	2.536010742	-0.015640259	-0.005102158	-0.00038147	0.030517578	0.985839844	0.479736328	882.38	-75.18296082	-0.562449652	-88.57461529	-62
9308	0	0.001979828	-0.38055706	0.101750374	0.999999046	-0.000130653	-0.000125885	-2.38419E-05	0.049495697	-9.513926506	2.543759346	-0.006532669	-0.006294251	-0.001192093	0.028076172	0.985839844	0.477050781	882.2	-75.20285619	-0.575582241	-88.57871402	-62
9309	0	0.001464844	-0.379333496	0.10168457	0.999999046	6.10352E-05	-5.24521E-05	7.62939E-06	0.036621094	-9.483337402	2.542114258	0.003051758	-0.002622604	0.00038147	0.030517578	0.983642578	0.479980469	882.36	-75.20068912	-0.5830736	-88.58967891	-62
9310	0	0.00262928	-0.37846756	0.101852417	0.999999046	-0.000148773	0.000179291	0.000296593	0.065732002	-9.461688995	2.546310425	-0.00743866	0.008964539	0.014829636	0.030517578	0.983642578	0.479980469	882.36	-75.22236393	-0.551787481	-88.61794301	-62
9311	0	0.000854492	-0.378723145	0.099243164	0.999999046	-0.000190735	0.000180244	0.000370026	0.021362305	-9.468078613	2.481079102	-0.009536743	0.009012223	0.018501282	0.032958984	0.985839844	0.476806641	882.36	-75.24889986	-0.512333873	-88.64398626	-62
9312	0	-0.000686646	-0.383950233	0.101049423	0.999999046	-0.000227928	9.53674E-05	0.000174522	-0.017166138	-9.598755836	2.52623558	-0.011396408	0.004768372	0.00872612	0.030517578	0.983642578	0.474365234	882.3	-75.27974341	-0.496994053	-88.6666827	-62
9313	0	-0.000793457	-0.382751465	0.100463867	0.999999046	0.000152588	7.34329E-05	7.62939E-06	-0.019836426	-9.568786621	2.51159668	0.007629395	0.003671646	0.00038147	0.030517578	0.983642578	0.474365234	882.26	-75.26696874	-0.500754693	-88.69173019	-62
9314	0	0.001199722	-0.378876686	0.099541664	0.999999046	2.86102E-05	-6.10352E-05	8.39233E-05	0.029993057	-9.471917152	2.488541603	0.001430511	-0.003051758	0.004196167	0.028076172	0.985839844	0.477050781	882.4	-75.26855161	-0.499975774	-88.69989877	-62
9315	0	0.001586914	-0.379272461	0.102172852	0.999999046	-0.000175476	-6.67572E-06	0.000118256	0.039672852	-9.481811523	2.554321289	-0.008773804	-0.000333786	0.005912781	0.030517578	0.983642578	0.477050781	882.42	-75.29343842	-0.493818527	-88.71270674	-62
9316	0	9.44138E-05	-0.379674911	0.101428986	0.999999046	2.00272E-05	9.53674E-06	8.39233E-05	0.002360344	-9.491872787	2.53572464	0.001001358	0.000476837	0.004196167	0.030517578	0.983642578	0.479980469	882.42	-75.2958691	-0.490977847	-88.72837022	-62
9317	0	-0.000183105	-0.38079834	0.101501465	0.999999046	-0.000198364	-1.04904E-05	0.000148773	-0.004577637	-9.519958496	2.537536621	-0.009918213	-0.000524521	0.00743866	0.030517578	0.983642578	0.477050781	882.38	-75.32333662	-0.481510018	-88.73994488	-62
9318	0	-5.05447E-05	-0.380961418	0.101044655	0.999999046	0.000156403	2.09808E-05	9.53674E-05	-0.001263618	-9.524035454	2.526116371	0.007820129	0.001049042	0.004768372	0.030517578	0.983642578	0.479980469	882.32	-75.31009039	-0.477028626	-88.7565864	-62
9319	0	-6.10352E-05	-0.379638672	0.101989746	0.999999046	7.62939E-06	-0.000113487	7.62939E-06	-0.001525879	-9.490966797	2.549743652	0.00038147	-0.005674362	0.00038147	0.030517578	0.983642578	0.477050781	882.38	-75.31395472	-0.48615855	-88.76084942	-62
9320	0	0.001298904	-0.379271507	0.10205555	0.999999046	4.76837E-06	-0.000139236	4.95911E-05	0.03247261	-9.481787682	2.551388741	0.000238419	-0.006961823	0.002479553	0.030517578	0.983642578	0.477050781	882.36	-75.31813699	-0.491390247	-88.76105411	-62
9321	0	-0.000244141	-0.380371094	0.100585938	0.999999046	-1.14441E-05	0.000138283	0.000106812	-0.006103516	-9.509277344	2.514648438	-0.000572205	0.006914139	0.005340576	0.028076172	0.983642578	0.474609375	882.42	-75.32391645	-0.482195117	-88.79062436	-62
9322	0	-0.000414848	-0.381533623	0.100515366	0.999999046	8.96454E-05	-7.05719E-05	3.05176E-05	-0.010371208	-9.538340569	2.51288414	0.004482269	-0.003528595	0.001525879	0.030517578	0.983642578	0.479980469	882.3	-75.31828764	-0.487495213	-88.79887189	-62
9323	0	0.000366211	-0.380065918	0.100036621	0.999999046	7.62939E-05	-0.00014019	9.15527E-05	0.009155273	-9.501647949	2.500915527	0.003814697	-0.007009506	0.004577637	0.028320313	0.981445313	0.477539063	882.36	-75.31426364	-0.488038667	-88.79795741	-62
9324	0	0.000203133	-0.379440308	0.102046967	0.999999046	5.24521E-05	-8.96454E-05	3.71933E-05	0.005078316	-9.48600769	2.551174164	0.002622604	-0.004482269	0.001859665	0.030517578	0.985839844	0.477050781	882.36	-75.31287077	-0.493124576	-88.80385514	-62
9325	0	0	-0.378356934	0.100341797	0.999999046	-0.000301361	-2.57492E-05	0.000171661	0	-9.45892334	2.508544922	-0.015068055	-0.00128746	0.008583069	0.030517578	0.983642578	0.474365234	882.4	-75.35197948	-0.481432569	-88.81300584	-62
9326	0	-0.000797272	-0.380371094	0.100783348	0.999999046	-0.000221252	3.62396E-05	0.000293732	-0.019931793	-9.509277344	2.519583702	-0.011062622	0.001811981	0.014686585	0.030517578	0.983642578	0.482666016	882.3	-75.3818649	-0.454384421	-88.82563135	-62
9327	0	-0.002380371	-0.382385254	0.100891113	0.999999046	-0.000167847	0.000100136	0.000202179	-0.059509277	-9.559631348	2.522277832	-0.008392334	0.00500679	0.010108948	0.028076172	0.981445313	0.480224609	882.44	-75.40554377	-0.435589061	-88.84830321	-62
9328	0	-0.002066612	-0.381626129	0.101922035	0.999999046	0.000164986	2.09808E-05	-9.15527E-05	-0.051665306	-9.540653229	2.54805088	0.008249283	0.001049042	-0.004577637	0.030517578	0.983642578	0.479980469	882.5	-75.39105027	-0.451605202	-88.87015829	-62
9329	0	-0.000366211	-0.377441406	0.100463867	0.999999046	-7.62939E-05	-0.000163078	-3.8147E-05	-0.009155273	-9.436035156	2.51159668	-0.003814697	-0.008153915	-0.001907349	0.030517578	0.981445313	0.479980469	882.32	-75.40434476	-0.466998361	-88.87011571	-62
9330	0	0.000916481	-0.381180763	0.100709915	0.999999046	-0.000114441	-0.000123978	0.000114441	0.022912025	-9.529519081	2.517747879	-0.005722046	-0.006198883	0.005722046	0.030517578	0.983642578	0.477050781	882.44	-75.42199213	-0.464345357	-88.87005446	-62
9331	0	-0.000976563	-0.379516602	0.099853516	0.999999046	-0.000343323	-6.67572E-06	0.000240326	-0.024414063	-9.487915039	2.496337891	-0.017166138	-0.000333786	0.012016297	0.030517578	0.983642578	0.477050781	882.38	-75.46577978	-0.444320597	-88.87944278	-62
9332	0	-0.001159668	-0.380981445	0.099853516	0.999999046	-0.000166893	-3.8147E-06	0.000148773	-0.028991699	-9.524536133	2.496337891	-0.00834465	-0.000190735	0.00743866	0.028076172	0.983642578	0.477294922	882.44	-75.48931643	-0.434343301	-88.89215731	-62
9333	0	-0.001270294	-0.382553101	0.099261284	0.999998093	-4.1008E-05	-1.52588E-05	-4.76837E-06	-0.031757355	-9.563827515	2.481532097	-0.0020504	-0.000762939	-0.000238419	0.030517578	0.981445313	0.479980469	882.42	-75.49841167	-0.441699558	-88.90749476	-62
9334	0	-0.000775337	-0.379505157	0.100473404	0.999999046	0.000272751	-0.000104904	-5.43594E-05	-0.01938343	-9.487628937	2.511835098	0.013637543	-0.005245209	-0.002717972	0.028076172	0.981445313	0.485595703	882.38	-75.47158041	-0.457106393	-88.91475056	-62
9335	0	0.00012207	-0.38104248	0.099487305	0.999999046	-0.000118256	-4.1008E-05	4.95911E-05	0.003051758	-9.526062012	2.487182617	-0.005912781	-0.0020504	0.002479553	0.028076172	0.983642578	0.479980469	882.48	-75.48951823	-0.459137707	-88.92595371	-62
9336	0	-0.000273705	-0.379723549	0.099884987	0.999999046	0.000117302	-0.000131607	0.000144005	-0.006842613	-9.493088722	2.497124672	0.005865097	-0.006580353	0.007200241	0.028076172	0.983642578	0.479980469	882.36	-75.48054511	-0.453283021	-88.92438031	-62
9337	0	-6.10352E-05	-0.377502441	0.099365234	0.999999046	4.19617E-05	7.34329E-05	9.15527E-05	-0.001525879	-9.437561035	2.484130859	0.002098084	0.003671646	0.004577637	0.028076172	0.983642578	0.479980469	882.32	-75.47999566	-0.447346409	-88.94700013	-62
9338	0	-2.38419E-05	-0.381462097	0.099640846	0.999999046	4.95911E-05	0.000192642	7.15256E-05	-0.000596046	-9.536552429	2.491021156	0.002479553	0.009632111	0.003576279	0.028076172	0.983642578	0.477294922	882.38	-75.47846388	-0.440196807	-88.98333253	-62
9339	0	0.000183105	-0.382995605	0.09765625	0.999999046	0.00012207	0.000123024	0.000144958	0.004577637	-9.574890137	2.44140625	0.006103516	0.006151199	0.007247925	0.030761719	0.981445313	0.477294922	882.38	-75.4687495	-0.426894372	-89.00935417	-62
9340	0	-0.001721382	-0.378515244	0.100616455	0.999999046	0.000296593	-3.24249E-05	3.05176E-05	-0.043034554	-9.462881088	2.515411377	0.014829636	-0.001621246	0.001525879	0.028076172	0.983642578	0.477294922	882.36	-75.43910349	-0.430712654	-89.02206321	-62
9341	0	-0.000854492	-0.379272461	0.100219727	0.999999046	-0.000370026	-5.62668E-05	3.8147E-06	-0.021362305	-9.481811523	2.505493164	-0.018501282	-0.002813339	0.000190735	0.028076172	0.981445313	0.482910156	882.42	-75.48583878	-0.438159311	-89.03285227	-61
9342	0	-0.00188446	-0.381361008	0.099449158	0.999999046	7.24792E-05	-7.82013E-05	5.24521E-05	-0.047111511	-9.534025192	2.486228943	0.003623962	-0.003910065	0.002622604	0.028076172	0.983642578	0.479980469	882.36	-75.48189269	-0.440802994	-89.03974463	-62
9343	0	-0.002746582	-0.379760742	0.100646973	0.999999046	0.000228882	-0.000155449	-0.000137329	-0.068664551	-9.494018555	2.516174316	0.011444092	-0.007772446	-0.006866455	0.028076172	0.983642578	0.479980469	882.42	-75.46001575	-0.466660651	-89.04345048	-62
9344	0	0.000805855	-0.379593849	0.098500252	0.999999046	0.000132561	-0.000165939	-0.000183105	0.02014637	-9.48984623	2.462506294	0.006628037	-0.008296967	-0.009155274	0.028076172	0.983642578	0.479980469	882.38	-75.44918325	-0.497903796	-89.04725097	-62
9345	0	0.002319336	-0.379516602	0.099182129	0.999999046	0.000106812	-0.000102043	4.19617E-05	0.057983398	-9.487915039	2.479553223	0.005340576	-0.005102158	0.002098084	0.028076172	0.983642578	0.479980469	882.5	-75.44129296	-0.502374609	-89.05169048	-62
9346	0	-0.001110077	-0.381814957	0.100667	0.999999046	-9.15527E-05	8.7738E-05	0.000121117	-0.027751923	-9.545373917	2.516674995	-0.004577637	0.004386902	0.006055832	0.028320313	0.981445313	0.477539063	882.36	-75.45595484	-0.492567747	-89.07484195	-62
9347	0	-0.000549316	-0.379760742	0.098510742	0.999999046	8.01086E-05	-0.000166893	7.62939E-05	-0.01373291	-9.494018555	2.462768555	0.004005432	-0.00834465	0.003814697	0.028076172	0.983642578	0.477294922	882.3	-75.45119013	-0.495041431	-89.07114844	-62
9348	0	0.00028038	-0.379562378	0.100646019	0.999999046	5.43594E-05	-0.000102997	0.000132561	0.007009506	-9.489059448	2.516150475	0.002717972	-0.005149841	0.006628037	0.025634766	0.983642578	0.480224609	882.42	-75.44929746	-0.489429018	-89.07347322	-62
9349	0	-0.000854492	-0.381286621	0.099609375	0.999999046	-0.000179291	4.29153E-05	0.000141144	-0.021362305	-9.532165527	2.490234375	-0.008964539	0.002145767	0.00705719	0.028076172	0.983642578	0.479980469	882.32	-75.47404816	-0.478640829	-89.09106649	-62
9350	0	-0.001581192	-0.38065052	0.098678589	0.999999046	6.86646E-05	6.67572E-05	6.86646E-05	-0.0395298	-9.516263008	2.466964722	0.003433228	0.00333786	0.003433228	0.025634766	0.981445313	0.48046875	882.38	-75.47035615	-0.475171828	-89.11391682	-62
9351	0	-0.000427246	-0.380126953	0.099365234	0.999999046	-3.8147E-05	7.34329E-05	4.57764E-05	-0.010681152	-9.503173828	2.484130859	-0.001907349	0.003671646	0.002288818	0.028320313	0.979248047	0.48046875	882.36	-75.47889371	-0.474034992	-89.1374206	-62
9352	0	-4.95911E-05	-0.380562782	0.101044655	0.999999046	-6.58035E-05	-0.000108719	0.000144005	-0.001239777	-9.514069557	2.526116371	-0.003290176	-0.005435944	0.007200241	0.025634766	0.981445313	0.48046875	882.3	-75.49075396	-0.467228812	-89.13862878	-62
9353	0	-0.000732422	-0.379760742	0.098937988	0.999999046	-0.00012207	-6.67572E-06	0.000156403	-0.018310547	-9.494018555	2.473449707	-0.006103516	-0.000333786	0.007820129	0.028076172	0.983642578	0.477294922	882.32	-75.50897685	-0.456099675	-89.15012592	-62
9354	0	-0.001338959	-0.381433487	0.099760056	0.999999046	-3.05176E-05	3.62396E-05	0.0001297	-0.033473969	-9.535837173	2.494001389	-0.001525879	0.001811981	0.006484985	0.025878906	0.981445313	0.477783203	882.34	-75.51665474	-0.446675715	-89.16774582	-62
9355	0	-0.001647949	-0.380310059	0.101318359	0.999999046	7.24792E-05	-5.24521E-05	3.43323E-05	-0.04119873	-9.507751465	2.532958984	0.003623962	-0.002622604	0.001716614	0.028076172	0.983642578	0.477294922	882.42	-75.51254605	-0.450341554	-89.1776217	-62
9356	0	-0.00093174	-0.378281593	0.099602699	0.999999046	-0.000281334	-5.34058E-05	0.000209808	-0.023293495	-9.457039833	2.490067482	-0.014066696	-0.002670288	0.010490418	0.028076172	0.983642578	0.479980469	882.36	-75.54899998	-0.434547364	-89.18253559	-62
9357	0	0.000427246	-0.383361816	0.098388672	0.999999046	-0.000339508	4.673E-05	0.00025177	0.010681152	-9.58404541	2.459716797	-0.016975403	0.002336502	0.012588501	0.025634766	0.981445313	0.48046875	882.48	-75.59206571	-0.411247804	-89.19806476	-62
9358	0	-0.003498077	-0.383062363	0.10020256	0.999999046	0.000102997	2.47955E-05	9.15527E-05	-0.087451935	-9.576559067	2.505064011	0.005149841	0.001239777	0.004577637	0.028076172	0.981445313	0.482910156	882.32	-75.58439661	-0.40629655	-89.21498477	-62
9359	0	-0.002502441	-0.379272461	0.09942627	0.999999046	0.000175476	-0.000159264	-9.53674E-05	-0.062561035	-9.481811523	2.485656738	0.008773804	-0.007963181	-0.004768372	0.028076172	0.981445313	0.480224609	882.42	-75.56850738	-0.427297105	-89.21677811	-62
9360	0	0.001202583	-0.379360199	0.099986076	0.999999046	1.62125E-05	-0.00021553	-3.05176E-05	0.030064583	-9.484004974	2.499651909	0.000810623	-0.01077652	-0.001525879	0.028076172	0.983642578	0.479980469	882.36	-75.57089885	-0.442732383	-89.2105228	-62
9361	0	0.000610352	-0.380432129	0.099060059	0.999999046	-2.67029E-05	4.76837E-06	0.00012207	0.015258789	-9.510803223	2.476501465	-0.001335144	0.000238419	0.006103516	0.028076172	0.981445313	0.480224609	882.36	-75.57804652	-0.434955434	-89.22441594	-62
9362	0	-0.00265789	-0.379948616	0.098062515	0.999999046	-0.000177383	-5.34058E-05	0.000170708	-0.066447258	-9.498715401	2.451562881	-0.008869171	-0.002670288	0.008535385	0.025878906	0.981445313	0.477783203	882.38	-75.60252676	-0.423394014	-89.23109706	-62
9363	0	-0.002258301	-0.381958008	0.098266602	0.999999046	-7.62939E-05	-0.00014019	3.8147E-05	-0.05645752	-9.548950195	2.456665039	-0.003814697	-0.007009506	0.001907349	0.028076172	0.981445313	0.482910156	882.38	-75.61547931	-0.428980072	-89.23124672	-62
9364	0	-0.000611305	-0.380448341	0.100039482	0.999999046	0.00014782	-0.000154495	-2.00272E-05	-0.015282631	-9.511208534	2.500987053	0.007390976	-0.007724762	-0.001001358	0.028076172	0.983642578	0.477294922	882.44	-75.60271842	-0.441422053	-89.23142356	-62
9365	0	-0.000793457	-0.381530762	0.100463867	0.999999046	6.48499E-05	-0.000109673	3.8147E-05	-0.019836426	-9.538269043	2.51159668	0.003242493	-0.005483627	0.001907349	0.025634766	0.983642578	0.477539063	882.42	-75.59940422	-0.446116359	-89.23564565	-62
9366	0	-0.000740051	-0.378710747	0.100146294	0.999999046	4.19617E-05	3.8147E-06	8.67844E-05	-0.018501282	-9.467768669	2.503657341	0.002098083	0.000190735	0.004339218	0.028320313	0.981445313	0.477539063	882.36	-75.59859185	-0.442164832	-89.2501684	-62
9367	0	-0.001159668	-0.38092041	0.099182129	0.999999046	5.34058E-05	-2.86102E-06	0.000144958	-0.028991699	-9.523010254	2.479553223	0.002670288	-0.000143051	0.007247925	0.028076172	0.981445313	0.482910156	882.36	-75.59647779	-0.431926128	-89.26253758	-62
9368	0	-0.001208305	-0.379933357	0.100442886	0.999999046	-0.000138283	-0.000125885	5.72205E-05	-0.030207634	-9.498333931	2.511072159	-0.006914139	-0.006294251	0.002861023	0.028076172	0.981445313	0.480224609	882.32	-75.61637823	-0.434912914	-89.26375741	-62
9369	0	-0.00189209	-0.379821777	0.100463867	0.999999046	-0.000484467	-0.000319481	0.000133514	-0.047302246	-9.495544434	2.51159668	-0.024223329	-0.015974046	0.006675721	0.025634766	0.983642578	0.480224609	882.4	-75.67608397	-0.434899125	-89.2421615	-62
9370	0	-0.001197815	-0.380833626	0.099118233	0.999999046	-0.000366211	-0.000421524	0.000216484	-0.029945374	-9.520840645	2.477955818	-0.018310548	-0.021076204	0.010824204	0.025634766	0.983642578	0.480224609	882.44	-75.72232087	-0.428522033	-89.20688824	-62
9371	0	-0.000488281	-0.38104248	0.096862793	0.999999046	-0.000167847	-0.000174522	8.01086E-05	-0.012207031	-9.526062012	2.421569824	-0.008392334	-0.00872612	0.004005432	0.028076172	0.981445313	0.482910156	882.36	-75.74561153	-0.430289501	-89.20202996	-62
9372	0	-0.000514984	-0.379916191	0.097772598	0.999999046	-2.57492E-05	5.91278E-05	0.000236511	-0.012874603	-9.497904778	2.444314957	-0.00128746	0.00295639	0.011825562	0.030517578	0.981445313	0.479980469	882.36	-75.75245727	-0.408088581	-89.21798308	-62
9373	0	-0.001159668	-0.381958008	0.098571777	0.999999046	-0.00019455	0.000130653	7.24792E-05	-0.028991699	-9.548950195	2.464294434	-0.009727478	0.006532669	0.003623962	0.025634766	0.981445313	0.483154297	882.32	-75.77854364	-0.402082896	-89.24825117	-62
9374	0	-0.004538536	-0.38303566	0.10342598	0.999999046	0.000104904	0.000165939	0.000106812	-0.113463402	-9.575891495	2.58564949	0.005245209	0.008296967	0.005340576	0.028076172	0.981445313	0.480224609	882.28	-75.77020654	-0.391196795	-89.28037125	-62
9375	0	-0.000427246	-0.378112793	0.096862793	0.999999046	-0.000328064	-0.000338554	-0.000244141	-0.010681152	-9.452819824	2.421569824	-0.016403199	-0.01692772	-0.012207032	0.028076172	0.981445313	0.485595703	882.32	-75.81180818	-0.433499624	-89.26629758	-62
9376	0	-0.002006531	-0.37805748	0.099789619	0.999999046	-0.000548363	-6.29425E-05	0.000236511	-0.050163269	-9.451436996	2.494740486	-0.027418138	-0.003147125	0.011825562	0.028076172	0.981445313	0.482910156	882.3	-75.87847141	-0.414628525	-89.26943705	-61
9377	0	-0.001953125	-0.379638672	0.097045898	0.999999046	-0.000572205	-0.000109673	0.000213623	-0.048828125	-9.490966797	2.426147461	-0.028610231	-0.005483628	0.010681153	0.028320313	0.976806641	0.483398438	882.32	-75.94789105	-0.399581072	-89.26807116	-62
9378	0	0.001077652	-0.383229256	0.096606255	0.999999046	-0.000619888	-3.8147E-05	3.8147E-05	0.026941299	-9.580731392	2.415156364	-0.030994417	-0.001907349	0.001907349	0.030517578	0.979248047	0.48828125	882.3	-76.02269435	-0.402087396	-89.27878979	-62
9379	0	-0.002258301	-0.384887695	0.096069336	0.999999046	0.000141144	0.00023365	0.000282288	-0.05645752	-9.622192383	2.401733398	0.00705719	0.011682511	0.01411438	0.027832031	0.981445313	0.490966797	882.44	-76.010146	-0.369894191	-89.31418436	-62
9380	0	-0.004045486	-0.381012917	0.098859787	0.999999046	-4.673E-05	9.91821E-05	0.000231743	-0.101137161	-9.525322914	2.471494675	-0.002336502	0.004959106	0.011587143	0.028076172	0.979248047	0.485839844	882.44	-76.0191783	-0.34698264	-89.33583254	-62
9381	0	-0.002868652	-0.379089355	0.098144531	0.999999046	0.00019455	-1.81198E-05	6.48499E-05	-0.071716309	-9.477233887	2.453613281	0.009727478	-0.000905991	0.003242493	0.030517578	0.979248047	0.48828125	882.3	-76.00057275	-0.345840584	-89.34812459	-62
9382	0	-0.00138855	-0.381065369	0.098231316	0.999999046	2.09808E-05	-0.000114441	3.43323E-05	-0.034713745	-9.526634216	2.45578289	0.001049042	-0.005722046	0.001716614	0.028076172	0.979248047	0.485839844	882.42	-76.00187539	-0.350753885	-89.35157018	-62
9383	0	-0.002502441	-0.381469727	0.095397949	0.999999046	3.05176E-05	0.000206947	0.000144958	-0.062561035	-9.536743164	2.38494873	0.001525879	0.010347366	0.007247925	0.030517578	0.979248047	0.485595703	882.38	-76.00191025	-0.334429351	-89.38664692	-62
9384	0	-0.004667282	-0.382439613	0.096090317	0.999999046	0.000170708	-0.000181198	5.72205E-05	-0.116682053	-9.560990334	2.402257919	0.008535385	-0.009059906	0.002861023	0.028076172	0.979248047	0.488525391	882.44	-75.98612779	-0.338554169	-89.38215106	-62
9385	0	-0.001831055	-0.380371094	0.097900391	0.999999046	4.57764E-05	-0.000239372	-3.43323E-05	-0.045776367	-9.509277344	2.447509766	0.002288818	-0.011968613	-0.001716614	0.025634766	0.981445313	0.488525391	882.3	-75.98464979	-0.354461723	-89.37457338	-62
9386	0	-0.000658989	-0.381766319	0.098423004	0.999999046	-1.52588E-05	-0.000146866	3.8147E-06	-0.016474724	-9.544157982	2.460575104	-0.000762939	-0.007343292	0.000190735	0.030517578	0.979248047	0.485595703	882.34	-75.99008085	-0.363567335	-89.37396539	-62
9387	0	-0.000915527	-0.381286621	0.096923828	0.999999046	0.000148773	-0.000102043	5.72205E-05	-0.022888184	-9.532165527	2.423095703	0.00743866	-0.005102158	0.002861023	0.028076172	0.981445313	0.485595703	882.3	-75.97667872	-0.365493953	-89.37803785	-61
9388	0	-0.002526283	-0.381258011	0.097403526	0.999999046	0.000267982	-4.57764E-05	0.000189781	-0.063157082	-9.531450272	2.435088158	0.013399124	-0.002288818	0.00948906	0.028076172	0.979248047	0.483154297	882.28	-75.9495833	-0.351089734	-89.38469262	-61
9389	0	-0.003295898	-0.380981445	0.096496582	0.999999046	0.000247955	6.58035E-05	0	-0.082397461	-9.524536133	2.412414551	0.012397766	0.003290176	0	0.028320313	0.979248047	0.48046875	882.36	-75.92467774	-0.354629832	-89.40873186	-61
9390	0	-0.002637863	-0.37818718	0.0977211	0.999999046	1.33514E-05	-0.000137329	4.95911E-05	-0.065946579	-9.454679489	2.443027496	0.000667572	-0.006866455	0.002479553	0.030517578	0.981445313	0.485351563	882.32	-75.92677551	-0.358284637	-89.40796718	-61
9391	0	-0.001037598	-0.381225586	0.096496582	0.999999046	-0.000270844	-0.00014019	0.000160217	-0.025939941	-9.530639648	2.412414551	-0.013542176	-0.007009506	0.008010864	0.028076172	0.979248047	0.488525391	882.42	-75.96146257	-0.349724882	-89.40516286	-61
9392	0	-0.002049446	-0.384696007	0.096715927	1	7.62939E-06	2.86102E-06	2.95639E-05	-0.051236153	-9.617400169	2.417898178	0.00038147	0.000143051	0.001478195	0.028076172	0.979248047	0.485839844	882.38	-75.96413336	-0.351695975	-89.42169848	-61
9393	0	-0.004821777	-0.38092041	0.097167969	0.999999046	0.000453949	-0.000208855	-4.57764E-05	-0.120544434	-9.523010254	2.429199219	0.02269745	-0.010442734	-0.002288818	0.028076172	0.979248047	0.485839844	882.36	-75.9157792	-0.367860782	-89.41671426	-61
9394	0	-0.001206398	-0.379611969	0.097207069	0.999999046	0.000139236	-0.000196457	-9.15527E-05	-0.03015995	-9.490299225	2.430176735	0.006961823	-0.009822846	-0.004577637	0.028076172	0.981445313	0.482910156	882.3	-75.90345949	-0.388768949	-89.4142269	-61
9395	0	-0.000183105	-0.379577637	0.096435547	0.999999046	-5.34058E-05	-0.000216484	-8.7738E-05	-0.004577637	-9.489440918	2.410888672	-0.002670288	-0.010824204	-0.004386902	0.025634766	0.981445313	0.485839844	882.38	-75.91323151	-0.409828466	-89.41049373	-61
9396	0	-0.002088547	-0.380809784	0.096700668	0.999999046	-3.71933E-05	-7.43866E-05	0.000137329	-0.052213669	-9.520244598	2.417516708	-0.001859665	-0.00371933	0.006866455	0.028076172	0.981445313	0.482910156	882.42	-75.9210841	-0.401884844	-89.41493692	-61
9397	0	-0.003356934	-0.381713867	0.096862793	0.999999046	9.15527E-05	-2.57492E-05	5.72205E-05	-0.08392334	-9.54284668	2.421569824	0.004577637	-0.00128746	0.002861023	0.028076172	0.981445313	0.482910156	882.34	-75.91413287	-0.40144288	-89.42701397	-61
9398	0	-0.003151894	-0.380719185	0.09833622	0.999999046	0.000141144	2.86102E-05	0.000117302	-0.07879734	-9.517979622	2.458405495	0.00705719	0.001430511	0.005865097	0.028076172	0.979248047	0.485839844	882.44	-75.90144197	-0.392762975	-89.44353111	-62
9399	0	-0.002746582	-0.381652832	0.096679688	0.999999046	0.0001297	5.81741E-05	3.05176E-05	-0.068664551	-9.541320801	2.416992188	0.006484985	0.002908707	0.001525879	0.028076172	0.981445313	0.485595703	882.38	-75.89003421	-0.392866444	-89.46566651	-61
9400	0	-0.002841949	-0.380834579	0.096533775	0.999999046	0.000304222	-0.000127792	-3.43323E-05	-0.071048737	-9.520864487	2.413344383	0.015211106	-0.006389618	-0.001716614	0.028076172	0.981445313	0.482910156	882.42	-75.85876593	-0.405335278	-89.46886399	-61
9401	0	-0.002319336	-0.381103516	0.097595215	0.999999046	0.000156403	-0.000258446	-2.67029E-05	-0.057983398	-9.527587891	2.439880371	0.00782013	-0.012922287	-0.001335144	0.025634766	0.981445313	0.483154297	882.32	-75.84453288	-0.420591442	-89.45864863	-61
9402	0	-0.003042221	-0.380768776	0.098203659	0.999999046	0.000207901	-0.000440598	-0.000144958	-0.076055527	-9.519219398	2.455091476	0.01039505	-0.022029878	-0.007247925	0.025634766	0.981445313	0.485839844	882.38	-75.82451441	-0.454058896	-89.43136843	-62
9403	0	-0.000549316	-0.378295898	0.097351074	0.999999046	0.000164032	-0.000384331	-0.000144958	-0.01373291	-9.457397461	2.433776855	0.008201599	-0.019216538	-0.007247925	0.028076172	0.981445313	0.482910156	882.34	-75.80947916	-0.485958102	-89.40877121	-62
9404	0	0.000308037	-0.380582809	0.09887886	0.999999046	0.000157356	3.8147E-05	0.000113487	0.00770092	-9.514570236	2.471971512	0.007867813	0.001907349	0.005674362	0.025878906	0.979248047	0.48046875	882.36	-75.79485274	-0.47729449	-89.42710852	-62
9405	0	-0.001586914	-0.380493164	0.097717285	0.999999046	0.000110626	-1.04904E-05	-3.05176E-05	-0.039672852	-9.512329102	2.442932129	0.005531311	-0.000524521	-0.001525879	0.023193359	0.981445313	0.48046875	882.36	-75.78558992	-0.4859738	-89.44537848	-62
9406	0	-0.002599716	-0.381387711	0.098594666	0.999999046	0.000213623	-0.000102997	7.62939E-06	-0.064992905	-9.534692764	2.464866638	0.010681152	-0.005149841	0.00038147	0.025634766	0.981445313	0.483154297	882.36	-75.76461039	-0.492975118	-89.45062398	-62
9407	0	-0.003112793	-0.378723145	0.09942627	0.999999046	-1.14441E-05	-0.000308037	7.24792E-05	-0.077819824	-9.468078613	2.485656738	-0.000572205	-0.01540184	0.003623962	0.025634766	0.981445313	0.48046875	882.32	-75.76959662	-0.498500994	-89.43130372	-62
9408	0	-0.002009392	-0.382998466	0.098991394	0.999999046	-0.000107765	-0.000301361	7.62939E-06	-0.050234795	-9.574961662	2.474784851	-0.00538826	-0.015068054	0.00038147	0.023193359	0.981445313	0.48046875	882.3	-75.78558791	-0.511012443	-89.41605351	-62
9409	0	-0.003662109	-0.383300781	0.101318359	0.999999046	0.000267029	-0.000418663	-0.000259399	-0.091552734	-9.582519531	2.532958984	0.013351441	-0.020933152	-0.012969971	0.025634766	0.983642578	0.477539063	882.36	-75.7586402	-0.556427502	-89.39326311	-62
9410	0	-0.002160072	-0.379891396	0.100851059	0.999999046	0.000242233	-0.000703812	-0.000545502	-0.054001808	-9.497284889	2.521276474	0.012111666	-0.035190587	-0.027275089	0.025634766	0.981445313	0.48046875	882.32	-75.734748	-0.641636889	-89.34660114	-62
9411	0	0.000244141	-0.381164551	0.099487305	0.999999046	0.000461578	-0.000502586	-0.000534058	0.006103516	-9.52911377	2.487182617	0.023078921	-0.025129321	-0.026702884	0.023193359	0.981445313	0.483154297	882.34	-75.68549846	-0.719913012	-89.32326463	-62
9412	0	0.002030373	-0.379729271	0.098614693	0.999999046	0.000344276	-0.000463486	-0.000431061	0.050759315	-9.493231773	2.465367317	0.017213823	-0.023174288	-0.021553041	0.025634766	0.983642578	0.480224609	882.34	-75.64969766	-0.785681822	-89.29917055	-62
9413	0	0.001159668	-0.379882813	0.09942627	0.999999046	0.000335693	-0.000231743	-0.000217438	0.028991699	-9.497070313	2.485656738	0.016784669	-0.011587143	-0.010871888	0.025634766	0.981445313	0.48046875	882.38	-75.61460887	-0.82115725	-89.29468134	-61
9414	0	0.00137043	-0.378351212	0.10022831	0.999999046	0.000255585	-0.000160217	-8.4877E-05	0.03426075	-9.458780289	2.505707741	0.012779236	-0.008010864	-0.004243851	0.023193359	0.983642578	0.477783203	882.36	-75.58860776	-0.839880588	-89.29605268	-62
9415	0	0	-0.379699707	0.098754883	0.999999046	0.000133514	-7.15256E-05	0.00012207	0	-9.492492676	2.46887207	0.00667572	-0.003576279	0.006103516	0.020751953	0.983642578	0.477783203	882.32	-75.57654169	-0.833074823	-89.30316614	-62
9416	0	-0.001543999	-0.380405426	0.099588394	0.999999046	-3.52859E-05	-9.91821E-05	3.43323E-05	-0.038599968	-9.510135651	2.489709854	-0.001764297	-0.004959106	0.001716614	0.020751953	0.983642578	0.477783203	882.36	-75.58382388	-0.836734684	-89.30943517	-62
9417	0	0.000671387	-0.382019043	0.099365234	0.999999046	-4.95911E-05	-0.000113487	-3.43323E-05	0.016784668	-9.550476074	2.484130859	-0.002479553	-0.005674362	-0.001716614	0.020751953	0.981445313	0.480712891	882.36	-75.59274628	-0.848405058	-89.31583248	-61
9418	0	0.002122879	-0.379282951	0.099081993	1	-3.71933E-05	-2.38419E-05	3.8147E-05	0.053071976	-9.482073784	2.477049828	-0.001859665	-0.001192093	0.001907349	0.023193359	0.983642578	0.48046875	882.4	-75.60013093	-0.849481878	-89.32798192	-62
9419	0	0.000793457	-0.37890625	0.10168457	0.999999046	2.28882E-05	8.4877E-05	0.000293732	0.019836426	-9.47265625	2.542114258	0.001144409	0.004243851	0.014686585	0.0234375	0.981445313	0.475097656	882.34	-75.60051397	-0.819076176	-89.34485622	-62
9420	0	0.001527786	-0.382260323	0.101091385	0.999999046	-1.04904E-05	0.000137329	0.000212669	0.038194656	-9.556508064	2.527284622	-0.000524521	0.006866455	0.010633469	0.020751953	0.983642578	0.477783203	882.44	-75.60459028	-0.796176273	-89.37217301	-62
9421	0	-0.000610352	-0.379882813	0.102294922	0.999999046	0.000167847	1.62125E-05	6.86646E-05	-0.015258789	-9.497070313	2.557373047	0.008392334	0.000810623	0.003433228	0.020996094	0.983642578	0.475097656	882.38	-75.58831058	-0.792671283	-89.38962496	-62
9422	0	-0.00060463	-0.377102852	0.101322174	0.999999046	-1.90735E-06	-0.00025177	7.24792E-05	-0.015115738	-9.427571297	2.533054352	-9.53674E-05	-0.012588501	0.003623962	0.020751953	0.983642578	0.477783203	882.44	-75.59184649	-0.796348859	-89.37751329	-62
9423	0	0.000854492	-0.378112793	0.101318359	0.999999046	-0.000267029	-0.000342369	6.86646E-05	0.021362305	-9.452819824	2.532958984	-0.013351441	-0.017118455	0.003433228	0.023193359	0.983642578	0.477783203	882.38	-75.62585751	-0.803016677	-89.35342983	-62
9424	0	-0.000412941	-0.383109093	0.097634315	0.999999046	-0.000117302	-0.000185013	7.53403E-05	-0.010323524	-9.577727318	2.440857887	-0.005865097	-0.009250641	0.003767014	0.020751953	0.983642578	0.477783203	882.36	-75.64250923	-0.804429707	-89.34884807	-62
9425	0	-0.001098633	-0.381408691	0.098510742	0.999999046	0.000209808	-0.000338554	-0.000274658	-0.02746582	-9.535217285	2.462768555	0.010490418	-0.01692772	-0.013732911	0.023193359	0.983642578	0.48046875	882.48	-75.62179597	-0.849013273	-89.33458497	-62
9426	0	0.002106667	-0.379229546	0.100438118	0.999999046	-0.000232697	-0.000440598	-0.000106812	0.052666664	-9.48073864	2.51095295	-0.011634827	-0.022029878	-0.005340576	0.023193359	0.983642578	0.477783203	882.34	-75.65201113	-0.877875007	-89.30418138	-62
9427	0	0.002868652	-0.379333496	0.098144531	0.999999046	0.000110626	-8.29697E-05	6.48499E-05	0.071716309	-9.483337402	2.453613281	0.005531311	-0.004148483	0.003242493	0.023193359	0.983642578	0.477783203	882.34	-75.64236747	-0.877537139	-89.30868061	-62
9428	0	0.002163887	-0.379556656	0.098044395	0.999999046	-0.000296593	-1.52588E-05	0.000221252	0.054097176	-9.488916397	2.451109886	-0.014829636	-0.000762939	0.011062622	0.020996094	0.981445313	0.478027344	882.42	-75.67935673	-0.857925136	-89.31856511	-62
9429	0	0.000732422	-0.381286621	0.098632813	0.999999046	7.62939E-05	8.10623E-05	0.000301361	0.018310547	-9.532165527	2.465820313	0.003814697	0.004053116	0.015068054	0.020751953	0.983642578	0.477783203	882.34	-75.67350441	-0.826672919	-89.33721066	-62
9430	0	0.000303268	-0.380478859	0.100704193	0.999999046	-4.95911E-05	0.000106812	0.000266075	0.007581711	-9.511971474	2.517604828	-0.002479553	0.005340576	0.013303757	0.020751953	0.983642578	0.48046875	882.42	-75.68199938	-0.798587275	-89.35980585	-62
9431	0	-0.002075195	-0.380432129	0.101013184	0.999999046	0.000114441	-3.71933E-05	8.01086E-05	-0.051879883	-9.510803223	2.52532959	0.005722046	-0.001859665	0.004005432	0.020996094	0.981445313	0.478027344	882.42	-75.67181433	-0.795168431	-89.37117066	-62
9432	0	-0.001641273	-0.38083744	0.098780632	0.999999046	-0.000119209	-0.000169754	-0.000106812	-0.041031837	-9.520936012	2.4695158	-0.005960465	-0.008487701	-0.005340576	0.020751953	0.983642578	0.48046875	882.36	-75.68853881	-0.816208688	-89.37301771	-62
9433	0	0.001403809	-0.380432129	0.098266602	0.999999046	0.000225067	-0.000460625	-0.000133514	0.035095215	-9.510803223	2.456665039	0.011253357	-0.023031236	-0.006675721	0.023193359	0.981445313	0.48046875	882.42	-75.66627772	-0.848459459	-89.34073615	-62
9434	0	0.00135231	-0.379654884	0.099350929	0.999999046	-6.48499E-05	-6.86646E-05	0.000217438	0.033807755	-9.491372108	2.483773232	-0.003242493	-0.003433228	0.010871887	0.020751953	0.983642578	0.477783203	882.36	-75.67673847	-0.83063466	-89.3447679	-62
9435	0	0.001464844	-0.380859375	0.098999023	0.999999046	0.000198364	5.05447E-05	0.000137329	0.036621094	-9.521484375	2.474975586	0.009918213	0.002527237	0.006866455	0.020751953	0.983642578	0.477783203	882.42	-75.65681538	-0.81832352	-89.36418163	-62
9436	0	0.000189781	-0.382163048	0.099332809	0.999999046	0.000319481	-9.53674E-06	0.000213623	0.00474453	-9.554076195	2.483320236	0.015974045	-0.000476837	0.010681153	0.020751953	0.983642578	0.477783203	882.34	-75.6231467	-0.799220764	-89.37486714	-62
9437	0	-6.10352E-05	-0.377685547	0.100524902	0.999999046	0.000141144	-0.000189781	0.000255585	-0.001525879	-9.442138672	2.513122559	0.00705719	-0.00948906	0.012779236	0.020751953	0.986083984	0.48046875	882.34	-75.61017324	-0.780566289	-89.36480366	-62
9438	0	-0.000218391	-0.381503105	0.100448608	0.999999046	-0.000144958	1.90735E-05	0.000171661	-0.005459785	-9.537577629	2.51121521	-0.007247925	0.000953674	0.008583069	0.023193359	0.983642578	0.477783203	882.38	-75.62962177	-0.765256582	-89.37745289	-62
9439	0	-0.001647949	-0.383178711	0.100891113	0.999999046	0.000328064	-3.71933E-05	1.14441E-05	-0.04119873	-9.579467773	2.522277832	0.016403199	-0.001859665	0.000572205	0.023193359	0.981445313	0.48046875	882.38	-75.59487324	-0.769283015	-89.38841566	-62
9440	0	-0.000307083	-0.38018322	0.101567268	0.999999046	0.00026226	-0.000169754	-7.24792E-05	-0.007677078	-9.504580498	2.539181709	0.013113022	-0.008487702	-0.003623962	0.020751953	0.983642578	0.477783203	882.42	-75.56779301	-0.786380926	-89.38955823	-62
9441	0	0.001342773	-0.377502441	0.101074219	0.999999046	0.000183105	-0.000170708	-3.8147E-06	0.033569336	-9.437561035	2.526855469	0.009155274	-0.008535385	-0.000190735	0.020751953	0.983642578	0.477783203	882.28	-75.54977341	-0.79589442	-89.38843217	-62
9442	0	0.000159264	-0.379053116	0.101029396	0.999999046	9.53674E-05	-7.24792E-05	0.000178337	0.00398159	-9.476327896	2.525734901	0.004768372	-0.003623962	0.008916855	0.020751953	0.983642578	0.48046875	882.44	-75.5417021	-0.782371089	-89.39321596	-61
9443	0	-0.00012207	-0.381164551	0.102172852	0.999999046	-0.000205994	0.000119209	9.15527E-05	-0.003051758	-9.52911377	2.554321289	-0.010299683	0.005960465	0.004577637	0.020751953	0.983642578	0.477783203	882.32	-75.56780793	-0.772978684	-89.42129045	-62
9444	0	0.000638008	-0.379741669	0.101100922	0.999999046	6.67572E-06	-7.43866E-05	0.000151634	0.015950203	-9.493541718	2.527523041	0.000333786	-0.00371933	0.007581711	0.023193359	0.983642578	0.477783203	882.44	-75.56983249	-0.762446543	-89.42323393	-62
9445	0	0.000305176	-0.382629395	0.102661133	0.999999046	2.67029E-05	-1.04904E-05	0.000148773	0.007629395	-9.565734863	2.56652832	0.001335144	-0.000524521	0.00743866	0.018554688	0.983642578	0.475341797	882.36	-75.56943184	-0.750406234	-89.43823086	-62
9446	0	-0.001393318	-0.381464958	0.100361824	0.999999046	0.000196457	-4.76837E-05	0.000109673	-0.034832954	-9.536623955	2.509045601	0.009822846	-0.002384186	0.005483627	0.020996094	0.983642578	0.475097656	882.42	-75.54961459	-0.743722188	-89.44684628	-62
9447	0	-0.001403809	-0.379333496	0.102416992	0.999999046	1.90735E-05	-0.000128746	-4.57764E-05	-0.035095215	-9.483337402	2.560424805	0.000953674	-0.006437302	-0.002288818	0.020996094	0.983642578	0.475097656	882.36	-75.55013451	-0.756566761	-89.45057323	-62
9448	0	0.000548363	-0.379574776	0.099683762	0.999999046	0.000102043	-0.000152588	-9.63211E-05	0.013709068	-9.489369392	2.49209404	0.005102158	-0.007629395	-0.004816055	0.020751953	0.983642578	0.477783203	882.3	-75.54116403	-0.775700373	-89.45313079	-62
9449	0	0.000793457	-0.380004883	0.100524902	0.999999046	7.24792E-05	-0.00014019	-0.000164032	0.019836426	-9.50012207	2.513122559	0.003623962	-0.007009506	-0.008201599	0.020996094	0.983642578	0.475097656	882.36	-75.53552476	-0.801991212	-89.45793485	-61
9450	0	0.000946045	-0.380051613	0.100640297	0.999999046	0.00018692	-9.53674E-05	2.95639E-05	0.023651123	-9.501290321	2.516007423	0.009346008	-0.004768372	0.001478195	0.018554688	0.983642578	0.475341797	882.32	-75.51677068	-0.805521135	-89.46544246	-61
9451	0	-0.000366211	-0.378723145	0.100341797	0.999999046	0.00012207	4.673E-05	0.000255585	-0.009155273	-9.468078613	2.508544922	0.006103516	0.002336502	0.012779236	0.023193359	0.983642578	0.477783203	882.36	-75.50530591	-0.779865722	-89.47601225	-62
9452	0	-0.001058578	-0.380346298	0.101777077	0.999999046	-0.000210762	2.28882E-05	0.000163078	-0.026464462	-9.508657455	2.544426918	-0.010538101	0.001144409	0.008153916	0.020996094	0.981445313	0.478027344	882.26	-75.53196502	-0.76512912	-89.48997444	-62
9453	0	0.000305176	-0.381347656	0.101074219	0.999999046	0.000179291	-2.95639E-05	6.10352E-05	0.007629395	-9.533691406	2.526855469	0.008964539	-0.001478195	0.003051758	0.020996094	0.983642578	0.475097656	882.36	-75.51395819	-0.763210913	-89.50076767	-62
