Counter	Temperature	VelInc_X	VelInc_Y	VelInc_Z	OriInc_w	OriInc_x	OriInc_y	OriInc_z	Acc_X	Acc_Y	Acc_Z	Gyr_X	Gyr_Y	Gyr_Z	Mag_X	Mag_Y	Mag_Z	Pressure	Roll	Pitch	Yaw	RSSI
57118	0	-0.16586113	-0.188940048	0.305468559	0.999999046	0.000368118	-0.000141144	-0.000103951	-4.146528244	-4.723501205	7.636713982	0.018405915	-0.00705719	-0.005197525	-0.145507813	0.851318359	-0.675048828	899.82	-31.90727152	23.88689325	-167.9812988	-68
57119	0	-0.166503906	-0.186523438	0.303894043	0.999999046	0.000202179	-0.00020504	-0.000156403	-4.162597656	-4.663085938	7.597351074	0.010108948	-0.010251999	-0.00782013	-0.145507813	0.849121094	-0.674804688	899.86	-31.89231791	23.86786341	-167.9801944	-68
57120	0	-0.165587425	-0.186146736	0.306173325	0.999999046	0.000210762	-0.000217438	-0.000126839	-4.139685631	-4.653668404	7.654333115	0.010538101	-0.010871887	-0.006341934	-0.145507813	0.851318359	-0.677734375	899.88	-31.87472289	23.84942034	-167.9722678	-68
57121	0	-0.16607666	-0.1875	0.306091309	0.999999046	0.000102997	-0.000151634	-7.62939E-06	-4.151916504	-4.6875	7.652282715	0.005149841	-0.007581711	-0.00038147	-0.145507813	0.849121094	-0.674804688	899.9	-31.86611574	23.84461237	-167.9557006	-68
57122	0	-0.164821625	-0.193055153	0.304777145	0.999999046	0.000494003	-0.000246048	-0.0001688	-4.120540619	-4.826378822	7.619428635	0.024700166	-0.012302399	-0.008440018	-0.147949219	0.849121094	-0.677490234	899.82	-31.81720819	23.82085009	-167.9530167	-68
57123	0	-0.16583252	-0.185119629	0.306213379	0.999999046	0.000831604	-0.000247002	-4.95911E-05	-4.145812988	-4.627990723	7.655334473	0.041580205	-0.012350084	-0.002479554	-0.145507813	0.849121094	-0.677490234	899.82	-31.7244252	23.80421952	-167.9289237	-68
57124	0	-0.164381027	-0.184322357	0.305991173	0.999999046	0.000174522	-0.000295639	-8.39233E-05	-4.109525681	-4.608058929	7.64977932	0.00872612	-0.014781952	-0.004196167	-0.145507813	0.849121094	-0.674804688	899.86	-31.7070705	23.78077431	-167.8973876	-68
57125	0	-0.166259766	-0.186645508	0.306030273	0.999999046	4.19617E-05	-0.000239372	-4.95911E-05	-4.156494141	-4.666137695	7.650756836	0.002098084	-0.011968613	-0.002479553	-0.147949219	0.849121094	-0.677490234	899.84	-31.70492664	23.76491903	-167.8735898	-68
57126	0	-0.164813042	-0.187186241	0.306612968	0.999999046	9.15527E-05	-0.000247955	-3.91006E-05	-4.120326042	-4.679656029	7.665324211	0.004577637	-0.012397766	-0.001955032	-0.147705078	0.846923828	-0.679931641	899.84	-31.69647488	23.74888485	-167.8612726	-68
57127	0	-0.165588379	-0.18762207	0.305908203	0.999999046	0.000240326	-0.000185966	-4.57764E-05	-4.139709473	-4.690551758	7.647705078	0.012016297	-0.009298325	-0.002288818	-0.147705078	0.846923828	-0.677246094	899.88	-31.67290339	23.73849547	-167.8446521	-68
57128	0	-0.165213585	-0.186452866	0.305936813	0.999999046	0.000138283	-0.000282288	1.90735E-05	-4.130339622	-4.66132164	7.648420334	0.006914139	-0.01411438	0.000953674	-0.150146484	0.849121094	-0.677246094	899.96	-31.65564869	23.72260828	-167.8066795	-68
57129	0	-0.164367676	-0.187194824	0.3046875	0.999999046	0.000171661	-0.000174522	-3.8147E-05	-4.109191895	-4.679870605	7.6171875	0.008583069	-0.00872612	-0.001907349	-0.150146484	0.849121094	-0.679931641	899.86	-31.63991652	23.71380938	-167.7872287	-68
57130	0	-0.16473484	-0.186065674	0.305418968	0.999999046	0.000318527	-0.000207901	-0.000195503	-4.11837101	-4.651641846	7.635474205	0.015926362	-0.01039505	-0.009775162	-0.150146484	0.844726563	-0.676757813	899.88	-31.61326535	23.69233492	-167.7877065	-68
57131	0	-0.164306641	-0.185424805	0.305847168	0.999999046	0.000183105	-0.000311852	-5.34058E-05	-4.107666016	-4.635620117	7.646179199	0.009155274	-0.015592575	-0.002670288	-0.150146484	0.849121094	-0.677246094	899.86	-31.59323271	23.66923116	-167.7495903	-68
57132	0	-0.164644241	-0.185635567	0.306933403	0.999999046	0.000161171	-0.000202179	3.33786E-05	-4.116106033	-4.640889168	7.673335075	0.008058548	-0.010108948	0.00166893	-0.152587891	0.846923828	-0.679443359	899.88	-31.57490432	23.66207548	-167.7229369	-68
57133	0	-0.163513184	-0.186035156	0.30682373	0.999999046	-7.62939E-06	-0.000117302	6.10352E-05	-4.08782959	-4.650878906	7.670593262	-0.00038147	-0.005865097	0.003051758	-0.150146484	0.846923828	-0.6796875	899.92	-31.57698719	23.66486247	-167.6989996	-68
57134	0	-0.163952827	-0.187241554	0.305516243	0.999999046	0.000211716	-0.000116348	-9.53674E-07	-4.098820686	-4.681038857	7.637906075	0.010585785	-0.005817413	-4.76837E-05	-0.147705078	0.846923828	-0.679931641	899.92	-31.55665968	23.66402811	-167.6797822	-68
57135	0	-0.164306641	-0.186523438	0.306640625	0.999999046	0.000167847	-0.000189781	1.90735E-05	-4.107666016	-4.663085938	7.666015625	0.008392334	-0.00948906	0.000953674	-0.150146484	0.846923828	-0.6796875	899.86	-31.53856057	23.65722256	-167.6525315	-68
57136	0	-0.164442062	-0.18543911	0.304995537	0.999999046	2.57492E-05	-0.000162125	-2.28882E-05	-4.111051559	-4.635977745	7.62488842	0.00128746	-0.008106232	-0.001144409	-0.149902344	0.844726563	-0.679443359	899.94	-31.53931562	23.65064344	-167.6391156	-68
57137	0	-0.164611816	-0.185546875	0.307739258	0.999999046	0.000152588	-0.000304222	4.57764E-05	-4.11529541	-4.638671875	7.693481445	0.007629395	-0.015211106	0.002288818	-0.152587891	0.846923828	-0.679443359	899.96	-31.51879532	23.63428269	-167.6003384	-68
57138	0	-0.163832664	-0.187392235	0.306003571	0.999999046	2.67029E-05	-0.000247955	0.000160217	-4.095816612	-4.68480587	7.650089264	0.001335144	-0.012397766	0.008010864	-0.15234375	0.844726563	-0.682128906	899.94	-31.50937918	23.63030188	-167.5681121	-68
57139	0	-0.163879395	-0.18762207	0.307189941	0.999999046	0.000484467	-0.000136375	-0.000110626	-4.096984863	-4.690551758	7.679748535	0.024223329	-0.006818772	-0.005531311	-0.152587891	0.846923828	-0.679443359	899.92	-31.46196974	23.62096053	-167.5524418	-69
57140	0	-0.163694382	-0.182723045	0.306251526	0.999999046	0.000325203	-0.000173569	-7.62939E-05	-4.092359543	-4.568076134	7.656288147	0.016260147	-0.008678436	-0.003814697	-0.149902344	0.844726563	-0.682128906	899.84	-31.43040002	23.61009611	-167.5421037	-68
57141	0	-0.163757324	-0.185546875	0.307189941	0.999999046	-1.52588E-05	-0.000239372	1.90735E-05	-4.093933105	-4.638671875	7.679748535	-0.000762939	-0.011968613	0.000953674	-0.15234375	0.844726563	-0.684570313	899.84	-31.43205294	23.59850784	-167.5241692	-68
57142	0	-0.164471626	-0.185306549	0.307994843	0.999999046	6.67572E-05	-0.000139236	-1.62125E-05	-4.111790657	-4.632663727	7.699871063	0.00333786	-0.006961823	-0.000810623	-0.15234375	0.844726563	-0.684570313	899.9	-31.42841805	23.59461161	-167.5155973	-68
57143	0	-0.163513184	-0.187011719	0.307678223	0.999999046	-2.67029E-05	-0.000281334	2.28882E-05	-4.08782959	-4.675292969	7.691955566	-0.001335144	-0.014066696	0.001144409	-0.15234375	0.844726563	-0.682128906	899.88	-31.43012658	23.57913788	-167.4877599	-68
57144	0	-0.163288116	-0.185129166	0.306783676	0.999999046	-3.52859E-05	-0.000188828	-7.62939E-06	-4.082202911	-4.628229141	7.669591904	-0.001764297	-0.009441376	-0.00038147	-0.15234375	0.846923828	-0.682128906	899.84	-31.43649903	23.570869	-167.4613796	-68
57145	0	-0.163330078	-0.187011719	0.307495117	0.999999046	-0.000118256	-0.000136375	0.000167847	-4.083251953	-4.675292969	7.68737793	-0.005912781	-0.006818771	0.008392334	-0.15234375	0.844726563	-0.682128906	899.88	-31.44632597	23.57822866	-167.429685	-68
57146	0	-0.164224625	-0.185870171	0.306946754	1	-1.23978E-05	-8.4877E-05	1.04904E-05	-4.105615616	-4.646754265	7.673668861	-0.000619888	-0.004243851	0.000524521	-0.152587891	0.846923828	-0.679443359	899.88	-31.4520323	23.58119889	-167.4035344	-68
57147	0	-0.16394043	-0.185546875	0.306945801	0.999999046	-0.00025177	-0.000163078	8.39233E-05	-4.098510742	-4.638671875	7.67364502	-0.012588501	-0.008153916	0.004196167	-0.15234375	0.846923828	-0.682128906	899.96	-31.4800261	23.58094245	-167.3739734	-68
57148	0	-0.163444519	-0.186346054	0.307454109	0.999999046	-4.86374E-05	-0.000123978	0.000182152	-4.086112976	-4.658651352	7.68635273	-0.00243187	-0.006198883	0.00910759	-0.152587891	0.846923828	-0.679443359	899.92	-31.48156039	23.59036893	-167.330949	-68
57149	0	-0.163208008	-0.184692383	0.307922363	0.999999046	-0.000347137	-7.53403E-05	0.000160217	-4.080200195	-4.61730957	7.698059082	-0.017356873	-0.003767014	0.008010864	-0.15234375	0.846923828	-0.682128906	899.88	-31.51950966	23.60324884	-167.3037621	-68
57150	0	-0.163099289	-0.187478065	0.306717873	0.999999046	-0.000293732	-1.33514E-05	0.000236511	-4.077482224	-4.686951637	7.667946815	-0.014686585	-0.000667572	0.011825562	-0.15234375	0.846923828	-0.682128906	899.88	-31.54974237	23.62674845	-167.2755317	-68
57151	0	-0.163513184	-0.186340332	0.305603027	0.999999046	-0.00019455	-4.86374E-05	0.000267029	-4.08782959	-4.658508301	7.640075684	-0.009727478	-0.00243187	0.013351441	-0.152587891	0.846923828	-0.677001953	899.88	-31.56636366	23.64861792	-167.2313844	-68
57152	0	-0.163521767	-0.186128616	0.306645393	0.999999046	-0.000216484	-1.14441E-05	0.00018692	-4.088044167	-4.653215408	7.666134834	-0.010824204	-0.000572205	0.009346008	-0.152587891	0.846923828	-0.677001953	899.92	-31.58990441	23.66931291	-167.2007783	-68
57153	0	-0.16394043	-0.186706543	0.305847168	0.999999046	-0.000350952	-9.44138E-05	0.000167847	-4.098510742	-4.667663574	7.646179199	-0.017547608	-0.004720688	0.008392334	-0.150146484	0.846923828	-0.6796875	899.82	-31.62755245	23.68079043	-167.1763867	-68
57154	0	-0.164433479	-0.186927795	0.306174278	0.999999046	-0.000286102	-9.72748E-05	0.000308037	-4.110836983	-4.673194885	7.654356956	-0.014305115	-0.004863739	0.015401841	-0.150146484	0.849121094	-0.677246094	899.84	-31.65165388	23.70039846	-167.1256217	-68
57155	0	-0.16394043	-0.18572998	0.307006836	0.999999046	-0.000232697	8.58307E-06	0.000358582	-4.098510742	-4.643249512	7.675170898	-0.011634827	0.000429153	0.017929078	-0.150146484	0.846923828	-0.674316406	899.9	-31.67025699	23.73338207	-167.0804203	-68
57156	0	-0.165240288	-0.187707901	0.305634499	0.999999046	-0.000372887	1.52588E-05	0.000365257	-4.131007195	-4.692697525	7.640862465	-0.018644334	0.000762939	0.018262864	-0.150146484	0.849121094	-0.679931641	900.02	-31.70483822	23.76745012	-167.0445175	-68
57157	0	-0.16418457	-0.190368652	0.304870605	0.999999046	3.43323E-05	5.43594E-05	0.000202179	-4.104614258	-4.759216309	7.621765137	0.001716614	0.002717972	0.010108948	-0.145507813	0.849121094	-0.674804688	899.94	-31.70086264	23.7954824	-167.0144637	-68
57158	0	-0.165574074	-0.183811188	0.305170059	0.999999046	0.000209808	7.82013E-05	0.000286102	-4.139351845	-4.595279694	7.62925148	0.010490418	0.003910065	0.014305115	-0.147949219	0.849121094	-0.677490234	899.9	-31.67374102	23.83092278	-166.9830473	-68
57159	0	-0.164978027	-0.185913086	0.306152344	0.999999046	-0.00050354	5.05447E-05	0.000236511	-4.124450684	-4.647827148	7.653808594	-0.025177003	0.002527237	0.011825562	-0.147949219	0.851318359	-0.675048828	899.88	-31.72970837	23.86066043	-166.9459902	-68
57160	0	-0.165951729	-0.187363625	0.305885315	0.999999046	-0.000226021	1.33514E-05	0.000250816	-4.148793221	-4.684090614	7.647132874	-0.011301041	0.000667572	0.012540817	-0.147949219	0.851318359	-0.677490234	899.88	-31.75229976	23.88766079	-166.9137783	-68
57161	0	-0.165405273	-0.189208984	0.305358887	0.999999046	-0.000408173	2.76566E-05	0.000209808	-4.135131836	-4.730224609	7.633972168	-0.020408631	0.001382828	0.010490418	-0.145751953	0.853515625	-0.677978516	899.88	-31.79795556	23.9135694	-166.8834625	-68
57162	0	-0.165317535	-0.188229561	0.304829597	0.999999046	-0.000123978	2.86102E-05	0.000293732	-4.132938385	-4.705739021	7.620739937	-0.006198883	0.001430511	0.014686585	-0.145507813	0.851318359	-0.675048828	899.94	-31.8074934	23.9446418	-166.8470003	-67
57163	0	-0.16595459	-0.187561035	0.30456543	0.999999046	-0.000347137	2.00272E-05	0.000328064	-4.148864746	-4.689025879	7.614135742	-0.017356873	0.001001358	0.016403199	-0.147949219	0.851318359	-0.672363281	899.82	-31.84086823	23.9769509	-166.8041961	-68
57164	0	-0.166700363	-0.187480927	0.304367065	0.999999046	-0.000361443	5.34058E-05	0.000225067	-4.167509079	-4.687023163	7.609176636	-0.018072129	0.002670288	0.011253357	-0.145507813	0.851318359	-0.675048828	899.9	-31.88129894	24.00632535	-166.7842637	-68
57165	0	-0.166870117	-0.1875	0.305114746	0.999999046	-0.000469208	6.96182E-05	0.000190735	-4.17175293	-4.6875	7.627868652	-0.023460389	0.003480911	0.009536744	-0.143310547	0.853515625	-0.672851563	899.88	-31.93598657	24.03519158	-166.7593261	-68
57166	0	-0.166861534	-0.186929703	0.304733276	0.999999046	-0.000310898	-4.76837E-05	0.00026226	-4.171538353	-4.673242569	7.618331909	-0.015544892	-0.002384186	0.013113022	-0.143554688	0.855712891	-0.672851563	899.88	-31.96621686	24.05698433	-166.7144299	-67
57167	0	-0.166381836	-0.188171387	0.30480957	0.999999046	-0.000461578	-0.000102043	0.000297546	-4.159545898	-4.704284668	7.620239258	-0.02307892	-0.005102158	0.01487732	-0.143554688	0.855712891	-0.672851563	899.84	-32.0107232	24.0756453	-166.6672436	-68
57168	0	-0.165333748	-0.189515114	0.304973602	0.999999046	-0.000372887	0.000196457	0.000289917	-4.133343697	-4.737877846	7.624340057	-0.018644334	0.009822846	0.01449585	-0.143554688	0.855712891	-0.667724609	899.84	-32.05349388	24.12280387	-166.6322006	-67
57169	0	-0.167907715	-0.188598633	0.302734375	0.999999046	-0.000148773	1.62125E-05	0.000324249	-4.197692871	-4.71496582	7.568359375	-0.00743866	0.000810623	0.016212464	-0.143554688	0.855712891	-0.672851563	899.88	-32.06424226	24.15459432	-166.5963855	-67
57170	0	-0.166819572	-0.189374924	0.3042593	0.999999046	-0.000347137	3.43323E-05	0.000212669	-4.170489311	-4.734373093	7.606482506	-0.017356873	0.001716614	0.010633469	-0.141113281	0.855712891	-0.670410156	899.78	-32.10310258	24.18134518	-166.5704421	-67
57171	0	-0.16796875	-0.187927246	0.30255127	0.999999046	-0.000152588	-2.19345E-05	6.10352E-05	-4.19921875	-4.698181152	7.563781738	-0.007629395	-0.001096725	0.003051758	-0.141357422	0.860107422	-0.670898438	899.84	-32.12467636	24.19338595	-166.543619	-67
57172	0	-0.167917252	-0.187999725	0.303538322	0.999999046	-0.00032711	9.53674E-06	0.000171661	-4.19793129	-4.699993134	7.588458061	-0.016355515	0.000476837	0.008583069	-0.141113281	0.855712891	-0.673095703	899.8	-32.16239108	24.21528663	-166.5323281	-67
57173	0	-0.168762207	-0.18951416	0.30291748	0.999999046	-0.000156403	1.62125E-05	0.000301361	-4.219055176	-4.737854004	7.572937012	-0.00782013	0.000810623	0.015068054	-0.141113281	0.855712891	-0.670410156	899.9	-32.17507086	24.24575731	-166.5024977	-67
57174	0	-0.167484283	-0.192926407	0.30193615	0.999999046	9.34601E-05	-4.76837E-05	0.00020504	-4.187107086	-4.823160172	7.54840374	0.004673004	-0.002384186	0.010251999	-0.138916016	0.857910156	-0.670898438	899.94	-32.16162955	24.26412374	-166.4704848	-67
57175	0	-0.166992188	-0.185668945	0.303283691	0.999999046	0.000423431	8.58307E-06	0.000202179	-4.174804688	-4.641723633	7.582092285	0.021171571	0.000429153	0.010108948	-0.138671875	0.855712891	-0.670654297	899.9	-32.11201169	24.2877795	-166.4464211	-67
57176	0	-0.167622566	-0.187113762	0.304476738	0.999999046	-0.000172615	-6.48499E-05	2.67029E-05	-4.190564156	-4.677844048	7.611918449	-0.008630753	-0.003242493	0.001335144	-0.138916016	0.857910156	-0.668212891	899.86	-32.13627478	24.29358021	-166.4238568	-67
57177	0	-0.168518066	-0.187561035	0.302978516	0.999999046	9.91821E-05	-0.000155449	-3.8147E-05	-4.21295166	-4.689025879	7.574462891	0.004959106	-0.007772446	-0.001907349	-0.136474609	0.857910156	-0.668457031	899.84	-32.12975105	24.28665429	-166.4016179	-67
57178	0	-0.167860031	-0.188979149	0.30257988	0.999999046	-6.86646E-05	-0.000213623	5.72205E-05	-4.196500778	-4.724478722	7.564496994	-0.003433228	-0.010681152	0.002861023	-0.136474609	0.857910156	-0.668457031	899.88	-32.13670848	24.27989835	-166.3666738	-67
57179	0	-0.168273926	-0.190124512	0.303161621	0.999999046	0.000385284	-0.000220299	-6.48499E-05	-4.206848145	-4.753112793	7.579040527	0.019264222	-0.011014939	-0.003242493	-0.138916016	0.857910156	-0.668212891	899.84	-32.09680769	24.26504478	-166.3413776	-67
57180	0	-0.168237686	-0.187777519	0.303074837	0.999999046	-2.86102E-06	-0.000364304	-7.62939E-06	-4.205942154	-4.694437981	7.576870918	-0.000143051	-0.01821518	-0.00038147	-0.138671875	0.855712891	-0.670654297	899.94	-32.09499313	24.23974274	-166.3150085	-67
57181	0	-0.168457031	-0.190429688	0.303955078	0.999999046	0.000263214	-0.000174522	-0.000114441	-4.211425781	-4.760742188	7.598876953	0.013160706	-0.00872612	-0.005722046	-0.141113281	0.857910156	-0.673339844	899.78	-32.0725458	24.22634921	-166.3093229	-68
57182	0	-0.167392731	-0.187501907	0.302159309	0.999999046	0.00034523	-0.00021553	-0.000149727	-4.184818268	-4.687547684	7.553982735	0.017261506	-0.01077652	-0.007486344	-0.138916016	0.857910156	-0.670898438	899.8	-32.04111866	24.20683181	-166.2949692	-67
57183	0	-0.169006348	-0.18737793	0.303710938	0.999999046	9.15527E-05	-0.000281334	-8.39233E-05	-4.225158691	-4.684448242	7.592773438	0.004577637	-0.014066696	-0.004196167	-0.138671875	0.855712891	-0.670654297	899.84	-32.03412021	24.18497627	-166.2762506	-67
57184	0	-0.167399406	-0.18667984	0.304571152	0.999999046	0.000214577	-0.000190735	6.38962E-05	-4.184985161	-4.666996002	7.614278793	0.010728836	-0.009536743	0.003194809	-0.138671875	0.855712891	-0.673339844	899.84	-32.00902875	24.18091648	-166.2527565	-67
57185	0	-0.166625977	-0.189453125	0.305236816	0.999999046	0.000114441	-0.000193596	-3.43323E-05	-4.165649414	-4.736328125	7.63092041	0.005722046	-0.009679794	-0.001716614	-0.138671875	0.855712891	-0.673339844	899.94	-31.999631	24.17058324	-166.2385045	-67
57186	0	-0.167593956	-0.189395905	0.303391457	0.999999046	0.000379562	-0.000146866	-0.000161171	-4.1898489	-4.734897614	7.584786415	0.01897812	-0.007343292	-0.008058548	-0.141113281	0.855712891	-0.670410156	899.88	-31.96664028	24.1570757	-166.2309223	-67
57187	0	-0.168029785	-0.187316895	0.303710938	0.999999046	0.000213623	-0.000250816	-3.8147E-05	-4.200744629	-4.682922363	7.592773438	0.010681153	-0.012540817	-0.001907349	-0.140869141	0.853515625	-0.672851563	899.82	-31.94452759	24.14098103	-166.2157633	-67
57188	0	-0.167434692	-0.188481331	0.305461884	0.999999046	0.000144005	-0.000253677	-0.000160217	-4.18586731	-4.712033272	7.636547089	0.007200241	-0.012683869	-0.008010864	-0.141113281	0.855712891	-0.673095703	899.88	-31.93559324	24.1171834	-166.2045595	-68
57189	0	-0.16809082	-0.18572998	0.303894043	0.999999046	0.000389099	-0.000288963	-0.000137329	-4.202270508	-4.643249512	7.597351074	0.019454957	-0.014448167	-0.006866455	-0.138671875	0.853515625	-0.673095703	899.9	-31.89664277	24.09139525	-166.1925583	-67
57190	0	-0.167434692	-0.191460609	0.304445267	0.999999046	6.48499E-05	-0.000295639	-4.95911E-05	-4.18586731	-4.786515236	7.611131668	0.003242493	-0.014781952	-0.002479553	-0.140869141	0.853515625	-0.672851563	900	-31.89090453	24.07026334	-166.1704415	-68
57191	0	-0.165893555	-0.189453125	0.306091309	0.999999046	0.00075531	-0.000163078	-0.000247955	-4.147338867	-4.736328125	7.652282715	0.037765507	-0.008153916	-0.012397767	-0.140869141	0.853515625	-0.675537109	899.96	-31.81826646	24.0500069	-166.1778062	-68
57192	0	-0.166618347	-0.183950424	0.304042816	0.999999046	0.000565529	-0.000335693	-0.000102997	-4.165458679	-4.598760605	7.601070404	0.028276446	-0.016784669	-0.005149842	-0.140869141	0.851318359	-0.677978516	899.82	-31.75642724	24.02176451	-166.1672335	-68
57193	0	-0.166503906	-0.187561035	0.307678223	0.999999046	0.000278473	-0.000372887	-0.000278473	-4.162597656	-4.689025879	7.691955566	0.013923646	-0.018644334	-0.013923646	-0.140869141	0.851318359	-0.675537109	899.84	-31.73406825	23.97929046	-166.1639667	-68
57194	0	-0.166234016	-0.185714722	0.304548264	0.999999046	0.000242233	-0.000299454	-0.000279427	-4.15585041	-4.642868042	7.613706589	0.012111664	-0.014972687	-0.013971329	-0.143310547	0.851318359	-0.672607422	899.86	-31.71780852	23.94391567	-166.1570363	-68
57195	0	-0.166015625	-0.189758301	0.305175781	0.999999046	0.000152588	-0.000254631	-0.000190735	-4.150390625	-4.74395752	7.629394531	0.007629395	-0.012731552	-0.009536743	-0.143066406	0.851318359	-0.677978516	899.82	-31.70926922	23.91827368	-166.1555343	-68
57196	0	-0.166093826	-0.186249733	0.30537796	0.999999046	0.00036335	-0.000377655	-0.000119209	-4.152345657	-4.656243324	7.634449005	0.018167497	-0.018882752	-0.005960465	-0.143310547	0.851318359	-0.675292969	899.9	-31.67016372	23.88494204	-166.1286143	-68
57197	0	-0.16607666	-0.188049316	0.305236816	0.999999046	9.15527E-05	-0.000330925	-3.43323E-05	-4.151916504	-4.70123291	7.63092041	0.004577637	-0.01654625	-0.001716614	-0.143066406	0.849121094	-0.675048828	899.94	-31.6598614	23.86130122	-166.1028323	-68
57198	0	-0.166045189	-0.187028885	0.30477047	0.999999046	0.000421524	-0.000225067	-0.000130653	-4.151129723	-4.675722122	7.619261742	0.021076203	-0.011253357	-0.006532669	-0.145507813	0.849121094	-0.680175781	899.9	-31.61874469	23.8422258	-166.1036574	-68
57199	0	-0.165466309	-0.185974121	0.305908203	0.999999046	0.000331879	-0.000197411	-0.000259399	-4.136657715	-4.649353027	7.647705078	0.016593934	-0.00987053	-0.012969971	-0.147949219	0.851318359	-0.677490234	900.02	-31.59409096	23.81809293	-166.1027905	-68
57200	0	-0.164516449	-0.185246468	0.306401253	0.999999046	0.000206947	-0.000289917	-0.000137329	-4.112911224	-4.63116169	7.660031319	0.010347367	-0.01449585	-0.006866455	-0.145507813	0.849121094	-0.680175781	899.88	-31.57609581	23.79229324	-166.0950059	-68
57201	0	-0.16394043	-0.187133789	0.305908203	0.999999046	5.34058E-05	-0.000247002	-7.24792E-05	-4.098510742	-4.678344727	7.647705078	0.002670288	-0.012350083	-0.003623962	-0.147949219	0.849121094	-0.677490234	899.9	-31.57401847	23.77454205	-166.0769456	-68
57202	0	-0.164616585	-0.188040733	0.306375504	0.999999046	0.000276566	-0.00019455	-0.000149727	-4.115414619	-4.701018333	7.659387589	0.013828278	-0.009727478	-0.007486344	-0.147949219	0.849121094	-0.677490234	899.9	-31.5510999	23.757266	-166.0682138	-68
57203	0	-0.165283203	-0.18560791	0.304748535	0.999999046	0.000305176	-0.000121117	-0.000118256	-4.132080078	-4.640197754	7.618713379	0.015258789	-0.006055832	-0.005912781	-0.147949219	0.849121094	-0.674804688	899.94	-31.52546893	23.74906394	-166.0520566	-68
57204	0	-0.164493561	-0.185705185	0.305024147	0.999999046	-3.33786E-05	-0.00028801	-0.000110626	-4.11233902	-4.642629623	7.625603676	-0.00166893	-0.014400482	-0.005531311	-0.150146484	0.846923828	-0.6796875	899.82	-31.5339781	23.72506841	-166.0454972	-68
57205	0	-0.164855957	-0.186462402	0.308227539	0.999999046	0.000221252	-0.000285149	-4.19617E-05	-4.121398926	-4.661560059	7.705688477	0.011062622	-0.014257431	-0.002098084	-0.150146484	0.849121094	-0.677246094	899.94	-31.51035905	23.705429	-166.015879	-68
57206	0	-0.164422035	-0.187867165	0.305779457	0.999999046	7.43866E-05	-0.000150681	-3.43323E-05	-4.11055088	-4.696679115	7.644486427	0.00371933	-0.007534027	-0.001716614	-0.150146484	0.849121094	-0.679931641	899.94	-31.50684116	23.69939488	-166.0005345	-68
57207	0	-0.1640625	-0.188171387	0.306213379	0.999999046	0.000541687	-0.000193596	-4.19617E-05	-4.1015625	-4.704284668	7.655334473	0.027084352	-0.009679795	-0.002098084	-0.150146484	0.849121094	-0.679931641	899.8	-31.44900176	23.68869674	-165.9786595	-68
57208	0	-0.163622856	-0.183093071	0.306474686	0.999999046	0.000247002	-0.000246048	-8.7738E-05	-4.090571404	-4.577326775	7.661867142	0.012350083	-0.012302399	-0.004386902	-0.150146484	0.846923828	-0.682373047	899.88	-31.42553334	23.6701696	-165.9701982	-68
57209	0	-0.163330078	-0.185668945	0.306518555	0.999999046	4.19617E-05	-0.000266075	-7.62939E-05	-4.083251953	-4.641723633	7.662963867	0.002098084	-0.013303757	-0.003814697	-0.147705078	0.846923828	-0.682617188	899.94	-31.42457402	23.65036424	-165.9585968	-68
57210	0	-0.164481163	-0.185852051	0.306438446	0.999999046	0.000141144	-0.000205994	-3.91006E-05	-4.112029076	-4.64630127	7.660961151	0.00705719	-0.010299683	-0.001955032	-0.150146484	0.846923828	-0.6796875	899.94	-31.41219176	23.63864966	-165.9394995	-68
57211	0	-0.164306641	-0.1875	0.307312012	0.999999046	3.8147E-05	-0.000128746	-7.62939E-05	-4.107666016	-4.6875	7.682800293	0.001907349	-0.006437302	-0.003814697	-0.150146484	0.846923828	-0.682373047	899.88	-31.41527325	23.6322778	-165.9356738	-68
57212	0	-0.163527489	-0.185487747	0.307307243	0.999999046	0.000206947	-0.000217438	3.71933E-05	-4.088187218	-4.63719368	7.682681084	0.010347366	-0.010871887	0.001859665	-0.15234375	0.846923828	-0.682128906	899.82	-31.39180663	23.62399605	-165.9123958	-68
57213	0	-0.163635254	-0.186279297	0.307495117	0.999999046	6.86646E-05	-0.000273705	-4.57764E-05	-4.090881348	-4.656982422	7.68737793	0.003433228	-0.013685227	-0.002288818	-0.15234375	0.844726563	-0.682128906	899.9	-31.38631895	23.60526771	-165.9017078	-68
57214	0	-0.163084984	-0.186008453	0.305839539	0.999999046	0.000205994	-0.000137329	-1.62125E-05	-4.077124596	-4.650211334	7.645988464	0.010299683	-0.006866455	-0.000810623	-0.152587891	0.846923828	-0.679443359	899.9	-31.36734237	23.60160962	-165.8806686	-68
57215	0	-0.164123535	-0.18536377	0.306396484	0.999999046	0.000228882	-0.000128746	-0.000133514	-4.103088379	-4.634094238	7.659912109	0.011444092	-0.006437302	-0.00667572	-0.15234375	0.844726563	-0.679443359	899.88	-31.35102734	23.59182906	-165.8788086	-68
57216	0	-0.163140297	-0.185450554	0.306218147	0.999999046	0.000279427	-0.000205994	-4.57764E-05	-4.078507423	-4.636263847	7.655453682	0.013971329	-0.010299683	-0.002288818	-0.15234375	0.844726563	-0.682128906	899.82	-31.3231848	23.57973131	-165.8666281	-68
57217	0	-0.163574219	-0.183959961	0.307556152	0.999999046	0.000175476	-0.000254631	0	-4.089355469	-4.598999023	7.688903809	0.008773804	-0.012731552	0	-0.154785156	0.844726563	-0.679199219	899.88	-31.303968	23.5655891	-165.8389555	-68
57218	0	-0.162563324	-0.186903954	0.307642937	0.999999046	-5.53131E-05	-0.000200272	-7.62939E-06	-4.064083099	-4.672598839	7.691073418	-0.002765656	-0.01001358	-0.00038147	-0.15234375	0.844726563	-0.682128906	899.82	-31.31301018	23.55631003	-165.8226146	-68
57219	0	-0.162658691	-0.187011719	0.306640625	0.999999046	0.000270844	-0.000170708	-7.24792E-05	-4.066467285	-4.675292969	7.666015625	0.013542176	-0.008535385	-0.003623962	-0.154785156	0.844726563	-0.681884766	899.82	-31.28822396	23.54604303	-165.8130392	-68
57220	0	-0.163259506	-0.184184074	0.306429863	0.999999046	0.000182152	-0.000204086	-9.91821E-05	-4.081487656	-4.60460186	7.660746574	0.00910759	-0.010204315	-0.004959107	-0.154785156	0.844726563	-0.684570313	899.88	-31.27388725	23.5309431	-165.8088814	-68
57221	0	-0.163757324	-0.185058594	0.307250977	0.999999046	6.48499E-05	-0.000170708	-9.15527E-05	-4.093933105	-4.626464844	7.681274414	0.003242493	-0.008535385	-0.004577637	-0.15234375	0.842529297	-0.679199219	899.88	-31.273557	23.51957973	-165.7998864	-69
57222	0	-0.162824631	-0.186758041	0.306720734	0.999999046	-0.000286102	-0.000242233	8.7738E-05	-4.070615768	-4.668951035	7.668018341	-0.014305115	-0.012111664	0.004386902	-0.15234375	0.844726563	-0.682128906	899.88	-31.303977	23.51187281	-165.7691411	-69
57223	0	-0.162902832	-0.187866211	0.308044434	0.999999046	0.000137329	-0.000178337	8.01086E-05	-4.072570801	-4.696655273	7.70111084	0.006866455	-0.008916855	0.004005432	-0.154785156	0.844726563	-0.684570313	899.84	-31.28788684	23.50995714	-165.7490462	-68
57224	0	-0.163677216	-0.183666229	0.307847977	0.999999046	8.58307E-06	-9.15527E-05	0.000106812	-4.091930389	-4.591655731	7.696199417	0.000429153	-0.004577637	0.005340576	-0.15234375	0.844726563	-0.684570313	899.9	-31.28764808	23.51814834	-165.7309122	-68
57225	0	-0.162353516	-0.184448242	0.306762695	0.999999046	-0.000167847	-0.000136375	0.00012207	-4.058837891	-4.611206055	7.669067383	-0.008392334	-0.006818771	0.006103516	-0.154785156	0.844726563	-0.684570313	899.84	-31.30579672	23.52285382	-165.7107757	-68
57226	0	-0.162863731	-0.184756279	0.30833149	0.999999046	-0.000181198	-9.53674E-05	6.48499E-05	-4.071593285	-4.618906975	7.708287239	-0.009059906	-0.004768372	0.003242493	-0.154785156	0.844726563	-0.681884766	899.88	-31.32894633	23.52815198	-165.6947545	-68
57227	0	-0.163330078	-0.187805176	0.308288574	0.999999046	-0.000377655	-2.57492E-05	0.000164032	-4.083251953	-4.695129395	7.707214355	-0.018882752	-0.00128746	0.008201599	-0.152587891	0.846923828	-0.679443359	899.88	-31.37219517	23.54614452	-165.6622174	-68
57228	0	-0.163252831	-0.185420036	0.306509018	0.999999046	-7.15256E-05	-5.72205E-06	0.000174522	-4.081320763	-4.635500908	7.662725449	-0.003576279	-0.000286102	0.00872612	-0.154785156	0.846923828	-0.682128906	899.88	-31.38044626	23.566738	-165.638351	-68
57229	0	-0.163146973	-0.185668945	0.306274414	0.999999046	-0.00031662	-6.38962E-05	0.000263214	-4.078674316	-4.641723633	7.656860352	-0.015830994	-0.003194809	0.013160706	-0.154785156	0.846923828	-0.682128906	899.82	-31.4115026	23.58694337	-165.6045857	-68
57230	0	-0.163755417	-0.186203957	0.305749893	0.999999046	-0.000192642	-0.000112534	0.000170708	-4.093885422	-4.655098915	7.64374733	-0.009632111	-0.005626679	0.008535385	-0.152587891	0.846923828	-0.679443359	899.84	-31.43105728	23.59687839	-165.5725204	-68
57231	0	-0.164001465	-0.185791016	0.305419922	0.999999046	-0.00030899	-0.000151634	0.000175476	-4.100036621	-4.644775391	7.635498047	-0.015449524	-0.007581711	0.008773804	-0.152587891	0.846923828	-0.679443359	899.84	-31.46274328	23.60330188	-165.540629	-68
57232	0	-0.163302422	-0.187022209	0.307002068	0.999999046	-0.000239372	-5.14984E-05	0.000282288	-4.082560539	-4.675555229	7.675051689	-0.011968613	-0.002574921	0.01411438	-0.150146484	0.849121094	-0.679931641	899.84	-31.48450606	23.62588821	-165.4991709	-68
57233	0	-0.163391113	-0.185546875	0.306152344	0.999999046	-0.00038147	-4.1008E-05	0.000335693	-4.084777832	-4.638671875	7.653808594	-0.019073487	-0.0020504	0.016784669	-0.152587891	0.846923828	-0.677001953	899.94	-31.52054222	23.65271187	-165.4586156	-68
57234	0	-0.16385746	-0.187196732	0.30644989	0.999999046	-0.000362396	6.29425E-05	0.000320435	-4.096436501	-4.679918289	7.661247253	-0.018119813	0.003147125	0.016021729	-0.152587891	0.851318359	-0.682617188	900	-31.5577545	23.68877482	-165.4280626	-68
57235	0	-0.164611816	-0.187744141	0.305969238	0.999999046	-0.000263214	2.38419E-05	0.000335693	-4.11529541	-4.693603516	7.649230957	-0.013160706	0.001192093	0.016784668	-0.152587891	0.849121094	-0.674316406	899.94	-31.58192893	23.72193409	-165.3845729	-68
57236	0	-0.164690018	-0.186390877	0.305130959	0.999999046	-0.000239372	0.000114441	0.000110626	-4.117250443	-4.659771919	7.628273964	-0.011968613	0.005722046	0.005531311	-0.147949219	0.849121094	-0.677490234	899.88	-31.61548989	23.75046525	-165.3791045	-68
57237	0	-0.164367676	-0.185974121	0.305419922	0.999999046	-0.000324249	-9.05991E-05	0.000362396	-4.109191895	-4.649353027	7.635498047	-0.016212464	-0.004529953	0.018119813	-0.150390625	0.851318359	-0.677490234	899.88	-31.64249176	23.77410229	-165.3302476	-68
57238	0	-0.165240288	-0.186358452	0.306427002	0.999999046	-0.000249863	-0.000106812	0.000254631	-4.131007195	-4.658961296	7.660675049	-0.012493134	-0.005340576	0.012731552	-0.145507813	0.851318359	-0.677734375	899.94	-31.66519463	23.78970611	-165.2931441	-68
57239	0	-0.164733887	-0.191101074	0.30657959	0.999999046	-0.00031662	3.52859E-05	0.000328064	-4.118347168	-4.777526855	7.664489746	-0.015830994	0.001764298	0.016403199	-0.147949219	0.851318359	-0.677490234	899.88	-31.69620283	23.82356886	-165.2613783	-67
57240	0	-0.164634705	-0.188013077	0.30577755	0.999999046	0.000279427	8.2016E-05	0.000202179	-4.115867615	-4.70032692	7.644438744	0.013971329	0.0041008	0.010108948	-0.145507813	0.851318359	-0.675048828	899.84	-31.66556769	23.8543884	-165.2373909	-67
57241	0	-0.165893555	-0.183776855	0.304992676	0.999999046	-0.000297546	4.673E-05	0.0001297	-4.147338867	-4.594421387	7.624816895	-0.01487732	0.002336502	0.006484985	-0.145751953	0.853515625	-0.675292969	899.84	-31.70316013	23.87742261	-165.2151315	-68
57242	0	-0.165482521	-0.188372612	0.306451797	0.999999046	-0.00041008	9.53674E-06	0.000250816	-4.137063026	-4.7093153	7.661294937	-0.020503999	0.000476837	0.012540818	-0.145751953	0.853515625	-0.672607422	899.82	-31.74744081	23.90411128	-165.1757582	-68
57243	0	-0.165283203	-0.186096191	0.304504395	0.999999046	-0.000450134	8.86917E-05	0.000244141	-4.132080078	-4.652404785	7.612609863	-0.022506715	0.004434586	0.012207032	-0.145751953	0.853515625	-0.675292969	899.84	-31.79873909	23.93813752	-165.1533135	-67
57244	0	-0.16579628	-0.190746307	0.305768013	0.999999046	-0.00045681	0.000165939	0.000286102	-4.144906998	-4.768657684	7.644200325	-0.022840501	0.008296967	0.014305116	-0.143310547	0.853515625	-0.672851563	899.84	-31.85113143	23.98220418	-165.129358	-67
57245	0	-0.16619873	-0.186767578	0.30456543	0.999999046	-7.62939E-05	5.43594E-05	0.000312805	-4.154968262	-4.669189453	7.614135742	-0.003814697	0.002717972	0.015640259	-0.143554688	0.855712891	-0.670410156	899.88	-31.85569121	24.01700823	-165.0836376	-67
57246	0	-0.165801048	-0.189213753	0.3045187	0.999999046	-0.000434875	9.53674E-05	0.000281334	-4.145026207	-4.730343819	7.612967491	-0.021743775	0.004768372	0.014066697	-0.143554688	0.855712891	-0.670410156	899.84	-31.90385033	24.05389664	-165.04887	-68
57247	0	-0.166687012	-0.188293457	0.303222656	0.999999046	-5.72205E-05	0.000187874	0.000202179	-4.167175293	-4.707336426	7.580566406	-0.002861023	0.009393692	0.010108948	-0.143554688	0.855712891	-0.670410156	899.88	-31.9146974	24.09500197	-165.0299968	-67
57248	0	-0.167487144	-0.186491013	0.303870201	0.999999046	-0.000367165	4.57764E-05	0.000231743	-4.187178612	-4.662275314	7.596755028	-0.018358231	0.002288818	0.011587143	-0.143310547	0.853515625	-0.672851563	899.82	-31.95597996	24.12413036	-165.0153846	-67
57249	0	-0.167358398	-0.189147949	0.30480957	0.999999046	-0.000396729	6.96182E-05	0.000293732	-4.183959961	-4.72869873	7.620239258	-0.019836427	0.003480911	0.014686585	-0.143310547	0.853515625	-0.670166016	899.78	-31.99860306	24.15933257	-164.9930677	-67
57250	0	-0.166595459	-0.188376427	0.303843498	0.999999046	-0.000324249	0.000154495	0.00025177	-4.164886475	-4.709410667	7.596087456	-0.016212464	0.007724762	0.012588501	-0.141113281	0.855712891	-0.670410156	899.94	-32.03705633	24.20021864	-164.9761368	-67
57251	0	-0.167114258	-0.190734863	0.303344727	0.999999046	-3.43323E-05	7.34329E-05	0.000228882	-4.177856445	-4.768371582	7.583618164	-0.001716614	0.003671646	0.011444092	-0.138671875	0.855712891	-0.670654297	899.84	-32.04113797	24.23182862	-164.9564845	-67
57252	0	-0.167733192	-0.188299179	0.302635193	0.999999046	-7.72476E-05	-7.62939E-06	0.000170708	-4.193329811	-4.707479477	7.565879822	-0.003862381	-0.00038147	0.008535385	-0.141113281	0.855712891	-0.667724609	899.82	-32.05043208	24.25202277	-164.9328961	-67
57253	0	-0.167541504	-0.188049316	0.304504395	0.999999046	-0.000156403	-2.19345E-05	0.000110626	-4.188537598	-4.70123291	7.612609863	-0.007820129	-0.001096725	0.005531311	-0.138671875	0.857910156	-0.673583984	899.88	-32.07104137	24.26717694	-164.9216653	-67
57254	0	-0.168606758	-0.186398506	0.303354263	0.999999046	-9.53674E-05	1.90735E-06	0.000205994	-4.215168953	-4.659962654	7.583856583	-0.004768372	9.53674E-05	0.010299683	-0.138671875	0.855712891	-0.670654297	899.88	-32.08111761	24.29047577	-164.9034106	-67
57255	0	-0.168212891	-0.193603516	0.30279541	0.999999046	-9.15527E-05	-0.00014019	0.000164032	-4.205322266	-4.840087891	7.569885254	-0.004577637	-0.007009506	0.008201599	-0.138916016	0.857910156	-0.670898438	899.9	-32.08874908	24.2973957	-164.8745284	-67
57256	0	-0.167456627	-0.185730934	0.302563667	0.999999046	0.00070858	-0.000120163	0.000128746	-4.186415672	-4.643273354	7.564091682	0.035429004	-0.006008149	0.006437302	-0.138916016	0.857910156	-0.670898438	899.94	-32.00671996	24.30410531	-164.845146	-67
57257	0	-0.168212891	-0.186401367	0.304138184	0.999999046	-0.000270844	-0.000174522	3.43323E-05	-4.205322266	-4.66003418	7.60345459	-0.013542176	-0.00872612	0.001716614	-0.138671875	0.855712891	-0.670654297	899.9	-32.03958543	24.29982051	-164.8314138	-67
57258	0	-0.168242455	-0.188324928	0.302873611	0.999999046	0.000391006	-0.000249863	3.71933E-05	-4.206061363	-4.708123207	7.571840286	0.019550324	-0.012493134	0.001859665	-0.136230469	0.855712891	-0.670898438	899.96	-31.99442979	24.2883929	-164.8085124	-67
57259	0	-0.168151855	-0.187866211	0.302856445	0.999999046	3.43323E-05	-0.000151634	4.57764E-05	-4.203796387	-4.696655273	7.571411133	0.001716614	-0.007581711	0.002288818	-0.138916016	0.857910156	-0.668212891	899.82	-31.9923936	24.28701125	-164.7790927	-67
57260	0	-0.167405128	-0.190028191	0.30420208	0.999999046	0.000388145	-0.000238419	-3.52859E-05	-4.185128212	-4.750704765	7.605051994	0.019407273	-0.011920929	-0.001764298	-0.138671875	0.855712891	-0.66796875	899.9	-31.95104865	24.27226329	-164.7564815	-67
57261	0	-0.168334961	-0.185668945	0.304748535	0.999999046	9.91821E-05	-0.000285149	-3.05176E-05	-4.208374023	-4.641723633	7.618713379	0.004959107	-0.014257431	-0.001525879	-0.138671875	0.855712891	-0.673339844	899.88	-31.94131937	24.25329407	-164.7422109	-67
57262	0	-0.168087959	-0.191295624	0.30488205	0.999999046	0.000125885	-0.000236511	-1.62125E-05	-4.202198982	-4.782390594	7.622051239	0.006294251	-0.011825562	-0.000810623	-0.138671875	0.855712891	-0.670654297	899.88	-31.92926163	24.23989396	-164.7223941	-67
57263	0	-0.168029785	-0.186218262	0.304016113	0.999999046	0.000419617	-0.000285149	-0.00025177	-4.200744629	-4.655456543	7.600402832	0.020980836	-0.014257432	-0.012588502	-0.138916016	0.857910156	-0.668212891	899.88	-31.8924388	24.20747767	-164.7081713	-67
57264	0	-0.167762756	-0.186597824	0.303230286	0.999999046	0.000256538	-0.000350952	-0.000137329	-4.194068909	-4.664945602	7.580757141	0.01282692	-0.017547608	-0.006866455	-0.136230469	0.855712891	-0.673583984	899.88	-31.86758825	24.17564906	-164.6943561	-67
57265	0	-0.16784668	-0.187011719	0.305419922	0.999999046	0.000217438	-0.000380516	-6.10352E-05	-4.196166992	-4.675292969	7.635498047	0.010871888	-0.019025803	-0.003051758	-0.136230469	0.853271484	-0.676025391	899.72	-31.84311814	24.14558874	-164.6824422	-67
57266	0	-0.166065216	-0.188548088	0.305261612	0.999999046	0.000230789	-0.000192642	-7.34329E-05	-4.151630402	-4.713702202	7.631540298	0.011539459	-0.009632111	-0.003671646	-0.140869141	0.853515625	-0.672851563	899.82	-31.82269718	24.13301897	-164.6760321	-67
57267	0	-0.166320801	-0.189880371	0.305541992	0.999999046	0.000419617	-0.000212669	1.90735E-05	-4.15802002	-4.747009277	7.638549805	0.020980836	-0.010633469	0.000953674	-0.138671875	0.855712891	-0.673339844	899.84	-31.77606537	24.12404533	-164.6479344	-67
57268	0	-0.168029785	-0.187238693	0.304244995	0.999999046	0.000380516	-0.000242233	-0.000167847	-4.200744629	-4.680967331	7.606124878	0.019025803	-0.012111664	-0.008392334	-0.140869141	0.853515625	-0.675537109	899.88	-31.74130661	24.10095684	-164.6482826	-67
57269	0	-0.167236328	-0.185913086	0.305541992	0.999999046	0.000286102	-0.000231743	-0.000114441	-4.180908203	-4.647827148	7.638549805	0.014305115	-0.011587143	-0.005722046	-0.140869141	0.853515625	-0.672851563	899.9	-31.71527144	24.08211287	-164.6350051	-67
57270	0	-0.16729641	-0.187364578	0.304506302	0.999999046	9.53674E-05	-0.000379562	-5.34058E-05	-4.18241024	-4.684114456	7.612657547	0.004768372	-0.018978119	-0.002670288	-0.140869141	0.851318359	-0.672851563	899.96	-31.70450792	24.05256592	-164.6123125	-67
57271	0	-0.165710449	-0.192443848	0.305969238	0.999999046	0.000389099	-0.000281334	-0.000179291	-4.14276123	-4.811096191	7.649230957	0.019454957	-0.014066697	-0.008964539	-0.143310547	0.853515625	-0.672851563	899.82	-31.66822915	24.02495416	-164.600203	-67
57272	0	-0.167059898	-0.184392929	0.305230141	0.999999046	0.000863075	-0.000259399	-0.000161171	-4.176497459	-4.609823227	7.630753517	0.043153769	-0.012969973	-0.008058549	-0.143310547	0.853515625	-0.675537109	899.82	-31.57739804	24.00061215	-164.5868839	-67
57273	0	-0.166931152	-0.186950684	0.305114746	0.999999046	0.000118256	-0.000369072	-0.000202179	-4.173278809	-4.67376709	7.627868652	0.005912781	-0.018453599	-0.010108948	-0.143066406	0.851318359	-0.677978516	899.78	-31.57084804	23.96315492	-164.5827622	-68
57274	0	-0.166692734	-0.185970306	0.304244041	0.999999046	0.000263214	-0.000343323	-0.00011158	-4.167318344	-4.64925766	7.606101036	0.013160706	-0.017166138	-0.005578995	-0.145751953	0.851318359	-0.672363281	899.9	-31.54438903	23.93364704	-164.5569135	-67
57275	0	-0.165466309	-0.187438965	0.305358887	0.999999046	0.000110626	-0.000369072	-0.000167847	-4.136657715	-4.685974121	7.633972168	0.005531311	-0.018453599	-0.008392334	-0.143066406	0.851318359	-0.677978516	899.9	-31.53725414	23.89826999	-164.5464198	-68
57276	0	-0.166398048	-0.188587189	0.305095673	0.999999046	0.000239372	-0.000175476	-0.000180244	-4.15995121	-4.714679718	7.627391815	0.011968613	-0.008773804	-0.009012222	-0.143066406	0.849121094	-0.675048828	899.76	-31.52110227	23.88107345	-164.548518	-67
57277	0	-0.166381836	-0.186523438	0.304138184	0.999999046	0.000175476	-0.000311852	-0.000160217	-4.159545898	-4.663085938	7.60345459	0.008773804	-0.015592575	-0.008010864	-0.145507813	0.849121094	-0.674804688	899.82	-31.50778953	23.85178222	-164.5387087	-67
57278	0	-0.16637516	-0.187995911	0.305711746	0.999999046	0.000335693	-0.000190735	-9.63211E-05	-4.159379005	-4.699897766	7.642793655	0.016784668	-0.009536743	-0.004816055	-0.145507813	0.851318359	-0.675048828	899.84	-31.47655469	23.83815189	-164.520716	-67
57279	0	-0.165466309	-0.185852051	0.304077148	0.999999046	0.000209808	-0.000315666	-0.000209808	-4.136657715	-4.64630127	7.601928711	0.010490418	-0.01578331	-0.010490418	-0.147949219	0.849121094	-0.677490234	899.82	-31.46139479	23.80556744	-164.5192556	-68
57280	0	-0.165926933	-0.186648369	0.306762695	0.999999046	0.000109673	-0.00021553	-0.000144958	-4.148173332	-4.666209221	7.669067383	0.005483627	-0.01077652	-0.007247925	-0.147949219	0.849121094	-0.674804688	899.88	-31.45753798	23.78665275	-164.510376	-67
57281	0	-0.164672852	-0.185119629	0.306335449	0.999999046	0.000125885	-0.000315666	-1.90735E-05	-4.116821289	-4.627990723	7.65838623	0.006294251	-0.01578331	-0.000953674	-0.147949219	0.849121094	-0.677490234	899.9	-31.44376035	23.76548819	-164.487004	-67
57282	0	-0.163740158	-0.187368393	0.305814743	0.999999046	1.14441E-05	-0.000148773	3.05176E-05	-4.093503952	-4.684209824	7.645368576	0.000572205	-0.00743866	0.001525879	-0.147949219	0.851318359	-0.677490234	899.94	-31.44535022	23.763571	-164.462222	-67
57283	0	-0.164978027	-0.187194824	0.3046875	0.999999046	0.000328064	-0.000136375	-0.00012207	-4.124450684	-4.679870605	7.6171875	0.016403199	-0.006818772	-0.006103516	-0.147949219	0.849121094	-0.677490234	899.76	-31.41762173	23.75377083	-164.4594852	-68
57284	0	-0.164910316	-0.185265541	0.304671288	0.999999046	0.000145912	-0.000276566	-0.000179291	-4.122757912	-4.631638527	7.616782188	0.007295609	-0.013828278	-0.008964539	-0.147705078	0.849121094	-0.682617188	899.84	-31.40958524	23.72688599	-164.4640058	-67
57285	0	-0.165466309	-0.18536377	0.305297852	0.999999046	0.00012207	-0.000342369	-0.000125885	-4.136657715	-4.634094238	7.632446289	0.006103516	-0.017118454	-0.006294251	-0.147949219	0.849121094	-0.677490234	899.88	-31.40022271	23.6967644	-164.445774	-67
57286	0	-0.165207863	-0.189054489	0.30741024	0.999999046	4.57764E-05	-0.000213623	7.62939E-05	-4.130196571	-4.726362228	7.685256004	0.002288818	-0.010681152	0.003814697	-0.147949219	0.849121094	-0.677490234	899.88	-31.39434354	23.69130463	-164.4146097	-67
57287	0	-0.164245605	-0.188110352	0.30670166	0.999999046	0.000556946	-0.000151634	-8.7738E-05	-4.106140137	-4.702758789	7.667541504	0.027847292	-0.007581711	-0.004386902	-0.147705078	0.849121094	-0.680175781	899.84	-31.33859612	23.68211676	-164.4066665	-67
57288	0	-0.164608955	-0.183831215	0.306712151	0.999999046	0.000317574	-0.00022316	-8.7738E-05	-4.115223885	-4.595780373	7.667803764	0.015878678	-0.01115799	-0.004386902	-0.150146484	0.846923828	-0.6796875	899.78	-31.30839156	23.66596151	-164.3989599	-67
57289	0	-0.163269043	-0.184936523	0.306518555	0.999999046	4.95911E-05	-0.000338554	-2.67029E-05	-4.081726074	-4.623413086	7.662963867	0.002479553	-0.016927719	-0.001335144	-0.149902344	0.844726563	-0.679443359	899.78	-31.30330158	23.64215058	-164.3835517	-68
57290	0	-0.163966179	-0.185403824	0.307197571	0.999999046	4.3869E-05	-0.000143051	-0.000115395	-4.099154472	-4.635095596	7.67993927	0.002193451	-0.007152557	-0.00576973	-0.152587891	0.846923828	-0.677001953	899.94	-31.30768818	23.63217396	-164.3782033	-68
57291	0	-0.163757324	-0.187927246	0.307434082	0.999999046	1.90735E-05	-0.000121117	-5.34058E-05	-4.093933105	-4.698181152	7.685852051	0.000953674	-0.006055832	-0.002670288	-0.150146484	0.846923828	-0.6796875	899.84	-31.31290577	23.62803257	-164.3727281	-67
57292	0	-0.164700508	-0.184882164	0.305832863	0.999999046	0.000229836	-0.000225067	-1.23978E-05	-4.117512703	-4.6220541	7.645821571	0.011491776	-0.011253357	-0.000619888	-0.149902344	0.844726563	-0.679443359	899.88	-31.28954038	23.61619291	-164.3609692	-67
57293	0	-0.163635254	-0.186828613	0.306518555	0.999999046	3.8147E-05	-0.00026226	0	-4.090881348	-4.670715332	7.662963867	0.001907349	-0.013113022	0	-0.15234375	0.844726563	-0.679443359	899.84	-31.28665664	23.60144313	-164.3463372	-67
57294	0	-0.16426754	-0.18686676	0.306923866	0.999999046	0.000226974	-0.000169754	-9.25064E-05	-4.106688499	-4.671669006	7.673096657	0.011348725	-0.008487702	-0.004625321	-0.150146484	0.846923828	-0.6796875	899.9	-31.26849948	23.59024101	-164.3378215	-68
57295	0	-0.164855957	-0.185241699	0.305725098	0.999999046	0.000114441	-0.000174522	-0.000190735	-4.121398926	-4.63104248	7.643127441	0.005722046	-0.00872612	-0.009536743	-0.15234375	0.844726563	-0.682128906	899.84	-31.26736249	23.57278366	-164.3523346	-68
57296	0	-0.1633358	-0.184867859	0.307411194	0.999999046	0.00023365	-0.000274658	-6.19888E-05	-4.083395004	-4.621696472	7.685279846	0.011682511	-0.01373291	-0.003099442	-0.15234375	0.844726563	-0.679443359	899.94	-31.24442776	23.55316277	-164.3383663	-68
57297	0	-0.163024902	-0.18536377	0.306762695	0.999999046	-2.28882E-05	-0.000121117	0	-4.075622559	-4.634094238	7.669067383	-0.001144409	-0.006055832	0	-0.15234375	0.844726563	-0.684570313	899.84	-31.25226429	23.55228528	-164.339559	-68
57298	0	-0.162462234	-0.186293602	0.306060791	0.999999046	6.48499E-05	-0.000181198	6.77109E-05	-4.061555862	-4.65734005	7.651519775	0.003242493	-0.009059906	0.003385544	-0.149902344	0.844726563	-0.682128906	900	-31.24562554	23.54952705	-164.3221401	-67
57299	0	-0.162597656	-0.186096191	0.30657959	0.999999046	0.000148773	-0.000144005	6.48499E-05	-4.064941406	-4.652404785	7.664489746	0.00743866	-0.007200241	0.003242493	-0.15234375	0.846923828	-0.682128906	899.82	-31.23041944	23.55021431	-164.3005781	-68
57300	0	-0.162960052	-0.184214592	0.306497574	0.999999046	5.62668E-05	-4.3869E-05	1.43051E-05	-4.074001312	-4.605364799	7.662439346	0.002813339	-0.002193451	0.000715256	-0.15234375	0.842529297	-0.681884766	899.88	-31.23062629	23.5577399	-164.3044297	-68
57301	0	-0.163696289	-0.18548584	0.307678223	0.999999046	0.000118256	-0.000102043	8.39233E-05	-4.092407227	-4.637145996	7.691955566	0.005912781	-0.005102158	0.004196167	-0.154785156	0.844726563	-0.679199219	899.88	-31.21917674	23.56367814	-164.284262	-68
57302	0	-0.163847923	-0.187339783	0.307267189	0.999999046	0.000139236	-0.000196457	7.62939E-05	-4.096198082	-4.683494568	7.681679726	0.006961823	-0.009822846	0.003814697	-0.15234375	0.844726563	-0.682128906	899.84	-31.20327463	23.55992013	-164.2632862	-68
57303	0	-0.162963867	-0.187316895	0.307739258	0.999999046	0.000419617	-0.000185966	-3.43323E-05	-4.07409668	-4.682922363	7.693481445	0.020980836	-0.009298325	-0.001716614	-0.15234375	0.844726563	-0.682128906	899.76	-31.16026801	23.55060179	-164.2514747	-68
57304	0	-0.163635254	-0.184509277	0.307373047	0.999999046	0.000279427	-0.000286102	-0.000156403	-4.090881348	-4.612731934	7.684326172	0.013971329	-0.014305115	-0.00782013	-0.154785156	0.844726563	-0.679199219	899.9	-31.13591265	23.52422701	-164.2388183	-68
57305	0	-0.16217041	-0.184445381	0.306655884	0.999998093	8.86917E-05	-0.000190735	-1.43051E-05	-4.054260254	-4.611134529	7.666397095	0.004434586	-0.009536743	-0.000715256	-0.154785156	0.844726563	-0.681884766	899.82	-31.12982796	23.51562956	-164.2229036	-68
57306	0	-0.164008141	-0.184093475	0.306416512	0.999999046	-7.62939E-05	-0.000329971	-7.62939E-06	-4.100203514	-4.602336884	7.660412788	-0.003814697	-0.016498566	-0.00038147	-0.15234375	0.842529297	-0.681884766	899.84	-31.13883307	23.49381403	-164.2039123	-68
57307	0	-0.162963867	-0.188171387	0.309326172	0.999999046	-0.000175476	-0.000178337	-7.62939E-06	-4.07409668	-4.704284668	7.733154297	-0.008773804	-0.008916855	-0.00038147	-0.154541016	0.842529297	-0.681640625	899.88	-31.16313768	23.48684656	-164.1968104	-68
57308	0	-0.163949013	-0.185536385	0.308953285	0.999999046	4.29153E-05	-0.000196457	5.24521E-05	-4.098725319	-4.638409615	7.72383213	0.002145767	-0.009822846	0.002622604	-0.154785156	0.844726563	-0.681884766	899.82	-31.15934719	23.48165885	-164.1754756	-68
57309	0	-0.162963867	-0.185058594	0.30847168	0.999999046	-0.000225067	-0.000182152	0.00012207	-4.07409668	-4.626464844	7.711791992	-0.011253357	-0.00910759	0.006103516	-0.154785156	0.844726563	-0.681884766	899.82	-31.18366701	23.48200312	-164.1498958	-68
57310	0	-0.164056778	-0.186500549	0.308263779	0.999999046	-0.000137329	-2.09808E-05	0.000133514	-4.101419449	-4.662513733	7.706594467	-0.006866455	-0.001049042	0.00667572	-0.154785156	0.844726563	-0.679199219	899.82	-31.20160263	23.49883182	-164.1291177	-68
57311	0	-0.163208008	-0.185180664	0.306518555	0.999999046	-0.00018692	-0.000117302	0.000221252	-4.080200195	-4.629516602	7.662963867	-0.009346008	-0.005865097	0.011062622	-0.15234375	0.844726563	-0.684570313	899.84	-31.21905891	23.51146168	-164.1054501	-68
57312	0	-0.162607193	-0.185529709	0.309355736	0.999999046	-0.000155449	-5.72205E-05	0.000137329	-4.065179825	-4.638242722	7.733893394	-0.007772446	-0.002861023	0.006866455	-0.154785156	0.844726563	-0.681884766	899.82	-31.2379905	23.52496715	-164.091364	-68
57313	0	-0.163024902	-0.184570313	0.308349609	0.999999046	-0.000400543	-6.77109E-05	0.000328064	-4.075622559	-4.614257813	7.708740234	-0.020027162	-0.003385544	0.016403199	-0.154785156	0.844726563	-0.679199219	899.9	-31.27656566	23.54877764	-164.0540471	-68
57314	0	-0.162800789	-0.187213898	0.30919838	0.999999046	-0.000457764	1.14441E-05	0.000320435	-4.070019722	-4.680347443	7.729959488	-0.022888185	0.000572205	0.016021729	-0.152587891	0.846923828	-0.679443359	899.9	-31.32407015	23.57986613	-164.0193764	-67
57315	0	-0.164489746	-0.187561035	0.307983398	0.999999046	-0.000148773	-4.48227E-05	0.000183105	-4.112243652	-4.689025879	7.699584961	-0.00743866	-0.002241135	0.009155274	-0.152587891	0.846923828	-0.677001953	899.84	-31.34057777	23.59727006	-163.9920766	-68
57316	0	-0.16428566	-0.184723854	0.307149887	0.999999046	-0.000248909	-8.7738E-05	0.000231743	-4.107141495	-4.618096352	7.678747177	-0.01244545	-0.004386902	0.011587143	-0.152587891	0.846923828	-0.679443359	899.94	-31.36536038	23.61340234	-163.9649071	-67
57317	0	-0.163635254	-0.186340332	0.307556152	0.999999046	-0.000534058	-9.05991E-05	0.000244141	-4.090881348	-4.658508301	7.688903809	-0.026702882	-0.004529953	0.012207032	-0.150146484	0.844726563	-0.676757813	899.82	-31.4222552	23.63000667	-163.9403878	-67
57318	0	-0.164402962	-0.185916901	0.30665493	0.999999046	-0.000198364	6.29425E-05	0.000377655	-4.110074043	-4.647922516	7.666373253	-0.009918213	0.003147125	0.018882752	-0.152587891	0.849121094	-0.677001953	899.94	-31.43889006	23.66959859	-163.9020967	-67
57319	0	-0.163574219	-0.190551758	0.306396484	0.999999046	-0.000354767	4.76837E-06	0.000324249	-4.089355469	-4.763793945	7.659912109	-0.017738343	0.000238419	0.016212464	-0.150146484	0.849121094	-0.679931641	899.94	-31.47431989	23.70030701	-163.8743917	-67
57320	0	-0.164185524	-0.185901642	0.305713654	0.999999046	0.000248909	0.000108719	0.00018692	-4.1046381	-4.647541046	7.642841339	0.01244545	0.005435944	0.009346008	-0.150390625	0.849121094	-0.674560547	899.84	-31.44914129	23.73294761	-163.8547168	-67
57321	0	-0.164855957	-0.183959961	0.307373047	0.999999046	-0.000366211	2.00272E-05	0.00019455	-4.121398926	-4.598999023	7.684326172	-0.018310547	0.001001358	0.009727478	-0.147705078	0.849121094	-0.680175781	899.76	-31.49180031	23.75740895	-163.8428477	-68
57322	0	-0.164269447	-0.187966347	0.307168007	0.999999046	-0.000289917	5.14984E-05	0.000263214	-4.106736183	-4.699158669	7.679200172	-0.01449585	0.002574921	0.013160706	-0.150390625	0.849121094	-0.674560547	899.82	-31.52356425	23.7890231	-163.8176179	-67
57323	0	-0.165405273	-0.185791016	0.306884766	0.999999046	-0.000354767	6.96182E-05	0.000320435	-4.135131836	-4.644775391	7.672119141	-0.017738343	0.003480911	0.016021729	-0.147949219	0.851318359	-0.677490234	899.82	-31.56075651	23.82585077	-163.7892659	-67
57324	0	-0.165203094	-0.18993187	0.307092667	0.999999046	-0.000287056	3.24249E-05	0.000296593	-4.130077362	-4.748296738	7.677316666	-0.014352799	0.001621246	0.014829636	-0.147949219	0.851318359	-0.672363281	899.88	-31.59024564	23.85759093	-163.7527027	-67
57325	0	-0.165222168	-0.186401367	0.306335449	0.999999046	-0.000175476	9.53674E-07	0.000236511	-4.130554199	-4.66003418	7.65838623	-0.008773804	4.76837E-05	0.011825562	-0.147949219	0.851318359	-0.675048828	899.82	-31.60870791	23.88266418	-163.728692	-67
57326	0	-0.165678024	-0.188872337	0.306390762	0.999999046	-0.00030899	0.000148773	0.000217438	-4.141950607	-4.721808434	7.659769058	-0.015449524	0.00743866	0.010871888	-0.145507813	0.851318359	-0.675048828	899.82	-31.64727428	23.92101268	-163.7179088	-67
57327	0	-0.166381836	-0.186950684	0.3046875	0.999999046	-0.000152588	7.34329E-05	0.000133514	-4.159545898	-4.67376709	7.6171875	-0.007629395	0.003671646	0.00667572	-0.147949219	0.851318359	-0.675048828	899.9	-31.66954238	23.94698082	-163.7141566	-67
57328	0	-0.166537285	-0.186999321	0.304056168	0.999999046	-0.000472069	0.00019455	0.000109673	-4.163432121	-4.674983025	7.60140419	-0.02360344	0.009727478	0.005483628	-0.145751953	0.851318359	-0.672363281	899.9	-31.7327235	23.98333322	-163.7174915	-67
57329	0	-0.166564941	-0.187011719	0.305175781	0.999999046	-0.000301361	-7.9155E-05	0.000274658	-4.164123535	-4.675292969	7.629394531	-0.015068055	-0.003957749	0.013732911	-0.143310547	0.853515625	-0.675537109	899.84	-31.76185834	24.00295886	-163.6869072	-67
57330	0	-0.165765762	-0.188876152	0.306125641	0.999999046	-0.000377655	-3.8147E-06	0.000312805	-4.144144058	-4.721903801	7.653141022	-0.018882752	-0.000190735	0.015640259	-0.145751953	0.853515625	-0.675292969	899.9	-31.80009884	24.0322155	-163.6617996	-67
57331	0	-0.166137695	-0.188537598	0.30456543	0.999999046	-0.000106812	7.34329E-05	0.000347137	-4.153442383	-4.713439941	7.614135742	-0.005340576	0.003671646	0.017356873	-0.143310547	0.853515625	-0.672851563	899.94	-31.80789479	24.0710601	-163.6324832	-67
57332	0	-0.166496277	-0.187876701	0.303829193	0.999999046	-6.77109E-05	7.43866E-05	0.00031662	-4.162406921	-4.696917534	7.595729828	-0.003385544	0.00371933	0.015830994	-0.145751953	0.853515625	-0.672607422	899.88	-31.8125456	24.10815626	-163.6087481	-67
57333	0	-0.167358398	-0.186828613	0.304443359	0.999999046	-0.000221252	5.05447E-05	0.0001297	-4.183959961	-4.670715332	7.611083984	-0.011062622	0.002527237	0.006484985	-0.140869141	0.853515625	-0.672851563	899.9	-31.8423064	24.13165386	-163.6025966	-67
57334	0	-0.167071342	-0.186493874	0.304832458	0.999999046	3.24249E-05	-2.09808E-05	0.000155449	-4.176783562	-4.66234684	7.620811462	0.001621246	-0.001049042	0.007772446	-0.140869141	0.853515625	-0.672851563	899.88	-31.83990642	24.14974544	-163.5889546	-67
57335	0	-0.167785645	-0.190063477	0.303283691	0.999999046	-0.000148773	-2.95639E-05	0.000217438	-4.194641113	-4.751586914	7.582092285	-0.00743866	-0.001478195	0.010871887	-0.141113281	0.855712891	-0.673095703	899.84	-31.85534981	24.1707481	-163.563862	-67
57336	0	-0.16626358	-0.190143585	0.304091454	0.999999046	0.000630379	1.90735E-06	0.000189781	-4.156589508	-4.75358963	7.602286339	0.031518938	9.53674E-05	0.00948906	-0.143310547	0.853515625	-0.672851563	899.82	-31.78360144	24.19311641	-163.5469447	-67
57337	0	-0.166687012	-0.182922363	0.304931641	0.999999046	0.000236511	-0.000136375	6.48499E-05	-4.167175293	-4.573059082	7.623291016	0.011825562	-0.006818771	0.003242493	-0.141113281	0.855712891	-0.673095703	899.88	-31.75858703	24.19446346	-163.5249894	-67
57338	0	-0.166628838	-0.188799858	0.304150581	0.999999046	2.09808E-05	-0.000219345	-4.19617E-05	-4.16572094	-4.719996452	7.603764534	0.001049042	-0.010967255	-0.002098084	-0.140869141	0.853515625	-0.675537109	899.9	-31.76077446	24.18128493	-163.5208175	-67
57339	0	-0.167724609	-0.185974121	0.304138184	0.999999046	0.00019455	-0.000247002	-2.67029E-05	-4.193115234	-4.649353027	7.60345459	0.009727478	-0.012350083	-0.001335144	-0.140869141	0.853515625	-0.672851563	899.72	-31.74161298	24.1663365	-163.505575	-67
57340	0	-0.1662817	-0.190747261	0.305393219	0.999999046	0.000155449	-0.000146866	-0.000142097	-4.157042503	-4.768681526	7.634830475	0.007772446	-0.007343292	-0.007104874	-0.140869141	0.853515625	-0.672851563	899.84	-31.73473402	24.15415346	-163.5080566	-67
57341	0	-0.167419434	-0.185791016	0.304260254	0.999999046	0.000289917	-0.000247002	-7.62939E-05	-4.18548584	-4.644775391	7.606506348	0.01449585	-0.012350083	-0.003814697	-0.138671875	0.855712891	-0.670654297	899.88	-31.7068009	24.13617394	-163.4819846	-67
57342	0	-0.166751862	-0.188631058	0.304451942	0.999999046	3.05176E-05	-0.000349045	-4.19617E-05	-4.168796539	-4.715776443	7.611298561	0.001525879	-0.01745224	-0.002098084	-0.141113281	0.855712891	-0.67578125	899.78	-31.7043892	24.1103229	-163.4589695	-67
57343	0	-0.166625977	-0.188964844	0.304504395	0.999999046	0.00030899	-0.000281334	-6.48499E-05	-4.165649414	-4.724121094	7.612609863	0.015449524	-0.014066697	-0.003242493	-0.140869141	0.853515625	-0.675537109	899.94	-31.6729508	24.08969352	-163.4465496	-67
57344	0	-0.167040825	-0.185196877	0.305445671	0.999999046	0.000292778	-0.000257492	-0.000134468	-4.176020622	-4.629921913	7.636141777	0.014638901	-0.012874604	-0.006723404	-0.143310547	0.853515625	-0.675537109	899.9	-31.64699075	24.06721156	-163.4423604	-67
57345	0	-0.166320801	-0.186035156	0.305419922	0.999999046	0.000156403	-0.000250816	-7.62939E-05	-4.15802002	-4.650878906	7.635498047	0.00782013	-0.012540817	-0.003814697	-0.143310547	0.851318359	-0.675292969	899.84	-31.63431023	24.04888823	-163.4372422	-67
57346	0	-0.16595459	-0.186645508	0.305114746	0.999999046	3.05176E-05	-0.000289917	-1.90735E-05	-4.148864746	-4.666137695	7.627868652	0.001525879	-0.01449585	-0.000953674	-0.140869141	0.851318359	-0.675537109	899.88	-31.63252504	24.03018322	-163.422059	-67
57347	0	-0.165771484	-0.188354492	0.305053711	0.999999046	0.000267029	-0.000166893	-5.34058E-05	-4.144287109	-4.708862305	7.626342773	0.013351441	-0.00834465	-0.002670288	-0.143066406	0.851318359	-0.677978516	899.9	-31.60844913	24.021409	-163.4233072	-67
57348	0	-0.166077614	-0.186562538	0.303865433	0.999999046	0.000355721	-0.000270844	-6.48499E-05	-4.151940346	-4.664063454	7.596635818	0.017786027	-0.013542176	-0.003242493	-0.140869141	0.853515625	-0.678222656	899.88	-31.57191211	24.00180013	-163.4084605	-67
57349	0	-0.166320801	-0.185668945	0.305053711	0.999999046	0.000118256	-0.000311852	-0.00019455	-4.15802002	-4.641723633	7.626342773	0.005912781	-0.015592575	-0.009727478	-0.145751953	0.853515625	-0.675292969	899.94	-31.56707147	23.9704085	-163.4007123	-67
57350	0	-0.166180611	-0.185540199	0.305323601	0.999999046	0.000198364	-0.000293732	-0.000115395	-4.154515266	-4.638504982	7.633090019	0.009918213	-0.014686585	-0.00576973	-0.143310547	0.851318359	-0.675292969	899.88	-31.55011863	23.94555586	-163.3893189	-67
57351	0	-0.165771484	-0.188476563	0.304504395	0.999999046	-3.8147E-06	-0.000319481	-4.19617E-05	-4.144287109	-4.711914063	7.612609863	-0.000190735	-0.015974045	-0.002098084	-0.145507813	0.851318359	-0.675048828	899.9	-31.55249675	23.92259158	-163.369606	-67
57352	0	-0.165316582	-0.189287186	0.305645943	0.999999046	0.000693321	-0.000144958	-0.00017643	-4.132914543	-4.732179642	7.641148567	0.034666064	-0.007247925	-0.008821488	-0.145507813	0.849121094	-0.674804688	899.78	-31.48551569	23.90860656	-163.3763859	-67
57353	0	-0.165466309	-0.182617188	0.304626465	0.999999046	0.00037384	-0.000258446	-0.00019455	-4.136657715	-4.565429688	7.615661621	0.018692017	-0.012922288	-0.009727478	-0.145507813	0.849121094	-0.674804688	899.84	-31.45286111	23.88248583	-163.3746884	-67
57354	0	-0.165175438	-0.185505867	0.305094719	0.999999046	7.62939E-06	-0.00028038	-0.000198364	-4.129385948	-4.637646675	7.627367973	0.00038147	-0.014019013	-0.009918213	-0.147949219	0.849121094	-0.677490234	899.7	-31.4617531	23.85400988	-163.3792772	-67
57355	0	-0.165283203	-0.185119629	0.30645752	0.999999046	0.000156403	-0.000239372	-7.24792E-05	-4.132080078	-4.627990723	7.661437988	0.00782013	-0.011968613	-0.003623962	-0.147949219	0.849121094	-0.677490234	899.88	-31.44920797	23.83707285	-163.3717983	-67
57356	0	-0.164011002	-0.188099861	0.305679321	0.999999046	-4.1008E-05	-0.000268936	-7.24792E-05	-4.10027504	-4.702496529	7.641983032	-0.0020504	-0.013446808	-0.003623962	-0.147949219	0.849121094	-0.677490234	899.82	-31.45854265	23.8172232	-163.3626976	-68
57357	0	-0.164794922	-0.185241699	0.305297852	0.999999046	0.00019455	-0.000250816	-7.62939E-05	-4.119873047	-4.63104248	7.632446289	0.009727478	-0.012540817	-0.003814697	-0.147949219	0.849121094	-0.677490234	899.88	-31.44151235	23.79892248	-163.3536618	-68
57358	0	-0.164003372	-0.186491013	0.305330276	0.999999046	6.48499E-05	-0.000265121	-5.72205E-05	-4.100084305	-4.662275314	7.633256912	0.003242493	-0.013256073	-0.002861023	-0.147949219	0.849121094	-0.677490234	899.9	-31.43815911	23.78035477	-163.3412451	-68
57359	0	-0.165100098	-0.186645508	0.30657959	0.999999046	0.000240326	-9.05991E-05	-0.000133514	-4.127502441	-4.666137695	7.664489746	0.012016297	-0.004529953	-0.00667572	-0.147705078	0.846923828	-0.679931641	899.88	-31.42262444	23.77431112	-163.3580892	-67
57360	0	-0.164445877	-0.185139656	0.305721283	0.999999046	0.000237465	-0.00019455	-0.0001297	-4.111146927	-4.628491402	7.643032074	0.011873245	-0.009727478	-0.006484985	-0.147705078	0.846923828	-0.679931641	899.9	-31.40449991	23.75833789	-163.3654182	-67
57361	0	-0.16418457	-0.18536377	0.307189941	0.999999046	6.86646E-05	-0.000247002	-4.57764E-05	-4.104614258	-4.634094238	7.679748535	0.003433228	-0.012350083	-0.002288818	-0.147705078	0.846923828	-0.679931641	899.96	-31.40070342	23.74223928	-163.3595857	-67
57362	0	-0.163344383	-0.186618805	0.307295799	0.999999046	6.86646E-05	-0.000202179	4.86374E-05	-4.083609581	-4.665470123	7.682394981	0.003433228	-0.010108948	0.00243187	-0.150146484	0.846923828	-0.677001953	899.88	-31.39399095	23.73612629	-163.3414696	-68
57363	0	-0.162902832	-0.186584473	0.307556152	0.999999046	0.000175476	-0.000121117	-0.000118256	-4.072570801	-4.664611816	7.688903809	0.008773804	-0.006055832	-0.005912781	-0.149902344	0.844726563	-0.679443359	899.82	-31.38438378	23.72796195	-163.3565616	-68
57364	0	-0.164188385	-0.186516762	0.305707932	0.999999046	0.000279427	-0.00012207	-3.91006E-05	-4.104709625	-4.662919044	7.642698288	0.013971329	-0.006103516	-0.001955032	-0.150146484	0.846923828	-0.6796875	899.88	-31.35941745	23.72442162	-163.3549361	-68
57365	0	-0.16394043	-0.184936523	0.305603027	0.999999046	0.000179291	-0.000239372	-0.0001297	-4.098510742	-4.623413086	7.640075684	0.008964539	-0.011968613	-0.006484985	-0.152587891	0.846923828	-0.679443359	899.88	-31.34672606	23.70400696	-163.3549694	-68
57366	0	-0.163989067	-0.184808731	0.307273865	0.999999046	0.000175476	-0.000175476	-9.53674E-07	-4.099726677	-4.620218277	7.681846619	0.008773804	-0.008773804	-4.76837E-05	-0.150146484	0.846923828	-0.6796875	899.7	-31.33059821	23.69752011	-163.3430126	-68
57367	0	-0.164367676	-0.187255859	0.305847168	0.999999046	-2.67029E-05	-0.000288963	0.000152588	-4.109191895	-4.681396484	7.646179199	-0.001335144	-0.014448166	0.007629395	-0.15234375	0.846923828	-0.682128906	899.88	-31.3281158	23.68908537	-163.3146452	-68
57368	0	-0.163393021	-0.188504219	0.307579041	0.999999046	0.000575066	-0.000181198	-0.000123024	-4.084825516	-4.712605476	7.689476013	0.028753282	-0.009059907	-0.0061512	-0.152587891	0.846923828	-0.679443359	899.88	-31.27134241	23.67474605	-163.3126024	-68
57369	0	-0.163452148	-0.182556152	0.307617188	0.999999046	0.000247955	-0.000235558	-0.000198364	-4.086303711	-4.563903809	7.690429688	0.012397766	-0.011777878	-0.009918213	-0.152587891	0.846923828	-0.679443359	899.84	-31.25381023	23.65061115	-163.3131483	-68
57370	0	-0.163355827	-0.18509388	0.307724953	0.999999046	-8.7738E-05	-0.00028038	-7.62939E-05	-4.083895683	-4.627346992	7.693123817	-0.004386902	-0.014019013	-0.003814697	-0.149902344	0.844726563	-0.682128906	899.9	-31.26838734	23.62935347	-163.3087944	-68
57371	0	-0.164306641	-0.184936523	0.308227539	0.999999046	0.000114441	-0.000212669	-5.34058E-05	-4.107666016	-4.623413086	7.705688477	0.005722046	-0.010633469	-0.002670288	-0.15234375	0.844726563	-0.679443359	899.9	-31.26052333	23.61608762	-163.3013486	-68
57372	0	-0.163728714	-0.187447548	0.306997299	0.999999046	-9.53674E-07	-0.000162125	-0.000102997	-4.09321785	-4.686188698	7.67493248	-4.76837E-05	-0.008106232	-0.005149841	-0.15234375	0.844726563	-0.679443359	899.9	-31.26935679	23.6048197	-163.3024662	-68
57373	0	-0.163696289	-0.185241699	0.30859375	0.999999046	0.000164032	-0.000231743	-3.8147E-06	-4.092407227	-4.63104248	7.71484375	0.008201599	-0.011587143	-0.000190735	-0.154785156	0.844726563	-0.681884766	899.88	-31.25320589	23.59263211	-163.2941511	-68
57374	0	-0.162697792	-0.186180115	0.307936668	0.999999046	0.000160217	-0.000205994	0.000136375	-4.067444801	-4.654502869	7.69841671	0.008010864	-0.010299683	0.006818771	-0.15234375	0.842529297	-0.681884766	899.82	-31.23220557	23.59128884	-163.2761199	-68
57375	0	-0.163635254	-0.185668945	0.307556152	0.999999046	0.000202179	-4.86374E-05	-8.39233E-05	-4.090881348	-4.641723633	7.688903809	0.010108948	-0.00243187	-0.004196167	-0.15234375	0.844726563	-0.682128906	899.82	-31.21987768	23.59226626	-163.2841614	-68
57376	0	-0.163513184	-0.185389519	0.30691433	0.999999046	0.000145912	-0.000192642	-9.91821E-05	-4.08782959	-4.634737968	7.672858238	0.007295609	-0.009632111	-0.004959107	-0.15234375	0.844726563	-0.682128906	899.94	-31.21092024	23.57823258	-163.2833067	-68
57377	0	-0.162902832	-0.184692383	0.308105469	0.999999046	0.000335693	-0.000292778	-7.24792E-05	-4.072570801	-4.61730957	7.702636719	0.016784669	-0.014638901	-0.003623963	-0.15234375	0.844726563	-0.682128906	899.94	-31.17645596	23.55596204	-163.2705893	-68
57378	0	-0.16275692	-0.184326172	0.308202744	0.999999046	1.52588E-05	-0.000307083	-7.62939E-06	-4.068922997	-4.608154297	7.705068588	0.000762939	-0.015354157	-0.00038147	-0.154785156	0.846923828	-0.679443359	899.96	-31.17549953	23.53611545	-163.2399947	-68
57379	0	-0.162475586	-0.186279297	0.307128906	0.999999046	2.28882E-05	-7.9155E-05	-3.43323E-05	-4.061889648	-4.656982422	7.678222656	0.001144409	-0.003957748	-0.001716614	-0.154541016	0.842529297	-0.681640625	899.88	-31.18079482	23.53704386	-163.244436	-68
57380	0	-0.163146973	-0.186338425	0.306064606	0.999999046	0.000283241	-0.000198364	-4.673E-05	-4.078674316	-4.658460617	7.651615143	0.014162064	-0.009918213	-0.002336502	-0.15234375	0.844726563	-0.679443359	899.88	-31.15370891	23.52554245	-163.2279142	-68
57381	0	-0.162841797	-0.184020996	0.307006836	0.999999046	-5.34058E-05	-0.000197411	-3.05176E-05	-4.071044922	-4.600524902	7.675170898	-0.002670288	-0.009870529	-0.001525879	-0.154541016	0.842529297	-0.684326172	899.96	-31.16456714	23.51512548	-163.2285533	-68
57382	0	-0.163135529	-0.185590744	0.308394432	0.999999046	-0.0001297	-0.000226974	-1.14441E-05	-4.078388214	-4.6397686	7.709860802	-0.006484985	-0.011348724	-0.000572205	-0.154785156	0.846923828	-0.682128906	899.88	-31.18252545	23.50291614	-163.2090079	-68
57383	0	-0.163574219	-0.185058594	0.308044434	0.999999046	-3.43323E-05	-2.95639E-05	0.000164032	-4.089355469	-4.626464844	7.70111084	-0.001716614	-0.001478195	0.008201599	-0.154785156	0.844726563	-0.681884766	899.88	-31.18718632	23.52049165	-163.1902991	-68
57384	0	-0.162640572	-0.187102318	0.307796478	0.999999046	-1.81198E-05	9.53674E-06	0.000174522	-4.06601429	-4.677557945	7.694911957	-0.000905991	0.000476837	0.00872612	-0.154785156	0.844726563	-0.681884766	899.84	-31.19058132	23.54250976	-163.17372	-68
57385	0	-0.162109375	-0.183898926	0.307434082	0.999999046	-6.48499E-05	-4.48227E-05	0.000160217	-4.052734375	-4.597473145	7.685852051	-0.003242493	-0.002241135	0.008010864	-0.154785156	0.844726563	-0.684570313	899.94	-31.1985284	23.55834739	-163.1616569	-68
57386	0	-0.162507057	-0.185779572	0.307668686	0.999999046	-0.000371933	-0.00018692	2.28882E-05	-4.06267643	-4.644489288	7.691717148	-0.01859665	-0.009346009	0.001144409	-0.154785156	0.844726563	-0.684570313	899.88	-31.24387121	23.55209317	-163.1576875	-68
57387	0	-0.163146973	-0.184387207	0.307861328	0.999999046	-0.000171661	-0.000163078	0.000171661	-4.078674316	-4.609680176	7.696533203	-0.008583069	-0.008153916	0.008583069	-0.154785156	0.844726563	-0.679199219	899.84	-31.26047721	23.55700924	-163.1296004	-68
57388	0	-0.162622452	-0.186146736	0.307727814	0.999999046	-0.000468254	-8.39233E-05	0.000148773	-4.065561295	-4.653668404	7.693195343	-0.023412705	-0.004196167	0.00743866	-0.152587891	0.846923828	-0.679443359	899.9	-31.31410039	23.56830406	-163.105823	-68
57389	0	-0.163513184	-0.185974121	0.306884766	0.999999046	-0.000152588	-7.15256E-05	0.000156403	-4.08782959	-4.649353027	7.672119141	-0.007629395	-0.003576279	0.007820129	-0.154785156	0.844726563	-0.679199219	899.78	-31.33156996	23.58128499	-163.0910157	-68
57390	0	-0.163222313	-0.185528755	0.305996895	0.999999046	-0.000434875	-2.28882E-05	0.000339508	-4.080557823	-4.63821888	7.649922371	-0.021743776	-0.001144409	0.016975404	-0.149902344	0.844726563	-0.679443359	899.82	-31.37486277	23.60995661	-163.0607103	-67
57391	0	-0.163696289	-0.187927246	0.307189941	0.999999046	-0.000263214	-2.19345E-05	0.000247955	-4.092407227	-4.698181152	7.679748535	-0.013160706	-0.001096725	0.012397766	-0.154785156	0.846923828	-0.679443359	899.88	-31.40240097	23.63325643	-163.0399351	-67
57392	0	-0.163347244	-0.185322762	0.306550026	0.999999046	-0.00020504	5.34058E-05	0.000118256	-4.083681107	-4.633069038	7.663750648	-0.010251999	0.002670288	0.005912781	-0.152587891	0.846923828	-0.671630859	899.88	-31.43075558	23.65616578	-163.0219096	-67
57393	0	-0.163635254	-0.18572998	0.30645752	0.999999046	-0.000282288	-4.1008E-05	0.000274658	-4.090881348	-4.643249512	7.661437988	-0.01411438	-0.0020504	0.013732911	-0.152587891	0.846923828	-0.677001953	899.84	-31.45881556	23.67920724	-162.9953945	-67
57394	0	-0.163467407	-0.185325623	0.307037354	0.999999046	-0.000436783	-0.000183105	0.000300407	-4.086685181	-4.633140564	7.675933838	-0.021839143	-0.009155274	0.015020371	-0.152587891	0.846923828	-0.677001953	899.9	-31.49972564	23.68990758	-162.9605775	-67
57395	0	-0.163024902	-0.186828613	0.307800293	0.999999046	-0.000408173	6.19888E-05	0.000305176	-4.075622559	-4.670715332	7.695007324	-0.020408631	0.003099442	0.01525879	-0.150146484	0.849121094	-0.677246094	899.9	-31.54356745	23.72482203	-162.9374046	-67
57396	0	-0.164276123	-0.187711716	0.307138443	0.999999046	-0.000304222	0.000104904	0.000362396	-4.106903076	-4.692792892	7.678461075	-0.015211106	0.005245209	0.018119813	-0.152587891	0.849121094	-0.677001953	899.84	-31.57416492	23.76735851	-162.9152299	-67
57397	0	-0.164306641	-0.187561035	0.306213379	0.999999046	-0.000141144	7.34329E-05	0.000289917	-4.107666016	-4.689025879	7.655334473	-0.00705719	0.003671646	0.01449585	-0.147949219	0.851318359	-0.675048828	899.94	-31.58834909	23.80246021	-162.8867708	-67
57398	0	-0.164581299	-0.185904503	0.306563377	0.999999046	-0.000391006	1.52588E-05	0.000159264	-4.114532471	-4.647612572	7.664084435	-0.019550324	0.000762939	0.007963181	-0.147949219	0.849121094	-0.674804688	899.94	-31.63525687	23.82405043	-162.8774937	-67
57399	0	-0.165649414	-0.186645508	0.306945801	0.999999046	-0.000244141	-3.33786E-05	0.000400543	-4.141235352	-4.666137695	7.67364502	-0.012207032	-0.00166893	0.020027161	-0.147949219	0.851318359	-0.677490234	899.84	-31.65361044	23.85540904	-162.8413537	-67
57400	0	-0.166024208	-0.188676834	0.305949211	0.999999046	-0.000433922	8.01086E-05	0.000434875	-4.150605202	-4.716920853	7.648730278	-0.021696092	0.004005432	0.021743776	-0.147949219	0.851318359	-0.672363281	899.88	-31.69523664	23.89991468	-162.8023512	-67
57401	0	-0.16418457	-0.190734863	0.304870605	0.999999046	0.000160217	0.000126839	0.000305176	-4.104614258	-4.768371582	7.621765137	0.008010864	0.006341934	0.015258789	-0.147949219	0.851318359	-0.675048828	899.94	-31.67568685	23.94114855	-162.7855495	-67
57402	0	-0.166144371	-0.183395386	0.305069923	0.999999046	4.00543E-05	-7.62939E-06	0.000164032	-4.153609276	-4.584884644	7.626748085	0.002002716	-0.00038147	0.008201599	-0.145507813	0.851318359	-0.677734375	899.96	-31.67237433	23.96080788	-162.7786236	-67
57403	0	-0.16583252	-0.187561035	0.305297852	0.999999046	-0.000331879	-2.86102E-06	0.000312805	-4.145812988	-4.689025879	7.632446289	-0.016593934	-0.000143051	0.015640259	-0.145751953	0.853515625	-0.675292969	899.9	-31.70533094	23.98987767	-162.7481334	-67
57404	0	-0.16613102	-0.187171936	0.304381371	0.999999046	0.000292778	-3.62396E-05	0.000380516	-4.15327549	-4.679298401	7.609534264	0.014638901	-0.001811981	0.019025803	-0.145751953	0.853515625	-0.675292969	899.88	-31.66285476	24.01977379	-162.7070217	-67
57405	0	-0.166748047	-0.189880371	0.304382324	0.999999046	0.000217438	-0.000117302	0.000144958	-4.168701172	-4.747009277	7.609558105	0.010871887	-0.005865097	0.007247925	-0.145751953	0.853515625	-0.672607422	899.88	-31.63710317	24.02758197	-162.6790967	-67
57406	0	-0.166426659	-0.191530228	0.306030273	0.999998093	0.001538277	0.000193596	0.000319481	-4.160666466	-4.788255692	7.650756836	0.076913866	0.009679798	0.015974051	-0.143310547	0.851318359	-0.675292969	899.96	-31.46078307	24.07618793	-162.6528129	-67
57407	0	-0.162414551	-0.190856934	0.313720703	0.999998093	0.001641273	0.000301361	0.000263214	-4.06036377	-4.77142334	7.843017578	0.082063714	0.015068061	0.013160712	-0.145507813	0.849121094	-0.677490234	899.84	-31.2779172	24.13182931	-162.6410056	-67
57408	0	-0.163618088	-0.175980568	0.322623253	0.999995232	0.002770424	0.001298904	5.72205E-06	-4.090452194	-4.399514198	8.065581322	0.138521411	0.064945322	0.000286103	-0.143066406	0.848876953	-0.683105469	900.02	-31.00314329	24.26995267	-162.7128106	-67
57409	0	-0.143676758	-0.169494629	0.340637207	0.999987602	-0.002590179	0.003903389	0.00107193	-3.591918945	-4.237365723	8.515930176	-0.129509471	0.1951702	0.053596703	-0.137939453	0.844482422	-0.685546875	899.82	-31.36558524	24.72606962	-162.8758521	-66
57410	0	-0.15712738	-0.156006813	0.334527969	0.999949455	-0.007362366	0.00676918	0.000797272	-3.928184509	-3.900170326	8.363199234	-0.368124462	0.338464693	0.039864255	-0.138427734	0.851074219	-0.678222656	899.78	-32.37206853	25.44246242	-163.2892811	-66
57411	0	-0.120544434	-0.151000977	0.346618652	0.999891281	-0.007845879	0.011135101	-0.005527496	-3.01361084	-3.775024414	8.665466309	-0.392308061	0.55677512	-0.276384772	-0.129150391	0.857910156	-0.671386719	899.94	-33.87161164	26.17309848	-164.7085345	-67
57412	0	-0.157312393	-0.167284966	0.342441559	0.999788284	-0.008140564	0.016770363	-0.008693695	-3.93280983	-4.182124138	8.561038971	-0.407056906	0.838577283	-0.434715411	-0.122802734	0.87109375	-0.659912109	899.9	-35.77330114	27.18911172	-166.8906095	-69
57413	0	-0.162231445	-0.157226563	0.319885254	0.999670029	-0.005549431	0.022052765	-0.011882782	-4.055786133	-3.930664063	7.997131348	-0.277501996	1.102759262	-0.594204307	-0.113769531	0.877685547	-0.653076172	899.82	-37.78791192	28.40460139	-169.860036	-75
57414	0	-0.153256416	-0.168417931	0.289395332	0.99944973	-0.008794785	0.027570724	-0.016159058	-3.831410408	-4.210448265	7.234883308	-0.439819784	1.378788761	-0.808100891	-0.106933594	0.882080078	-0.648681641	899.9	-40.70908541	29.6859668	-173.8318016	-76
57415	0	-0.170715332	-0.176757813	0.260437012	0.999329567	-0.008888245	0.029835701	-0.019233704	-4.267883301	-4.418945313	6.510925293	-0.444511477	1.492118193	-0.961899943	-0.095458984	0.891113281	-0.639648438	899.88	-44.02486638	30.73241186	-178.4225009	-70
57416	0	-0.165466309	-0.194519043	0.232666016	0.999235153	-0.006027222	0.031182289	-0.022796631	-4.136657715	-4.862976074	5.816650391	-0.301437901	1.559511875	-1.140122086	-0.091064453	0.897705078	-0.635009766	899.9	-47.36187803	31.36354291	176.4304227	-70
57417	0	-0.182922363	-0.192016602	0.189147949	0.999197006	-0.002806664	0.028991699	-0.027488708	-4.573059082	-4.800415039	4.72869873	-0.140370719	1.449972769	-1.374803128	-0.086425781	0.897705078	-0.635498047	899.88	-50.47044497	31.17605206	171.0449723	-87
57418	0	-0.197407722	-0.224778175	0.150986671	0.999217033	-0.000173569	0.022636414	-0.032441139	-4.935193062	-5.619454384	3.774666786	-0.008680701	1.132116078	-1.622480309	-0.090820313	0.893066406	-0.640136719	899.84	-53.05749426	29.86399635	165.9643615	-72
57419	0	-0.196960449	-0.276733398	0.128479004	0.999192238	0.009220123	0.01806736	-0.034671783	-4.92401123	-6.918334961	3.211975098	0.461130232	0.903611114	-1.734055723	-0.106933594	0.882080078	-0.651367188	899.84	-54.22955636	27.89376704	161.3536422	-68
57420	0	-0.22706604	-0.334794998	0.109739304	0.999240875	0.011575699	0.012005806	-0.035181999	-5.676651001	-8.369874954	2.74348259	0.578931273	0.600442066	-1.759544703	-0.138671875	0.855712891	-0.678710938	899.9	-54.65316684	25.41681034	157.435108	-69
57421	0	-0.161804199	-0.401916504	0.139953613	0.999360085	0.022842407	0.001763344	-0.027450562	-4.04510498	-10.0479126	3.498840332	1.142363853	0.088185987	-1.372820689	-0.177246094	0.822509766	-0.707519531	899.88	-52.95616141	23.00082583	155.2155097	-71
57422	0	-0.163188934	-0.426896095	0.213534355	0.999432564	0.02948761	-0.003566742	-0.015827179	-4.079723358	-10.67240238	5.338358879	1.474658984	-0.178370783	-0.791508425	-0.219482422	0.771484375	-0.750732422	899.9	-49.92061129	21.33153455	154.339242	-73
57423	0	-0.157409668	-0.415039063	0.232849121	0.999373436	0.034893036	-0.004858971	-0.003372192	-3.935241699	-10.37597656	5.821228027	1.745016197	-0.242999276	-0.168644836	-0.259521484	0.718261719	-0.788330078	899.82	-45.87734877	20.67581443	154.5188846	-73
57424	0	-0.165405273	-0.310180664	0.230285645	0.999498367	0.029338837	-0.008250237	0.008609772	-4.135131836	-7.754516602	5.757141113	1.467187159	-0.412580812	0.43056058	-0.284667969	0.660400391	-0.834716797	899.88	-42.0147885	20.68563529	155.9640233	-69
57425	0	-0.135276794	-0.238073349	0.246159554	0.999738693	0.006666183	-0.009753227	0.019507408	-3.381919861	-5.951833725	6.153988838	0.333338073	-0.487703644	0.975454976	-0.297363281	0.629150391	-0.854980469	899.78	-40.33802869	21.32317519	158.5161185	-72
57426	0	-0.204856873	-0.238285065	0.236742973	0.999698639	-0.010626793	-0.01085186	0.019248962	-5.121421814	-5.957126617	5.918574333	-0.531392901	-0.542647386	0.962544586	-0.295654297	0.642578125	-0.851074219	899.88	-40.5898519	21.8172729	161.1418002	-69
57427	0	-0.150024414	-0.22265625	0.18951416	0.999674797	-0.009773254	-0.017130852	0.016105652	-3.750610352	-5.56640625	4.737854004	-0.488715541	-0.856635174	0.805369639	-0.290283203	0.673828125	-0.824951172	899.78	-40.66184328	21.53829761	163.9865688	-70
57428	0	-0.179213524	-0.201020241	0.204777718	0.999695778	-0.003560066	-0.023651123	0.005989075	-4.480338097	-5.02550602	5.11944294	-0.178021351	-1.182676001	0.299484084	-0.284423828	0.696289063	-0.803466797	899.84	-40.22274324	19.93116506	166.3961417	-72
57429	0	-0.160827637	-0.175537109	0.183898926	0.999447823	0.006855011	-0.030486107	-0.011222839	-4.020690918	-4.388427734	4.597473145	0.342813552	-1.524585535	-0.561245114	-0.296875	0.698730469	-0.784179688	899.84	-39.04517684	16.43185023	167.690073	-80
57430	0	-0.10296154	-0.114879608	0.197016716	0.998286247	0.024206161	-0.037509918	-0.037829399	-2.574038506	-2.871990204	4.9254179	1.210999823	-1.876567845	-1.892551019	-0.333984375	0.668212891	-0.773681641	899.9	-36.46959161	10.38948307	166.8982585	-77
57431	0	-0.223083496	-0.423583984	0.487243652	0.993966103	0.067241669	-0.051291466	-0.069839478	-5.577087402	-10.58959961	12.18109131	3.36886106	-2.569743212	-3.499013348	-0.406738281	0.577880859	-0.771484375	899.84	-29.09908896	1.1161828	163.4210357	-73
57432	0	0.192664146	-0.166276932	0.596759796	0.996273041	0.045793533	-0.056284904	-0.046629906	4.816603661	-4.156923294	14.9189949	2.292525177	-2.817746334	-2.334395821	-0.517089844	0.352294922	-0.773925781	899.88	-23.74315576	-7.031896952	161.4764128	-74
57433	0	-0.039978027	-0.393310547	0.493835449	0.997888565	0.017178535	-0.028682709	-0.055679321	-0.999450684	-9.832763672	12.34588623	0.859531746	-1.43514555	-2.785926911	-0.695800781	0.259521484	-0.713867188	899.94	-20.97758856	-12.48916245	156.7471756	-75
57434	0	0.103125572	-0.209090233	0.650067329	0.999271393	-0.009423256	-0.022198677	-0.029576302	2.578139305	-5.227255821	16.25168324	-0.471277233	-1.110203436	-1.479174256	-0.782470703	0.140869141	-0.679443359	899.88	-21.49538734	-16.07228682	154.4136167	-76
57435	0	0.270141602	-0.730163574	0.405273438	0.997531891	0.059727669	-0.022850037	-0.02898407	6.753540039	-18.25408936	10.13183594	2.988842507	-1.143442598	-1.450396805	-0.841552734	0.106445313	-0.632568359	899.9	-13.89742606	-19.56202644	151.9700317	-80
57436	0	-0.032465935	-0.307525635	0.263720512	0.988399506	0.150108337	-0.018279076	-0.014103889	-0.811648369	-7.688140869	6.59301281	7.534573295	-0.917504233	-0.707933955	-0.873535156	-0.06640625	-0.599853516	899.94	3.890318076	-21.76935913	150.4820154	-77
57437	0	0.019104004	-0.044799805	0.162780762	0.993889809	0.108886719	-0.016516685	-0.007328033	0.477600098	-1.119995117	4.069519043	5.455451544	-0.827520366	-0.367149748	-0.901123047	-0.256347656	-0.515625	899.9	16.85639438	-23.45651477	149.2073239	-72
57438	0	0.091012001	0.074133873	0.130311012	0.996707916	0.078999519	-0.010081291	-0.015140533	2.275300026	1.853346825	3.257775307	3.954315216	-0.5046183	-0.757858304	-0.920166016	-0.364501953	-0.428222656	899.9	26.78922109	-23.86015935	146.9816941	-79
57439	0	0.216796875	0.217163086	0.16986084	0.998921394	0.042800903	-0.001749992	-0.017913818	5.419921875	5.429077148	4.246520996	2.140814861	-0.087531089	-0.896013065	-0.930175781	-0.454833984	-0.353515625	899.76	32.48926024	-22.9972096	144.9261915	-72
57440	0	0.196546555	0.327176094	0.329759598	0.999796867	0.013760567	0.007894516	-0.012395859	4.913663864	8.179402351	8.243989944	0.688074824	0.39475247	-0.619834816	-0.924072266	-0.508056641	-0.322998047	899.96	34.32595773	-21.43832201	144.1747962	-75
57441	0	0.150512695	0.278259277	0.400817871	0.999855042	-0.011870384	0.012008667	-0.001808167	3.762817383	6.956481934	10.02044678	-0.593547741	0.600462213	-0.090412671	-0.90625	-0.528320313	-0.333251953	899.78	32.72163277	-20.15457521	144.7765863	-70
57442	0	0.196883202	0.108383179	0.500562668	0.999803543	-0.001065254	0.016327858	0.011137962	4.92208004	2.709579468	12.5140667	-0.053266189	0.816446217	0.556934488	-0.891601563	-0.515625	-0.372314453	899.9	31.83167144	-19.23205041	146.9502992	-72
57443	0	0.143249512	0.120361328	0.538024902	0.999400139	0.016235352	0.028187752	0.011829376	3.581237793	3.009033203	13.45062256	0.811929758	1.409669165	0.591586978	-0.884521484	-0.498046875	-0.398193359	899.9	32.72116861	-17.20044594	149.9573092	-70
57444	0	0.123005867	0.075588226	0.439635277	0.999224663	-0.000243187	0.037021637	0.01335907	3.075146675	1.889705658	10.99088192	-0.012162489	1.851560108	0.668126069	-0.881591797	-0.489501953	-0.444091797	899.84	31.65725462	-14.39894629	153.6074892	-65
57445	0	0.143127441	-0.121032715	0.33026123	0.999126434	0.015770912	0.035507202	0.015388489	3.578186035	-3.025817871	8.256530762	0.788775294	1.775877229	0.769648554	-0.869140625	-0.463623047	-0.510742188	899.96	32.57953283	-11.86328442	157.4178258	-64
57446	0	0.103847504	-0.194712639	0.188919067	0.998715401	0.037721634	0.025815964	0.021841049	2.596187592	-4.867815971	4.722976685	1.886889374	1.291350947	1.09252011	-0.840087891	-0.457763672	-0.550537109	899.82	36.12033142	-10.80615468	161.3738787	-67
57447	0	0.093078613	-0.291320801	0.103149414	0.996900558	0.070393562	0.014545441	0.031955719	2.326965332	-7.28302002	2.578735352	3.523318218	0.728024189	1.599438403	-0.820800781	-0.462402344	-0.548828125	899.94	43.38150724	-11.83925809	165.6789882	-60
57448	0	0.071020126	-0.182329178	-0.036353111	0.992733002	0.112232208	0.001358986	0.043387413	1.775503159	-4.558229446	-0.908827782	5.625242474	0.068114362	2.174640617	-0.821289063	-0.486328125	-0.48828125	899.82	55.42673794	-15.48631893	169.7417002	-54
57449	0	0.068786621	-0.132019043	-0.175842285	0.9927845	0.103642464	-0.011287689	0.059230804	1.719665527	-3.300476074	-4.396057129	5.194621847	-0.565745688	2.968683104	-0.842529297	-0.491699219	-0.369873047	899.82	66.57154601	-22.02737466	172.4258602	-55
57450	0	0.169438362	-0.096879005	-0.299403191	0.991645813	0.106291771	-0.013871193	0.071737289	4.235959053	-2.421975136	-7.485079765	5.329436078	-0.695497266	3.596885206	-0.890625	-0.425537109	-0.252929688	899.78	78.29227549	-30.329562	173.813979	-49
57451	0	0.223571777	0.046264648	-0.336914063	0.992778778	0.103005409	-0.006557465	0.06111908	5.589294434	1.156616211	-8.422851563	5.162702037	-0.328664641	3.063330353	-0.951904297	-0.316894531	-0.154296875	899.84	90.12864932	-37.36131541	173.9018457	-51
57452	0	0.447482109	0.87049675	-0.699802399	0.99811554	-0.009740829	-0.022860527	0.056092262	11.18705273	21.76241875	-17.49505997	-0.487347516	-1.143744595	2.806375447	-0.999267578	-0.240234375	-0.0859375	899.88	91.29652486	-43.74444478	170.3484332	-51
57453	0	0.144104004	-0.112609863	-0.241882324	0.99447155	0.022884369	-0.070494652	0.074382782	3.602600098	-2.815246582	-6.047058105	1.146331637	-3.531242217	3.726007765	-1.021728516	-0.0703125	-0.024658203	899.82	103.925974	-51.16771998	156.8670276	-51
57454	0	0.509912491	0.343535423	-0.538015366	0.993543625	0.080203056	-0.079611778	-0.010014534	12.74781227	8.588385582	-13.45038414	4.018805376	-3.989177683	-0.501807099	-1.043701172	0.042724609	0.123779297	899.84	122.2589807	-46.49854292	144.8147844	-51
57455	0	0.149108887	0.139221191	-0.573913574	0.989833832	0.093155861	-0.105873108	-0.018493652	3.727722168	3.480529785	-14.34783936	4.673641606	-5.311667535	-0.927828933	-1.028320313	0.039550781	0.305664063	899.84	139.9490664	-36.86686168	134.4650546	-52
57456	0	0.124810219	0.462565422	-0.735546112	0.985481262	0.131059647	-0.097994804	-0.045221329	3.12025547	11.56413555	-18.3886528	6.584878983	-4.923589713	-2.272072181	-0.994384766	0.096679688	0.502685547	899.94	156.0293903	-24.56138	132.6766286	-59
57457	0	0.350280762	0.499267578	-0.774108887	0.98388195	0.148036957	-0.089449883	-0.045375824	8.757019043	12.48168945	-19.35272217	7.441872376	-4.49667856	-2.281059394	-0.913330078	0.136962891	0.649902344	899.9	172.3799962	-13.2541012	135.0522678	-72
57458	0	0.27107048	0.28549099	-0.741419792	0.99802494	-0.021924973	-0.057546616	-0.012392998	6.776762009	7.137274742	-18.5354948	-1.096970858	-2.879226426	-0.620058126	-0.818847656	0.232177734	0.738525391	899.94	169.7947969	-6.511747462	135.4062492	-72
57459	0	0.117004395	0.10925293	-0.542358398	0.996870995	0.035587311	-0.070307732	-0.006126404	2.925109863	2.731323242	-13.55895996	1.781223433	-3.51905711	-0.306640029	-0.71875	0.185058594	0.831054688	899.82	173.9031035	1.572576266	134.9879551	-70
57460	0	0.310034752	0.106724739	0.635306358	0.998315811	0.020698547	-0.054175377	0.001332283	7.750868797	2.668118477	15.88265896	1.035508701	-2.710290397	0.066651569	-0.639648438	0.247070313	0.915771484	899.88	176.2208718	7.74372395	134.3187485	-64
57461	0	0.102172852	0.06262207	-0.634033203	0.999715805	-0.004645348	-0.023101807	-0.003356934	2.554321289	1.565551758	-15.85083008	-0.232289317	-1.155199428	-0.167862532	-0.500244141	0.261230469	0.939208984	899.9	175.7187513	10.40377432	134.4899686	-60
57462	0	-0.113872528	0.002397537	-0.726417542	0.999392509	0.015563965	-0.026298523	-0.01674366	-2.846813202	0.059938431	-18.16043854	0.77835581	-1.31519239	-0.837352509	-0.433349609	0.249511719	0.959472656	900	177.8739366	13.5122958	136.2740028	-63
57463	0	-0.186645508	-0.006591797	-0.81640625	0.992293358	0.109458923	-0.004778862	-0.057868958	-4.666137695	-0.164794922	-20.41015625	5.487048088	-0.239558775	-2.900903307	-0.397216797	0.300048828	0.963378906	899.96	-167.9357004	13.47323687	143.1595614	-66
57464	0	-0.288722038	-0.109539986	-0.62744236	0.990611076	0.116156578	0.008749008	-0.071555138	-7.218050957	-2.738499641	-15.686059	5.826073211	0.438824585	-3.588995797	-0.36328125	0.458984375	0.857421875	899.88	-153.0351576	9.770165755	150.7172712	-68
57465	0	-0.087524414	-0.274047852	-0.401916504	0.994704247	0.09853363	0.013741493	-0.025798798	-2.188110352	-6.851196289	-10.0479126	4.935396665	0.688290075	-1.292221744	-0.419433594	0.569580078	0.721923828	899.78	-141.4813401	6.834416821	152.3751293	-69
57466	0	-0.053195	-0.0762043	-0.26192379	0.997695923	0.065543175	0.009903908	0.01439476	-1.329874992	-1.905107498	-6.548094749	3.279677101	0.495575926	0.720291096	-0.509277344	0.682861328	0.588867188	899.88	-134.2080997	7.088408155	150.3766192	-72
57467	0	-0.076416016	-0.215698242	-0.261230469	0.999471664	-0.008788109	-0.013835907	0.02803421	-1.910400391	-5.392456055	-6.530761719	-0.439482709	-0.691916999	1.401956997	-0.546875	0.765136719	0.5234375	899.9	-135.3943038	10.47445213	149.2048523	-85
57468	0	-0.139960289	-0.5750494	-0.22751236	0.988042831	0.124820709	0.011153221	0.089802742	-3.499007225	-14.37623501	-5.68780899	6.266027719	0.559894213	4.508117877	-0.512695313	0.798095703	0.529052734	899.96	-122.8761861	17.66097021	141.5830435	-67
57469	0	0.27746582	-0.232666016	-0.382141113	0.993388176	0.112594604	0.017140388	-0.014389038	6.936645508	-5.816650391	-9.553527832	5.642169256	0.858913031	-0.721041552	-0.454101563	0.979248047	0.244628906	899.84	-110.2486797	15.29091675	140.5171574	-67
57470	0	-0.043584824	-0.110835075	-0.175720215	0.999468803	0.029376984	0.01404953	0.001168251	-1.08962059	-2.770876884	-4.393005371	1.469109234	0.702600871	0.058422894	-0.316650391	0.984619141	0.051757813	899.94	-107.3109912	14.88337949	138.8792159	-70
57471	0	0.045410156	-0.254882813	-0.097473145	0.998657227	0.049477577	0.01468277	-0.004371643	1.135253906	-6.372070313	-2.436828613	2.474986321	0.734467134	-0.218680004	-0.365722656	0.991455078	-0.006347656	899.88	-102.0314711	13.95496414	137.3213214	-74
57472	0	-0.048362732	-0.206418037	0.00093174	0.998540878	0.04621315	0.022574425	-0.016424179	-1.209068298	-5.160450935	0.023293495	2.311781576	1.129270331	-0.821608451	-0.357421875	0.974609375	-0.138183594	899.94	-97.24628352	11.64890325	135.0169573	-74
57473	0	-0.179016113	-0.216430664	0.055969238	0.999360085	0.011356354	0.02719593	-0.020267487	-4.475402832	-5.410766602	1.399230957	0.567938831	1.360086635	-1.013590531	-0.373779297	0.949462891	-0.222412109	899.88	-96.46088902	8.956248985	132.1388985	-78
57474	0	-0.268321037	-0.340092659	0.044409752	0.999279976	0.013643265	0.02363205	-0.026338577	-6.708025932	-8.502316475	1.110243797	0.682326874	1.181885918	-1.317244765	-0.397949219	0.925048828	-0.266357422	900.02	-95.20535543	5.667733229	129.7179968	-81
57475	0	-0.178466797	-0.479492188	-0.072875977	0.996315002	-0.082190514	0.021827698	-0.011131287	-4.461669922	-11.98730469	-1.821899414	-4.114580458	1.092727307	-0.557248913	-0.431152344	0.916503906	-0.260498047	899.9	-104.8288552	3.968267787	127.4458821	-81
57476	0	-0.022088051	-0.510401726	-0.251917839	0.998000145	-0.06033802	0.007423401	-0.017292023	-0.552201271	-12.76004314	-6.297945976	-3.018913287	0.371417614	-0.865177824	-0.451171875	0.929199219	-0.130371094	899.96	-111.7623702	1.810196498	127.2442529	-81
57477	0	-0.020080566	-0.415588379	-0.24017334	0.999916077	-0.009558678	-0.007228851	-0.004894257	-0.50201416	-10.38970947	-6.004333496	-0.477947233	-0.361452662	-0.244719665	-0.479003906	0.923583984	-0.048583984	899.88	-112.8341184	1.595575694	128.2218714	-79
57478	0	-0.017796516	-0.35118866	-0.134460449	0.999938965	0.000775337	-0.01085186	-0.001922607	-0.44491291	-8.779716492	-3.36151123	0.03876765	-0.542604041	-0.096132327	-0.500488281	0.919433594	-0.036132813	899.82	-112.7131247	1.863843291	129.4556309	-79
57479	0	-0.015075684	-0.32421875	-0.085083008	0.999627113	-0.014621735	-0.008536339	0.021385193	-0.37689209	-8.10546875	-2.127075195	-0.731177415	-0.426869883	1.069392274	-0.508300781	0.924316406	-0.017333984	899.9	-114.3979611	4.491341202	129.3806865	-79
57480	0	0.030282021	-0.2973032	-0.101213455	0.999157906	-0.039774895	-0.001264572	0.009917259	0.757050514	-7.432579994	-2.53033638	-1.989302667	-0.063246346	0.496002073	-0.5078125	0.94921875	0.030761719	899.96	-118.9945378	5.560325663	129.0019667	-82
57481	0	-0.037231445	-0.322387695	-0.166870117	0.998064995	-0.061515808	0.004582405	0.007762909	-0.930786133	-8.059692383	-4.17175293	-3.077775415	0.229268121	0.388395943	-0.467041016	0.949462891	0.120849609	899.96	-126.1454151	6.015426922	128.0691158	-83
57482	0	-0.059991837	-0.340497017	-0.274461746	0.998178482	-0.059972763	0.004681587	0.004395485	-1.499795914	-8.512425423	-6.861543655	-3.000459295	0.234221523	0.21990772	-0.449951172	0.934814453	0.239990234	899.94	-133.1034678	6.049210863	127.3248252	-84
57483	0	-0.053588867	-0.278076172	-0.37310791	0.999691963	-0.024620056	0.002617836	0.001235962	-1.33972168	-6.951904297	-9.327697754	-1.231128923	0.13090521	0.061804427	-0.436523438	0.913085938	0.328369141	900	-135.9630593	5.927632277	127.0137649	-83
57484	0	-0.041540146	-0.258357048	-0.311964035	0.999998093	-0.001356125	0.000548363	-0.000787735	-1.038503647	-6.458926201	-7.799100876	-0.067806275	0.027418149	-0.039386767	-0.431884766	0.899902344	0.355712891	899.9	-136.1219406	5.80747249	127.0462061	-87
57485	0	-0.034729004	-0.269897461	-0.27532959	0.999999046	0.001117706	-5.62668E-05	0.000148773	-0.868225098	-6.747436523	-6.883239746	0.055885327	-0.00281334	0.007438661	-0.431884766	0.902099609	0.352783203	899.96	-136.0002063	5.811518954	127.0485631	-90
57486	0	-0.039236069	-0.268491745	-0.276862144	0.999985695	-0.004522324	-0.00122261	0.002339363	-0.980901718	-6.712293625	-6.921553612	-0.226117214	-0.061130803	0.116968689	-0.434326172	0.900146484	0.358642578	899.84	-136.5339966	6.085567946	126.9633483	-89
57487	0	-0.045959473	-0.258666992	-0.2890625	0.999993324	-0.003211975	-0.000437737	0.00138855	-1.148986816	-6.466674805	-7.2265625	-0.160599088	-0.021886871	0.069427634	-0.432128906	0.900146484	0.366210938	899.88	-136.9164683	6.218672326	126.8937044	-87
57488	0	-0.045289993	-0.258927345	-0.292585373	0.999997139	0.002049446	0.00078392	-0.000784874	-1.132249832	-6.473183632	-7.314634323	0.102472398	0.03919605	-0.039243734	-0.427246094	0.900146484	0.365966797	900	-136.6869579	6.079104049	126.9081346	-88
57489	0	-0.042175293	-0.265869141	-0.289245605	0.999986649	0.004689217	0.000999451	-0.001422882	-1.054382324	-6.646728516	-7.231140137	0.234461808	0.049972743	-0.071144401	-0.427246094	0.899902344	0.360595703	899.96	-136.151336	5.871145634	126.9579755	-88
57490	0	-0.039814949	-0.269528389	-0.279061317	0.999994278	0.003296852	0.000292778	-0.000425339	-0.995373726	-6.738209724	-6.976532936	0.164842912	0.014638928	-0.021266977	-0.4296875	0.90234375	0.350097656	899.94	-135.7781091	5.800489045	126.9786031	-88
57491	0	-0.039550781	-0.269470215	-0.276367188	0.999999046	0.000160217	-8.29697E-05	0.000591278	-0.988769531	-6.736755371	-6.909179688	0.008010865	-0.004148484	0.029563906	-0.434326172	0.90234375	0.347900391	899.84	-135.7697241	5.841838069	126.9474732	-88
57492	0	-0.042113304	-0.268778801	-0.280364037	0.999998093	-0.001075745	-0.000102043	0.001121521	-1.052832603	-6.719470024	-7.009100914	-0.053787253	-0.00510216	0.056076072	-0.434326172	0.90234375	0.347900391	899.94	-135.9073622	5.927014311	126.8738406	-87
57493	0	-0.043945313	-0.268066406	-0.281799316	0.999999046	-0.000816345	-0.000144005	0.000549316	-1.098632813	-6.701660156	-7.04498291	-0.040817267	-0.007200242	0.027465825	-0.431884766	0.90234375	0.34765625	899.96	-136.0101501	5.969888976	126.848469	-87
57494	0	-0.042734146	-0.267009735	-0.282773018	0.999999046	-0.001062393	-0.000354767	0.000338554	-1.068353653	-6.675243378	-7.069325447	-0.053119672	-0.017738346	0.016927723	-0.4296875	0.90234375	0.350097656	899.82	-136.1376125	6.013308744	126.855911	-87
57495	0	-0.042785645	-0.266784668	-0.283569336	0.999999046	-0.000518799	-0.00032711	4.19617E-05	-1.069641113	-6.669616699	-7.089233398	-0.025939943	-0.016355516	0.002098084	-0.4296875	0.90234375	0.352783203	899.9	-136.2004554	6.030871693	126.8860402	-87
57496	0	-0.041956902	-0.265938759	-0.283452034	0.999999046	-0.000336647	-0.000267029	-7.72476E-05	-1.048922539	-6.648468971	-7.08630085	-0.016832352	-0.013351441	-0.003862381	-0.4296875	0.90234375	0.352783203	899.84	-136.2419076	6.033987709	126.9202717	-88
57497	0	-0.041931152	-0.266113281	-0.284912109	0.999999046	-0.000473022	-0.000189781	-6.10352E-05	-1.048278809	-6.652832031	-7.122802734	-0.023651124	-0.00948906	-0.003051758	-0.427246094	0.90234375	0.352539063	899.94	-136.2998152	6.031970428	126.9440859	-87
57498	0	-0.042434692	-0.266216278	-0.284660339	0.999999046	-0.000473022	-7.05719E-05	4.19617E-05	-1.06086731	-6.655406952	-7.116508484	-0.023651124	-0.003528595	0.002098084	-0.4296875	0.90234375	0.352783203	899.88	-136.3596398	6.028202186	126.9508265	-87
57499	0	-0.042297363	-0.265808105	-0.285339355	0.999999046	9.15527E-05	-0.000159264	1.14441E-05	-1.057434082	-6.645202637	-7.133483887	0.004577637	-0.007963181	0.000572205	-0.4296875	0.90234375	0.35546875	899.94	-136.3537851	6.029328683	126.9683439	-88
57500	0	-0.041784286	-0.265920639	-0.284361839	0.999999046	0.000144005	-8.58307E-05	-2.00272E-05	-1.044607162	-6.648015976	-7.109045982	0.007200241	-0.004291534	-0.001001358	-0.4296875	0.90234375	0.35546875	900	-136.3422724	6.021825376	126.982331	-88
57501	0	-0.041809082	-0.265930176	-0.283874512	0.999999046	0.000171661	-4.86374E-05	-1.52588E-05	-1.045227051	-6.648254395	-7.096862793	0.008583069	-0.00243187	-0.000762939	-0.4296875	0.900146484	0.358154297	899.9	-136.3279473	6.011557744	126.9952092	-88
57502	0	-0.041829109	-0.266151428	-0.282985687	0.999999046	8.7738E-05	-3.43323E-05	5.62668E-05	-1.04572773	-6.653785706	-7.074642181	0.004386902	-0.001716614	0.002813339	-0.4296875	0.90234375	0.352783203	899.94	-136.3239893	6.005734341	126.9965638	-87
57503	0	-0.04284668	-0.266235352	-0.283630371	0.999999046	-0.00012207	-4.48227E-05	9.53674E-05	-1.071166992	-6.655883789	-7.090759277	-0.006103516	-0.002241135	0.004768372	-0.4296875	0.90234375	0.35546875	899.98	-136.3443285	6.003844014	126.9966923	-88
57504	0	-0.04296875	-0.265991211	-0.284301758	0.999999046	4.29153E-05	-1.52588E-05	8.7738E-05	-1.07421875	-6.649780273	-7.107543945	0.002145767	-0.000762939	0.004386902	-0.4296875	0.900146484	0.355712891	899.88	-136.3459521	5.998870575	126.9961311	-88
57505	0	-0.042292595	-0.266252518	-0.284706116	0.999999046	-6.29425E-05	-0.000105858	0.0001297	-1.057314873	-6.656312943	-7.117652893	-0.003147125	-0.005292892	0.006484985	-0.4296875	0.900146484	0.355712891	899.9	-136.3593341	6.004692901	126.9989541	-88
57506	0	-0.042360306	-0.266084671	-0.283325195	0.999999046	-9.72748E-05	-0.000171661	8.7738E-05	-1.059007645	-6.652116776	-7.083129883	-0.004863739	-0.008583069	0.004386902	-0.4296875	0.90234375	0.35546875	899.84	-136.3757373	6.012628644	127.0088324	-88
57507	0	-0.041992188	-0.265991211	-0.283447266	0.999999046	-0.000198364	-0.00014782	0.000106812	-1.049804688	-6.649780273	-7.086181641	-0.009918213	-0.007390976	0.005340576	-0.429931641	0.902587891	0.360839844	899.9	-136.4040805	6.020047819	127.0180678	-88
57508	0	-0.041706085	-0.265625954	-0.28323555	0.999999046	6.67572E-06	-0.000108719	6.67572E-06	-1.04265213	-6.640648842	-7.080888748	0.000333786	-0.005435944	0.000333786	-0.429931641	0.902587891	0.360839844	899.9	-136.4083747	6.016267983	127.0320599	-88
57509	0	-0.042663574	-0.265625	-0.283569336	0.999999046	-4.19617E-05	-6.77109E-05	2.67029E-05	-1.066589355	-6.640625	-7.089233398	-0.002098083	-0.003385544	0.001335144	-0.4296875	0.900146484	0.355712891	899.94	-136.418765	6.010649678	127.0385657	-88
57510	0	-0.043083191	-0.266148567	-0.283891678	0.999999046	0.000127792	-9.34601E-05	1.81198E-05	-1.077079773	-6.65371418	-7.097291946	0.006389618	-0.004673004	0.000905991	-0.432128906	0.902587891	0.358154297	899.94	-136.4094055	6.006469632	127.0499156	-88
57511	0	-0.042541504	-0.26550293	-0.282470703	0.999999046	6.48499E-05	-0.000113487	6.48499E-05	-1.063537598	-6.637573242	-7.061767578	0.003242493	-0.005674362	0.003242493	-0.427246094	0.900146484	0.352783203	899.94	-136.4075014	6.007632187	127.0526877	-88
57512	0	-0.042580605	-0.265961647	-0.284013748	0.999999046	1.81198E-05	-0.000148773	3.8147E-05	-1.064515114	-6.649041176	-7.100343704	0.000905991	-0.00743866	0.001907349	-0.4296875	0.90234375	0.35546875	899.88	-136.4104216	6.009583078	127.0630192	-88
57513	0	-0.042663574	-0.265563965	-0.283630371	0.999999046	-8.7738E-05	-0.000128746	-4.57764E-05	-1.066589355	-6.639099121	-7.090759277	-0.004386902	-0.006437302	-0.002288818	-0.4296875	0.90234375	0.35546875	899.94	-136.4249083	6.003221244	127.0782915	-88
57514	0	-0.041432381	-0.265274048	-0.284826279	0.999999046	-0.000183105	-0.000101089	6.10352E-05	-1.035809517	-6.631851196	-7.120656967	-0.009155274	-0.005054474	0.003051758	-0.427490234	0.900146484	0.360839844	899.9	-136.4515005	6.00294419	127.084986	-88
57515	0	-0.041809082	-0.26550293	-0.284301758	0.999999046	9.91821E-05	-9.05991E-05	8.01086E-05	-1.045227051	-6.637573242	-7.107543945	0.004959106	-0.004529953	0.004005432	-0.4296875	0.900146484	0.355712891	899.94	-136.4460074	6.003272988	127.0876548	-88
57516	0	-0.041782379	-0.265735626	-0.283875465	0.999999046	-0.000256538	-0.000225067	0.000102997	-1.044559479	-6.643390656	-7.096886635	-0.01282692	-0.011253357	0.005149841	-0.4296875	0.900146484	0.355712891	899.9	-136.4803581	6.016543203	127.0985994	-88
57517	0	-0.042358398	-0.265380859	-0.284545898	0.999999046	-0.0001297	-0.000193596	0.000156403	-1.058959961	-6.634521484	-7.113647461	-0.006484985	-0.009679794	0.007820129	-0.4296875	0.900146484	0.358154297	899.94	-136.5009067	6.031382564	127.1040765	-88
57518	0	-0.042369843	-0.265538216	-0.284049034	0.999999046	-6.29425E-05	-0.000221252	2.95639E-05	-1.059246063	-6.638455391	-7.101225853	-0.003147125	-0.011062622	0.001478195	-0.432128906	0.900390625	0.358398438	899.9	-136.512452	6.038487002	127.1240716	-88
57519	0	-0.042114258	-0.265197754	-0.283752441	0.999999046	8.01086E-05	-0.000117302	8.01086E-05	-1.052856445	-6.629943848	-7.093811035	0.004005432	-0.005865097	0.004005432	-0.4296875	0.900146484	0.358154297	899.88	-136.5089148	6.040907081	127.1293238	-88
57520	0	-0.042712212	-0.265603065	-0.283577919	0.999999046	-0.000126839	-0.000160217	6.86646E-05	-1.06780529	-6.640076637	-7.089447975	-0.006341934	-0.008010864	0.003433228	-0.432128906	0.900390625	0.358398438	899.88	-136.5286174	6.045969012	127.1406932	-88
57521	0	-0.042358398	-0.26550293	-0.284484863	0.999999046	-1.14441E-05	-6.77109E-05	8.7738E-05	-1.058959961	-6.637573242	-7.112121582	-0.000572205	-0.003385544	0.004386902	-0.427490234	0.90234375	0.357910156	899.88	-136.5360464	6.044824833	127.1373104	-88
57522	0	-0.042566299	-0.265672684	-0.28369236	0.999999046	-7.43866E-05	-0.000221252	0.000144958	-1.064157486	-6.641817093	-7.092308998	-0.00371933	-0.011062622	0.007247925	-0.432128906	0.902587891	0.358154297	900	-136.549887	6.060930227	127.1454963	-89
57523	0	-0.041809082	-0.264953613	-0.283203125	0.999999046	8.7738E-05	-0.000102043	4.95911E-05	-1.045227051	-6.623840332	-7.080078125	0.004386902	-0.005102158	0.002479553	-0.4296875	0.902587891	0.358154297	899.96	-136.5452954	6.059567798	127.1499813	-88
57524	0	-0.042077065	-0.265609741	-0.283270836	0.999999046	-4.1008E-05	-3.05176E-05	0.000190735	-1.051926613	-6.64024353	-7.081770897	-0.0020504	-0.001525879	0.009536743	-0.429931641	0.904785156	0.357910156	899.9	-136.5572845	6.06334815	127.1358011	-88
57525	0	-0.041870117	-0.264709473	-0.283508301	0.999999046	-4.95911E-05	-0.000243187	0.000106812	-1.04675293	-6.617736816	-7.08770752	-0.002479553	-0.012159348	0.005340576	-0.4296875	0.902587891	0.358154297	899.84	-136.5677267	6.078166701	127.1468101	-89
57526	0	-0.042553902	-0.26503849	-0.283758163	0.999999046	-0.00022316	-0.000144958	6.48499E-05	-1.063847542	-6.625962257	-7.093954086	-0.01115799	-0.007247925	0.003242493	-0.432128906	0.902587891	0.358154297	899.96	-136.5984976	6.081479551	127.1552602	-88
57527	0	-0.042724609	-0.265319824	-0.28314209	0.999999046	-0.000114441	-0.000128746	7.24792E-05	-1.068115234	-6.632995605	-7.078552246	-0.005722046	-0.006437302	0.003623962	-0.4296875	0.900146484	0.358154297	899.9	-136.6169916	6.084022316	127.1607769	-88
57528	0	-0.042043686	-0.265127182	-0.284840584	0.999999046	3.33786E-05	-0.000143051	5.24521E-05	-1.051092148	-6.62817955	-7.121014595	0.00166893	-0.007152557	0.002622604	-0.427490234	0.900146484	0.360839844	899.9	-136.6182477	6.086140527	127.1690023	-89
57529	0	-0.042175293	-0.265258789	-0.282592773	0.999999046	6.10352E-05	-0.000174522	0.000148773	-1.054382324	-6.631469727	-7.064819336	0.003051758	-0.00872612	0.00743866	-0.4296875	0.900146484	0.358154297	899.9	-136.6168926	6.098432346	127.1718448	-89
57530	0	-0.042720795	-0.264976501	-0.283583641	0.999999046	-0.000173569	-0.000106812	4.95911E-05	-1.068019867	-6.624412537	-7.089591026	-0.008678436	-0.005340576	0.002479553	-0.429931641	0.902587891	0.360839844	899.96	-136.6420926	6.097255905	127.177808	-89
57531	0	-0.04296875	-0.265136719	-0.284118652	0.999999046	-7.62939E-05	-0.000136375	8.7738E-05	-1.07421875	-6.628417969	-7.102966309	-0.003814697	-0.006818771	0.004386902	-0.432128906	0.902587891	0.360839844	899.9	-136.6562205	6.101523086	127.1847195	-89
57532	0	-0.042361259	-0.264842033	-0.283415794	0.999999046	-5.43594E-05	-0.000179291	4.86374E-05	-1.059031487	-6.621050835	-7.085394859	-0.002717972	-0.008964539	0.00243187	-0.4296875	0.900390625	0.360839844	899.94	-136.6671076	6.106263256	127.1971238	-89
57533	0	-0.042602539	-0.265258789	-0.284667969	0.999999046	-7.24792E-05	-0.000144005	-4.57764E-05	-1.065063477	-6.631469727	-7.116699219	-0.003623962	-0.007200241	-0.002288818	-0.4296875	0.897949219	0.361083984	900.02	-136.6795138	6.1006088	127.2159189	-89
57534	0	-0.042295456	-0.26503849	-0.284633636	0.999999046	-0.000156403	-0.000146866	5.72205E-05	-1.057386398	-6.625962257	-7.115840912	-0.007820129	-0.007343292	0.002861023	-0.4296875	0.900146484	0.358154297	899.96	-136.7024277	6.103276029	127.2220249	-89
57535	0	-0.042175293	-0.264770508	-0.284667969	0.999999046	8.39233E-05	-0.000151634	6.48499E-05	-1.054382324	-6.619262695	-7.116699219	0.004196167	-0.007581711	0.003242493	-0.4296875	0.897949219	0.361083984	899.94	-136.6978165	6.106895582	127.2317716	-89
57536	0	-0.042236328	-0.265118599	-0.285404205	0.999999046	-1.04904E-05	-0.000232697	0.0001297	-1.055908203	-6.627964973	-7.135105133	-0.000524521	-0.011634827	0.006484985	-0.4296875	0.900390625	0.360839844	899.9	-136.7039202	6.122345112	127.2405407	-89
57537	0	-0.042724609	-0.265136719	-0.284301758	0.999999046	9.53674E-05	-0.00014019	7.24792E-05	-1.068115234	-6.628417969	-7.107543945	0.004768372	-0.007009506	0.003623962	-0.4296875	0.902587891	0.358154297	899.94	-136.6981473	6.125569698	127.2432452	-89
57538	0	-0.042416573	-0.265002251	-0.284911156	0.999999046	1.71661E-05	-0.000141144	4.19617E-05	-1.060414314	-6.625056267	-7.122778893	0.000858307	-0.00705719	0.002098084	-0.427490234	0.90234375	0.357910156	899.9	-136.7010502	6.126447228	127.2464653	-89
57539	0	-0.042419434	-0.265014648	-0.284790039	0.999999046	-4.57764E-05	-0.000124931	1.90735E-05	-1.06048584	-6.625366211	-7.119750977	-0.002288818	-0.006246567	0.000953674	-0.427490234	0.900146484	0.360839844	899.94	-136.7110839	6.124132294	127.254154	-90
57540	0	-0.042562485	-0.26492691	-0.283644676	0.999999046	-6.38962E-05	-0.000211716	0.000109673	-1.064062119	-6.62317276	-7.091116905	-0.003194809	-0.010585785	0.005483627	-0.429931641	0.902587891	0.360839844	899.94	-136.7232477	6.136153522	127.2616858	-89
57541	0	-0.042602539	-0.265075684	-0.285217285	0.999999046	4.95911E-05	-7.9155E-05	3.8147E-06	-1.065063477	-6.62689209	-7.130432129	0.002479553	-0.003957748	0.000190735	-0.432128906	0.900390625	0.361083984	899.9	-136.7225653	6.128763394	127.2713939	-89
57542	0	-0.041856766	-0.265348434	-0.283353806	0.999999046	0.000144958	-8.7738E-05	8.67844E-05	-1.046419144	-6.633710861	-7.083845139	0.007247925	-0.004386902	0.004339218	-0.429931641	0.902587891	0.360839844	899.96	-136.711597	6.128577875	127.2710058	-89
57543	0	-0.043029785	-0.264892578	-0.283508301	0.999999046	6.48499E-05	-0.00026226	9.91821E-05	-1.075744629	-6.622314453	-7.08770752	0.003242493	-0.013113022	0.004959107	-0.427246094	0.900146484	0.358154297	899.88	-136.7084254	6.143913007	127.2804258	-90
57544	0	-0.042926788	-0.26540947	-0.28400135	0.999999046	-6.19888E-05	-0.000106812	4.19617E-05	-1.073169708	-6.63523674	-7.10003376	-0.003099442	-0.005340576	0.002098084	-0.427490234	0.902587891	0.360595703	899.88	-136.7205634	6.141765747	127.2827433	-89
57545	0	-0.042297363	-0.265197754	-0.285461426	0.999999046	7.62939E-05	-8.29697E-05	3.43323E-05	-1.057434082	-6.629943848	-7.136535645	0.003814697	-0.004148483	0.001716614	-0.4296875	0.900390625	0.360839844	899.88	-136.7169807	6.136987439	127.2879107	-89
57546	0	-0.042852402	-0.264811516	-0.284743309	0.999999046	5.14984E-05	-0.000108719	3.43323E-05	-1.071310043	-6.620287895	-7.118582726	0.002574921	-0.005435944	0.001716614	-0.4296875	0.900390625	0.360839844	899.88	-136.7160159	6.134336897	127.2949996	-90
57547	0	-0.042663574	-0.265136719	-0.283569336	0.999999046	3.43323E-05	-0.000159264	7.24792E-05	-1.066589355	-6.628417969	-7.089233398	0.001716614	-0.007963181	0.003623962	-0.4296875	0.900390625	0.360839844	899.84	-136.7169075	6.138878352	127.3028337	-89
57548	0	-0.04309845	-0.26515007	-0.284697533	0.999999046	-8.67844E-05	-6.48499E-05	0.000110626	-1.077461243	-6.628751755	-7.117438316	-0.004339218	-0.003242493	0.005531311	-0.429931641	0.902587891	0.360839844	899.88	-136.7328083	6.138529658	127.2984224	-89
57549	0	-0.042907715	-0.264648438	-0.285217285	0.999999046	0.000228882	-0.000124931	-9.91821E-05	-1.072692871	-6.616210938	-7.130432129	0.011444092	-0.006246567	-0.004959107	-0.4296875	0.900390625	0.360839844	899.9	-136.7101474	6.126687554	127.3177571	-89
57550	0	-0.042378426	-0.264787674	-0.284780502	0.999999046	-4.57764E-05	-6.10352E-05	5.72205E-05	-1.05946064	-6.619691849	-7.119512558	-0.002288818	-0.003051758	0.002861023	-0.427246094	0.900146484	0.358154297	899.9	-136.7209024	6.121785195	127.3140906	-89
57551	0	-0.04309082	-0.264709473	-0.28527832	0.999999046	3.8147E-05	-0.000144005	9.91821E-05	-1.077270508	-6.617736816	-7.131958008	0.001907349	-0.007200241	0.004959106	-0.427490234	0.90234375	0.357910156	899.9	-136.72172	6.12709212	127.3120838	-89
57552	0	-0.042189598	-0.264784813	-0.286223412	0.999999046	4.86374E-05	-9.72748E-05	-3.14713E-05	-1.054739952	-6.619620323	-7.155585289	0.00243187	-0.004863739	-0.001573563	-0.427246094	0.900146484	0.358154297	899.9	-136.7205717	6.118199479	127.3189846	-89
57553	0	-0.041931152	-0.264770508	-0.28527832	0.999999046	-4.57764E-05	-0.000132561	4.95911E-05	-1.048278809	-6.619262695	-7.131958008	-0.002288818	-0.006628037	0.002479553	-0.4296875	0.900146484	0.358154297	899.78	-136.7306693	6.118582177	127.3242997	-89
57554	0	-0.04227829	-0.264557838	-0.285657883	0.999999046	-2.28882E-05	-0.000120163	7.53403E-05	-1.056957245	-6.613945961	-7.141447067	-0.001144409	-0.006008148	0.003767014	-0.427246094	0.900146484	0.358154297	899.88	-136.7384889	6.119930893	127.3239087	-89
57555	0	-0.042602539	-0.265075684	-0.285644531	0.999999046	-7.62939E-05	-0.000128746	6.10352E-05	-1.065063477	-6.62689209	-7.141113281	-0.003814697	-0.006437302	0.003051758	-0.429931641	0.900390625	0.363525391	899.84	-136.7522206	6.120836809	127.3326106	-89
57556	0	-0.042098999	-0.264782906	-0.28549099	0.999999046	8.29697E-05	-0.000207901	5.24521E-05	-1.052474976	-6.619572639	-7.137274742	0.004148483	-0.01039505	0.002622604	-0.4296875	0.897949219	0.361083984	899.96	-136.746958	6.127647777	127.3476705	-89
57557	0	-0.041748047	-0.265136719	-0.284179688	0.999999046	0.000217438	-0.000117302	0.0001297	-1.043701172	-6.628417969	-7.104492188	0.010871887	-0.005865097	0.006484985	-0.427490234	0.900146484	0.360839844	899.92	-136.7277236	6.132935292	127.3452792	-89
57558	0	-0.041884422	-0.264762878	-0.285825729	0.999999046	-0.000204086	-0.000110626	9.53674E-05	-1.047110558	-6.61907196	-7.145643234	-0.010204315	-0.005531311	0.004768372	-0.4296875	0.900146484	0.358154297	899.84	-136.7565488	6.134938368	127.3447091	-89
57559	0	-0.042058945	-0.264455795	-0.284763336	1	2.57492E-05	-4.76837E-05	3.33786E-05	-1.051473618	-6.611394882	-7.119083405	0.00128746	-0.002384186	0.00166893	-0.4296875	0.900390625	0.360839844	899.9	-136.7590047	6.126786698	127.3465429	-89
57560	0	-0.041981697	-0.26526165	-0.284684181	1	2.47955E-05	-4.29153E-05	1.81198E-05	-1.049542427	-6.631541252	-7.11710453	0.001239777	-0.002145767	0.000905991	-0.4296875	0.900390625	0.360839844	900.04	-136.761456	6.117009687	127.3490915	-89
57561	0	-0.042053223	-0.265319824	-0.283996582	0.999999046	6.48499E-05	-3.33786E-05	-1.52588E-05	-1.051330566	-6.632995605	-7.099914551	0.003242493	-0.00166893	-0.000762939	-0.4296875	0.898193359	0.363769531	899.96	-136.7590691	6.103780199	127.3579426	-89
57562	0	-0.04194355	-0.265236855	-0.285058022	0.999999046	-3.8147E-05	-0.000205994	0.000102997	-1.048588753	-6.630921364	-7.126450539	-0.001907349	-0.010299683	0.005149841	-0.4296875	0.900390625	0.360839844	899.84	-136.7680828	6.114228948	127.365753	-89
57563	0	-0.042785645	-0.264709473	-0.285522461	0.999999046	0.000171661	-3.71933E-05	6.10352E-05	-1.069641113	-6.617736816	-7.138061523	0.008583069	-0.001859665	0.003051758	-0.429931641	0.902587891	0.360839844	900.02	-136.7540987	6.107282612	127.3625185	-89
57564	0	-0.041863441	-0.264986038	-0.285306931	0.999999046	6.38962E-05	-0.000106812	3.8147E-05	-1.046586037	-6.624650955	-7.132673264	0.003194809	-0.005340576	0.001907349	-0.4296875	0.900146484	0.358154297	900.02	-136.7516707	6.104322635	127.3659651	-89
57565	0	-0.041625977	-0.264160156	-0.28515625	0.999999046	0.000102997	-9.44138E-05	-4.57764E-05	-1.040649414	-6.604003906	-7.12890625	0.005149841	-0.004720688	-0.002288818	-0.427490234	0.900146484	0.360839844	899.9	-136.744124	6.093704521	127.3755047	-89
57566	0	-0.042022705	-0.264528275	-0.28472805	0.999999046	6.10352E-05	-0.0001297	7.62939E-06	-1.050567627	-6.613206863	-7.118201256	0.003051758	-0.006484985	0.00038147	-0.4296875	0.900390625	0.360839844	899.9	-136.7415609	6.090200307	127.3855034	-89
57567	0	-0.041320801	-0.264831543	-0.285644531	0.999999046	2.67029E-05	-9.44138E-05	7.62939E-06	-1.03302002	-6.620788574	-7.141113281	0.001335144	-0.004720688	0.00038147	-0.4296875	0.902587891	0.358154297	899.94	-136.7432348	6.083726135	127.3881515	-89
57568	0	-0.042539597	-0.264480591	-0.284279823	0.999999046	-7.9155E-05	-4.19617E-05	0.0001297	-1.063489914	-6.612014771	-7.106995583	-0.003957748	-0.002098084	0.006484985	-0.4296875	0.897949219	0.358398438	899.94	-136.7585525	6.082440437	127.3805842	-89
57569	0	-0.042785645	-0.264343262	-0.284362793	0.999999046	-9.91821E-05	-0.000155449	3.8147E-05	-1.069641113	-6.608581543	-7.109069824	-0.004959106	-0.007772446	0.001907349	-0.429931641	0.900390625	0.363525391	899.88	-136.7743915	6.083432427	127.3923665	-89
57570	0	-0.041674614	-0.264467239	-0.284585953	0.999999046	-5.72205E-06	-0.000110626	-4.29153E-05	-1.041865349	-6.611680984	-7.114648819	-0.000286102	-0.005531311	-0.002145767	-0.427490234	0.900146484	0.360839844	899.88	-136.7791697	6.074306237	127.401807	-89
57571	0	-0.041809082	-0.264404297	-0.28527832	0.999999046	0.000141144	-0.000121117	0.000110626	-1.045227051	-6.610107422	-7.131958008	0.00705719	-0.006055832	0.005531311	-0.4296875	0.900390625	0.360839844	899.88	-136.7683946	6.078080248	127.401907	-89
57572	0	-0.041754723	-0.263865471	-0.284584045	0.999999046	3.91006E-05	-0.000152588	0.000183105	-1.043868065	-6.596636772	-7.114601135	0.001955032	-0.007629395	0.009155274	-0.4296875	0.900390625	0.360839844	899.84	-136.7696946	6.090148458	127.3987277	-89
57573	0	-0.041809082	-0.264587402	-0.284851074	0.999999046	-6.10352E-05	-9.05991E-05	6.48499E-05	-1.045227051	-6.614685059	-7.121276855	-0.003051758	-0.004529953	0.003242493	-0.429931641	0.900390625	0.363525391	899.96	-136.7819278	6.087731684	127.4032356	-89
57574	0	-0.041529655	-0.263814926	-0.284631729	0.999999046	-2.09808E-05	-8.39233E-05	-1.23978E-05	-1.038241386	-6.595373154	-7.115793228	-0.001049042	-0.004196167	-0.000619888	-0.429931641	0.902587891	0.360839844	899.84	-136.7889421	6.078680756	127.408677	-89
57575	0	-0.041870117	-0.264404297	-0.284118652	0.999999046	0.0001297	-0.000170708	9.15527E-05	-1.04675293	-6.610107422	-7.102966309	0.006484985	-0.008535385	0.004577637	-0.4296875	0.900390625	0.360839844	899.98	-136.7788726	6.085011283	127.4142407	-89
57576	0	-0.04226017	-0.264043808	-0.284219742	0.999999046	-0.000107765	-0.000179291	8.7738E-05	-1.05650425	-6.6010952	-7.105493546	-0.00538826	-0.008964539	0.004386902	-0.432128906	0.900390625	0.361083984	899.88	-136.7958987	6.09174604	127.4235657	-89
57577	0	-0.042419434	-0.264526367	-0.285888672	0.999999046	-6.10352E-05	-4.1008E-05	0.000110626	-1.06048584	-6.61315918	-7.147216797	-0.003051758	-0.0020504	0.005531311	-0.4296875	0.900390625	0.360839844	899.96	-136.8089382	6.088718146	127.416765	-89
57578	0	-0.041586876	-0.264055252	-0.284392357	0.999999046	9.72748E-05	-5.91278E-05	1.04904E-05	-1.039671898	-6.601381302	-7.109808922	0.004863739	-0.00295639	0.000524521	-0.4296875	0.900146484	0.358154297	899.82	-136.8027847	6.079329717	127.4173279	-89
57579	0	-0.042602539	-0.264160156	-0.28527832	0.999999046	0	-0.000185966	0.000114441	-1.065063477	-6.604003906	-7.131958008	0	-0.009298325	0.005722046	-0.4296875	0.900146484	0.358154297	899.78	-136.8076446	6.088685548	127.4193106	-89
57580	0	-0.042282104	-0.264760971	-0.285079956	0.999999046	8.58307E-06	-5.91278E-05	9.82285E-05	-1.057052612	-6.619024277	-7.126998901	0.000429153	-0.00295639	0.004911423	-0.4296875	0.900146484	0.358154297	899.9	-136.812427	6.086160186	127.4127725	-89
57581	0	-0.042175293	-0.264770508	-0.284362793	0.999999046	2.28882E-05	-0.000121117	3.8147E-05	-1.054382324	-6.619262695	-7.109069824	0.001144409	-0.006055832	0.001907349	-0.4296875	0.900146484	0.358154297	899.72	-136.8144969	6.084088921	127.4161504	-88
57582	0	-0.041593552	-0.263987541	-0.284462929	0.999999046	0.000213623	-0.000120163	0.000102043	-1.039838791	-6.59968853	-7.111573219	0.010681152	-0.006008148	0.005102158	-0.4296875	0.900390625	0.360839844	899.9	-136.7952783	6.086920732	127.4172628	-89
57583	0	-0.041442871	-0.264587402	-0.28503418	0.999999046	3.8147E-06	-0.000105858	0.000102997	-1.036071777	-6.614685059	-7.125854492	0.000190735	-0.005292892	0.005149841	-0.4296875	0.900390625	0.360839844	899.96	-136.8002243	6.088605411	127.4171682	-89
57584	0	-0.042779922	-0.26458168	-0.285023689	0.999999046	-6.77109E-05	-3.8147E-05	3.8147E-05	-1.069498062	-6.614542007	-7.125592232	-0.003385544	-0.001907349	0.001907349	-0.4296875	0.900146484	0.358154297	899.9	-136.8133496	6.07954991	127.4142505	-89
57585	0	-0.041809082	-0.264038086	-0.284301758	0.999999046	3.8147E-05	-0.000102043	2.67029E-05	-1.045227051	-6.600952148	-7.107543945	0.001907349	-0.005102158	0.001335144	-0.432373047	0.902587891	0.363525391	899.96	-136.8136967	6.074910667	127.4238873	-89
57586	0	-0.041880608	-0.264544487	-0.285553932	0.999998093	6.38962E-05	-0.000191689	1.52588E-05	-1.04701519	-6.613612175	-7.138848305	0.003194809	-0.009584427	0.000762939	-0.4296875	0.900390625	0.360839844	899.96	-136.8102441	6.076851206	127.437293	-89
