Counter	Temperature	VelInc_X	VelInc_Y	VelInc_Z	OriInc_w	OriInc_x	OriInc_y	OriInc_z	Acc_X	Acc_Y	Acc_Z	Gyr_X	Gyr_Y	Gyr_Z	Mag_X	Mag_Y	Mag_Z	Pressure	Roll	Pitch	Yaw	RSSI
23437	0	0.364807129	-0.052856445	0.136535645	0.999999046	0.00062561	0.000535011	0.000595093	9.120178223	-1.321411133	3.413391113	0.031280523	0.026750569	0.029754644	-0.482177734	0.583496094	-0.621582031	898.7	-22.60086996	-67.85848108	-27.42029708	-60
23438	0	0.363072395	-0.053668976	0.13564682	0.999999046	0.000490189	0.000354767	0.000514984	9.076809883	-1.341724396	3.391170502	0.024509433	0.017738344	0.025749209	-0.479980469	0.583251953	-0.618896484	898.68	-22.62032916	-67.79929879	-27.3436193	-60
23439	0	0.36340332	-0.055358887	0.135437012	0.999999046	0.000774384	0.000115395	-5.34058E-05	9.085083008	-1.383972168	3.385925293	0.038719181	0.00576973	-0.002670288	-0.479736328	0.581054688	-0.621582031	898.6	-22.48570406	-67.79052736	-27.39350707	-60
23440	0	0.364232063	-0.053646088	0.13523674	0.999999046	0.000288963	-4.95911E-05	6.86646E-05	9.105801582	-1.341152191	3.380918503	0.014448166	-0.002479553	0.003433228	-0.479736328	0.583251953	-0.621826172	898.66	-22.45599069	-67.79397518	-27.39406514	-60
23441	0	0.368041992	-0.057128906	0.136474609	0.999999046	-0.000225067	-0.000285149	0.000270844	9.201049805	-1.428222656	3.411865234	-0.011253357	-0.014257432	0.013542176	-0.479736328	0.583251953	-0.621826172	898.58	-22.56323945	-67.81356354	-27.30863956	-60
23442	0	0.364061356	-0.058854103	0.138863564	0.999999046	0.000387192	-0.000143051	-4.673E-05	9.10153389	-1.471352577	3.471589088	0.019359589	-0.007152558	-0.002336502	-0.479736328	0.583251953	-0.624755859	898.7	-22.50297088	-67.83189835	-27.3247709	-60
23443	0	0.362426758	-0.056884766	0.13848877	0.999999046	0.000537872	-7.9155E-05	0.000358582	9.060668945	-1.422119141	3.462219238	0.026893618	-0.003957749	0.017929078	-0.479736328	0.581054688	-0.621582031	898.58	-22.52392718	-67.82555661	-27.23823744	-60
23444	0	0.364420891	-0.058095932	0.13891983	0.999999046	0.00061512	0.000267029	0.000613213	9.11052227	-1.4523983	3.472995758	0.030756001	0.013351442	0.030660633	-0.477539063	0.583251953	-0.619140625	898.64	-22.56488685	-67.77124943	-27.12940602	-60
23445	0	0.364379883	-0.055664063	0.136535645	0.999999046	0.000507355	0.0002985	0.000572205	9.10949707	-1.391601563	3.413391113	0.02536774	0.014925005	0.028610233	-0.477539063	0.583251953	-0.621826172	898.74	-22.60384244	-67.71543216	-27.03339913	-60
23446	0	0.366247177	-0.056677818	0.136749268	0.999999046	0.000131607	0.000125885	0.000426292	9.156179428	-1.416945457	3.418731689	0.006580353	0.006294251	0.021314622	-0.477294922	0.581054688	-0.621826172	898.58	-22.66658814	-67.68434393	-26.95505238	-60
23447	0	0.363342285	-0.055603027	0.137145996	0.999999046	0.000301361	-9.05991E-05	0.000499725	9.083557129	-1.390075684	3.428649902	0.015068055	-0.004529953	0.024986269	-0.475097656	0.583251953	-0.622070313	898.6	-22.75188006	-67.67287781	-26.83376278	-60
23448	0	0.362639427	-0.056127548	0.137173653	0.999999046	0.000250816	-8.96454E-05	0.000274658	9.06598568	-1.403188705	3.429341316	0.012540818	-0.004482269	0.01373291	-0.477294922	0.583251953	-0.627685547	898.58	-22.7848717	-67.67124802	-26.76721462	-60
23449	0	0.364257813	-0.057617188	0.13873291	0.999999046	0.000144958	-0.000159264	0.00019455	9.106445313	-1.440429688	3.468322754	0.007247925	-0.007963181	0.009727478	-0.475097656	0.583251953	-0.625	898.7	-22.81699282	-67.68045861	-26.71846132	-60
23450	0	0.366660118	-0.058574677	0.139791489	0.999999046	5.14984E-05	-7.43866E-05	-2.67029E-05	9.166502953	-1.464366913	3.494787216	0.002574921	-0.00371933	-0.001335144	-0.477294922	0.583251953	-0.624755859	898.6	-22.79383701	-67.69045214	-26.74239477	-60
23451	0	0.364929199	-0.058532715	0.139709473	0.999999046	9.91821E-05	8.4877E-05	0.000457764	9.12322998	-1.463317871	3.492736816	0.004959107	0.004243851	0.022888184	-0.477294922	0.581054688	-0.630371094	898.64	-22.87272493	-67.66197886	-26.63764675	-60
23452	0	0.362044334	-0.058531761	0.139475822	0.999999046	3.52859E-05	0.00018692	0.000407219	9.05110836	-1.463294029	3.486895561	0.001764298	0.009346009	0.020360947	-0.477294922	0.581054688	-0.621826172	898.58	-22.934771	-67.62480476	-26.57351042	-60
23453	0	0.36328125	-0.061157227	0.139709473	0.999999046	0.000488281	2.76566E-05	9.15527E-05	9.08203125	-1.528930664	3.492736816	0.024414064	0.001382828	0.004577637	-0.477294922	0.583251953	-0.624755859	898.54	-22.8815498	-67.61836254	-26.57815318	-60
23454	0	0.363140106	-0.060050011	0.139481544	0.999999046	0.001050949	-6.67572E-05	9.53674E-05	9.078502655	-1.501250267	3.487038612	0.052547465	-0.003337861	0.004768372	-0.475097656	0.583251953	-0.625	898.64	-22.77532098	-67.62160048	-26.57287627	-60
23455	0	0.364257813	-0.058410645	0.137634277	0.999999046	0.000926971	-0.000155449	0.000583649	9.106445313	-1.460266113	3.440856934	0.046348581	-0.007772447	0.02918244	-0.477294922	0.581054688	-0.624511719	898.68	-22.81830959	-67.61254339	-26.42246462	-60
23456	0	0.365208626	-0.059309959	0.140192986	0.999999046	0.001116753	-0.000177383	0.000231743	9.130215645	-1.482748985	3.504824638	0.055837644	-0.008869173	0.011587146	-0.474609375	0.578613281	-0.633300781	898.64	-22.75180261	-67.62133943	-26.35137346	-60
23457	0	0.36138916	-0.057434082	0.139648438	0.999999046	0.001037598	-8.29697E-05	0.000370026	9.034729004	-1.435852051	3.491210938	0.051879893	-0.004148484	0.018501286	-0.474609375	0.578613281	-0.630371094	898.64	-22.71965793	-67.61394415	-26.26131735	-60
23458	0	0.362041473	-0.057473183	0.140133858	0.999999046	0.001033783	5.72205E-05	0.000666618	9.051036835	-1.436829567	3.503346443	0.051689161	0.002861024	0.033330926	-0.472412109	0.580810547	-0.627685547	898.64	-22.74880284	-67.57848531	-26.11566804	-60
23459	0	0.364074707	-0.056335449	0.138061523	0.999999046	0.001121521	8.86917E-05	0.000442505	9.101867676	-1.40838623	3.451538086	0.056076063	0.004434587	0.02212525	-0.472167969	0.576416016	-0.630371094	898.54	-22.70685676	-67.5496806	-26.02867915	-60
23460	0	0.365037918	-0.056107521	0.137091637	0.999999046	0.000576973	5.72205E-05	0.000277519	9.125947952	-1.402688026	3.427290916	0.02884865	0.002861023	0.013875962	-0.474609375	0.57421875	-0.6328125	898.68	-22.688388	-67.53164067	-25.97938737	-60
23461	0	0.363769531	-0.056335449	0.137512207	0.999999046	0.000450134	2.38419E-05	0.000400543	9.094238281	-1.40838623	3.437805176	0.022506715	0.001192093	0.020027162	-0.474609375	0.57421875	-0.629882813	898.64	-22.71937999	-67.51176555	-25.89843045	-60
23462	0	0.363229752	-0.055708885	0.138737679	0.999999046	3.62396E-05	-9.15527E-05	0.000202179	9.08074379	-1.39272213	3.468441963	0.001811981	-0.004577637	0.010108948	-0.472167969	0.576171875	-0.638916016	898.6	-22.75926731	-67.51288242	-25.84624223	-60
23463	0	0.363891602	-0.056213379	0.140563965	0.999999046	-0.000263214	-0.000128746	-3.43323E-05	9.097290039	-1.405334473	3.514099121	-0.013160706	-0.006437302	-0.001716614	-0.472167969	0.576416016	-0.633300781	898.58	-22.77686174	-67.52836302	-25.86371436	-60
23464	0	0.363931656	-0.058887482	0.14068222	0.999999046	-0.000210762	-6.48499E-05	-5.34058E-05	9.098291397	-1.472187042	3.517055511	-0.010538101	-0.003242493	-0.002670288	-0.472167969	0.576416016	-0.635986328	898.64	-22.77681959	-67.53783536	-25.88858921	-60
23465	0	0.363708496	-0.059570313	0.140380859	0.999999046	-2.28882E-05	4.673E-05	2.28882E-05	9.092712402	-1.489257813	3.509521484	-0.001144409	0.002336502	0.001144409	-0.474365234	0.576416016	-0.638916016	898.64	-22.76297294	-67.53202493	-25.90135353	-60
23466	0	0.362715721	-0.059288979	0.13931179	0.999999046	0.000162125	9.34601E-05	0.000198364	9.067893028	-1.482224464	3.482794762	0.008106232	0.004673004	0.009918213	-0.474609375	0.576416016	-0.633056641	898.6	-22.7679621	-67.51342525	-25.88117663	-60
23467	0	0.363586426	-0.058532715	0.138244629	0.999999046	5.34058E-05	0.000180244	0.000213623	9.089660645	-1.463317871	3.456115723	0.002670288	0.009012222	0.010681152	-0.469726563	0.573974609	-0.635986328	898.6	-22.78015561	-67.48499268	-25.85681693	-60
23468	0	0.36229229	-0.056963921	0.136976242	0.999999046	-9.53674E-07	-3.8147E-06	0.000315666	9.057307243	-1.424098015	3.424406052	-4.76837E-05	-0.000190735	0.01578331	-0.472412109	0.578613281	-0.633300781	898.7	-22.84426794	-67.47154671	-25.79518875	-60
23469	0	0.362548828	-0.054870605	0.13873291	0.999999046	-0.000423431	-2.19345E-05	0.000282288	9.063720703	-1.371765137	3.468322754	-0.021171571	-0.001096726	0.01411438	-0.469726563	0.576171875	-0.639160156	898.66	-22.94983889	-67.46151527	-25.72495664	-60
23470	0	0.366978645	-0.0569067	0.140986443	0.999999046	-0.000825882	-3.8147E-05	-0.000148773	9.174466133	-1.422667503	3.524661064	-0.041294103	-0.001907349	-0.007438661	-0.472167969	0.578613281	-0.636230469	898.6	-22.99340025	-67.47244723	-25.77828044	-60
23471	0	0.362670898	-0.057189941	0.140991211	0.999999046	-0.000644684	-1.04904E-05	-0.000171661	9.066772461	-1.429748535	3.524780273	-0.032234194	-0.000524521	-0.008583069	-0.472167969	0.576416016	-0.635986328	898.58	-23.00717707	-67.48140813	-25.83631488	-60
23472	0	0.3620224	-0.058652878	0.142004967	0.999999046	-0.000596046	0.000291824	-6.86646E-05	9.050559998	-1.466321945	3.550124168	-0.029802325	0.014591218	-0.003433228	-0.474609375	0.578613281	-0.630371094	898.66	-23.00888349	-67.45369941	-25.91327745	-60
23473	0	0.363769531	-0.060791016	0.140197754	0.999999046	-0.000549316	0.000325203	-0.000118256	9.094238281	-1.519775391	3.504943848	-0.027465822	0.016260148	-0.005912781	-0.472412109	0.580810547	-0.630615234	898.6	-22.98943552	-67.42459929	-26.00817099	-60
23474	0	0.363998413	-0.059270859	0.138659477	0.999999046	-0.000642776	0.000413895	4.95911E-05	9.099960327	-1.481771469	3.466486931	-0.032138828	0.020694735	0.002479553	-0.472412109	0.578613281	-0.633300781	898.58	-23.01402369	-67.37865447	-26.05776943	-60
23475	0	0.362854004	-0.060180664	0.138427734	0.999999046	-0.000789642	0.000412941	0.000400543	9.071350098	-1.504516602	3.460693359	-0.039482123	0.020647052	0.020027164	-0.47265625	0.583007813	-0.627929688	898.58	-23.14446561	-67.31708605	-26.02391496	-60
23476	0	0.361530304	-0.060629845	0.13942337	0.999999046	-0.000382423	0.000185013	0.000300407	9.038257599	-1.515746117	3.485584259	-0.019121171	0.009250641	0.015020371	-0.472412109	0.583007813	-0.630859375	898.58	-23.22748573	-67.28397122	-25.98462017	-60
23477	0	0.361755371	-0.060241699	0.139221191	0.999999046	0.000102997	1.62125E-05	0.000247955	9.043884277	-1.50604248	3.480529785	0.005149841	0.000810623	0.012397766	-0.470214844	0.583007813	-0.628173828	898.54	-23.2599615	-67.27097627	-25.94355887	-59
23478	0	0.364163399	-0.058502197	0.13948822	0.999999046	-1.33514E-05	3.8147E-06	0.00032711	9.104084969	-1.462554932	3.487205505	-0.000667572	0.000190735	0.016355515	-0.470214844	0.583007813	-0.628173828	898.54	-23.32685794	-67.25574742	-25.87920829	-60
23479	0	0.364746094	-0.059509277	0.140625	0.999999046	-0.000183105	6.19888E-05	0.000286102	9.118652344	-1.487731934	3.515625	-0.009155274	0.003099442	0.014305115	-0.467773438	0.582763672	-0.631103516	898.52	-23.39648729	-67.23624107	-25.82608047	-60
23480	0	0.362620354	-0.057693481	0.139793396	0.999999046	-0.000161171	-5.34058E-05	0.000239372	9.065508842	-1.442337036	3.4948349	-0.008058548	-0.002670288	0.011968613	-0.470214844	0.583007813	-0.625244141	898.6	-23.46410366	-67.23101878	-25.78228779	-60
23481	0	0.362487793	-0.05871582	0.140686035	0.999999046	-0.00044632	-2.57492E-05	3.43323E-05	9.062194824	-1.467895508	3.517150879	-0.02231598	-0.00128746	0.001716614	-0.465332031	0.582763672	-0.631103516	898.6	-23.50985348	-67.23221878	-25.78408085	-60
23482	0	0.362612724	-0.06094265	0.140916824	0.999999046	-0.000112534	7.62939E-06	-3.8147E-06	9.065318108	-1.523566246	3.522920609	-0.005626678	0.00038147	-0.000190735	-0.467773438	0.582763672	-0.628173828	898.6	-23.50423668	-67.23159197	-25.80554936	-60
23483	0	0.361083984	-0.059326172	0.138183594	0.999999046	-0.00019455	-4.86374E-05	0.000175476	9.027099609	-1.483154297	3.454589844	-0.009727478	-0.00243187	0.008773804	-0.468017578	0.585205078	-0.625488281	898.6	-23.55904463	-67.22873326	-25.77881272	-60
23484	0	0.3670578	-0.06072998	0.138611794	0.999999046	-0.000725746	-0.000133514	6.86646E-05	9.176445007	-1.518249512	3.465294838	-0.036287311	-0.006675721	0.003433228	-0.467773438	0.584960938	-0.631347656	898.66	-23.65742421	-67.23979822	-25.75777605	-59
23485	0	0.362792969	-0.062744141	0.140991211	0.999999046	-6.48499E-05	-0.000250816	-1.90735E-05	9.069824219	-1.568603516	3.524780273	-0.003242493	-0.012540817	-0.000953674	-0.467773438	0.584960938	-0.631347656	898.58	-23.67123578	-67.26710131	-25.7458345	-60
23486	0	0.363293648	-0.06122303	0.142020226	0.999999046	0.000389099	-7.82013E-05	0.000281334	9.082341194	-1.530575752	3.550505638	0.019454957	-0.003910065	0.014066697	-0.468017578	0.585205078	-0.625488281	898.48	-23.68929718	-67.26234907	-25.68405889	-60
23487	0	0.361999512	-0.059265137	0.141296387	0.999999046	8.01086E-05	0.000256538	0.000434875	9.049987793	-1.481628418	3.532409668	0.004005432	0.01282692	0.021743775	-0.468017578	0.585205078	-0.628417969	898.58	-23.74407804	-67.21531782	-25.61643376	-59
23488	0	0.363889694	-0.060170174	0.140149117	0.999999046	-2.57492E-05	0.000343323	0.00014019	9.097242355	-1.504254341	3.503727913	-0.00128746	0.017166138	0.007009506	-0.468017578	0.585205078	-0.625488281	898.6	-23.72771029	-67.17278665	-25.64437186	-59
23489	0	0.36315918	-0.059814453	0.137451172	0.999999046	-0.000350952	0.000142097	0.000175476	9.078979492	-1.495361328	3.436279297	-0.017547608	0.007104874	0.008773804	-0.467773438	0.582763672	-0.628173828	898.64	-23.77949182	-67.1498758	-25.62951247	-59
23490	0	0.361571312	-0.062664986	0.139888763	0.999999046	0.00028038	-0.00021553	6.38962E-05	9.039282799	-1.566624641	3.497219086	0.014019013	-0.01077652	0.003194809	-0.468017578	0.585205078	-0.625488281	898.6	-23.77057928	-67.16957808	-25.61080624	-59
23491	0	0.362365723	-0.060852051	0.139343262	0.999999046	0.00069046	-0.000159264	4.19617E-05	9.059143066	-1.52130127	3.483581543	0.034523013	-0.007963181	0.002098084	-0.465576172	0.584960938	-0.631347656	898.58	-23.70306621	-67.18442049	-25.59613327	-59
23492	0	0.363930702	-0.060323715	0.1398592	0.999999046	8.86917E-05	3.8147E-05	0.000216484	9.098267555	-1.50809288	3.496479988	0.004434586	0.001907349	0.010824204	-0.467773438	0.584960938	-0.631347656	898.58	-23.72635832	-67.17054769	-25.55891923	-59
23493	0	0.36328125	-0.060913086	0.138305664	0.999999046	0.000164032	4.76837E-06	0.000350952	9.08203125	-1.522827148	3.457641602	0.008201599	0.000238419	0.017547608	-0.465576172	0.584960938	-0.628417969	898.66	-23.77823555	-67.15404481	-25.48566097	-59
23494	0	0.364153862	-0.059597015	0.140280724	0.999999046	0.000211716	-1.90735E-06	0.000113487	9.10384655	-1.489925385	3.507018089	0.010585785	-9.53674E-05	0.005674362	-0.465576172	0.584960938	-0.628417969	898.6	-23.76606291	-67.1492459	-25.47664629	-59
23495	0	0.362548828	-0.060241699	0.141357422	0.999999046	-0.000125885	-5.62668E-05	4.95911E-05	9.063720703	-1.50604248	3.533935547	-0.006294251	-0.002813339	0.002479553	-0.468017578	0.585205078	-0.628417969	898.66	-23.78249527	-67.15305402	-25.47919501	-59
23496	0	0.363534927	-0.060191154	0.140995026	0.999999046	0.000290871	0.000211716	4.57764E-05	9.088373184	-1.504778862	3.524875641	0.014543534	0.010585785	0.002288818	-0.465576172	0.584960938	-0.628417969	898.58	-23.72075255	-67.12892117	-25.51492379	-59
23497	0	0.362060547	-0.058898926	0.139953613	0.999999046	-6.86646E-05	0.000214577	7.62939E-06	9.051513672	-1.472473145	3.498840332	-0.003433228	0.010728836	0.00038147	-0.468017578	0.587402344	-0.628662109	898.66	-23.69029281	-67.10627409	-25.56566387	-59
23498	0	0.365478516	-0.060571671	0.139184952	0.999999046	-0.000396729	0.000137329	-0.000119209	9.136962891	-1.514291763	3.479623795	-0.019836426	0.006866455	-0.005960465	-0.465332031	0.584960938	-0.634277344	898.58	-23.67443998	-67.09767796	-25.6264997	-59
23499	0	0.363037109	-0.0625	0.139648438	0.999999046	0.000232697	-9.82285E-05	-0.00018692	9.075927734	-1.5625	3.491210938	0.011634827	-0.004911423	-0.009346008	-0.463134766	0.584960938	-0.631591797	898.64	-23.59551832	-67.11690922	-25.6821262	-59
23500	0	0.361682892	-0.059247971	0.141434669	0.999999046	0.000500679	-1.52588E-05	0.000182152	9.042072296	-1.481199265	3.535866737	0.025033952	-0.000762939	0.00910759	-0.465332031	0.582763672	-0.628417969	898.66	-23.56844191	-67.11044837	-25.6525928	-59
23501	0	0.362060547	-0.059814453	0.140136719	0.999999046	8.7738E-05	0.000206947	0.000164032	9.051513672	-1.495361328	3.503417969	0.004386902	0.010347366	0.008201599	-0.467773438	0.582763672	-0.631103516	898.58	-23.56002168	-67.08149935	-25.65135734	-59
23502	0	0.361922264	-0.060030937	0.13944149	0.999999046	0.000171661	0.000135422	9.91821E-05	9.048056602	-1.50077343	3.486037254	0.008583069	0.006771088	0.004959106	-0.465332031	0.582763672	-0.631103516	898.6	-23.53366141	-67.06308271	-25.65914485	-59
23503	0	0.362854004	-0.059570313	0.139343262	0.999999046	-5.72205E-05	-0.000117302	7.62939E-05	9.071350098	-1.489257813	3.483581543	-0.002861023	-0.005865097	0.003814697	-0.465332031	0.582763672	-0.634033203	898.66	-23.55517166	-67.07234867	-25.63828008	-59
23504	0	0.362999916	-0.060923576	0.140836716	0.999999046	-8.86917E-05	-0.000110626	-7.62939E-05	9.074997902	-1.523089409	3.520917892	-0.004434586	-0.005531311	-0.003814697	-0.465332031	0.582763672	-0.634033203	898.6	-23.54171964	-67.08789266	-25.65901785	-59
23505	0	0.361694336	-0.060302734	0.141235352	0.999999046	0.000274658	-8.67844E-05	0.000137329	9.042358398	-1.507568359	3.530883789	0.01373291	-0.004339218	0.006866455	-0.465576172	0.584960938	-0.631347656	898.7	-23.53709505	-67.09111165	-25.63353819	-59
23506	0	0.364082336	-0.06136322	0.140777588	1	5.24521E-05	-3.91006E-05	1.52588E-05	9.102058411	-1.534080505	3.519439697	0.002622604	-0.001955032	0.000762939	-0.465332031	0.582763672	-0.631103516	898.7	-23.52254014	-67.09491199	-25.64368655	-59
23507	0	0.362854004	-0.061767578	0.139648438	0.999999046	0.000236511	-6.67572E-06	0.000156403	9.071350098	-1.544189453	3.491210938	0.011825562	-0.000333786	0.007820129	-0.465332031	0.582763672	-0.628417969	898.66	-23.51870334	-67.08887031	-25.62445229	-59
23508	0	0.362714767	-0.059495926	0.140524864	0.999999046	0.000128746	-3.43323E-05	0.000232697	9.067869186	-1.487398148	3.513121605	0.006437302	-0.001716614	0.011634827	-0.465332031	0.582763672	-0.628417969	898.7	-23.54906569	-67.0822652	-25.58163685	-59
23509	0	0.362487793	-0.06072998	0.140197754	0.999999046	-0.000144958	-9.44138E-05	0.000190735	9.062194824	-1.518249512	3.504943848	-0.007247925	-0.004720688	0.009536743	-0.465332031	0.584960938	-0.634277344	898.66	-23.60692553	-67.08389084	-25.53590174	-59
23510	0	0.362796783	-0.060115814	0.140904427	0.999999046	3.62396E-05	-0.000211716	7.9155E-05	9.069919586	-1.502895355	3.522610664	0.001811981	-0.010585785	0.003957748	-0.465332031	0.584960938	-0.634277344	898.54	-23.62899183	-67.1029415	-25.50623743	-60
23511	0	0.360900879	-0.060058594	0.141174316	0.999999046	-0.000221252	-3.71933E-05	-4.95911E-05	9.022521973	-1.501464844	3.52935791	-0.011062622	-0.001859665	-0.002479553	-0.465332031	0.582763672	-0.634033203	898.58	-23.62950064	-67.10952456	-25.52841811	-59
23512	0	0.365067482	-0.061671257	0.138555527	0.999999046	-0.000388145	-0.000108719	-8.58307E-06	9.12668705	-1.541781425	3.463888168	-0.019407273	-0.005435944	-0.000429153	-0.465576172	0.584960938	-0.631347656	898.6	-23.66734639	-67.12184073	-25.5370355	-59
23513	0	0.363830566	-0.063903809	0.142456055	0.999999046	0.000209808	-0.00032711	-0.000217438	9.09576416	-1.597595215	3.561401367	0.010490418	-0.016355515	-0.010871888	-0.468017578	0.585205078	-0.628417969	898.6	-23.60872064	-67.1665447	-25.58240071	-59
23514	0	0.361386299	-0.062833786	0.141207695	0.999999046	0.000679016	-0.000263214	0.000239372	9.034657478	-1.57084465	3.530192375	0.033950809	-0.013160707	0.011968614	-0.467773438	0.582763672	-0.628173828	898.66	-23.60344283	-67.18344935	-25.51000188	-59
23515	0	0.361877441	-0.061889648	0.141113281	0.999999046	0.000549316	4.29153E-05	0.000514984	9.046936035	-1.547241211	3.527832031	0.027465823	0.002145767	0.025749209	-0.467773438	0.582763672	-0.631103516	898.7	-23.64847695	-67.15545687	-25.39605595	-59
23516	0	0.363510132	-0.061928749	0.13944149	0.999999046	0.000435829	0.000301361	0.000422478	9.087753296	-1.548218727	3.486037254	0.02179146	0.015068055	0.021123888	-0.465332031	0.582763672	-0.631103516	898.66	-23.6552848	-67.10459397	-25.3386441	-59
23517	0	0.364746094	-0.059570313	0.138244629	0.999999046	0.000720978	8.58307E-06	0.000358582	9.118652344	-1.489257813	3.456115723	0.036048893	0.000429153	0.017929079	-0.465332031	0.582763672	-0.631103516	898.58	-23.64527453	-67.08756308	-25.26636103	-59
23518	0	0.363481522	-0.057067871	0.1390028	0.999999046	0.000535965	-6.67572E-05	0.000106812	9.08703804	-1.426696777	3.47507	0.02679825	-0.00333786	0.005340576	-0.465332031	0.580566406	-0.631103516	898.54	-23.60173248	-67.09017015	-25.25189742	-60
23519	0	0.362548828	-0.056030273	0.140869141	0.999999046	0.000270844	-0.000121117	0	9.063720703	-1.400756836	3.521728516	0.013542175	-0.006055832	0	-0.465332031	0.582763672	-0.634033203	898.54	-23.56735253	-67.10345577	-25.25970305	-60
23520	0	0.363681793	-0.057662964	0.141055107	0.999999046	-0.000199318	0.000127792	-0.000466347	9.09204483	-1.441574097	3.526377678	-0.009965897	0.006389618	-0.023317338	-0.465332031	0.580566406	-0.634033203	898.6	-23.44344987	-67.11193963	-25.41980731	-60
23521	0	0.362609863	-0.061523438	0.140625	0.999999046	-8.01086E-05	0.000107765	-0.000495911	9.065246582	-1.538085938	3.515625	-0.004005432	0.00538826	-0.024795533	-0.465332031	0.580566406	-0.631103516	898.58	-23.30073541	-67.12369246	-25.59065791	-60
23522	0	0.361970901	-0.062895775	0.138982773	0.999999046	0.000110626	1.52588E-05	-0.000221252	9.049272537	-1.572394371	3.474569321	0.005531311	0.000762939	-0.011062622	-0.467773438	0.580566406	-0.630859375	898.54	-23.21497664	-67.13262157	-25.6779524	-60
23523	0	0.361694336	-0.063293457	0.13861084	0.999999046	3.05176E-05	-8.67844E-05	-0.00012207	9.042358398	-1.582336426	3.465270996	0.001525879	-0.004339218	-0.006103516	-0.465332031	0.582763672	-0.636962891	898.66	-23.17459286	-67.14778271	-25.71861224	-60
23524	0	0.361001015	-0.063197136	0.140198708	0.999999046	0.000195503	-4.95911E-05	8.67844E-05	9.025025368	-1.579928398	3.50496769	0.009775162	-0.002479553	0.004339218	-0.467773438	0.582763672	-0.636962891	898.6	-23.16396932	-67.14951291	-25.70807176	-60
23525	0	0.360778809	-0.062255859	0.14239502	0.999999046	0.00037384	-4.48227E-05	0.000366211	9.019470215	-1.556396484	3.559875488	0.018692017	-0.002241135	0.018310548	-0.467773438	0.582763672	-0.631103516	898.54	-23.20246036	-67.13796689	-25.63241785	-60
23526	0	0.366361618	-0.061319351	0.142528534	0.999999046	0.00066185	-9.34601E-05	0.000434875	9.159040451	-1.53298378	3.563213348	0.033092502	-0.004673005	0.021743777	-0.465332031	0.580566406	-0.634033203	898.6	-23.23034023	-67.12838396	-25.5253398	-60
23527	0	0.364074707	-0.059082031	0.144042969	0.999999046	0.001152039	-0.000113487	0.000198364	9.101867676	-1.477050781	3.601074219	0.057601942	-0.005674363	0.009918215	-0.467529297	0.578369141	-0.636474609	898.66	-23.14485725	-67.13150148	-25.4778147	-60
23528	0	0.361215591	-0.057920456	0.14287281	0.999999046	0.001202583	0.000106812	0.000380516	9.030389786	-1.448011398	3.571820259	0.060129182	0.005340578	0.019025808	-0.467529297	0.578369141	-0.636474609	898.64	-23.07524774	-67.10314854	-25.41106225	-59
23529	0	0.361022949	-0.057067871	0.141662598	0.999999046	0.001098633	0.000145912	0.000328064	9.02557373	-1.426696777	3.541564941	0.054931653	0.00729561	0.016403202	-0.467285156	0.576171875	-0.636230469	898.7	-22.99999094	-67.07305118	-25.36432267	-60
23530	0	0.362592697	-0.057552338	0.138292313	0.999999046	0.000774384	0.000131607	-2.00272E-05	9.064817429	-1.438808441	3.457307816	0.038719181	0.006580353	-0.001001358	-0.467285156	0.578369141	-0.642333984	898.64	-22.87660048	-67.06021321	-25.40690129	-59
23531	0	0.364074707	-0.059570313	0.13848877	0.999999046	0.00030899	-6.00815E-05	9.91821E-05	9.101867676	-1.489257813	3.462219238	0.015449524	-0.003004074	0.004959107	-0.46484375	0.575927734	-0.639404297	898.64	-22.85672249	-67.06243925	-25.39601946	-60
23532	0	0.361332893	-0.058458328	0.139151573	0.999999046	0.000292778	-0.000274658	0.000175476	9.033322334	-1.461458206	3.47878933	0.014638901	-0.013732911	0.008773804	-0.46484375	0.575927734	-0.639404297	898.6	-22.88040526	-67.08400802	-25.34021632	-60
23533	0	0.361694336	-0.057861328	0.141845703	0.999999046	0.000255585	-0.000380516	-3.43323E-05	9.042358398	-1.446533203	3.546142578	0.012779236	-0.019025803	-0.001716614	-0.46484375	0.573730469	-0.639160156	898.6	-22.86699075	-67.12607307	-25.32660094	-60
23534	0	0.364492416	-0.058801651	0.143122673	0.999999046	9.72748E-05	-0.000322342	-6.48499E-05	9.11231041	-1.470041275	3.578066826	0.004863739	-0.016117096	-0.003242493	-0.46484375	0.575927734	-0.642333984	898.7	-22.85782968	-67.16330041	-25.32615686	-60
23535	0	0.364318848	-0.059326172	0.14251709	0.999999046	9.15527E-05	-0.000136375	-1.14441E-05	9.107971191	-1.483154297	3.562927246	0.004577637	-0.006818771	-0.000572205	-0.467285156	0.573974609	-0.636230469	898.74	-22.84304116	-67.1784607	-25.34022972	-60
23536	0	0.362833023	-0.058316231	0.141572952	0.999999046	-6.67572E-06	0.000118256	5.24521E-05	9.070825577	-1.457905769	3.539323807	-0.000333786	0.005912781	0.002622604	-0.467285156	0.573974609	-0.641845703	898.64	-22.82855642	-67.16385887	-25.35740077	-60
23537	0	0.361328125	-0.059570313	0.140075684	0.999999046	-0.000106812	0.000134468	-0.000110626	9.033203125	-1.489257813	3.50189209	-0.005340576	0.006723404	-0.005531311	-0.469726563	0.576171875	-0.639160156	898.64	-22.78312926	-67.1547745	-25.42906144	-60
23538	0	0.36166954	-0.059215546	0.13893795	0.999999046	-0.0001297	4.00543E-05	-0.000145912	9.04173851	-1.480388641	3.473448753	-0.006484985	0.002002716	-0.007295609	-0.467285156	0.573974609	-0.641845703	898.7	-22.74162433	-67.15726679	-25.49059226	-60
23539	0	0.362060547	-0.057983398	0.139404297	0.999999046	-0.000518799	-0.000159264	4.57764E-05	9.051513672	-1.449584961	3.485107422	-0.025939943	-0.007963181	0.002288818	-0.46484375	0.573730469	-0.642089844	898.64	-22.8138048	-67.17238316	-25.47331286	-60
23540	0	0.364357948	-0.060727119	0.141421318	0.999999046	-0.000695229	-0.00019455	-0.00019455	9.108948708	-1.518177986	3.535532951	-0.034761432	-0.009727479	-0.009727479	-0.469482422	0.573974609	-0.641845703	898.58	-22.84986292	-67.20187238	-25.5170324	-60
23541	0	0.360412598	-0.060241699	0.142578125	0.999999046	-0.000289917	-0.000113487	-4.19617E-05	9.010314941	-1.50604248	3.564453125	-0.01449585	-0.005674362	-0.002098084	-0.467285156	0.576171875	-0.639160156	898.58	-22.86931022	-67.21585538	-25.53398473	-60
23542	0	0.361304283	-0.060599327	0.142398834	0.999999046	-2.67029E-05	0.000169754	0.000202179	9.032607079	-1.514983177	3.559970856	-0.001335144	0.008487702	0.010108948	-0.467285156	0.573974609	-0.639160156	898.54	-22.89004872	-67.18891521	-25.5136643	-60
23543	0	0.364257813	-0.060974121	0.141418457	0.999999046	0.000263214	0.000416756	0.00037384	9.106445313	-1.524353027	3.535461426	0.013160706	0.020837785	0.018692018	-0.465087891	0.576171875	-0.636474609	898.66	-22.89462288	-67.1282095	-25.48306957	-60
23544	0	0.363610268	-0.058060646	0.138760567	0.999999046	0.000144005	0.000335693	0.000533104	9.090256691	-1.451516151	3.469014168	0.007200242	0.016784669	0.026655199	-0.467285156	0.576171875	-0.636230469	898.54	-22.96102766	-67.06908066	-25.40196295	-60
23545	0	0.362670898	-0.056945801	0.13848877	0.999999046	-0.000232697	0.000348091	0.000350952	9.066772461	-1.42364502	3.462219238	-0.011634827	0.017404557	0.017547608	-0.46484375	0.575927734	-0.642333984	898.6	-23.023407	-67.01692808	-25.36056285	-60
23546	0	0.361679077	-0.057509422	0.139140129	0.999999046	-0.000591278	0.000152588	0.000144005	9.041976929	-1.437735558	3.478503227	-0.029563906	0.007629395	0.007200242	-0.46484375	0.575927734	-0.639404297	898.74	-23.09580444	-66.99478575	-25.35559089	-59
23547	0	0.362426758	-0.057983398	0.139892578	0.999999046	-0.000484467	0.000153542	7.62939E-06	9.060668945	-1.449584961	3.497314453	-0.024223329	0.007677079	0.00038147	-0.462646484	0.578125	-0.639648438	898.58	-23.12184156	-66.97877814	-25.38830204	-60
23548	0	0.364519119	-0.059833527	0.139029503	0.999999046	-0.000338554	1.14441E-05	-8.10623E-05	9.112977982	-1.495838165	3.475737572	-0.016927719	0.000572205	-0.004053116	-0.46484375	0.575927734	-0.639404297	898.6	-23.12433685	-66.98189042	-25.4252978	-60
23549	0	0.363891602	-0.059326172	0.138305664	0.999999046	-0.000537872	-2.19345E-05	-0.000141144	9.097290039	-1.483154297	3.457641602	-0.026893617	-0.001096726	-0.00705719	-0.462646484	0.578125	-0.63671875	898.48	-23.13839142	-66.99140047	-25.47946075	-59
23550	0	0.363548279	-0.059862137	0.139323235	0.999999046	-0.000802994	8.96454E-05	3.05176E-05	9.08870697	-1.496553421	3.483080864	-0.040149693	0.00448227	0.001525879	-0.462890625	0.580322266	-0.636962891	898.6	-23.21367321	-66.98153568	-25.50026276	-60
23551	0	0.361816406	-0.061157227	0.138793945	0.999999046	-0.000728607	8.58307E-06	8.7738E-05	9.045410156	-1.528930664	3.469848633	-0.036430362	0.000429153	0.004386902	-0.462890625	0.580566406	-0.634033203	898.6	-23.30346928	-66.97769761	-25.49831763	-59
23552	0	0.363817215	-0.06111908	0.139076233	0.999999046	-0.000376701	1.90735E-05	-0.000232697	9.095430374	-1.52797699	3.476905823	-0.018835068	0.000953674	-0.011634827	-0.462890625	0.578369141	-0.631103516	898.52	-23.27262499	-66.9873695	-25.58390132	-59
23553	0	0.360595703	-0.06048584	0.138427734	0.999999046	-0.000598907	-3.33786E-05	1.90735E-05	9.014892578	-1.512145996	3.460693359	-0.029945375	-0.00166893	0.000953674	-0.462890625	0.580322266	-0.636962891	898.6	-23.3353739	-66.99122385	-25.58672656	-60
23554	0	0.365790367	-0.062256813	0.141135216	0.999999046	-0.000684738	-0.000160217	-0.000119209	9.144759178	-1.556420326	3.528380394	-0.034236911	-0.008010865	-0.005960465	-0.465332031	0.580566406	-0.631103516	898.54	-23.38747355	-67.01472753	-25.6198111	-60
23555	0	0.361206055	-0.062316895	0.141479492	0.999999046	-0.000331879	-0.000182152	-0.000198364	9.030151367	-1.557922363	3.536987305	-0.016593934	-0.00910759	-0.009918213	-0.465576172	0.584960938	-0.631347656	898.64	-23.38200867	-67.04404653	-25.67624117	-60
23556	0	0.361587524	-0.062878609	0.142037392	0.999999046	-0.000102043	-0.000112534	0.000174522	9.03968811	-1.571965218	3.550934792	-0.005102158	-0.005626679	0.00872612	-0.465332031	0.582763672	-0.631103516	898.52	-23.43551151	-67.0489455	-25.63624708	-60
23557	0	0.36315918	-0.0625	0.141723633	0.999999046	4.95911E-05	0.000145912	0.000202179	9.078979492	-1.5625	3.54309082	0.002479553	0.007295609	0.010108948	-0.465332031	0.582763672	-0.634033203	898.64	-23.45083989	-67.02532487	-25.61443383	-60
23558	0	0.361567497	-0.061533928	0.139881134	0.999999046	-6.29425E-05	0.000144958	0.000266075	9.039187431	-1.538348198	3.497028351	-0.003147125	0.007247925	0.013303757	-0.463134766	0.584960938	-0.634521484	898.6	-23.49507591	-66.99888228	-25.57671992	-60
23559	0	0.361816406	-0.062072754	0.139831543	0.999999046	1.90735E-05	-4.48227E-05	0.000362396	9.045410156	-1.551818848	3.495788574	0.000953674	-0.002241135	0.018119812	-0.465576172	0.584960938	-0.631347656	898.66	-23.57427745	-66.9879601	-25.49644009	-59
23560	0	0.363554001	-0.061415672	0.141142845	0.999999046	6.67572E-06	-2.47955E-05	9.44138E-05	9.088850021	-1.535391808	3.528571129	0.000333786	-0.001239777	0.004720688	-0.465332031	0.582763672	-0.634033203	898.64	-23.58642807	-66.98719092	-25.4827496	-60
23561	0	0.362792969	-0.061340332	0.141357422	0.999999046	0.000148773	-9.44138E-05	0.000179291	9.069824219	-1.533508301	3.533935547	0.00743866	-0.004720688	0.008964539	-0.463134766	0.584960938	-0.634521484	898.64	-23.6107748	-66.98981339	-25.44000472	-60
23562	0	0.363224983	-0.061001778	0.141489029	0.999999046	0	0.000106812	0.00020504	9.08062458	-1.525044441	3.537225723	0	0.005340576	0.010251999	-0.463134766	0.587158203	-0.631591797	898.6	-23.63669223	-66.97010549	-25.42195726	-60
23563	0	0.362609863	-0.061523438	0.141723633	0.999999046	0.000160217	0.000115395	9.53674E-05	9.065246582	-1.538085938	3.54309082	0.008010864	0.00576973	0.004768372	-0.463134766	0.587158203	-0.62890625	898.66	-23.61618844	-66.95449337	-25.43923092	-60
23564	0	0.362627029	-0.059900284	0.140788078	0.999999046	0.000271797	0.000246048	9.82285E-05	9.065675735	-1.497507095	3.519701958	0.013589859	0.012302399	0.004911423	-0.465332031	0.584960938	-0.634277344	898.58	-23.5693801	-66.92506551	-25.46139172	-60
23565	0	0.36315918	-0.059204102	0.139526367	0.999999046	-3.43323E-05	0.000172615	3.05176E-05	9.078979492	-1.480102539	3.48815918	-0.001716614	0.008630753	0.001525879	-0.463134766	0.582763672	-0.628417969	898.54	-23.54874886	-66.90657244	-25.498599	-59
23566	0	0.362496376	-0.059175491	0.140073776	0.999999046	-0.000156403	7.62939E-05	-3.91006E-05	9.062409401	-1.479387283	3.501844406	-0.007820129	0.003814697	-0.001955032	-0.462890625	0.582763672	-0.637207031	898.6	-23.53512755	-66.90147158	-25.5287838	-60
23567	0	0.360900879	-0.059753418	0.139160156	0.999999046	-0.000434875	8.4877E-05	-0.000125885	9.022521973	-1.493835449	3.479003906	-0.021743775	0.004243851	-0.006294251	-0.462890625	0.584960938	-0.637207031	898.6	-23.53106067	-66.89952443	-25.58530192	-60
23568	0	0.365103722	-0.062286377	0.139960289	0.999999046	-0.000674248	-0.000167847	-0.000325203	9.12759304	-1.557159424	3.499007225	-0.03371239	-0.008392335	-0.016260149	-0.462890625	0.582763672	-0.631347656	898.66	-23.53257038	-66.93333524	-25.66926685	-60
23569	0	0.361022949	-0.063232422	0.142272949	0.999999046	5.72205E-05	-0.000189781	-0.000297546	9.02557373	-1.580810547	3.55682373	0.002861023	-0.00948906	-0.01487732	-0.465576172	0.584960938	-0.631347656	898.64	-23.45944852	-66.96804238	-25.747604	-60
23570	0	0.3621521	-0.061902046	0.143667221	0.999999046	0.000211716	-2.28882E-05	-5.05447E-05	9.05380249	-1.547551155	3.591680527	0.010585785	-0.001144409	-0.002527237	-0.465332031	0.582763672	-0.631103516	898.54	-23.41164386	-66.97376877	-25.77699015	-60
23571	0	0.362609863	-0.062072754	0.142272949	0.999999046	-0.000133514	0.000187874	0.000221252	9.065246582	-1.551818848	3.55682373	-0.00667572	0.009393692	0.011062622	-0.465576172	0.584960938	-0.628417969	898.6	-23.44811302	-66.94487202	-25.76502772	-60
23572	0	0.361675262	-0.061477661	0.141475677	0.999999046	4.29153E-05	0.000165939	0.000133514	9.041881561	-1.536941528	3.536891937	0.002145767	0.008296967	0.00667572	-0.463134766	0.584960938	-0.634521484	898.66	-23.4450483	-66.92223972	-25.76363855	-60
23573	0	0.362182617	-0.062072754	0.141479492	0.999999046	1.14441E-05	-1.81198E-05	0.000118256	9.05456543	-1.551818848	3.536987305	0.000572205	-0.000905991	0.005912781	-0.463134766	0.584960938	-0.631591797	898.64	-23.4616329	-66.91962165	-25.74943363	-59
23574	0	0.362539291	-0.062094688	0.14323616	0.999999046	0.000411987	-1.90735E-06	0.000109673	9.063482285	-1.55236721	3.580904007	0.020599366	-9.53674E-05	0.005483627	-0.463134766	0.582763672	-0.628417969	898.64	-23.4284814	-66.91559372	-25.74260828	-60
23575	0	0.362304688	-0.060791016	0.142333984	0.999999046	0.000564575	-1.81198E-05	0.000240326	9.057617188	-1.519775391	3.558349609	0.028228762	-0.000905991	0.012016297	-0.462890625	0.582763672	-0.631347656	898.66	-23.41172251	-66.90728596	-25.69591195	-60
23576	0	0.361792564	-0.060195923	0.140800476	0.999999046	0.000267982	0.000183105	0.000189781	9.04481411	-1.504898071	3.520011902	0.013399124	0.009155274	0.00948906	-0.465332031	0.582763672	-0.628417969	898.66	-23.39492998	-66.88015786	-25.69288408	-59
23577	0	0.362915039	-0.059326172	0.140197754	0.999999046	0.000240326	8.4877E-05	0.000160217	9.072875977	-1.483154297	3.504943848	0.012016297	0.004243851	0.008010864	-0.462890625	0.582763672	-0.637207031	898.66	-23.38435891	-66.86481361	-25.67235014	-60
23578	0	0.363787651	-0.058887482	0.139676094	0.999999046	0.000148773	0.000148773	0.000113487	9.094691277	-1.472187042	3.491902351	0.00743866	0.00743866	0.005674362	-0.463134766	0.582763672	-0.628417969	898.6	-23.36583694	-66.84503315	-25.68675028	-59
23579	0	0.364868164	-0.058532715	0.14050293	0.999999046	2.67029E-05	0.000256538	-9.91821E-05	9.121704102	-1.463317871	3.512573242	0.001335144	0.01282692	-0.004959107	-0.460693359	0.584716797	-0.631591797	898.64	-23.2973913	-66.82371664	-25.76802083	-59
23580	0	0.366272926	-0.059124947	0.140021324	0.999999046	-0.00026226	0.000413895	-0.00061512	9.156823158	-1.478123665	3.500533104	-0.013113023	0.020694735	-0.030756	-0.460693359	0.582519531	-0.634277344	898.58	-23.11864835	-66.80925608	-25.99802902	-59
23581	0	0.366394043	-0.060424805	0.139648438	0.999998093	-0.000842094	0.00063324	-0.001159668	9.159851074	-1.510620117	3.491210938	-0.042104738	0.031662	-0.057983422	-0.462890625	0.582763672	-0.634277344	898.6	-22.84980253	-66.79585526	-26.39875832	-59
23582	0	0.367354393	-0.067127228	0.136276245	0.999998093	-0.000449181	0.000432014	-0.001571655	9.183859825	-1.678180695	3.406906128	-0.022459041	0.021600734	-0.078582801	-0.462890625	0.582763672	-0.631347656	898.64	-22.45622914	-66.82123749	-26.89162525	-60
23583	0	0.362854004	-0.075134277	0.134521484	0.999996185	0.001271248	-8.39233E-05	-0.002285004	9.071350098	-1.878356934	3.363037109	0.063562466	-0.004196172	-0.114250313	-0.465087891	0.580566406	-0.63671875	898.64	-21.74055612	-66.9303585	-27.51607178	-59
23584	0	0.361593246	-0.079071999	0.130696297	0.99998951	0.003533363	-0.000576019	-0.002544403	9.039831161	-1.976799965	3.267407417	0.176668735	-0.028801057	-0.127220563	-0.469726563	0.576171875	-0.636230469	898.58	-20.74407314	-67.09924933	-28.17416941	-59
23585	0	0.368774414	-0.074462891	0.130493164	0.999984741	0.004246712	-0.000534058	-0.003318787	9.219360352	-1.861572266	3.262329102	0.212336625	-0.026703011	-0.165940142	-0.471679688	0.569580078	-0.644287109	898.64	-19.4535442	-67.28933618	-29.05792575	-59
23586	0	0.372979164	-0.077539444	0.1300354	0.999990463	0.002890587	-0.000294685	-0.003163338	9.324479103	-1.938486099	3.25088501	0.144529787	-0.014734313	-0.158167372	-0.476074219	0.55859375	-0.643066406	898.58	-18.32504875	-67.44078063	-29.93409924	-59
23587	0	0.375305176	-0.080810547	0.131652832	0.999992371	0.002701759	0.000102997	-0.002601624	9.382629395	-2.020263672	3.291320801	0.135088284	0.005149853	-0.130081482	-0.482666016	0.552246094	-0.650878906	898.58	-17.32546771	-67.52308204	-30.68757722	-60
23588	0	0.37067318	-0.075614929	0.130740166	0.999993324	0.002879143	0.00050354	-0.002077103	9.266829491	-1.89037323	3.268504143	0.143957447	0.025177056	-0.103855356	-0.487304688	0.545654297	-0.647216797	898.7	-16.41153651	-67.53938415	-31.33777205	-60
23589	0	0.368041992	-0.074645996	0.134033203	0.999995232	0.002536774	0.00074482	-0.001407623	9.201049805	-1.866149902	3.350830078	0.126838874	0.037241038	-0.07038127	-0.484619141	0.538818359	-0.649658203	898.64	-15.70029163	-67.50444493	-31.80816148	-61
23590	0	0.364251137	-0.067994118	0.135046005	0.999993324	0.002988815	0.001167297	-0.001133919	9.106278419	-1.699852943	3.376150131	0.149441054	0.058364981	-0.056696048	-0.486572266	0.534423828	-0.655029297	898.64	-14.98491007	-67.41231634	-32.22759945	-62
23591	0	0.363891602	-0.063049316	0.137084961	0.999994278	0.002923012	0.001148224	-0.00087738	9.097290039	-1.57623291	3.427124023	0.146150848	0.057411296	-0.043869096	-0.486328125	0.527832031	-0.66015625	898.6	-14.3536891	-67.31300148	-32.56016937	-62
23592	0	0.369114876	-0.060863495	0.138475418	0.999993324	0.003218651	0.00138855	-0.000748634	9.227871895	-1.521587372	3.461885452	0.160932886	0.069427639	-0.037431797	-0.488525391	0.525634766	-0.665771484	898.6	-13.71365625	-67.18208449	-32.87037611	-61
23593	0	0.367980957	-0.049438477	0.138916016	0.999993324	0.003257751	0.001553535	-0.000400543	9.199523926	-1.235961914	3.472900391	0.162887931	0.077676944	-0.020027205	-0.485595703	0.518798828	-0.673828125	898.6	-13.1570075	-67.02251561	-33.07663414	-60
23594	0	0.366422653	-0.047739983	0.14152813	0.999991417	0.00356102	0.001651764	-0.00038147	9.16056633	-1.193499565	3.538203239	0.178051456	0.08258841	-0.019073536	-0.485351563	0.514404297	-0.676513672	898.66	-12.57106072	-66.85082173	-33.28300916	-59
23595	0	0.366638184	-0.042236328	0.142150879	0.999988556	0.004235268	0.001583099	-0.001197815	9.16595459	-1.055908203	3.553771973	0.211764154	0.079155257	-0.059890965	-0.485107422	0.509765625	-0.681884766	898.66	-11.70556863	-66.70571647	-33.71412955	-59
23596	0	0.364927292	-0.036719322	0.145396233	0.999983788	0.004893303	0.001209259	-0.002290726	9.123182297	-0.917983055	3.634905815	0.244666396	0.060463261	-0.114536871	-0.484619141	0.500976563	-0.687011719	898.6	-10.50718206	-66.62392023	-34.426625	-60
23597	0	0.369812012	-0.026855469	0.151672363	0.999980927	0.004689217	0.001087189	-0.003768921	9.245300293	-0.671386719	3.791809082	0.234462291	0.054359775	-0.188447219	-0.483886719	0.489746094	-0.700439453	898.58	-8.95754597	-66.57793926	-35.5321207	-60
23598	0	0.369962692	-0.030953407	0.157852173	0.999979019	0.003834724	0.001238823	-0.005025864	9.249067307	-0.773835182	3.946304321	0.191737547	0.061941575	-0.25129492	-0.48828125	0.480957031	-0.696533203	898.6	-7.177409146	-66.52193229	-37.01184493	-61
23599	0	0.36907959	-0.032226563	0.157653809	0.999970436	0.00466156	0.00143528	-0.005924225	9.226989746	-0.805664063	3.941345215	0.233080291	0.071764697	-0.29621415	-0.494628906	0.467773438	-0.706787109	898.7	-5.072343676	-66.43452838	-38.73658872	-63
23600	0	0.369432449	-0.028298378	0.155403137	0.99996376	0.005647659	0.002306938	-0.005935669	9.235811234	-0.70745945	3.88507843	0.282386375	0.115348301	-0.296787031	-0.496337891	0.454589844	-0.711425781	898.66	-2.856474251	-66.22167886	-40.46567949	-60
23601	0	0.365844727	-0.023986816	0.153564453	0.999958992	0.005908966	0.002995491	-0.006099701	9.146118164	-0.59967041	3.839111328	0.295452297	0.149776576	-0.304989169	-0.497802734	0.438964844	-0.724365234	898.58	-0.603781178	-65.90380732	-42.19708208	-58
23602	0	0.366335869	-0.01650238	0.152756691	0.999960899	0.005187988	0.003583908	-0.006178856	9.158396721	-0.412559509	3.818917274	0.259402784	0.179197732	-0.308946808	-0.499511719	0.423339844	-0.728759766	898.64	1.529208692	-65.49201996	-43.89548227	-60
23603	0	0.3671875	-0.009765625	0.156799316	0.999948502	0.005906105	0.004554749	-0.006759644	9.1796875	-0.244140625	3.91998291	0.295310239	0.227741273	-0.337987885	-0.501220703	0.41015625	-0.739257813	898.7	3.806846684	-64.93965087	-45.67320192	-61
23604	0	0.360515594	0.008205414	0.164000511	0.999945641	0.002970695	0.005739212	-0.008162498	9.012889862	0.205135345	4.100012779	0.148537458	0.286965786	-0.408132297	-0.500244141	0.39453125	-0.746582031	898.66	5.968855807	-64.20987937	-47.70056915	-59
23605	0	0.354309082	-0.00201416	0.157958984	0.999931335	-0.000998497	0.007274628	-0.009113312	8.857727051	-0.050354004	3.948974609	-0.04992599	0.363739688	-0.455675991	-0.499755859	0.383300781	-0.757324219	898.54	7.732845282	-63.26349595	-49.79590356	-59
23606	0	0.353673935	-0.000209808	0.167754173	0.999910355	-0.004519463	0.00697422	-0.010476112	8.841848373	-0.005245209	4.193854332	-0.225979864	0.348721407	-0.52382123	-0.494384766	0.374267578	-0.765380859	898.6	9.27171846	-62.30205533	-52.09131249	-58
23607	0	0.366271973	-0.033447266	0.17175293	0.999930382	-0.001873016	0.008236885	-0.008148193	9.156799316	-0.836181641	4.293823242	-0.093652968	0.411853709	-0.407419022	-0.491699219	0.369628906	-0.768066406	898.58	10.44237846	-61.22015788	-53.65802545	-56
23608	0	0.366159439	-0.021634102	0.174600601	0.999907494	-0.000382423	0.012742996	-0.004581451	9.153985977	-0.540852547	4.36501503	-0.019121755	0.637169301	-0.229079578	-0.486572266	0.362792969	-0.779541016	898.58	10.80382895	-59.69750171	-54.12633528	-57
23609	0	0.367858887	-0.03894043	0.19140625	0.999849319	-0.003550529	0.016941071	0.000865936	9.196472168	-0.973510742	4.78515625	-0.177535362	0.847095936	0.043298982	-0.469726563	0.364257813	-0.791992188	898.6	9.632664222	-57.81495056	-53.24114513	-57
23610	0	0.370872498	-0.053423882	0.200906754	0.999705315	-0.004156113	0.023025513	0.006318092	9.271812439	-1.335597038	5.022668839	-0.207825982	1.151388368	0.315935551	-0.438720703	0.367431641	-0.805664063	898.64	7.436682562	-55.32406955	-51.19404548	-57
23611	0	0.350463867	-0.088867188	0.201049805	0.999483109	-0.002509117	0.029232025	0.013141632	8.76159668	-2.221679688	5.026245117	-0.125477476	1.461853138	0.65719484	-0.391601563	0.383544922	-0.826904297	898.58	4.578893538	-52.16113911	-48.04313099	-57
23612	0	0.347280502	-0.149332047	0.212490082	0.999189377	0.005393982	0.032795906	0.022704124	8.682012558	-3.733301163	5.312252045	0.269771975	1.64023841	1.135512979	-0.332275391	0.39453125	-0.848388672	898.58	1.74908509	-48.56175338	-43.64736929	-59
23613	0	0.355102539	-0.190979004	0.207641602	0.998708725	0.016060829	0.036140442	0.031879425	8.877563477	-4.774475098	5.191040039	0.803387218	1.807800132	1.594657558	-0.253662109	0.3984375	-0.879150391	898.58	-0.387190141	-44.47160363	-38.31152827	-64
23614	0	0.29738903	-0.224256516	0.180500031	0.998278618	0.022455215	0.037494659	0.039093971	7.434725761	-5.606412888	4.512500763	1.123405192	1.875808992	1.95582048	-0.162109375	0.381591797	-0.908691406	898.64	-1.893223563	-40.09132052	-32.44973645	-59
23615	0	0.24786377	-0.189208984	0.143737793	0.997938156	0.030659676	0.035774231	0.043567657	6.196594238	-4.730224609	3.593444824	1.53403786	1.789941466	2.17988073	-0.064941406	0.344726563	-0.942871094	898.64	-2.245031915	-35.8163832	-26.42195437	-64
23616	0	0.200623512	-0.123407364	0.091036797	0.998160362	0.026459694	0.034004211	0.042647362	5.015587807	-3.085184097	2.275919914	1.323796411	1.701253733	2.133676399	0.032714844	0.292480469	-0.967041016	898.54	-2.46221015	-31.72344757	-20.83852355	-75
23617	0	0.13470459	-0.064758301	0.038513184	0.998632431	0.018849373	0.031078339	0.037570953	3.367614746	-1.61895752	0.96282959	0.942898425	1.554625544	1.879404319	0.118164063	0.238525391	-0.975830078	898.58	-2.766957773	-27.97005558	-16.11675092	-69
23618	0	0.073802948	-0.02435112	0.00968647	0.999014854	0.012582779	0.026041031	0.033643723	1.8450737	-0.608778	0.242161751	0.629345525	1.302479074	1.682738475	0.193603516	0.197998047	-0.982421875	898.54	-3.244196868	-24.78691335	-12.00748255	-68
23619	0	0.012634277	-0.017578125	-0.012084961	0.999067307	0.012875557	0.021842957	0.034931183	0.315856934	-0.439453125	-0.302124023	0.643977917	1.092487239	1.747101929	0.254638672	0.158203125	-0.979492188	898.6	-3.519731649	-22.04675351	-7.830240968	-76
23620	0	0.004340172	-0.00853157	-0.003493309	0.998784065	0.02008152	0.018218994	0.04117012	0.108504295	-0.213289261	-0.087332726	1.00448313	0.911319073	2.059340681	0.313476563	0.112060547	-0.973144531	898.58	-3.048576083	-19.68140617	-3.027121567	-75
23621	0	0.055236816	0.005065918	0.164428711	0.998262405	0.019066811	0.014526367	0.053829193	1.38092041	0.126647949	4.110717773	0.953893083	0.726739331	2.693019615	0.359130859	0.043945313	-0.967041016	898.6	-2.992727935	-17.67563896	3.240744121	-69
23622	0	0.0888834	-0.086663246	0.389088631	0.996896744	0.028532982	0.01079464	0.072565079	2.222084999	-2.166581154	9.727215767	1.428126552	0.540290934	3.632011409	0.393310547	-0.037109375	-0.959472656	898.54	-2.295103618	-16.02716966	11.5321215	-65
23623	0	0.180969238	-0.157287598	0.375915527	0.995311737	0.058491707	0.02526474	0.072761536	4.524230957	-3.932189941	9.397888184	2.929163986	1.265214686	3.643772447	0.408203125	-0.170654297	-0.940429688	898.66	2.182936763	-13.08532048	19.64774543	-66
23624	0	0.466122627	0.126630783	0.701673508	0.997494698	0.069367409	0.01099968	0.008345604	11.65306568	3.165769577	17.54183769	3.471268709	0.550443561	0.417628889	0.435546875	-0.335449219	-0.887695313	898.64	9.832051819	-11.91007373	20.50630511	-73
23625	0	0.680358887	0.899536133	1.251098633	0.995124817	0.066380501	-0.07093811	-0.016921997	17.00897217	22.48840332	31.27746582	3.324428272	-3.55267973	-0.847477268	0.444580078	-0.457275391	-0.834716797	898.7	18.51922874	-19.32419643	16.31581564	-81
23626	0	0.67467308	0.770710945	0.948361397	0.99516201	0.066806793	-0.067268372	-0.025753975	16.86682701	19.26777363	23.70903492	3.345736318	-3.368852523	-1.289779154	0.311767578	-0.565917969	-0.835693359	898.64	28.57140599	-25.23409785	10.01901354	-73
23627	0	0.453430176	0.391784668	0.168334961	0.997000694	-0.017829895	-0.06043911	-0.044914246	11.33575439	9.794616699	4.208374023	-0.892386881	-3.024979598	-2.247959592	0.254150391	-0.619384766	-0.813720703	898.66	30.5692275	-28.74989487	1.403464912	-73
23628	0	0.199162483	0.113935471	0.186462402	0.996731758	0.048075676	-0.053812027	-0.036305428	4.97906208	2.848386765	4.661560059	2.406405655	-2.693536043	-1.817251331	0.194091797	-0.584228516	-0.847900391	898.64	40.15075569	-31.40133423	-6.718046725	-70
23629	0	0.10559082	0.353881836	0.157348633	0.997095108	0.050805092	-0.023807526	-0.051498413	2.639770508	8.847045898	3.93371582	2.542716622	-1.191530001	-2.577416282	0.173339844	-0.678466797	-0.789794922	898.7	49.58897588	-29.18133654	-13.82245345	-69
23630	0	0.130711555	0.363539696	0.031353951	0.998390198	-0.029040337	-0.000370979	-0.048708916	3.267788887	9.088492393	0.783848763	-1.452796249	-0.018558922	-2.436753092	0.214111328	-0.706298828	-0.752197266	898.66	48.19553663	-25.00814072	-17.90983983	-71
23631	0	0.127441406	0.101623535	0.009521484	0.998012543	-0.052485466	0.007480621	-0.034038544	3.186035156	2.540588379	0.238037109	-2.626012499	0.374278951	-1.703055113	0.277832031	-0.615722656	-0.815185547	898.7	43.13019548	-21.62805908	-20.17372901	-76
23632	0	0.055624008	0.084702492	0.101119995	0.999847412	-0.008649826	0.008133888	-0.012791634	1.390600204	2.117562294	2.527999878	-0.432513262	0.406715062	-0.639614155	0.324707031	-0.528808594	-0.856933594	898.66	42.34964713	-19.95799958	-20.67361819	-79
23633	0	-0.031494141	0.184631348	0.149353027	0.999872208	0.011048317	-0.001495361	0.011405945	-0.787353516	4.615783691	3.733825684	0.552439273	-0.074771237	0.570321424	0.341308594	-0.529541016	-0.854980469	898.6	43.34448804	-20.97612939	-19.80657246	-81
23634	0	-0.042817116	0.318703651	0.231813431	0.999343872	0.006575584	-0.007990837	0.034700394	-1.070427895	7.967591286	5.79533577	0.328851113	-0.39962922	1.73539907	0.318603516	-0.559570313	-0.842529297	898.64	43.19714288	-24.36519943	-17.37341335	-81
23635	0	0.043518066	0.27947998	0.347290039	0.998624802	-0.002566338	-0.013816833	0.050502777	1.08795166	6.986999512	8.682250977	-0.128375722	-0.691158475	2.52629681	0.258056641	-0.586425781	-0.845458984	898.7	41.31323148	-29.42306682	-13.78485	-76
23636	0	0.135919571	0.197305679	0.361239433	0.998150826	0.001008034	-0.024240494	0.05573082	3.397989273	4.932641983	9.030985832	0.050432775	-1.212772245	2.788259676	0.171142578	-0.601318359	-0.854003906	898.66	39.51344263	-35.67339069	-10.17933548	-72
23637	0	0.23236084	0.27722168	0.282226563	0.99864006	0.00200367	-0.022918701	0.046783447	5.809020996	6.930541992	7.055664063	0.100228925	-1.146454798	2.340233296	0.067138672	-0.61328125	-0.853027344	898.58	37.77133229	-41.06581406	-6.964584522	-71
23638	0	0.294027328	0.24670887	0.278680801	0.999224663	0.018684387	-0.014831543	0.031311035	7.350683212	6.167721748	6.967020035	0.934460785	-0.74176879	1.565956334	-0.018066406	-0.623535156	-0.844482422	898.66	38.31586159	-44.6070627	-4.591761702	-71
23639	0	0.278320313	0.326782227	0.290100098	0.999818802	0.003548622	-0.009983063	0.015769958	6.958007813	8.169555664	7.252502441	0.177441782	-0.49918317	0.788545367	-0.07421875	-0.650390625	-0.822021484	898.64	38.05301514	-46.6096769	-3.616661938	-72
23640	0	0.286626816	0.172924995	0.209978104	0.999734879	-0.020521164	-0.006924629	0.007707596	7.165670395	4.323124886	5.249452591	-1.026148593	-0.346261964	0.385413743	-0.103515625	-0.635986328	-0.821533203	898.7	35.51065711	-47.76072154	-3.306815578	-74
23641	0	0.313110352	0.055786133	0.199829102	0.999910355	-0.012389183	-0.002685547	0.004180908	7.827758789	1.39465332	4.995727539	-0.61947755	-0.134281332	0.209051619	-0.12109375	-0.600097656	-0.849609375	898.64	33.90242119	-48.27709838	-3.021353306	-73
23642	0	0.300028801	0.105549812	0.223948479	0.999916077	-0.012818336	0.000222206	0.001502037	7.500720024	2.638745308	5.598711967	-0.640934623	0.011110614	0.075103938	-0.124023438	-0.582519531	-0.862304688	898.7	32.30675497	-48.34153561	-2.82062325	-72
23643	0	0.328857422	0.086120605	0.247497559	0.999959946	-0.005965233	-0.004795074	0.004520416	8.221435547	2.153015137	6.187438965	-0.29826557	-0.23975688	0.226023789	-0.129638672	-0.553466797	-0.875976563	898.58	31.49849731	-49.07528313	-2.638536858	-72
23644	0	0.356476784	0.11726284	0.219954491	0.999895096	0.014015198	-0.003157616	0.001779556	8.911919594	2.931571007	5.498862267	0.700784366	-0.157886298	0.088980922	-0.139404297	-0.555175781	-0.863769531	898.6	33.17283431	-49.48602597	-2.724967249	-72
23645	0	0.360168457	0.15032959	0.206115723	0.999986649	-0.001204491	-0.004917145	-2.67029E-05	9.004211426	3.758239746	5.152893066	-0.06022479	-0.245858289	-0.00133515	-0.145751953	-0.577148438	-0.853027344	898.7	33.44676037	-49.95281306	-3.24564336	-73
23646	0	0.335294724	0.075976372	0.188056946	0.999937057	-0.008812904	-0.006791115	0.000591278	8.382368088	1.899409294	4.701423645	-0.440654335	-0.339562766	0.029564516	-0.155517578	-0.565673828	-0.859130859	898.66	32.92166532	-50.64161663	-3.857046395	-74
23647	0	0.310852051	0.097717285	0.203796387	0.99997139	-0.001700401	-0.007263184	-0.000259399	7.77130127	2.442932129	5.094909668	-0.085020855	-0.363162552	-0.012970091	-0.16796875	-0.554199219	-0.856445313	898.64	33.35662078	-51.32350523	-4.655031324	-74
23648	0	0.325557709	0.148135185	0.225657463	0.999985695	0.001444817	-0.004123688	-0.003012657	8.138942719	3.703379631	5.641436577	0.072241169	-0.206185355	-0.150633565	-0.179931641	-0.553955078	-0.858886719	898.66	34.24850423	-51.52440971	-5.575802556	-74
23649	0	0.316345215	0.111022949	0.231750488	0.999994278	-0.002287865	-0.000473022	-0.002269745	7.908630371	2.77557373	5.793762207	-0.114393437	-0.023651165	-0.113487444	-0.179931641	-0.556152344	-0.855712891	898.66	34.32763129	-51.42236027	-6.0009664	-75
23650	0	0.312804222	0.111836433	0.212738991	0.999997139	0.00211525	0.000429153	0.00065136	7.820105553	2.795910835	5.31847477	0.105762571	0.02145769	0.032568005	-0.177490234	-0.553955078	-0.858886719	898.6	34.48788292	-51.42390567	-5.890862933	-75
23651	0	0.305053711	0.116577148	0.18951416	0.999964714	0.006687164	-0.000426292	0.004962921	7.626342773	2.914428711	4.737854004	0.33436209	-0.021314868	0.248148933	-0.1796875	-0.558349609	-0.85546875	898.64	34.72675467	-51.78787132	-5.217376137	-74
23652	0	0.30977726	0.17234993	0.163074493	0.999938011	0.009924889	-0.003036499	0.003983498	7.744431496	4.308748245	4.076862335	0.496254653	-0.151828079	0.199178984	-0.186523438	-0.571289063	-0.845458984	898.64	35.67464193	-52.3365042	-4.976552404	-73
23653	0	0.319641113	0.16986084	0.202331543	0.999988556	-0.000357628	-0.004676819	0.000495911	7.991027832	4.246520996	5.058288574	-0.01788146	-0.233841809	0.024795624	-0.195800781	-0.58203125	-0.832519531	898.64	36.01651425	-52.80435792	-5.447055056	-73
23654	0	0.32330513	0.115983963	0.208311081	0.999983788	0.005464554	-0.001296997	0.000743866	8.08262825	2.899599075	5.207777023	0.273229153	-0.0648502	0.037193497	-0.202636719	-0.583984375	-0.834716797	898.6	36.69840303	-52.97485139	-5.514017896	-72
23655	0	0.318847656	0.140014648	0.190429688	0.999994278	0.002827644	-5.72205E-05	0.00182724	7.971191406	3.500366211	4.760742188	0.141382485	-0.002861028	0.091362172	-0.204833984	-0.592773438	-0.828125	898.6	36.83386313	-53.10567306	-5.271424886	-72
23656	0	0.315414429	0.140572548	0.183250427	0.999996185	0.001504898	-0.000336647	0.002235413	7.885360718	3.514313698	4.581260681	0.075244996	-0.016832372	0.111770767	-0.205078125	-0.590576172	-0.825439453	898.72	36.79177959	-53.29044578	-4.998795873	-72
23657	0	0.312927246	0.158508301	0.192932129	0.999996185	0.002243996	-0.000778198	0.001003265	7.823181152	3.96270752	4.823303223	0.112199908	-0.038909955	0.050163325	-0.209472656	-0.594726563	-0.827636719	898.72	37.02634761	-53.43041453	-4.96719375	-71
23658	0	0.313869476	0.160012245	0.202957153	0.999999046	0.000879288	-0.000684738	-0.000110626	7.846736908	4.000306129	5.073928833	0.043964395	-0.034236915	-0.005531312	-0.211914063	-0.596923828	-0.818847656	898.66	37.23347548	-53.48370638	-5.092714525	-71
23659	0	0.311462402	0.152648926	0.19744873	0.999999046	0.001018524	-0.000250816	-0.000553131	7.786560059	3.816223145	4.936218262	0.05092622	-0.01254082	-0.027656562	-0.211914063	-0.599121094	-0.821533203	898.66	37.4700297	-53.46555566	-5.236577328	-71
23660	0	0.313349724	0.142195702	0.181559563	0.999999046	0.000527382	-0.000465393	-3.43323E-05	7.833743095	3.55489254	4.538989067	0.026369097	-0.023269655	-0.001716614	-0.211669922	-0.601318359	-0.818359375	898.64	37.60631284	-53.50282329	-5.324121152	-71
23661	0	0.314941406	0.145935059	0.185241699	0.999999046	0.000682831	-0.000433922	0.000282288	7.873535156	3.648376465	4.63104248	0.034141545	-0.021696093	0.014114382	-0.211669922	-0.603515625	-0.818359375	898.64	37.7183066	-53.55910045	-5.359214522	-71
23662	0	0.316526413	0.145459175	0.184401512	0.999999046	-0.000347137	3.8147E-06	0.000450134	7.913160324	3.636479378	4.610037804	-0.017356873	0.000190735	0.022506715	-0.214111328	-0.603271484	-0.815185547	898.58	37.64966968	-53.58729747	-5.315071384	-71
23663	0	0.318359375	0.141235352	0.190063477	0.999999046	-0.000507355	0.000103951	0.000293732	7.958984375	3.530883789	4.751586914	-0.025367738	0.005197525	0.014686585	-0.216552734	-0.601074219	-0.821044922	898.66	37.57130363	-53.59528675	-5.285148532	-71
23664	0	0.322063446	0.138896942	0.192650795	0.999999046	-0.000620842	0.000347137	-1.90735E-05	8.051586151	3.472423553	4.816269875	-0.031042102	0.017356874	-0.000953674	-0.213867188	-0.603515625	-0.823974609	898.66	37.49416797	-53.55922412	-5.272203417	-71
23665	0	0.317565918	0.138916016	0.192749023	0.999999046	0.000400543	1.62125E-05	-0.000331879	7.939147949	3.472900391	4.818725586	0.020027162	0.000810623	-0.016593934	-0.214355469	-0.598876953	-0.818359375	898.64	37.6026005	-53.53118846	-5.346058594	-71
23666	0	0.317280769	0.14422226	0.190262794	0.999999046	0.00022316	2.86102E-05	-0.000195503	7.932019234	3.605556488	4.756569862	0.01115799	0.001430511	-0.009775162	-0.211914063	-0.601318359	-0.815429688	898.66	37.67194865	-53.51125402	-5.394564366	-71
23667	0	0.314147949	0.139099121	0.187072754	0.999999046	0.00030899	-1.43051E-05	-0.000278473	7.85369873	3.477478027	4.676818848	0.015449524	-0.000715256	-0.013923645	-0.211669922	-0.603515625	-0.821044922	898.6	37.764361	-53.48927246	-5.461619725	-71
23668	0	0.315966606	0.14177227	0.190271378	0.999999046	0.000487328	0.000160217	-0.000271797	7.899165154	3.544306755	4.756784439	0.02436638	0.008010865	-0.01358986	-0.214111328	-0.603515625	-0.818115234	898.64	37.85881492	-53.45170333	-5.505794158	-71
23669	0	0.320007324	0.142150879	0.192504883	0.999999046	0.000453949	0.000489235	-0.000427246	8.000183105	3.553771973	4.81262207	0.022697451	0.024461749	-0.021362307	-0.211669922	-0.603515625	-0.821044922	898.7	37.93600575	-53.37328289	-5.535592981	-71
23670	0	0.316039085	0.142043114	0.18920517	0.999999046	0.00050354	0.000419617	-0.000404358	7.900977135	3.551077843	4.730129242	0.025177004	0.020980837	-0.020217898	-0.209228516	-0.603515625	-0.818359375	898.66	38.02163358	-53.30263097	-5.568689038	-71
23671	0	0.312683105	0.143981934	0.186645508	0.999999046	0.000526428	0.000340462	-0.000358582	7.817077637	3.59954834	4.666137695	0.026321413	0.017023088	-0.017929079	-0.209228516	-0.603515625	-0.818359375	898.64	38.11104054	-53.24218198	-5.604233775	-71
23672	0	0.315929413	0.142334938	0.192020416	0.999999046	-7.9155E-05	0.000139236	-0.000401497	7.898235321	3.558373451	4.800510406	-0.003957749	0.006961823	-0.020074845	-0.206787109	-0.605957031	-0.815429688	898.64	38.1541333	-53.19663783	-5.666138851	-71
23673	0	0.314819336	0.142883301	0.194702148	0.999999046	0.000492096	2.00272E-05	-0.000202179	7.870483398	3.57208252	4.867553711	0.024604799	0.001001358	-0.010108948	-0.20703125	-0.603515625	-0.815673828	898.64	38.24876172	-53.17564594	-5.713558923	-70
23674	0	0.314692497	0.145085335	0.185903549	0.999999046	0.000724792	-0.000167847	3.05176E-05	7.867312431	3.627133369	4.64758873	0.036239627	-0.008392335	0.001525879	-0.206787109	-0.605957031	-0.815429688	898.54	38.35938088	-53.18799569	-5.747284134	-70
23675	0	0.315429688	0.145751953	0.188476563	0.999999046	0.000602722	4.76837E-06	0	7.885742188	3.643798828	4.711914063	0.03013611	0.000238419	0	-0.209228516	-0.605712891	-0.815185547	898.64	38.44267827	-53.18253488	-5.765557448	-71
23676	0	0.314817429	0.146589279	0.188546181	0.999999046	8.67844E-05	0.000160217	0.000361443	7.870435715	3.664731979	4.713654518	0.004339218	0.008010864	0.018072129	-0.206787109	-0.608154297	-0.812255859	898.76	38.40814427	-53.18869809	-5.707824839	-71
23677	0	0.312133789	0.145324707	0.188537598	0.999999046	1.52588E-05	2.76566E-05	0.000324249	7.803344727	3.633117676	4.713439941	0.000762939	0.001382828	0.016212464	-0.206542969	-0.610351563	-0.817871094	898.66	38.38183838	-53.20390927	-5.672007782	-70
23678	0	0.315024376	0.144637108	0.191173553	0.999999046	-3.62396E-05	-0.000267029	0.000221252	7.875609398	3.615927696	4.779338837	-0.001811981	-0.013351441	0.011062622	-0.206787109	-0.608154297	-0.815185547	898.72	38.38924447	-53.23807908	-5.686078505	-70
23679	0	0.316772461	0.144592285	0.190795898	0.999999046	0.000232697	-0.000319481	0.000228882	7.919311523	3.614807129	4.769897461	0.011634827	-0.015974045	0.011444092	-0.209228516	-0.607910156	-0.815185547	898.66	38.43083624	-53.27738078	-5.705211066	-70
23680	0	0.316775322	0.144412041	0.188266754	0.999999046	0.00045681	-0.000375748	7.9155E-05	7.919383049	3.610301018	4.706668854	0.022840501	-0.018787385	0.003957749	-0.209228516	-0.607910156	-0.815185547	898.72	38.52096135	-53.31100241	-5.75380525	-71
23681	0	0.316894531	0.144836426	0.188171387	0.999999046	0.000331879	-0.000227928	1.14441E-05	7.922363281	3.620910645	4.704284668	0.016593934	-0.011396408	0.000572205	-0.209228516	-0.607910156	-0.812255859	898.7	38.59023376	-53.32644296	-5.793635506	-71
23682	0	0.316129684	0.144953728	0.188784599	0.999999046	0.000400543	-0.000152588	8.67844E-05	7.903242111	3.623843193	4.719614983	0.020027161	-0.007629395	0.004339218	-0.209228516	-0.610107422	-0.812011719	898.66	38.6504779	-53.34039207	-5.811775329	-70
23683	0	0.315795898	0.144958496	0.189086914	0.999999046	0.000282288	2.76566E-05	9.91821E-05	7.894897461	3.623962402	4.727172852	0.01411438	0.001382828	0.004959107	-0.208984375	-0.610107422	-0.814941406	898.7	38.677699	-53.33897134	-5.807684745	-70
23684	0	0.316607475	0.14451313	0.187679291	0.999999046	0.00032711	-0.000108719	3.8147E-05	7.915186882	3.612828255	4.691982269	0.016355515	-0.005435944	0.001907349	-0.209228516	-0.610107422	-0.812011719	898.66	38.72991323	-53.3453294	-5.827696884	-70
23685	0	0.314941406	0.144958496	0.185058594	0.999999046	0.000442505	-8.67844E-05	3.8147E-06	7.873535156	3.623962402	4.626464844	0.022125245	-0.004339218	0.000190735	-0.208984375	-0.610107422	-0.814941406	898.7	38.79692643	-53.34723597	-5.851898826	-70
23686	0	0.315646172	0.14652729	0.189511299	0.999999046	-0.000133514	3.05176E-05	5.62668E-05	7.891154289	3.663182259	4.737782478	-0.00667572	0.001525879	0.002813339	-0.206787109	-0.610351563	-0.812255859	898.66	38.7797396	-53.34223631	-5.851811297	-70
23687	0	0.315490723	0.144348145	0.194152832	0.999999046	-0.000205994	-0.000330925	0.000267029	7.887268066	3.608703613	4.853820801	-0.010299683	-0.01654625	0.013351441	-0.208984375	-0.610351563	-0.817871094	898.7	38.76284785	-53.38438261	-5.865147366	-70
23688	0	0.314408302	0.145263672	0.184176445	0.999999046	0.00026226	-0.000490189	0.000239372	7.860207558	3.631591797	4.604411125	0.013113023	-0.024509431	0.011968613	-0.208984375	-0.610107422	-0.814941406	898.7	38.81804447	-53.43874254	-5.900593144	-70
23689	0	0.317687988	0.145568848	0.18560791	0.999999046	-0.000244141	-0.000441551	0.000183105	7.942199707	3.639221191	4.640197754	-0.012207032	-0.022077561	0.009155274	-0.211425781	-0.610107422	-0.814697266	898.66	38.81696035	-53.4847135	-5.93779733	-70
23690	0	0.316868782	0.14658165	0.186863899	0.999999046	0.000110626	0.000165939	0.000132561	7.921719551	3.664541245	4.671597481	0.005531311	0.008296967	0.006628037	-0.208984375	-0.610107422	-0.814941406	898.66	38.80332877	-53.47271222	-5.909028144	-70
23691	0	0.314758301	0.145385742	0.184570313	0.999999046	-3.8147E-06	0.000130653	9.53674E-05	7.86895752	3.634643555	4.614257813	-0.000190735	0.006532669	0.004768372	-0.209228516	-0.610107422	-0.812011719	898.64	38.78417311	-53.46113093	-5.88826364	-70
23692	0	0.315164566	0.145079613	0.1870327	0.999999046	-0.000134468	3.8147E-05	0.000159264	7.879114151	3.626990318	4.67581749	-0.006723404	0.001907349	0.007963181	-0.211425781	-0.610107422	-0.817626953	898.66	38.75084025	-53.46229256	-5.871170203	-71
23693	0	0.315124512	0.145385742	0.190002441	0.999999046	1.14441E-05	-1.04904E-05	3.8147E-05	7.878112793	3.634643555	4.750061035	0.000572205	-0.000524521	0.001907349	-0.211425781	-0.612304688	-0.808837891	898.58	38.75296743	-53.45889149	-5.871734802	-70
23694	0	0.316299438	0.145243645	0.188159943	0.999999046	0.000238419	-0.000219345	4.48227E-05	7.907485962	3.631091118	4.703998566	0.011920929	-0.010967255	0.002241135	-0.211425781	-0.610107422	-0.817626953	898.64	38.80004645	-53.47453584	-5.902448453	-70
23695	0	0.317138672	0.143615723	0.187133789	0.999999046	0.000225067	-6.38962E-05	-1.52588E-05	7.928466797	3.590393066	4.678344727	0.011253357	-0.003194809	-0.000762939	-0.206787109	-0.612548828	-0.812011719	898.64	38.837252	-53.47196061	-5.918678209	-71
23696	0	0.316913605	0.144685745	0.187026978	0.999999046	1.23978E-05	-5.72205E-05	8.39233E-05	7.922840118	3.617143631	4.675674438	0.000619888	-0.002861023	0.004196167	-0.208984375	-0.612304688	-0.811767578	898.64	38.83702931	-53.47587886	-5.918991247	-70
23697	0	0.31652832	0.145385742	0.187988281	0.999999046	-0.000160217	-2.57492E-05	0.000133514	7.913208008	3.634643555	4.699707031	-0.008010864	-0.00128746	0.00667572	-0.211425781	-0.610107422	-0.812011719	898.64	38.80754279	-53.48045645	-5.909087813	-70
23698	0	0.314074516	0.145668983	0.185759544	0.999999046	-8.01086E-05	0.000112534	0.00019455	7.851862907	3.641724586	4.643988609	-0.004005432	0.005626679	0.009727478	-0.211425781	-0.612304688	-0.811767578	898.72	38.76617731	-53.47695202	-5.87120491	-71
23699	0	0.315307617	0.146850586	0.18371582	0.999999046	0.000118256	5.43594E-05	7.62939E-06	7.88269043	3.671264648	4.592895508	0.005912781	0.002717972	0.00038147	-0.209228516	-0.607910156	-0.815185547	898.6	38.77564954	-53.46520316	-5.873260406	-70
23700	0	0.316326141	0.144510269	0.19299221	0.999999046	-0.0002985	-0.000171661	0.00018692	7.908153534	3.612756729	4.82480526	-0.014925003	-0.008583069	0.009346009	-0.209228516	-0.607910156	-0.815185547	898.66	38.73689728	-53.48628273	-5.874306479	-70
23701	0	0.313293457	0.142700195	0.188232422	0.999999046	0.000125885	-0.000384331	8.01086E-05	7.832336426	3.567504883	4.705810547	0.006294251	-0.019216538	0.004005432	-0.211669922	-0.610107422	-0.809082031	898.58	38.77973162	-53.51857406	-5.912095269	-70
23702	0	0.31669426	0.14593029	0.185265541	0.999999046	0.000379562	-0.000490189	9.82285E-05	7.917356491	3.648257256	4.631638527	0.01897812	-0.024509432	0.004911423	-0.213867188	-0.612304688	-0.811523438	898.7	38.85963531	-53.56157622	-5.960438135	-70
23703	0	0.319030762	0.146240234	0.186584473	0.999999046	0.000343323	-0.000178337	0.000106812	7.975769043	3.656005859	4.664611816	0.017166138	-0.008916855	0.005340576	-0.213867188	-0.610107422	-0.814697266	898.66	38.903797	-53.57733779	-5.973446519	-70
23704	0	0.316075325	0.144041061	0.185090065	0.999999046	-0.000311852	0.000110626	0.000198364	7.901883125	3.601026535	4.627251625	-0.015592575	0.005531311	0.009918213	-0.211425781	-0.612304688	-0.814697266	898.54	38.8333101	-53.57389918	-5.934980728	-70
23705	0	0.315551758	0.143676758	0.18548584	0.999999046	0.000286102	0.000214577	-6.86646E-05	7.888793945	3.591918945	4.637145996	0.014305115	0.010728836	-0.003433228	-0.213867188	-0.610107422	-0.811767578	898.64	38.85317232	-53.54196161	-5.924341813	-70
23706	0	0.316122055	0.145597458	0.187795639	0.999999046	0.000131607	4.57764E-05	4.19617E-05	7.903051376	3.639936447	4.694890976	0.006580353	0.002288818	0.002098084	-0.211425781	-0.610107422	-0.814697266	898.66	38.85804637	-53.53292901	-5.918858373	-70
23707	0	0.315490723	0.146484375	0.189025879	0.999999046	9.91821E-05	-7.15256E-05	9.53674E-05	7.887268066	3.662109375	4.725646973	0.004959106	-0.003576279	0.004768372	-0.208984375	-0.612548828	-0.814697266	898.66	38.8638244	-53.53801423	-5.91743491	-70
23708	0	0.316033363	0.145545006	0.186753273	0.999999046	0.000258446	-0.000143051	0.000128746	7.900834084	3.638625145	4.668831825	0.012922287	-0.007152557	0.006437302	-0.208984375	-0.612304688	-0.811767578	898.66	38.89050943	-53.55180827	-5.91841293	-70
23709	0	0.31652832	0.146240234	0.18560791	0.999999046	5.72205E-05	-0.000220299	0.000205994	7.913208008	3.656005859	4.640197754	0.002861023	-0.011014939	0.010299683	-0.208984375	-0.612304688	-0.811767578	898.72	38.8921641	-53.57800794	-5.917051642	-70
23710	0	0.31496048	0.145643234	0.184352875	0.999999046	-0.000263214	-7.24792E-05	0.00019455	7.874011993	3.641080856	4.608821869	-0.013160706	-0.003623962	0.009727478	-0.211425781	-0.610107422	-0.814697266	898.66	38.84391693	-53.59015564	-5.90209384	-70
23711	0	0.316040039	0.144348145	0.188049316	0.999999046	-0.000171661	4.673E-05	6.86646E-05	7.901000977	3.608703613	4.70123291	-0.008583069	0.002336502	0.003433228	-0.211425781	-0.612304688	-0.814697266	898.6	38.80936568	-53.58251278	-5.889139182	-70
23712	0	0.317445755	0.145337105	0.190019608	0.999999046	-8.86917E-05	-6.29425E-05	0.000132561	7.936143875	3.63342762	4.750490189	-0.004434586	-0.003147125	0.006628037	-0.208984375	-0.610107422	-0.814941406	898.72	38.78684385	-53.58911203	-5.880951679	-70
23713	0	0.315673828	0.143554688	0.181884766	0.999999046	9.15527E-05	7.34329E-05	8.7738E-05	7.891845703	3.588867188	4.547119141	0.004577637	0.003671646	0.004386902	-0.211425781	-0.610107422	-0.814697266	898.58	38.7770463	-53.58042524	-5.862883398	-70
23714	0	0.315855026	0.143409729	0.182453156	0.999999046	-0.000152588	0.000286102	-0.000123024	7.896375656	3.585243225	4.561328888	-0.007629395	0.014305115	-0.006151199	-0.211425781	-0.610107422	-0.817626953	898.64	38.74401274	-53.53771678	-5.851971467	-70
23715	0	0.317687988	0.144592285	0.195495605	0.999999046	-0.00043869	0.000161171	-0.000102997	7.942199707	3.614807129	4.887390137	-0.02193451	0.008058548	-0.005149842	-0.211425781	-0.610107422	-0.814697266	898.64	38.68721699	-53.50733677	-5.849908478	-70
23716	0	0.314789772	0.144062996	0.18980217	0.999999046	0.000447273	-4.95911E-05	-0.00019455	7.869744301	3.601574898	4.745054245	0.022363664	-0.002479553	-0.009727478	-0.213867188	-0.610107422	-0.814697266	898.6	38.76300134	-53.48908942	-5.887619351	-70
23717	0	0.316650391	0.144104004	0.180725098	0.999999046	0.000556946	-0.000136375	-7.62939E-05	7.916259766	3.602600098	4.518127441	0.027847292	-0.006818772	-0.003814697	-0.211425781	-0.610107422	-0.814697266	898.66	38.84552008	-53.48725935	-5.919019181	-70
23718	0	0.31777668	0.148753166	0.185720444	0.999999046	0.000146866	0.000318527	-3.14713E-05	7.944417	3.718829155	4.643011093	0.007343292	0.015926361	-0.001573563	-0.209228516	-0.610107422	-0.812011719	898.66	38.8315698	-53.44799439	-5.887281869	-70
23719	0	0.313781738	0.144348145	0.185302734	0.999999046	-0.000377655	0.00042057	2.67029E-05	7.844543457	3.608703613	4.632568359	-0.018882752	0.02102852	0.001335144	-0.208984375	-0.612304688	-0.811767578	898.64	38.74052593	-53.40375266	-5.83161547	-70
23720	0	0.313081741	0.145775795	0.188300133	0.999999046	2.57492E-05	0.000181198	0.000106812	7.827043533	3.644394875	4.707503319	0.00128746	0.009059906	0.005340576	-0.208984375	-0.610107422	-0.814941406	898.66	38.70905456	-53.38646095	-5.796272095	-70
23721	0	0.315856934	0.144775391	0.188964844	0.999999046	3.8147E-06	8.10623E-05	5.34058E-05	7.89642334	3.619384766	4.724121094	0.000190735	0.004053116	0.002670288	-0.211425781	-0.612304688	-0.811767578	898.64	38.69086312	-53.37423003	-5.77698394	-70
23722	0	0.316268921	0.145353317	0.19053936	0.999999046	-2.67029E-05	5.72205E-06	-8.86917E-05	7.906723022	3.633832932	4.763484001	-0.001335144	0.000286102	-0.004434586	-0.208984375	-0.612548828	-0.817626953	898.54	38.6931929	-53.35845031	-5.790996549	-70
23723	0	0.315429688	0.146240234	0.188964844	0.999999046	0.000236511	-1.81198E-05	0	7.885742188	3.656005859	4.724121094	0.011825562	-0.000905991	0	-0.206787109	-0.610351563	-0.812255859	898.72	38.71711859	-53.35106082	-5.793289242	-70
23724	0	0.315558434	0.145839691	0.187113762	0.999999046	0.000243187	-0.000127792	-3.43323E-05	7.888960838	3.645992279	4.677844048	0.012159348	-0.006389618	-0.001716614	-0.204101563	-0.612548828	-0.817871094	898.64	38.75637757	-53.35099251	-5.815783163	-70
23725	0	0.314575195	0.14630127	0.186767578	0.999999046	1.14441E-05	0.000206947	3.43323E-05	7.864379883	3.657531738	4.669189453	0.000572205	0.010347366	0.001716614	-0.206787109	-0.612548828	-0.812011719	898.6	38.72849144	-53.32588268	-5.784021314	-70
23726	0	0.314873695	0.146100044	0.188663483	1	4.76837E-06	4.86374E-05	-2.38419E-05	7.871842384	3.652501106	4.716587067	0.000238419	0.00243187	-0.001192093	-0.206542969	-0.612548828	-0.814941406	898.6	38.7219002	-53.31066546	-5.781634147	-70
23727	0	0.315246582	0.145263672	0.190185547	0.999999046	0.000106812	-6.38962E-05	-1.14441E-05	7.881164551	3.631591797	4.754638672	0.005340576	-0.003194809	-0.000572205	-0.206787109	-0.610351563	-0.812255859	898.66	38.73602601	-53.30630514	-5.790997692	-70
23728	0	0.315267563	0.145676613	0.187854767	0.999999046	4.86374E-05	-7.05719E-05	-7.24792E-05	7.881689072	3.641915321	4.696369171	0.00243187	-0.003528595	-0.003623962	-0.208984375	-0.610107422	-0.814941406	898.64	38.75128384	-53.29813805	-5.812186016	-70
23729	0	0.313293457	0.145690918	0.184753418	0.999999046	0.000114441	0.000191689	2.67029E-05	7.832336426	3.642272949	4.618835449	0.005722046	0.009584427	0.001335144	-0.206787109	-0.612548828	-0.812011719	898.7	38.73696755	-53.2736647	-5.783050971	-71
23730	0	0.31621933	0.145106316	0.189478874	0.999999046	-0.000423431	0.000205994	-3.14713E-05	7.905483246	3.62765789	4.736971855	-0.021171571	0.010299683	-0.001573563	-0.206542969	-0.612548828	-0.814941406	898.66	38.66637617	-53.2437118	-5.761582197	-70
23731	0	0.31439209	0.146728516	0.193603516	0.999999046	9.53674E-05	-1.81198E-05	1.52588E-05	7.859802246	3.668212891	4.840087891	0.004768372	-0.000905991	0.000762939	-0.204345703	-0.608154297	-0.818359375	898.64	38.6707958	-53.23690871	-5.765844246	-70
23732	0	0.313671112	0.145654678	0.184774399	0.999999046	0.000201225	-0.000169754	3.8147E-05	7.841777802	3.641366959	4.61935997	0.010061264	-0.008487702	0.001907349	-0.206787109	-0.610351563	-0.812255859	898.72	38.69918328	-53.24537001	-5.779211291	-70
23733	0	0.317687988	0.146057129	0.186279297	0.999999046	0.000240326	0.00011158	-6.10352E-05	7.942199707	3.651428223	4.656982422	0.012016297	0.005578995	-0.003051758	-0.206542969	-0.612548828	-0.814941406	898.7	38.71692303	-53.22167894	-5.773941435	-70
23734	0	0.313416481	0.148809433	0.186703682	0.999999046	-4.00543E-05	0.000286102	3.33786E-05	7.835412025	3.720235825	4.667592049	-0.002002716	0.014305115	0.00166893	-0.206787109	-0.610351563	-0.814941406	898.66	38.67467534	-53.18904901	-5.735549051	-70
23735	0	0.311767578	0.146606445	0.187561035	0.999999046	-0.000102997	0.000157356	0.000179291	7.794189453	3.665161133	4.689025879	-0.005149841	0.007867813	0.008964539	-0.204345703	-0.610351563	-0.812255859	898.6	38.62009359	-53.17826689	-5.688375926	-70
23736	0	0.314385414	0.146271706	0.187444687	0.999999046	-0.000252724	0.000137329	0.00020504	7.859635353	3.656792641	4.686117172	-0.012636185	0.006866455	0.010251999	-0.204345703	-0.610351563	-0.809326172	898.7	38.54716987	-53.17109057	-5.636951231	-70
23737	0	0.314819336	0.145690918	0.191772461	0.999999046	-0.000293732	0.000164986	4.95911E-05	7.870483398	3.642272949	4.794311523	-0.014686585	0.008249283	0.002479553	-0.201904297	-0.610351563	-0.815185547	898.66	38.48526733	-53.15019877	-5.608442411	-70
23738	0	0.315929413	0.145973206	0.193181992	0.999999046	1.71661E-05	-4.3869E-05	7.9155E-05	7.898235321	3.649330139	4.829549789	0.000858307	-0.002193451	0.003957748	-0.202148438	-0.608154297	-0.815429688	898.64	38.47504247	-53.15002286	-5.602286263	-70
23739	0	0.315307617	0.145568848	0.188781738	0.999999046	0.000278473	9.53674E-07	-4.57764E-05	7.88269043	3.639221191	4.719543457	0.013923645	4.76837E-05	-0.002288818	-0.206787109	-0.608154297	-0.818115234	898.66	38.50535829	-53.13693263	-5.611970639	-70
23740	0	0.314988136	0.146190643	0.188089371	0.999999046	2.57492E-05	7.43866E-05	-0.000138283	7.874703407	3.654766083	4.702234268	0.00128746	0.00371933	-0.006914139	-0.204345703	-0.610351563	-0.815185547	898.66	38.51075422	-53.11067972	-5.622330248	-70
23741	0	0.313598633	0.146728516	0.188354492	0.999999046	-2.28882E-05	0.000222206	-0.000148773	7.83996582	3.668212891	4.708862305	-0.001144409	0.011110306	-0.00743866	-0.204345703	-0.610351563	-0.818115234	898.76	38.49778033	-53.07038508	-5.618605985	-70
23742	0	0.313653946	0.146995544	0.189903259	0.999999046	-4.76837E-05	0.00015831	-5.05447E-05	7.841348648	3.674888611	4.747581482	-0.002384186	0.007915497	-0.002527237	-0.201904297	-0.608154297	-0.818359375	898.66	38.47627019	-53.04274864	-5.60971216	-70
23743	0	0.315246582	0.147033691	0.190063477	1	-2.86102E-06	1.90735E-05	-7.62939E-06	7.881164551	3.675842285	4.751586914	-0.000143051	0.000953674	-0.00038147	-0.201904297	-0.612792969	-0.818115234	898.7	38.46792513	-53.03064572	-5.605904722	-70
23744	0	0.31505394	0.145449638	0.190442085	0.999999046	8.29697E-05	6.86646E-05	-6.48499E-05	7.876348495	3.636240959	4.761052132	0.004148483	0.003433228	-0.003242493	-0.199462891	-0.610595703	-0.815429688	898.64	38.47136334	-53.01001946	-5.604875233	-70
23745	0	0.312561035	0.147277832	0.188598633	0.999999046	0.000225067	0.000180244	-4.95911E-05	7.814025879	3.681945801	4.71496582	0.011253357	0.009012222	-0.002479553	-0.199707031	-0.610595703	-0.8125	898.64	38.47875439	-52.98042055	-5.586681654	-70
23746	0	0.313760757	0.146903992	0.187179565	0.999999046	-0.000211716	0.000143051	-9.53674E-07	7.844018936	3.672599792	4.679489136	-0.010585785	0.007152557	-4.76837E-05	-0.201904297	-0.610351563	-0.8125	898.7	38.43393615	-52.95767397	-5.565425023	-71
23747	0	0.314086914	0.145629883	0.19519043	0.999999046	-0.000225067	-5.24521E-05	-9.91821E-05	7.852172852	3.64074707	4.879760742	-0.011253357	-0.002622604	-0.004959106	-0.201904297	-0.610351563	-0.815185547	898.6	38.4173376	-52.94532327	-5.583043651	-71
23748	0	0.311208725	0.147557259	0.192354202	0.999999046	8.86917E-05	-0.000270844	-1.23978E-05	7.780218124	3.688931465	4.808855057	0.004434586	-0.013542175	-0.000619888	-0.199462891	-0.610595703	-0.821289063	898.6	38.44687247	-52.95856115	-5.617908227	-71
23749	0	0.316162109	0.145080566	0.188476563	0.999999046	0.000267029	-9.05991E-05	-0.000125885	7.904052734	3.62701416	4.711914063	0.013351441	-0.004529953	-0.006294251	-0.201904297	-0.610595703	-0.818115234	898.6	38.49324421	-52.94767175	-5.646557105	-70
23750	0	0.314328194	0.14812851	0.18913269	0.999999046	9.34601E-05	0.00022316	-9.25064E-05	7.858204842	3.703212738	4.728317261	0.004673004	0.01115799	-0.00462532	-0.199462891	-0.610595703	-0.818359375	898.66	38.48619778	-52.91100543	-5.633309568	-70
23751	0	0.310913086	0.147399902	0.189697266	0.999999046	-8.01086E-05	0.000218391	2.67029E-05	7.772827148	3.684997559	4.742431641	-0.004005432	0.010919571	0.001335144	-0.197021484	-0.612792969	-0.818359375	898.6	38.44560054	-52.88316425	-5.600044348	-71
23752	0	0.314499855	0.145887375	0.191016197	1	9.53674E-06	-9.53674E-07	3.05176E-05	7.862496376	3.647184372	4.77540493	0.000476837	-4.76837E-05	0.001525879	-0.199462891	-0.612792969	-0.818115234	898.58	38.43534689	-52.87529268	-5.591823538	-70
23753	0	0.313415527	0.146118164	0.190246582	0.999999046	6.86646E-05	7.34329E-05	-1.52588E-05	7.835388184	3.652954102	4.756164551	0.003433228	0.003671646	-0.000762939	-0.199462891	-0.610595703	-0.818359375	898.64	38.43021219	-52.85748584	-5.584186337	-70
23754	0	0.312344551	0.148594856	0.194420815	0.999999046	0.000196457	-0.000217438	8.01086E-05	7.808613777	3.714871407	4.860520363	0.009822846	-0.010871887	0.004005432	-0.201660156	-0.612792969	-0.820800781	898.66	38.45563854	-52.87236496	-5.596598494	-71
23755	0	0.31439209	0.14654541	0.18737793	0.999999046	0.000167847	-0.000258446	8.39233E-05	7.859802246	3.663635254	4.684448242	0.008392334	-0.012922287	0.004196167	-0.199462891	-0.612792969	-0.818115234	898.7	38.48129557	-52.89131667	-5.611443027	-70
23756	0	0.31463623	0.145884514	0.189606667	0.999999046	0.000115395	-0.00018692	0.00012207	7.865905762	3.647112846	4.740166664	0.00576973	-0.009346008	0.006103516	-0.199462891	-0.612792969	-0.818115234	898.6	38.48960401	-52.90663601	-5.612278409	-70
23757	0	0.314575195	0.147155762	0.190368652	0.999999046	0.00012207	-6.67572E-06	7.62939E-06	7.864379883	3.678894043	4.759216309	0.006103516	-0.000333786	0.00038147	-0.199707031	-0.610595703	-0.8125	898.7	38.49520907	-52.8976299	-5.606892519	-70
23758	0	0.314213753	0.147379875	0.190999031	0.999999046	6.29425E-05	5.14984E-05	-1.23978E-05	7.855343819	3.68449688	4.774975777	0.003147125	0.002574921	-0.000619888	-0.201904297	-0.612792969	-0.815185547	898.66	38.4908678	-52.88194521	-5.597458266	-70
23759	0	0.313049316	0.145935059	0.190063477	0.999999046	0.000267029	-0.000121117	7.62939E-06	7.82623291	3.648376465	4.751586914	0.013351441	-0.006055832	0.00038147	-0.201904297	-0.612792969	-0.815185547	898.64	38.52370673	-52.88317171	-5.606058147	-70
23760	0	0.314501762	0.148656845	0.191432953	0.999999046	0.000218391	-0.000217438	6.48499E-05	7.86254406	3.716421127	4.785823822	0.010919571	-0.010871887	0.003242493	-0.201904297	-0.612548828	-0.812255859	898.66	38.55327964	-52.8970505	-5.615932968	-70
23761	0	0.31463623	0.147277832	0.18939209	0.999999046	0.000205994	-0.000239372	0.000152588	7.865905762	3.681945801	4.734802246	0.010299683	-0.011968613	0.007629395	-0.201904297	-0.610595703	-0.818115234	898.66	38.5731301	-52.91918509	-5.623027393	-70
23762	0	0.311535835	0.148357391	0.185945511	0.999999046	4.57764E-05	-0.000141144	0.000164032	7.788395882	3.708934784	4.648637772	0.002288818	-0.00705719	0.008201599	-0.201660156	-0.614990234	-0.817871094	898.66	38.56422097	-52.93335751	-5.611498259	-70
23763	0	0.31463623	0.146606445	0.190307617	0.999999046	-0.000225067	4.76837E-06	0.00012207	7.865905762	3.665161133	4.75769043	-0.011253357	0.000238419	0.006103516	-0.199462891	-0.612792969	-0.815185547	898.7	38.51534752	-52.93146517	-5.588144525	-70
23764	0	0.314486504	0.14589119	0.196661949	0.999999046	0.000216484	-0.000276566	6.67572E-06	7.86216259	3.647279739	4.916548729	0.010824204	-0.013828278	0.000333786	-0.201904297	-0.612792969	-0.815185547	898.54	38.55689478	-52.94637444	-5.615616098	-70
23765	0	0.3125	0.146972656	0.185424805	0.999999046	0.000339508	-0.000544548	0.000118256	7.8125	3.674316406	4.635620117	0.016975404	-0.027227404	0.005912781	-0.201904297	-0.612548828	-0.812255859	898.64	38.62492319	-52.99333583	-5.65721323	-70
23766	0	0.316766739	0.147390366	0.186443329	0.999999046	0.000406265	-0.000337601	-3.91006E-05	7.919168472	3.68475914	4.661083221	0.020313264	-0.016880036	-0.001955032	-0.201904297	-0.612792969	-0.818115234	898.6	38.69989323	-53.01063214	-5.703841957	-70
23767	0	0.314147949	0.14855957	0.188476563	0.999999046	-0.000228882	8.86917E-05	3.8147E-05	7.85369873	3.713989258	4.711914063	-0.011444092	0.004434586	0.001907349	-0.199462891	-0.612792969	-0.812255859	898.64	38.65247483	-52.99530025	-5.682099487	-70
23768	0	0.312965393	0.145702362	0.188780785	0.999999046	-4.29153E-05	-1.33514E-05	0.000235558	7.824134827	3.642559052	4.719519615	-0.002145767	-0.000667572	0.011777878	-0.201904297	-0.614990234	-0.812011719	898.6	38.6125091	-53.00322948	-5.639941692	-70
23769	0	0.313781738	0.147583008	0.187683105	0.999999046	0.000148773	-0.000224113	0.000228882	7.844543457	3.689575195	4.692077637	0.00743866	-0.011205673	0.011444092	-0.204101563	-0.612548828	-0.817871094	898.58	38.6153935	-53.02955147	-5.632506378	-70
23770	0	0.315337181	0.147128105	0.188473701	1	2.86102E-06	-5.81741E-05	-5.72205E-05	7.883429527	3.678202629	4.711842537	0.000143051	-0.002908707	-0.002861023	-0.201660156	-0.614990234	-0.814941406	898.66	38.61982738	-53.02060291	-5.642027926	-70
23771	0	0.313842773	0.147338867	0.190979004	0.999999046	-1.52588E-05	-0.000208855	0.000171661	7.846069336	3.68347168	4.774475098	-0.000762939	-0.010442734	0.008583069	-0.204345703	-0.612548828	-0.809326172	898.66	38.60916864	-53.04143044	-5.633238027	-70
23772	0	0.31476593	0.148017883	0.188043594	0.999999046	0.000300407	-0.000482559	0.000132561	7.869148254	3.700447083	4.701089859	0.015020371	-0.024127962	0.006628037	-0.201660156	-0.614990234	-0.814941406	898.72	38.66549749	-53.083968	-5.665769768	-70
23773	0	0.315979004	0.146606445	0.186706543	0.999999046	0.000209808	-0.000155449	0.000125885	7.899475098	3.665161133	4.667663574	0.010490418	-0.007772446	0.006294251	-0.204101563	-0.614746094	-0.814941406	898.7	38.6811759	-53.09685878	-5.661353793	-70
23774	0	0.313876152	0.146787643	0.185813904	0.999999046	-0.000461578	-9.15527E-05	0.000354767	7.846903801	3.669691086	4.645347595	-0.02307892	-0.004577637	0.017738343	-0.204101563	-0.614746094	-0.814941406	898.64	38.58662472	-53.12047089	-5.613464428	-70
23775	0	0.313903809	0.149230957	0.189331055	0.999999046	4.57764E-05	6.96182E-05	0.0001297	7.847595215	3.730773926	4.733276367	0.002288818	0.003480911	0.006484985	-0.206542969	-0.612548828	-0.814941406	898.78	38.56180762	-53.11341436	-5.582890118	-70
23776	0	0.315013885	0.144954681	0.187651634	0.999999046	4.1008E-05	-5.14984E-05	0.000144958	7.875347137	3.623867035	4.691290855	0.0020504	-0.002574921	0.007247925	-0.204345703	-0.612548828	-0.814941406	898.66	38.54607944	-53.11837697	-5.564161644	-70
23777	0	0.315917969	0.146789551	0.187011719	0.999999046	0.000301361	-7.9155E-05	0.000205994	7.897949219	3.66973877	4.675292969	0.015068055	-0.003957749	0.010299683	-0.204345703	-0.612548828	-0.814941406	898.64	38.55561255	-53.13025376	-5.540383552	-70
23778	0	0.315459251	0.148054123	0.187970161	0.999999046	0.000278473	-6.48499E-05	0.000250816	7.886481285	3.701353073	4.699254036	0.013923645	-0.003242493	0.012540818	-0.204101563	-0.614746094	-0.812011719	898.56	38.55591101	-53.14405082	-5.503293678	-70
23779	0	0.313110352	0.147766113	0.183288574	0.999999046	8.39233E-05	2.76566E-05	0.000217438	7.827758789	3.694152832	4.582214355	0.004196167	0.001382828	0.010871887	-0.204101563	-0.614746094	-0.814941406	898.66	38.52942813	-53.14724067	-5.463259021	-70
23780	0	0.315116882	0.146439552	0.191031456	0.999999046	-0.000416756	-0.000114441	0.000174522	7.877922058	3.660988808	4.7757864	-0.020837785	-0.005722046	0.00872612	-0.204345703	-0.612548828	-0.812011719	898.66	38.4640628	-53.1600205	-5.444955382	-70
23781	0	0.315185547	0.145446777	0.192993164	0.999999046	0.000148773	-0.000323296	0.000137329	7.879638672	3.636169434	4.824829102	0.00743866	-0.01616478	0.006866455	-0.204101563	-0.612548828	-0.817871094	898.54	38.48753443	-53.18876211	-5.462752638	-71
23782	0	0.313574791	0.146208763	0.184750557	0.999999046	0.000240326	-0.000576019	0.000255585	7.839369774	3.655219078	4.618763924	0.012016297	-0.028800967	0.012779237	-0.206787109	-0.612548828	-0.812011719	898.66	38.53165983	-53.24867321	-5.488288239	-70
23783	0	0.317260742	0.147399902	0.184997559	0.999999046	0.000511169	-0.000185966	0.000144958	7.931518555	3.684997559	4.624938965	0.025558473	-0.009298325	0.007247925	-0.206787109	-0.612548828	-0.812011719	898.64	38.58311813	-53.26583516	-5.485662182	-70
23784	0	0.315235138	0.146520615	0.184729576	0.999999046	-0.000395775	6.86646E-05	0.000221252	7.880878448	3.663015366	4.618239403	-0.019788743	0.003433228	0.011062622	-0.206542969	-0.614746094	-0.814697266	898.66	38.49728233	-53.26570552	-5.43932011	-70
23785	0	0.313171387	0.14642334	0.187988281	0.999999046	-4.57764E-05	-3.71933E-05	0.000362396	7.829284668	3.660583496	4.699707031	-0.002288818	-0.001859665	0.018119812	-0.206542969	-0.612548828	-0.814941406	898.66	38.44469554	-53.28501923	-5.387122092	-70
23786	0	0.31530571	0.14745903	0.185657501	0.999999046	1.71661E-05	-4.3869E-05	0.00032711	7.882642746	3.686475754	4.641437531	0.000858307	-0.002193451	0.016355515	-0.208984375	-0.612548828	-0.814697266	898.64	38.40438142	-53.30241919	-5.340738031	-71
23787	0	0.315979004	0.145324707	0.18927002	0.999999046	-0.000221252	-0.000182152	0.000110626	7.899475098	3.633117676	4.731750488	-0.011062622	-0.00910759	0.005531311	-0.206542969	-0.614746094	-0.814697266	898.72	38.37590734	-53.31679951	-5.33919335	-70
23788	0	0.316203117	0.146512032	0.191598892	0.999999046	0.000157356	-0.000185013	0.000124931	7.905077934	3.662800789	4.789972305	0.007867813	-0.009250641	0.006246567	-0.208984375	-0.612304688	-0.811767578	898.7	38.38923042	-53.33233029	-5.336761186	-70
23789	0	0.316589355	0.145935059	0.184936523	0.999999046	0.000247955	-0.000239372	0.000167847	7.914733887	3.648376465	4.623413086	0.012397766	-0.011968613	0.008392334	-0.208984375	-0.612304688	-0.811767578	898.7	38.41314402	-53.35590742	-5.33522154	-70
23790	0	0.316239357	0.146348	0.185688019	0.999999046	0.00019455	3.8147E-05	0.000231743	7.905983925	3.658699989	4.64220047	0.009727478	0.001907349	0.011587143	-0.211425781	-0.612304688	-0.811767578	898.72	38.39682232	-53.35916585	-5.291627247	-70
23791	0	0.315002441	0.146728516	0.186584473	0.999999046	7.62939E-06	0.000138283	0.000137329	7.875061035	3.668212891	4.664611816	0.00038147	0.006914139	0.006866455	-0.206542969	-0.614746094	-0.808837891	898.66	38.36103974	-53.34668289	-5.24358142	-70
23792	0	0.315478325	0.145973206	0.189292908	0.999999046	2.86102E-06	-3.05176E-05	0.000189781	7.886958122	3.649330139	4.732322693	0.000143051	-0.001525879	0.00948906	-0.206542969	-0.612548828	-0.814941406	898.58	38.33447202	-53.35300775	-5.216812625	-70
23793	0	0.316589355	0.145935059	0.188293457	0.999999046	0.000114441	-2.86102E-06	4.19617E-05	7.914733887	3.648376465	4.707336426	0.005722046	-0.000143051	0.002098084	-0.209228516	-0.610107422	-0.812011719	898.6	38.33591325	-53.34633198	-5.20984503	-71
23794	0	0.316236496	0.146195412	0.18746376	0.999999046	-0.000104904	-3.05176E-05	6.86646E-05	7.905912399	3.654885292	4.686594009	-0.005245209	-0.001525879	0.003433228	-0.208984375	-0.614746094	-0.814453125	898.66	38.31170402	-53.34405081	-5.197525877	-70
23795	0	0.315490723	0.145385742	0.185241699	0.999999046	0.0001297	9.53674E-07	7.62939E-06	7.887268066	3.634643555	4.63104248	0.006484985	4.76837E-05	0.00038147	-0.208984375	-0.612548828	-0.814697266	898.72	38.31888938	-53.33467734	-5.194478183	-71
23796	0	0.316164017	0.145855904	0.186302185	0.999999046	-0.000102043	5.14984E-05	-2.00272E-05	7.904100418	3.646397591	4.657554626	-0.005102158	0.002574921	-0.001001358	-0.208984375	-0.612548828	-0.814697266	898.64	38.29814639	-53.318848	-5.189129548	-71
23797	0	0.316101074	0.145629883	0.19342041	0.999999046	-3.8147E-06	-2.86102E-06	-0.000152588	7.902526855	3.64074707	4.835510254	-0.000190735	-0.000143051	-0.007629395	-0.208984375	-0.612304688	-0.811767578	898.58	38.30956126	-53.29832816	-5.207252633	-70
23798	0	0.314958572	0.145907402	0.186033249	0.999999046	0.000339508	-0.000179291	2.86102E-06	7.87396431	3.647685051	4.650831223	0.016975403	-0.008964539	0.000143051	-0.206542969	-0.612548828	-0.814941406	898.66	38.35851251	-53.30474433	-5.226994003	-71
23799	0	0.317749023	0.145935059	0.183837891	0.999999046	0.000354767	3.14713E-05	-0.000102997	7.943725586	3.648376465	4.595947266	0.017738343	0.001573563	-0.005149841	-0.208984375	-0.612548828	-0.814697266	898.64	38.40208936	-53.28487451	-5.238796006	-71
23800	0	0.315936089	0.148389816	0.186375618	0.999999046	-0.000264168	0.000276566	-8.58307E-06	7.898402214	3.709745407	4.65939045	-0.01320839	0.013828278	-0.000429153	-0.208984375	-0.614746094	-0.814453125	898.64	38.34024504	-53.24969955	-5.202771721	-71
23801	0	0.313476563	0.144897461	0.187438965	0.999999046	1.90735E-05	0.0001688	-3.43323E-05	7.836914063	3.622436523	4.685974121	0.000953674	0.008440018	-0.001716614	-0.204101563	-0.614746094	-0.812011719	898.64	38.32423213	-53.22235696	-5.180534592	-71
23802	0	0.315112114	0.146757126	0.187783241	0.999999046	8.96454E-05	7.62939E-05	8.7738E-05	7.877802849	3.668928146	4.694581032	0.004482269	0.003814697	0.004386902	-0.206542969	-0.612548828	-0.814941406	898.64	38.31051621	-53.21198446	-5.157633582	-71
23803	0	0.314697266	0.145812988	0.186096191	0.999999046	-0.000179291	9.25064E-05	3.05176E-05	7.867431641	3.645324707	4.652404785	-0.008964539	0.00462532	0.001525879	-0.206542969	-0.614746094	-0.814697266	898.66	38.27144282	-53.19614445	-5.137138691	-71
23804	0	0.315952301	0.146640778	0.189929008	0.999999046	-0.000109673	-8.39233E-05	-5.05447E-05	7.898807526	3.66601944	4.748225212	-0.005483627	-0.004196167	-0.002527237	-0.204101563	-0.612548828	-0.817871094	898.64	38.26681179	-53.1903735	-5.155669347	-71
23805	0	0.317199707	0.149902344	0.187683105	0.999999046	-3.8147E-06	0.000126839	0.000267029	7.929992676	3.747558594	4.692077637	-0.000190735	0.006341934	0.013351441	-0.206787109	-0.612548828	-0.812011719	898.64	38.21644995	-53.18815548	-5.095330148	-71
23806	0	0.314544678	0.143751144	0.183490753	0.999999046	-0.000482559	0.000141144	0.000411034	7.863616943	3.59377861	4.587268829	-0.024127962	0.00705719	0.020551683	-0.206787109	-0.610351563	-0.812255859	898.6	38.09266327	-53.19498765	-5.013058836	-71
23807	0	0.312438965	0.144287109	0.187561035	0.999999046	-0.000171661	0.00011158	0.000225067	7.810974121	3.607177734	4.689025879	-0.008583069	0.005578995	0.011253357	-0.206787109	-0.610351563	-0.814941406	898.6	38.02968811	-53.19125282	-4.964156571	-71
23808	0	0.314843178	0.146155357	0.189328194	0.999999046	-0.00011158	4.19617E-05	8.67844E-05	7.871079445	3.653883934	4.733204842	-0.005578995	0.002098084	0.004339218	-0.206787109	-0.610351563	-0.814941406	898.66	37.99689828	-53.18397398	-4.943695827	-71
23809	0	0.315795898	0.142883301	0.189025879	0.999999046	4.57764E-05	-9.44138E-05	3.8147E-06	7.894897461	3.57208252	4.725646973	0.002288818	-0.004720688	0.000190735	-0.208984375	-0.612304688	-0.811767578	898.64	38.00485592	-53.1832342	-4.945569096	-71
23810	0	0.316504478	0.144118309	0.191270828	0.999999046	0.000356674	-0.000242233	-0.00011158	7.912611961	3.602957726	4.781770706	0.01783371	-0.012111664	-0.005578995	-0.206787109	-0.610351563	-0.812255859	898.6	38.07611982	-53.18767238	-4.986918695	-71
23811	0	0.31640625	0.147460938	0.186828613	0.999999046	0.000427246	9.63211E-05	-0.000152588	7.91015625	3.686523438	4.670715332	0.021362305	0.004816055	-0.007629395	-0.206787109	-0.610351563	-0.812255859	898.66	38.12868558	-53.15869785	-4.996269456	-71
23812	0	0.31370163	0.146430969	0.182734489	0.999999046	0.000117302	0.00022316	-0.00017643	7.842540741	3.660774231	4.568362236	0.005865097	0.01115799	-0.008821488	-0.206542969	-0.610351563	-0.817871094	898.7	38.13697541	-53.11672557	-5.000904368	-71
23813	0	0.316101074	0.145019531	0.188049316	0.999999046	-0.000389099	0.000290871	-0.00018692	7.902526855	3.625488281	4.70123291	-0.019454957	0.014543534	-0.009346009	-0.201904297	-0.612792969	-0.815185547	898.56	38.08212605	-53.06799274	-4.990525086	-71
23814	0	0.315443993	0.146083832	0.195731163	0.999999046	8.39233E-05	0.000202179	-0.000225067	7.886099815	3.652095795	4.893279076	0.004196167	0.010108948	-0.011253357	-0.204345703	-0.612548828	-0.814941406	898.64	38.09409666	-53.02436572	-4.996661946	-71
23815	0	0.312927246	0.145935059	0.187683105	0.999999046	0.000545502	-3.33786E-05	-0.000148773	7.823181152	3.648376465	4.692077637	0.027275087	-0.00166893	-0.00743866	-0.204345703	-0.612548828	-0.814941406	898.7	38.17200132	-53.00736986	-5.021181397	-71
23816	0	0.31674099	0.147330284	0.18560791	0.999999046	0.000395775	-1.14441E-05	-3.14713E-05	7.918524742	3.683257103	4.640197754	0.019788743	-0.000572205	-0.001573563	-0.204345703	-0.612548828	-0.812011719	898.66	38.21689716	-52.99685291	-5.023922795	-71
23817	0	0.313476563	0.148681641	0.189147949	0.999999046	-8.01086E-05	0.000321388	1.14441E-05	7.836914063	3.717041016	4.72869873	-0.004005432	0.016069413	0.000572205	-0.206542969	-0.614746094	-0.811767578	898.58	38.17100712	-52.95931666	-4.977155322	-71
23818	0	0.31225872	0.146568298	0.18985939	0.999999046	-0.000101089	0.000165939	0.000170708	7.80646801	3.664207458	4.746484756	-0.005054474	0.008296967	0.008535385	-0.204101563	-0.612548828	-0.817871094	898.64	38.1183286	-52.94695944	-4.934248517	-72
23819	0	0.313659668	0.147277832	0.188171387	0.999999046	-6.10352E-05	2.38419E-05	0.000171661	7.841491699	3.681945801	4.704284668	-0.003051758	0.001192093	0.008583069	-0.201904297	-0.612792969	-0.815185547	898.66	38.08358774	-52.94747262	-4.903925749	-71
23820	0	0.313883781	0.145864487	0.188202858	0.999999046	-0.000315666	4.95911E-05	1.04904E-05	7.847094536	3.646612167	4.705071449	-0.01578331	0.002479553	0.000524521	-0.204345703	-0.612548828	-0.814941406	898.6	38.03656578	-52.93431504	-4.893635862	-72
23821	0	0.315002441	0.146484375	0.192810059	0.999999046	-0.000171661	-4.48227E-05	7.24792E-05	7.875061035	3.662109375	4.820251465	-0.008583069	-0.002241135	0.003623962	-0.204101563	-0.612548828	-0.817871094	898.66	38.00733579	-52.93397731	-4.887438661	-72
23822	0	0.316566467	0.147166252	0.189596176	0.999999046	-4.19617E-05	4.76837E-05	0.000106812	7.914161682	3.679156303	4.739904404	-0.002098084	0.002384186	0.005340576	-0.201904297	-0.612792969	-0.818115234	898.64	37.98031705	-52.92776595	-4.864668101	-72
23823	0	0.313964844	0.145080566	0.187072754	0.999999046	-3.8147E-06	3.91006E-05	8.7738E-05	7.849121094	3.62701416	4.676818848	-0.000190735	0.001955032	0.004386902	-0.201904297	-0.612548828	-0.812255859	898.6	37.96084644	-52.92109562	-4.839463139	-72
23824	0	0.313303947	0.145755768	0.18923378	0.999999046	-9.82285E-05	0.0001297	9.82285E-05	7.832598686	3.643894196	4.730844498	-0.004911423	0.006484985	0.004911423	-0.201904297	-0.612548828	-0.812255859	898.7	37.92089542	-52.90697746	-4.801625896	-72
23825	0	0.314941406	0.14642334	0.18951416	0.999999046	-3.8147E-06	0.000142097	-6.86646E-05	7.873535156	3.660583496	4.737854004	-0.000190735	0.007104874	-0.003433228	-0.201904297	-0.610595703	-0.818115234	898.66	37.91065172	-52.88001037	-4.797035691	-71
23826	0	0.314622879	0.145670891	0.18929863	0.999999046	9.53674E-06	0.000144958	0	7.865571976	3.64177227	4.732465744	0.000476837	0.007247925	0	-0.199462891	-0.610595703	-0.815429688	898.6	37.89351686	-52.85767869	-4.77848429	-72
23827	0	0.315368652	0.146179199	0.189758301	0.999999046	0.000259399	2.38419E-05	-0.000141144	7.884216309	3.65447998	4.74395752	0.012969971	0.001192093	-0.00705719	-0.199462891	-0.612792969	-0.815429688	898.66	37.93316189	-52.83642213	-4.792736921	-72
23828	0	0.314829826	0.14661026	0.19085598	0.999999046	0.000273705	7.24792E-05	-0.000115395	7.870745659	3.6652565	4.771399498	0.013685227	0.003623962	-0.00576973	-0.201904297	-0.610595703	-0.818359375	898.56	37.96683481	-52.81257941	-4.805438329	-72
23829	0	0.312927246	0.147033691	0.186706543	0.999999046	0.000133514	0.000210762	-0.000106812	7.823181152	3.675842285	4.667663574	0.00667572	0.010538101	-0.005340576	-0.199707031	-0.610595703	-0.812744141	898.7	37.97079692	-52.77692602	-4.794703374	-72
23830	0	0.312695503	0.147210121	0.185638428	0.999999046	-9.72748E-05	0.000352859	-0.00017643	7.817387581	3.680253029	4.640960693	-0.004863739	0.017642975	-0.008821488	-0.201904297	-0.612792969	-0.818115234	898.76	37.94372793	-52.72363467	-4.780297814	-72
23831	0	0.315490723	0.145629883	0.193908691	0.999999046	-0.000385284	0.000271797	-7.62939E-06	7.887268066	3.64074707	4.847717285	-0.019264222	0.01358986	-0.00038147	-0.199462891	-0.612792969	-0.815429688	898.66	37.87095067	-52.68953931	-4.745040551	-72
23832	0	0.312697411	0.148231506	0.193886757	0.999999046	0.000195503	-6.10352E-05	-1.52588E-05	7.817435265	3.705787659	4.847168922	0.009775162	-0.003051758	-0.000762939	-0.197265625	-0.613037109	-0.815429688	898.72	37.89636582	-52.68485168	-4.749798565	-72
23833	0	0.31427002	0.145996094	0.188293457	0.999999046	0.000209808	-0.000231743	3.8147E-05	7.856750488	3.649902344	4.707336426	0.010490418	-0.011587143	0.001907349	-0.199707031	-0.610595703	-0.815673828	898.7	37.93295954	-52.69948928	-4.771686546	-72
23834	0	0.315223694	0.148248672	0.189304352	0.999999046	0.000196457	2.86102E-05	-9.63211E-05	7.880592346	3.706216812	4.732608795	0.009822846	0.001430511	-0.004816055	-0.199707031	-0.612792969	-0.8125	898.64	37.96008762	-52.68118811	-4.777039824	-72
23835	0	0.312561035	0.148132324	0.187988281	0.999999046	-0.000171661	0.000252724	1.14441E-05	7.814025879	3.703308105	4.699707031	-0.008583069	0.012636185	0.000572205	-0.199707031	-0.610595703	-0.815673828	898.62	37.91178854	-52.65026038	-4.746836432	-72
23836	0	0.312223434	0.146777153	0.191674232	0.999999046	-0.000245094	0.000303268	8.67844E-05	7.805585861	3.669428825	4.791855812	-0.012254715	0.015163422	0.004339218	-0.194824219	-0.613037109	-0.815673828	898.66	37.84152169	-52.61999729	-4.694004462	-72
23837	0	0.313232422	0.147460938	0.190917969	0.999999046	-0.00019455	0.000157356	4.19617E-05	7.830810547	3.686523438	4.772949219	-0.009727478	0.007867813	0.002098084	-0.197265625	-0.610839844	-0.815673828	898.7	37.79591242	-52.59976739	-4.667675231	-72
23838	0	0.314160347	0.145894051	0.194307327	0.999999046	-9.53674E-05	4.19617E-05	-2.38419E-05	7.854008675	3.647351265	4.857683182	-0.004768372	0.002098084	-0.001192093	-0.197021484	-0.613037109	-0.818359375	898.64	37.7798879	-52.58532974	-4.6633869	-72
23839	0	0.313964844	0.14654541	0.192993164	0.999999046	0.000141144	-0.000151634	-3.43323E-05	7.849121094	3.663635254	4.824829102	0.00705719	-0.007581711	-0.001716614	-0.199707031	-0.612792969	-0.8125	898.62	37.80990513	-52.58768252	-4.677386913	-72
23840	0	0.31321907	0.146437645	0.191635132	0.999999046	0.000136375	-8.39233E-05	-2.00272E-05	7.830476761	3.660941124	4.790878296	0.006818771	-0.004196167	-0.001001358	-0.199462891	-0.612792969	-0.815429688	898.64	37.83144765	-52.58492045	-4.68541238	-72
23841	0	0.313415527	0.147399902	0.191040039	0.999999046	0.000110626	6.96182E-05	-0.000118256	7.835388184	3.684997559	4.776000977	0.005531311	0.003480911	-0.005912781	-0.199462891	-0.612792969	-0.815429688	898.64	37.8476144	-52.56137386	-4.690819086	-72
23842	0	0.312376976	0.146904945	0.192148209	0.999999046	2.86102E-05	0.00015831	-2.76566E-05	7.8094244	3.672623634	4.803705215	0.001430511	0.007915497	-0.001382828	-0.197265625	-0.610839844	-0.815673828	898.66	37.83550277	-52.53614066	-4.675812884	-72
23843	0	0.31237793	0.148132324	0.192321777	0.999999046	0.000152588	-4.86374E-05	-2.28882E-05	7.809448242	3.703308105	4.808044434	0.007629395	-0.00243187	-0.001144409	-0.197021484	-0.613037109	-0.818359375	898.64	37.85607269	-52.52991448	-4.684072169	-72
23844	0	0.31306076	0.147838593	0.192367554	0.999999046	0.000199318	-0.00012207	8.01086E-05	7.826519012	3.695964813	4.809188843	0.009965897	-0.006103516	0.004005432	-0.197265625	-0.613037109	-0.815429688	898.56	37.87659605	-52.53754962	-4.682797994	-72
23845	0	0.313476563	0.147644043	0.191162109	0.999999046	0.000202179	-4.1008E-05	4.57764E-05	7.836914063	3.691101074	4.779052734	0.010108948	-0.0020504	0.002288818	-0.194824219	-0.613037109	-0.818603516	898.7	37.89412109	-52.53546473	-4.681563417	-72
23846	0	0.313016891	0.148303032	0.191624641	0.999999046	7.24792E-05	-7.62939E-06	7.9155E-05	7.825422287	3.707575798	4.790616035	0.003623962	-0.00038147	0.003957748	-0.197265625	-0.613037109	-0.815429688	898.72	37.88985144	-52.53269537	-4.668108105	-72
23847	0	0.311767578	0.148376465	0.189697266	0.999999046	1.52588E-05	9.53674E-07	0.000164032	7.794189453	3.709411621	4.742431641	0.000762939	4.76837E-05	0.008201599	-0.197265625	-0.613037109	-0.815429688	898.7	37.86839643	-52.5351266	-4.641029588	-73
23848	0	0.315355301	0.146142006	0.195551872	0.999999046	-0.000195503	-1.52588E-05	4.48227E-05	7.883882523	3.653550148	4.888796806	-0.009775162	-0.000762939	0.002241135	-0.199462891	-0.612792969	-0.815429688	898.64	37.83807975	-52.53062216	-4.632979846	-72
23849	0	0.312011719	0.147705078	0.195678711	0.999999046	0.000183105	-0.000197411	-3.43323E-05	7.800292969	3.692626953	4.891967773	0.009155274	-0.009870529	-0.001716614	-0.199462891	-0.612792969	-0.818359375	898.6	37.87705112	-52.53687273	-4.661843913	-73
23850	0	0.311891556	0.146817207	0.186406136	0.999999046	0.000164032	-0.000553131	5.34058E-05	7.797288895	3.670430183	4.660153389	0.0082016	-0.027656557	0.002670288	-0.199462891	-0.613037109	-0.821289063	898.66	37.93646489	-52.58160336	-4.72276529	-72
23851	0	0.316345215	0.147827148	0.189697266	0.999999046	0.000362396	-0.000201225	7.62939E-05	7.908630371	3.695678711	4.742431641	0.018119813	-0.010061264	0.003814697	-0.199462891	-0.612792969	-0.815429688	898.56	37.98370215	-52.59626591	-4.734435294	-72
23852	0	0.312904358	0.149320602	0.189644814	0.999999046	0.000123024	0.000110626	0.000159264	7.822608948	3.73301506	4.741120338	0.006151199	0.005531311	0.007963181	-0.199707031	-0.612792969	-0.8125	898.66	37.9651695	-52.58860019	-4.694513434	-73
23853	0	0.311523438	0.147155762	0.190002441	0.999999046	-9.91821E-05	-0.000117302	0.000152588	7.788085938	3.678894043	4.750061035	-0.004959106	-0.005865097	0.007629395	-0.197021484	-0.613037109	-0.818359375	898.6	37.94301602	-52.60104649	-4.687843991	-72
23854	0	0.312222481	0.147632599	0.188004494	0.999999046	7.62939E-06	-2.86102E-05	0.000250816	7.805562019	3.690814972	4.700112343	0.00038147	-0.001430511	0.012540817	-0.199462891	-0.612792969	-0.815429688	898.64	37.91348801	-52.61245952	-4.653178696	-72
23855	0	0.312744141	0.146484375	0.19152832	0.999999046	-3.43323E-05	-7.53403E-05	1.52588E-05	7.818603516	3.662109375	4.788208008	-0.001716614	-0.003767014	0.000762939	-0.197021484	-0.615234375	-0.818359375	898.6	37.91124911	-52.61149827	-4.657915324	-72
23856	0	0.313570976	0.147864342	0.193870544	0.999999046	0.000252724	-0.000123978	6.77109E-05	7.839274406	3.696608543	4.846763611	0.012636185	-0.006198883	0.003385544	-0.197021484	-0.613037109	-0.818359375	898.7	37.94008913	-52.61853589	-4.665039808	-72
23857	0	0.313842773	0.147705078	0.190307617	0.999999046	0.000320435	-0.000266075	0.000144958	7.846069336	3.692626953	4.75769043	0.016021729	-0.013303757	0.007247925	-0.199462891	-0.614990234	-0.812255859	898.66	37.9807466	-52.64389019	-4.668027372	-72
23858	0	0.313315392	0.148162842	0.189556122	0.999999046	0.000133514	-0.000137329	0.000125885	7.832884789	3.704071045	4.738903046	0.00667572	-0.006866455	0.006294251	-0.199462891	-0.614990234	-0.815185547	898.54	37.99049073	-52.65628876	-4.663017205	-72
23859	0	0.312561035	0.147827148	0.18951416	0.999999046	8.39233E-05	-0.000124931	0.000160217	7.814025879	3.695678711	4.737854004	0.004196167	-0.006246567	0.008010864	-0.199462891	-0.612792969	-0.818359375	898.56	37.98943949	-52.66999161	-4.659183596	-72
23860	0	0.312472343	0.147575378	0.189043999	0.999999046	-6.67572E-06	-7.62939E-05	0.000244141	7.811808586	3.68938446	4.726099968	-0.000333786	-0.003814697	0.012207031	-0.199462891	-0.614990234	-0.815185547	898.64	37.96366219	-52.68523531	-4.629361622	-72
23861	0	0.313537598	0.147338867	0.191894531	0.999999046	0.000167847	-0.000227928	0.000144958	7.838439941	3.68347168	4.797363281	0.008392334	-0.011396408	0.007247925	-0.199462891	-0.614990234	-0.815185547	898.66	37.98360834	-52.70714131	-4.632518529	-72
23862	0	0.315742493	0.147372246	0.190906525	0.999999046	0.000141144	-0.000137329	0.000159264	7.893562317	3.684306145	4.772663116	0.00705719	-0.006866455	0.007963181	-0.201904297	-0.612792969	-0.818115234	898.66	37.99040964	-52.72192296	-4.63079899	-73
23863	0	0.31427002	0.147460938	0.188537598	0.999999046	8.39233E-05	-0.000239372	0.000244141	7.856750488	3.686523438	4.713439941	0.004196167	-0.011968613	0.012207032	-0.199462891	-0.614990234	-0.815185547	898.72	37.99015878	-52.75197975	-4.621024192	-72
23864	0	0.312233925	0.147460938	0.185554504	0.999999046	6.96182E-05	-8.2016E-05	0.000105858	7.805848122	3.686523438	4.63886261	0.003480911	-0.0041008	0.005292892	-0.199462891	-0.615234375	-0.818115234	898.6	37.99036479	-52.75816353	-4.616992957	-73
23865	0	0.316162109	0.14666748	0.193359375	0.999999046	-0.000289917	-4.1008E-05	-1.14441E-05	7.904052734	3.666687012	4.833984375	-0.01449585	-0.0020504	-0.000572205	-0.199462891	-0.612792969	-0.818359375	898.6	37.95930882	-52.7523519	-4.628568154	-73
23866	0	0.314404488	0.146746635	0.191464424	0.999999046	0.000179291	-0.000261307	0.000128746	7.86011219	3.668665886	4.786610603	0.008964539	-0.013065338	0.006437302	-0.204101563	-0.614990234	-0.814941406	898.6	37.98572351	-52.77631297	-4.637894216	-72
23867	0	0.313415527	0.146789551	0.18347168	0.999999046	0.000495911	-0.000319481	9.53674E-05	7.835388184	3.66973877	4.586791992	0.024795534	-0.015974046	0.004768372	-0.201904297	-0.614990234	-0.812255859	898.7	38.05817153	-52.80336325	-4.657984882	-73
23868	0	0.315576553	0.149292946	0.185073853	0.999999046	0.000218391	-3.05176E-05	0.000178337	7.889413834	3.732323647	4.626846313	0.010919571	-0.001525879	0.008916855	-0.201904297	-0.614990234	-0.815185547	898.6	38.06247605	-52.81033099	-4.636537013	-73
23869	0	0.313476563	0.147644043	0.186279297	0.999999046	-0.000354767	0.000119209	0.000282288	7.836914063	3.691101074	4.656982422	-0.017738343	0.005960465	0.01411438	-0.199462891	-0.614990234	-0.815185547	898.7	37.97499935	-52.81118154	-4.580161959	-72
