Counter	Temperature	VelInc_X	VelInc_Y	VelInc_Z	OriInc_w	OriInc_x	OriInc_y	OriInc_z	Acc_X	Acc_Y	Acc_Z	Gyr_X	Gyr_Y	Gyr_Z	Mag_X	Mag_Y	Mag_Z	Pressure	Roll	Pitch	Yaw	RSSI
35522	0	0.366658211	-0.100530624	0.110348701	0.999999046	0.000431061	-0.000268936	0.000247002	9.166455269	-2.51326561	2.758717537	0.021553041	-0.013446809	0.012350083	-0.488769531	0.740966797	-0.486816406	887.12	-42.32500694	-68.19235843	-22.97949965	-57
35523	0	0.366088867	-0.097045898	0.110046387	0.999999046	0.000312805	-9.82285E-05	0.00050354	9.15222168	-2.426147461	2.751159668	0.01564026	-0.004911423	0.025177003	-0.488769531	0.740966797	-0.486816406	887.06	-42.399258	-68.16920325	-22.86824189	-57
35524	0	0.367477417	-0.097894669	0.113085747	0.999999046	0.000382423	8.96454E-05	0.000395775	9.186935425	-2.447366714	2.827143669	0.019121171	0.00448227	0.019788743	-0.488525391	0.736328125	-0.489257813	887.18	-42.40561423	-68.13831606	-22.81353293	-57
35525	0	0.36529541	-0.098266602	0.111572266	0.999999046	0.000392914	0.000184059	0.000217438	9.132385254	-2.456665039	2.789306641	0.019645692	0.009202958	0.010871888	-0.488769531	0.738769531	-0.489501953	887.1	-42.35439349	-68.11310087	-22.82318382	-57
35526	0	0.367103577	-0.099926949	0.10995388	0.999999046	0.000637054	0.000272751	8.7738E-05	9.177589417	-2.498173714	2.748847008	0.031852725	0.013637544	0.004386902	-0.486328125	0.740722656	-0.492675781	887.18	-42.23071298	-68.09029356	-22.87875991	-57
35527	0	0.366821289	-0.100708008	0.108581543	0.999999046	0.000572205	0.000329018	9.53674E-05	9.170532227	-2.517700195	2.714538574	0.028610232	0.016450883	0.004768372	-0.488769531	0.738769531	-0.489501953	887.18	-42.10553936	-68.06203261	-22.9515464	-57
35528	0	0.365570068	-0.100653648	0.109424591	0.999999046	0.000414848	0.00037384	0.000185966	9.139251709	-2.516341209	2.735614777	0.020742418	0.018692018	0.009298325	-0.488525391	0.736328125	-0.4921875	887.16	-42.00921214	-68.02287299	-23.00727411	-57
35529	0	0.364685059	-0.100769043	0.107849121	0.999999046	0.000579834	0.000374794	0.000324249	9.117126465	-2.519226074	2.696228027	0.028991702	0.018739702	0.016212465	-0.488525391	0.734130859	-0.494873047	887.24	-41.92340397	-67.9729714	-23.02686579	-57
35530	0	0.365087509	-0.101247787	0.107689857	0.999999046	0.000469208	0.000402451	0.000250816	9.127187729	-2.531194687	2.692246437	0.02346039	0.02012253	0.012540818	-0.486083984	0.736328125	-0.495361328	887.2	-41.83009541	-67.92629803	-23.07125536	-56
35531	0	0.366027832	-0.102111816	0.106872559	0.999999046	0.000427246	0.000245094	0.000259399	9.150695801	-2.55279541	2.671813965	0.021362306	0.012254716	0.012969971	-0.486083984	0.736328125	-0.495361328	887.12	-41.77370232	-67.89241043	-23.08302121	-57
35532	0	0.36781311	-0.102881432	0.109031677	0.999999046	0.000384331	0.000312805	0.000597954	9.195327759	-2.572035789	2.725791931	0.019216539	0.01564026	0.029897693	-0.483642578	0.736083984	-0.498291016	887.12	-41.78103108	-67.82685486	-23.02659029	-56
35533	0	0.365844727	-0.101501465	0.108459473	0.999999046	0.000408173	-1.43051E-05	0.000812531	9.146118164	-2.537536621	2.711486816	0.020408633	-0.000715256	0.040626531	-0.486083984	0.736328125	-0.500976563	887.16	-41.89171803	-67.77282265	-22.85264307	-55
35534	0	0.369092941	-0.10670948	0.112502098	0.999998093	0.00127697	-1.62125E-05	0.000639915	9.227323532	-2.667737007	2.812552452	0.063848517	-0.000810623	0.031995784	-0.483642578	0.736083984	-0.501220703	887.18	-41.86709435	-67.73190039	-22.72038253	-55
35535	0	0.368652344	-0.091003418	0.109558105	0.999998093	0.001294136	-0.000289917	0.000869751	9.216308594	-2.275085449	2.738952637	0.064706829	-0.014495856	0.043487567	-0.481201172	0.736083984	-0.498535156	887.16	-41.93823418	-67.69710667	-22.49041484	-55
35536	0	0.366041183	-0.099774361	0.111800194	0.999999046	0.000329018	-0.000225067	0.000915527	9.151029587	-2.494359016	2.795004845	0.016450885	-0.011253359	0.045776375	-0.481201172	0.736083984	-0.501464844	887.1	-42.11646113	-67.65308375	-22.25877796	-56
35537	0	0.357849121	-0.096374512	0.111755371	0.999999046	0.00087738	-0.000361443	0.000671387	8.946228027	-2.409362793	2.793884277	0.043869028	-0.018072132	0.033569343	-0.478759766	0.736083984	-0.501464844	887.2	-42.20571208	-67.63918326	-22.05666945	-56
35538	0	0.360852242	-0.098547935	0.116060257	0.999998093	0.001441002	-0.000344276	0.000319481	9.021306038	-2.463698387	2.901506424	0.072050122	-0.017213828	0.015974051	-0.478759766	0.736083984	-0.501464844	887.16	-42.15363436	-67.65068397	-21.94185024	-56
35539	0	0.36730957	-0.09979248	0.115600586	0.999998093	0.001664162	-0.000110626	-0.000232697	9.182739258	-2.494812012	2.890014648	0.083208123	-0.005531314	-0.011634832	-0.478515625	0.731445313	-0.501220703	887.18	-41.91734626	-67.68468831	-22.0001651	-55
35540	0	0.368235588	-0.100159645	0.11353302	0.999999046	0.000933647	0.000312805	-1.23978E-05	9.205889702	-2.503991127	2.8383255	0.046682365	0.015640261	-0.000619888	-0.480712891	0.731445313	-0.509765625	887.12	-41.73114021	-67.66560237	-22.08347501	-55
35541	0	0.370239258	-0.101867676	0.11138916	0.999999046	0.000621796	0.000538826	0.000427246	9.255981445	-2.546691895	2.784729004	0.031089787	0.026941303	0.021362308	-0.478271484	0.729248047	-0.506835938	887.08	-41.63066126	-67.59363498	-22.11858393	-56
35542	0	0.366923332	-0.099542618	0.110014915	0.999999046	0.000406265	0.000671387	0.00077343	9.173083305	-2.488565445	2.750372887	0.020313267	0.033569343	0.038671501	-0.480712891	0.729248047	-0.509521484	887.12	-41.60259354	-67.48407927	-22.10027365	-56
35543	0	0.365966797	-0.098266602	0.107543945	0.999999046	-4.19617E-05	0.000874519	0.000610352	9.149169922	-2.456665039	2.688598633	-0.002098084	0.043725976	0.030517584	-0.478515625	0.731445313	-0.509765625	887.18	-41.55532914	-67.36979098	-22.16082836	-56
35544	0	0.366337776	-0.096282005	0.10512352	0.999999046	-0.000426292	0.000881195	0.000487328	9.158444405	-2.407050133	2.628087997	-0.021314625	0.044059762	0.024366384	-0.473632813	0.733398438	-0.516113281	887.12	-41.52629012	-67.26472374	-22.23801574	-55
35545	0	0.365783691	-0.096923828	0.104736328	0.999999046	-0.000793457	0.000554085	0.000179291	9.144592285	-2.423095703	2.618408203	-0.039672858	0.027704243	0.00896454	-0.476074219	0.731201172	-0.512939453	887.18	-41.53619538	-67.21158667	-22.32136853	-55
35546	0	0.364168167	-0.097524643	0.103946686	0.999999046	-0.000701904	0.0001297	-0.000145912	9.104204178	-2.438116074	2.598667145	-0.035095218	0.006484986	-0.007295609	-0.473632813	0.733398438	-0.513183594	887.12	-41.54642786	-67.22002241	-22.39187298	-55
35547	0	0.363098145	-0.099182129	0.108032227	0.999999046	-0.000339508	-0.000437737	-0.000511169	9.077453613	-2.479553223	2.700805664	-0.016975404	-0.021886828	-0.025558474	-0.473632813	0.735839844	-0.513427734	887.1	-41.54328485	-67.30510771	-22.4320244	-55
35548	0	0.362747192	-0.100229263	0.109659195	0.999999046	-2.19345E-05	-0.00087738	-0.000897408	9.06867981	-2.505731583	2.741479874	-0.001096726	-0.04386903	-0.044870388	-0.476074219	0.731201172	-0.512939453	887.2	-41.50416231	-67.45733481	-22.46736851	-55
35549	0	0.365661621	-0.09979248	0.11151123	0.999999046	-0.000118256	-0.00083065	-0.00082016	9.141540527	-2.494812012	2.787780762	-0.005912782	-0.041532526	-0.041008005	-0.480957031	0.731445313	-0.506835938	887.12	-41.48293767	-67.59971706	-22.50676933	-56
35550	0	0.368647575	-0.102268219	0.116305351	0.999999046	-0.000505447	-0.00071907	-0.00088501	9.216189384	-2.556705475	2.907633781	-0.025272376	-0.035953531	-0.0442505	-0.480957031	0.733642578	-0.510009766	887.08	-41.47130888	-67.73723754	-22.57692952	-55
35551	0	0.361877441	-0.101257324	0.114868164	0.999999046	-0.000675201	-0.000361443	-0.00044632	9.046936035	-2.531433105	2.871704102	-0.033760075	-0.018072131	-0.022315982	-0.480957031	0.731445313	-0.506835938	887.16	-41.5043244	-67.81047463	-22.62056462	-55
35552	0	0.363944054	-0.102431297	0.11489296	0.999999046	-0.000668526	2.86102E-05	-0.000133514	9.098601341	-2.560782433	2.87232399	-0.033426287	0.001430512	-0.006675721	-0.483398438	0.729492188	-0.500732422	887.18	-41.52962959	-67.82619292	-22.67961179	-56
35553	0	0.365539551	-0.103393555	0.116210938	0.999999046	-0.000511169	0.000187874	-0.00050354	9.13848877	-2.584838867	2.905273438	-0.025558474	0.009393693	-0.025177004	-0.485595703	0.729492188	-0.503417969	887.02	-41.42901364	-67.85596035	-22.8494318	-56
35554	0	0.365662575	-0.102773666	0.111175537	0.999999046	-0.000738144	0.000356674	-0.000114441	9.141564369	-2.56934166	2.779388428	-0.0369072	0.017833712	-0.005722047	-0.485595703	0.731689453	-0.506591797	887.12	-41.40527659	-67.84150375	-22.95868599	-55
35555	0	0.367492676	-0.104003906	0.110168457	0.999999046	-0.000461578	0.000321388	0.000362396	9.187316895	-2.600097656	2.754211426	-0.02307892	0.016069413	0.018119813	-0.485839844	0.733886719	-0.50390625	887.12	-41.45757577	-67.79382542	-22.9579209	-55
35556	0	0.364357948	-0.102170944	0.108232498	0.999999046	-9.25064E-05	-2.86102E-05	0.000582695	9.108948708	-2.554273605	2.705812454	-0.004625321	-0.001430512	0.029134752	-0.483398438	0.731689453	-0.500976563	887.12	-41.57922656	-67.75942153	-22.83855201	-55
35557	0	0.364440918	-0.10168457	0.107543945	0.999999046	0.000114441	-0.000212669	0.000675201	9.111022949	-2.542114258	2.688598633	0.005722046	-0.01063347	0.033760074	-0.480957031	0.733886719	-0.504150391	887.08	-41.73085772	-67.73365175	-22.65627801	-55
35558	0	0.367160797	-0.10008049	0.111315727	0.999999046	0.000169754	-0.00021553	0.000670433	9.179019928	-2.502012253	2.782893181	0.008487702	-0.010776521	0.033521655	-0.481201172	0.733886719	-0.498291016	887.18	-41.87520139	-67.70832597	-22.48599236	-56
35559	0	0.365722656	-0.098937988	0.110778809	0.999999046	0.000789642	-0.000311852	0.000499725	9.143066406	-2.473449707	2.769470215	0.039482123	-0.015592578	0.024986271	-0.483398438	0.733886719	-0.500976563	887.16	-41.93052211	-67.70420313	-22.33260641	-55
35560	0	0.367099762	-0.095589638	0.111187935	0.999999046	-0.000512123	-0.000289917	0.000423431	9.177494049	-2.389740944	2.779698372	-0.025606158	-0.014495851	0.021171572	-0.481201172	0.733886719	-0.501220703	887.18	-42.1144176	-67.70410096	-22.19741753	-55
35561	0	0.365478516	-0.100158691	0.111633301	0.999999046	-3.05176E-05	-0.000174522	0.00012207	9.136962891	-2.503967285	2.79083252	-0.001525879	-0.00872612	0.006103516	-0.483642578	0.733886719	-0.498046875	887.06	-42.15879507	-67.71722916	-22.15949402	-55
35562	0	0.365310669	-0.096898079	0.113451958	0.999999046	0.000307083	-0.000192642	1.43051E-05	9.132766724	-2.422451973	2.836298943	0.015354157	-0.009632111	0.000715256	-0.483398438	0.733886719	-0.500976563	887.2	-42.1448279	-67.7401755	-22.13770881	-55
35563	0	0.367675781	-0.098022461	0.110412598	0.999999046	-5.34058E-05	8.86917E-05	-0.000213623	9.191894531	-2.450561523	2.760314941	-0.002670288	0.004434586	-0.010681152	-0.480957031	0.733886719	-0.504150391	887.18	-42.07160948	-67.75682688	-22.21788861	-55
35564	0	0.367575645	-0.098426819	0.112174988	0.999999046	0.000157356	1.90735E-05	-0.00044632	9.189391136	-2.460670471	2.804374695	0.007867813	0.000953674	-0.02231598	-0.480957031	0.733886719	-0.504150391	887.1	-41.93819205	-67.79720903	-22.33790846	-55
35565	0	0.361572266	-0.097290039	0.110290527	0.999999046	-4.19617E-05	4.76837E-06	-0.000301361	9.039306641	-2.432250977	2.757263184	-0.002098084	0.000238419	-0.015068054	-0.485839844	0.733886719	-0.50390625	887.12	-41.85990952	-67.82761995	-22.42502236	-55
35566	0	0.365416527	-0.101107597	0.108941078	0.999999046	2.47955E-05	8.01086E-05	-0.000343323	9.13541317	-2.527689934	2.723526955	0.001239777	0.004005432	-0.017166138	-0.481201172	0.733886719	-0.501220703	887.16	-41.7510257	-67.85472618	-22.54107481	-56
35567	0	0.366821289	-0.101867676	0.108642578	0.999999046	5.34058E-05	4.76837E-06	-0.000747681	9.170532227	-2.546691895	2.716064453	0.002670288	0.000238419	-0.037384037	-0.48828125	0.734130859	-0.503662109	887.18	-41.56772968	-67.91895573	-22.73229201	-55
35568	0	0.367583275	-0.102161407	0.109327316	0.999999046	5.24521E-05	6.10352E-05	-0.000180244	9.189581871	-2.554035187	2.733182907	0.002622604	0.003051758	-0.009012222	-0.485839844	0.731689453	-0.500732422	887.16	-41.49370549	-67.93502899	-22.8084987	-55
35569	0	0.367492676	-0.102355957	0.112915039	0.999999046	0.000118256	-0.000113487	0.000225067	9.187316895	-2.558898926	2.822875977	0.005912781	-0.005674362	0.011253357	-0.485839844	0.731689453	-0.503662109	887.24	-41.53070266	-67.93509249	-22.75129774	-55
35570	0	0.364177704	-0.099076271	0.11169529	0.999999046	6.48499E-05	-0.000144958	0.000476837	9.104442596	-2.476906776	2.79238224	0.003242493	-0.007247925	0.023841859	-0.485839844	0.731689453	-0.503662109	887.18	-41.63278617	-67.91857737	-22.6301972	-55
35571	0	0.364379883	-0.098449707	0.110412598	0.999999046	-4.19617E-05	-6.00815E-05	0.00044632	9.10949707	-2.461242676	2.760314941	-0.002098084	-0.003004074	0.02231598	-0.485839844	0.731689453	-0.500732422	887.16	-41.72445546	-67.89702382	-22.53858645	-55
35572	0	0.36656189	-0.100252151	0.112739563	0.999999046	0.000306129	5.14984E-05	0.000308037	9.164047241	-2.506303787	2.818489075	0.015306473	0.002574921	0.015401841	-0.480957031	0.731689453	-0.500976563	887.02	-41.72588523	-67.87632992	-22.50039584	-55
35573	0	0.368225098	-0.098083496	0.112548828	0.999999046	0.000263214	0.000103951	0.000434875	9.205627441	-2.452087402	2.813720703	0.013160706	0.005197525	0.021743775	-0.483398438	0.731689453	-0.500976563	887.16	-41.74862975	-67.84147235	-22.44615501	-55
35574	0	0.366896629	-0.097185135	0.110294342	0.999999046	-0.00030899	0.000263214	0.000700951	9.172415733	-2.429628372	2.757358551	-0.015449526	0.013160707	0.035047535	-0.483642578	0.733886719	-0.498046875	887.1	-41.86235155	-67.77275837	-22.3711774	-55
35575	0	0.364868164	-0.098754883	0.110229492	0.999999046	0.000102997	9.25064E-05	0.000656128	9.121704102	-2.46887207	2.755737305	0.005149842	0.004625321	0.032806399	-0.481201172	0.733886719	-0.501220703	887.1	-41.95081093	-67.72201015	-22.26576206	-55
35576	0	0.363868713	-0.095426559	0.108545303	0.999999046	0.000344276	7.05719E-05	0.000259399	9.096717834	-2.385663986	2.713632584	0.017213822	0.003528595	0.012969971	-0.481201172	0.733886719	-0.501220703	887.16	-41.93264386	-67.70368408	-22.24688795	-55
35577	0	0.369628906	-0.096435547	0.109069824	0.999999046	-0.00025177	0.000184059	-4.95911E-05	9.240722656	-2.410888672	2.726745605	-0.012588501	0.009202957	-0.002479553	-0.483398438	0.731689453	-0.500976563	887.18	-41.89709101	-67.69959149	-22.31893853	-55
35578	0	0.364044189	-0.097431183	0.108909607	1	-2.95639E-05	-4.86374E-05	-4.673E-05	9.101104736	-2.435779572	2.722740173	-0.001478195	-0.00243187	-0.002336502	-0.481201172	0.733886719	-0.501220703	887.08	-41.87995001	-67.71523388	-22.34435925	-55
35579	0	0.364624023	-0.096069336	0.108093262	0.999999046	-3.8147E-05	-0.000109673	7.24792E-05	9.115600586	-2.401733398	2.702331543	-0.001907349	-0.005483627	0.003623962	-0.480957031	0.733886719	-0.507080078	887.2	-41.89981142	-67.72714976	-22.31922716	-55
35580	0	0.366830826	-0.09832859	0.109225273	0.999999046	-1.62125E-05	-0.000228882	-0.000489235	9.170770645	-2.45821476	2.730631828	-0.000810623	-0.011444092	-0.024461747	-0.480957031	0.733886719	-0.504150391	887.12	-41.82216157	-67.79230947	-22.40214229	-55
35581	0	0.365112305	-0.098999023	0.108947754	0.999999046	-8.01086E-05	-0.000498772	-0.000789642	9.127807617	-2.474975586	2.723693848	-0.004005433	-0.024938587	-0.039482122	-0.483398438	0.731689453	-0.500976563	887.18	-41.7388581	-67.90346351	-22.50269172	-55
35582	0	0.371606827	-0.100078583	0.111245155	0.999999046	1.14441E-05	-0.000457764	-0.000489235	9.29017067	-2.501964569	2.781128883	0.000572205	-0.022888185	-0.024461748	-0.485839844	0.731689453	-0.500732422	887.2	-41.69998901	-67.98817199	-22.54441726	-55
35583	0	0.365356445	-0.098632813	0.11315918	0.999999046	0.000152588	-0.000441551	-0.000293732	9.133911133	-2.465820313	2.828979492	0.007629395	-0.022077562	-0.014686585	-0.488037109	0.729492188	-0.503417969	887.1	-41.68275804	-68.05642395	-22.5384881	-55
35584	0	0.364841461	-0.097835541	0.11158371	0.999999046	-0.000287056	-0.000116348	-0.000453949	9.12103653	-2.445888519	2.789592743	-0.014352799	-0.005817414	-0.02269745	-0.485595703	0.729492188	-0.500488281	887.12	-41.61988531	-68.10892408	-22.63986021	-55
35585	0	0.366027832	-0.099182129	0.110351563	0.999999046	-0.000587463	0.00023365	-0.000736237	9.150695801	-2.479553223	2.758789063	-0.029373174	0.011682512	-0.036811834	-0.48828125	0.729492188	-0.497558594	887.18	-41.46438872	-68.15268359	-22.88319816	-56
35586	0	0.365210533	-0.101704597	0.110218048	0.999999046	-0.000415802	7.82013E-05	-0.000374794	9.130263329	-2.542614937	2.755451202	-0.020790101	0.003910065	-0.018739701	-0.488037109	0.729492188	-0.500488281	887.18	-41.39587854	-68.18201272	-23.00475626	-56
35587	0	0.366516113	-0.10144043	0.109008789	0.999999046	-0.000110626	-1.81198E-05	-0.00019455	9.162902832	-2.536010742	2.725219727	-0.005531311	-0.000905991	-0.009727478	-0.490722656	0.729736328	-0.494384766	887.1	-41.34959295	-68.20579715	-23.07712485	-56
35588	0	0.366680145	-0.09973526	0.108301163	0.999999046	-8.29697E-05	-9.34601E-05	-0.000145912	9.167003632	-2.4933815	2.707529068	-0.004148483	-0.004673004	-0.007295609	-0.490722656	0.731933594	-0.500488281	887.16	-41.32511567	-68.23231099	-23.11260472	-56
35589	0	0.365966797	-0.098876953	0.107849121	0.999999046	-0.000282288	-0.000144005	1.52588E-05	9.149169922	-2.471923828	2.696228027	-0.01411438	-0.007200241	0.000762939	-0.490722656	0.731933594	-0.494628906	887.12	-41.36807328	-68.25094399	-23.1098642	-56
35590	0	0.36843586	-0.097607613	0.108663559	0.999999046	-0.000511169	4.76837E-05	9.53674E-05	9.210896492	-2.440190315	2.716588974	-0.025558473	0.002384186	0.004768372	-0.490722656	0.731933594	-0.491699219	887.16	-41.41822981	-68.24704663	-23.13114479	-56
35591	0	0.365478516	-0.098144531	0.110046387	0.999999046	-0.000274658	-0.000102043	2.67029E-05	9.136962891	-2.453613281	2.751159668	-0.01373291	-0.005102158	0.001335144	-0.48828125	0.729736328	-0.494628906	887.16	-41.45493531	-68.26112048	-23.12774559	-56
35592	0	0.364030838	-0.094988823	0.108514786	0.999999046	-0.000235558	-8.96454E-05	0.000227928	9.10077095	-2.374720573	2.712869644	-0.011777878	-0.004482269	0.011396408	-0.490722656	0.731933594	-0.494628906	887.16	-41.52793768	-68.2588748	-23.08209156	-56
35593	0	0.365905762	-0.091918945	0.11126709	0.999998093	-0.001643181	5.34058E-05	0.000240326	9.147644043	-2.297973633	2.781677246	-0.08215908	0.002670289	0.012016302	-0.48828125	0.731933594	-0.497558594	887.12	-41.73677266	-68.24344747	-23.05118831	-55
35594	0	0.365847588	-0.096791267	0.11007309	0.999993324	-0.003517151	0.000205994	3.05176E-05	9.14618969	-2.419781685	2.75182724	-0.175857908	0.010299704	0.001525882	-0.490722656	0.734130859	-0.494873047	887.18	-42.08582386	-68.230989	-23.09593963	-56
35595	0	0.364990234	-0.106506348	0.107543945	0.999997139	-0.002166748	0.000161171	-7.24792E-05	9.124755859	-2.662658691	2.688598633	-0.108337488	0.008058554	-0.003623965	-0.491210938	0.738769531	-0.483398438	887.16	-42.26759176	-68.23009852	-23.17339701	-55
35596	0	0.367228508	-0.101915359	0.107525826	0.999999046	-0.000542641	-0.000108719	4.86374E-05	9.1807127	-2.547883987	2.688145638	-0.027132036	-0.005435944	0.00243187	-0.491210938	0.740966797	-0.486572266	887.18	-42.34138385	-68.24271992	-23.16035956	-56
35597	0	0.364624023	-0.101501465	0.105529785	0.999999046	-0.000587463	-0.000227928	0.000305176	9.115600586	-2.537536621	2.638244629	-0.029373171	-0.011396409	0.01525879	-0.489013672	0.741210938	-0.486816406	887.16	-42.49826684	-68.2455364	-23.05971319	-56
35598	0	0.366380692	-0.101851463	0.10707283	0.999999046	4.57764E-05	-0.000356674	0.000529289	9.159517288	-2.546286583	2.676820755	0.002288819	-0.017833711	0.026464464	-0.489013672	0.739013672	-0.483642578	887.12	-42.65524462	-68.24166302	-22.88412844	-55
35599	0	0.366821289	-0.100524902	0.10736084	0.999999046	0.000225067	-0.000315666	0.000396729	9.170532227	-2.513122559	2.684020996	0.011253358	-0.015783311	0.019836427	-0.489013672	0.741210938	-0.480957031	887.12	-42.75572096	-68.24445547	-22.75447671	-56
35600	0	0.367297173	-0.101378441	0.108088493	0.999999046	0.000487328	-0.000413895	0.000449181	9.182429314	-2.534461021	2.702212334	0.024366381	-0.020694735	0.022459032	-0.489013672	0.741210938	-0.480957031	887.18	-42.85641488	-68.25124941	-22.59282768	-55
35601	0	0.368041992	-0.098754883	0.106994629	0.999999046	0.000926971	-0.000441551	0.000667572	9.201049805	-2.46887207	2.674865723	0.046348583	-0.022077566	0.033378609	-0.489013672	0.739013672	-0.483642578	887.16	-42.95791043	-68.24326624	-22.37088281	-55
35602	0	0.367033958	-0.095685959	0.108922005	0.999999046	0.000457764	-0.000213623	0.000636101	9.175848961	-2.392148972	2.723050117	0.022888186	-0.010681154	0.031805042	-0.491455078	0.741210938	-0.480957031	887.18	-43.06104545	-68.21856264	-22.21382818	-56
35603	0	0.369812012	-0.097412109	0.107788086	0.999999046	-0.000102997	-0.000193596	0.000164032	9.245300293	-2.435302734	2.694702148	-0.005149841	-0.009679794	0.008201599	-0.489013672	0.741210938	-0.483886719	887.18	-43.12504056	-68.22915855	-22.16060797	-55
35604	0	0.36884594	-0.097006798	0.109699249	0.999999046	0.000243187	-0.000108719	-2.38419E-05	9.221148491	-2.425169945	2.742481232	0.012159348	-0.005435944	-0.001192093	-0.489013672	0.739013672	-0.477783203	887.16	-43.09270846	-68.2473937	-22.17854581	-55
35605	0	0.368041992	-0.091430664	0.108398438	0.999999046	-0.00113678	-4.86374E-05	0.0001297	9.201049805	-2.285766602	2.709960938	-0.056839002	-0.00243187	0.006484987	-0.489013672	0.739013672	-0.483642578	887.12	-43.23782408	-68.24880553	-22.15959734	-55
35606	0	0.367477417	-0.099705696	0.107280731	0.999997139	-0.002098083	0.000339508	9.15527E-05	9.186935425	-2.492642403	2.68201828	-0.104904254	0.016975416	0.00457764	-0.489257813	0.741210938	-0.478027344	887.06	-43.40852193	-68.22083792	-22.23754339	-55
35607	0	0.367370605	-0.099304199	0.10723877	0.999999046	-0.000652313	0.000329018	-0.000167847	9.184265137	-2.48260498	2.680969238	-0.032615665	0.016450883	-0.008392335	-0.489501953	0.745605469	-0.475585938	887.16	-43.36127401	-68.21420706	-22.37897884	-55
35608	0	0.366723061	-0.094190598	0.104182243	0.999997139	-0.002287865	0.000398636	-0.000271797	9.168076515	-2.354764938	2.604556084	-0.114393338	0.019931811	-0.013589871	-0.489257813	0.745605469	-0.481445313	887.2	-43.46563891	-68.21026209	-22.5397245	-55
35609	0	0.368041992	-0.100524902	0.108520508	0.999985695	-0.005260468	0.000462532	-3.05176E-05	9.201049805	-2.513122559	2.713012695	-0.263024599	0.02312671	-0.001525886	-0.487060547	0.747802734	-0.475830078	887.2	-43.94775493	-68.18218845	-22.65411646	-55
35610	0	0.36605835	-0.109918594	0.105509758	0.999992371	-0.003750801	0.000342369	1.90735E-05	9.15145874	-2.747964859	2.63774395	-0.187540498	0.017118494	0.000953677	-0.487548828	0.752441406	-0.467529297	887.18	-44.2914075	-68.16011359	-22.73888761	-55
35611	0	0.365478516	-0.107543945	0.102722168	0.999999046	0.000125885	0.000287056	-5.34058E-05	9.136962891	-2.688598633	2.568054199	0.006294251	0.014352799	-0.002670288	-0.487792969	0.754882813	-0.458740234	887.18	-44.1876371	-68.14833703	-22.84787174	-55
35612	0	0.367199898	-0.104061127	0.102957726	0.999999046	0.000554085	0.000133514	-8.39233E-05	9.179997444	-2.601528168	2.573943138	0.02770424	0.006675721	-0.004196167	-0.487792969	0.754882813	-0.458740234	887.16	-44.05949246	-68.15157821	-22.93244765	-56
35613	0	0.368896484	-0.105834961	0.104370117	0.999999046	0.000984192	-0.000117302	3.05176E-05	9.222412109	-2.645874023	2.60925293	0.049209603	-0.005865098	0.001525879	-0.489746094	0.752441406	-0.467285156	887.18	-43.9557713	-68.16627433	-22.9225978	-56
35614	0	0.366717339	-0.101439476	0.105398178	0.999998093	0.001332283	-0.000311852	0.000255585	9.167933464	-2.5359869	2.634954453	0.066614173	-0.01559258	0.01277924	-0.487548828	0.752441406	-0.467529297	887.12	-43.89700792	-68.17915266	-22.82442919	-55
35615	0	0.366394043	-0.098693848	0.107666016	0.999999046	-1.14441E-05	-0.000308037	0.000297546	9.159851074	-2.467346191	2.691650391	-0.000572205	-0.015401841	0.01487732	-0.489746094	0.750244141	-0.464111328	887.18	-43.99961554	-68.18838298	-22.7226446	-55
35616	0	0.367071152	-0.103004456	0.109145164	0.999999046	7.72476E-05	-5.14984E-05	0.000285149	9.176778793	-2.575111389	2.728629112	0.003862381	-0.002574921	0.014257431	-0.489746094	0.752441406	-0.470214844	887.12	-44.0382033	-68.17724726	-22.66890413	-56
35617	0	0.3671875	-0.101867676	0.110046387	0.999999046	0.000644684	3.52859E-05	6.10352E-05	9.1796875	-2.546691895	2.751159668	0.032234194	0.001764298	0.003051758	-0.489746094	0.752441406	-0.467285156	887.18	-43.94787609	-68.17665691	-22.69214947	-55
35618	0	0.365580559	-0.099942207	0.108063698	0.999999046	0.000486374	0.000118256	0.000197411	9.139513969	-2.498555183	2.701592445	0.024318696	0.005912781	0.00987053	-0.489746094	0.748046875	-0.466796875	887.12	-43.88687926	-68.15832453	-22.70212926	-56
35619	0	0.364746094	-0.10168457	0.106445313	0.999999046	0.000934601	0.000348091	0.000339508	9.118652344	-2.542114258	2.661132813	0.04673005	0.017404559	0.016975406	-0.487304688	0.750244141	-0.473144531	887.2	-43.75834269	-68.10965485	-22.72256652	-55
35620	0	0.366067886	-0.101369858	0.106034279	0.999999046	0.000584602	0.000589371	2.86102E-06	9.151697159	-2.534246445	2.650856972	0.029230121	0.02946854	0.000143051	-0.487304688	0.750244141	-0.467285156	887.16	-43.55343495	-68.06759971	-22.88346558	-56
35621	0	0.36517334	-0.103149414	0.106140137	0.999999046	0.000713348	0.000496864	-9.91821E-05	9.129333496	-2.578735352	2.653503418	0.035667424	0.024843219	-0.004959107	-0.484863281	0.75	-0.473144531	887.12	-43.33162103	-68.04101959	-23.03801139	-55
35622	0	0.368142128	-0.106040955	0.104641914	0.999999046	0.001134872	0.000221252	1.52588E-05	9.2035532	-2.651023865	2.616047859	0.056743634	0.011062625	0.00076294	-0.487060547	0.747802734	-0.472900391	887.1	-43.13990251	-68.02823359	-23.11197496	-56
35623	0	0.366638184	-0.103881836	0.104309082	0.999998093	0.001431465	-4.19617E-05	0.000488281	9.16595459	-2.597045898	2.607727051	0.071573285	-0.002098084	0.024414072	-0.484619141	0.747802734	-0.475830078	887.12	-43.06396834	-68.0004032	-23.02305341	-55
35624	0	0.363433838	-0.101739883	0.105179787	0.999998093	0.001447678	-8.67844E-05	0.000892639	9.085845947	-2.543497086	2.629494667	0.072383916	-0.00433922	0.04463198	-0.489501953	0.745605469	-0.475585938	887.1	-43.07864256	-67.94471926	-22.83909343	-55
35625	0	0.36517334	-0.100830078	0.105712891	0.999998093	0.001690865	-0.000183105	0.000915527	9.129333496	-2.520751953	2.642822266	0.084543281	-0.009155279	0.045776396	-0.487060547	0.745605469	-0.475585938	887.06	-43.08838708	-67.89537143	-22.63492303	-55
35626	0	0.3676548	-0.099374771	0.106401443	0.999998093	0.001620293	-0.000184059	0.000617981	9.19137001	-2.484369278	2.660036087	0.081014674	-0.009202962	0.030899064	-0.484375	0.743164063	-0.484375	887.18	-43.04468373	-67.86957387	-22.4821851	-55
35627	0	0.366760254	-0.100830078	0.108093262	0.999997139	0.001846313	-0.000525475	0.000461578	9.169006348	-2.520751953	2.702331543	0.092315734	-0.026273744	0.023078933	-0.484375	0.743164063	-0.487304688	887.12	-43.00844389	-67.88469402	-22.29344216	-55
35628	0	0.367333412	-0.098324776	0.109229088	0.999997139	0.002213478	-0.000379562	0.000460625	9.183335304	-2.458119392	2.730727196	0.110674001	-0.018978136	0.023031255	-0.484130859	0.740966797	-0.487060547	887.08	-42.90150691	-67.88783322	-22.14116406	-55
35629	0	0.366149902	-0.096191406	0.110290527	0.999999046	0.00112915	9.53674E-07	0.000255585	9.153747559	-2.404785156	2.757263184	0.056457532	4.76837E-05	0.012779239	-0.483886719	0.738769531	-0.492675781	887.16	-42.80275306	-67.87518915	-22.10516753	-55
35630	0	0.367014885	-0.098204613	0.110939026	0.999999046	0.000152588	0.000183105	0.000250816	9.175372124	-2.455115318	2.773475647	0.007629395	0.009155274	0.012540818	-0.481689453	0.738525391	-0.492919922	887.18	-42.77958407	-67.84764422	-22.10788406	-55
35631	0	0.368713379	-0.101989746	0.112670898	0.999999046	0.000297546	0.000325203	8.39233E-05	9.217834473	-2.549743652	2.816772461	0.01487732	0.016260148	0.004196167	-0.484130859	0.740966797	-0.492919922	887.1	-42.67803404	-67.8210062	-22.1822759	-55
35632	0	0.361420631	-0.100824356	0.112659454	0.999999046	0.000742912	0.000324249	0.000324249	9.035515785	-2.520608902	2.816486359	0.037145619	0.016212465	0.016212465	-0.481689453	0.740722656	-0.49609375	887.12	-42.57520065	-67.77555114	-22.19922664	-55
35633	0	0.364929199	-0.099853516	0.110595703	0.999999046	0.000518799	0.000596046	0.000492096	9.12322998	-2.496337891	2.764892578	0.025939945	0.029802327	0.024604801	-0.481689453	0.738525391	-0.492919922	887.12	-42.4813175	-67.69412373	-22.2412182	-55
35634	0	0.366409302	-0.100528717	0.109365463	0.999999046	0.000125885	0.00075531	0.000407219	9.160232544	-2.513217926	2.734136581	0.006294251	0.037765508	0.020360949	-0.481445313	0.738525391	-0.498779297	887.18	-42.38556477	-67.60583568	-22.32453938	-55
35635	0	0.365661621	-0.100646973	0.107788086	0.999999046	-0.000362396	0.000641823	0.000370026	9.141540527	-2.516174316	2.694702148	-0.018119814	0.032091144	0.018501284	-0.481445313	0.738525391	-0.498779297	887.12	-42.36015059	-67.53013	-22.3923493	-55
35636	0	0.367767334	-0.10252285	0.107452393	0.999999046	-6.96182E-05	0.000436783	0.000499725	9.19418335	-2.563071251	2.686309814	-0.003480912	0.021839143	0.024986269	-0.479248047	0.740722656	-0.49609375	887.12	-42.36661733	-67.46192173	-22.39659949	-55
35637	0	0.364379883	-0.100463867	0.109558105	0.999999046	0.0001297	6.19888E-05	0.000434875	9.10949707	-2.51159668	2.738952637	0.006484986	0.003099442	0.021743775	-0.479003906	0.740722656	-0.501953125	887.08	-42.40671325	-67.43054546	-22.32887465	-55
35638	0	0.361777306	-0.09953022	0.11017704	0.999999046	-0.000284195	-7.62939E-05	0.000319481	9.04443264	-2.488255501	2.754426003	-0.014209748	-0.003814697	0.015974045	-0.479248047	0.740722656	-0.49609375	887.06	-42.49622227	-67.41983044	-22.2690211	-55
35639	0	0.364990234	-0.101135254	0.111206055	0.999999046	-0.000221252	-0.000113487	8.39233E-05	9.124755859	-2.528381348	2.780151367	-0.011062622	-0.005674362	0.004196167	-0.476806641	0.742919922	-0.499267578	887.16	-42.53746415	-67.43051774	-22.24783473	-55
35640	0	0.365119934	-0.101428986	0.111260414	0.999999046	-0.000401497	-0.000110626	-0.000160217	9.127998352	-2.53572464	2.781510353	-0.020074845	-0.005531311	-0.008010865	-0.479248047	0.740722656	-0.499023438	887.18	-42.5491356	-67.45990857	-22.27853609	-56
35641	0	0.365966797	-0.101989746	0.110046387	0.999999046	-0.00025177	-0.000266075	-4.95911E-05	9.149169922	-2.549743652	2.751159668	-0.012588501	-0.013303757	-0.002479553	-0.479248047	0.742919922	-0.493408203	887.2	-42.5952742	-67.49391201	-22.26485661	-56
35642	0	0.364326477	-0.102498055	0.111081123	0.999999046	-0.000213623	-0.000394821	1.43051E-05	9.108161926	-2.562451363	2.777028084	-0.010681153	-0.019741059	0.000715256	-0.479248047	0.740722656	-0.493164063	887.08	-42.67432449	-67.53376691	-22.20743006	-55
35643	0	0.365112305	-0.102233887	0.109802246	0.999999046	-0.000106812	-0.00039196	-0.00019455	9.127807617	-2.555847168	2.745056152	-0.005340576	-0.019598008	-0.009727478	-0.479248047	0.740722656	-0.493164063	887.18	-42.69827864	-67.58960636	-22.19525228	-55
35644	0	0.364080429	-0.101750374	0.112240791	0.999999046	-0.000250816	-0.000318527	-9.91821E-05	9.102010727	-2.543759346	2.806019783	-0.012540818	-0.015926362	-0.004959107	-0.479248047	0.740722656	-0.493164063	887.18	-42.74426645	-67.63175717	-22.17550499	-56
35645	0	0.36932373	-0.10345459	0.112426758	0.999999046	-0.000530243	-0.000235558	1.90735E-05	9.233093262	-2.586364746	2.810668945	-0.026512147	-0.011777878	0.000953674	-0.479248047	0.738525391	-0.489990234	887.12	-42.83082888	-67.65765735	-22.14797749	-55
35646	0	0.365344048	-0.103711128	0.113120079	0.999999046	-0.000253677	-5.72205E-05	-0.000183105	9.133601189	-2.592778206	2.828001976	-0.012683869	-0.002861023	-0.009155274	-0.481689453	0.743164063	-0.493164063	887.12	-42.81044169	-67.68413182	-22.19999564	-56
35647	0	0.362854004	-0.100646973	0.111083984	0.999999046	-0.000335693	-8.67844E-05	0.000171661	9.071350098	-2.516174316	2.777099609	-0.016784668	-0.004339218	0.008583069	-0.481689453	0.740722656	-0.493164063	887.18	-42.87744202	-67.68539124	-22.16384464	-56
35648	0	0.366621971	-0.102313995	0.112537384	0.999999046	-0.000132561	5.14984E-05	0.000125885	9.165549278	-2.557849884	2.813434601	-0.006628037	0.002574921	0.006294251	-0.479248047	0.740722656	-0.493164063	887.16	-42.88531113	-67.67850957	-22.1653791	-55
35649	0	0.365478516	-0.101074219	0.112243652	0.999999046	-0.000293732	0.000199318	-0.000202179	9.136962891	-2.526855469	2.806091309	-0.014686585	0.009965897	-0.010108948	-0.481933594	0.743164063	-0.490234375	887.18	-42.81614478	-67.6847153	-22.27846529	-56
35650	0	0.366147041	-0.102822304	0.110313416	0.999999046	-0.000185013	0.000112534	-6.96182E-05	9.153676033	-2.570557594	2.757835388	-0.009250641	0.005626679	-0.003480911	-0.481689453	0.740966797	-0.490234375	887.16	-42.77816868	-67.68781978	-22.34176765	-56
35651	0	0.363891602	-0.101928711	0.110839844	0.999999046	0.000198364	0.000107765	-7.24792E-05	9.097290039	-2.548217773	2.770996094	0.009918213	0.00538826	-0.003623962	-0.481689453	0.740722656	-0.493164063	887.02	-42.69650281	-67.69145058	-22.40003873	-56
35652	0	0.362783432	-0.101772308	0.109797478	0.999999046	2.00272E-05	-5.14984E-05	-0.000282288	9.0695858	-2.544307709	2.744936943	0.001001358	-0.002574921	-0.01411438	-0.481933594	0.743164063	-0.487304688	887.18	-42.62229718	-67.72471186	-22.48621337	-56
35653	0	0.363952637	-0.102416992	0.108276367	0.999999046	-1.52588E-05	9.25064E-05	-0.000205994	9.098815918	-2.560424805	2.70690918	-0.000762939	0.00462532	-0.010299683	-0.481689453	0.740966797	-0.490234375	887.16	-42.54066449	-67.73985868	-22.57712241	-56
35654	0	0.364583969	-0.101904869	0.109560013	0.999999046	-0.000299454	5.53131E-05	-6.19888E-05	9.114599228	-2.547621727	2.73900032	-0.014972687	0.002765656	-0.003099442	-0.484130859	0.740966797	-0.492919922	887.08	-42.52840542	-67.74693405	-22.62294485	-56
35655	0	0.365539551	-0.103820801	0.107421875	0.999999046	-0.000476837	-2.57492E-05	7.62939E-05	9.13848877	-2.59552002	2.685546875	-0.023841859	-0.00128746	0.003814697	-0.481689453	0.740722656	-0.493164063	887.06	-42.58086692	-67.75014577	-22.61767158	-56
35656	0	0.366810799	-0.10239315	0.107670784	0.999999046	-0.000239372	-5.72205E-06	0.000221252	9.170269966	-2.559828758	2.6917696	-0.011968613	-0.000286102	0.011062622	-0.484130859	0.743164063	-0.490234375	887.18	-42.63252714	-67.74048982	-22.59179463	-56
35657	0	0.365478516	-0.10168457	0.107543945	0.999999046	-0.000442505	-0.000266075	0.000221252	9.136962891	-2.542114258	2.688598633	-0.022125245	-0.013303757	0.011062623	-0.481933594	0.743164063	-0.484375	887.08	-42.75710741	-67.75281561	-22.52052946	-56
35658	0	0.365368843	-0.101454735	0.108967781	0.999999046	-0.000322342	-0.000322342	0.000239372	9.134221077	-2.53636837	2.724194527	-0.016117097	-0.016117097	0.011968613	-0.481933594	0.743164063	-0.490234375	887.12	-42.8825094	-67.76841104	-22.42012886	-57
35659	0	0.368103027	-0.099365234	0.110717773	0.999999046	-0.000453949	-0.000281334	8.39233E-05	9.202575684	-2.484130859	2.767944336	-0.02269745	-0.014066697	0.004196167	-0.484130859	0.743164063	-0.490234375	887.18	-42.98301326	-67.79269967	-22.36133075	-56
35660	0	0.366989136	-0.101055145	0.11243248	0.999999046	-0.000470161	-0.000331879	-0.00017643	9.174728394	-2.526378632	2.810811996	-0.023508073	-0.016593934	-0.008821488	-0.484375	0.745605469	-0.481689453	887.12	-43.04133643	-67.84147614	-22.36656628	-56
35661	0	0.364074707	-0.099304199	0.111816406	0.999999046	0.000106812	-0.000422478	-0.000190735	9.101867676	-2.48260498	2.795410156	0.005340576	-0.021123887	-0.009536744	-0.486816406	0.745605469	-0.484375	887.06	-43.04757447	-67.89888888	-22.35157724	-56
35662	0	0.366158485	-0.09700489	0.111282349	0.999999046	-8.96454E-05	-0.00015831	-0.000370026	9.153962135	-2.425122261	2.782058716	-0.004482269	-0.007915497	-0.018501282	-0.484375	0.743164063	-0.484375	887.12	-42.98765598	-67.94823202	-22.42854412	-57
35663	0	0.366638184	-0.100952148	0.111206055	0.999999046	-0.000213623	-1.04904E-05	-0.000518799	9.16595459	-2.523803711	2.780151367	-0.010681153	-0.000524521	-0.025939943	-0.484130859	0.743164063	-0.490234375	887.12	-42.88196896	-67.9966529	-22.55829181	-57
35664	0	0.365951538	-0.101230621	0.110543251	0.999999046	-0.000128746	-6.48499E-05	-0.000454903	9.148788452	-2.530765533	2.763581276	-0.006437302	-0.003242493	-0.022745133	-0.486816406	0.743408203	-0.484130859	887.02	-42.78970487	-68.04446869	-22.67561016	-57
35665	0	0.365905762	-0.102416992	0.10925293	0.999999046	-4.57764E-05	-2.19345E-05	-0.00037384	9.147644043	-2.560424805	2.731323242	-0.002288818	-0.001096725	-0.018692017	-0.486572266	0.738769531	-0.483886719	887.12	-42.69630891	-68.0821846	-22.77987118	-56
35666	0	0.364338875	-0.102643013	0.109409332	0.999999046	0.000160217	-0.000190735	-0.000248909	9.10847187	-2.566075325	2.735233307	0.008010864	-0.009536743	-0.01244545	-0.486572266	0.743408203	-0.487060547	887.08	-42.63798027	-68.12420341	-22.81959561	-57
35667	0	0.36517334	-0.102600098	0.108825684	0.999999046	4.19617E-05	-0.000105858	-0.000125885	9.129333496	-2.565002441	2.72064209	0.002098084	-0.005292892	-0.006294251	-0.491455078	0.741210938	-0.486816406	887.16	-42.60274157	-68.14936877	-22.84908819	-57
35668	0	0.366564751	-0.102376938	0.109365463	0.999999046	-0.000212669	0.000116348	0.000137329	9.164118767	-2.559423447	2.734136581	-0.010633469	0.005817413	0.006866455	-0.489013672	0.741210938	-0.480957031	887.08	-42.60922105	-68.13524544	-22.87507305	-57
35669	0	0.366638184	-0.102355957	0.108642578	0.999999046	-4.19617E-05	-6.67572E-06	0.000240326	9.16595459	-2.558898926	2.716064453	-0.002098084	-0.000333786	0.012016297	-0.489013672	0.741210938	-0.483886719	887.12	-42.64180848	-68.12341319	-22.84590093	-57
35670	0	0.366285324	-0.100955009	0.106736183	0.999999046	0.000188828	-0.000116348	0.000365257	9.157133102	-2.523875237	2.668404579	0.009441376	-0.005817414	0.018262864	-0.489013672	0.741210938	-0.480957031	887.12	-42.69559329	-68.11113137	-22.77135807	-57
35671	0	0.365905762	-0.100219727	0.108459473	0.999999046	-3.43323E-05	-4.86374E-05	0.000453949	9.147644043	-2.505493164	2.711486816	-0.001716614	-0.00243187	0.02269745	-0.489257813	0.743408203	-0.484130859	887.06	-42.7803232	-68.08619759	-22.68653982	-57
35672	0	0.366558075	-0.099217415	0.107805252	0.999999046	0.000105858	-0.000116348	0.00045681	9.163951874	-2.480435371	2.695131302	0.005292893	-0.005817414	0.022840501	-0.489013672	0.741210938	-0.483886719	887.08	-42.86245016	-68.06674228	-22.58544328	-57
35673	0	0.366516113	-0.098510742	0.108764648	0.999999046	0.000152588	-4.1008E-05	0.000312805	9.162902832	-2.462768555	2.719116211	0.007629395	-0.0020504	0.015640259	-0.486572266	0.740966797	-0.484130859	887.06	-42.89424535	-68.05220235	-22.53171961	-56
35674	0	0.367196083	-0.097365379	0.107786179	0.999999046	0.000196457	-0.000143051	3.8147E-05	9.179902077	-2.434134483	2.694654465	0.009822846	-0.007152557	0.001907349	-0.489257813	0.743408203	-0.481201172	887.18	-42.88324143	-68.0677846	-22.52789968	-57
35675	0	0.368164063	-0.099853516	0.108581543	0.999999046	4.19617E-05	-5.24521E-05	-0.000198364	9.204101563	-2.496337891	2.714538574	0.002098084	-0.002622604	-0.009918213	-0.489013672	0.739013672	-0.483642578	887.08	-42.82290907	-68.09422878	-22.58741417	-56
35676	0	0.365528107	-0.09811306	0.108672142	0.999999046	0.00067234	-0.000343323	-0.000264168	9.138202667	-2.4528265	2.716803551	0.033617023	-0.01716614	-0.013208391	-0.489013672	0.741210938	-0.480957031	887.08	-42.73247437	-68.15026055	-22.61067369	-56
35677	0	0.367614746	-0.097290039	0.108276367	0.999999046	0.000347137	-0.00014782	-0.000133514	9.190368652	-2.432250977	2.70690918	0.017356873	-0.007390976	-0.00667572	-0.491455078	0.741210938	-0.483886719	887.12	-42.66836549	-68.1797558	-22.64171484	-56
35678	0	0.366513252	-0.098093987	0.108113289	0.999999046	-0.000261307	-9.53674E-06	-0.000167847	9.162831306	-2.452349663	2.702832222	-0.013065338	-0.000476837	-0.008392334	-0.489013672	0.741210938	-0.486816406	887.08	-42.63969127	-68.20028973	-22.70232453	-56
35679	0	0.366455078	-0.100341797	0.106933594	0.999999046	-0.000167847	-5.62668E-05	-0.000183105	9.161376953	-2.508544922	2.673339844	-0.008392334	-0.002813339	-0.009155274	-0.489013672	0.741210938	-0.486816406	887.12	-42.60627628	-68.22593115	-22.75597243	-57
35680	0	0.368213654	-0.102196693	0.107344627	0.999999046	-3.33786E-05	-0.000114441	-0.000325203	9.205341339	-2.554917336	2.683615685	-0.00166893	-0.005722046	-0.016260147	-0.489013672	0.739013672	-0.483642578	887.06	-42.53892238	-68.26742603	-22.83351015	-57
35681	0	0.366088867	-0.102600098	0.110107422	0.999999046	0.000328064	-0.000300407	-0.000389099	9.15222168	-2.565002441	2.752685547	0.016403199	-0.015020371	-0.019454957	-0.493896484	0.741210938	-0.486572266	887.12	-42.45259336	-68.32932578	-22.88565536	-57
35682	0	0.365257263	-0.101145744	0.109708786	0.999999046	0.000404358	-0.000240326	4.1008E-05	9.13143158	-2.528643608	2.74271965	0.020217896	-0.012016297	0.0020504	-0.493652344	0.736816406	-0.483398438	887.12	-42.43724017	-68.35267852	-22.85489043	-57
35683	0	0.366210938	-0.101989746	0.110412598	0.999999046	0.000370026	6.58035E-05	0.000171661	9.155273438	-2.549743652	2.760314941	0.018501282	0.003290176	0.008583069	-0.493652344	0.739013672	-0.486328125	887.12	-42.3941513	-68.3398176	-22.85614478	-56
35684	0	0.367015839	-0.101669312	0.109008789	0.999999046	0.000422478	4.19617E-05	0.00031662	9.175395966	-2.541732788	2.725219727	0.021123887	0.002098084	0.015830994	-0.491210938	0.736816406	-0.486328125	887.18	-42.38080078	-68.31763776	-22.81769382	-57
35685	0	0.367675781	-0.101196289	0.108276367	0.999999046	0.000450134	0.000187874	0.00062561	9.191894531	-2.529907227	2.70690918	0.022506716	0.009393693	0.031280521	-0.493652344	0.736816406	-0.48046875	887.12	-42.40181355	-68.25916432	-22.752718	-55
35686	0	0.367388725	-0.098994255	0.109601021	0.999999046	0.000400543	0.000320435	0.000781059	9.184718132	-2.474856377	2.74002552	0.020027164	0.016021731	0.039052969	-0.489013672	0.741210938	-0.486816406	887.06	-42.43533952	-68.17741499	-22.67254673	-56
35687	0	0.36529541	-0.097167969	0.108581543	0.999999046	0.000255585	0.000317574	0.000862122	9.132385254	-2.429199219	2.714538574	0.012779238	0.01587868	0.043106086	-0.491210938	0.739013672	-0.492431641	887.12	-42.50237699	-68.08965883	-22.5630835	-55
35688	0	0.364997864	-0.097498894	0.107336044	0.999999046	0.000519753	0.000268936	0.000526428	9.124946594	-2.437472343	2.683401108	0.025987628	0.013446809	0.026321414	-0.491210938	0.739013672	-0.486572266	887.08	-42.47755587	-68.03209067	-22.53363249	-56
35689	0	0.367370605	-0.096923828	0.107055664	0.999999046	0.00062561	0.000317574	0.00043869	9.184265137	-2.423095703	2.676391602	0.031280521	0.015878679	0.021934512	-0.486328125	0.738769531	-0.489746094	887.12	-42.41283754	-67.97740228	-22.52901	-56
35690	0	0.369962692	-0.09790802	0.10771656	0.999999046	0.000436783	0.000108719	0.000217438	9.249067307	-2.4477005	2.692914009	0.021839143	0.005435944	0.010871888	-0.486328125	0.736572266	-0.489501953	887.08	-42.36343361	-67.95769091	-22.53131525	-56
35691	0	0.366271973	-0.097290039	0.10748291	0.999999046	0.000675201	0.000161171	0.000286102	9.156799316	-2.432250977	2.687072754	0.033760074	0.008058549	0.014305116	-0.488769531	0.738769531	-0.489501953	887.12	-42.2910638	-67.92840255	-22.53454408	-55
35692	0	0.365387917	-0.09674263	0.10888958	0.999999046	0.00032711	0.000144958	0.000388145	9.134697914	-2.41856575	2.722239494	0.016355515	0.007247925	0.019407273	-0.488525391	0.734375	-0.4921875	887.12	-42.28280114	-67.89274332	-22.50334052	-56
35693	0	0.368347168	-0.099304199	0.108642578	0.999999046	0.00025177	0.000248909	0.00019455	9.208679199	-2.48260498	2.716064453	0.012588501	0.01244545	0.009727478	-0.486328125	0.738769531	-0.495605469	887.06	-42.22314796	-67.86330683	-22.53545221	-55
35694	0	0.367217064	-0.098721504	0.108569145	0.999999046	0.000293732	0.000146866	-9.91821E-05	9.180426598	-2.468037605	2.71422863	0.014686585	0.007343292	-0.004959107	-0.486328125	0.736572266	-0.489501953	887	-42.11681605	-67.86523683	-22.62386173	-56
35695	0	0.367248535	-0.100769043	0.10949707	0.999999046	0.000331879	0.00017643	6.48499E-05	9.181213379	-2.519226074	2.737426758	0.016593934	0.008821488	0.003242493	-0.486328125	0.736572266	-0.495361328	887.02	-42.03502409	-67.85202765	-22.67132248	-55
35696	0	0.365059853	-0.100255013	0.110485077	0.999999046	0.000489235	0.000146866	-5.72205E-05	9.126496315	-2.506375313	2.762126923	0.024461747	0.007343293	-0.002861023	-0.486328125	0.736572266	-0.495361328	887.12	-41.91536434	-67.85062571	-22.74245973	-56
35697	0	0.364318848	-0.099914551	0.107849121	0.999999046	0.000171661	0.000256538	-8.01086E-05	9.107971191	-2.49786377	2.696228027	0.008583069	0.01282692	-0.004005432	-0.488525391	0.736572266	-0.498046875	887.08	-41.80703806	-67.84161667	-22.83750313	-55
35698	0	0.366965294	-0.101955414	0.108437538	0.999999046	0.00053978	0.000213623	-6.48499E-05	9.174132347	-2.548885345	2.710938454	0.026988985	0.010681153	-0.003242493	-0.483642578	0.734130859	-0.498291016	887.16	-41.66834791	-67.83505726	-22.91807035	-55
35699	0	0.367248535	-0.100219727	0.109069824	0.999999046	0.000816345	0.000172615	0.000217438	9.181213379	-2.505493164	2.726745605	0.040817266	0.008630754	0.010871889	-0.483642578	0.734130859	-0.498291016	887.14	-41.56534491	-67.81052264	-22.92938266	-55
35700	0	0.36594677	-0.100692749	0.107406616	0.999999046	9.44138E-05	0.000137329	0.000365257	9.148669243	-2.517318726	2.685165405	0.004720688	0.006866455	0.018262864	-0.483642578	0.734130859	-0.498291016	887.16	-41.58327052	-67.7778584	-22.90000802	-55
35701	0	0.364257813	-0.100891113	0.108520508	0.999999046	0.000217438	0.000161171	0.000434875	9.106445313	-2.522277832	2.713012695	0.010871888	0.008058548	0.021743775	-0.486083984	0.734130859	-0.498046875	887.02	-41.59760804	-67.73787355	-22.86153228	-55
35702	0	0.363587379	-0.098657608	0.109839439	0.999999046	0.000200272	3.62396E-05	0.000202179	9.089684486	-2.466440201	2.745985985	0.01001358	0.001811981	0.010108948	-0.486083984	0.734130859	-0.498046875	887.12	-41.58843463	-67.72634077	-22.85127833	-55
35703	0	0.36706543	-0.101257324	0.11138916	0.999999046	0.000392914	-9.05991E-05	7.62939E-05	9.176635742	-2.531433105	2.784729004	0.019645691	-0.004529953	0.003814697	-0.486083984	0.736328125	-0.504150391	887.18	-41.55458337	-67.73523413	-22.83558952	-55
35704	0	0.367985725	-0.099699974	0.112376213	0.999999046	0.000668526	-0.000156403	0.000220299	9.199643135	-2.492499352	2.809405327	0.033426288	-0.00782013	0.011014939	-0.485839844	0.731933594	-0.506591797	887.12	-41.53147846	-67.738836	-22.76727311	-55
35705	0	0.368286133	-0.096069336	0.113525391	0.999999046	0.000358582	-0.000166893	0.000457764	9.20715332	-2.401733398	2.838134766	0.017929078	-0.008344651	0.022888185	-0.486083984	0.734130859	-0.500976563	887.18	-41.5950498	-67.72536176	-22.6575841	-55
35706	0	0.365550041	-0.09803009	0.116645813	0.999999046	0.000593185	-0.000165939	0.000349998	9.13875103	-2.450752258	2.916145325	0.029659274	-0.008296967	0.017499925	-0.485839844	0.731933594	-0.503662109	887.12	-41.60835617	-67.71984073	-22.56736103	-55
35707	0	0.360900879	-0.093078613	0.117370605	0.999999046	0.000782013	-0.000243187	0.000419617	9.022521973	-2.326965332	2.934265137	0.039100652	-0.012159349	0.020980838	-0.486083984	0.734130859	-0.50390625	887.12	-41.62776291	-67.71553918	-22.45111119	-55
35708	0	0.366128922	-0.093688011	0.119169235	0.999999046	0.000454903	6.86646E-05	0.000369072	9.153223038	-2.342200279	2.979230881	0.022745134	0.003433228	0.018453599	-0.486083984	0.731933594	-0.497802734	887.16	-41.61491665	-67.68830009	-22.42116757	-55
35709	0	0.36730957	-0.094055176	0.118347168	0.999999046	0.000469208	0.000435829	9.53674E-05	9.182739258	-2.351379395	2.958679199	0.02346039	0.02179146	0.004768372	-0.483642578	0.731933594	-0.500976563	887.12	-41.4743107	-67.65037505	-22.52304914	-55
35710	0	0.364202499	-0.094324112	0.113259315	0.999999046	0.000396729	0.000501633	2.86102E-06	9.105062485	-2.358102798	2.831482887	0.019836427	0.025081636	0.000143051	-0.483398438	0.729492188	-0.503662109	887.18	-41.31046524	-67.61381118	-22.65382028	-55
35711	0	0.366027832	-0.096191406	0.111083984	0.999999046	0.000289917	0.000454903	-0.00025177	9.150695801	-2.404785156	2.777099609	0.01449585	0.022745134	-0.012588502	-0.480957031	0.729492188	-0.509765625	887.24	-41.11450999	-67.60051413	-22.82240002	-55
35712	0	0.362375259	-0.095458031	0.109698296	0.999999046	0.000191689	0.00034523	-0.000435829	9.059381485	-2.386450768	2.74245739	0.009584427	0.017261506	-0.021791459	-0.483398438	0.729492188	-0.503662109	887.16	-40.91138022	-67.61047559	-23.02525285	-55
35713	0	0.364013672	-0.097595215	0.108337402	0.999999046	0.000270844	-4.1008E-05	-0.000141144	9.100341797	-2.439880371	2.708435059	0.013542176	-0.0020504	-0.00705719	-0.485595703	0.727294922	-0.503417969	887.18	-40.83178771	-67.63179923	-23.08462721	-55
35714	0	0.366735458	-0.098958969	0.108420372	0.999999046	0.000204086	2.86102E-05	-0.000271797	9.168386459	-2.473974228	2.7105093	0.010204315	0.001430512	-0.013589859	-0.483398438	0.731689453	-0.506835938	887.12	-40.72006127	-67.65699917	-23.18521916	-55
35715	0	0.367736816	-0.098815918	0.109619141	0.999999046	-0.000232697	-0.000113487	-0.000217438	9.19342041	-2.470397949	2.740478516	-0.011634827	-0.005674362	-0.010871887	-0.485839844	0.729736328	-0.506591797	887.12	-40.69603997	-67.69057693	-23.24335574	-55
35716	0	0.367803574	-0.098524094	0.108023643	0.999999046	-0.000403404	-0.000123978	2.67029E-05	9.19508934	-2.463102341	2.700591087	-0.020170212	-0.006198883	0.001335144	-0.483398438	0.729492188	-0.509521484	887.12	-40.74574406	-67.70701252	-23.23457845	-55
35717	0	0.372131348	-0.098876953	0.111450195	0.999999046	-0.000160217	-0.00014019	-0.000339508	9.303283691	-2.471923828	2.786254883	-0.008010864	-0.007009506	-0.016975403	-0.485595703	0.725097656	-0.509033203	887.06	-40.69318285	-67.75236461	-23.30285492	-55
35718	0	0.3719244	-0.098539352	0.113143921	0.999999046	-0.000650406	0.000314713	-0.001056671	9.298110008	-2.46348381	2.828598022	-0.032520303	0.015735631	-0.052833572	-0.485595703	0.727294922	-0.509277344	887.16	-40.46062938	-67.81156415	-23.62696009	-55
35719	0	0.368103027	-0.102905273	0.11138916	0.999998093	-0.000517845	0.000488281	-0.001262665	9.202575684	-2.572631836	2.784729004	-0.025892267	0.024414071	-0.063133262	-0.488037109	0.727539063	-0.503173828	887.12	-40.13629036	-67.87014013	-24.04638681	-55
35720	0	0.370337486	-0.104707718	0.108222961	0.999997139	0.000718117	0.000522614	-0.001899719	9.258437157	-2.617692947	2.705574036	0.035905864	0.026130695	-0.094986032	-0.492919922	0.725341797	-0.502929688	887.2	-39.52456235	-67.97114747	-24.62770815	-55
35721	0	0.373901367	-0.10736084	0.105285645	0.999994278	0.001275063	0.000812531	-0.002998352	9.34753418	-2.684020996	2.632141113	0.063753248	0.040626602	-0.149917884	-0.492675781	0.723144531	-0.508544922	887.06	-38.54978007	-68.12269312	-25.52636071	-55
35722	0	0.36634922	-0.109191895	0.097066879	0.999992371	0.001471519	0.001030922	-0.003460884	9.158730507	-2.729797363	2.426671982	0.07357616	0.051546227	-0.173044643	-0.494873047	0.71875	-0.510986328	887.2	-37.39938665	-68.28099852	-26.59052719	-55
35723	0	0.365905762	-0.109069824	0.092956543	0.999993324	0.001659393	0.00130558	-0.002944946	9.147644043	-2.726745605	2.323913574	0.082969847	0.06527915	-0.147247637	-0.499267578	0.712158203	-0.518798828	887.18	-36.28908799	-68.37108653	-27.57858889	-55
35724	0	0.371562958	-0.107867241	0.090441704	0.999993324	0.001078606	0.00186348	-0.00287056	9.289073944	-2.696681023	2.261042595	0.053930398	0.093174181	-0.143528293	-0.503662109	0.705566406	-0.518066406	887.14	-35.16588729	-68.39757866	-28.65833962	-55
35725	0	0.372802734	-0.107910156	0.08581543	0.999992371	-0.000422478	0.002277374	-0.002880096	9.320068359	-2.697753906	2.145385742	-0.021123934	0.113868973	-0.14400515	-0.503417969	0.703125	-0.526611328	887.16	-34.14797714	-68.37891952	-29.79665355	-55
35726	0	0.377342224	-0.103919983	0.088176727	0.999990463	-0.0004282	0.002865791	-0.003192902	9.433555603	-2.597999573	2.204418182	-0.021410055	0.14329001	-0.159645575	-0.508300781	0.703369141	-0.526367188	887.3	-32.96931949	-68.31656604	-31.11883445	-55
35727	0	0.363952637	-0.109008789	0.084960938	0.999992371	-0.001414299	0.002326965	-0.002700806	9.098815918	-2.725219727	2.124023438	-0.070715124	0.116348552	-0.135040614	-0.510253906	0.696533203	-0.531494141	887.12	-32.11845222	-68.26787584	-32.19653199	-56
35728	0	0.366437912	-0.113370895	0.084449768	0.999995232	-0.000601768	0.001506805	-0.00233078	9.1609478	-2.834272385	2.111244202	-0.030088465	0.075340372	-0.116539158	-0.512695313	0.696777344	-0.525634766	887.08	-31.39814976	-68.27182229	-33.04930271	-57
35729	0	0.366271973	-0.112670898	0.087585449	0.999996185	0.000145912	0.000709534	-0.002311707	9.156799316	-2.816772461	2.18963623	0.007295616	0.035476719	-0.11558544	-0.514892578	0.692382813	-0.531005859	887.12	-30.71962444	-68.34951035	-33.75451288	-59
35730	0	0.364652634	-0.100826263	0.09612751	0.999995232	0.001535416	-9.34601E-05	-0.002505302	9.116315842	-2.520656586	2.403187752	0.076770893	-0.004673011	-0.125265302	-0.517333984	0.692382813	-0.530761719	887.12	-29.94849186	-68.51478388	-34.39583478	-59
35731	0	0.366088867	-0.101379395	0.104064941	0.999996185	0.001355171	-0.000118256	-0.002090454	9.15222168	-2.534484863	2.601623535	0.06775863	-0.005912787	-0.104522813	-0.524169922	0.685791016	-0.532958984	887.18	-29.30083393	-68.65601769	-34.92379096	-59
35732	0	0.376139641	-0.090545654	0.107397079	0.999995232	0.002566338	0.000276566	-0.001343727	9.40349102	-2.263641357	2.684926987	0.12831706	0.013828297	-0.06718645	-0.526367188	0.68359375	-0.535400391	887.08	-28.64583774	-68.71416975	-35.31503666	-58
35733	0	0.385314941	-0.073730469	0.106384277	0.999995232	-0.001983643	0.002118111	-0.00062561	9.632873535	-1.843261719	2.659606934	-0.099182275	0.105905688	-0.031280564	-0.528564453	0.677001953	-0.537597656	887.16	-28.43972964	-68.54736266	-35.77160046	-59
35734	0	0.374267578	-0.068371773	0.121675491	0.999966621	-0.007026672	0.004034042	-7.24792E-05	9.356689453	-1.709294319	3.041887283	-0.351337463	0.201704325	-0.003624002	-0.526367188	0.681396484	-0.53515625	887.24	-28.69208566	-68.15780327	-36.34895312	-59
35735	0	0.373962402	-0.074768066	0.12097168	0.999925613	-0.01054287	0.006061554	-0.000518799	9.349060059	-1.86920166	3.024291992	-0.527156497	0.303085182	-0.025940582	-0.524414063	0.687988281	-0.532958984	887.12	-28.96990099	-67.59086739	-37.32109127	-59
35736	0	0.353995323	-0.074960709	0.129208565	0.999955177	-0.006243706	0.006690979	-0.002145767	8.84988308	-1.874017715	3.230214119	-0.312189885	0.334553877	-0.107289941	-0.517578125	0.69921875	-0.528564453	887.08	-28.30948919	-67.04861691	-38.79092786	-59
35737	0	0.364685059	-0.074829102	0.128417969	0.999948502	-0.00599575	0.006950378	-0.004325867	9.117126465	-1.870727539	3.210449219	-0.299792666	0.347524885	-0.216297047	-0.512939453	0.703369141	-0.529052734	887.12	-27.1249249	-66.58726901	-40.80172577	-61
35738	0	0.366500854	-0.090463638	0.130105019	0.999911308	-0.007398605	0.008872986	-0.006522179	9.162521362	-2.261590958	3.252625465	-0.36994112	0.443662307	-0.3261185	-0.517822266	0.703613281	-0.525878906	887.12	-25.43823001	-66.01983079	-43.55102383	-64
35739	0	0.366577148	-0.103027344	0.118896484	0.999904633	-0.004137993	0.010147095	-0.008296967	9.164428711	-2.575683594	2.972412109	-0.206906158	0.507370713	-0.414861391	-0.518066406	0.703613281	-0.522949219	887.06	-22.95745491	-65.36287337	-46.79489744	-67
35740	0	0.381552696	-0.094180107	0.120657921	0.999876976	-0.005011559	0.011367798	-0.009508133	9.538817406	-2.354502678	3.016448021	-0.250588149	0.56841308	-0.475426041	-0.519775391	0.697021484	-0.533935547	887.18	-20.35537934	-64.56959441	-50.28672519	-64
35741	0	0.363647461	-0.09954834	0.11541748	0.999863625	-0.006118774	0.012104988	-0.00938797	9.091186523	-2.488708496	2.885437012	-0.305952597	0.605276857	-0.469419789	-0.51953125	0.690185547	-0.536376953	887.12	-18.04857261	-63.63043169	-53.61711324	-68
35742	0	0.344464302	-0.104107857	0.122218132	0.999876022	-0.00449276	0.012513161	-0.008327484	8.611607552	-2.602696419	3.0554533	-0.224647201	0.625683702	-0.416391287	-0.521728516	0.687988281	-0.544921875	887.12	-15.96578851	-62.55663915	-56.51854058	-69
35743	0	0.342346191	-0.104553223	0.132019043	0.999876022	0.000584602	0.013263702	-0.00843811	8.558654785	-2.613830566	3.300476074	0.029231324	0.663212476	-0.421922921	-0.521240234	0.683349609	-0.556152344	887.12	-13.44893879	-61.35146089	-59.29741266	-70
35744	0	0.336072922	-0.083630562	0.139598846	0.999839783	0.003194809	0.014925957	-0.009338379	8.401823044	-2.090764046	3.489971161	0.159748974	0.746337669	-0.466943867	-0.518066406	0.671875	-0.572998047	887.18	-10.61961488	-59.92247514	-62.1359602	-69
35745	0	0.340270996	-0.071044922	0.146179199	0.999792099	0.003964424	0.016864777	-0.010730743	8.506774902	-1.776123047	3.65447998	0.198234929	0.843297206	-0.536574313	-0.512207031	0.657958984	-0.595458984	887.08	-7.656745112	-58.23211393	-65.07314919	-72
35746	0	0.326774597	-0.056503296	0.127700806	0.999733925	0.004119873	0.018735886	-0.012782097	8.169364929	-1.412582397	3.192520142	0.2060119	0.936877268	-0.639161459	-0.510986328	0.639892578	-0.623291016	887.14	-4.593094939	-56.2788429	-68.16588354	-69
35747	0	0.298461914	-0.049499512	0.097595215	0.999696732	0.000901222	0.020023346	-0.014289856	7.461547852	-1.237487793	2.439880371	0.045065663	1.001268434	-0.714564975	-0.504882813	0.621337891	-0.6484375	887.16	-1.97715144	-54.11113993	-71.2278731	-63
35748	0	0.255895615	-0.023797035	0.068074226	0.999682426	2.00272E-05	0.021026611	-0.013859749	6.397390366	-0.59492588	1.701855659	0.001001464	1.051441726	-0.693060713	-0.496582031	0.605224609	-0.665039063	887.08	0.152919315	-51.76118259	-73.90687248	-63
35749	0	0.220825195	-0.033447266	0.060546875	0.999613762	-0.006626129	0.02341938	-0.013401031	5.520629883	-0.836181641	1.513671875	-0.331349098	1.171119719	-0.670137814	-0.481201172	0.595458984	-0.694335938	887.16	1.189392026	-49.09786212	-76.20966211	-60
35750	0	0.209384918	0.001840591	0.134584427	0.999388695	-0.001676559	0.032606125	-0.012467384	5.234622955	0.046014786	3.364610672	-0.083845046	1.630638304	-0.623496185	-0.463867188	0.590332031	-0.715332031	887.2	2.394335202	-45.35764024	-78.1341762	-62
35751	0	0.140197754	0.060668945	0.141662598	0.998537064	-0.022299767	0.048240662	-0.009941101	3.504943848	1.516723633	3.541564941	-1.115532278	2.413209799	-0.497297544	-0.424804688	0.584228516	-0.740234375	887.18	0.730817359	-39.83756883	-79.48212266	-60
35752	0	0.161513329	0.011562347	0.121866226	0.997476578	-0.036336899	0.060872078	-0.003710747	4.037833214	0.289058685	3.046655655	-1.818374425	3.046166111	-0.18569353	-0.354248047	0.624511719	-0.747558594	887.12	-3.036937197	-32.90924681	-80.22080296	-63
35753	0	0.210571289	0.036315918	0.11151123	0.996343613	-0.046420097	0.0715065	0.005489349	5.264282227	0.907897949	2.787780762	-2.323837349	3.579688226	0.27480242	-0.260742188	0.681884766	-0.742919922	887.2	-8.281315693	-24.73353035	-80.50469002	-66
35754	0	0.360124588	-0.053051949	0.151804924	0.99519825	-0.05931282	0.072040558	0.029529572	9.0031147	-1.326298714	3.7951231	-2.970396617	3.607803975	1.478846204	-0.137695313	0.763183594	-0.70703125	887.06	-15.709604	-16.00645443	-78.93358748	-77
35755	0	0.317993164	-0.403320313	0.370849609	0.998017311	-0.004901886	0.054574013	0.03094101	7.949829102	-10.08300781	9.271240234	-0.245256338	2.730504659	1.548073275	0.013183594	0.850830078	-0.623535156	887.06	-16.67347007	-9.075474202	-77.37636482	-77
35756	0	0.033179283	-0.294722557	0.625854492	0.997193336	0.063920021	0.038667679	-0.004748344	0.829482079	-7.368063927	15.6463623	3.198993406	1.935194131	-0.23763951	0.118896484	0.815429688	-0.667236328	887.12	-9.187869144	-4.939260947	-78.83877655	-71
35757	0	-0.351013184	-0.632263184	1.464538574	0.993601799	0.111400604	0.01012516	-0.015541077	-8.77532959	-15.80657959	36.61346436	5.581938844	0.507340382	-0.778715161	0.146240234	0.723876953	-0.766357422	887.18	3.693122834	-3.900278121	-80.54705412	-68
35758	0	-0.034816742	0.387944221	1.152089119	0.996347427	0.083947182	0.015595436	-0.000439644	-0.870418549	9.698605537	28.80222797	4.20247606	0.78072242	-0.022008991	0.139404297	0.507080078	-0.928955078	887.12	13.27673819	-2.151561237	-80.3032963	-66
35759	0	-0.255859375	0.250671387	0.338439941	0.999914169	0.011750221	0.004447937	0.003498077	-6.396484375	6.266784668	8.460998535	0.587527719	0.222403156	0.174908828	0.173095703	0.413574219	-0.97265625	887.14	14.57733993	-1.763755074	-79.7138864	-68
35760	0	-0.078428268	0.177636147	0.183114052	0.999136925	0.039416313	-0.012838364	0.002606392	-1.960706711	4.440903664	4.577851295	1.971382795	-0.642102905	0.130357097	0.170166016	0.377685547	-0.987060547	887.18	19.08055257	-3.26345263	-79.80408923	-69
35761	0	-0.079284668	0.404846191	0.159301758	0.999249458	0.035800934	-0.010207176	-0.010654449	-1.982116699	10.12115479	3.982543945	1.79049433	-0.510486436	-0.532855691	0.139160156	0.279541016	-1.029541016	887.2	23.27865579	-3.912147156	-81.35109476	-66
35762	0	-0.027231216	0.299669266	0.147099495	0.99985218	0.001586914	0.002573013	-0.016919136	-0.680780411	7.491731644	3.677487373	0.07934961	0.128657	-0.845998457	0.114746094	0.237548828	-1.039306641	887.12	23.56661713	-2.866894415	-83.02564934	-76
35763	0	-0.042114258	0.282958984	0.123657227	0.999612808	0.014065742	0.008083344	-0.022586823	-1.052856445	7.073974609	3.091430664	0.703377804	0.404219287	-1.129486739	0.112792969	0.230957031	-1.041503906	887.18	25.26247399	-0.945841141	-85.0161081	-67
35764	0	-0.168692589	0.389635086	0.094128609	0.999638557	0.014183998	-0.000734329	-0.022788048	-4.21731472	9.740877151	2.353215218	0.709285158	-0.036720875	-1.139539356	0.119140625	0.19921875	-1.051025391	887.18	26.93749334	0.14530006	-87.40380192	-72
35765	0	-0.244506836	0.292236328	0.137145996	0.999641418	-0.016306877	-0.002368927	-0.021072388	-6.112670898	7.305908203	3.428649902	-0.815441128	-0.118460481	-1.053745082	0.102783203	0.186279297	-1.057861328	887.16	25.08640285	0.991882997	-89.70114935	-78
35766	0	-0.230774879	0.178603172	0.134204865	0.998775482	-0.045186043	-0.00250721	-0.019952774	-5.769371986	4.465079308	3.355121613	-2.260224264	-0.125411654	-0.998045884	0.088134766	0.245117188	-1.050292969	887.08	19.89806972	1.644680714	-91.9332514	-66
35767	0	-0.211608887	0.120178223	0.161560059	0.997595787	-0.065231323	-0.006545067	-0.022422791	-5.290222168	3.004455566	4.039001465	-3.264181474	-0.327515752	-1.122038521	0.073242188	0.353759766	-1.017578125	887.12	12.38106613	1.692219865	-94.61521881	-60
35768	0	-0.09384346	-0.050128937	0.239110947	0.996974945	-0.073554993	-0.010466576	-0.022819519	-2.346086502	-1.253223419	5.977773666	-3.681462381	-0.52385709	-1.142127786	0.037109375	0.497070313	-0.957519531	887.2	3.913407986	0.932516205	-97.37821969	-64
35769	0	-0.027099609	-0.149536133	0.455810547	0.99783802	-0.058261871	-0.018912315	-0.023784637	-0.677490234	-3.73840332	11.39526367	-2.915194025	-0.946297595	-1.190089357	-0.008544922	0.631835938	-0.875732422	887.12	-2.742437448	-1.150746351	-100.1179711	-60
35770	0	0.212953568	-0.427875519	1.138538361	0.998699188	-0.046187401	-0.017777443	-0.012255669	5.323839188	-10.69688797	28.46345901	-2.310371753	-0.889257704	-0.613049233	-0.082275391	0.733886719	-0.777832031	887.12	-7.990180035	-3.265697125	-101.3393126	-59
35771	0	0.00378418	-0.258666992	0.35168457	0.999695778	0.0233078	0.002701759	0.007595062	0.094604492	-6.466674805	8.792114258	1.165508186	0.135101665	0.37979162	-0.103515625	0.766357422	-0.744384766	887.12	-5.371863294	-2.812575234	-100.5418611	-58
35772	0	-0.019717216	0.00474453	0.277511597	0.999541283	0.028031349	0.001504898	0.011345863	-0.492930412	0.118613243	6.937789917	1.401781695	0.075256405	0.567379881	-0.078613281	0.717773438	-0.802978516	887.12	-2.225383034	-2.508700896	-99.28000125	-58
35773	0	0.013916016	-0.112854004	0.252746582	0.999833107	0.007049561	-0.011881828	0.01190567	0.347900391	-2.821350098	6.318664551	0.35249757	-0.594124355	0.595316514	-0.064941406	0.690185547	-0.821777344	887.18	-1.505486567	-3.780330192	-97.88187623	-59
35774	0	0.147524834	-0.12251091	0.384965897	0.998513222	0.048339844	-0.023134232	0.009895325	3.688120842	-3.062772751	9.624147415	2.41819014	-1.157284888	0.49501146	-0.078125	0.665771484	-0.839599609	887.12	3.926607299	-6.416555179	-96.80247014	-61
35775	0	0.13885498	0.083862305	0.446838379	0.998033524	0.060631752	-0.014892578	0.005508423	3.471374512	2.096557617	11.17095947	3.033575969	-0.745117296	0.275601787	-0.099121094	0.567138672	-0.903076172	887.18	10.81652524	-8.155500314	-96.3987584	-62
35776	0	0.145298004	0.285100937	0.444387436	0.998987198	0.044937134	-0.001000404	-0.00163269	3.632450104	7.127523422	11.1096859	2.24761495	-0.050037099	-0.081662071	-0.119628906	0.457519531	-0.962890625	887	15.99713539	-8.192308602	-96.62629786	-62
35777	0	0.060913086	0.183776855	0.344055176	0.999916077	0.011166573	0.001781464	-0.006183624	1.522827148	4.594421387	8.601379395	0.558344086	0.089075647	-0.309189773	-0.118652344	0.389892578	-0.989501953	887.18	17.3670257	-7.76231305	-97.26635674	-62
35778	0	0.045040131	0.077421188	0.363095284	0.999994278	3.33786E-05	-0.000956535	-0.003046036	1.126003265	1.935529709	9.077382088	0.001668933	-0.047826848	-0.152302047	-0.120361328	0.378662109	-0.997314453	887.12	17.42176308	-7.731755871	-97.6472698	-62
35779	0	0.045288086	0.078491211	0.390014648	0.999978065	0.005741119	-0.002940178	-0.001220703	1.132202148	1.962280273	9.750366211	0.287058031	-0.147009952	-0.061035595	-0.125	0.374267578	-0.996582031	887.12	18.11102098	-7.979268241	-97.89630522	-62
35780	0	0.044417381	0.114591599	0.37522316	0.99990654	0.013011932	-0.004118919	-4.57764E-05	1.110434532	2.864789963	9.380578995	0.650616819	-0.205952363	-0.002288889	-0.133789063	0.358886719	-1.000732422	887.14	19.62316554	-8.393452684	-98.06659689	-63
35781	0	0.051147461	0.16192627	0.371582031	0.999951363	0.00819397	-0.005351067	-0.000328064	1.278686523	4.048156738	9.289550781	0.409705034	-0.267557605	-0.01640346	-0.142333984	0.334228516	-1.012695313	887.14	20.599391	-8.92554706	-98.32569151	-63
35782	0	0.066742897	0.166419983	0.370530128	0.999976158	0.006166458	-0.002923965	-0.00028038	1.668572426	4.160499573	9.263253212	0.308325304	-0.14619941	-0.014019121	-0.151123047	0.318847656	-1.010986328	887.08	21.33093835	-9.196770351	-98.48927194	-63
35783	0	0.060424805	0.16204834	0.364074707	0.999994278	0.002964973	-0.001552582	-0.000404358	1.510620117	4.051208496	9.101867676	0.148248953	-0.077629236	-0.020217934	-0.157958984	0.307861328	-1.009521484	887.18	21.69023331	-9.315443723	-98.6123763	-63
35784	0	0.051708221	0.160499573	0.359308243	0.999995232	0.002907753	-0.000823975	3.52859E-05	1.292705536	4.012489319	8.98270607	0.145387871	-0.041198793	0.0017643	-0.16015625	0.303466797	-1.011962891	887.18	22.03120899	-9.374618034	-98.65750851	-63
35785	0	0.058410645	0.158447266	0.36340332	0.999999046	0.000114441	-0.000792503	-7.24792E-05	1.460266113	3.961181641	9.085083008	0.005722047	-0.039625172	-0.003623963	-0.162109375	0.299072266	-1.020263672	887.24	22.0542603	-9.425933919	-98.71256864	-63
35786	0	0.068615913	0.15255928	0.368020058	0.999999046	-0.001235962	-8.2016E-05	0.000130653	1.715397835	3.81398201	9.200501442	-0.061798112	-0.004100801	0.006532671	-0.164794922	0.299072266	-1.014404297	887.18	21.91397948	-9.41124443	-98.71619082	-63
35787	0	0.07220459	0.140319824	0.37310791	0.999998093	-0.001589775	0.000556946	-7.24792E-05	1.805114746	3.507995605	9.327697754	-0.079488792	0.027847303	-0.003623964	-0.162597656	0.303710938	-1.009033203	887.14	21.73163752	-9.320821454	-98.71362237	-63
35788	0	0.073904991	0.139817238	0.372598648	0.999999046	0.000594139	0.000762939	-1.81198E-05	1.847624779	3.495430946	9.314966202	0.02970696	0.038146979	-0.000905991	-0.16015625	0.305664063	-1.012207031	887.14	21.79668291	-9.211771164	-98.69543862	-63
35789	0	0.065063477	0.142150879	0.36907959	0.999999046	0	0.000340462	-9.15527E-05	1.626586914	3.553771973	9.226989746	0	0.017023087	-0.004577637	-0.16015625	0.305664063	-1.012207031	887.18	21.79748718	-9.145138415	-98.70349382	-63
35790	0	0.062833786	0.14887619	0.36649704	0.999999046	-0.000131607	0.000146866	-1.23978E-05	1.57084465	3.721904755	9.162425995	-0.006580353	0.007343292	-0.000619888	-0.155273438	0.303222656	-1.012207031	887.2	21.78318688	-9.102947101	-98.70904834	-63
35791	0	0.059448242	0.144165039	0.366333008	0.999998093	-0.001814842	-0.000179291	-4.57764E-05	1.486206055	3.604125977	9.158325195	-0.090742162	-0.008964544	-0.00228882	-0.16015625	0.307861328	-1.015380859	887.18	21.57860526	-9.094406863	-98.7342008	-63
35792	0	0.060360909	0.138128281	0.369683266	0.999999046	-0.000117302	-0.000154495	0.000128746	1.509022713	3.453207016	9.242081642	-0.005865097	-0.007724762	0.006437302	-0.157958984	0.310058594	-1.018554688	887.18	21.56492245	-9.090977221	-98.73764153	-63
35793	0	0.063293457	0.143981934	0.37097168	0.999999046	-0.000297546	-8.29697E-05	-5.34058E-05	1.582336426	3.59954834	9.274291992	-0.01487732	-0.004148483	-0.002670288	-0.157958984	0.310058594	-1.012695313	887.18	21.5330141	-9.072726042	-98.75823322	-63
35794	0	0.062728882	0.143096924	0.369398117	0.999999046	5.72205E-05	-8.58307E-05	0.000227928	1.568222046	3.577423096	9.234952927	0.002861023	-0.004291534	0.011396408	-0.157958984	0.310302734	-1.009765625	887.24	21.53680032	-9.067065951	-98.74887712	-63
35795	0	0.059509277	0.143371582	0.368530273	0.999999046	-5.34058E-05	-1.04904E-05	0.000320435	1.487731934	3.584289551	9.213256836	-0.002670288	-0.000524521	0.016021729	-0.157958984	0.307861328	-1.015380859	887.16	21.52568208	-9.05754766	-98.72585848	-63
35796	0	0.058632851	0.14359951	0.369092941	0.999999046	0.000174522	-0.000318527	-0.000191689	1.465821266	3.589987755	9.227323532	0.00872612	-0.015926362	-0.009584427	-0.160400391	0.310302734	-1.015625	887.2	21.55130965	-9.059550031	-98.77218999	-63
35797	0	0.061950684	0.14074707	0.369628906	0.999999046	0.000385284	-0.000597954	-0.000106812	1.54876709	3.518676758	9.240722656	0.019264223	-0.029897692	-0.005340577	-0.160400391	0.310302734	-1.012695313	887.18	21.60122943	-9.095268006	-98.8207509	-63
35798	0	0.065838814	0.146781921	0.36839962	0.999999046	0.000146866	-0.000429153	-0.000171661	1.645970345	3.669548035	9.209990501	0.007343293	-0.021457673	-0.008583069	-0.162597656	0.308105469	-1.012207031	887.12	21.62381544	-9.110790122	-98.87000418	-63
35799	0	0.063842773	0.138671875	0.370422363	0.999999046	-0.000125885	-0.00039959	-0.000179291	1.596069336	3.466796875	9.260559082	-0.006294251	-0.019979478	-0.008964539	-0.162597656	0.308105469	-1.018066406	887.24	21.61464295	-9.123279831	-98.91735901	-63
35800	0	0.06487751	0.149160385	0.368881226	0.999999046	0.000256538	-0.000411987	-0.000100136	1.621937752	3.729009628	9.22203064	0.01282692	-0.020599366	-0.00500679	-0.162597656	0.308105469	-1.015136719	887.18	21.64813959	-9.140883937	-98.95654589	-63
35801	0	0.06451416	0.141479492	0.367614746	0.999999046	-4.95911E-05	-0.000407219	-0.000171661	1.612854004	3.536987305	9.190368652	-0.002479553	-0.020360947	-0.008583069	-0.162597656	0.308105469	-1.015136719	887.2	21.64750993	-9.155401611	-99.00264578	-63
35802	0	0.061524391	0.153914452	0.365748405	0.999999046	-0.000627518	-0.000402451	-0.000415802	1.538109779	3.84786129	9.143710136	-0.031375889	-0.020122531	-0.020790103	-0.165039063	0.308105469	-1.012207031	887.18	21.58520381	-9.159394797	-99.07631002	-63
35803	0	0.061279297	0.148803711	0.368041992	0.999998093	-0.001372337	-0.000980377	-0.000812531	1.531982422	3.720092773	9.201049805	-0.068616907	-0.049018888	-0.04062655	-0.165283203	0.310546875	-1.009521484	887.12	21.4484304	-9.208691152	-99.21607169	-63
35804	0	0.061389923	0.148200035	0.366987228	0.999994278	-0.002614975	-0.001461983	-0.001506805	1.534748077	3.705000877	9.17468071	-0.130748994	-0.073099273	-0.075340412	-0.170166016	0.312744141	-1.012207031	887.12	21.18481636	-9.281193219	-99.45129704	-63
35805	0	0.069824219	0.123474121	0.367492676	0.999998093	-0.000716209	-0.001132965	-0.001029968	1.745605469	3.086853027	9.187316895	-0.035810488	-0.056648281	-0.051498438	-0.172851563	0.319824219	-1.006835938	887.12	21.12744277	-9.339597755	-99.62104503	-63
35806	0	0.075556755	0.138239861	0.36654377	0.999999046	0.001083374	-8.01086E-05	0.000127792	1.888918877	3.455996513	9.163594246	0.054168712	-0.004005433	0.006389619	-0.175048828	0.315185547	-1.009277344	887.12	21.24867397	-9.334272209	-99.62265991	-63
35807	0	0.065429688	0.151489258	0.36730957	0.999999046	-0.000667572	0.000657082	0.000595093	1.635742188	3.787231445	9.182739258	-0.033378608	0.032854087	0.029754645	-0.172851563	0.315185547	-1.006591797	887.2	21.1564947	-9.26988824	-99.54277975	-63
35808	0	0.063398361	0.136880875	0.370078087	0.999999046	-0.00070858	0.000537872	0.000346184	1.58495903	3.422021866	9.251952171	-0.035429006	0.02689362	0.017309191	-0.172851563	0.317382813	-1.006591797	887.2	21.0645426	-9.208113603	-99.4957236	-63
35809	0	0.064086914	0.131530762	0.373596191	0.999999046	9.53674E-05	7.34329E-05	2.67029E-05	1.602172852	3.288269043	9.339904785	0.004768372	0.003671646	0.001335144	-0.172851563	0.319824219	-1.006835938	887.26	21.07278974	-9.183111589	-99.50248594	-63
35810	0	0.064772606	0.141973495	0.368878365	0.999999046	0.000993729	8.2016E-05	0.000164032	1.619315147	3.549337387	9.221959114	0.04968644	0.0041008	0.008201601	-0.170654297	0.319580078	-1.004150391	887.18	21.18154546	-9.163205192	-99.49285997	-63
35811	0	0.059020996	0.146728516	0.370178223	0.999999046	-0.000457764	-6.00815E-05	-1.90735E-05	1.475524902	3.668212891	9.254455566	-0.022888184	-0.003004074	-0.000953674	-0.170410156	0.317382813	-1.006835938	887.18	21.12823654	-9.150948883	-99.50837733	-63
35812	0	0.062233925	0.138152122	0.370052338	0.999999046	-0.0001688	-0.000404358	-0.000500679	1.555848122	3.453803062	9.251308441	-0.008440018	-0.020217897	-0.025033953	-0.170410156	0.317382813	-1.006835938	887.12	21.11838398	-9.155835727	-99.5894906	-63
35813	0	0.06652832	0.13848877	0.368225098	0.999999046	0.000663757	-0.000395775	-8.01086E-05	1.663208008	3.462219238	9.205627441	0.03318787	-0.019788744	-0.004005433	-0.170410156	0.319580078	-1.007080078	887.2	21.1964649	-9.177594951	-99.62395647	-63
35814	0	0.068383217	0.146128654	0.367427826	0.999999046	-0.00025177	-1.14441E-05	0.000312805	1.709580421	3.653216362	9.185695648	-0.012588501	-0.000572205	0.015640259	-0.172851563	0.317382813	-1.009521484	887.08	21.16047829	-9.175038539	-99.60176085	-63
35815	0	0.066101074	0.137207031	0.36895752	0.999999046	0.000244141	2.76566E-05	0.000427246	1.652526855	3.430175781	9.223937988	0.012207032	0.001382828	0.021362306	-0.172851563	0.317382813	-1.006591797	887.18	21.17882826	-9.173422815	-99.56623279	-63
35816	0	0.063762665	0.144473076	0.368584633	0.999999046	-0.00039196	8.01086E-05	0.000174522	1.59406662	3.611826897	9.214615822	-0.019598008	0.004005432	0.00872612	-0.172851563	0.319580078	-1.009765625	887.18	21.12839769	-9.15598284	-99.55545044	-63
35817	0	0.065673828	0.130187988	0.370849609	0.999999046	0.000541687	-1.43051E-05	4.57764E-05	1.641845703	3.254699707	9.271240234	0.027084352	-0.000715256	0.002288818	-0.170410156	0.319580078	-1.007080078	887.12	21.18718545	-9.143671857	-99.56078965	-63
35818	0	0.06411171	0.151638031	0.368729591	0.999999046	0.000415802	0.000228882	0.000109673	1.60279274	3.790950775	9.218239784	0.020790101	0.011444092	0.005483628	-0.170410156	0.317382813	-1.009765625	887.12	21.22927435	-9.108255816	-99.54925731	-63
35819	0	0.063659668	0.134155273	0.370117188	0.999999046	-0.000167847	0.000199318	9.15527E-05	1.591491699	3.353881836	9.252929688	-0.008392334	0.009965897	0.004577637	-0.172851563	0.317382813	-1.003662109	887.14	21.20455383	-9.075501423	-99.54448657	-63
35820	0	0.065187454	0.143113136	0.368664742	0.999999046	0.000395775	0.00022316	0.000205994	1.629686356	3.577828407	9.216618538	0.019788743	0.01115799	0.010299683	-0.16796875	0.317382813	-1.006835938	887.12	21.24234694	-9.04527429	-99.5218166	-63
35821	0	0.065368652	0.139770508	0.368347168	0.999999046	0.000282288	0.000287056	0.000202179	1.634216309	3.494262695	9.208679199	0.01411438	0.014352799	0.010108948	-0.170410156	0.319580078	-1.010009766	887.2	21.26665879	-9.008419558	-99.49917217	-63
35822	0	0.065214157	0.140806198	0.368609428	0.999999046	-0.000146866	0.00019455	0.000163078	1.630353928	3.520154953	9.21523571	-0.007343292	0.009727478	0.008153916	-0.170410156	0.319580078	-1.010009766	887.08	21.24298166	-8.980156288	-99.4850588	-63
35823	0	0.065246582	0.143920898	0.36920166	0.999999046	0.000221252	8.86917E-05	0.00025177	1.631164551	3.598022461	9.230041504	0.011062622	0.004434586	0.012588501	-0.170410156	0.317382813	-1.009765625	887.18	21.26074572	-8.967207204	-99.46621821	-63
35824	0	0.064274788	0.138802528	0.368906975	0.999999046	-0.000584602	-7.62939E-05	1.43051E-05	1.606869698	3.47006321	9.22267437	-0.029230119	-0.003814697	0.000715256	-0.16796875	0.317382813	-1.00390625	887.18	21.19105446	-8.96231236	-99.47843739	-63
35825	0	0.063964844	0.140319824	0.370910645	0.999999046	0.000125885	-3.71933E-05	-4.95911E-05	1.599121094	3.507995605	9.272766113	0.006294251	-0.001859665	-0.002479553	-0.16796875	0.317138672	-1.012695313	887.2	21.20346714	-8.950850676	-99.49421592	-63
35826	0	0.063551903	0.136146545	0.370321274	0.999999046	-0.000175476	-2.09808E-05	3.8147E-06	1.588797569	3.403663635	9.258031845	-0.008773804	-0.001049042	0.000190735	-0.16796875	0.319580078	-1.015869141	887.18	21.18001957	-8.940114838	-99.50281921	-63
35827	0	0.063964844	0.141845703	0.36932373	0.999999046	0.000473022	3.14713E-05	0.00019455	1.599121094	3.546142578	9.233093262	0.023651124	0.001573563	0.009727478	-0.16796875	0.317382813	-1.006835938	887.18	21.22732428	-8.931928106	-99.49064739	-63
35828	0	0.063081741	0.141924858	0.368582726	0.999999046	-9.82285E-05	0.000205994	0.000208855	1.577043533	3.548121452	9.214568138	-0.004911423	0.010299683	0.010442734	-0.170654297	0.319580078	-1.004150391	887.18	21.20778754	-8.905899709	-99.47322315	-63
35829	0	0.063049316	0.138427734	0.368286133	0.999999046	-0.000152588	7.72476E-05	0.000160217	1.57623291	3.460693359	9.20715332	-0.007629395	0.003862381	0.008010864	-0.165527344	0.317138672	-1.012939453	887.12	21.18351639	-8.891832606	-99.45981132	-63
35830	0	0.065235138	0.14030838	0.368338585	0.999999046	0.000249863	-8.58307E-05	8.7738E-05	1.630878448	3.507709503	9.208464622	0.012493134	-0.004291534	0.004386902	-0.16796875	0.317382813	-1.00390625	887.14	21.20756838	-8.89250804	-99.4652677	-63
35831	0	0.065673828	0.138671875	0.36932373	0.999999046	4.19617E-05	-0.000159264	3.43323E-05	1.641845703	3.466796875	9.233093262	0.002098084	-0.007963181	0.001716614	-0.168212891	0.319580078	-1.007080078	887.2	21.20900063	-8.899151423	-99.47869805	-63
35832	0	0.063726425	0.139369011	0.370145798	0.999999046	0.000285149	-4.3869E-05	-1.23978E-05	1.593160629	3.484225273	9.253644943	0.014257431	-0.002193451	-0.000619888	-0.16796875	0.319580078	-1.010009766	887.24	21.23818781	-8.891747644	-99.49135284	-63
35833	0	0.063659668	0.139099121	0.369384766	0.999999046	0.000354767	-0.000166893	7.62939E-06	1.591491699	3.477478027	9.234619141	0.017738343	-0.00834465	0.00038147	-0.168212891	0.319580078	-1.007080078	887.14	21.27566631	-8.898526018	-99.50746975	-63
35834	0	0.062015533	0.143327713	0.370726585	0.999999046	0.000165939	-9.72748E-05	-3.8147E-06	1.550388336	3.583192825	9.268164635	0.008296967	-0.004863739	-0.000190735	-0.16796875	0.317382813	-1.006835938	887.08	21.29126298	-8.897495097	-99.52155255	-63
35835	0	0.064453125	0.139099121	0.367797852	0.999999046	0.000225067	-4.48227E-05	0.000221252	1.611328125	3.477478027	9.194946289	0.011253357	-0.002241135	0.011062622	-0.170410156	0.317382813	-1.012695313	887.12	21.30939564	-8.900487452	-99.51058992	-63
35836	0	0.062170029	0.143937111	0.369558334	0.999999046	3.71933E-05	-7.62939E-05	0.000141144	1.554250717	3.598427773	9.238958359	0.001859665	-0.003814697	0.00705719	-0.16796875	0.317382813	-1.006835938	887.14	21.30760496	-8.903617827	-99.5079835	-63
35837	0	0.064147949	0.141113281	0.369567871	0.999999046	0.000431061	2.76566E-05	-8.01086E-05	1.60369873	3.527832031	9.239196777	0.02155304	0.001382828	-0.004005432	-0.170166016	0.315185547	-1.012451172	887.12	21.35388964	-8.886643753	-99.52627728	-63
35838	0	0.064043999	0.140891075	0.368534088	0.999999046	-0.000320435	2.86102E-05	-0.000451088	1.601099968	3.522276878	9.213352203	-0.016021729	0.001430512	-0.022554399	-0.170410156	0.315185547	-1.006591797	887.18	21.32013883	-8.85431637	-99.58574904	-63
35839	0	0.069091797	0.138122559	0.368164063	0.999999046	0.001110077	0.000142097	7.24792E-05	1.727294922	3.453063965	9.204101563	0.055503857	0.007104875	0.003623963	-0.16796875	0.314941406	-1.006835938	887.18	21.44066008	-8.832198445	-99.58129999	-63
35840	0	0.065651894	0.14594841	0.367858887	0.999999046	-0.000401497	0.000118256	0.00039196	1.64129734	3.648710251	9.196472168	-0.020074845	0.005912781	0.019598008	-0.170166016	0.315185547	-1.009521484	887.2	21.38297543	-8.826276623	-99.54584982	-63
35841	0	0.062133789	0.140197754	0.369445801	0.999999046	-3.05176E-05	0.000180244	0.000205994	1.553344727	3.504943848	9.23614502	-0.001525879	0.009012222	0.010299683	-0.16796875	0.317382813	-1.006835938	887.14	21.37035146	-8.806063126	-99.52620033	-63
35842	0	0.062850952	0.139355659	0.370391846	0.999999046	0.00028038	-0.000135422	0.00019455	1.571273804	3.483891487	9.259796143	0.014019013	-0.006771088	0.009727478	-0.16796875	0.314941406	-1.009765625	887.14	21.39540137	-8.8192044	-99.5203474	-63
35843	0	0.061828613	0.144226074	0.371398926	0.999999046	0.000183105	-0.000216484	4.19617E-05	1.545715332	3.605651855	9.284973145	0.009155274	-0.010824204	0.002098084	-0.165527344	0.317138672	-1.012939453	887.2	21.4123862	-8.834686211	-99.53011219	-63
35844	0	0.062184334	0.134407997	0.372970581	0.999999046	0.000372887	-0.000200272	-0.000203133	1.554608345	3.360199928	9.324264526	0.018644334	-0.010013581	-0.010156632	-0.165527344	0.317138672	-1.010009766	887.08	21.45459658	-8.838263189	-99.56567925	-63
35845	0	0.059570313	0.144226074	0.370849609	0.999999046	0.000465393	-0.000155449	-0.000473022	1.489257813	3.605651855	9.271240234	0.023269655	-0.007772446	-0.023651125	-0.16796875	0.314941406	-1.006835938	887.18	21.51160021	-8.825645715	-99.63163224	-63
35846	0	0.062915802	0.134376526	0.371376038	0.999999046	0.000656128	-0.000408173	-0.000476837	1.57289505	3.359413147	9.28440094	0.032806401	-0.020408633	-0.023841861	-0.167724609	0.312744141	-1.015380859	887.12	21.59170082	-8.839874944	-99.70509001	-63
35847	0	0.063659668	0.145996094	0.367797852	0.999999046	0.000782013	-0.000487328	-0.000278473	1.591491699	3.649902344	9.194946289	0.039100653	-0.024366383	-0.013923647	-0.170166016	0.312744141	-1.012207031	887.14	21.68361402	-8.870966656	-99.76299447	-63
35848	0	0.067482948	0.140082359	0.370625496	0.999999046	0.000775337	-0.000347137	6.77109E-05	1.687073708	3.502058983	9.265637398	0.038766866	-0.017356875	0.003385544	-0.167724609	0.310546875	-1.012207031	887.18	21.76787323	-8.902069919	-99.77380646	-63
35849	0	0.063232422	0.147460938	0.367370605	0.999999046	0.000461578	-0.000338554	-0.000125885	1.580810547	3.686523438	9.184265137	0.02307892	-0.01692772	-0.006294251	-0.169921875	0.308349609	-1.009033203	887.18	21.81950727	-8.924108098	-99.80801411	-63
35850	0	0.064911842	0.141346931	0.368538857	0.999999046	0.000846863	-0.000499725	3.33786E-05	1.622796059	3.533673286	9.213471413	0.042343146	-0.024986271	0.00166893	-0.172363281	0.308349609	-1.01171875	887.2	21.91354525	-8.970225841	-99.83324632	-63
35851	0	0.062927246	0.152587891	0.367675781	0.999999046	0.000110626	-0.000422478	-8.39233E-05	1.573181152	3.814697266	9.191894531	0.005531311	-0.021123887	-0.004196167	-0.172363281	0.306152344	-1.008789063	887.2	21.92502645	-9.003132387	-99.86749851	-63
35852	0	0.063583374	0.138885498	0.369971275	0.999999046	9.82285E-05	-0.000440598	-0.000179291	1.589584351	3.472137451	9.249281883	0.004911423	-0.022029878	-0.008964539	-0.174804688	0.30859375	-1.01171875	887.14	21.93646534	-9.033964308	-99.91367146	-63
35853	0	0.065368652	0.149353027	0.367614746	0.999999046	0.000598907	-0.000247002	0.000152588	1.634216309	3.733825684	9.190368652	0.029945376	-0.012350083	0.007629395	-0.177001953	0.306396484	-1.011230469	887.18	21.99853748	-9.058565482	-99.91840073	-63
35854	0	0.063702583	0.142450333	0.368328094	0.999999046	-1.90735E-06	-0.000368118	-0.000209808	1.592564583	3.561258316	9.208202362	-9.53674E-05	-0.018405915	-0.010490418	-0.174560547	0.306152344	-1.014404297	887.18	21.99855717	-9.08055215	-99.96188432	-63
35855	0	0.067016602	0.146972656	0.367675781	0.999999046	0.000679016	-0.000189781	0.000217438	1.675415039	3.674316406	9.191894531	0.033950809	-0.00948906	0.010871888	-0.177001953	0.304199219	-1.008300781	887.06	22.06816559	-9.102144518	-99.95647167	-63
35856	0	0.065693855	0.146647453	0.365986824	0.999999046	-0.000128746	-1.90735E-05	0.000400543	1.642346382	3.666186333	9.149670601	-0.006437302	-0.000953674	0.020027161	-0.174560547	0.303955078	-1.014160156	887.12	22.04095598	-9.113639518	-99.91914734	-63
35857	0	0.065612793	0.144470215	0.368347168	0.999999046	-0.000118256	0.000245094	0.000137329	1.640319824	3.611755371	9.208679199	-0.005912781	0.012254715	0.006866455	-0.174560547	0.303955078	-1.008300781	887.18	22.01749663	-9.08586823	-99.90108012	-63
35858	0	0.065349579	0.14344883	0.369450569	0.999999046	0.00019455	-5.53131E-05	-8.39233E-05	1.633739471	3.586220741	9.236264229	0.009727478	-0.002765656	-0.004196167	-0.177001953	0.303955078	-1.014160156	887.12	22.03553745	-9.080612569	-99.92140132	-63
35859	0	0.064575195	0.145690918	0.366333008	0.999999046	-3.05176E-05	2.38419E-05	-0.000213623	1.614379883	3.642272949	9.158325195	-0.001525879	0.001192093	-0.010681152	-0.177001953	0.304199219	-1.011230469	887.12	22.02943338	-9.061463592	-99.9527946	-63
35860	0	0.064190865	0.144413948	0.36750412	0.999999046	3.91006E-05	-0.000133514	-0.00017643	1.604771614	3.610348701	9.187602997	0.001955032	-0.00667572	-0.008821488	-0.177001953	0.304199219	-1.011230469	887.18	22.03166616	-9.060704001	-99.98632647	-63
35861	0	0.064758301	0.14440918	0.368591309	0.999999046	1.90735E-05	-0.000185966	-0.000267029	1.61895752	3.610229492	9.214782715	0.000953674	-0.009298325	-0.013351441	-0.177001953	0.304199219	-1.011230469	887.14	22.03339544	-9.061714244	-100.0309391	-63
35862	0	0.065306664	0.144274712	0.368560791	0.999999046	9.72748E-05	-4.19617E-05	-0.000199318	1.632666588	3.60686779	9.214019775	0.004863739	-0.002098084	-0.009965897	-0.177001953	0.304199219	-1.008300781	887.18	22.04183867	-9.050453498	-100.0624231	-63
35863	0	0.063598633	0.147644043	0.367675781	0.999999046	-0.000198364	-0.000220299	-9.15527E-05	1.58996582	3.691101074	9.191894531	-0.009918213	-0.011014939	-0.004577637	-0.177001953	0.306396484	-1.011230469	887.14	22.01587576	-9.062804819	-100.0881381	-63
35864	0	0.065811157	0.141222	0.370204926	0.999999046	9.44138E-05	-0.000141144	-0.000142097	1.645278931	3.530550003	9.255123138	0.004720688	-0.00705719	-0.007104874	-0.177246094	0.306396484	-1.008544922	887.14	22.02350066	-9.064715612	-100.1163256	-63
35865	0	0.065490723	0.141967773	0.36932373	0.999999046	0.000480652	-0.000220299	-9.91821E-05	1.637268066	3.549194336	9.233093262	0.024032594	-0.011014939	-0.004959107	-0.179443359	0.304199219	-1.010986328	887.12	22.07497985	-9.076981148	-100.1452569	-63
35866	0	0.06415844	0.149414063	0.367869377	0.999999046	0.000396729	-9.91821E-05	1.04904E-05	1.603960991	3.735351563	9.196734428	0.019836426	-0.004959107	0.000524521	-0.179443359	0.304199219	-1.010986328	887.14	22.11430325	-9.081123163	-100.1566802	-63
35867	0	0.067749023	0.141357422	0.3671875	0.999999046	0.000923157	-0.000109673	0.000408173	1.693725586	3.533935547	9.1796875	0.046157845	-0.005483628	0.020408634	-0.179443359	0.304199219	-1.013916016	887.14	22.20703673	-9.10379032	-100.1247866	-63
35868	0	0.06526947	0.153880119	0.36499691	0.999999046	0.000100136	0.000267029	0.000483513	1.631736755	3.847002983	9.124922752	0.00500679	0.013351441	0.024175645	-0.179199219	0.302001953	-1.013671875	887.12	22.20193625	-9.089849018	-100.0694917	-63
35869	0	0.064758301	0.145568848	0.367675781	0.999999046	-0.000320435	0.000191689	0.000198364	1.61895752	3.639221191	9.191894531	-0.016021729	0.009584427	0.009918213	-0.177001953	0.301757813	-1.008056641	887.14	22.15393332	-9.071602262	-100.0471182	-63
35870	0	0.065285683	0.145367622	0.368098259	0.999999046	-8.2016E-05	0.000154495	0.000190735	1.632142067	3.634190559	9.202456474	-0.0041008	0.007724762	0.009536743	-0.177001953	0.304199219	-1.008300781	887.06	22.13356268	-9.057050033	-100.0274611	-63
35871	0	0.066467285	0.147644043	0.367370605	0.999999046	-1.14441E-05	5.05447E-05	0.0001297	1.661682129	3.691101074	9.184265137	-0.000572205	0.002527237	0.006484985	-0.177001953	0.304199219	-1.008300781	887.08	22.12308005	-9.051042137	-100.0190832	-63
35872	0	0.063842773	0.144444466	0.368600845	0.999999046	-0.000403404	5.34058E-05	-0.000119209	1.596069336	3.611111641	9.215021133	-0.020170212	0.002670288	-0.005960465	-0.174560547	0.303955078	-1.014160156	887.24	22.07176126	-9.03402069	-100.0313541	-63
35873	0	0.065429688	0.141967773	0.369995117	0.999999046	0.000270844	-0.000109673	7.62939E-05	1.635742188	3.549194336	9.24987793	0.013542175	-0.005483627	0.003814697	-0.174560547	0.301757813	-1.008300781	887.2	22.09526819	-9.042842371	-100.0315205	-63
35874	0	0.062298775	0.15003109	0.368923187	0.999999046	-0.000335693	9.91821E-05	0.000160217	1.557469368	3.750777245	9.223079681	-0.016784668	0.004959107	0.008010864	-0.179443359	0.304199219	-1.013916016	887.2	22.04656446	-9.033014384	-100.0201159	-63
35875	0	0.063598633	0.139892578	0.36907959	0.999999046	-7.62939E-06	-5.24521E-05	0.000198364	1.58996582	3.497314453	9.226989746	-0.00038147	-0.002622604	0.009918213	-0.174560547	0.303955078	-1.011230469	887.2	22.03554864	-9.040953327	-100.0036226	-63
35876	0	0.064917564	0.148528099	0.369257927	0.999999046	-0.000197411	-2.28882E-05	0.000156403	1.62293911	3.713202477	9.231448174	-0.009870529	-0.001144409	0.007820129	-0.176757813	0.303955078	-1.017089844	887.18	22.00339111	-9.043999028	-99.99219375	-63
35877	0	0.065429688	0.142211914	0.367858887	0.999999046	0	-3.71933E-05	0.000190735	1.635742188	3.555297852	9.196472168	0	-0.001859665	0.009536743	-0.174560547	0.303955078	-1.014160156	887.18	21.99321608	-9.050146201	-99.97485292	-63
35878	0	0.064292908	0.147680283	0.36779213	0.999999046	-0.000375748	-2.28882E-05	8.01086E-05	1.607322693	3.692007065	9.194803238	-0.018787384	-0.001144409	0.004005432	-0.174560547	0.303955078	-1.008300781	887.22	21.94185957	-9.050055028	-99.97081753	-63
35879	0	0.065612793	0.141418457	0.368347168	0.999999046	0.000133514	-8.29697E-05	4.57764E-05	1.640319824	3.535461426	9.208679199	0.00667572	-0.004148483	0.002288818	-0.174804688	0.30859375	-1.008789063	887.22	21.94966929	-9.05499152	-99.97244458	-63
35880	0	0.06403923	0.145477295	0.368235588	0.999999046	-6.96182E-05	-5.34058E-05	1.52588E-05	1.600980759	3.636932373	9.205889702	-0.003480911	-0.002670288	0.000762939	-0.177001953	0.303955078	-1.014160156	887.14	21.93452302	-9.055494195	-99.97838481	-63
35881	0	0.064880371	0.141967773	0.369384766	0.999999046	0.000167847	-5.62668E-05	0.000110626	1.622009277	3.549194336	9.234619141	0.008392334	-0.002813339	0.005531311	-0.177001953	0.306396484	-1.011230469	887.14	21.94481929	-9.060443666	-99.97469445	-63
35882	0	0.064526558	0.145616531	0.368412971	0.999999046	8.7738E-05	-3.8147E-06	8.29697E-05	1.613163948	3.640413284	9.210324287	0.004386902	-0.000190735	0.004148483	-0.174560547	0.306152344	-1.011474609	887.18	21.94607848	-9.058670998	-99.96716308	-63
35883	0	0.063842773	0.143432617	0.368835449	0.999999046	-5.72205E-05	2.38419E-05	8.01086E-05	1.596069336	3.58581543	9.22088623	-0.002861023	0.001192093	0.004005432	-0.174560547	0.306152344	-1.011474609	887.12	21.93049379	-9.053839146	-99.95887424	-63
35884	0	0.064764977	0.147468567	0.368061066	0.999999046	7.9155E-05	-9.72748E-05	0.000239372	1.619124413	3.686714172	9.201526642	0.003957748	-0.004863739	0.011968613	-0.174560547	0.306152344	-1.011474609	887.12	21.92878668	-9.068741737	-99.93856229	-63
35885	0	0.064758301	0.142578125	0.368286133	0.999999046	-0.00044632	-3.71933E-05	0.000148773	1.61895752	3.564453125	9.20715332	-0.02231598	-0.001859665	0.00743866	-0.174560547	0.306152344	-1.014404297	887.2	21.86787482	-9.07342881	-99.92429255	-63
35886	0	0.065805435	0.14369297	0.369080544	0.999999046	0.000175476	-1.71661E-05	0.000159264	1.64513588	3.592324257	9.227013588	0.008773804	-0.000858307	0.007963181	-0.174804688	0.30859375	-1.01171875	887.18	21.87784323	-9.076521461	-99.90925255	-63
35887	0	0.063476563	0.142211914	0.368652344	0.999999046	-0.000190735	1.23978E-05	0.000190735	1.586914063	3.555297852	9.216308594	-0.009536743	0.000619888	0.009536743	-0.177246094	0.306396484	-1.008544922	887.18	21.84497452	-9.077785496	-99.89585839	-63
35888	0	0.06443882	0.146684647	0.369258881	0.999999046	0.000386238	7.05719E-05	0.000328064	1.610970497	3.667116165	9.231472015	0.019311906	0.003528595	0.016403199	-0.174560547	0.306152344	-1.011474609	887.18	21.87560306	-9.078732136	-99.85942778	-63
35889	0	0.060791016	0.143554688	0.368225098	0.999999046	-0.0001297	-0.000163078	0.000202179	1.519775391	3.588867188	9.205627441	-0.006484985	-0.008153916	0.010108948	-0.172363281	0.306152344	-1.01171875	887.14	21.85080626	-9.099000487	-99.84185752	-63
35890	0	0.065180779	0.142943382	0.369216919	0.999999046	0.000772476	-0.000375748	0.000159264	1.629519463	3.573584557	9.230422974	0.038623815	-0.018787386	0.007963182	-0.174560547	0.306152344	-1.014404297	887.18	21.93149385	-9.140102266	-99.8399899	-63
35891	0	0.064086914	0.146728516	0.367675781	0.999999046	0.000408173	-0.000166893	-0.000148773	1.602172852	3.668212891	9.191894531	0.020408631	-0.008344651	-0.00743866	-0.177001953	0.304199219	-1.011230469	887.14	21.97436172	-9.145781853	-99.86766122	-63
35892	0	0.066484451	0.150160789	0.367713928	0.999999046	0.000332832	-0.000152588	2.67029E-05	1.662111282	3.754019737	9.192848206	0.016641617	-0.007629395	0.001335144	-0.174560547	0.303955078	-1.014160156	887.22	22.00576125	-9.157545588	-99.86919358	-63
35893	0	0.064086914	0.143859863	0.368530273	0.999999046	-0.000659943	-1.04904E-05	-9.15527E-05	1.602172852	3.596496582	9.213256836	-0.032997134	-0.000524521	-0.004577637	-0.174560547	0.303955078	-1.014160156	887.12	21.92435173	-9.149124536	-99.87716457	-63
35894	0	0.064007759	0.142651558	0.369083405	0.999999046	-0.000207901	0.000162125	-1.52588E-05	1.600193977	3.566288948	9.227085114	-0.01039505	0.008106232	-0.000762939	-0.174560547	0.306152344	-1.014404297	887.06	21.89212089	-9.125611302	-99.86970342	-63
35895	0	0.063415527	0.14251709	0.369567871	0.999999046	-0.000110626	9.25064E-05	0.000175476	1.585388184	3.562927246	9.239196777	-0.005531311	0.00462532	0.008773804	-0.177001953	0.306396484	-1.011230469	887.26	21.86811503	-9.117597483	-99.85148316	-63
35896	0	0.063458443	0.143571854	0.369244576	0.999999046	-0.000151634	0.000146866	0.000259399	1.586461067	3.589296341	9.231114388	-0.007581711	0.007343292	0.012969971	-0.174804688	0.30859375	-1.01171875	887.18	21.83756092	-9.107333788	-99.81771805	-63
35897	0	0.064208984	0.144470215	0.369628906	0.999999046	-9.53674E-05	6.58035E-05	0.000240326	1.605224609	3.611755371	9.240722656	-0.004768372	0.003290176	0.012016297	-0.174804688	0.30859375	-1.008789063	887.12	21.81432133	-9.104861488	-99.79126114	-63
35898	0	0.065084457	0.143452644	0.367588997	0.999999046	5.72205E-06	-1.90735E-06	0.000189781	1.627111435	3.586316109	9.189724922	0.000286102	-9.53674E-05	0.00948906	-0.174804688	0.30859375	-1.008789063	887.26	21.80397781	-9.107492135	-99.77331122	-63
35899	0	0.064758301	0.145080566	0.368225098	0.999999046	-0.000228882	0.000134468	3.8147E-06	1.61895752	3.62701416	9.205627441	-0.011444092	0.006723404	0.000190735	-0.174804688	0.30859375	-1.01171875	887.2	21.769052	-9.087727682	-99.76880277	-63
35900	0	0.065515518	0.142774582	0.368062973	0.999999046	0.000216484	9.53674E-06	8.01086E-05	1.637887955	3.569364548	9.201574326	0.010824204	0.000476837	0.004005432	-0.172363281	0.310546875	-1.011962891	887.18	21.78468751	-9.084585479	-99.75603089	-63
35901	0	0.062194824	0.146850586	0.368041992	0.999999046	-0.000484467	-6.38962E-05	0.000106812	1.554870605	3.671264648	9.201049805	-0.024223329	-0.003194809	0.005340576	-0.174804688	0.30859375	-1.014648438	887.2	21.72018623	-9.090294055	-99.74775286	-63
35902	0	0.062883377	0.143670082	0.370186806	0.999999046	-0.000284195	-0.000156403	-0.000100136	1.572084427	3.591752052	9.254670143	-0.014209748	-0.00782013	-0.00500679	-0.172363281	0.308349609	-1.005859375	887.12	21.68277031	-9.097018516	-99.76356817	-63
35903	0	0.062988281	0.143371582	0.369812012	0.999999046	-0.00056076	-0.000319481	-0.000354767	1.574707031	3.584289551	9.245300293	-0.028038027	-0.015974046	-0.017738344	-0.174804688	0.310791016	-1.014648438	887.14	21.61910666	-9.11031393	-99.81290795	-63
35904	0	0.066908836	0.13885498	0.368154526	0.999999046	0.000264168	-6.48499E-05	-9.53674E-07	1.672720909	3.471374512	9.203863144	0.013208389	-0.003242493	-4.76837E-05	-0.174804688	0.310791016	-1.011962891	887.14	21.64203368	-9.111614529	-99.81402202	-63
35905	0	0.063781738	0.145385742	0.368652344	0.999999046	-0.000408173	0.000229836	0.000171661	1.594543457	3.634643555	9.216308594	-0.020408631	0.011491776	0.008583069	-0.177246094	0.30859375	-1.008544922	887.06	21.58307837	-9.088781759	-99.79229717	-63
35906	0	0.064332008	0.141094208	0.369101524	0.999999046	-6.29425E-05	6.29425E-05	0.000236511	1.608300209	3.527355194	9.227538109	-0.003147125	0.003147125	0.011825562	-0.174804688	0.310791016	-1.011962891	887.18	21.56365255	-9.08647342	-99.76397829	-63
35907	0	0.064453125	0.143798828	0.368286133	0.999999046	-7.62939E-06	8.4877E-05	0.000270844	1.611328125	3.594970703	9.20715332	-0.00038147	0.004243851	0.013542175	-0.177490234	0.313232422	-1.006103516	887.2	21.5498944	-9.083286945	-99.73967154	-63
35908	0	0.063430786	0.142842293	0.368908882	0.999999046	-0.000287056	-3.05176E-05	6.77109E-05	1.585769653	3.57105732	9.222722054	-0.014352799	-0.001525879	0.003385544	-0.174804688	0.312988281	-1.014892578	887.18	21.50840337	-9.083821173	-99.73225947	-63
35909	0	0.06463623	0.142883301	0.370239258	0.999999046	0.000263214	1.62125E-05	5.34058E-05	1.615905762	3.57208252	9.255981445	0.013160706	0.000810623	0.002670288	-0.175048828	0.312988281	-1.009033203	887.14	21.52990742	-9.078795337	-99.72764185	-63
35910	0	0.063053131	0.142032623	0.368884087	0.999999046	-0.000139236	-0.000135422	-0.000205994	1.576328278	3.550815582	9.222102165	-0.006961823	-0.006771088	-0.010299683	-0.175048828	0.310791016	-1.006103516	887.14	21.51072248	-9.078989612	-99.75818936	-63
35911	0	0.065429688	0.143005371	0.369384766	0.999999046	0.000358582	-0.000243187	0.000125885	1.635742188	3.575134277	9.234619141	0.017929078	-0.012159348	0.006294251	-0.174804688	0.310791016	-1.009033203	887.18	21.54370087	-9.104694429	-99.75454623	-63
35912	0	0.064546585	0.142398834	0.368579865	0.999999046	-4.673E-05	-0.000362396	4.19617E-05	1.613664627	3.559970856	9.214496613	-0.002336502	-0.018119812	0.002098084	-0.174804688	0.310791016	-1.009033203	887.14	21.53249473	-9.139597993	-99.7633786	-63
35913	0	0.064025879	0.141784668	0.367919922	0.999999046	0.000415802	-5.24521E-05	0.000198364	1.600646973	3.544616699	9.197998047	0.020790101	-0.002622604	0.009918213	-0.177490234	0.310791016	-1.005859375	887.18	21.56949893	-9.148035744	-99.74953533	-63
35914	0	0.062291145	0.143836021	0.369135857	0.999999046	-0.000123978	-0.00018692	1.90735E-05	1.557278633	3.595900536	9.228396416	-0.006198883	-0.009346008	0.000953674	-0.177246094	0.312988281	-1.011962891	887.2	21.54871058	-9.163141553	-99.75597295	-63
35915	0	0.065612793	0.138793945	0.368530273	0.999999046	9.53674E-05	-0.000224113	3.05176E-05	1.640319824	3.469848633	9.213256836	0.004768372	-0.011205673	0.001525879	-0.174804688	0.310791016	-1.011962891	887.18	21.55296623	-9.182767786	-99.75658597	-63
35916	0	0.066702843	0.141972542	0.368839264	0.999999046	0.000405312	-3.8147E-05	0.000338554	1.667571068	3.549313545	9.220981598	0.02026558	-0.001907349	0.01692772	-0.177490234	0.310791016	-1.005859375	887.12	21.58613172	-9.195649005	-99.72526995	-63
35917	0	0.063537598	0.144042969	0.370056152	0.999999046	-0.00025177	-6.00815E-05	0	1.588439941	3.601074219	9.251403809	-0.012588501	-0.003004074	0	-0.177246094	0.310791016	-1.008789063	887.12	21.55004296	-9.196527013	-99.72908923	-63
35918	0	0.064864159	0.135738373	0.370909691	0.999999046	0.000562668	-0.000171661	-1.23978E-05	1.621603966	3.39345932	9.272742271	0.028133394	-0.008583069	-0.000619888	-0.177246094	0.310791016	-1.01171875	887.12	21.60791295	-9.208780325	-99.73657715	-63
35919	0	0.064575195	0.145507813	0.367980957	0.999999046	0.000411987	-0.000227928	7.62939E-05	1.614379883	3.637695313	9.199523926	0.020599366	-0.011396409	0.003814697	-0.177001953	0.30859375	-1.014404297	887.14	21.64753959	-9.230740535	-99.734459	-63
35920	0	0.06409359	0.141407013	0.368506432	0.999999046	0.000462532	-0.000175476	0.000102043	1.602339745	3.535175323	9.212660789	0.023126603	-0.008773804	0.005102158	-0.177246094	0.30859375	-1.011474609	887.14	21.69208964	-9.248155449	-99.72856156	-63
35921	0	0.065063477	0.147277832	0.3671875	0.999999046	0.000324249	-0.00020504	0.000137329	1.626586914	3.681945801	9.1796875	0.016212464	-0.010251999	0.006866455	-0.1796875	0.30859375	-1.008544922	887.14	21.72060315	-9.270203562	-99.72637371	-63
35922	0	0.064216614	0.144080162	0.367189407	0.999999046	5.14984E-05	-0.000238419	1.52588E-05	1.605415344	3.602004051	9.179735184	0.002574921	-0.011920929	0.000762939	-0.177001953	0.306396484	-1.011230469	887.08	21.72029251	-9.290583132	-99.73043304	-63
35923	0	0.065856934	0.14465332	0.36706543	0.999999046	0.000431061	-0.000369072	-6.48499E-05	1.64642334	3.616333008	9.176635742	0.021553041	-0.018453599	-0.003242493	-0.1796875	0.30859375	-1.008544922	887.14	21.76586882	-9.321492434	-99.75397891	-63
35924	0	0.064949036	0.1471138	0.366889954	0.999999046	-9.53674E-07	-0.000326157	-9.91821E-05	1.623725891	3.677845001	9.17224884	-4.76837E-05	-0.016307831	-0.004959107	-0.179443359	0.30859375	-1.014404297	887.08	21.76245841	-9.346331958	-99.77413208	-63
35925	0	0.065490723	0.143310547	0.367492676	0.999999046	0.000213623	-0.00026226	-3.8147E-05	1.637268066	3.582763672	9.187316895	0.010681153	-0.013113022	-0.001907349	-0.181884766	0.306396484	-1.010986328	887.18	21.78211167	-9.366957581	-99.79149082	-63
35926	0	0.065428734	0.144265175	0.367396355	0.999999046	-7.82013E-05	-0.000276566	-9.53674E-05	1.635718346	3.606629372	9.184908867	-0.003910065	-0.013828278	-0.004768372	-0.179443359	0.306396484	-1.008300781	887.22	21.76948294	-9.386654292	-99.80967367	-63
35927	0	0.064880371	0.142883301	0.367736816	0.999999046	0.000102997	-0.000304222	-7.62939E-06	1.622009277	3.57208252	9.19342041	0.005149841	-0.015211106	-0.00038147	-0.181884766	0.306640625	-1.008056641	887.12	21.77623513	-9.412975621	-99.82390591	-63
35928	0	0.065834999	0.143936157	0.368398666	0.999999046	7.15256E-05	-0.000104904	-7.34329E-05	1.645874977	3.598403931	9.20996666	0.003576279	-0.005245209	-0.003671646	-0.179443359	0.306396484	-1.008300781	887.12	21.77915515	-9.415267972	-99.83012301	-63
35929	0	0.065246582	0.145141602	0.367553711	0.999999046	-1.90735E-05	-0.000105858	0	1.631164551	3.628540039	9.188842773	-0.000953674	-0.005292892	0	-0.179443359	0.306396484	-1.011230469	887.06	21.77048105	-9.420737254	-99.82655874	-63
35930	0	0.064287186	0.14445591	0.366568565	0.999999046	7.82013E-05	-0.000156403	-8.58307E-06	1.607179642	3.611397743	9.164214134	0.003910065	-0.007820129	-0.000429153	-0.181884766	0.306640625	-1.008056641	887.08	21.77351047	-9.43113652	-99.83281617	-63
35931	0	0.066833496	0.143493652	0.368286133	0.999999046	0.000209808	-0.000124931	4.19617E-05	1.670837402	3.587341309	9.20715332	0.010490418	-0.006246567	0.002098084	-0.181884766	0.306640625	-1.008056641	887.2	21.7904872	-9.440363039	-99.83166254	-63
35932	0	0.065595627	0.143703461	0.368941307	0.999999046	0.000159264	-0.000249863	-3.43323E-05	1.639890671	3.592586517	9.223532677	0.007963181	-0.012493134	-0.001716614	-0.181884766	0.306640625	-1.008056641	887.08	21.80388327	-9.45959122	-99.84279903	-63
35933	0	0.064697266	0.143005371	0.368530273	0.999999046	0.000110626	-0.000155449	7.62939E-06	1.617431641	3.575134277	9.213256836	0.005531311	-0.007772446	0.00038147	-0.181884766	0.306396484	-1.010986328	887.2	21.81024312	-9.470469467	-99.84311014	-63
35934	0	0.065729141	0.144245148	0.368110657	0.999999046	0.00069809	-0.00019455	0.000117302	1.643228531	3.606128693	9.202766418	0.034904483	-0.009727479	0.005865098	-0.184326172	0.306640625	-1.005126953	887.12	21.88224958	-9.490135711	-99.84134733	-63
35935	0	0.064880371	0.150146484	0.366149902	0.999999046	0.000202179	-7.53403E-05	0.00025177	1.622009277	3.753662109	9.153747559	0.010108948	-0.003767014	0.012588501	-0.184326172	0.304443359	-1.010742188	887.14	21.89449398	-9.502773988	-99.81740518	-63
35936	0	0.063971519	0.146050453	0.366934776	0.999999046	-0.000191689	-0.000221252	0.000293732	1.599287987	3.65126133	9.173369408	-0.009584427	-0.011062622	0.014686585	-0.184326172	0.304443359	-1.0078125	887.18	21.86197047	-9.532586131	-99.79612958	-63
35937	0	0.066223145	0.145874023	0.365966797	0.999999046	-0.000259399	-0.000170708	0.000164032	1.655578613	3.646850586	9.149169922	-0.012969971	-0.008535385	0.008201599	-0.184326172	0.304443359	-1.010742188	887.2	21.82373736	-9.551466537	-99.78446856	-63
35938	0	0.068836212	0.141815186	0.367115021	0.999999046	4.19617E-05	-2.86102E-05	0.000124931	1.720905304	3.545379639	9.177875519	0.002098084	-0.001430511	0.006246567	-0.184326172	0.306640625	-1.010986328	887.12	21.81961204	-9.553675183	-99.77027299	-63
35939	0	0.067565918	0.144042969	0.366027832	0.999999046	8.39233E-05	0.0001688	0.000236511	1.689147949	3.601074219	9.150695801	0.004196167	0.008440018	0.011825562	-0.184326172	0.306640625	-1.008056641	887.22	21.81690374	-9.539679675	-99.73831042	-63
35940	0	0.065433502	0.140777588	0.367002487	0.999999046	9.63211E-05	0.000238419	4.86374E-05	1.635837555	3.519439697	9.17506218	0.004816055	0.011920929	0.00243187	-0.184326172	0.306640625	-1.013916016	887.2	21.81833389	-9.51021905	-99.72169437	-63
35941	0	0.063903809	0.149963379	0.367431641	0.999999046	0.000263214	0.000164986	0.000377655	1.597595215	3.749084473	9.185791016	0.013160706	0.008249283	0.018882752	-0.181884766	0.304199219	-1.008056641	887.2	21.83383568	-9.502435048	-99.6719326	-63
35942	0	0.063586235	0.144004822	0.367010117	0.999999046	-0.000110626	0.000171661	0.000151634	1.589655876	3.600120544	9.175252914	-0.005531311	0.008583069	0.007581711	-0.181884766	0.304199219	-1.010986328	887.2	21.81047467	-9.484168787	-99.64585855	-63
35943	0	0.065490723	0.14630127	0.367797852	0.999999046	4.95911E-05	8.58307E-06	0.000247955	1.637268066	3.657531738	9.194946289	0.002479553	0.000429153	0.012397766	-0.181640625	0.302001953	-1.0078125	887.2	21.80501608	-9.487303217	-99.61852622	-63
35944	0	0.06634903	0.142703056	0.367601395	0.999999046	-9.82285E-05	4.95911E-05	0.000174522	1.658725739	3.567576408	9.190034866	-0.004911423	0.002479553	0.00872612	-0.1796875	0.30859375	-1.011474609	887.2	21.78357529	-9.482949029	-99.5895841	-63
35945	0	0.065795898	0.145141602	0.366943359	0.999999046	0.000205994	9.25064E-05	0.000209808	1.644897461	3.628540039	9.173583984	0.010299683	0.004625321	0.010490418	-0.181884766	0.306396484	-1.010986328	887.18	21.79612003	-9.475510219	-99.562135	-63
35946	0	0.06572628	0.142090797	0.367751122	0.999999046	0.000242233	1.71661E-05	0.000183105	1.643157005	3.552269936	9.193778038	0.012111664	0.000858307	0.009155274	-0.181884766	0.306396484	-1.010986328	887.18	21.81372659	-9.474936874	-99.54114953	-63
35947	0	0.065979004	0.145141602	0.368408203	0.999999046	0.000530243	-6.67572E-06	0.000148773	1.649475098	3.628540039	9.210205078	0.026512147	-0.000333786	0.00743866	-0.179443359	0.306396484	-1.011230469	887.12	21.86515416	-9.475420463	-99.51887478	-63
35948	0	0.065538406	0.14270401	0.36807251	0.999999046	3.52859E-05	8.01086E-05	0.00014019	1.638460159	3.56760025	9.201812744	0.001764297	0.004005432	0.007009506	-0.181884766	0.304199219	-1.008056641	887.14	21.8592838	-9.466284501	-99.50279083	-63
35949	0	0.065246582	0.146850586	0.367492676	0.999999046	0.000106812	0.00017643	0.000267029	1.631164551	3.671264648	9.187316895	0.005340576	0.008821488	0.013351441	-0.181640625	0.302001953	-1.013671875	887.24	21.85879593	-9.452264719	-99.46701688	-63
35950	0	0.063668251	0.143476486	0.366080284	0.999999046	-6.48499E-05	0.000164032	0.000197411	1.591706276	3.586912155	9.152007103	-0.003242493	0.008201599	0.009870529	-0.181884766	0.306396484	-1.010986328	887.14	21.83993843	-9.436488197	-99.44145109	-63
35951	0	0.065551758	0.145324707	0.366516113	0.999999046	0.000148773	7.34329E-05	0.000190735	1.638793945	3.633117676	9.162902832	0.00743866	0.003671646	0.009536743	-0.179443359	0.306396484	-1.011230469	887.22	21.84639657	-9.43005178	-99.41493589	-63
35952	0	0.065796852	0.143821716	0.366726875	0.999999046	-8.29697E-05	9.53674E-05	0.000212669	1.644921303	3.595542908	9.168171883	-0.004148483	0.004768372	0.010633469	-0.176757813	0.303955078	-1.017089844	887.12	21.82575458	-9.42222254	-99.37678338	-63
35953	0	0.066101074	0.142883301	0.367980957	0.999999046	0.000301361	4.673E-05	0.000392914	1.652526855	3.57208252	9.199523926	0.015068055	0.002336502	0.019645692	-0.176757813	0.303955078	-1.017089844	887.18	21.84623719	-9.427269371	-99.32240077	-63
35954	0	0.065817833	0.148728371	0.365943909	0.999999046	2.67029E-05	0.000225067	0.000441551	1.645445824	3.718209267	9.148597717	0.001335144	0.011253357	0.022077561	-0.179443359	0.306396484	-1.014160156	887.12	21.83335058	-9.415424729	-99.26492686	-63
35955	0	0.065002441	0.142211914	0.370239258	0.999999046	-0.000286102	-1.04904E-05	3.8147E-05	1.625061035	3.555297852	9.255981445	-0.014305115	-0.000524521	0.001907349	-0.179443359	0.306396484	-1.011230469	887.2	21.79324284	-9.411396276	-99.26273436	-63
35956	0	0.065692902	0.145657539	0.36842823	0.999999046	0.000273705	-4.3869E-05	0.000155449	1.64232254	3.641438484	9.210705757	0.013685227	-0.002193451	0.007772446	-0.179443359	0.306396484	-1.008300781	887.18	21.81550742	-9.415908502	-99.2508593	-63
35957	0	0.06451416	0.14465332	0.367492676	0.999999046	0.000118256	5.81741E-05	0.000179291	1.612854004	3.616333008	9.187316895	0.005912781	0.002908707	0.008964539	-0.179443359	0.304199219	-1.010986328	887.14	21.81883761	-9.410525281	-99.2315737	-63
35958	0	0.064828873	0.144594193	0.368075371	0.999999046	9.91821E-05	0.000125885	0.000277519	1.620721817	3.614854813	9.20188427	0.004959107	0.006294251	0.013875962	-0.177246094	0.306396484	-1.008544922	887.12	21.81778365	-9.402078227	-99.19510549	-63
35959	0	0.065063477	0.14666748	0.365722656	0.999999046	-3.8147E-06	0.000103951	0.000247955	1.626586914	3.666687012	9.143066406	-0.000190735	0.005197525	0.012397766	-0.177001953	0.306396484	-1.014160156	887.14	21.80575809	-9.39468559	-99.16012901	-63
35960	0	0.06566906	0.143945694	0.36726284	0.999999046	6.67572E-06	6.67572E-05	0.000133514	1.641726494	3.598642349	9.181571007	0.000333786	0.00333786	0.00667572	-0.177001953	0.306396484	-1.011230469	887.14	21.79719864	-9.38639308	-99.14134911	-63
35961	0	0.065917969	0.147399902	0.36505127	0.999999046	-3.43323E-05	0.000161171	0.000198364	1.647949219	3.684997559	9.126281738	-0.001716614	0.008058548	0.009918213	-0.177246094	0.30859375	-1.008544922	887.14	21.78233489	-9.370848927	-99.1142967	-63
35962	0	0.065611839	0.142892838	0.367767334	0.999999046	-0.000177383	0.000144958	0.000185966	1.640295982	3.572320938	9.19418335	-0.008869171	0.007247925	0.009298325	-0.174560547	0.306152344	-1.011474609	887.18	21.75135633	-9.356513424	-99.08260149	-63
35963	0	0.065734863	0.143676758	0.368225098	0.999999046	0.000125885	-4.1008E-05	-1.14441E-05	1.643371582	3.591918945	9.205627441	0.006294251	-0.0020504	-0.000572205	-0.174804688	0.30859375	-1.008789063	887.18	21.75986762	-9.353607461	-99.08158057	-63
35964	0	0.064908028	0.14059639	0.368855476	0.999999046	0.000197411	6.10352E-05	3.33786E-05	1.622700691	3.514909744	9.221386909	0.009870529	0.003051758	0.00166893	-0.172119141	0.303955078	-1.014404297	887.2	21.77489655	-9.341730955	-99.06308305	-63
35965	0	0.063232422	0.147888184	0.367126465	0.999999046	-6.48499E-05	3.14713E-05	0.000270844	1.580810547	3.69720459	9.178161621	-0.003242493	0.001573563	0.013542175	-0.177001953	0.306396484	-1.011230469	887.2	21.75609574	-9.342995602	-99.03462262	-63
35966	0	0.064324379	0.14218998	0.369345665	0.999999046	-0.000133514	0.000160217	0.000228882	1.608109474	3.554749489	9.233641624	-0.00667572	0.008010864	0.011444092	-0.174560547	0.306152344	-1.011474609	887.14	21.72915103	-9.328721899	-99.0001054	-63
35967	0	0.064575195	0.147216797	0.367553711	0.999999046	-0.000236511	6.58035E-05	0.000339508	1.614379883	3.680419922	9.188842773	-0.011825562	0.003290176	0.016975403	-0.174804688	0.306396484	-1.008544922	887.14	21.68929309	-9.329151113	-98.96090326	-63
35968	0	0.064011574	0.139858246	0.367444992	0.999999046	-0.000329018	1.14441E-05	0.000182152	1.600289345	3.496456146	9.186124802	-0.016450882	0.000572205	0.00910759	-0.174804688	0.30859375	-1.014648438	887.14	21.64179806	-9.328656846	-98.93757251	-63
35969	0	0.065856934	0.143005371	0.3671875	0.999999046	0.000305176	-2.19345E-05	0.000221252	1.64642334	3.575134277	9.1796875	0.015258789	-0.001096725	0.011062622	-0.174804688	0.30859375	-1.008789063	887.18	21.66652291	-9.333426562	-98.9149194	-63
35970	0	0.066365242	0.146678925	0.367033958	0.999999046	9.15527E-05	0.000133514	0.000247002	1.65913105	3.666973114	9.175848961	0.004577637	0.00667572	0.012350083	-0.174804688	0.306396484	-1.008544922	887.18	21.66540962	-9.322801618	-98.88460742	-63
35971	0	0.066955566	0.141662598	0.367614746	0.999999046	0.000160217	0.000252724	0.000354767	1.67388916	3.541564941	9.190368652	0.008010865	0.012636185	0.017738343	-0.172363281	0.308349609	-1.008789063	887.22	21.66938688	-9.304146825	-98.83262602	-63
35972	0	0.061747551	0.146924019	0.366805077	0.999999046	-0.000136375	0.000202179	0.000170708	1.543688774	3.673100471	9.170126915	-0.006818771	0.010108948	0.008535385	-0.174804688	0.30859375	-1.014648438	887.14	21.64312995	-9.282926405	-98.80711654	-63
35973	0	0.06463623	0.143310547	0.367553711	0.999999046	0.000171661	3.14713E-05	0.00012207	1.615905762	3.582763672	9.188842773	0.008583069	0.001573563	0.006103516	-0.169921875	0.308349609	-1.014892578	887.14	21.6542201	-9.277828623	-98.78206725	-63
35974	0	0.064832687	0.146777153	0.366530418	0.999999046	-0.000270844	0.000175476	0.000285149	1.620817184	3.669428825	9.16326046	-0.013542176	0.008773804	0.014257431	-0.174804688	0.30859375	-1.014648438	887.2	21.61094266	-9.264298712	-98.74744156	-63
35975	0	0.063476563	0.141784668	0.368591309	0.999999046	-0.000247955	0.000184059	0.000213623	1.586914063	3.544616699	9.214782715	-0.012397766	0.009202957	0.010681153	-0.172363281	0.308349609	-1.008789063	887.2	21.57139883	-9.246768183	-98.71848525	-63
35976	0	0.063890457	0.14303875	0.367891312	0.999999046	-0.000256538	5.72205E-05	0.000117302	1.597261429	3.575968742	9.197282791	-0.01282692	0.002861023	0.005865097	-0.172363281	0.310546875	-1.011962891	887.22	21.53342735	-9.238665186	-98.70362895	-63
35977	0	0.065429688	0.141662598	0.36932373	0.999999046	9.15527E-05	0.000157356	0.000152588	1.635742188	3.541564941	9.233093262	0.004577637	0.007867813	0.007629395	-0.169921875	0.308349609	-1.011962891	887.2	21.53398245	-9.221423394	-98.67610951	-63
35978	0	0.062673569	0.145433426	0.367179871	0.999999046	-0.000640869	0.000263214	0.000124931	1.566839218	3.635835648	9.179496765	-0.03204346	0.013160707	0.006246567	-0.170166016	0.310546875	-1.006347656	887.14	21.45051666	-9.191651552	-98.65204282	-63
35979	0	0.064880371	0.137695313	0.368347168	0.999999046	3.05176E-05	0.000187874	7.24792E-05	1.622009277	3.442382813	9.208679199	0.001525879	0.009393692	0.003623962	-0.169921875	0.310546875	-1.012207031	887.12	21.44519821	-9.167767432	-98.63420502	-63
35980	0	0.063419342	0.143445015	0.369704247	0.999999046	9.44138E-05	-1.71661E-05	0.00018692	1.585483551	3.586125374	9.242606163	0.004720688	-0.000858307	0.009346008	-0.16796875	0.314941406	-1.009765625	887.22	21.44666587	-9.170511738	-98.60829198	-63
35981	0	0.063720703	0.139770508	0.370239258	0.999999046	0.000232697	-9.05991E-05	9.53674E-05	1.593017578	3.494262695	9.255981445	0.011634827	-0.004529953	0.004768372	-0.167724609	0.310546875	-1.009277344	887.18	21.46590393	-9.177244827	-98.59588282	-63
35982	0	0.065524101	0.143407822	0.368390083	0.999999046	0.000362396	7.05719E-05	0.000113487	1.638102531	3.585195541	9.209752083	0.018119812	0.003528595	0.005674362	-0.169921875	0.310546875	-1.015136719	887.14	21.4986572	-9.167632674	-98.57780733	-63
35983	0	0.063415527	0.144836426	0.367614746	0.999999046	3.43323E-05	-1.43051E-05	0.000114441	1.585388184	3.620910645	9.190368652	0.001716614	-0.000715256	0.005722046	-0.167724609	0.310546875	-1.012207031	887.12	21.49450847	-9.1670887	-98.55944252	-63
35984	0	0.061688423	0.141734123	0.369189262	0.999999046	0.00033474	-0.000211716	2.67029E-05	1.542210579	3.543353081	9.22973156	0.016736985	-0.010585785	0.001335144	-0.167724609	0.312744141	-1.009521484	887.18	21.52758311	-9.183795268	-98.55891674	-63
35985	0	0.062683105	0.145690918	0.368103027	0.999999046	0.000171661	-0.000281334	7.62939E-06	1.567077637	3.642272949	9.202575684	0.008583069	-0.014066696	0.00038147	-0.167724609	0.310546875	-1.012207031	887.18	21.54293038	-9.20704761	-98.56122022	-63
35986	0	0.064296722	0.14227581	0.368932724	0.999999046	0.00015831	-0.000276566	-4.95911E-05	1.60741806	3.556895256	9.2233181	0.007915497	-0.013828278	-0.002479553	-0.167724609	0.310546875	-1.012207031	887.18	21.55767514	-9.227391102	-98.56817864	-63
35987	0	0.064208984	0.141235352	0.369750977	0.999999046	0.000133514	-0.000308037	-6.48499E-05	1.605224609	3.530883789	9.243774414	0.00667572	-0.015401841	-0.003242493	-0.169921875	0.308349609	-1.011962891	887.2	21.56995417	-9.250442544	-98.58288619	-63
35988	0	0.064968109	0.140548706	0.36961174	0.999999046	0.000117302	-0.000230789	-0.000145912	1.624202728	3.513717651	9.240293503	0.005865097	-0.011539459	-0.007295609	-0.172363281	0.308349609	-1.01171875	887.18	21.58111588	-9.261876172	-98.60804136	-63
35989	0	0.064941406	0.141662598	0.367919922	0.999999046	0.000473022	-0.000212669	-8.39233E-05	1.623535156	3.541564941	9.197998047	0.023651124	-0.010633469	-0.004196167	-0.172363281	0.308349609	-1.01171875	887.14	21.63179169	-9.274011123	-98.62441303	-63
35990	0	0.061961174	0.145438194	0.367816925	0.999999046	0.000265121	-0.000108719	-0.000115395	1.54902935	3.635954857	9.195423126	0.013256073	-0.005435944	-0.00576973	-0.172363281	0.308349609	-1.01171875	887.18	21.65858805	-9.273594486	-98.63900698	-63
35991	0	0.063171387	0.144287109	0.367004395	0.999999046	0.000343323	-0.00039959	-0.000358582	1.579284668	3.607177734	9.175109863	0.017166139	-0.019979478	-0.017929078	-0.172363281	0.308349609	-1.008789063	887.18	21.70065453	-9.293785946	-98.691244	-63
35992	0	0.066351891	0.143792152	0.366363525	0.999999046	0.000367165	-0.000331879	-8.4877E-05	1.658797264	3.59480381	9.159088135	0.018358231	-0.016593934	-0.004243851	-0.174560547	0.306152344	-1.011474609	887.26	21.74026335	-9.31843734	-98.71388913	-63
35993	0	0.065856934	0.147155762	0.366882324	0.999999046	7.24792E-05	-0.000224113	4.95911E-05	1.64642334	3.678894043	9.172058105	0.003623962	-0.011205673	0.002479553	-0.172363281	0.306152344	-1.01171875	887.26	21.74318912	-9.337363172	-98.71064057	-63
35994	0	0.06444931	0.145005226	0.367991447	0.999999046	-4.3869E-05	-0.000133514	-1.14441E-05	1.611232758	3.625130653	9.199786186	-0.002193451	-0.00667572	-0.000572205	-0.177001953	0.306396484	-1.014160156	887.22	21.73324778	-9.3440327	-98.71996243	-63
