Counter	Temperature	VelInc_X	VelInc_Y	VelInc_Z	OriInc_w	OriInc_x	OriInc_y	OriInc_z	Acc_X	Acc_Y	Acc_Z	Gyr_X	Gyr_Y	Gyr_Z	Mag_X	Mag_Y	Mag_Z	Pressure	Roll	Pitch	Yaw	RSSI
64224	0	0.360699654	-0.108817101	0.119909286	0.999999046	3.14713E-05	-0.000694275	-0.000370979	9.017491341	-2.720427513	2.997732162	0.001573563	-0.034713749	-0.018548967	-0.836914063	0.484130859	0.368408203	887.08	-41.15528471	-65.9355096	-131.1717803	-55
64225	0	0.36151123	-0.108825684	0.122436523	0.999999046	7.24792E-05	-0.000658989	-0.000312805	9.037780762	-2.72064209	3.060913086	0.003623963	-0.032949451	-0.01564026	-0.839355469	0.481933594	0.371826172	887.06	-41.17757307	-66.02450786	-131.1389595	-55
64226	0	0.36198616	-0.108764648	0.123682976	0.999999046	-1.52588E-05	-0.000589371	-2.28882E-05	9.049654007	-2.719116211	3.092074394	-0.000762939	-0.029468538	-0.001144409	-0.839355469	0.484130859	0.368652344	887.06	-41.25453494	-66.08531478	-131.0506341	-55
64227	0	0.363586426	-0.108581543	0.124084473	0.999999046	-0.000217438	-0.00014782	0.000232697	9.089660645	-2.714538574	3.102111816	-0.010871887	-0.007390976	0.011634827	-0.839599609	0.481933594	0.377685547	886.96	-41.32916912	-66.08845122	-130.998352	-55
64228	0	0.363451958	-0.106181145	0.12478447	0.999999046	-5.62668E-05	0.000112534	0.000553131	9.086298943	-2.654528618	3.11961174	-0.002813339	0.005626679	0.027656557	-0.834716797	0.484130859	0.371337891	887.08	-41.40246934	-66.04467963	-130.9182506	-55
64229	0	0.365112305	-0.104736328	0.12322998	0.999999046	-0.000312805	0.000531197	0.000751495	9.127807617	-2.618408203	3.080749512	-0.015640261	0.026559834	0.037574774	-0.836914063	0.481933594	0.374511719	887.08	-41.47133398	-65.94978783	-130.8849239	-55
64230	0	0.361104012	-0.104013443	0.121594429	0.999999046	-0.000484467	0.000629425	0.000597954	9.027600288	-2.600336075	3.039860725	-0.024223332	0.031471258	0.029897695	-0.839355469	0.484130859	0.371582031	886.96	-41.51295394	-65.85806967	-130.8999541	-55
64231	0	0.359741211	-0.103210449	0.117675781	0.999999046	-0.000240326	0.000634193	0.000621796	8.993530273	-2.58026123	2.941894531	-0.012016298	0.031709675	0.031089787	-0.837158203	0.486328125	0.371337891	887.02	-41.53013329	-65.76426276	-130.9060987	-55
64232	0	0.361598969	-0.102863312	0.11863327	0.999999046	-0.000107765	0.000482559	0.000480652	9.039974213	-2.571582794	2.965831757	-0.00538826	0.024127962	0.024032595	-0.836914063	0.486328125	0.365234375	887.08	-41.53051299	-65.69436064	-130.9132694	-55
64233	0	0.360412598	-0.10357666	0.11706543	0.999999046	-0.000125885	0.000340462	0.000213623	9.010314941	-2.589416504	2.926635742	-0.006294251	0.017023087	0.010681153	-0.837158203	0.484130859	0.374267578	887.12	-41.50618549	-65.65712793	-130.9579481	-55
64234	0	0.362121582	-0.103516579	0.114721298	0.999999046	-0.000202179	9.15527E-05	-2.38419E-05	9.053039551	-2.587914467	2.868032455	-0.010108948	0.004577637	-0.001192093	-0.836914063	0.481933594	0.371582031	887.08	-41.48747067	-65.65960793	-131.0087507	-55
64235	0	0.36138916	-0.105957031	0.116271973	0.999999046	-0.000133514	-0.000212669	-0.000118256	9.034729004	-2.648925781	2.906799316	-0.00667572	-0.010633469	-0.005912781	-0.837158203	0.484130859	0.374267578	887.12	-41.49424557	-65.69554023	-131.0175199	-55
64236	0	0.360243797	-0.107307434	0.117248535	0.999999046	0.000130653	-0.000499725	-0.000195503	9.006094933	-2.682685852	2.931213379	0.006532669	-0.024986268	-0.009775162	-0.836914063	0.484130859	0.368408203	887.02	-41.50458543	-65.76203238	-130.985959	-55
64237	0	0.360046387	-0.107055664	0.118652344	0.999999046	7.24792E-05	-0.000544548	-0.000217438	9.001159668	-2.676391602	2.966308594	0.003623963	-0.027227403	-0.010871888	-0.834472656	0.481689453	0.374511719	887.08	-41.52521897	-65.83401716	-130.9545618	-55
64238	0	0.361262321	-0.109140396	0.119860649	0.999999046	-0.000200272	-0.000425339	-0.000217438	9.031558037	-2.728509903	2.996516228	-0.010013581	-0.021266938	-0.010871888	-0.839599609	0.484130859	0.374511719	887.08	-41.55724309	-65.89565232	-130.9414281	-55
64239	0	0.36315918	-0.111022949	0.121582031	0.999999046	-2.67029E-05	-0.000449181	-0.000152588	9.078979492	-2.77557373	3.039550781	-0.001335144	-0.022459031	-0.007629395	-0.837158203	0.481933594	0.377441406	887.18	-41.58617754	-65.95418089	-130.9125673	-55
64240	0	0.360494614	-0.111896515	0.12094593	0.999999046	0.000470161	-0.000465393	-0.000126839	9.012365341	-2.797412872	3.023648262	0.023508074	-0.023269655	-0.006341935	-0.839599609	0.481933594	0.377685547	887.08	-41.56630121	-66.01184656	-130.87655	-55
64241	0	0.360351563	-0.112426758	0.121826172	0.999999046	0.000514984	-0.000388145	-0.0001297	9.008789063	-2.810668945	3.045654297	0.025749208	-0.019407274	-0.006484986	-0.839355469	0.481933594	0.374755859	887.02	-41.52783224	-66.06275605	-130.8540261	-55
64242	0	0.361268044	-0.111598015	0.121232033	0.999999046	0.000511169	-0.000274658	0.000254631	9.031701088	-2.789950371	3.030800819	0.025558473	-0.013732911	0.012731553	-0.837158203	0.484130859	0.374267578	887	-41.5449461	-66.07443	-130.7660243	-55
64243	0	0.362426758	-0.109924316	0.121765137	0.999999046	0.000385284	-3.33786E-05	0.000804901	9.060668945	-2.74810791	3.044128418	0.019264224	-0.00166893	0.040245062	-0.836914063	0.481933594	0.374511719	887.02	-41.64134844	-66.02329343	-130.6157619	-55
64244	0	0.3627491	-0.108278275	0.122128487	0.999999046	0.000407219	-0.000152588	0.00120163	9.068727493	-2.706956863	3.053212166	0.020360952	-0.007629397	0.060081498	-0.834716797	0.486328125	0.376953125	887.06	-41.8309905	-65.95176369	-130.3553351	-55
64245	0	0.363586426	-0.105529785	0.11932373	0.999999046	0.000507355	-6.00815E-05	0.001010895	9.089660645	-2.638244629	2.983093262	0.025367742	-0.003004075	0.05054475	-0.834960938	0.488525391	0.373779297	887	-41.95547966	-65.88671253	-130.152802	-55
64246	0	0.358689308	-0.104913712	0.119874001	0.999999046	0.000547409	-9.34601E-05	0.000724792	8.967232704	-2.622842789	2.996850014	0.027370457	-0.004673005	0.036239629	-0.832519531	0.488525391	0.370849609	887.02	-42.02561445	-65.84628077	-130.0056698	-55
64247	0	0.359802246	-0.104309082	0.119750977	0.999999046	0.00094986	9.53674E-07	0.000293732	8.995056152	-2.607727051	2.993774414	0.047492989	4.76837E-05	0.014686587	-0.834960938	0.490722656	0.373779297	887.06	-41.95108601	-65.83089324	-129.9669911	-55
64248	0	0.363951683	-0.104478836	0.1197052	0.999999046	0.000794411	3.24249E-05	-2.38419E-05	9.098792076	-2.611970901	2.992630005	0.039720539	0.001621247	-0.001192093	-0.832519531	0.490722656	0.373535156	887.08	-41.82830412	-65.83727145	-129.999567	-55
64249	0	0.364624023	-0.104370117	0.119384766	0.999999046	0.000205994	0.000267982	-1.52588E-05	9.115600586	-2.60925293	2.984619141	0.010299683	0.013399124	-0.000762939	-0.832519531	0.490722656	0.370605469	887.14	-41.73416205	-65.8229887	-130.0734364	-55
64250	0	0.362243652	-0.106202126	0.119255066	0.999999046	-4.76837E-05	0.000347137	0.000201225	9.056091309	-2.655053139	2.981376648	-0.002384186	0.017356873	0.010061264	-0.834960938	0.493164063	0.370605469	887.08	-41.69691105	-65.7854417	-130.1134788	-55
64251	0	0.361022949	-0.105957031	0.119873047	0.999999046	-7.62939E-05	0.000256538	6.10352E-05	9.02557373	-2.648925781	2.996826172	-0.003814697	0.01282692	0.003051758	-0.834960938	0.490722656	0.370605469	887.06	-41.65156702	-65.76633914	-130.1710857	-55
64252	0	0.358445168	-0.105836868	0.120284081	0.999999046	-9.05991E-05	0.000156403	-0.000264168	8.961129189	-2.645921707	3.007102013	-0.004529953	0.00782013	-0.01320839	-0.834960938	0.493164063	0.373535156	887.08	-41.56277749	-65.78049785	-130.2715637	-55
64253	0	0.360229492	-0.108093262	0.119934082	0.999999046	1.14441E-05	0.000279427	-0.000354767	9.005737305	-2.702331543	2.998352051	0.000572205	0.013971329	-0.017738343	-0.837402344	0.490966797	0.370849609	887.12	-41.42418826	-65.79082628	-130.4177497	-55
64254	0	0.360790253	-0.109604836	0.119038582	0.999999046	-1.90735E-05	0.000181198	-0.000481606	9.019756317	-2.740120888	2.975964546	-0.000953674	0.009059906	-0.024080278	-0.837402344	0.490966797	0.370849609	887.08	-41.28154253	-65.81899005	-130.5694906	-55
64255	0	0.362121582	-0.110290527	0.117553711	0.999999046	0.000160217	1.62125E-05	-0.000530243	9.053039551	-2.757263184	2.938842773	0.008010865	0.000810623	-0.026512147	-0.837158203	0.488525391	0.368164063	887.02	-41.13692066	-65.86487057	-130.702861	-55
64256	0	0.36205101	-0.109807014	0.121383667	0.999999046	-9.53674E-07	8.2016E-05	-0.000119209	9.051275253	-2.745175362	3.034591675	-4.76837E-05	0.0041008	-0.005960464	-0.839599609	0.488769531	0.37109375	887.12	-41.07886222	-65.87384914	-130.7627517	-55
64257	0	0.361083984	-0.109375	0.122375488	0.999999046	-0.000564575	9.63211E-05	0.000213623	9.027099609	-2.734375	3.059387207	-0.028228762	0.004816056	0.010681153	-0.837158203	0.486328125	0.368164063	887.08	-41.14724893	-65.85632761	-130.7569843	-54
64258	0	0.361684799	-0.109910965	0.121343613	0.999999046	-0.00022316	2.86102E-05	0.000258446	9.04211998	-2.747774124	3.033590317	-0.01115799	0.001430512	0.012922287	-0.837158203	0.488525391	0.37109375	887.06	-41.19676744	-65.841119	-130.7251465	-55
64259	0	0.361022949	-0.109130859	0.122558594	0.999999046	0.000614166	-0.000243187	8.39233E-05	9.02557373	-2.728271484	3.063964844	0.030708315	-0.012159348	0.004196167	-0.839599609	0.488769531	0.37109375	887.06	-41.16256928	-65.86234689	-130.6823271	-55
64260	0	0.360454559	-0.107088089	0.122879982	0.999999046	0.000597954	-0.000173569	-8.86917E-05	9.011363983	-2.677202225	3.07199955	0.029897692	-0.008678437	-0.004434586	-0.837158203	0.488525391	0.368164063	887.02	-41.08507386	-65.89045437	-130.6870793	-55
64261	0	0.362548828	-0.105773926	0.122436523	0.999999046	0.000553131	8.58307E-06	1.14441E-05	9.063720703	-2.644348145	3.060913086	0.027656557	0.000429153	0.000572205	-0.837158203	0.488525391	0.37109375	887.06	-41.00115419	-65.89523343	-130.7059579	-55
64262	0	0.363947868	-0.106380463	0.122132301	0.999999046	0.000574112	0.000110626	0.000155449	9.098696709	-2.659511566	3.053307533	0.028705599	0.005531311	0.007772446	-0.837158203	0.488525391	0.365234375	887.06	-40.92542144	-65.88032938	-130.7128264	-55
64263	0	0.359680176	-0.10369873	0.121520996	0.999999046	0.000305176	0.000149727	0.000148773	8.992004395	-2.592468262	3.038024902	0.015258789	0.007486344	0.00743866	-0.837158203	0.488525391	0.368164063	887.06	-40.87248038	-65.86253073	-130.7300602	-53
64264	0	0.360344887	-0.105686188	0.120166779	0.999999046	0.000170708	0.000255585	0.000353813	9.008622169	-2.642154694	3.004169464	0.008535385	0.012779236	0.017690659	-0.837158203	0.490722656	0.362060547	887.12	-40.85696169	-65.82018871	-130.717867	-54
64265	0	0.361938477	-0.106262207	0.121459961	0.999999046	0.000328064	0.000237465	8.7738E-05	9.048461914	-2.656555176	3.036499023	0.016403199	0.011873246	0.004386902	-0.839599609	0.490966797	0.367919922	887.06	-40.77520573	-65.79933723	-130.7621231	-54
64266	0	0.357954979	-0.106734276	0.12169838	0.999999046	0.000139236	3.24249E-05	3.8147E-05	8.948874474	-2.668356895	3.042459488	0.006961823	0.001621246	0.001907349	-0.837158203	0.488525391	0.368164063	887	-40.73977351	-65.79986492	-130.7829657	-55
64267	0	0.359802246	-0.110900879	0.12097168	0.999999046	0.000591278	-0.000117302	3.8147E-06	8.995056152	-2.772521973	3.024291992	0.029563906	-0.005865097	0.000190735	-0.837158203	0.490722656	0.362060547	887.12	-40.67131019	-65.81579183	-130.7772322	-54
64268	0	0.360013008	-0.11039257	0.122969627	0.999999046	0.001221657	-0.000179291	0.000136375	9.000325203	-2.759814262	3.074240685	0.061082856	-0.008964541	0.006818773	-0.837402344	0.493164063	0.364746094	887.08	-40.56691015	-65.82699822	-130.7298006	-54
64269	0	0.360717773	-0.109008789	0.12097168	0.999999046	0.000843048	-0.000212669	0.000583649	9.017944336	-2.725219727	3.024291992	0.042152412	-0.010633471	0.029182439	-0.837402344	0.490966797	0.367919922	887.08	-40.59850703	-65.80768165	-130.5906428	-54
64270	0	0.362535477	-0.10764122	0.121058464	0.999999046	0.000408173	0.000267029	0.001051903	9.063386917	-2.691030502	3.026461601	0.020408635	0.013351443	0.05259515	-0.837158203	0.493164063	0.361816406	887.08	-40.69066458	-65.71164023	-130.4377236	-54
64271	0	0.360778809	-0.106689453	0.121643066	0.999999046	-2.28882E-05	0.000245094	0.001300812	9.019470215	-2.667236328	3.04107666	-0.00114441	0.012254719	0.065040607	-0.837158203	0.493164063	0.358886719	887.06	-40.8824284	-65.59871872	-130.2340275	-54
64272	0	0.360871315	-0.106657982	0.118884087	0.999999046	-4.29153E-05	0.000110626	0.001307487	9.021782875	-2.666449547	2.972102165	-0.002145768	0.005531313	0.065374393	-0.834960938	0.497558594	0.358398438	887	-41.09839399	-65.49676891	-129.9996314	-54
64273	0	0.360290527	-0.10333252	0.119567871	0.999999046	0.00025177	-2.95639E-05	0.001159668	9.007263184	-2.583312988	2.989196777	0.012588504	-0.001478196	0.057983412	-0.834960938	0.497558594	0.361328125	887.14	-41.27398897	-65.41797573	-129.7784217	-52
64274	0	0.361524582	-0.102645874	0.12100029	0.999999046	5.91278E-05	-0.000236511	0.000724792	9.038114548	-2.566146851	3.025007248	0.002956391	-0.011825563	0.036239628	-0.835205078	0.499755859	0.364013672	887.08	-41.42273262	-65.38990185	-129.6096798	-54
64275	0	0.361694336	-0.102355957	0.119873047	0.999999046	-3.43323E-05	-0.00020504	0.000473022	9.042358398	-2.558898926	2.996826172	-0.001716614	-0.010251999	0.023651124	-0.833007813	0.504150391	0.360595703	887.08	-41.52907516	-65.37839322	-129.4881423	-54
64276	0	0.361585617	-0.102890015	0.121425629	0.999999046	-0.000441551	-9.91821E-05	0.000411987	9.039640427	-2.572250366	3.035640717	-0.022077562	-0.004959107	0.020599367	-0.832763672	0.501953125	0.363769531	887.06	-41.65245722	-65.36259826	-129.4054145	-54
64277	0	0.362060547	-0.10534668	0.12322998	0.999999046	-0.000442505	-0.000235558	0.000148773	9.051513672	-2.633666992	3.080749512	-0.022125245	-0.011777878	0.00743866	-0.830322266	0.499511719	0.360839844	887.02	-41.74890795	-65.37858488	-129.3543932	-54
64278	0	0.360866547	-0.10153389	0.121137619	0.999999046	0.000143051	-0.000495911	-0.00023365	9.021663666	-2.538347244	3.028440475	0.007152558	-0.024795534	-0.011682511	-0.832763672	0.499755859	0.361083984	887.06	-41.74964677	-65.44625755	-129.3348743	-54
64279	0	0.36328125	-0.106079102	0.122802734	0.999999046	-0.000385284	-0.00039959	-0.000782013	9.08203125	-2.651977539	3.070068359	-0.019264224	-0.01997948	-0.039100653	-0.832763672	0.499755859	0.358154297	887.12	-41.69148164	-65.54760284	-129.4408564	-53
64280	0	0.35725975	-0.105556488	0.124998093	0.999999046	-0.000109673	-0.000564575	-0.000969887	8.931493759	-2.638912201	3.124952316	-0.005483628	-0.028228766	-0.048494349	-0.835205078	0.497558594	0.3671875	887.06	-41.59253909	-65.67717551	-129.5612306	-54
64281	0	0.361572266	-0.109863281	0.124755859	0.999999046	0.000221252	-0.000575066	-0.001010895	9.039306641	-2.746582031	3.118896484	0.011062625	-0.028753287	-0.050544751	-0.832763672	0.497558594	0.3671875	887.02	-41.44820529	-65.81044121	-129.6830464	-54
64282	0	0.363155365	-0.108953476	0.123226166	0.999999046	0.000268936	-0.000225067	-0.000897408	9.078884125	-2.723836899	3.080654144	0.01344681	-0.011253359	-0.044870384	-0.832519531	0.492919922	0.370361328	887	-41.25953244	-65.90470682	-129.8546226	-54
64283	0	0.361999512	-0.109191895	0.121887207	0.999999046	-0.000335693	-2.19345E-05	-0.000488281	9.049987793	-2.729797363	3.047180176	-0.016784669	-0.001096726	-0.024414064	-0.832519531	0.495117188	0.364257813	887.06	-41.1838807	-65.95025234	-129.968003	-54
64284	0	0.361808777	-0.111543655	0.119781494	0.999999046	-0.000256538	0.000204086	2.28882E-05	9.045219421	-2.788591385	2.994537354	-0.01282692	0.010204315	0.001144409	-0.834960938	0.492919922	0.361816406	887.12	-41.16012162	-65.93752649	-130.0200995	-54
64285	0	0.36151123	-0.109680176	0.119995117	0.999999046	0.000228882	0.000130653	1.14441E-05	9.037780762	-2.742004395	2.99987793	0.011444092	0.006532669	0.000572205	-0.832519531	0.492919922	0.367431641	887.08	-41.09139227	-65.93186404	-130.0603844	-53
64286	0	0.360561371	-0.104263306	0.11989212	0.999999046	-0.000482559	1.14441E-05	0.000224113	9.014034271	-2.606582642	2.997303009	-0.024127961	0.000572205	0.011205674	-0.834960938	0.493164063	0.367675781	887.14	-41.16530751	-65.92050041	-130.0347185	-53
64287	0	0.36126709	-0.111755371	0.117980957	0.999999046	-4.57764E-05	9.25064E-05	0.000553131	9.031677246	-2.793884277	2.949523926	-0.002288818	0.004625321	0.027656557	-0.834960938	0.490722656	0.367675781	887.06	-41.23957505	-65.87719583	-129.9614441	-54
64288	0	0.361800194	-0.104598999	0.119807243	0.999999046	-8.10623E-05	-9.91821E-05	0.000311852	9.045004845	-2.614974976	2.995181084	-0.004053116	-0.004959107	0.015592575	-0.837402344	0.495361328	0.367431641	887.08	-41.3035369	-65.86868067	-129.8957347	-54
64289	0	0.362182617	-0.107421875	0.117126465	0.999999046	-0.000114441	-0.000247002	3.43323E-05	9.05456543	-2.685546875	2.928161621	-0.005722046	-0.012350083	0.001716614	-0.834960938	0.490722656	0.367675781	887.18	-41.34327865	-65.89395721	-129.869054	-54
64290	0	0.361197472	-0.103630066	0.121500969	0.999999046	-0.000198364	-0.000162125	9.53674E-05	9.02993679	-2.590751648	3.037524223	-0.009918213	-0.008106232	0.004768372	-0.834960938	0.493164063	0.370605469	887.08	-41.38969516	-65.90732915	-129.8402121	-54
64291	0	0.360168457	-0.106689453	0.12322998	0.999999046	-0.000190735	-0.000117302	0.00012207	9.004211426	-2.667236328	3.080749512	-0.009536743	-0.005865097	0.006103516	-0.832763672	0.495361328	0.370117188	887.12	-41.43254778	-65.91466309	-129.8071169	-55
64292	0	0.362429619	-0.10474968	0.120723724	0.999999046	-0.000134468	-2.28882E-05	1.14441E-05	9.060740471	-2.618741989	3.018093109	-0.006723404	-0.001144409	0.000572205	-0.834960938	0.492919922	0.361816406	887.06	-41.43137269	-65.92231262	-129.8195296	-54
64293	0	0.362976074	-0.104187012	0.11920166	0.999999046	-0.000240326	0.00017643	1.52588E-05	9.074401855	-2.604675293	2.980041504	-0.012016297	0.008821488	0.000762939	-0.834716797	0.490722656	0.364746094	887.06	-41.40909398	-65.91266079	-129.8731082	-54
64294	0	0.360794067	-0.104683876	0.120131493	0.999999046	-0.000396729	0.000156403	-1.62125E-05	9.019851685	-2.617096901	3.003287315	-0.019836426	0.00782013	-0.000810623	-0.834960938	0.492919922	0.364746094	887.06	-41.40193413	-65.90713576	-129.9234691	-54
64295	0	0.362731934	-0.107910156	0.115234375	0.999999046	-7.24792E-05	-4.86374E-05	-9.15527E-05	9.06829834	-2.697753906	2.880859375	-0.003623962	-0.00243187	-0.004577637	-0.834960938	0.490722656	0.370605469	887.12	-41.37842489	-65.92507681	-129.956767	-54
64296	0	0.362762451	-0.107739449	0.117135048	0.999999046	0.000878334	-0.000499725	-0.000218391	9.069061279	-2.693486214	2.928376198	0.04391671	-0.024986272	-0.010919573	-0.834960938	0.493164063	0.373535156	887.08	-41.29831668	-65.99148208	-129.9281883	-55
64297	0	0.36138916	-0.106567383	0.116088867	0.999998093	0.00124836	-0.00075531	-0.000343323	9.034729004	-2.66418457	2.90222168	0.062418007	-0.037765517	-0.017166144	-0.834960938	0.493164063	0.373535156	887.06	-41.19522994	-66.08944438	-129.8788898	-54
64298	0	0.358407021	-0.10816288	0.118198395	0.999998093	0.00109005	-0.000836372	-0.000473022	8.960175514	-2.704071999	2.954959869	0.054502506	-0.041818633	-0.023651131	-0.834960938	0.493164063	0.367675781	887.18	-41.0989294	-66.2040749	-129.8400331	-55
64299	0	0.359680176	-0.106933594	0.118591309	0.999999046	0.000980377	-0.00057888	-0.000366211	8.992004395	-2.673339844	2.964782715	0.049018872	-0.028944022	-0.018310551	-0.834960938	0.490722656	0.370605469	887.12	-40.99205648	-66.28831084	-129.8328012	-55
64300	0	0.362341881	-0.108444214	0.121496201	0.999999046	0.000416756	-0.00031662	-4.19617E-05	9.05854702	-2.711105347	3.037405014	0.020837785	-0.015830994	-0.002098084	-0.834960938	0.490722656	0.367675781	887.08	-40.96872369	-66.32525215	-129.8041636	-55
64301	0	0.363708496	-0.109313965	0.121887207	0.999999046	0.000377655	-0.000475883	0.000461578	9.092712402	-2.732849121	3.047180176	0.018882753	-0.023794177	0.023078921	-0.834960938	0.490722656	0.370605469	887.02	-41.07684603	-66.33782085	-129.6401231	-55
64302	0	0.361346245	-0.107540131	0.123576164	0.999999046	0.000232697	-0.000282288	0.000700951	9.03365612	-2.688503265	3.089404106	0.011634828	-0.014114381	0.035047535	-0.832519531	0.492919922	0.367431641	887.06	-41.21527661	-66.31518482	-129.4564103	-55
64303	0	0.36126709	-0.108459473	0.121520996	0.999999046	0.00043869	-0.000117302	0.000770569	9.031677246	-2.711486816	3.038024902	0.021934512	-0.005865098	0.038528448	-0.834960938	0.493164063	0.373535156	887.06	-41.31512081	-66.27267225	-129.2959909	-55
64304	0	0.361371994	-0.109275818	0.122751236	0.999998093	0.001272202	-0.000329018	0.00057888	9.03429985	-2.731895447	3.068780899	0.063610099	-0.016450888	0.028944025	-0.832519531	0.495117188	0.3671875	887.12	-41.31807201	-66.26252848	-129.1334205	-55
64305	0	0.360717773	-0.102722168	0.12121582	0.999998093	0.001576424	-0.000164032	0.000511169	9.017944336	-2.568054199	3.030395508	0.078821219	-0.008201603	0.025558483	-0.832763672	0.497558594	0.373046875	887.12	-41.24404437	-66.24328636	-129.018069	-55
64306	0	0.362665176	-0.102840424	0.119039536	0.999999046	0.000232697	0.000148773	0.000548363	9.06662941	-2.57101059	2.975988388	0.011634827	0.00743866	0.027418138	-0.830322266	0.497314453	0.366943359	887.12	-41.2771808	-66.19438181	-128.953013	-54
64307	0	0.363464355	-0.104797363	0.117980957	0.999999046	0.000228882	0.000279427	0.000488281	9.086608887	-2.619934082	2.949523926	0.011444093	0.01397133	0.024414064	-0.830322266	0.499755859	0.366699219	887.08	-41.2765406	-66.13884663	-128.9218162	-54
64308	0	0.362502098	-0.104487419	0.118657112	0.999999046	0.000227928	0.000165939	0.000392914	9.062552452	-2.612185478	2.966427803	0.011396409	0.008296967	0.019645692	-0.830322266	0.499755859	0.366699219	887.06	-41.27671939	-66.10036343	-128.89157	-55
64309	0	0.361083984	-0.105041504	0.116638184	0.999999046	0.000179291	8.58307E-06	0.000415802	9.027099609	-2.626037598	2.91595459	0.008964539	0.000429153	0.020790101	-0.830566406	0.501953125	0.366699219	887.06	-41.31385232	-66.07379937	-128.823928	-54
64310	0	0.361542702	-0.106032372	0.119244576	0.999999046	0.000307083	-6.29425E-05	0.000225067	9.038567543	-2.650809288	2.981114388	0.015354157	-0.003147125	0.011253357	-0.828125	0.504150391	0.366210938	887.08	-41.31150006	-66.0678139	-128.777628	-55
64311	0	0.361816406	-0.106201172	0.119995117	0.999999046	0.000392914	-0.000174522	0.000259399	9.045410156	-2.655029297	2.99987793	0.019645692	-0.00872612	0.012969971	-0.828125	0.501953125	0.369384766	887.08	-41.32496496	-66.06880659	-128.7108242	-54
64312	0	0.363573074	-0.105563164	0.120377541	0.999999046	0.000164986	-6.48499E-05	0.000338554	9.089326859	-2.639079094	3.009438515	0.008249283	-0.003242493	0.01692772	-0.830566406	0.504150391	0.363525391	887.12	-41.36101949	-66.05438213	-128.6443477	-54
64313	0	0.363525391	-0.105957031	0.120605469	0.999999046	-0.000167847	-5.62668E-05	0.000469208	9.088134766	-2.648925781	3.015136719	-0.008392334	-0.002813339	0.023460389	-0.828125	0.504150391	0.36328125	887.06	-41.45880826	-66.02929323	-128.5514837	-54
64314	0	0.361974716	-0.106277466	0.121504784	0.999999046	-9.91821E-05	2.86102E-05	0.000606537	9.049367905	-2.656936646	3.037619591	-0.004959107	0.001430512	0.030326845	-0.828125	0.501953125	0.366455078	887.12	-41.56031451	-65.98636963	-128.453986	-54
64315	0	0.362915039	-0.104248047	0.122314453	0.999999046	0.000312805	-4.48227E-05	0.000205994	9.072875977	-2.606201172	3.057861328	0.015640259	-0.002241135	0.010299683	-0.828125	0.501953125	0.366455078	887.08	-41.5493944	-65.98016739	-128.4287621	-54
64316	0	0.363554001	-0.103834152	0.121613503	0.999999046	0.000170708	-0.000123978	0.000114441	9.088850021	-2.595853806	3.040337563	0.008535385	-0.006198883	0.005722046	-0.828125	0.504150391	0.366210938	887.14	-41.55020417	-65.98777454	-128.4036474	-54
64317	0	0.362548828	-0.106201172	0.122558594	0.999999046	0.000862122	-0.000407219	-8.01086E-05	9.063720703	-2.655029297	3.063964844	0.043106086	-0.02036095	-0.004005433	-0.828125	0.501953125	0.366455078	887.06	-41.48233218	-66.03439529	-128.3728537	-54
64318	0	0.358880043	-0.102395058	0.121465683	0.999998093	0.001383781	-0.000576973	-0.000264168	8.972001076	-2.559876442	3.036642075	0.069189098	-0.028848659	-0.013208394	-0.828125	0.506347656	0.363037109	887.02	-41.34741207	-66.10957451	-128.3398406	-54
64319	0	0.358154297	-0.101379395	0.119750977	0.999999046	0.000762939	-0.000384331	-0.000396729	8.953857422	-2.534484863	2.993774414	0.038146978	-0.01921654	-0.019836429	-0.827880859	0.501708984	0.360595703	887.06	-41.22412526	-66.17825358	-128.3807475	-54
64320	0	0.361321449	-0.10548687	0.120366096	0.999999046	0.000422478	-0.000295639	-0.00062561	9.033036232	-2.637171745	3.009152412	0.021123888	-0.014781954	-0.031280521	-0.828125	0.504150391	0.36328125	887.02	-41.07937321	-66.2564372	-128.4805997	-54
64321	0	0.362670898	-0.106262207	0.119812012	0.999999046	3.43323E-05	-0.00014782	-0.000583649	9.066772461	-2.656555176	2.995300293	0.001716614	-0.007390976	-0.029182436	-0.828125	0.504150391	0.366210938	887.12	-40.96147735	-66.31852021	-128.5975688	-54
64322	0	0.360941887	-0.110044479	0.118674278	0.999999046	0.000114441	-0.0001297	-0.000313759	9.023547173	-2.751111984	2.966856956	0.005722046	-0.006484985	-0.015687943	-0.830566406	0.504150391	0.363525391	887.24	-40.8847332	-66.35849453	-128.659015	-52
64323	0	0.362487793	-0.110656738	0.120422363	0.999999046	0.000377655	-0.000178337	-0.00012207	9.062194824	-2.766418457	3.010559082	0.018882752	-0.008916855	-0.006103516	-0.830566406	0.501953125	0.366699219	887.08	-40.82449823	-66.38802683	-128.6754051	-54
64324	0	0.360360146	-0.109257698	0.120009422	0.999999046	1.23978E-05	-4.19617E-05	0.000167847	9.009003639	-2.731442451	3.000235558	0.000619888	-0.002098084	0.008392334	-0.830566406	0.501953125	0.366699219	887	-40.84067596	-66.38376675	-128.6544106	-54
64325	0	0.360168457	-0.111877441	0.121032715	0.999999046	0.000289917	0.000138283	0.00050354	9.004211426	-2.796936035	3.025817871	0.01449585	0.006914139	0.025177003	-0.830566406	0.501953125	0.366699219	887.06	-40.86126201	-66.33836444	-128.5963106	-54
64326	0	0.362218857	-0.112538338	0.121379852	0.999998093	0.001236916	0.00026989	0.000835419	9.05547142	-2.813458443	3.034496307	0.061845803	0.013494497	0.041770951	-0.830566406	0.504150391	0.360595703	887.06	-40.81687159	-66.25636671	-128.4894727	-54
64327	0	0.361022949	-0.108215332	0.119506836	0.999998093	0.001202583	0.000205994	0.001014709	9.02557373	-2.705383301	2.987670898	0.060129191	0.010299687	0.050735495	-0.828125	0.506347656	0.363037109	887.02	-40.82260953	-66.16637982	-128.332553	-52
64328	0	0.360450745	-0.107254982	0.120339394	0.999998093	-6.48499E-05	0.000382423	0.001330376	9.011268616	-2.68137455	3.00848484	-0.003242494	0.019121176	0.066518805	-0.828125	0.506347656	0.360107422	887.06	-41.00450423	-66.0372339	-128.1461607	-54
64329	0	0.360778809	-0.108276367	0.121582031	0.999998093	-5.62668E-05	0.000320435	0.001594543	9.019470215	-2.70690918	3.039550781	-0.00281334	0.016021736	0.079727208	-0.825927734	0.510742188	0.356689453	887.02	-41.24496451	-65.89314321	-127.8881463	-54
64330	0	0.361711502	-0.105172157	0.1192379	0.999998093	-4.1008E-05	0.000430107	0.001605988	9.042787552	-2.629303932	2.980947495	-0.002050401	0.021505366	0.080299414	-0.825927734	0.510742188	0.359619141	887.08	-41.4644166	-65.73847969	-127.6586751	-52
64331	0	0.361572266	-0.104492188	0.119750977	0.999999046	-0.000221252	0.000309944	0.0013237	9.039306641	-2.612304688	2.993774414	-0.011062626	0.015497213	0.066185018	-0.823730469	0.515136719	0.359130859	887.08	-41.66832017	-65.61542445	-127.4617398	-52
64332	0	0.361346245	-0.104159355	0.118219376	0.999999046	0.000159264	3.24249E-05	0.001079559	9.03365612	-2.603983879	2.95548439	0.007963182	0.001621247	0.053977977	-0.823730469	0.515136719	0.362060547	887.18	-41.82739131	-65.53476127	-127.2716462	-54
64333	0	0.360168457	-0.10333252	0.119140625	0.999999046	0.000392914	-0.000155449	0.000495911	9.004211426	-2.583312988	2.978515625	0.019645692	-0.007772446	0.024795534	-0.821289063	0.517333984	0.358886719	887.02	-41.88064691	-65.51489327	-127.1627102	-54
64334	0	0.362482071	-0.104515076	0.119048119	0.999999046	0.000570297	-0.000242233	8.7738E-05	9.062051773	-2.612876892	2.976202965	0.028514864	-0.012111665	0.004386902	-0.818847656	0.517333984	0.355957031	887.06	-41.85130382	-65.53393344	-127.1202583	-52
64335	0	0.362060547	-0.103637695	0.11895752	0.999999046	0.000724792	-0.000422478	-0.00012207	9.051513672	-2.590942383	2.973937988	0.036239628	-0.021123889	-0.006103516	-0.821533203	0.51953125	0.361572266	887.02	-41.79484567	-65.58470774	-127.0875642	-52
64336	0	0.364873886	-0.106181145	0.120816231	0.999999046	0.000487328	-0.000482559	-0.000297546	9.121847153	-2.654528618	3.020405769	0.024366381	-0.024127962	-0.014877321	-0.821533203	0.51953125	0.358642578	887.02	-41.74232221	-65.65421469	-127.0785511	-53
64337	0	0.359924316	-0.105163574	0.120361328	0.999999046	0.000232697	-0.00039959	-0.000495911	8.99810791	-2.629089355	3.009033203	0.011634828	-0.019979478	-0.024795534	-0.819091797	0.51953125	0.361572266	887.02	-41.66696468	-65.731852	-127.1233963	-53
64338	0	0.361527443	-0.105910301	0.118350983	0.999999046	-0.000108719	-0.000238419	-0.000457764	9.038186073	-2.64775753	2.958774567	-0.005435944	-0.01192093	-0.022888185	-0.821289063	0.517333984	0.355957031	887.16	-41.61031105	-65.79291386	-127.1927675	-53
64339	0	0.363891602	-0.10760498	0.121948242	0.999999046	-7.62939E-06	-0.00014782	-0.000549316	9.097290039	-2.690124512	3.048706055	-0.00038147	-0.007390976	-0.027465822	-0.823730469	0.517578125	0.362060547	887.12	-41.50875835	-65.85312421	-127.2990768	-53
64340	0	0.361664772	-0.107515335	0.120678902	0.999999046	-0.000163078	-0.000169754	-0.000553131	9.041619301	-2.687883377	3.016972542	-0.008153916	-0.008487702	-0.027656557	-0.823974609	0.517578125	0.364990234	887.08	-41.42750839	-65.91541485	-127.4004626	-53
64341	0	0.362182617	-0.108215332	0.120117188	0.999999046	-8.7738E-05	-0.000117302	-0.000396729	9.05456543	-2.705383301	3.002929688	-0.004386902	-0.005865097	-0.019836426	-0.823730469	0.515136719	0.356201172	887.12	-41.35847476	-65.96125864	-127.4790805	-53
64342	0	0.360710144	-0.107951164	0.122087479	0.999999046	-0.000131607	-6.67572E-05	-0.000530243	9.017753601	-2.698779106	3.052186966	-0.006580353	-0.00333786	-0.026512147	-0.823486328	0.510742188	0.362548828	887.06	-41.2597463	-66.01265913	-127.6044543	-53
64343	0	0.360717773	-0.108642578	0.119934082	0.999999046	-0.000144958	4.76837E-06	-0.000419617	9.017944336	-2.716064453	2.998352051	-0.007247925	0.000238419	-0.020980836	-0.825927734	0.510742188	0.359619141	887.16	-41.17166169	-66.04936182	-127.7180232	-54
64344	0	0.361112595	-0.108314514	0.121308327	0.999999046	-0.000130653	5.53131E-05	-0.000175476	9.027814865	-2.707862854	3.032708168	-0.006532669	0.002765656	-0.008773804	-0.825927734	0.510742188	0.359619141	887.16	-41.12070706	-66.06310092	-127.787589	-54
64345	0	0.361328125	-0.107849121	0.120666504	0.999999046	-0.000278473	6.58035E-05	2.28882E-05	9.033203125	-2.696228027	3.016662598	-0.013923645	0.003290176	0.001144409	-0.825927734	0.510742188	0.362548828	887.12	-41.12362522	-66.06087537	-127.8167643	-53
64346	0	0.360696793	-0.106894493	0.118700027	0.999999046	-0.000183105	0.000171661	-4.57764E-05	9.017419815	-2.672362328	2.967500687	-0.009155274	0.008583069	-0.002288818	-0.828369141	0.510742188	0.359863281	887.08	-41.0845213	-66.05467066	-127.8799453	-53
64347	0	0.360107422	-0.106994629	0.120910645	0.999999046	-0.000358582	0.000157356	-3.43323E-05	9.002685547	-2.674865723	3.022766113	-0.017929078	0.007867813	-0.001716614	-0.823486328	0.510742188	0.362548828	887.08	-41.07027294	-66.0487293	-127.933693	-54
64348	0	0.359771729	-0.10778904	0.120334625	0.999999046	-0.000390053	8.2016E-05	7.9155E-05	8.994293213	-2.69472599	3.008365631	-0.01950264	0.0041008	0.003957749	-0.823486328	0.508300781	0.359863281	887	-41.09464012	-66.04064792	-127.9530613	-53
64349	0	0.360839844	-0.10748291	0.119750977	0.999999046	-0.000343323	8.86917E-05	0.000217438	9.020996094	-2.687072754	2.993774414	-0.017166138	0.004434586	0.010871888	-0.825927734	0.508544922	0.359863281	887.18	-41.13956908	-66.02152899	-127.9452729	-53
64350	0	0.362420082	-0.107112885	0.119496346	0.999999046	-0.000350952	0.000118256	0.000114441	9.060502052	-2.677822113	2.987408638	-0.017547608	0.005912781	0.005722046	-0.825927734	0.508544922	0.359863281	887.08	-41.16051571	-66.00763911	-127.9640594	-54
64351	0	0.36138916	-0.106811523	0.119506836	0.999999046	-0.000526428	-3.33786E-05	0.000289917	9.034729004	-2.670288086	2.987670898	-0.026321413	-0.00166893	0.01449585	-0.825683594	0.506347656	0.363037109	887.02	-41.26136169	-65.99358854	-127.923016	-53
64352	0	0.361945152	-0.106844902	0.121444702	0.999999046	-0.000214577	-0.000131607	0.000426292	9.048628807	-2.671122551	3.036117554	-0.010728836	-0.006580353	0.021314622	-0.825927734	0.508544922	0.362792969	887.06	-41.36933698	-65.97759813	-127.8310596	-54
64353	0	0.361755371	-0.10534668	0.12097168	0.999999046	-0.000175476	-0.000182152	0.000209808	9.043884277	-2.633666992	3.024291992	-0.008773804	-0.00910759	0.010490418	-0.825927734	0.508544922	0.365722656	887.12	-41.43939375	-65.9823204	-127.776658	-54
64354	0	0.362975121	-0.105297089	0.119824409	0.999999046	-0.000204086	-0.000144958	0.000106812	9.074378014	-2.632427216	2.995610237	-0.010204315	-0.007247925	0.005340576	-0.825927734	0.508544922	0.359863281	887.08	-41.48638695	-65.99172701	-127.7488411	-52
64355	0	0.362731934	-0.105773926	0.122802734	0.999999046	5.72205E-05	-0.000132561	7.24792E-05	9.06829834	-2.644348145	3.070068359	0.002861023	-0.006628037	0.003623962	-0.825927734	0.508544922	0.365722656	887.08	-41.49439642	-66.00262338	-127.7326142	-54
64356	0	0.360002518	-0.105996132	0.122534752	0.999999046	6.00815E-05	-0.000143051	2.57492E-05	9.000062943	-2.649903297	3.063368797	0.003004074	-0.007152557	0.00128746	-0.825927734	0.510742188	0.365478516	887.08	-41.49456069	-66.01786524	-127.7191958	-53
64357	0	0.362487793	-0.105407715	0.119750977	0.999999046	-0.000110626	-0.000163078	0.000190735	9.062194824	-2.635192871	2.993774414	-0.005531311	-0.008153916	0.009536743	-0.823730469	0.510742188	0.365478516	887.02	-41.54941715	-66.02235294	-127.6658441	-53
64358	0	0.364009857	-0.108441353	0.115517616	0.999999046	-0.000173569	-0.000305176	0.000124931	9.100246429	-2.711033821	2.887940407	-0.008678436	-0.015258789	0.006246567	-0.825927734	0.510742188	0.362548828	887.12	-41.62362315	-66.04414913	-127.5999589	-53
64359	0	0.360656738	-0.106750488	0.116638184	0.999999046	0.00030899	-0.000159264	-7.24792E-05	9.016418457	-2.668762207	2.91595459	0.015449524	-0.007963181	-0.003623962	-0.823486328	0.508544922	0.365722656	887.06	-41.5797177	-66.06853005	-127.6067962	-54
64360	0	0.361808777	-0.108822823	0.117687225	0.999999046	4.76837E-06	-0.000192642	-1.90735E-05	9.045219421	-2.720570564	2.942180634	0.000238419	-0.009632111	-0.000953674	-0.823486328	0.508300781	0.362792969	887.12	-41.5869908	-66.09169771	-127.594961	-54
64361	0	0.361999512	-0.108337402	0.119384766	0.999999046	0.000228882	-0.000208855	-0.000331879	9.049987793	-2.708435059	2.984619141	0.011444092	-0.010442734	-0.016593934	-0.823486328	0.508544922	0.365722656	887.12	-41.51090354	-66.1399713	-127.6450569	-54
64362	0	0.36205864	-0.107860565	0.117694855	0.999999046	-7.24792E-05	-0.000181198	-4.95911E-05	9.051465988	-2.69651413	2.942371368	-0.003623962	-0.009059906	-0.002479553	-0.825927734	0.506347656	0.365966797	887.12	-41.51947334	-66.16441644	-127.6465091	-54
64363	0	0.361877441	-0.107910156	0.118225098	0.999999046	9.91821E-05	-0.000102043	-4.57764E-05	9.046936035	-2.697753906	2.955627441	0.004959106	-0.005102158	-0.002288818	-0.828369141	0.508544922	0.368896484	887.12	-41.4957129	-66.18174642	-127.6589775	-54
64364	0	0.36178875	-0.109257698	0.118171692	0.999999046	4.76837E-06	-8.2016E-05	-1.90735E-05	9.044718742	-2.731442451	2.954292297	0.000238419	-0.0041008	-0.000953674	-0.825927734	0.506347656	0.365966797	887.08	-41.48480033	-66.1952498	-127.6709282	-54
64365	0	0.362304688	-0.10736084	0.118469238	0.999999046	0.000911713	-0.000189781	-9.53674E-05	9.057617188	-2.684020996	2.961730957	0.045585639	-0.009489061	-0.004768372	-0.825927734	0.506347656	0.365966797	887.02	-41.37370429	-66.22376618	-127.6796312	-54
64366	0	0.363895416	-0.103351593	0.118946075	0.999999046	-7.24792E-05	-2.86102E-05	7.62939E-06	9.097385406	-2.583789825	2.973651886	-0.003623962	-0.001430511	0.00038147	-0.825927734	0.508544922	0.362792969	887.08	-41.36743896	-66.230725	-127.6903812	-54
64367	0	0.360168457	-0.108215332	0.120788574	0.999999046	-0.000160217	0.000103951	0.00012207	9.004211426	-2.705383301	3.019714355	-0.008010864	0.005197525	0.006103516	-0.828125	0.504150391	0.366210938	887.12	-41.37083843	-66.21742543	-127.714062	-54
64368	0	0.360545158	-0.103643417	0.120951653	0.999999046	0.00039196	1.33514E-05	6.10352E-05	9.01362896	-2.591085434	3.023791313	0.019598008	0.000667572	0.003051758	-0.828369141	0.508544922	0.368896484	887.02	-41.31426584	-66.21650032	-127.7254365	-54
64369	0	0.362426758	-0.106506348	0.117004395	0.999999046	-0.000167847	0.00023365	-0.000110626	9.060668945	-2.662658691	2.925109863	-0.008392334	0.011682511	-0.005531311	-0.828125	0.504150391	0.369140625	887.08	-41.25074639	-66.20962914	-127.8229733	-54
64370	0	0.362394333	-0.108480453	0.119394302	0.999999046	-4.3869E-05	9.34601E-05	0.000160217	9.059858322	-2.712011337	2.984857559	-0.002193451	0.004673004	0.008010864	-0.828125	0.506347656	0.363037109	887.08	-41.25021552	-66.1942638	-127.8293421	-54
64371	0	0.361572266	-0.108703613	0.119445801	0.999999046	4.57764E-05	0.000119209	0.000183105	9.039306641	-2.717590332	2.98614502	0.002288818	0.005960465	0.009155274	-0.828125	0.504150391	0.36328125	887.08	-41.23972693	-66.17484144	-127.840844	-52
64372	0	0.360161781	-0.105589867	0.118685722	0.999999046	0.00024128	0.000185013	0.000190735	9.004044533	-2.639746666	2.967143059	0.01206398	0.009250641	0.009536743	-0.825927734	0.508544922	0.365722656	887.06	-41.19715111	-66.14916471	-127.8527449	-54
64373	0	0.362854004	-0.108032227	0.117370605	0.999999046	-1.90735E-05	0.000283241	0.000160217	9.071350098	-2.700805664	2.934265137	-0.000953674	0.014162064	0.008010864	-0.828125	0.506347656	0.363037109	887.06	-41.16212367	-66.1173433	-127.8951465	-54
64374	0	0.361105919	-0.105101585	0.117630959	0.999999046	0.000387192	0.000196457	0.000244141	9.027647972	-2.627539635	2.940773964	0.019359589	0.009822846	0.012207032	-0.828369141	0.508544922	0.363037109	887.08	-41.11184731	-66.08675741	-127.8998439	-54
64375	0	0.361694336	-0.104064941	0.118469238	0.999999046	-9.53674E-05	0.00017643	0.000476837	9.042358398	-2.601623535	2.961730957	-0.004768372	0.008821488	0.023841859	-0.828369141	0.508544922	0.365966797	887.14	-41.16545899	-66.04046423	-127.8536998	-54
64376	0	0.362650871	-0.104861259	0.118209839	0.999999046	-0.000153542	-1.52588E-05	0.000285149	9.066271782	-2.621531487	2.955245972	-0.007677078	-0.000762939	0.014257431	-0.825683594	0.506347656	0.363037109	887.2	-41.22091377	-66.02527754	-127.8153163	-54
64377	0	0.362609863	-0.104553223	0.120239258	0.999999046	0.000125885	-1.81198E-05	0.00019455	9.065246582	-2.613830566	3.005981445	0.006294251	-0.000905991	0.009727478	-0.825927734	0.508544922	0.365722656	887.06	-41.22704766	-66.01723641	-127.7923822	-54
64378	0	0.35921669	-0.103199005	0.119762421	0.999999046	-4.3869E-05	-8.39233E-05	0.000312805	8.980417252	-2.579975128	2.994060516	-0.002193451	-0.004196167	0.015640259	-0.825927734	0.508544922	0.362792969	887.12	-41.2863664	-66.0059788	-127.7324171	-54
64379	0	0.361816406	-0.106445313	0.120056152	0.999999046	3.8147E-06	5.43594E-05	-3.05176E-05	9.045410156	-2.661132813	3.001403809	0.000190735	0.002717972	-0.001525879	-0.825683594	0.506347656	0.363037109	887.12	-41.2502467	-66.00875647	-127.7751175	-54
64380	0	0.361626625	-0.107826233	0.122170448	0.999999046	0.000222206	-4.57764E-05	-0.000198364	9.040665627	-2.695655823	3.054261208	0.011110306	-0.002288818	-0.009918213	-0.828369141	0.510742188	0.362792969	887.06	-41.17349358	-66.03270305	-127.8258913	-54
64381	0	0.362304688	-0.107666016	0.121154785	0.999999046	0.00025177	9.53674E-07	0.000152588	9.057617188	-2.691650391	3.028869629	0.012588501	4.76837E-05	0.007629395	-0.825927734	0.508544922	0.365722656	887.14	-41.15349695	-66.02605477	-127.8155457	-52
64382	0	0.362027168	-0.107167244	0.120109558	0.999999046	-8.39233E-05	0.000274658	0.000411034	9.050679207	-2.679181099	3.002738953	-0.004196167	0.013732911	0.020551682	-0.825927734	0.508544922	0.362792969	887.06	-41.17573329	-65.97628124	-127.8013703	-54
64383	0	0.361877441	-0.10760498	0.119812012	0.999999046	-0.000267029	0.000432014	0.000366211	9.046936035	-2.690124512	2.995300293	-0.013351441	0.021600725	0.018310548	-0.828369141	0.508544922	0.363037109	887.12	-41.18377794	-65.9163088	-127.8282256	-54
64384	0	0.362244606	-0.108179092	0.119395256	0.999999046	-0.000193596	0.000402451	0.000312805	9.05611515	-2.70447731	2.984881401	-0.009679795	0.020122529	0.01564026	-0.828369141	0.508544922	0.363037109	887.08	-41.17838271	-65.86293485	-127.8610499	-54
64385	0	0.361572266	-0.108398438	0.120544434	0.999999046	-3.43323E-05	0.000248909	0.000553131	9.039306641	-2.709960938	3.01361084	-0.001716614	0.012445451	0.027656557	-0.828369141	0.508544922	0.360107422	887.08	-41.22690249	-65.80463935	-127.8157958	-54
64386	0	0.361026764	-0.107707977	0.120166779	0.999999046	5.14984E-05	0.000143051	0.000553131	9.025669098	-2.692699432	3.004169464	0.002574921	0.007152558	0.027656557	-0.828369141	0.508544922	0.363037109	887.06	-41.28324603	-65.75546388	-127.7539725	-54
64387	0	0.36114502	-0.105651855	0.118530273	0.999999046	9.91821E-05	0.000218391	0.000495911	9.028625488	-2.641296387	2.963256836	0.004959107	0.010919571	0.024795533	-0.825927734	0.510742188	0.356689453	887.06	-41.31032236	-65.70427114	-127.7113804	-53
64388	0	0.361964226	-0.106292725	0.119746208	0.999999046	0.000206947	0.000387192	0.000442505	9.049105644	-2.657318115	2.993655205	0.010347367	0.01935959	0.022125246	-0.825927734	0.510742188	0.359619141	887.02	-41.28651846	-65.64271014	-127.7137525	-54
64389	0	0.361572266	-0.106262207	0.119506836	0.999999046	6.48499E-05	0.000344276	0.000461578	9.039306641	-2.656555176	2.987670898	0.003242493	0.017213822	0.02307892	-0.828369141	0.512939453	0.353759766	887.12	-41.28977341	-65.58355003	-127.7011683	-52
64390	0	0.360780716	-0.105298042	0.121232986	0.999999046	9.34601E-05	0.000246048	0.000492096	9.019517899	-2.632451057	3.030824661	0.004673004	0.012302399	0.024604799	-0.826171875	0.512939453	0.362548828	887.08	-41.31162317	-65.53065041	-127.6672317	-52
64391	0	0.364074707	-0.106262207	0.120483398	0.999999046	0.000110626	0.000348091	0.000350952	9.101867676	-2.656555176	3.012084961	0.005531311	0.017404557	0.017547608	-0.823730469	0.515136719	0.359130859	887.16	-41.28771901	-65.47984079	-127.67476	-52
64392	0	0.359154701	-0.105511665	0.122647285	0.999999046	4.673E-05	0.00022316	4.1008E-05	8.978867531	-2.637791634	3.066182137	0.002336502	0.01115799	0.0020504	-0.826171875	0.515380859	0.359375	887.08	-41.23309085	-65.46326485	-127.7252692	-53
64393	0	0.359375	-0.106384277	0.121887207	0.999999046	3.8147E-06	0.000309944	0.000148773	8.984375	-2.659606934	3.047180176	0.000190735	0.015497208	0.00743866	-0.826171875	0.515380859	0.359375	887.06	-41.18930335	-65.43111445	-127.7694081	-53
64394	0	0.360609055	-0.107711792	0.122781754	0.999999046	0.000347137	0.000246048	7.62939E-06	9.015226364	-2.6927948	3.069543839	0.017356873	0.012302399	0.00038147	-0.828613281	0.515380859	0.359375	887.08	-41.0901266	-65.41511901	-127.833219	-53
64395	0	0.361999512	-0.10925293	0.121520996	0.999999046	7.24792E-05	0.000267982	-8.39233E-05	9.049987793	-2.731323242	3.038024902	0.003623962	0.013399124	-0.004196167	-0.825927734	0.512939453	0.356689453	887.06	-41.00179174	-65.40412996	-127.9215883	-52
64396	0	0.359695435	-0.109419823	0.119836807	0.999999046	-9.53674E-07	0.000133514	6.77109E-05	8.992385864	-2.735495567	2.995920181	-4.76837E-05	0.00667572	0.003385544	-0.825927734	0.512939453	0.356689453	887.08	-40.97302404	-65.39340353	-127.9534931	-52
64397	0	0.359680176	-0.109985352	0.121276855	0.999999046	-0.000118256	0.000191689	0.000236511	8.992004395	-2.749633789	3.031921387	-0.005912781	0.009584427	0.011825562	-0.826171875	0.515380859	0.359375	887.12	-40.98038192	-65.36495799	-127.9562433	-52
64398	0	0.358055115	-0.110427856	0.121203423	0.999999046	-0.000167847	-1.52588E-05	-3.91006E-05	8.951377869	-2.760696411	3.030085564	-0.008392334	-0.000762939	-0.001955032	-0.826171875	0.515136719	0.356445313	887.12	-40.97565799	-65.37509394	-127.9773768	-54
64399	0	0.358886719	-0.112060547	0.121459961	0.999999046	-0.000221252	3.52859E-05	0.0001297	8.972167969	-2.801513672	3.036499023	-0.011062622	0.001764298	0.006484985	-0.825683594	0.512939453	0.347900391	887.12	-41.00102636	-65.36809747	-127.9741931	-54
64400	0	0.360229492	-0.111633301	0.12310791	0.999999046	4.76837E-06	-0.000148773	0.000415802	9.005737305	-2.79083252	3.077697754	0.000238419	-0.00743866	0.020790101	-0.825927734	0.512939453	0.353759766	887.08	-41.08488894	-65.35539019	-127.8814347	-54
64401	0	0.360107422	-0.110961914	0.122924805	0.999999046	0.000259399	-0.000174522	0.000415802	9.002685547	-2.774047852	3.073120117	0.012969971	-0.00872612	0.020790101	-0.828369141	0.515380859	0.353515625	887.06	-41.14391557	-65.34479882	-127.7821345	-54
64402	0	0.359753609	-0.109062195	0.122243881	0.999999046	5.34058E-05	-0.000175476	0.00063324	8.993840218	-2.726554871	3.056097031	0.002670288	-0.008773804	0.03166199	-0.828369141	0.515380859	0.356445313	887.12	-41.26746196	-65.3178298	-127.6410775	-54
64403	0	0.359313965	-0.107849121	0.122680664	0.999999046	1.52588E-05	-0.000166893	0.000499725	8.982849121	-2.696228027	3.067016602	0.000762939	-0.008344651	0.024986268	-0.825927734	0.512939453	0.359619141	887.08	-41.36858325	-65.30014823	-127.5355852	-54
64404	0	0.360834122	-0.107718468	0.121463776	0.999999046	2.95639E-05	-0.000200272	0.000449181	9.020853043	-2.692961693	3.036594391	0.001478195	-0.010013581	0.022459031	-0.826171875	0.515136719	0.356445313	887.06	-41.46388245	-65.28921426	-127.4304861	-54
64405	0	0.362304688	-0.107543945	0.12310791	0.999999046	0.0001297	-0.000178337	0.000282288	9.057617188	-2.688598633	3.077697754	0.006484985	-0.008916855	0.01411438	-0.823486328	0.515136719	0.353271484	887.08	-41.5126069	-65.2891178	-127.3619631	-54
64406	0	0.360274315	-0.106433868	0.123555183	0.999999046	-0.000268936	-9.53674E-05	9.15527E-05	9.006857872	-2.66084671	3.088879585	-0.013446808	-0.004768372	0.004577637	-0.823486328	0.515136719	0.353271484	887.18	-41.55733537	-65.29645261	-127.347438	-54
64407	0	0.359863281	-0.108520508	0.123352051	0.999999046	-0.000377655	8.86917E-05	0.000118256	8.996582031	-2.713012695	3.08380127	-0.018882752	0.004434586	0.005912781	-0.826171875	0.517578125	0.356201172	887.08	-41.58889019	-65.28598317	-127.3578235	-54
64408	0	0.362988472	-0.109311104	0.124126434	0.999999046	-0.000300407	0.000205994	-4.95911E-05	9.0747118	-2.732777596	3.103160858	-0.015020371	0.010299683	-0.002479553	-0.826171875	0.517578125	0.356201172	887	-41.56074454	-65.27825037	-127.422859	-55
64409	0	0.363037109	-0.110778809	0.124267578	0.999999046	-0.000293732	0.000126839	-0.000190735	9.075927734	-2.769470215	3.106689453	-0.014686585	0.006341934	-0.009536743	-0.826171875	0.515380859	0.359375	887.08	-41.51853836	-65.28799383	-127.506385	-54
64410	0	0.359933853	-0.109922409	0.12514782	0.999999046	-1.90735E-06	0.000244141	-1.90735E-05	8.998346329	-2.748060226	3.128695488	-9.53674E-05	0.012207031	-0.000953674	-0.825927734	0.515136719	0.350585938	887.12	-41.45528835	-65.27451453	-127.5735412	-54
64411	0	0.362243652	-0.110839844	0.123291016	0.999999046	-0.000179291	0.00049305	9.91821E-05	9.056091309	-2.770996094	3.082275391	-0.008964539	0.024652482	0.004959107	-0.825927734	0.512939453	0.353759766	887.06	-41.39365072	-65.23064696	-127.6667133	-54
64412	0	0.362404823	-0.111078262	0.12342453	0.999999046	-0.000317574	0.000494003	0.000277519	9.060120583	-2.776956558	3.085613251	-0.015878678	0.024700167	0.013875962	-0.826171875	0.515380859	0.359375	887.08	-41.3812639	-65.17316741	-127.7193702	-55
64413	0	0.363342285	-0.110473633	0.121337891	0.999999046	5.34058E-05	0.00061512	0.000629425	9.083557129	-2.76184082	3.033447266	0.002670288	0.030756001	0.031471257	-0.825927734	0.515136719	0.350585938	887.06	-41.3721974	-65.07875437	-127.7218893	-55
64414	0	0.363976479	-0.108234406	0.118134499	0.999999046	-6.29425E-05	0.00063324	0.00096035	9.099411964	-2.705860138	2.953362465	-0.003147126	0.031661994	0.048017512	-0.828369141	0.515380859	0.353515625	887.06	-41.43476482	-64.95806349	-127.6659148	-54
64415	0	0.364868164	-0.107849121	0.118652344	0.999999046	0.000339508	0.000527382	0.000686646	9.121704102	-2.696228027	2.966308594	0.016975405	0.026369099	0.03433228	-0.826171875	0.517578125	0.356201172	887.18	-41.41793484	-64.86761594	-127.6437004	-55
64416	0	0.368082047	-0.10290432	0.117705345	0.999999046	0.000678062	0.000677109	0.000946045	9.202051163	-2.572607994	2.942633629	0.033903132	0.033855448	0.04730226	-0.826171875	0.517578125	0.353271484	887.18	-41.38534517	-64.74532294	-127.5999652	-55
64417	0	0.364135742	-0.098144531	0.117248535	0.999997139	0.000892639	0.00042057	0.001693726	9.103393555	-2.453613281	2.931213379	0.044631987	0.021028532	0.084686334	-0.825927734	0.517333984	0.347412109	887.2	-41.50386484	-64.58911873	-127.3689754	-55
64418	0	0.365308762	-0.093988419	0.115890503	0.999998093	0.00111866	0.000437737	0.001514435	9.13271904	-2.349710464	2.897262573	0.055933033	0.021886839	0.075721788	-0.823974609	0.524169922	0.346679688	887.08	-41.55867836	-64.44592019	-127.1702856	-55
64419	0	0.362792969	-0.092956543	0.114868164	0.999999046	0.000915527	0.00024128	0.000667572	9.069824219	-2.323913574	2.871704102	0.045776377	0.012063983	0.033378609	-0.823974609	0.528564453	0.343505859	887.08	-41.51452285	-64.38496252	-127.0999631	-55
64420	0	0.367194176	-0.092024803	0.110268593	0.999999046	0.000908852	0.000253677	-0.000172615	9.179854393	-2.300620079	2.756714821	0.045442588	0.01268387	-0.008630754	-0.823974609	0.528564453	0.340576172	887.06	-41.31820041	-64.38801418	-127.1984292	-55
64421	0	0.364379883	-0.085449219	0.107666016	0.999999046	0.000209808	0.000424385	-0.000278473	9.10949707	-2.136230469	2.691650391	0.010490418	0.021219255	-0.013923646	-0.823974609	0.528564453	0.340576172	887.12	-41.15517248	-64.38572546	-127.3469603	-55
64422	0	0.339492798	-0.078746796	0.105667114	0.999999046	-0.000713348	-9.34601E-05	-0.000340462	8.487319946	-1.968669891	2.641677856	-0.035667423	-0.004673005	-0.017023088	-0.823974609	0.528564453	0.340576172	887	-41.16691413	-64.4338992	-127.4150593	-55
64423	0	0.310241699	-0.068054199	0.109680176	0.999998093	-0.000201225	-0.000385284	-0.001773834	7.75604248	-1.70135498	2.742004395	-0.01006127	-0.019264232	-0.088691761	-0.826171875	0.526367188	0.340820313	887	-40.90288818	-64.61574841	-127.7206667	-56
64424	0	0.264332771	-0.060201645	0.103897095	0.999994278	0.002344131	0.000527382	-0.002106667	6.608319283	-1.505041122	2.597427368	0.117206773	0.02636914	-0.105333508	-0.828613281	0.521972656	0.341308594	887.12	-40.13425699	-64.74167322	-128.2670174	-57
64425	0	0.22265625	-0.043151855	0.111083984	0.999994278	0.002011299	0.002159119	-0.001548767	5.56640625	-1.078796387	2.777099609	0.100565143	0.107956132	-0.077438498	-0.830810547	0.521972656	0.338378906	887.02	-39.24625479	-64.67878711	-128.982906	-58
64426	0	0.266103745	-0.050562859	0.138440132	0.999977112	0.000452995	0.006344795	-0.002015114	6.652593613	-1.264071465	3.461003304	0.022649933	0.317242115	-0.100756439	-0.833007813	0.521972656	0.329833984	887.02	-37.82783756	-64.26681713	-130.4738327	-57
64427	0	0.361694336	-0.065856934	0.218505859	0.999919891	-0.001002312	0.01222229	-0.002822876	9.042358398	-1.64642334	5.462646484	-0.050116908	0.611130632	-0.141147524	-0.842529297	0.520019531	0.324707031	887.06	-35.66365194	-63.34800336	-132.9819231	-56
64428	0	0.409579277	-0.030109406	0.262954712	0.999696732	-0.009788513	0.022568703	-0.000128746	10.23948193	-0.752735138	6.573867798	-0.489475038	1.128548983	-0.006437951	-0.8515625	0.515625	0.299072266	887	-33.89275663	-61.23889322	-136.203968	-55
64429	0	0.566162109	-0.117675781	0.26385498	0.999341965	-0.019133568	0.029956818	0.00712204	14.15405273	-2.941894531	6.596374512	-0.956888063	1.49816916	0.356180036	-0.860351563	0.509033203	0.267822266	887.08	-33.91803477	-57.9408834	-138.6867633	-56
64430	0	0.625234604	-0.10785675	0.288161278	0.999031067	-0.016608238	0.036999702	0.01708889	15.6308651	-2.696418762	7.204031944	-0.830680208	1.850582832	0.854720565	-0.869628906	0.518066406	0.2265625	887.06	-34.63824114	-53.34373249	-140.120734	-59
64431	0	0.346740723	-0.106018066	0.210449219	0.998645782	-0.020712852	0.03976059	0.026390076	8.668518066	-2.65045166	5.261230469	-1.036110331	1.988927295	1.320099686	-0.865478516	0.549072266	0.179443359	887	-36.71792625	-47.88836739	-140.5215264	-60
64432	0	0.121212959	-0.159799576	0.211791992	0.99868679	0.007178307	0.04070282	0.030244827	3.030323982	-3.994989395	5.294799805	0.35907242	2.036031738	1.512903246	-0.849609375	0.597900391	0.124511719	887.02	-35.88224051	-42.08055726	-140.5605369	-61
64433	0	0.08203125	-0.090881348	0.158996582	0.998517036	0.00592804	0.043683052	0.03194046	2.05078125	-2.272033691	3.974914551	0.296548573	2.18523285	1.597812872	-0.821533203	0.655029297	0.038818359	887.06	-35.21754183	-35.87897379	-140.5498244	-63
64434	0	0.170654297	-0.112543106	0.065979958	0.998491287	0.00493145	0.046788216	0.028306007	4.266357422	-2.813577652	1.64949894	0.246696553	2.340587811	1.41601245	-0.779052734	0.709228516	-0.032714844	887.12	-34.36611795	-29.62741709	-141.0529677	-66
64435	0	0.231567383	-0.035095215	-0.006164551	0.998626709	0.006627083	0.04516983	0.025699615	5.78918457	-0.877380371	-0.15411377	0.331505907	2.259525942	1.285569316	-0.733398438	0.752197266	-0.12109375	887.06	-33.35996019	-23.70057993	-141.5613609	-62
64436	0	0.167643547	-0.014339447	-0.206763268	0.998576164	0.004792213	0.036994934	0.038119316	4.191088676	-0.358486176	-5.169081688	0.23972442	1.850624816	1.906870605	-0.676025391	0.792724609	-0.189453125	887.06	-33.29572329	-17.78108254	-140.2104673	-60
64437	0	0.167297363	0.081665039	-0.309143066	0.998688698	0.006923676	0.02304554	0.045181274	4.182434082	2.041625977	-7.72857666	0.346335144	1.152780821	2.260051487	-0.590576172	0.845703125	-0.239746094	887.06	-33.28178835	-12.76674079	-137.2915839	-60
64438	0	0.14431572	0.108839989	-0.23935318	0.998763084	-0.00305748	0.021827698	0.04456234	3.60789299	2.720999718	-5.983829498	-0.152937037	1.091834966	2.229035847	-0.5	0.891845703	-0.275146484	887.02	-34.15320522	-7.896016616	-134.4692024	-72
64439	0	0.168273926	-0.146057129	-0.054870605	0.998419762	-0.031269073	0.015603065	0.043991089	4.206848145	-3.651428223	-1.371765137	-1.564277333	0.780564275	2.200713212	-0.396240234	0.942626953	-0.267822266	887.08	-38.05326234	-3.533141678	-131.5217433	-61
64440	0	0.301661491	-0.485732079	0.522735596	0.997644424	-0.066041946	-0.018530846	0.000252724	7.541537285	-12.14330196	13.06838989	-3.30469221	-0.927270388	0.012646115	-0.322021484	0.983398438	-0.196044922	887.12	-45.75406083	-5.162024929	-129.8113349	-63
64441	0	-0.50567627	-1.836181641	1.77734375	0.998997688	0.036998749	-0.02357769	0.008781433	-12.64190674	-45.90454102	44.43359375	1.850555236	-1.179278201	0.439218286	-0.337646484	0.9921875	-0.01953125	887.06	-41.7968143	-6.445914588	-126.4418361	-64
64442	0	0.077161789	-0.82958889	1.170261383	0.999073029	0.022168159	0.030362129	0.020935059	1.929044724	-20.73972225	29.25653458	1.108750307	1.51857533	1.047076221	-0.302734375	0.989501953	-0.206298828	887.08	-39.23169829	-2.263716868	-126.6114098	-64
64443	0	-0.48614502	-0.308898926	0.658447266	0.987005234	-0.149523735	0.048141479	0.03383255	-12.15362549	-7.722473145	16.46118164	-7.508738415	2.417554486	1.698992927	-0.255126953	1.018066406	-0.102783203	887.14	-56.48489473	4.320318174	-128.7152568	-66
64444	0	-0.152715683	-0.380015373	0.125289917	0.998069763	0.04300499	0.037014961	0.025224686	-3.817892075	-9.500384331	3.132247925	2.151633714	1.85193949	1.262046209	-0.177246094	1.036865234	0.079101563	887.14	-51.76834748	9.157242036	-129.7811162	-75
64445	0	-0.019287109	-0.044555664	-0.011047363	0.999242783	0.009980202	0.032432556	0.019001007	-0.482177734	-1.113891602	-0.276184082	0.499135965	1.622036875	0.950290011	-0.129638672	1.052490234	-0.048095703	887.06	-50.94137401	13.18822275	-131.0816872	-69
64446	0	0.076164246	-0.051271439	0.003070831	0.999842644	-0.007097244	0.011356354	0.011627197	1.90410614	-1.281785965	0.076770782	-0.354880818	0.567847458	0.581390343	-0.093505859	1.057861328	-0.056396484	887.08	-51.8155295	15.04512688	-131.0914425	-68
64447	0	0.106445313	-0.114868164	0.080993652	0.999772072	-0.01720047	-0.001914024	0.012447357	2.661132813	-2.871704102	2.024841309	-0.860088652	-0.095708468	0.622415008	-0.072265625	1.061767578	-0.037353516	887.02	-53.511629	16.04243558	-129.9415245	-67
64448	0	0.08798027	-0.218058586	0.167888641	0.999907494	0.008721352	-0.008460999	0.005954742	2.19950676	-5.451464653	4.197216034	0.43608089	-0.423062839	0.297746209	-0.046386719	1.063476563	-0.006835938	887	-52.18637374	15.98870044	-128.4746863	-67
64449	0	-0.069458008	-0.18347168	0.209716797	0.999928474	0.009845734	-0.005843163	-0.003170013	-1.736450195	-4.586791992	5.242919922	0.492298262	-0.292164999	-0.1585044	-0.040771484	1.060546875	-0.0390625	887.02	-50.98549502	15.27611419	-127.9721652	-66
64450	0	-0.153470039	-0.275559425	0.26845932	0.99966526	-0.023777008	-0.003787994	-0.009401321	-3.836750984	-6.888985634	6.711483002	-1.188982817	-0.189420815	-0.470118427	-0.050537109	1.061035156	-0.035644531	887.12	-53.80105159	14.14836282	-128.2302909	-66
64451	0	-0.198608398	-0.441833496	0.267089844	0.999919891	-0.003314018	-0.006023407	-0.010574341	-4.965209961	-11.0458374	6.677246094	-0.165705306	-0.301178335	-0.52873106	-0.071044922	1.062255859	0.018310547	887.12	-54.2283098	12.7559252	-128.2147711	-65
64452	0	-0.13932991	-0.369607925	0.25278759	0.999673843	0.021034241	-0.010638237	-0.009745598	-3.483247757	-9.240198135	6.319689751	1.051826108	-0.531969543	-0.487332744	-0.094482422	1.056152344	0.002441406	887.08	-51.76480066	11.12602917	-127.7073464	-65
64453	0	-0.127563477	-0.311767578	0.252807617	0.999909401	0.007450104	-0.009638786	-0.005714417	-3.189086914	-7.794189453	6.32019043	0.37251643	-0.481953861	-0.285729448	-0.113037109	1.054199219	-0.034423828	887.12	-50.83680317	9.922898128	-127.132124	-64
64454	0	-0.101469994	-0.318489075	0.227131844	0.999918938	-0.008363724	-0.008605957	-0.004049301	-2.53674984	-7.962226868	5.678296089	-0.418197369	-0.430309356	-0.202470471	-0.125244141	1.0546875	-0.033935547	887.06	-51.72612815	8.944144182	-126.5879182	-64
64455	0	-0.097473145	-0.325012207	0.237182617	0.999956131	-0.001807213	-0.008850098	-0.002475739	-2.436828613	-8.125305176	5.92956543	-0.090361963	-0.442511352	-0.123788736	-0.1328125	1.054931641	-0.015869141	887.06	-51.85104483	8.095551398	-125.8863459	-64
64456	0	-0.09032917	-0.293797493	0.270185471	0.999960899	-0.005551338	-0.006784439	-0.001127243	-2.258229256	-7.344937325	6.754636765	-0.277570524	-0.339226371	-0.056362886	-0.137451172	1.048339844	-0.009277344	887.08	-52.42266114	7.519586583	-125.304485	-64
64457	0	-0.073425293	-0.313720703	0.215087891	0.999923706	-0.011496544	-0.004108429	-0.001567841	-1.835632324	-7.843017578	5.377197266	-0.57484171	-0.205426635	-0.078394008	-0.137939453	1.05078125	0.014160156	887.02	-53.71520202	7.097056557	-124.9901584	-63
64458	0	-0.048278809	-0.349914551	0.221984863	0.999985695	-0.00056076	-0.005123138	-0.000858307	-1.206970215	-8.74786377	5.549621582	-0.028038152	-0.256158087	-0.042915539	-0.143066406	1.049072266	0.03515625	887.12	-53.74004959	6.673844906	-124.5066082	-63
64459	0	-0.024871826	-0.307291031	0.226494789	0.999982834	-4.673E-05	-0.005632401	-0.000544548	-0.621795654	-7.682275772	5.662369728	-0.002336515	-0.281621529	-0.027227547	-0.143066406	1.049072266	0.03515625	887.08	-53.70092888	6.243832791	-123.9610075	-63
64460	0	-0.018647194	-0.3195858	0.240512848	0.999961853	-0.005569458	-0.006621361	-0.00060463	-0.466179848	-7.989645004	6.012821198	-0.278476392	-0.33107219	-0.030231855	-0.145507813	1.046875	0.038330078	887.12	-54.28849138	5.742470897	-123.3522292	-63
64461	0	-0.014465332	-0.34588623	0.235290527	0.999977112	-0.002131462	-0.006393433	-0.000297546	-0.361633301	-8.647155762	5.882263184	-0.106573913	-0.319674055	-0.014877432	-0.145751953	1.046875	0.050048828	887.18	-54.48685635	5.287259065	-122.7342828	-63
64462	0	-0.029112816	-0.297649384	0.234048843	0.999979019	0.001666069	-0.006117821	-0.000515938	-0.727820396	-7.441234589	5.851221085	0.083304013	-0.3058931	-0.025797064	-0.143310547	1.044677734	0.053222656	887.18	-54.25704307	4.829571984	-122.1486377	-62
64463	0	-0.023071289	-0.292541504	0.216796875	0.999974251	-0.002521515	-0.006491661	-0.001476288	-0.576782227	-7.313537598	5.419921875	-0.12607681	-0.324585795	-0.073815016	-0.145751953	1.044677734	0.053222656	887.18	-54.51363581	4.257118348	-121.6063026	-62
64464	0	-0.017254829	-0.316405296	0.22979641	0.999977112	-0.000822067	-0.006285667	-0.00220108	-0.431370735	-7.910132408	5.74491024	-0.041103672	-0.31428573	-0.110054842	-0.148193359	1.042480469	0.0625	887.12	-54.58488292	3.631428654	-121.1222579	-62
64465	0	-0.012390137	-0.297912598	0.242797852	0.999983788	-0.000831604	-0.004611015	-0.003196716	-0.309753418	-7.447814941	6.069946289	-0.041580423	-0.230552002	-0.159836672	-0.155517578	1.04296875	0.065673828	887.12	-54.67328312	3.023727299	-120.8636839	-62
64466	0	-0.004879951	-0.30892086	0.242714882	0.999979019	-0.00262928	-0.003708839	-0.004435539	-0.121998787	-7.723021507	6.067872047	-0.131464888	-0.185443218	-0.221778453	-0.160400391	1.040771484	0.074951172	887.16	-54.97664577	2.359381068	-120.7614261	-62
64467	0	-0.001647949	-0.313720703	0.241271973	0.999979019	-0.000781059	-0.003211975	-0.005401611	-0.04119873	-7.843017578	6.031799316	-0.039053224	-0.160599828	-0.270082372	-0.167480469	1.038818359	0.075439453	887.06	-55.07153773	1.636313528	-120.7662173	-62
64468	0	0.007764816	-0.316541672	0.239460945	0.999973297	0.0001297	-0.003386497	-0.006381989	0.194120407	-7.913541794	5.986523628	0.006485042	-0.169326348	-0.319102203	-0.182128906	1.034912109	0.082519531	887.06	-55.0613876	0.808637498	-120.8169984	-62
64469	0	0.016845703	-0.324890137	0.240661621	0.999975204	0.000123024	-0.002807617	-0.006309509	0.421142578	-8.122253418	6.016540527	0.006151248	-0.140381976	-0.315477972	-0.19140625	1.028564453	0.086669922	887.08	-55.05020581	0.024618333	-120.9132533	-62
64470	0	0.017725945	-0.332212448	0.236019135	0.99998188	0.001873016	-0.001260757	-0.005441666	0.443148613	-8.305311203	5.900478363	0.09365136	-0.063038237	-0.272084856	-0.206054688	1.029052734	0.084472656	887.12	-54.83590898	-0.576757117	-121.1036327	-62
64471	0	0.015380859	-0.329589844	0.235595703	0.999986649	-0.000494957	-0.000148773	-0.004997253	0.384521484	-8.239746094	5.889892578	-0.024747953	-0.007438691	-0.249863722	-0.217773438	1.027099609	0.079345703	887.02	-54.88930642	-1.063338553	-121.3824119	-62
64472	0	0.013366699	-0.33203125	0.228942871	0.999988556	-6.86646E-05	-1.04904E-05	-0.004760742	0.33416748	-8.30078125	5.723571777	-0.003433241	-0.000524523	-0.238038009	-0.227539063	1.025146484	0.083007813	887.06	-54.89142917	-1.519051009	-121.6545328	-62
64473	0	0.015869141	-0.325561523	0.230529785	0.999986649	0.001969337	-0.000652313	-0.004573822	0.396728516	-8.139038086	5.763244629	0.098467287	-0.032615799	-0.228692062	-0.234619141	1.020996094	0.080810547	887.08	-54.65949427	-1.999257669	-121.8531087	-63
64474	0	0.020324707	-0.33416748	0.236694336	0.999986649	0.002182961	6.19888E-05	-0.004535675	0.508117676	-8.354187012	5.917358398	0.109148487	0.003099455	-0.22678471	-0.243896484	1.018798828	0.072753906	887	-54.39850457	-2.427569552	-122.1243945	-62
64475	0	0.024230957	-0.327758789	0.229064941	0.999990463	0.001832008	0.000144958	-0.003753662	0.605773926	-8.193969727	5.726623535	0.091600685	0.007247946	-0.187683652	-0.255859375	1.017089844	0.067626953	887.18	-54.17770557	-2.776535613	-122.3627872	-63
64476	0	0.017500877	-0.331720352	0.235534668	0.999998093	-5.72205E-05	-0.000163078	-0.001617432	0.437521935	-8.293008804	5.888366699	-0.002861024	-0.008153919	-0.080871618	-0.260498047	1.017089844	0.064941406	887.12	-54.18084942	-2.946962388	-122.4354603	-62
64477	0	0.013977051	-0.329101563	0.237304688	0.999999046	0.000270844	-7.9155E-05	-0.001205444	0.34942627	-8.227539063	5.932617188	0.013542179	-0.003957749	-0.060272232	-0.262939453	1.014892578	0.065185547	887.14	-54.14718092	-3.073042132	-122.4892249	-63
64478	0	0.013486862	-0.313690186	0.224349022	0.999996185	0.00200367	-0.000370979	-0.00168705	0.337171555	-7.842254639	5.608725548	0.100183604	-0.018548987	-0.084352592	-0.267822266	1.017333984	0.068359375	887.06	-53.91452737	-3.262811866	-122.5387505	-63
64479	0	0.026184082	-0.319641113	0.235229492	0.999992371	0.00313282	-0.000675201	-0.001907349	0.654602051	-7.991027832	5.880737305	0.15664137	-0.033760149	-0.095367653	-0.270263672	1.015380859	0.068603516	887.14	-53.55279133	-3.493227434	-122.5676881	-63
64480	0	0.031989098	-0.319231987	0.232430458	0.999998093	0.000514984	-0.000569344	-0.001582146	0.79972744	-7.980799675	5.810761452	0.02574922	-0.028467193	-0.079107325	-0.272216797	1.010742188	0.060302734	887.12	-53.49156617	-3.686538416	-122.5979074	-63
64481	0	0.033935547	-0.318115234	0.231323242	0.999997139	-0.000679016	-0.000727654	-0.001853943	0.848388672	-7.952880859	5.783081055	-0.033950831	-0.036382702	-0.092697212	-0.281982422	1.010986328	0.054931641	887.08	-53.56676644	-3.916065744	-122.6503908	-63
64482	0	0.031663895	-0.31490612	0.237258911	0.999998093	-0.000370979	-0.00026226	-0.001800537	0.791597366	-7.872653008	5.931472778	-0.018548976	-0.013113029	-0.090026907	-0.281982422	1.011230469	0.063720703	887.08	-53.60350368	-4.109250231	-122.7241441	-63
64483	0	0.03692627	-0.324707031	0.239746094	0.999999046	-0.000465393	9.63211E-05	-0.001174927	0.923156738	-8.117675781	5.993652344	-0.02326966	0.004816057	-0.058746354	-0.284423828	1.011230469	0.061035156	887.06	-53.65142542	-4.220757355	-122.792466	-63
64484	0	0.031835556	-0.320703506	0.236096382	0.999999046	-0.001172066	0.000368118	-0.000411987	0.795888901	-8.017587662	5.902409554	-0.058603303	0.018405919	-0.020599371	-0.289306641	1.009033203	0.064208984	887.14	-53.78216257	-4.243554669	-122.8414663	-63
64485	0	0.03137207	-0.321777344	0.240356445	0.999999046	-0.001041412	0.000206947	-0.000331879	0.784301758	-8.044433594	6.008911133	-0.052070628	0.010347368	-0.016593937	-0.2890625	1.006835938	0.064453125	887.14	-53.89920949	-4.269992882	-122.8726169	-63
64486	0	0.031360626	-0.312047958	0.231784821	0.999999046	-0.000694275	-0.000236511	-0.000805855	0.784015656	-7.801198959	5.794620514	-0.034713752	-0.011825564	-0.040292748	-0.289306641	1.006835938	0.067382813	887.18	-53.97694883	-4.370377452	-122.8897013	-63
64487	0	0.031311035	-0.318908691	0.235351563	0.999999046	0.000179291	-0.00039196	-0.001010895	0.782775879	-7.972717285	5.883789063	0.00896454	-0.019598011	-0.050544749	-0.291748047	1.009277344	0.067382813	887.12	-53.95441748	-4.500230634	-122.9034074	-63
64488	0	0.032073975	-0.315158844	0.238307953	0.999999046	-0.000321388	2.09808E-05	-0.0013237	0.801849365	-7.8789711	5.957698822	-0.016069417	0.001049042	-0.066185018	-0.296386719	1.004882813	0.071044922	887.14	-53.98405641	-4.631201283	-122.9801269	-63
64489	0	0.034118652	-0.316223145	0.232971191	0.999998093	-0.000983238	0.000389099	-0.001461029	0.852966309	-7.905578613	5.824279785	-0.049161938	0.019454967	-0.073051492	-0.299072266	1.007324219	0.073730469	887.14	-54.08566617	-4.750286874	-123.0946366	-63
64490	0	0.039011955	-0.316508293	0.232561111	0.999997139	0.000541687	0.000352859	-0.002109528	0.975298882	-7.912707329	5.814027786	0.027084373	0.017642989	-0.105476465	-0.301269531	1.002929688	0.071289063	887.12	-54.00861017	-4.932239612	-123.2510051	-63
64491	0	0.038818359	-0.315979004	0.237487793	0.999997139	-0.000247955	0.000588417	-0.002258301	0.970458984	-7.899475098	5.937194824	-0.012397777	0.02942088	-0.112915143	-0.305908203	1.002929688	0.068603516	887.18	-54.01832201	-5.112161874	-123.4416015	-63
64492	0	0.039680481	-0.318602562	0.230905533	0.999995232	-0.001229286	0.00069809	-0.00250721	0.992012024	-7.965064049	5.772638321	-0.061464395	0.034904528	-0.125360662	-0.310791016	1.000976563	0.072021484	887.08	-54.13737375	-5.308186752	-123.6570615	-63
64493	0	0.045837402	-0.326293945	0.230102539	0.999997139	-0.000507355	0.000496864	-0.002185822	1.145935059	-8.157348633	5.752563477	-0.025367759	0.024843238	-0.109291173	-0.317871094	0.998779297	0.072753906	887.06	-54.17696378	-5.488544518	-123.837136	-63
64494	0	0.036237717	-0.328512192	0.233710289	0.999998093	-0.001088142	0.000906944	-0.001156807	0.905942917	-8.212804794	5.842757225	-0.05440715	0.045347239	-0.05784038	-0.3203125	0.996582031	0.070068359	887.12	-54.2858272	-5.545792979	-123.9927809	-64
64495	0	0.032653809	-0.329040527	0.230102539	0.999999046	-0.000923157	0.000226021	-0.000656128	0.816345215	-8.226013184	5.752563477	-0.046157847	0.011301043	-0.032806404	-0.322753906	0.996826172	0.072998047	887.14	-54.38536754	-5.601819897	-124.0499987	-63
64496	0	0.038403511	-0.322034836	0.232088089	0.999999046	-7.9155E-05	0.00025177	-0.00087738	0.960087776	-8.050870895	5.802202225	-0.003957749	0.012588503	-0.043869025	-0.322753906	0.996826172	0.079101563	887.12	-54.38639251	-5.676694519	-124.1124555	-64
64497	0	0.045715332	-0.315490723	0.223876953	0.999998093	-0.000674248	0.000305176	-0.001430511	1.142883301	-7.887268066	5.596923828	-0.033712402	0.015258796	-0.071525605	-0.322753906	0.996826172	0.075927734	887.14	-54.4513407	-5.799900484	-124.2161832	-64
64498	0	0.045532227	-0.321899414	0.22265625	0.999998093	-0.000922203	-0.000605583	-0.001335144	1.138305664	-8.047485352	5.56640625	-0.046110176	-0.030279175	-0.066757236	-0.329833984	0.992675781	0.079833984	887.08	-54.55408289	-5.975209512	-124.2372215	-64
64499	0	0.04498291	-0.323547363	0.219787598	0.999997139	0.000873566	-0.00127697	-0.00138855	1.124572754	-8.088684082	5.494689941	0.043678315	-0.063848541	-0.06942754	-0.332275391	0.992675781	0.076904297	887.14	-54.45763753	-6.200290427	-124.2000334	-64
64500	0	0.0414505	-0.322246552	0.226166725	0.999996185	0.001451492	-0.00127697	-0.001675606	1.036262512	-8.056163788	5.654168129	0.072574695	-0.063848565	-0.08378038	-0.337158203	0.992919922	0.080078125	887.3	-54.29303192	-6.451981813	-124.1775071	-64
64501	0	0.043945313	-0.325439453	0.230407715	0.999996185	0.001408577	-0.001270294	-0.001655579	1.098632813	-8.135986328	5.760192871	0.070428923	-0.063514777	-0.082779018	-0.339355469	0.990722656	0.074462891	887.24	-54.13346234	-6.70120423	-124.1593413	-64
64502	0	0.046023369	-0.324652672	0.226935387	0.999997139	0.000921249	-0.000963211	-0.001728058	1.150584221	-8.116316795	5.673384666	0.046062506	-0.048160591	-0.086402962	-0.339111328	0.98828125	0.071777344	887.08	-54.02597728	-6.93639164	-124.172305	-64
64503	0	0.048034668	-0.327453613	0.237487793	0.999993324	0.003101349	-0.000857353	-0.001316071	1.200866699	-8.186340332	5.937194824	0.155067756	-0.042867747	-0.06580366	-0.343994141	0.986328125	0.075195313	887.06	-53.67064016	-7.12600113	-124.1627642	-64
64504	0	0.048522949	-0.312837601	0.231354713	0.999994278	0.003093719	-0.000864983	-0.000789642	1.21307373	-7.820940018	5.783867836	0.154686256	-0.043249209	-0.039482189	-0.348876953	0.988769531	0.069335938	887.12	-53.32051756	-7.26742041	-124.1210143	-64
64505	0	0.051025391	-0.319641113	0.231933594	0.999991417	0.003639221	-0.001814842	-0.00069046	1.275634766	-7.991027832	5.798339844	0.181961576	-0.090742369	-0.034523108	-0.346191406	0.986328125	0.063476563	887.12	-52.92019214	-7.465125719	-123.9813296	-64
64506	0	0.058608055	-0.309704781	0.239964485	0.999997139	0.001661301	-0.001085281	-0.000549316	1.465201378	-7.742619514	5.999112129	0.083065092	-0.054264107	-0.02746584	-0.351074219	0.988525391	0.054931641	887.14	-52.73891308	-7.600258863	-123.9113785	-64
64507	0	0.058776855	-0.315063477	0.240234375	0.999999046	-7.24792E-05	-0.000414848	-0.000366211	1.469421387	-7.876586914	6.005859375	-0.003623963	-0.020742417	-0.018310548	-0.353271484	0.988769531	0.052001953	887.2	-52.74983328	-7.67246727	-123.8963193	-64
64508	0	0.05859375	-0.311393738	0.240628242	0.999999046	-0.000151634	-0.000535965	-0.000274658	1.46484375	-7.784843445	6.015706062	-0.007581711	-0.02679825	-0.013732911	-0.351074219	0.990966797	0.051757813	887.18	-52.77201717	-7.744911385	-123.8564787	-64
64509	0	0.055969238	-0.312133789	0.243286133	0.999999046	0.000377655	-0.000220299	-0.000457764	1.399230957	-7.803344727	6.08215332	0.018882753	-0.011014939	-0.022888185	-0.351074219	0.986328125	0.060791016	887.14	-52.72765235	-7.812173669	-123.850431	-65
64510	0	0.054382324	-0.310180664	0.240905762	0.999999046	0.000907898	-0.000476837	-0.000408173	1.359558105	-7.754516602	6.022644043	0.045394907	-0.023841863	-0.020408635	-0.353271484	0.986572266	0.058105469	887.18	-52.62597898	-7.892636271	-123.8208585	-64
64511	0	0.056335449	-0.307617188	0.237182617	0.999999046	0.00025177	-0.000452995	-0.000598907	1.40838623	-7.690429688	5.92956543	0.012588502	-0.022649767	-0.029945377	-0.353271484	0.986328125	0.052246094	887.14	-52.59723576	-7.988840857	-123.8112384	-65
64512	0	0.058444977	-0.308283806	0.236369133	0.999999046	-0.000458717	-0.000402451	-0.000778198	1.46112442	-7.707095146	5.909228325	-0.022935871	-0.020122531	-0.038909918	-0.357910156	0.986572266	0.049560547	887.14	-52.64744286	-8.097956809	-123.8278844	-65
64513	0	0.059936523	-0.303588867	0.233276367	0.999998093	-0.001582146	-0.000183105	-0.000827789	1.498413086	-7.58972168	5.83190918	-0.079107327	-0.009155278	-0.041389488	-0.358154297	0.986572266	0.055419922	887.12	-52.82294974	-8.196608119	-123.8609215	-65
64514	0	0.05637455	-0.304722786	0.232657433	0.999997139	-0.001993179	-0.000114441	-0.001167297	1.409363747	-7.618069649	5.816435814	-0.099659055	-0.005722051	-0.05836492	-0.358154297	0.984375	0.061523438	887.12	-53.04113035	-8.321690941	-123.9180239	-65
64515	0	0.059326172	-0.308898926	0.235351563	0.999991417	-0.003627777	0.000199318	-0.001930237	1.483154297	-7.722473145	5.883789063	-0.181389367	0.009965925	-0.096512113	-0.363037109	0.982421875	0.064941406	887.12	-53.43438272	-8.495746842	-124.0626947	-65
64516	0	0.062293053	-0.319672585	0.237883568	0.999982834	-0.005245209	0.001259804	-0.002053261	1.557326317	-7.991814613	5.947089195	-0.262261893	0.062990538	-0.10266361	-0.365234375	0.980224609	0.068115234	887.14	-53.99674966	-8.610626217	-124.3168846	-65
64517	0	0.060058594	-0.331726074	0.233703613	0.999986649	-0.004702568	0.001228333	-0.001358032	1.501464844	-8.293151855	5.842590332	-0.235129401	0.061416887	-0.0679019	-0.370117188	0.975830078	0.080566406	887.06	-54.50450867	-8.665263718	-124.5215035	-65
64518	0	0.059593201	-0.329945564	0.228618622	0.999997139	-0.001813889	0.000621796	-0.00063324	1.489830017	-8.248639107	5.715465546	-0.090694489	0.031089804	-0.031662009	-0.372558594	0.973876953	0.086669922	887.18	-54.6974058	-8.693602271	-124.6190302	-65
64519	0	0.059448242	-0.325683594	0.223693848	0.999999046	-0.001312256	0.000107765	-0.000179291	1.486206055	-8.142089844	5.592346191	-0.065612812	0.005388261	-0.008964541	-0.375244141	0.976074219	0.089599609	887.08	-54.84502923	-8.713614632	-124.6375448	-65
64520	0	0.063968658	-0.316368103	0.226173401	0.999999046	0.000287056	-0.000385284	-8.4877E-05	1.599216461	-7.909202576	5.654335022	0.014352799	-0.019264222	-0.004243851	-0.375244141	0.973876953	0.095703125	887.14	-54.81727562	-8.757486832	-124.5972019	-65
64521	0	0.061767578	-0.315185547	0.220581055	0.999999046	0.000431061	-0.00032711	-0.000392914	1.544189453	-7.879638672	5.514526367	0.021553041	-0.016355516	-0.019645692	-0.372802734	0.973876953	0.092529297	887.18	-54.76910693	-8.826405369	-124.579639	-65
64522	0	0.065893173	-0.322322845	0.228445053	0.999999046	0.000400543	-0.000562668	-0.000595093	1.64732933	-8.058071136	5.711126328	0.020027163	-0.028133396	-0.029754643	-0.375	0.973876953	0.08984375	887.08	-54.72572491	-8.929950854	-124.5576292	-66
64523	0	0.064758301	-0.324035645	0.228149414	0.999999046	-0.000320435	-2.95639E-05	-0.000221252	1.61895752	-8.100891113	5.703735352	-0.016021729	-0.001478195	-0.011062622	-0.375	0.973876953	0.08984375	887.08	-54.76103939	-8.963279468	-124.5604088	-66
64524	0	0.063510895	-0.322995186	0.229524612	0.999999046	-6.67572E-06	-3.05176E-05	-0.000103951	1.587772369	-8.074879646	5.738115311	-0.000333786	-0.001525879	-0.005197525	-0.377441406	0.974121094	0.08984375	887.24	-54.76156235	-8.985648808	-124.558764	-65
64525	0	0.063903809	-0.321594238	0.230529785	0.999999046	0.000637054	-0.000288963	-0.000244141	1.597595215	-8.039855957	5.763244629	0.031852725	-0.014448167	-0.012207032	-0.377441406	0.971679688	0.095947266	887.12	-54.69053079	-9.038194785	-124.5350431	-66
64526	0	0.063950539	-0.321512222	0.232366562	0.999999046	0.00031662	-0.00012207	-1.62125E-05	1.598763466	-8.037805557	5.809164047	0.015830994	-0.006103516	-0.000810623	-0.377441406	0.973876953	0.086914063	887.24	-54.65592602	-9.058317416	-124.5192673	-66
64527	0	0.0625	-0.320495605	0.230834961	0.999999046	-5.72205E-05	0.000115395	-6.86646E-05	1.5625	-8.012390137	5.770874023	-0.002861023	0.00576973	-0.003433228	-0.377685547	0.974121094	0.092773438	887.14	-54.65992633	-9.06748154	-124.5217179	-66
64528	0	0.062612534	-0.319415092	0.229652405	0.999999046	-0.000607491	0.00034523	-0.00017643	1.565313339	-7.985377312	5.74131012	-0.03037453	0.017261507	-0.008821488	-0.377441406	0.971679688	0.093017578	887.14	-54.72228012	-9.071413248	-124.555152	-66
64529	0	0.063415527	-0.319641113	0.228027344	0.999999046	-0.000762939	0.000412941	-0.000343323	1.585388184	-7.991027832	5.700683594	-0.038146978	0.020647052	-0.01716614	-0.379882813	0.971923828	0.090087891	887.14	-54.79958379	-9.086498963	-124.6132982	-65
64530	0	0.065340042	-0.319025993	0.225641251	0.999999046	-0.000982285	0.000597	-0.000263214	1.633501053	-7.975649834	5.641031265	-0.049114239	0.029850013	-0.013160709	-0.379882813	0.971923828	0.095947266	887.2	-54.90009405	-9.082102028	-124.6759527	-66
64531	0	0.063354492	-0.320007324	0.221252441	0.999999046	-0.001186371	0.000599861	-2.67029E-05	1.583862305	-8.000183105	5.531311035	-0.05931856	0.029993066	-0.001335144	-0.382324219	0.971923828	0.093261719	887.14	-55.02660847	-9.055460358	-124.7324157	-65
64532	0	0.064383507	-0.321392059	0.224290848	0.999999046	-0.000311852	0.000324249	-0.000137329	1.609587669	-8.034801483	5.607271194	-0.015592576	0.016212464	-0.006866455	-0.382324219	0.969726563	0.093505859	887.2	-55.05591208	-9.057405569	-124.7715311	-65
64533	0	0.063659668	-0.320373535	0.227172852	0.999999046	-0.000648499	0.000466347	7.62939E-05	1.591491699	-8.009338379	5.679321289	-0.03242493	0.02331734	0.003814698	-0.379882813	0.971923828	0.095947266	887.2	-55.12377786	-9.029964516	-124.8001245	-65
64534	0	0.064256668	-0.318842888	0.223706245	0.999999046	-0.000804901	0.00043869	6.77109E-05	1.606416702	-7.971072197	5.592656136	-0.040245062	0.021934512	0.003385544	-0.382324219	0.971923828	0.096191406	887.12	-55.20984998	-9.005235183	-124.8322636	-65
64535	0	0.062927246	-0.317993164	0.221008301	0.999999046	-0.00063324	0.000180244	0.000110626	1.573181152	-7.949829102	5.52520752	-0.03166199	0.009012223	0.005531311	-0.382324219	0.969726563	0.099365234	887.14	-55.28056583	-8.993401915	-124.8369267	-65
64536	0	0.063691139	-0.322012901	0.222393036	0.999999046	0.000576973	-0.000305176	-0.000313759	1.592278481	-8.050322533	5.559825897	0.028848651	-0.01525879	-0.015687944	-0.382324219	0.971923828	0.096191406	887.08	-55.21549068	-9.053234646	-124.821808	-65
64537	0	0.063354492	-0.319335938	0.222290039	0.999999046	0.000751495	-0.00026989	-0.000823975	1.583862305	-7.983398438	5.557250977	0.037574776	-0.013494495	-0.04119874	-0.382324219	0.971923828	0.099121094	887.14	-55.12451202	-9.158728012	-124.8347764	-66
64538	0	0.065228462	-0.322306633	0.226706505	0.999998093	-0.001275063	0.000353813	-0.000991821	1.630711555	-8.057665825	5.667662621	-0.063753157	0.017690667	-0.049591087	-0.384765625	0.967529297	0.102539063	887.06	-55.2543376	-9.239221425	-124.9216536	-65
64539	0	0.06451416	-0.331176758	0.229064941	0.999997139	-0.001766205	0.000943184	-0.000396729	1.612854004	-8.279418945	5.726623535	-0.088310303	0.047159228	-0.01983644	-0.387207031	0.967773438	0.105712891	887.18	-55.43772238	-9.225374147	-125.0261384	-65
64540	0	0.06348896	-0.325336456	0.226449013	0.999995232	-0.002503395	0.001195908	-0.000184059	1.587224007	-8.133411407	5.661225319	-0.125169915	0.059795457	-0.009202969	-0.389648438	0.967773438	0.102783203	887.12	-55.70390788	-9.175410981	-125.1518914	-65
64541	0	0.061096191	-0.32598877	0.222106934	0.999996185	-0.0024786	0.000957489	-0.000610352	1.527404785	-8.149719238	5.55267334	-0.123930131	0.04787451	-0.030517616	-0.387207031	0.967773438	0.108642578	887.14	-55.96650812	-9.181624119	-125.2712489	-65
64542	0	0.063146591	-0.326579094	0.219817162	0.999998093	-0.001139641	0.000370979	-0.000729561	1.57866478	-8.164477348	5.495429039	-0.056982059	0.018548972	-0.036478055	-0.392089844	0.965576172	0.111816406	887.24	-56.08343943	-9.237086633	-125.3482477	-65
64543	0	0.065002441	-0.325195313	0.217346191	0.999999046	-0.00069809	-6.67572E-06	-0.00043869	1.625061035	-8.129882813	5.433654785	-0.034904484	-0.000333786	-0.021934512	-0.392089844	0.965576172	0.114990234	887.2	-56.15865671	-9.289153707	-125.3649053	-65
64544	0	0.066326141	-0.322691917	0.215490341	0.999999046	-1.81198E-05	-0.000267029	-0.000123024	1.658153534	-8.067297935	5.38725853	-0.000905991	-0.013351441	-0.006151199	-0.394287109	0.961181641	0.118408203	887.12	-56.16334134	-9.327885251	-125.3408759	-65
64545	0	0.065246582	-0.323242188	0.214355469	0.999999046	0.000205994	-0.000418663	3.8147E-06	1.631164551	-8.081054688	5.358886719	0.010299683	-0.020933152	0.000190735	-0.39453125	0.963623047	0.118164063	887.12	-56.14616871	-9.364227894	-125.2915225	-65
64546	0	0.066955566	-0.323120117	0.215515137	0.999999046	0.00063324	-0.000297546	9.53674E-05	1.67388916	-8.07800293	5.387878418	0.03166199	-0.014877321	0.004768372	-0.392089844	0.965576172	0.114990234	887.18	-56.07917162	-9.384218891	-125.2439322	-65
64547	0	0.064331055	-0.324584961	0.218200684	0.999999046	0.000377655	-0.000136375	7.62939E-06	1.608276367	-8.114624023	5.45501709	0.018882752	-0.006818772	0.00038147	-0.391845703	0.963378906	0.112060547	887.18	-56.03801193	-9.402169807	-125.2226642	-65
64548	0	0.065423965	-0.325579643	0.220564842	0.999999046	-3.52859E-05	0.000181198	-6.19888E-05	1.635599136	-8.139491081	5.514121056	-0.001764297	0.009059906	-0.003099442	-0.391845703	0.963378906	0.112060547	887.08	-56.03838529	-9.406350243	-125.2356723	-65
64549	0	0.063354492	-0.325805664	0.22088623	0.999999046	0.000198364	8.10623E-05	-0.000190735	1.583862305	-8.145141602	5.522155762	0.009918213	0.004053116	-0.009536743	-0.394287109	0.963378906	0.112304688	887.2	-56.01213344	-9.429003415	-125.2500563	-65
64550	0	0.061917305	-0.327281952	0.221513748	0.999999046	0.000221252	-0.000261307	-0.000244141	1.547932625	-8.182048798	5.537843704	0.011062622	-0.013065339	-0.012207032	-0.39453125	0.963378906	0.115234375	887.2	-55.98805946	-9.478401185	-125.2300742	-65
64551	0	0.062316895	-0.32598877	0.221252441	0.999999046	0.00031662	3.14713E-05	-0.000358582	1.557922363	-8.149719238	5.531311035	0.015830994	0.001573563	-0.017929078	-0.39453125	0.963378906	0.115234375	887.08	-55.9471277	-9.519654764	-125.243038	-65
64552	0	0.06424427	-0.323669434	0.217616081	0.999999046	0.000699043	-0.000198364	-0.000190735	1.606106758	-8.09173584	5.440402031	0.034952167	-0.009918214	-0.009536744	-0.39453125	0.965820313	0.114990234	887.2	-55.86787802	-9.559592798	-125.2179319	-65
64553	0	0.065917969	-0.322875977	0.218933105	0.999999046	0.000926971	-0.000224113	-0.000202179	1.647949219	-8.071899414	5.473327637	0.046348579	-0.011205675	-0.010108949	-0.396972656	0.965820313	0.112304688	887.18	-55.76278956	-9.602225398	-125.1965426	-65
64554	0	0.068709373	-0.321772575	0.218583107	0.999999046	0.000562668	-0.000139236	-0.000351906	1.717734337	-8.044314384	5.464577675	0.028133394	-0.006961823	-0.017595292	-0.396484375	0.961181641	0.106689453	887.12	-55.69645053	-9.653651637	-125.202123	-65
64555	0	0.068847656	-0.323730469	0.220397949	0.999999046	0.000362396	-8.29697E-05	-0.000286102	1.721191406	-8.093261719	5.50994873	0.018119813	-0.004148483	-0.014305115	-0.399169922	0.963623047	0.106689453	887.26	-55.65288205	-9.695253748	-125.2085667	-65
64556	0	0.066934586	-0.326340675	0.219890594	0.999999046	0.000897408	-0.000202179	0.000109673	1.673364639	-8.158516884	5.497264862	0.044870383	-0.010108949	0.005483628	-0.398925781	0.961425781	0.103759766	887.14	-55.55443241	-9.707055296	-125.1819918	-65
64557	0	0.06439209	-0.322021484	0.21862793	0.999999046	0.000827789	1.62125E-05	0.000347137	1.609802246	-8.050537109	5.465698242	0.041389471	0.000810623	0.017356875	-0.396484375	0.961181641	0.100830078	887.14	-55.46316331	-9.682122385	-125.1592339	-65
64558	0	0.063488007	-0.324385643	0.221425056	0.999999046	0.001237869	-0.00015831	-5.34058E-05	1.587200165	-8.109641075	5.535626411	0.061893479	-0.007915499	-0.002670289	-0.399169922	0.963623047	0.103759766	887.12	-55.32335633	-9.706121437	-125.141605	-65
64559	0	0.065063477	-0.321533203	0.222717285	0.999999046	0.001274109	-7.9155E-05	0.000232697	1.626586914	-8.038330078	5.567932129	0.063705462	-0.00395775	0.01163483	-0.398925781	0.963378906	0.094970703	887.02	-55.18129125	-9.697879401	-125.1214075	-65
64560	0	0.067696571	-0.319775581	0.223582268	0.999999046	0.00067997	4.3869E-05	8.67844E-05	1.692414284	-7.994389534	5.589556694	0.033998492	0.002193451	0.004339218	-0.396484375	0.963378906	0.100585938	887.18	-55.10365481	-9.695337169	-125.1093802	-65
64561	0	0.069824219	-0.319396973	0.224243164	0.999999046	0.000644684	9.25064E-05	8.01086E-05	1.745605469	-7.984924316	5.606079102	0.032234194	0.004625321	0.004005432	-0.398925781	0.963623047	0.097900391	887.14	-55.02914495	-9.690335551	-125.1088314	-65
64562	0	0.071012497	-0.321315765	0.225708008	0.999999046	0.000764847	-7.62939E-05	0.000228882	1.775312424	-8.032894135	5.642700195	0.038242344	-0.003814698	0.011444093	-0.396484375	0.965576172	0.094482422	887.18	-54.9452008	-9.682607684	-125.0783962	-66
64563	0	0.070251465	-0.318603516	0.224487305	0.999999046	0.001052856	-0.000208855	0.000480652	1.756286621	-7.965087891	5.612182617	0.052642834	-0.010442736	0.024032598	-0.396484375	0.965576172	0.094482422	887.18	-54.83316233	-9.660176824	-125.0185697	-66
64564	0	0.067170143	-0.318196297	0.224823952	0.999999046	0.000245094	1.52588E-05	0.00026989	1.679253578	-7.954907417	5.620598793	0.012254715	0.000762939	0.013494492	-0.396484375	0.963378906	0.091796875	887.14	-54.80771652	-9.642730626	-125.0005688	-66
64565	0	0.064941406	-0.320983887	0.228210449	0.999999046	0.00050354	-0.000170708	0.000286102	1.623535156	-8.024597168	5.70526123	0.025177003	-0.008535386	0.014305116	-0.396484375	0.963378906	0.091796875	887.12	-54.75572351	-9.635910152	-124.9638935	-66
64566	0	0.065202713	-0.316584587	0.224538803	0.999999046	-4.57764E-05	0.000221252	0.000124931	1.630067825	-7.914614677	5.613470078	-0.002288818	0.011062622	0.006246567	-0.394042969	0.963378906	0.091796875	887.14	-54.75861335	-9.618185861	-124.9704032	-66
64567	0	0.065979004	-0.322387695	0.222106934	0.999999046	-0.000286102	0.000157356	0.000110626	1.649475098	-8.059692383	5.55267334	-0.014305115	0.007867813	0.005531311	-0.396484375	0.965576172	0.091552734	887.18	-54.79014761	-9.605969096	-124.9746736	-66
64568	0	0.065530777	-0.327230453	0.223099709	0.999999046	-0.000424385	7.62939E-06	0.000159264	1.638269424	-8.180761337	5.577492714	-0.021219254	0.00038147	0.007963181	-0.396484375	0.965576172	0.094482422	887.14	-54.84077755	-9.598981164	-124.9591284	-66
64569	0	0.064575195	-0.323303223	0.223022461	0.999999046	0.000137329	4.673E-05	0.000511169	1.614379883	-8.082580566	5.575561523	0.006866455	0.002336502	0.025558473	-0.396484375	0.965576172	0.094482422	887.18	-54.83053189	-9.556315233	-124.9254551	-66
64570	0	0.06367588	-0.321415901	0.223421097	0.999999046	0.000196457	-0.00028801	0.000293732	1.591897011	-8.03539753	5.58552742	0.009822846	-0.014400483	0.014686585	-0.394042969	0.963378906	0.091796875	887.14	-54.81648131	-9.555971248	-124.8766691	-66
64571	0	0.063720703	-0.32019043	0.227783203	0.999999046	0.000534058	-0.000384331	0.000427246	1.593017578	-8.004760742	5.694580078	0.026702884	-0.019216539	0.021362307	-0.391601563	0.965576172	0.088378906	887.12	-54.76664219	-9.549356163	-124.8073676	-66
64572	0	0.066431046	-0.319210052	0.228560448	0.999999046	0.000952721	-0.000253677	-3.91006E-05	1.660776138	-7.980251312	5.714011192	0.04763604	-0.01268387	-0.001955033	-0.394287109	0.967773438	0.094238281	887.12	-54.66144137	-9.577776106	-124.7752033	-66
64573	0	0.066772461	-0.318359375	0.229919434	0.999999046	0.000831604	-0.000311852	8.39233E-05	1.669311523	-7.958984375	5.74798584	0.041580206	-0.015592577	0.004196168	-0.394287109	0.967773438	0.091308594	887.14	-54.57222656	-9.59857708	-124.7316628	-66
64574	0	0.068083763	-0.315546036	0.23076725	0.999999046	0.000614166	0.000221252	7.53403E-05	1.702094078	-7.888650894	5.769181252	0.030708315	0.011062623	0.003767014	-0.394042969	0.965576172	0.091552734	887.14	-54.49915017	-9.584839632	-124.7397539	-66
64575	0	0.06439209	-0.316711426	0.225891113	0.999999046	0.000545502	9.25064E-05	-0.000331879	1.609802246	-7.917785645	5.647277832	0.027275087	0.004625321	-0.016593934	-0.394042969	0.967773438	0.082519531	887.26	-54.43138378	-9.617523827	-124.7679391	-66
64576	0	0.065601349	-0.321792603	0.226985931	0.999999046	-8.29697E-05	-0.000131607	-0.000240326	1.640033722	-8.044815063	5.674648285	-0.004148483	-0.006580353	-0.012016297	-0.394042969	0.965576172	0.088623047	887.2	-54.44032482	-9.656506958	-124.763127	-66
64577	0	0.063537598	-0.320556641	0.225646973	0.999999046	-0.00031662	9.53674E-07	0.000102997	1.588439941	-8.013916016	5.641174316	-0.015830994	4.76837E-05	0.005149841	-0.396484375	0.965576172	0.088623047	887.14	-54.47797376	-9.654469367	-124.7532778	-66
64578	0	0.065608025	-0.318757057	0.220561981	0.999999046	-0.000232697	0.000104904	0.000106812	1.640200615	-7.96892643	5.51404953	-0.011634827	0.005245209	0.005340576	-0.396484375	0.967773438	0.088378906	887.14	-54.50468927	-9.645125075	-124.7509867	-66
64579	0	0.068115234	-0.320007324	0.222900391	0.999999046	0.000267029	8.86917E-05	-4.19617E-05	1.702880859	-8.000183105	5.572509766	0.013351441	0.004434586	-0.002098084	-0.396484375	0.965576172	0.088623047	887.12	-54.47292435	-9.650811361	-124.7584395	-66
64580	0	0.066026688	-0.318844795	0.223814011	0.999999046	0.00058651	-6.10352E-05	0.000263214	1.650667191	-7.971119881	5.595350266	0.029325487	-0.003051758	0.013160706	-0.394042969	0.965576172	0.085693359	887.2	-54.41051975	-9.637978211	-124.7295376	-66
64581	0	0.065368652	-0.317749023	0.226257324	0.999999046	0.000747681	-0.000338554	0.000164032	1.634216309	-7.943725586	5.656433105	0.037384038	-0.016927721	0.0082016	-0.396484375	0.967773438	0.082519531	887.18	-54.33294418	-9.65285828	-124.6862375	-66
64582	0	0.066763878	-0.318401337	0.232241631	0.999999046	0.000263214	-0.000255585	0.000213623	1.669096947	-7.960033417	5.806040764	0.013160706	-0.012779236	0.010681153	-0.396240234	0.965576172	0.082763672	887.12	-54.30995889	-9.657571544	-124.649808	-66
64583	0	0.064819336	-0.316650391	0.231445313	0.999999046	-0.000282288	0.000115395	0.000148773	1.620483398	-7.916259766	5.786132813	-0.01411438	0.00576973	0.00743866	-0.396484375	0.967773438	0.085449219	887.2	-54.34268826	-9.643412867	-124.6481515	-66
64584	0	0.064427376	-0.317471504	0.230181694	0.999999046	-0.000403404	8.39233E-05	7.15256E-05	1.610684395	-7.936787605	5.754542351	-0.020170212	0.004196167	0.003576279	-0.394042969	0.965576172	0.082763672	887.14	-54.38880218	-9.638432742	-124.6505219	-66
64585	0	0.06427002	-0.318847656	0.230224609	0.999999046	-4.19617E-05	0.000222206	0.000114441	1.606750488	-7.971191406	5.755615234	-0.002098084	0.011110306	0.005722046	-0.394042969	0.965576172	0.082763672	887.12	-54.39171272	-9.620095559	-124.663035	-66
64586	0	0.065133095	-0.320713043	0.227662086	0.999999046	0.000177383	8.96454E-05	0.000141144	1.62832737	-8.01782608	5.691552162	0.008869171	0.004482269	0.00705719	-0.394042969	0.965576172	0.085693359	887.18	-54.3719667	-9.608030094	-124.6576323	-66
64587	0	0.065490723	-0.318786621	0.227661133	0.999999046	0.000171661	-5.24521E-05	4.95911E-05	1.637268066	-7.969665527	5.69152832	0.008583069	-0.002622604	0.002479553	-0.396484375	0.967773438	0.085449219	887.14	-54.35410842	-9.613927838	-124.6469936	-66
64588	0	0.068778038	-0.321768761	0.225688934	0.999999046	-0.000124931	0	0.000110626	1.719450951	-8.044219017	5.642223358	-0.006246567	0	0.005531311	-0.396484375	0.970214844	0.085449219	887.06	-54.37030139	-9.610747341	-124.6345474	-66
64589	0	0.064819336	-0.318237305	0.226623535	0.999999046	0.000656128	-9.05991E-05	0.000354767	1.620483398	-7.955932617	5.665588379	0.0328064	-0.004529953	0.017738344	-0.394042969	0.967773438	0.082519531	887.2	-54.3012225	-9.590815822	-124.5987576	-66
64590	0	0.066102028	-0.315052986	0.230258942	0.999999046	0.000465393	6.67572E-05	0.000136375	1.652550697	-7.876324654	5.756473541	0.023269654	0.00333786	0.006818772	-0.394042969	0.967773438	0.082519531	887.18	-54.24887807	-9.580697527	-124.5919517	-66
64591	0	0.063903809	-0.320678711	0.227050781	0.999999046	0.000343323	-0.000159264	0.000114441	1.597595215	-8.016967773	5.676269531	0.017166138	-0.007963181	0.005722046	-0.394042969	0.967773438	0.082519531	887.18	-54.21397207	-9.587626185	-124.5650244	-66
64592	0	0.064025879	-0.318644524	0.228713036	0.999999046	0.000844002	-5.91278E-05	0.000163078	1.600646973	-7.966113091	5.71782589	0.042200094	-0.002956391	0.008153916	-0.391601563	0.967773438	0.082275391	887.18	-54.12069624	-9.583219751	-124.5385954	-66
64593	0	0.065551758	-0.317565918	0.227416992	0.999999046	0.000541687	-0.000109673	1.90735E-05	1.638793945	-7.939147949	5.685424805	0.027084352	-0.005483628	0.000953674	-0.394042969	0.967773438	0.079589844	887.14	-54.06130122	-9.595564419	-124.5239985	-66
64594	0	0.064858437	-0.321406364	0.232694626	0.999999046	0.000722885	-0.000234604	-2.28882E-05	1.621460915	-8.035159111	5.817365646	0.03614426	-0.011730195	-0.001144409	-0.393798828	0.965576172	0.079833984	887.18	-53.98261695	-9.620101764	-124.5008858	-66
64595	0	0.06451416	-0.317016602	0.232727051	0.999999046	0.000488281	-0.000243187	0	1.612854004	-7.925415039	5.81817627	0.024414064	-0.012159348	0	-0.391601563	0.967529297	0.076416016	887.12	-53.93109879	-9.643005839	-124.4715895	-66
64596	0	0.064443588	-0.317156792	0.231966972	0.999999046	8.67844E-05	-0.000249863	-8.39233E-05	1.611089706	-7.928919792	5.799174309	0.004339218	-0.012493134	-0.004196167	-0.393798828	0.967773438	0.073730469	887.18	-53.92467918	-9.67402911	-124.4539337	-66
64597	0	0.065307617	-0.317687988	0.231079102	0.999999046	0.000450134	-0.00032711	6.48499E-05	1.63269043	-7.942199707	5.776977539	0.022506715	-0.016355515	0.003242493	-0.393798828	0.967773438	0.073730469	887.12	-53.87956008	-9.696422517	-124.4182509	-66
64598	0	0.06498909	-0.315842628	0.229672432	0.999999046	0.000377655	-1.71661E-05	2.86102E-06	1.624727249	-7.896065712	5.741810799	0.018882752	-0.000858307	0.000143051	-0.396484375	0.969970703	0.073730469	887.12	-53.83715185	-9.703547335	-124.4173979	-66
64599	0	0.065368652	-0.315673828	0.229309082	0.999999046	0.000469208	-0.000121117	9.53674E-05	1.634216309	-7.891845703	5.732727051	0.023460389	-0.006055832	0.004768372	-0.393798828	0.967773438	0.076660156	887.14	-53.78700905	-9.709090634	-124.3938748	-66
64600	0	0.069636345	-0.314128876	0.230074883	0.999999046	-1.23978E-05	-5.53131E-05	-0.000198364	1.740908623	-7.853221893	5.751872063	-0.000619888	-0.002765656	-0.009918213	-0.393798828	0.967773438	0.073730469	887.14	-53.787586	-9.737506739	-124.398861	-66
64601	0	0.066223145	-0.317626953	0.232543945	0.999999046	0.000202179	-0.000128746	-0.0001297	1.655578613	-7.940673828	5.813598633	0.010108948	-0.006437302	-0.006484985	-0.393798828	0.967773438	0.073730469	887.14	-53.76551538	-9.764488967	-124.391086	-66
64602	0	0.065814018	-0.311902046	0.23118782	0.999999046	0.0001297	-0.000125885	-3.8147E-06	1.645350456	-7.797551155	5.779695511	0.006484985	-0.006294251	-0.000190735	-0.396240234	0.967773438	0.070800781	887.06	-53.75304534	-9.779601363	-124.3826053	-66
64603	0	0.067321777	-0.311767578	0.227294922	0.999999046	-0.000453949	-0.000121117	-0.000263214	1.683044434	-7.794189453	5.682373047	-0.02269745	-0.006055832	-0.013160706	-0.393798828	0.967773438	0.070800781	887.18	-53.80438824	-9.818427675	-124.3869272	-66
64604	0	0.065227509	-0.321343422	0.231686592	0.999999046	0.000294685	-0.000156403	-0.000306129	1.630687714	-8.033585548	5.792164803	0.014734269	-0.00782013	-0.015306473	-0.393798828	0.967773438	0.076660156	887.24	-53.77012621	-9.863459155	-124.3822312	-66
64605	0	0.064697266	-0.323120117	0.233947754	0.999999046	0.000183105	-2.95639E-05	8.7738E-05	1.617431641	-8.07800293	5.848693848	0.009155274	-0.001478195	0.004386902	-0.396240234	0.967773438	0.076660156	887.08	-53.75134264	-9.863269214	-124.3671286	-66
64606	0	0.063678741	-0.318590164	0.235219955	0.999999046	0.000459671	-0.000101089	1.90735E-05	1.591968536	-7.964754105	5.880498886	0.022983552	-0.005054474	0.000953674	-0.393798828	0.967773438	0.070800781	887.06	-53.70111961	-9.874034288	-124.3507911	-66
64607	0	0.06463623	-0.317321777	0.237182617	0.999999046	0.00056076	-0.000315666	-0.000228882	1.615905762	-7.933044434	5.92956543	0.028038027	-0.015783311	-0.011444093	-0.396240234	0.965576172	0.073974609	887.12	-53.6396436	-9.922066549	-124.3334373	-66
64608	0	0.065356255	-0.315504074	0.234442711	0.999999046	0.000340462	-0.000286102	-9.91821E-05	1.633906364	-7.887601852	5.861067772	0.017023087	-0.014305115	-0.004959107	-0.398681641	0.965576172	0.07421875	887.02	-53.6043722	-9.955987048	-124.3133938	-66
64609	0	0.065551758	-0.316040039	0.234130859	0.999999046	5.34058E-05	-0.000201225	-0.000141144	1.638793945	-7.901000977	5.853271484	0.002670288	-0.010061264	-0.00705719	-0.396240234	0.965576172	0.071044922	887.12	-53.60006234	-9.987872957	-124.3019509	-66
64610	0	0.066770554	-0.313738823	0.230657578	0.999999046	4.95911E-05	-0.00025177	6.48499E-05	1.66926384	-7.843470573	5.766439438	0.002479553	-0.012588501	0.003242493	-0.400878906	0.965576172	0.071289063	887.14	-53.59949963	-10.00414415	-124.2806077	-66
64611	0	0.070068359	-0.313659668	0.23046875	0.999999046	0.000415802	-0.000277519	-7.24792E-05	1.751708984	-7.841491699	5.76171875	0.020790101	-0.013875962	-0.003623963	-0.395996094	0.965576172	0.068115234	887.12	-53.55576931	-10.03495194	-124.258799	-66
64612	0	0.068840027	-0.316813469	0.233623505	0.999999046	0.000454903	-0.000347137	0.000118256	1.721000671	-7.920336723	5.840587616	0.022745134	-0.017356874	0.005912781	-0.398681641	0.967773438	0.071044922	887.12	-53.5109996	-10.0529285	-124.2164588	-66
64613	0	0.065795898	-0.317077637	0.235473633	0.999999046	0.000240326	-0.000380516	0.000301361	1.644897461	-7.926940918	5.88684082	0.012016297	-0.019025804	0.015068055	-0.396240234	0.967773438	0.070800781	887.08	-53.49353128	-10.0561567	-124.1548498	-66
64614	0	0.073961258	-0.31847477	0.234532356	0.999999046	-0.000505447	-0.000160217	6.48499E-05	1.849031448	-7.96186924	5.863308907	-0.025272371	-0.008010865	0.003242493	-0.396240234	0.967773438	0.073730469	887.08	-53.55510652	-10.06638856	-124.1282449	-66
64615	0	0.066040039	-0.31652832	0.229736328	0.999998093	-0.001338005	0.000297546	0.00043869	1.651000977	-7.913208008	5.743408203	-0.066900276	0.014877324	0.021934517	-0.3984375	0.963378906	0.07421875	887.12	-53.70926619	-10.01087111	-124.1320182	-66
64616	0	0.067091942	-0.31482029	0.228567123	0.999999046	-0.000370979	-0.000127792	0.000247002	1.677298546	-7.87050724	5.714178085	-0.018548966	-0.006389618	0.012350083	-0.393798828	0.965576172	0.079833984	887.08	-53.75733529	-10.0018744	-124.0926954	-66
64617	0	0.06842041	-0.312194824	0.231628418	0.999999046	-0.000267029	-0.000113487	0.000171661	1.710510254	-7.804870605	5.790710449	-0.013351441	-0.005674362	0.008583069	-0.395996094	0.963134766	0.07421875	887.12	-53.79222667	-9.998893735	-124.0746964	-66
64618	0	0.068915367	-0.314235687	0.234007835	0.999999046	-0.000396729	2.67029E-05	7.24792E-05	1.722884178	-7.855892181	5.850195885	-0.019836426	0.001335144	0.003623963	-0.396240234	0.967773438	0.073730469	887.18	-53.83833299	-9.995626077	-124.0726353	-66
64619	0	0.065185547	-0.311828613	0.238586426	0.999998093	-0.001460075	0.000442505	0.00012207	1.629638672	-7.795715332	5.964660645	-0.073003797	0.022125253	0.006103518	-0.393798828	0.965332031	0.073974609	887.12	-53.99965503	-9.959557788	-124.1067164	-66
64620	0	0.065628052	-0.313830376	0.240169525	0.999994278	-0.003044128	0.00111866	3.8147E-05	1.640701294	-7.845759392	6.004238129	-0.152206688	0.055933097	0.001907352	-0.394042969	0.965576172	0.082763672	887.14	-54.33003783	-9.885962821	-124.2054137	-66
64621	0	0.06640625	-0.315490723	0.231140137	0.99998951	-0.004276276	0.00130558	-5.34058E-05	1.66015625	-7.887268066	5.778503418	-0.213814494	0.065279224	-0.002670297	-0.396484375	0.965576172	0.088623047	887.18	-54.79742069	-9.809233813	-124.3330032	-66
64622	0	0.067199707	-0.321791649	0.222346306	0.99998951	-0.004421234	0.001121521	-0.000127792	1.679992676	-8.044791222	5.558657646	-0.221062474	0.056076244	-0.00638964	-0.398925781	0.963378906	0.094970703	887.2	-55.28383356	-9.752735945	-124.4551181	-66
64623	0	0.065856934	-0.324035645	0.215698242	0.999994278	-0.003115654	0.000843048	-3.8147E-05	1.64642334	-8.100891113	5.392456055	-0.15578297	0.042152478	-0.001907352	-0.398925781	0.965820313	0.09765625	887.26	-55.62658404	-9.706768515	-124.543285	-66
64624	0	0.064364433	-0.327303886	0.210780144	0.999997139	-0.001999855	0.000448227	0.000121117	1.609110832	-8.18259716	5.269503593	-0.099992822	0.022411362	0.006055836	-0.399169922	0.963623047	0.103759766	887.14	-55.8502092	-9.671585542	-124.5827712	-66
64625	0	0.063842773	-0.326782227	0.20880127	0.999999046	0.000148773	-1.43051E-05	0.000137329	1.596069336	-8.169555664	5.220031738	0.00743866	-0.000715256	0.006866455	-0.399169922	0.963623047	0.109619141	887.12	-55.83581556	-9.664646974	-124.5699302	-66
64626	0	0.064247131	-0.326127052	0.213046074	0.999999046	0.00122261	-0.000413895	0.000179291	1.606178284	-8.153176308	5.326151848	0.061130541	-0.020694739	0.008964541	-0.396728516	0.963623047	0.106445313	887.14	-55.70561434	-9.679438997	-124.5133706	-66
64627	0	0.06652832	-0.323364258	0.217163086	0.999997139	0.001941681	-0.000349998	0.000164032	1.663208008	-8.084106445	5.429077148	0.097084109	-0.017499935	0.008201604	-0.396484375	0.963378906	0.100585938	887.18	-55.49192642	-9.691716133	-124.467668	-66
64628	0	0.064624786	-0.320206642	0.222084999	0.999998093	0.001396179	-0.000330925	0.00030899	1.615619659	-8.005166054	5.552124977	0.069808985	-0.016546255	0.015449529	-0.396728516	0.965576172	0.097412109	887.08	-55.34192714	-9.689136327	-124.4146529	-66
64629	0	0.065002441	-0.318054199	0.229309082	0.999999046	-2.28882E-05	-0.000300407	4.95911E-05	1.625061035	-7.95135498	5.732727051	-0.001144409	-0.015020371	0.002479553	-0.396728516	0.965576172	0.097412109	887.12	-55.35073367	-9.709024068	-124.3821401	-66
64630	0	0.063158035	-0.31978035	0.23462677	0.999992371	-0.003771782	0.000252724	0.00036335	1.578950882	-7.994508743	5.86566925	-0.188589549	0.012636215	0.018167539	-0.396728516	0.963378906	0.103515625	887.24	-55.78309131	-9.66315141	-124.3861529	-66
64631	0	0.064208984	-0.326049805	0.226257324	0.999993324	-0.003387451	0.000412941	0.000247955	1.605224609	-8.151245117	5.656433105	-0.169372889	0.020647089	0.01239779	-0.396728516	0.963623047	0.106445313	887.12	-56.16732641	-9.617930895	-124.4165967	-66
64632	0	0.066308022	-0.327438354	0.216896057	0.999996185	-0.00255394	0.000271797	0.000113487	1.657700539	-8.185958862	5.422401428	-0.127697132	0.013589874	0.005674368	-0.396728516	0.963623047	0.112304688	887.12	-56.45696829	-9.594750552	-124.4402443	-66
64633	0	0.06829834	-0.326538086	0.210998535	0.999999046	-0.00069809	-6.38962E-05	0.000339508	1.707458496	-8.163452148	5.274963379	-0.034904484	-0.003194809	0.016975405	-0.396972656	0.963623047	0.12109375	887.14	-56.54200447	-9.571489506	-124.4099844	-66
64634	0	0.067250252	-0.323516846	0.207180977	0.999999046	8.58307E-05	-5.14984E-05	-1.23978E-05	1.681256294	-8.087921143	5.179524422	0.004291534	-0.002574921	-0.000619888	-0.39453125	0.961181641	0.121337891	887.08	-56.5335298	-9.581256973	-124.4006614	-66
64635	0	0.063598633	-0.330810547	0.211608887	0.999999046	0.000976563	-0.000361443	-5.34058E-05	1.58996582	-8.270263672	5.290222168	0.048828134	-0.018072132	-0.002670289	-0.396972656	0.961425781	0.121337891	887.12	-56.42783714	-9.614465166	-124.3666614	-66
64636	0	0.062446594	-0.332216263	0.21502018	0.999998093	0.001689911	-0.000662804	-4.19617E-05	1.561164856	-8.30540657	5.375504494	0.084495591	-0.033140201	-0.002098085	-0.396728516	0.961425781	0.115478516	887.14	-56.24562053	-9.665600137	-124.3061328	-66
64637	0	0.062744141	-0.325561523	0.219665527	0.999998093	0.001412392	-0.00043869	0.000148773	1.568603516	-8.139038086	5.491638184	0.070619609	-0.021934517	0.007438662	-0.394287109	0.963378906	0.112304688	887.14	-56.09352709	-9.684277482	-124.2497646	-66
64638	0	0.064364433	-0.326182365	0.219798088	0.999999046	0.001285553	-0.000305176	0.000170708	1.609110832	-8.154559135	5.494952202	0.064277668	-0.015258794	0.008535388	-0.396728516	0.963623047	0.109375	887.12	-55.9539925	-9.692345816	-124.2113065	-66
64639	0	0.06628418	-0.320251465	0.223022461	0.999999046	0.00069046	-0.000124931	0.000312805	1.657104492	-8.006286621	5.575561523	0.034523014	-0.006246567	0.01564026	-0.396728516	0.963623047	0.106445313	887.2	-55.88097385	-9.675452251	-124.1842318	-66
64640	0	0.066382408	-0.321451187	0.22277832	0.999999046	0.000290871	-4.95911E-05	0.000231743	1.659560204	-8.036279678	5.569458008	0.014543534	-0.002479553	0.011587143	-0.394287109	0.963378906	0.109375	887.2	-55.85140282	-9.661470107	-124.1620634	-66
64641	0	0.065124512	-0.32220459	0.223205566	0.999999046	-1.52588E-05	1.23978E-05	0.000164032	1.628112793	-8.055114746	5.58013916	-0.000762939	0.000619888	0.008201599	-0.396728516	0.965820313	0.106201172	887.02	-55.85496023	-9.649903302	-124.1563532	-66
64642	0	0.064646721	-0.322904587	0.219656944	0.999999046	-0.000127792	-8.01086E-05	0.000124931	1.616168022	-8.07261467	5.491423607	-0.006389618	-0.004005432	0.006246567	-0.394287109	0.965576172	0.103271484	887.14	-55.87244602	-9.647968718	-124.1434422	-66
64643	0	0.063110352	-0.32598877	0.218505859	0.999999046	-0.000228882	-2.95639E-05	0.000148773	1.577758789	-8.149719238	5.462646484	-0.011444092	-0.001478195	0.00743866	-0.396728516	0.963623047	0.106445313	887.14	-55.90106096	-9.640401927	-124.1382379	-66
64644	0	0.064551353	-0.328061104	0.217374802	0.999999046	0.00014782	-0.000127792	-4.673E-05	1.613783836	-8.201527596	5.434370041	0.007390976	-0.006389618	-0.002336502	-0.396728516	0.963623047	0.106445313	887.2	-55.88615408	-9.65764757	-124.1354391	-66
64645	0	0.062561035	-0.323364258	0.221862793	0.999999046	0.000259399	-9.82285E-05	0.000225067	1.564025879	-8.084106445	5.546569824	0.012969971	-0.004911423	0.011253357	-0.394287109	0.963378906	0.106445313	887.14	-55.86082257	-9.647067744	-124.113419	-66
64646	0	0.063924789	-0.320532799	0.219941139	0.999999046	0.000255585	4.3869E-05	7.15256E-05	1.598119736	-8.013319969	5.498528481	0.012779236	0.002193451	0.003576279	-0.394287109	0.965576172	0.106201172	887.18	-55.83183753	-9.641875115	-124.11228	-66
64647	0	0.06628418	-0.325805664	0.219787598	0.999999046	0.000320435	-0.000128746	-0.00018692	1.657104492	-8.145141602	5.494689941	0.016021729	-0.006437302	-0.009346009	-0.394287109	0.963378906	0.112304688	887.08	-55.79542166	-9.672336986	-124.105684	-66
64648	0	0.067133904	-0.324664116	0.220038414	0.999999046	0.000214577	-0.000133514	0.000133514	1.678347588	-8.116602898	5.50096035	0.010728836	-0.00667572	0.00667572	-0.396728516	0.965820313	0.106201172	887.24	-55.77475036	-9.672820935	-124.0866019	-66
64649	0	0.066101074	-0.322021484	0.21862793	0.999999046	-0.000244141	7.34329E-05	-8.39233E-05	1.652526855	-8.050537109	5.465698242	-0.012207031	0.003671646	-0.004196167	-0.396728516	0.963378906	0.103515625	887.2	-55.80092701	-9.680632149	-124.1069041	-66
64650	0	0.065085411	-0.322422981	0.219272614	0.999999046	4.57764E-05	-1.90735E-05	-0.000145912	1.627135277	-8.060574532	5.481815338	0.002288818	-0.000953674	-0.007295609	-0.39453125	0.965820313	0.109130859	887.12	-55.79467242	-9.700276933	-124.1078538	-66
64651	0	0.064331055	-0.322998047	0.219909668	0.999999046	9.53674E-05	8.58307E-06	0.000141144	1.608276367	-8.074951172	5.497741699	0.004768372	0.000429153	0.00705719	-0.396484375	0.963378906	0.100585938	887.18	-55.78543128	-9.690876975	-124.108948	-66
64652	0	0.064113617	-0.323097229	0.219544411	0.999999046	0.000489235	9.34601E-05	0.000113487	1.602840424	-8.077430725	5.488610268	0.024461747	0.004673004	0.005674362	-0.396728516	0.963623047	0.106445313	887.18	-55.7293761	-9.678560365	-124.1128673	-66
64653	0	0.063720703	-0.324890137	0.220092773	0.999999046	0.000862122	-0.000224113	0.000255585	1.593017578	-8.122253418	5.502319336	0.043106085	-0.011205675	0.012779238	-0.394287109	0.963378906	0.106445313	887.12	-55.6373326	-9.673205938	-124.0719228	-66
64654	0	0.062675476	-0.325703621	0.21971035	0.999997139	0.002168655	-0.000577927	0.000274658	1.566886902	-8.142590523	5.492758751	0.108432862	-0.028896356	0.013732922	-0.394042969	0.963378906	0.100585938	887.12	-55.40160771	-9.688938617	-123.9993842	-66
64655	0	0.060678482	-0.322398186	0.221221924	0.999995232	0.003007889	-0.000546455	7.53403E-05	1.516962051	-8.059954643	5.530548096	0.150394674	-0.027322812	0.003767019	-0.394287109	0.965576172	0.100341797	887.08	-55.06702221	-9.721457349	-123.9366303	-66
64656	0	0.064659119	-0.321372032	0.22375679	0.999997139	0.00191021	-0.000488281	-0.000198364	1.616477966	-8.034300804	5.593919754	0.095510545	-0.024414078	-0.009918219	-0.394042969	0.965576172	0.091552734	887.12	-54.85421793	-9.776009086	-123.902599	-66
64657	0	0.067993164	-0.32208252	0.230529785	0.999999046	0.001232147	-0.000353813	-0.000312805	1.699829102	-8.052062988	5.763244629	0.061607379	-0.017690664	-0.015640263	-0.396484375	0.965576172	0.085693359	887.12	-54.71545388	-9.832527316	-123.8966087	-66
64658	0	0.066155434	-0.317391396	0.228152275	0.999999046	0.000125885	-0.000188828	-6.48499E-05	1.653885841	-7.934784889	5.703806877	0.006294251	-0.009441376	-0.003242493	-0.396484375	0.965576172	0.088623047	887.12	-54.70345626	-9.854934779	-123.8859007	-66
64659	0	0.066467285	-0.312744141	0.229309082	0.999999046	0.000263214	-6.38962E-05	-8.39233E-05	1.661682129	-7.818603516	5.732727051	0.013160706	-0.003194809	-0.004196167	-0.396484375	0.965576172	0.088623047	887.12	-54.67313299	-9.870887356	-123.887226	-66
64660	0	0.068380356	-0.318230629	0.224401474	0.999999046	-0.000496864	0.00028038	-0.000157356	1.709508896	-7.955765724	5.61003685	-0.024843217	0.014019013	-0.007867814	-0.398925781	0.965820313	0.088867188	887.2	-54.72351382	-9.871021957	-123.9299349	-66
64661	0	0.070678711	-0.32208252	0.224731445	0.999999046	-0.000370026	0.00024128	-5.72205E-05	1.766967773	-8.052062988	5.618286133	-0.018501282	0.012063981	-0.002861023	-0.398925781	0.965820313	0.091796875	887.18	-54.76128647	-9.864604558	-123.9587989	-66
64662	0	0.068655014	-0.32016468	0.222574234	0.999999046	4.76837E-05	0.000173569	0.000167847	1.716375351	-8.004117012	5.56435585	0.002384186	0.008678436	0.008392334	-0.396484375	0.965576172	0.088623047	887.18	-54.75504417	-9.841727311	-123.9649546	-66
64663	0	0.066955566	-0.321166992	0.226318359	0.999999046	0.000740051	-5.62668E-05	0.000164032	1.67388916	-8.029174805	5.657958984	0.037002567	-0.00281334	0.0082016	-0.398925781	0.965820313	0.091796875	887.2	-54.67317198	-9.834416135	-123.9499968	-66
64664	0	0.064984322	-0.317864418	0.225438118	0.999999046	0.00090313	-0.00015831	0.000144958	1.62460804	-7.946610451	5.63595295	0.045156485	-0.007915498	0.007247926	-0.398925781	0.963378906	0.092041016	887.12	-54.57403585	-9.835605718	-123.9281047	-66
64665	0	0.064880371	-0.324951172	0.223876953	0.999999046	0.001121521	-0.000422478	-9.53674E-05	1.622009277	-8.123779297	5.596923828	0.056076063	-0.021123891	-0.004768373	-0.396240234	0.965576172	0.082763672	887.12	-54.4516904	-9.876716088	-123.8966775	-66
64666	0	0.06665802	-0.328832626	0.223703384	0.999999046	0.001140594	-0.000431061	6.00815E-05	1.6664505	-8.220815659	5.59258461	0.057029738	-0.021553045	0.003004075	-0.398925781	0.965576172	0.0859375	887.2	-54.32956132	-9.903909303	-123.8544039	-66
64667	0	0.06072998	-0.344421387	0.232910156	0.99998951	0.004451752	-0.000250816	0.000782013	1.518249512	-8.610534668	5.822753906	0.222588346	-0.01254086	0.039100781	-0.396240234	0.965576172	0.082763672	887.2	-53.83407376	-9.851652487	-123.7735628	-66
64668	0	0.058393478	-0.318525314	0.233099937	0.999988556	0.004390717	-0.000294685	0.001342773	1.45983696	-7.963132858	5.827498436	0.219536602	-0.01473432	0.067138909	-0.396240234	0.967773438	0.073730469	887.14	-53.35279402	-9.750797663	-123.6547242	-66
64669	0	0.063110352	-0.30480957	0.229431152	0.999993324	0.003501892	-0.000575066	0.000675201	1.577758789	-7.620239258	5.735778809	0.175094985	-0.028753343	0.033760144	-0.393798828	0.967529297	0.064941406	887.18	-52.96976395	-9.731222417	-123.5570802	-66
64670	0	0.067300797	-0.302547455	0.232515335	0.999987602	0.004636765	-0.001176834	-0.00039959	1.682519913	-7.563686371	5.812883377	0.231839117	-0.058841931	-0.019979554	-0.391113281	0.969726563	0.052734375	887.18	-52.45316426	-9.852300952	-123.474162	-66
64671	0	0.073303223	-0.298095703	0.240783691	0.999987602	0.004634857	-0.001448631	-0.000667572	1.832580566	-7.452392578	6.019592285	0.231743787	-0.072431854	-0.033378735	-0.393310547	0.967529297	0.050292969	887.18	-51.93726116	-10.01778197	-123.3858224	-66
64672	0	0.074621201	-0.308996201	0.250219345	0.999988556	0.004432678	-0.00142765	-0.000709534	1.865530014	-7.724905014	6.255483627	0.221634731	-0.071382787	-0.035476816	-0.393310547	0.967285156	0.038330078	887.06	-51.44326384	-10.18649191	-123.3055733	-66
64673	0	0.071350098	-0.30267334	0.249450684	0.999996185	0.002339363	-0.000999451	-3.05176E-05	1.783752441	-7.566833496	6.23626709	0.116968281	-0.049972588	-0.001525881	-0.395507813	0.967529297	0.035644531	887.26	-51.1906128	-10.26434715	-123.2190184	-66
64674	0	0.065336227	-0.303271294	0.250435829	0.999999046	-0.000896454	-0.000417709	8.58307E-06	1.633405685	-7.581782341	6.260895729	-0.0448227	-0.020885471	0.000429154	-0.397949219	0.967529297	0.026855469	887.18	-51.29964697	-10.29685096	-123.1970937	-66
64675	0	0.065734863	-0.308898926	0.247314453	0.999999046	-0.00062561	-0.000266075	-0.000274658	1.643371582	-7.722473145	6.182861328	-0.03128052	-0.013303758	-0.013732911	-0.395507813	0.967529297	0.035644531	887.2	-51.37152123	-10.3435701	-123.1958144	-66
64676	0	0.064689636	-0.307274818	0.241767883	0.999998093	-0.001461029	-0.000237465	-5.34058E-05	1.617240906	-7.681870461	6.044197083	-0.073051479	-0.01187325	-0.002670289	-0.397949219	0.967529297	0.038574219	887.18	-51.5417249	-10.36818009	-123.1851553	-66
64677	0	0.065002441	-0.331665039	0.243225098	0.999995232	-0.002651215	-0.000945091	0.000583649	1.625061035	-8.291625977	6.080627441	-0.132560913	-0.047254627	0.029182474	-0.398193359	0.969970703	0.044433594	887.14	-51.86909765	-10.38529939	-123.063327	-66
64678	0	0.063766479	-0.32516861	0.256093025	0.999997139	-0.001537323	-0.000282288	0.00151825	1.594161987	-8.12921524	6.40232563	-0.076866211	-0.014114391	0.075912536	-0.395996094	0.969726563	0.047119141	887.2	-52.06980858	-10.27022863	-122.9382278	-66
64679	0	0.057006836	-0.295288086	0.239074707	0.999993324	-0.002971649	0.00011158	0.001964569	1.425170898	-7.382202148	5.976867676	-0.148582773	0.005579007	0.098228663	-0.393554688	0.969726563	0.047119141	887.18	-52.43328829	-10.08600834	-122.8272112	-66
64680	0	0.06844902	-0.290792465	0.234191895	0.999999046	-0.001049995	-0.000444412	-0.000169754	1.71122551	-7.26981163	5.854797363	-0.052499783	-0.022220616	-0.008487703	-0.388671875	0.969482422	0.046875	887.18	-52.55830374	-10.13433568	-122.8082509	-66
64681	0	0.077148438	-0.301025391	0.240539551	0.999998093	0.000874519	-0.000785828	-0.001182556	1.928710938	-7.525634766	6.01348877	0.043725988	-0.0392914	-0.059127835	-0.391357422	0.969726563	0.05859375	887.18	-52.45526311	-10.29909208	-122.8168929	-66
64682	0	0.081063271	-0.30749321	0.241866112	0.999996185	0.002034187	-0.00134182	-0.000981331	2.026581764	-7.687330246	6.046652794	0.101709483	-0.067091065	-0.0490666	-0.393554688	0.967529297	0.056152344	887.18	-52.23079969	-10.48506198	-122.7626681	-66
64683	0	0.078552246	-0.309265137	0.24609375	0.999997139	0.001850128	-0.001246452	-0.000663757	1.963806152	-7.731628418	6.15234375	0.092506492	-0.062322673	-0.033187896	-0.395751953	0.965332031	0.053466797	887.14	-52.02973858	-10.63611478	-122.6993254	-66
64684	0	0.074254036	-0.306806564	0.242590904	0.999999046	-6.38962E-05	-0.000455856	-0.000221252	1.856350899	-7.670164108	6.064772606	-0.003194809	-0.022792817	-0.011062623	-0.395751953	0.967529297	0.044433594	887.2	-52.04039662	-10.6916736	-122.6817223	-66
64685	0	0.075378418	-0.302429199	0.236816406	0.999998093	-0.001795769	0.000202179	0.000282288	1.884460449	-7.56072998	5.920410156	-0.089788487	0.010108953	0.014114388	-0.398193359	0.967773438	0.050537109	887.2	-52.24498267	-10.65559121	-122.6913003	-66
64686	0	0.078098297	-0.309672356	0.236163139	0.999997139	-0.002197266	0.000629425	-3.05176E-05	1.952457428	-7.741808891	5.904078484	-0.109863377	0.03147128	-0.00152588	-0.395751953	0.965332031	0.050537109	887.12	-52.48435635	-10.6183495	-122.7628717	-66
64687	0	0.072875977	-0.313842773	0.234619141	0.999999046	-0.000713348	0.000397682	0.000267029	1.821899414	-7.846069336	5.865478516	-0.035667424	0.019884112	0.013351442	-0.393554688	0.967529297	0.056152344	887.2	-52.56182707	-10.57043608	-122.7812203	-66
64688	0	0.070383072	-0.311414719	0.239113808	0.999999046	2.86102E-06	0.000101089	0.000244141	1.759576797	-7.785367966	5.977845192	0.000143051	0.005054474	0.012207031	-0.395996094	0.967529297	0.056152344	887.18	-52.56196513	-10.54520333	-122.7794714	-66
64689	0	0.065673828	-0.315307617	0.244995117	0.999999046	0.000770569	3.91006E-05	-8.39233E-05	1.641845703	-7.88269043	6.12487793	0.038528446	0.001955033	-0.004196167	-0.393554688	0.969726563	0.055908203	887.14	-52.47079397	-10.55375559	-122.7856952	-66
64690	0	0.063876152	-0.311508179	0.241024017	0.999999046	-0.000118256	-0.000156403	0.000255585	1.596903801	-7.787704468	6.025600433	-0.005912781	-0.00782013	0.012779236	-0.395996094	0.967529297	0.056152344	887.26	-52.48915124	-10.54468128	-122.758404	-66
64691	0	0.070861816	-0.303771973	0.2421875	0.999999046	-0.000869751	7.72476E-05	9.15527E-05	1.77154541	-7.594299316	6.0546875	-0.043487554	0.003862381	0.004577637	-0.395751953	0.965332031	0.053466797	887.12	-52.58719959	-10.53423327	-122.7702786	-66
64692	0	0.074308395	-0.310487747	0.238545418	0.999999046	-0.000441551	0.00012207	-0.000205994	1.857709885	-7.76219368	5.963635445	-0.022077561	0.006103516	-0.010299683	-0.395996094	0.967773438	0.062011719	887.12	-52.63154591	-10.54793077	-122.7961845	-66
64693	0	0.073608398	-0.311523438	0.23449707	0.999999046	-0.000228882	2.76566E-05	0.000183105	1.840209961	-7.788085938	5.862426758	-0.011444092	0.001382828	0.009155274	-0.395996094	0.965332031	0.062255859	887.12	-52.65833683	-10.5329048	-122.7892887	-66
64694	0	0.074764252	-0.30799675	0.233932495	0.999999046	-0.000228882	2.67029E-05	5.62668E-05	1.869106293	-7.699918747	5.848312378	-0.011444092	0.001335144	0.002813339	-0.3984375	0.967773438	0.053466797	887.18	-52.68358676	-10.52972323	-122.8015861	-66
64695	0	0.070678711	-0.315551758	0.23449707	0.999999046	0.000537872	-0.000254631	-7.62939E-06	1.766967773	-7.888793945	5.862426758	0.026893617	-0.012731553	-0.00038147	-0.395996094	0.967773438	0.062011719	887.08	-52.62517904	-10.55187062	-122.7781586	-66
