Counter	Temperature	VelInc_X	VelInc_Y	VelInc_Z	OriInc_w	OriInc_x	OriInc_y	OriInc_z	Acc_X	Acc_Y	Acc_Z	Gyr_X	Gyr_Y	Gyr_Z	Mag_X	Mag_Y	Mag_Z	Pressure	Roll	Pitch	Yaw	RSSI
17822	0	0.110569	-0.06654644	-0.356412888	0.999999046	-0.000164032	5.34058E-05	-4.19617E-05	2.764225006	-1.663661003	-8.910322189	-0.008201599	0.002670288	-0.002098084	-0.8203125	0.436767578	0.558349609	889.42	-169.3322131	-17.62109136	163.1254822	-81
17823	0	0.112243652	-0.07043457	-0.354980469	0.999999046	-0.00012207	0.000473976	0.000125885	2.806091309	-1.760864258	-8.874511719	-0.006103516	0.023698808	0.006294251	-0.8203125	0.434570313	0.564208984	889.38	-169.3421452	-17.6806506	163.071017	-82
17824	0	0.112929344	-0.067385674	-0.356111526	0.999999046	-0.000113487	0.000431061	7.15256E-05	2.823233604	-1.684641838	-8.902788162	-0.005674362	0.02155304	0.003576279	-0.820068359	0.434326172	0.55859375	889.48	-169.35339	-17.73651772	163.0199814	-82
17825	0	0.113342285	-0.067321777	-0.35546875	0.999999046	-0.000102997	6.19888E-05	6.48499E-05	2.833557129	-1.683044434	-8.88671875	-0.005149841	0.003099442	0.003242493	-0.820068359	0.434570313	0.561279297	889.48	-169.3662107	-17.75096973	162.97685	-81
17826	0	0.112216949	-0.066958427	-0.355408669	0.999999046	-3.8147E-06	0.000185013	3.05176E-05	2.805423737	-1.673960686	-8.885216713	-0.000190735	0.009250641	0.001525879	-0.822509766	0.434570313	0.561523438	889.38	-169.3681211	-17.77995479	162.9362038	-81
17827	0	0.112304688	-0.067626953	-0.356201172	0.999999046	-0.000125885	8.10623E-05	8.7738E-05	2.807617188	-1.690673828	-8.905029297	-0.006294251	0.004053116	0.004386902	-0.822509766	0.434570313	0.55859375	889.42	-169.3826951	-17.79594814	162.8878879	-81
17828	0	0.113326073	-0.067557335	-0.355711937	0.999999046	-9.53674E-07	-8.58307E-05	2.57492E-05	2.833151817	-1.688933372	-8.892798424	-4.76837E-05	-0.004291534	0.00128746	-0.822509766	0.434570313	0.555664063	889.42	-169.3863545	-17.7944327	162.8476718	-81
17829	0	0.113037109	-0.06640625	-0.356811523	0.999999046	-0.000137329	-5.62668E-05	3.8147E-05	2.825927734	-1.66015625	-8.920288086	-0.006866455	-0.002813339	0.001907349	-0.822509766	0.434570313	0.555664063	889.42	-169.4050846	-17.79594041	162.8035418	-81
17830	0	0.112869263	-0.066866875	-0.35513401	0.999999046	-1.14441E-05	7.43866E-05	0.000144958	2.821731567	-1.671671867	-8.878350258	-0.000572205	0.00371933	0.007247925	-0.824707031	0.434570313	0.552978516	889.48	-169.4046839	-17.80988787	162.7441687	-81
17831	0	0.113098145	-0.067382813	-0.354370117	0.999999046	-3.8147E-06	-4.86374E-05	0.000137329	2.827453613	-1.684570313	-8.85925293	-0.000190735	-0.00243187	0.006866455	-0.822509766	0.434570313	0.552734375	889.36	-169.404523	-17.81013122	162.6860958	-81
17832	0	0.113043785	-0.066740036	-0.356152534	0.999999046	6.67572E-06	-8.2016E-05	6.00815E-05	2.826094627	-1.6685009	-8.903813362	0.000333786	-0.0041008	0.003004074	-0.822509766	0.434570313	0.555664063	889.42	-169.4062252	-17.8082126	162.6389988	-81
17833	0	0.112976074	-0.067260742	-0.354248047	0.999999046	7.24792E-05	-5.62668E-05	0.000148773	2.824401855	-1.681518555	-8.856201172	0.003623962	-0.002813339	0.00743866	-0.822509766	0.432373047	0.558837891	889.42	-169.3969435	-17.80734715	162.5939994	-81
17834	0	0.113036156	-0.068078995	-0.356388092	0.999999046	-1.33514E-05	-0.000125885	5.34058E-05	2.825903893	-1.701974869	-8.909702301	-0.000667572	-0.006294251	0.002670288	-0.820068359	0.434326172	0.55859375	889.36	-169.4014589	-17.80058605	162.5484762	-81
17835	0	0.113037109	-0.067626953	-0.355285645	0.999999046	4.19617E-05	-0.000102043	0.000114441	2.825927734	-1.690673828	-8.882141113	0.002098084	-0.005102158	0.005722046	-0.820068359	0.434326172	0.55859375	889.38	-169.3972634	-17.7952064	162.4951634	-81
17836	0	0.113435745	-0.066645622	-0.356219292	1	-1.14441E-05	2.38419E-05	3.71933E-05	2.835893631	-1.666140556	-8.905482292	-0.000572205	0.001192093	0.001859665	-0.822265625	0.432128906	0.552978516	889.42	-169.4011578	-17.80563946	162.4565746	-81
17837	0	0.113037109	-0.066650391	-0.355407715	0.999999046	4.19617E-05	2.00272E-05	5.34058E-05	2.825927734	-1.666259766	-8.885192871	0.002098083	0.001001358	0.002670288	-0.822509766	0.434570313	0.561523438	889.38	-169.3984478	-17.81527141	162.4087718	-81
17838	0	0.112920761	-0.067669868	-0.355154037	0.999999046	-5.14984E-05	-0.000110626	0.000167847	2.823019028	-1.691746712	-8.878850937	-0.002574921	-0.005531311	0.008392334	-0.8203125	0.436767578	0.561279297	889.44	-169.4032429	-17.80772596	162.3369266	-81
17839	0	0.112915039	-0.067138672	-0.354614258	0.999999046	6.86646E-05	-0.000155449	-1.14441E-05	2.822875977	-1.678466797	-8.865356445	0.003433228	-0.007772446	-0.000572205	-0.822265625	0.432373047	0.555908203	889.36	-169.4009834	-17.79893357	162.3072092	-81
17840	0	0.113110542	-0.067063332	-0.354213715	0.999999046	0.000142097	-7.62939E-06	0.000128746	2.827763557	-1.67658329	-8.855342865	0.007104874	-0.00038147	0.006437302	-0.822509766	0.434570313	0.552734375	889.42	-169.384315	-17.80381777	162.2451078	-81
17841	0	0.113037109	-0.067687988	-0.356811523	0.999999046	-3.8147E-06	-0.000121117	2.28882E-05	2.825927734	-1.692199707	-8.920288086	-0.000190735	-0.006055832	0.001144409	-0.822265625	0.434570313	0.549804688	889.44	-169.3889929	-17.79810755	162.1949004	-81
17842	0	0.113494873	-0.067385674	-0.35928154	0.999999046	-5.91278E-05	-0.000177383	1.14441E-05	2.837371826	-1.684641838	-8.982038498	-0.00295639	-0.008869171	0.000572205	-0.822509766	0.432373047	0.558837891	889.42	-169.4007626	-17.78628096	162.1634384	-81
17843	0	0.112854004	-0.067016602	-0.354919434	0.999999046	-0.000118256	-7.9155E-05	7.62939E-06	2.821350098	-1.675415039	-8.87298584	-0.005912781	-0.003957748	0.00038147	-0.822753906	0.436767578	0.561279297	889.48	-169.4189141	-17.78554493	162.1073001	-81
17844	0	0.112063408	-0.066996574	-0.352085114	0.999999046	-2.00272E-05	-0.000188828	3.71933E-05	2.801585197	-1.67491436	-8.802127838	-0.001001358	-0.009441376	0.001859665	-0.820068359	0.432128906	0.55859375	889.54	-169.4253663	-17.77186365	162.0691404	-81
17845	0	0.112487793	-0.067321777	-0.355834961	0.999999046	2.67029E-05	-0.000212669	8.01086E-05	2.812194824	-1.683044434	-8.895874023	0.001335144	-0.010633469	0.004005432	-0.820068359	0.434326172	0.555664063	889.42	-169.4251519	-17.75453105	162.0125342	-81
17846	0	0.112751007	-0.067481041	-0.357832909	0.999999046	-0.000116348	-0.000144958	3.8147E-06	2.818775177	-1.687026024	-8.945822716	-0.005817413	-0.007247925	0.000190735	-0.822509766	0.434570313	0.555664063	889.5	-169.4436514	-17.7463767	161.962714	-81
17847	0	0.112854004	-0.066711426	-0.354797363	0.999999046	0	-0.000178337	5.34058E-05	2.821350098	-1.667785645	-8.869934082	0	-0.008916855	0.002670288	-0.820068359	0.432128906	0.555664063	889.44	-169.4472143	-17.73344815	161.9178252	-81
17848	0	0.113023758	-0.066479683	-0.356303215	0.999999046	-6.38962E-05	-0.000125885	0.000152588	2.825593948	-1.661992073	-8.907580376	-0.003194809	-0.006294251	0.007629395	-0.822509766	0.432373047	0.561767578	889.42	-169.454196	-17.72435344	161.8648855	-81
17849	0	0.112731934	-0.066650391	-0.354919434	0.999999046	3.43323E-05	-5.62668E-05	0.000167847	2.81829834	-1.666259766	-8.87298584	0.001716614	-0.002813339	0.008392334	-0.820068359	0.434326172	0.555664063	889.36	-169.4490113	-17.72276364	161.7924116	-81
17850	0	0.112484932	-0.067201614	-0.355294228	0.999999046	2.09808E-05	-0.000116348	8.39233E-05	2.812123299	-1.680040359	-8.88235569	0.001049042	-0.005817413	0.004196167	-0.822509766	0.434570313	0.55859375	889.48	-169.4487671	-17.71616003	161.7341473	-81
17851	0	0.112121582	-0.066772461	-0.355041504	0.999999046	4.19617E-05	-0.000178337	0.0001297	2.803039551	-1.669311523	-8.876037598	0.002098084	-0.008916855	0.006484985	-0.820068359	0.434326172	0.55859375	889.42	-169.444899	-17.70159444	161.6714361	-81
17852	0	0.112586975	-0.06731987	-0.353856087	0.999999046	9.53674E-07	-0.000164032	0.000240326	2.814674377	-1.68299675	-8.846402168	4.76837E-05	-0.008201599	0.012016297	-0.822265625	0.432373047	0.555908203	889.38	-169.441585	-17.68635795	161.6070309	-81
17853	0	0.112365723	-0.067138672	-0.356689453	0.999999046	1.14441E-05	-0.000121117	0.000198364	2.809143066	-1.678466797	-8.917236328	0.000572205	-0.006055832	0.009918213	-0.822509766	0.436767578	0.558349609	889.44	-169.4384198	-17.67678028	161.5260073	-81
17854	0	0.112312317	-0.067192078	-0.355739594	0.999999046	-5.53131E-05	-8.7738E-05	8.7738E-05	2.807807922	-1.679801941	-8.893489838	-0.002765656	-0.004386902	0.004386902	-0.820068359	0.434326172	0.555664063	889.38	-169.4466075	-17.67329242	161.4660099	-81
17855	0	0.112670898	-0.066894531	-0.356262207	0.999999046	3.8147E-06	-6.38962E-05	7.24792E-05	2.816772461	-1.672363281	-8.906555176	0.000190735	-0.003194809	0.003623962	-0.820068359	0.436523438	0.555419922	889.42	-169.4484972	-17.6727959	161.3953352	-81
17856	0	0.113163948	-0.066609383	-0.357924461	0.999999046	-0.000170708	3.8147E-06	4.19617E-05	2.829098701	-1.665234566	-8.948111534	-0.008535385	0.000190735	0.002098084	-0.820068359	0.434570313	0.561279297	889.42	-169.4710032	-17.68059054	161.340074	-81
17857	0	0.111633301	-0.067687988	-0.354980469	0.999999046	-8.01086E-05	-0.000117302	4.57764E-05	2.79083252	-1.692199707	-8.874511719	-0.004005432	-0.005865097	0.002288818	-0.820068359	0.432128906	0.561523438	889.5	-169.4836897	-17.67464364	161.2991497	-81
17858	0	0.112030983	-0.067458153	-0.356117249	0.999999046	-1.52588E-05	-0.000192642	9.05991E-05	2.800774574	-1.686453819	-8.902931213	-0.000762939	-0.009632111	0.004529953	-0.817871094	0.434326172	0.561279297	889.42	-169.4878882	-17.65922445	161.2402248	-81
17859	0	0.112182617	-0.066467285	-0.356994629	0.999999046	4.57764E-05	-7.15256E-05	8.01086E-05	2.80456543	-1.661682129	-8.924865723	0.002288818	-0.003576279	0.004005432	-0.820068359	0.434570313	0.561279297	889.42	-169.4847024	-17.65764541	161.1808469	-81
17860	0	0.112668991	-0.067129135	-0.356699944	0.999999046	0.000103951	-6.67572E-05	0.000151634	2.816724777	-1.678228378	-8.917498589	0.005197525	-0.00333786	0.007581711	-0.8203125	0.434570313	0.564208984	889.36	-169.4722321	-17.65511606	161.1165296	-81
17861	0	0.112670898	-0.066894531	-0.357421875	0.999999046	-1.14441E-05	-7.9155E-05	7.24792E-05	2.816772461	-1.672363281	-8.935546875	-0.000572205	-0.003957748	0.003623962	-0.822509766	0.434570313	0.561523438	889.48	-169.4759422	-17.65283711	161.0616748	-81
17862	0	0.113030434	-0.067025185	-0.359700203	0.999999046	-0.000146866	-8.39233E-05	7.62939E-05	2.825760841	-1.675629616	-8.992505074	-0.007343292	-0.004196167	0.003814697	-0.820068359	0.434326172	0.555664063	889.42	-169.4951357	-17.64990989	161.000487	-81
17863	0	0.112365723	-0.066650391	-0.356994629	0.999999046	-7.24792E-05	-6.77109E-05	6.10352E-05	2.809143066	-1.666259766	-8.924865723	-0.003623962	-0.003385544	0.003051758	-0.820068359	0.434570313	0.561279297	889.38	-169.5062494	-17.64912003	160.9429139	-81
17864	0	0.112308502	-0.066735268	-0.355250359	0.999999046	4.673E-05	9.72748E-05	6.48499E-05	2.807712555	-1.668381691	-8.881258965	0.002336502	0.004863739	0.003242493	-0.820068359	0.434570313	0.561279297	889.44	-169.5024663	-17.66685347	160.881591	-81
17865	0	0.112243652	-0.066894531	-0.357055664	0.999999046	-3.8147E-06	1.62125E-05	3.8147E-05	2.806091309	-1.672363281	-8.926391602	-0.000190735	0.000810623	0.001907349	-0.817871094	0.434326172	0.564208984	889.54	-169.5059632	-17.67599018	160.8263241	-81
17866	0	0.112614632	-0.067206383	-0.357664108	1	-1.23978E-05	-3.33786E-05	7.15256E-05	2.815365791	-1.680159569	-8.941602707	-0.000619888	-0.00166893	0.003576279	-0.822509766	0.434570313	0.561523438	889.42	-169.5095867	-17.67882009	160.7691083	-81
17867	0	0.112609863	-0.066650391	-0.355712891	0.999999046	-7.62939E-05	-1.04904E-05	4.19617E-05	2.815246582	-1.666259766	-8.892822266	-0.003814697	-0.000524521	0.002098083	-0.820068359	0.434570313	0.561279297	889.38	-169.5214576	-17.68485489	160.7118384	-82
17868	0	0.112717628	-0.067399025	-0.357191086	0.999999046	8.29697E-05	2.86102E-05	-9.53674E-07	2.817940712	-1.684975624	-8.929777145	0.004148483	0.001430511	-4.76837E-05	-0.820068359	0.434326172	0.55859375	889.44	-169.5163436	-17.69617908	160.6582655	-81
17869	0	0.112243652	-0.067321777	-0.35736084	0.999999046	-4.19617E-05	0.000123024	0.000118256	2.806091309	-1.683044434	-8.934020996	-0.002098084	0.006151199	0.005912781	-0.820068359	0.434326172	0.55859375	889.42	-169.5206132	-17.71561869	160.588946	-81
17870	0	0.113108635	-0.066525459	-0.358864784	0.999999046	-0.000144958	9.15527E-05	-4.76837E-06	2.827715874	-1.663136482	-8.971619606	-0.007247925	0.004577637	-0.000238419	-0.820068359	0.432128906	0.55859375	889.38	-169.5413041	-17.73406219	160.5450817	-82
17871	0	0.112609863	-0.066589355	-0.356079102	0.999999046	-0.000118256	3.91006E-05	0.000110626	2.815246582	-1.664733887	-8.901977539	-0.005912781	0.001955032	0.005531311	-0.820068359	0.432128906	0.55859375	889.42	-169.5551329	-17.74418156	160.488224	-82
17872	0	0.112438202	-0.067201614	-0.356269836	0.999999046	-7.34329E-05	-0.000123978	0.000151634	2.810955048	-1.680040359	-8.906745911	-0.003671646	-0.006198883	0.007581711	-0.822509766	0.434570313	0.561523438	889.5	-169.5634551	-17.73503494	160.4215952	-81
17873	0	0.112243652	-0.066711426	-0.356262207	0.999999046	-0.000110626	-4.1008E-05	7.62939E-05	2.806091309	-1.667785645	-8.906555176	-0.005531311	-0.0020504	0.003814697	-0.820068359	0.434570313	0.561279297	889.42	-169.578203	-17.73677036	160.3593467	-81
17874	0	0.112751961	-0.066710472	-0.358362198	0.999999046	-4.95911E-05	2.09808E-05	5.34058E-05	2.818799019	-1.667761803	-8.959054947	-0.002479553	0.001049042	0.002670288	-0.822509766	0.432373047	0.561767578	889.38	-169.5863025	-17.74593994	160.3123281	-81
17875	0	0.112670898	-0.067565918	-0.355407715	0.999999046	-3.05176E-05	-4.48227E-05	8.39233E-05	2.816772461	-1.689147949	-8.885192871	-0.001525879	-0.002241135	0.004196167	-0.822509766	0.432373047	0.561767578	889.42	-169.5914833	-17.74705958	160.2629279	-81
17876	0	0.112687111	-0.066952705	-0.356765747	0.999999046	-9.82285E-05	1.90735E-05	0.000148773	2.817177773	-1.673817635	-8.919143677	-0.004911423	0.000953674	0.00743866	-0.820068359	0.432128906	0.55859375	889.42	-169.6016487	-17.7540164	160.2014807	-81
17877	0	0.112426758	-0.066711426	-0.358520508	0.999999046	4.95911E-05	6.96182E-05	-3.8147E-06	2.810668945	-1.667785645	-8.963012695	0.002479553	0.003480911	-0.000190735	-0.822509766	0.434570313	0.555664063	889.36	-169.6001385	-17.76975182	160.1442771	-82
17878	0	0.11241436	-0.067296028	-0.355996132	0.999999046	1.90735E-06	-9.91821E-05	2.28882E-05	2.810359001	-1.682400703	-8.899903297	9.53674E-05	-0.004959106	0.001144409	-0.820068359	0.432128906	0.561523438	889.44	-169.6040905	-17.76589824	160.1020027	-81
17879	0	0.112426758	-0.067138672	-0.356811523	0.999999046	6.86646E-05	-0.000124931	3.8147E-05	2.810668945	-1.678466797	-8.920288086	0.003433228	-0.006246567	0.001907349	-0.820068359	0.434570313	0.561279297	889.48	-169.6000517	-17.75877833	160.0458898	-81
17880	0	0.112880707	-0.067318916	-0.356892586	0.999999046	-0.000136375	-4.19617E-05	3.8147E-05	2.82201767	-1.682972908	-8.922314644	-0.006818771	-0.002098084	0.001907349	-0.822509766	0.432373047	0.564697266	889.44	-169.6188294	-17.76100807	160.0030053	-81
17881	0	0.112915039	-0.067565918	-0.35546875	0.999999046	-4.95911E-05	8.58307E-06	-5.34058E-05	2.822875977	-1.689147949	-8.88671875	-0.002479553	0.000429153	-0.002670288	-0.820068359	0.434326172	0.55859375	889.38	-169.6306667	-17.77081719	159.9522529	-81
17882	0	0.112866402	-0.06648159	-0.357671738	0.999999046	-7.43866E-05	-5.72205E-06	8.67844E-05	2.821660042	-1.662039757	-8.941793442	-0.00371933	-0.000286102	0.004339218	-0.822265625	0.432373047	0.555908203	889.44	-169.6403261	-17.77609945	159.895752	-81
17883	0	0.112792969	-0.06628418	-0.356750488	0.999999046	-6.10352E-05	-3.33786E-05	1.52588E-05	2.819824219	-1.657104492	-8.918762207	-0.003051758	-0.00166893	0.000762939	-0.822509766	0.432373047	0.561767578	889.36	-169.6511959	-17.77972254	159.8517157	-81
17884	0	0.112766266	-0.066244125	-0.357438087	0.999999046	3.52859E-05	5.72205E-06	8.67844E-05	2.819156647	-1.656103134	-8.935952187	0.001764297	0.000286102	0.004339218	-0.822509766	0.434570313	0.555664063	889.42	-169.6482865	-17.78623648	159.7839078	-81
17885	0	0.11315918	-0.066650391	-0.358337402	0.999999046	-0.000167847	-3.71933E-05	0.00012207	2.828979492	-1.666259766	-8.958435059	-0.008392334	-0.001859665	0.006103516	-0.820068359	0.432128906	0.555664063	889.44	-169.6675823	-17.78716823	159.7232377	-81
17886	0	0.112627029	-0.066619873	-0.356659889	0.999999046	-0.000135422	-2.67029E-05	6.48499E-05	2.815675735	-1.665496826	-8.916497231	-0.006771088	-0.001335144	0.003242493	-0.820068359	0.432128906	0.561523438	889.42	-169.685109	-17.79043454	159.6723089	-81
17887	0	0.112182617	-0.066589355	-0.354919434	0.999999046	1.90735E-05	-0.000144005	9.53674E-05	2.80456543	-1.664733887	-8.87298584	0.000953674	-0.007200241	0.004768372	-0.820068359	0.432128906	0.55859375	889.42	-169.6845649	-17.77982554	159.6190524	-82
17888	0	0.112798691	-0.065831184	-0.355926514	0.999999046	5.24521E-05	-0.000127792	2.19345E-05	2.81996727	-1.64577961	-8.898162842	0.002622604	-0.006389618	0.001096725	-0.822509766	0.432373047	0.561767578	889.36	-169.6827326	-17.77255044	159.5772659	-81
17889	0	0.112915039	-0.066223145	-0.357116699	0.999999046	-4.57764E-05	-9.05991E-05	1.52588E-05	2.822875977	-1.655578613	-8.92791748	-0.002288818	-0.004529953	0.000762939	-0.822509766	0.432373047	0.561767578	889.44	-169.6921492	-17.7695911	159.5349315	-81
17890	0	0.112786293	-0.067171097	-0.356472969	0.999999046	3.05176E-05	-8.2016E-05	7.15256E-05	2.819657326	-1.67927742	-8.911824226	0.001525879	-0.0041008	0.003576279	-0.822509766	0.434570313	0.561523438	889.48	-169.6907354	-17.7664273	159.4751647	-81
17891	0	0.112854004	-0.066711426	-0.356567383	0.999999046	2.67029E-05	-0.000124931	8.7738E-05	2.821350098	-1.667785645	-8.91418457	0.001335144	-0.006246567	0.004386902	-0.820068359	0.432128906	0.55859375	889.54	-169.6893554	-17.75809361	159.4235267	-81
17892	0	0.112996101	-0.066628456	-0.357813835	0.999999046	-2.95639E-05	1.14441E-05	8.39233E-05	2.824902534	-1.665711403	-8.945345879	-0.001478195	0.000572205	0.004196167	-0.822509766	0.432373047	0.558837891	889.38	-169.6936461	-17.76519747	159.3708261	-81
17893	0	0.112548828	-0.066467285	-0.356018066	0.999999046	4.57764E-05	-6.77109E-05	0.000125885	2.813720703	-1.661682129	-8.90045166	0.002288818	-0.003385544	0.006294251	-0.820068359	0.432128906	0.55859375	889.38	-169.68827	-17.76250658	159.3148524	-81
17894	0	0.112726212	-0.067200661	-0.357309341	0.999999046	5.53131E-05	-7.05719E-05	8.67844E-05	2.818155289	-1.680016518	-8.932733536	0.002765656	-0.003528595	0.004339218	-0.820068359	0.432373047	0.564453125	889.42	-169.6831524	-17.76027515	159.2667078	-81
17895	0	0.112487793	-0.067443848	-0.357666016	0.999999046	-8.01086E-05	-0.000121117	0.000110626	2.812194824	-1.686096191	-8.941650391	-0.004005432	-0.006055832	0.005531311	-0.822509766	0.432373047	0.561767578	889.44	-169.6929748	-17.75181549	159.2175221	-81
17896	0	0.112874031	-0.066435814	-0.35703373	0.999999046	5.24521E-05	-0.00022316	0.000197411	2.821850777	-1.660895348	-8.925843239	0.002622604	-0.01115799	0.009870529	-0.822509766	0.432373047	0.561767578	889.38	-169.6851241	-17.73006707	159.1619557	-81
17897	0	0.112976074	-0.066101074	-0.356872559	0.999999046	-7.62939E-06	4.76837E-06	0.0001297	2.824401855	-1.652526855	-8.921813965	-0.00038147	0.000238419	0.006484985	-0.820068359	0.434570313	0.561279297	889.42	-169.6851812	-17.73540808	159.0971312	-81
17898	0	0.112716675	-0.066858292	-0.35388279	1	-1.04904E-05	2.38419E-05	5.24521E-05	2.81791687	-1.671457291	-8.84706974	-0.000524521	0.001192093	0.002622604	-0.822265625	0.430175781	0.559082031	889.38	-169.6880349	-17.74453638	159.0632729	-81
17899	0	0.112609863	-0.066345215	-0.357299805	0.999999046	-7.62939E-06	-6.00815E-05	7.24792E-05	2.815246582	-1.658630371	-8.932495117	-0.00038147	-0.003004074	0.003623962	-0.820068359	0.432128906	0.55859375	889.44	-169.6904526	-17.74376577	159.0171072	-81
17900	0	0.112616539	-0.06696701	-0.358352661	0.999999046	-8.86917E-05	-4.57764E-05	2.67029E-05	2.815413475	-1.674175262	-8.958816528	-0.004434586	-0.002288818	0.001335144	-0.820068359	0.432128906	0.55859375	889.42	-169.7036939	-17.74550861	158.9754995	-81
17901	0	0.112304688	-0.066223145	-0.356872559	0.999999046	1.14441E-05	-5.24521E-05	0.00012207	2.807617188	-1.655578613	-8.921813965	0.000572205	-0.002622604	0.006103516	-0.820068359	0.432128906	0.55859375	889.48	-169.7020532	-17.74451762	158.9236363	-81
17902	0	0.113409042	-0.066076279	-0.360057831	0.999999046	-6.86646E-05	-1.52588E-05	0.000110626	2.835226059	-1.651906967	-9.00144577	-0.003433228	-0.000762939	0.005531311	-0.820068359	0.432128906	0.55859375	889.44	-169.7097937	-17.74793295	158.872671	-81
17903	0	0.112487793	-0.066711426	-0.35760498	0.999999046	-0.000144958	-1.81198E-05	9.15527E-05	2.812194824	-1.667785645	-8.940124512	-0.007247925	-0.000905991	0.004577637	-0.820068359	0.432373047	0.564453125	889.48	-169.7269391	-17.75138765	158.8258571	-81
17904	0	0.112645149	-0.066263199	-0.354516029	0.999999046	-2.76566E-05	-6.29425E-05	7.53403E-05	2.816128731	-1.656579971	-8.862900734	-0.001382828	-0.003147125	0.003767014	-0.820068359	0.434570313	0.561279297	889.42	-169.7315649	-17.7501383	158.7701391	-81
17905	0	0.112731934	-0.066772461	-0.356872559	0.999999046	-3.43323E-05	-8.67844E-05	-7.62939E-06	2.81829834	-1.669311523	-8.921813965	-0.001716614	-0.004339218	-0.00038147	-0.822509766	0.432373047	0.558837891	889.42	-169.7400061	-17.74789096	158.7358044	-81
17906	0	0.112792015	-0.06589222	-0.357629776	0.999999046	-0.000167847	-5.53131E-05	4.95911E-05	2.819800377	-1.647305489	-8.9407444	-0.008392334	-0.002765656	0.002479553	-0.822509766	0.434570313	0.55859375	889.42	-169.7615556	-17.74800315	158.6830603	-81
17907	0	0.112487793	-0.065856934	-0.356750488	0.999999046	-4.19617E-05	-2.57492E-05	4.57764E-05	2.812194824	-1.64642334	-8.918762207	-0.002098083	-0.00128746	0.002288818	-0.820068359	0.432128906	0.555664063	889.44	-169.7685645	-17.75151548	158.6379744	-81
17908	0	0.113255501	-0.065898895	-0.357312202	0.999999046	-6.19888E-05	-0.000141144	3.71933E-05	2.83138752	-1.647472382	-8.932805061	-0.003099442	-0.00705719	0.001859665	-0.820068359	0.432128906	0.561523438	889.44	-169.7788995	-17.74220382	158.5994216	-81
17909	0	0.112731934	-0.066162109	-0.356567383	0.999999046	3.8147E-06	-2.95639E-05	8.39233E-05	2.81829834	-1.654052734	-8.91418457	0.000190735	-0.001478195	0.004196167	-0.820068359	0.432128906	0.561523438	889.48	-169.7792497	-17.74452614	158.5535272	-81
17910	0	0.112332344	-0.066184044	-0.355109215	0.999999046	0	1.33514E-05	8.29697E-05	2.808308601	-1.654601097	-8.87773037	0	0.000667572	0.004148483	-0.820068359	0.432128906	0.55859375	889.5	-169.7797606	-17.75171026	158.5058339	-81
17911	0	0.112609863	-0.066101074	-0.356506348	0.999999046	-1.14441E-05	-0.000124931	7.24792E-05	2.815246582	-1.652526855	-8.912658691	-0.000572205	-0.006246567	0.003623962	-0.820068359	0.432128906	0.561523438	889.44	-169.7828221	-17.74350734	158.4642991	-81
17912	0	0.112449646	-0.065438271	-0.355926514	0.999999046	5.81741E-05	-9.34601E-05	0.000102043	2.81124115	-1.635956764	-8.898162842	0.002908707	-0.004673004	0.005102158	-0.822265625	0.430175781	0.559082031	889.54	-169.7765845	-17.73825453	158.4291197	-81
17913	0	0.112365723	-0.06652832	-0.357971191	0.999999046	7.62939E-05	-0.000102043	0.000125885	2.809143066	-1.663208008	-8.949279785	0.003814697	-0.005102158	0.006294251	-0.822509766	0.432373047	0.564697266	889.42	-169.7674666	-17.73150941	158.3855024	-81
17914	0	0.112580299	-0.066123009	-0.355787277	0.999999046	-6.29425E-05	-2.28882E-05	0	2.814507484	-1.653075218	-8.894681931	-0.003147125	-0.001144409	0	-0.822509766	0.432373047	0.561767578	889.42	-169.7783195	-17.73626132	158.3530228	-81
17915	0	0.112304688	-0.06640625	-0.355957031	0.999999046	-4.19617E-05	1.23978E-05	-4.19617E-05	2.807617188	-1.66015625	-8.898925781	-0.002098083	0.000619888	-0.002098083	-0.822509766	0.432373047	0.561767578	889.42	-169.7880152	-17.7458359	158.3240178	-81
17916	0	0.112745285	-0.065939903	-0.357242584	0.999999046	-7.15256E-05	-7.82013E-05	7.53403E-05	2.818632126	-1.648497581	-8.931064606	-0.003576279	-0.003910065	0.003767014	-0.822509766	0.434570313	0.555664063	889.48	-169.7975348	-17.74279409	158.27065	-81
17917	0	0.112731934	-0.066101074	-0.356140137	0.999999046	-8.01086E-05	-0.000128746	4.19617E-05	2.81829834	-1.652526855	-8.903503418	-0.004005432	-0.006437302	0.002098084	-0.820068359	0.432128906	0.561523438	889.5	-169.8094505	-17.73474381	158.233814	-81
17918	0	0.112816811	-0.065443039	-0.356607437	0.999999046	-7.24792E-05	-4.76837E-05	0.000167847	2.820420265	-1.636075974	-8.915185928	-0.003623962	-0.002384186	0.008392334	-0.820068359	0.432128906	0.561523438	889.48	-169.815427	-17.73329314	158.1812581	-81
17919	0	0.112609863	-0.065734863	-0.354187012	0.999999046	-2.28882E-05	-0.000105858	4.57764E-05	2.815246582	-1.643371582	-8.854675293	-0.001144409	-0.005292892	0.002288818	-0.820068359	0.432128906	0.561523438	889.36	-169.8204664	-17.72779104	158.144583	-81
17920	0	0.112466812	-0.066644669	-0.353238106	0.999999046	-2.38419E-05	-6.86646E-05	2.19345E-05	2.811670303	-1.666116714	-8.830952644	-0.001192093	-0.003433228	0.001096725	-0.822509766	0.432373047	0.558837891	889.44	-169.8261553	-17.727008	158.1098959	-81
17921	0	0.112609863	-0.066223145	-0.358398438	0.999999046	-2.67029E-05	-5.24521E-05	0.000137329	2.815246582	-1.655578613	-8.959960938	-0.001335144	-0.002622604	0.006866455	-0.820068359	0.432128906	0.555664063	889.42	-169.8278919	-17.72568798	158.0594407	-81
17922	0	0.112674713	-0.066418648	-0.356339455	0.999999046	3.05176E-05	-9.53674E-06	9.05991E-05	2.816867828	-1.660466194	-8.908486366	0.001525879	-0.000476837	0.004529953	-0.822509766	0.434570313	0.55859375	889.38	-169.8244715	-17.73015736	158.0078575	-81
17923	0	0.112548828	-0.065795898	-0.355407715	0.999999046	-5.72205E-05	-0.000151634	0.0001297	2.813720703	-1.644897461	-8.885192871	-0.002861023	-0.007581711	0.006484985	-0.822509766	0.432373047	0.561767578	889.38	-169.8305141	-17.71782694	157.966359	-81
17924	0	0.111934662	-0.066944122	-0.354290009	0.999999046	-0.000115395	-0.000278473	3.8147E-05	2.798366547	-1.673603058	-8.857250214	-0.00576973	-0.013923645	0.001907349	-0.822265625	0.432373047	0.555908203	889.48	-169.8472702	-17.69304188	157.9352123	-81
17925	0	0.112487793	-0.066040039	-0.356079102	0.999999046	-6.10352E-05	-0.000193596	0.000114441	2.812194824	-1.651000977	-8.901977539	-0.003051758	-0.009679794	0.005722046	-0.820068359	0.432373047	0.564453125	889.38	-169.8544335	-17.67630303	157.8955675	-81
17926	0	0.112638474	-0.066144943	-0.3565588	0.999999046	-3.8147E-05	-4.76837E-05	0.000152588	2.815961838	-1.653623581	-8.913969994	-0.001907349	-0.002384186	0.007629395	-0.817626953	0.432128906	0.55859375	889.54	-169.8566448	-17.67526907	157.8454105	-81
17927	0	0.112609863	-0.067077637	-0.357849121	0.999999046	-4.19617E-05	-0.000128746	0.000137329	2.815246582	-1.676940918	-8.946228027	-0.002098084	-0.006437302	0.006866455	-0.822509766	0.434570313	0.555664063	889.44	-169.8603491	-17.66538849	157.793103	-81
17928	0	0.112803459	-0.065736771	-0.35721302	0.999999046	-5.24521E-05	-0.000135422	0.000205994	2.820086479	-1.643419266	-8.930325508	-0.002622604	-0.006771088	0.010299683	-0.820068359	0.432373047	0.564453125	889.42	-169.8627307	-17.65339539	157.7448298	-81
17929	0	0.112426758	-0.065856934	-0.356384277	0.999999046	2.67029E-05	-1.43051E-05	9.53674E-05	2.810668945	-1.64642334	-8.909606934	0.001335144	-0.000715256	0.004768372	-0.822509766	0.432373047	0.558837891	889.54	-169.8592259	-17.65731128	157.7077582	-81
17930	0	0.111914635	-0.066264153	-0.35748291	0.999999046	-6.29425E-05	-0.000110626	3.8147E-06	2.797865868	-1.656603813	-8.937072754	-0.003147125	-0.005531311	0.000190735	-0.8203125	0.432373047	0.567382813	889.44	-169.8698406	-17.6521835	157.6846649	-81
17931	0	0.112426758	-0.066223145	-0.35760498	0.999999046	1.52588E-05	-0.000136375	8.01086E-05	2.810668945	-1.655578613	-8.940124512	0.000762939	-0.006818771	0.004005432	-0.820068359	0.429931641	0.564697266	889.44	-169.8688335	-17.642614	157.6620023	-82
17932	0	0.112379074	-0.066679955	-0.356291771	0.999999046	-1.04904E-05	-0.00012207	8.39233E-05	2.809476852	-1.666998863	-8.907294273	-0.000524521	-0.006103516	0.004196167	-0.820068359	0.432373047	0.564453125	889.48	-169.8705425	-17.63459616	157.6289936	-81
17933	0	0.112792969	-0.066223145	-0.356567383	0.999999046	-3.05176E-05	-0.000182152	0.000110626	2.819824219	-1.655578613	-8.91418457	-0.001525879	-0.00910759	0.005531311	-0.820068359	0.432128906	0.561523438	889.5	-169.8739359	-17.61929953	157.5945951	-81
17934	0	0.112463951	-0.065677643	-0.358688354	1	-3.33786E-05	-5.62668E-05	4.19617E-05	2.811598778	-1.641941071	-8.967208862	-0.00166893	-0.002813339	0.002098083	-0.822509766	0.434570313	0.561523438	889.42	-169.8793728	-17.61957721	157.558713	-81
17935	0	0.112609863	-0.065979004	-0.35723877	0.999999046	-2.28882E-05	-0.00014782	6.86646E-05	2.815246582	-1.649475098	-8.930969238	-0.001144409	-0.007390976	0.003433228	-0.820068359	0.429931641	0.564697266	889.36	-169.8830917	-17.60901976	157.539079	-81
17936	0	0.111517906	-0.066771507	-0.355933189	0.999999046	-5.81741E-05	-0.000205994	4.19617E-05	2.787947655	-1.669287682	-8.898329735	-0.002908707	-0.010299683	0.002098084	-0.820068359	0.432128906	0.561523438	889.42	-169.8921683	-17.59242364	157.5139678	-81
17937	0	0.111633301	-0.066040039	-0.358032227	0.999999046	1.52588E-05	-0.000121117	0.000148773	2.79083252	-1.651000977	-8.950805664	0.000762939	-0.006055832	0.00743866	-0.820068359	0.432128906	0.561523438	889.44	-169.8884395	-17.58322626	157.4756544	-81
17938	0	0.112257957	-0.066329002	-0.356715202	0.999999046	-6.48499E-05	-7.24792E-05	0.000141144	2.806448936	-1.65822506	-8.917880058	-0.003242493	-0.003623962	0.00705719	-0.820068359	0.432373047	0.564453125	889.44	-169.8938009	-17.57969525	157.4381182	-81
17939	0	0.112304688	-0.066467285	-0.355895996	0.999999046	2.67029E-05	-0.000117302	0.000118256	2.807617188	-1.661682129	-8.897399902	0.001335144	-0.005865097	0.005912781	-0.820068359	0.434326172	0.55859375	889.48	-169.8897738	-17.57160432	157.3959392	-81
17940	0	0.111776352	-0.066757202	-0.358239174	0.999999046	-3.91006E-05	-0.000114441	4.57764E-05	2.794408798	-1.668930054	-8.955979347	-0.001955032	-0.005722046	0.002288818	-0.822509766	0.434570313	0.564453125	889.48	-169.8957826	-17.5652753	157.3663668	-81
17941	0	0.112304688	-0.065795898	-0.35760498	0.999999046	-1.52588E-05	-0.000136375	4.95911E-05	2.807617188	-1.644897461	-8.940124512	-0.000762939	-0.006818771	0.002479553	-0.817626953	0.432128906	0.561523438	889.5	-169.8990171	-17.55641786	157.3406963	-81
17942	0	0.112504959	-0.065918922	-0.357577324	0.999999046	-0.000137329	4.19617E-05	5.72205E-05	2.812623978	-1.647973061	-8.939433098	-0.006866455	0.002098084	0.002861023	-0.817871094	0.434326172	0.561279297	889.48	-169.914869	-17.56755498	157.3024811	-81
17943	0	0.111328125	-0.066223145	-0.355773926	0.999999046	4.95911E-05	-0.000102043	0.000156403	2.783203125	-1.655578613	-8.894348145	0.002479553	-0.005102158	0.007820129	-0.817626953	0.434326172	0.558349609	889.42	-169.9066219	-17.56045144	157.2561391	-81
17944	0	0.111477852	-0.066293716	-0.35682869	0.999999046	4.1008E-05	-0.000259399	0.000144958	2.786946297	-1.657342911	-8.920717239	0.0020504	-0.012969971	0.007247925	-0.8203125	0.434570313	0.564208984	889.44	-169.900697	-17.53581695	157.2197677	-81
17945	0	0.111816406	-0.066040039	-0.358032227	0.999999046	4.57764E-05	-1.81198E-05	0.000106812	2.795410156	-1.651000977	-8.950805664	0.002288818	-0.000905991	0.005340576	-0.820068359	0.434570313	0.561279297	889.5	-169.8940416	-17.53916681	157.1827947	-81
17946	0	0.111909866	-0.065792084	-0.357909203	0.999999046	-9.53674E-06	-1.14441E-05	4.86374E-05	2.797746658	-1.644802094	-8.947730064	-0.000476837	-0.000572205	0.00243187	-0.820068359	0.432128906	0.561523438	889.48	-169.8956994	-17.54444702	157.1616654	-81
17947	0	0.112365723	-0.066223145	-0.358093262	0.999999046	-6.48499E-05	-9.05991E-05	0.000118256	2.809143066	-1.655578613	-8.952331543	-0.003242493	-0.004529953	0.005912781	-0.820068359	0.432128906	0.561523438	889.44	-169.9016922	-17.53941855	157.1343599	-81
17948	0	0.112527847	-0.06595993	-0.359282494	0.999999046	-6.67572E-06	8.58307E-05	0.000102997	2.813196182	-1.64899826	-8.98206234	-0.000333786	0.004291534	0.005149841	-0.8203125	0.434570313	0.564208984	889.48	-169.9004834	-17.55461028	157.0983368	-81
17949	0	0.111755371	-0.066162109	-0.35723877	0.999999046	-6.10352E-05	2.00272E-05	0.000102997	2.793884277	-1.654052734	-8.930969238	-0.003051758	0.001001358	0.005149841	-0.820068359	0.429931641	0.564697266	889.48	-169.9057938	-17.56238463	157.0798824	-81
17950	0	0.111877441	-0.065958977	-0.35797596	0.999999046	-2.86102E-05	-8.96454E-05	0.000124931	2.796936035	-1.648974419	-8.949398994	-0.001430511	-0.004482269	0.006246567	-0.817626953	0.429931641	0.567382813	889.44	-169.9072906	-17.55733861	157.0598258	-81
17951	0	0.112243652	-0.065612793	-0.35760498	0.999999046	3.05176E-05	-0.000117302	0.000106812	2.806091309	-1.640319824	-8.940124512	0.001525879	-0.005865097	0.005340576	-0.8203125	0.434570313	0.564208984	889.44	-169.902931	-17.54954755	157.0291108	-81
17952	0	0.112205505	-0.065842628	-0.358543396	0.999999046	8.58307E-06	6.48499E-05	8.67844E-05	2.805137634	-1.646065712	-8.9635849	0.000429153	0.003242493	0.004339218	-0.820068359	0.432373047	0.564453125	889.48	-169.9005945	-17.56271575	157.0047619	-81
17953	0	0.112487793	-0.065673828	-0.356750488	0.999999046	-4.95911E-05	-2.57492E-05	0.000133514	2.812194824	-1.641845703	-8.918762207	-0.002479553	-0.00128746	0.00667572	-0.817626953	0.432128906	0.561523438	889.44	-169.9038335	-17.56476422	156.9750242	-81
17954	0	0.11269474	-0.06566906	-0.356702805	0.999999046	-9.53674E-06	-6.29425E-05	0.000132561	2.817368507	-1.641726494	-8.917570114	-0.000476837	-0.003147125	0.006628037	-0.820068359	0.429931641	0.561767578	889.54	-169.9026929	-17.56268844	156.9563368	-81
17955	0	0.111938477	-0.065490723	-0.357543945	0.999999046	-2.28882E-05	6.96182E-05	0.0001297	2.798461914	-1.637268066	-8.938598633	-0.001144409	0.003480911	0.006484985	-0.820068359	0.429931641	0.564697266	889.42	-169.9023437	-17.5756258	156.936116	-81
17956	0	0.111908913	-0.065565109	-0.356800079	0.999999046	4.48227E-05	-1.90735E-06	8.01086E-05	2.797722816	-1.639127731	-8.920001984	0.002241135	-9.53674E-05	0.004005432	-0.820068359	0.432373047	0.564453125	889.42	-169.8965075	-17.58149232	156.9156658	-81
17957	0	0.112365723	-0.065856934	-0.357910156	0.999999046	-1.52588E-05	-5.24521E-05	2.28882E-05	2.809143066	-1.64642334	-8.947753906	-0.000762939	-0.002622604	0.001144409	-0.820068359	0.432128906	0.561523438	889.48	-169.899922	-17.58281445	156.9030797	-81
17958	0	0.112445831	-0.065607071	-0.356825829	0.999999046	1.90735E-06	-0.000101089	3.33786E-05	2.811145782	-1.640176773	-8.920645714	9.53674E-05	-0.005054474	0.00166893	-0.817626953	0.432128906	0.561523438	889.34	-169.9013085	-17.57846689	156.8882341	-81
17959	0	0.112121582	-0.06628418	-0.358337402	0.999999046	-6.86646E-05	5.05447E-05	-1.14441E-05	2.803039551	-1.657104492	-8.958435059	-0.003433228	0.002527237	-0.000572205	-0.820068359	0.432373047	0.564453125	889.44	-169.9113879	-17.59211513	156.8774065	-81
17960	0	0.112585068	-0.066110611	-0.35839653	1	-2.67029E-05	2.76566E-05	-3.91006E-05	2.814626694	-1.652765274	-8.959913254	-0.001335144	0.001382828	-0.001955032	-0.820068359	0.434326172	0.55859375	889.44	-169.9178291	-17.6037374	156.8627322	-81
17961	0	0.112304688	-0.065917969	-0.357421875	0.999999046	-0.00012207	0.000123024	0.000133514	2.807617188	-1.647949219	-8.935546875	-0.006103516	0.006151199	0.00667572	-0.820068359	0.432128906	0.55859375	889.42	-169.9283535	-17.62266333	156.8327752	-81
17962	0	0.111274719	-0.066472054	-0.355519295	0.999999046	5.72205E-06	-0.000116348	0.000105858	2.781867981	-1.661801338	-8.887982368	0.000286102	-0.005817413	0.005292892	-0.820068359	0.429931641	0.561767578	889.44	-169.9266334	-17.61511568	156.8189649	-81
17963	0	0.112121582	-0.065612793	-0.357910156	0.999999046	-7.62939E-05	-9.82285E-05	8.7738E-05	2.803039551	-1.640319824	-8.947753906	-0.003814697	-0.004911423	0.004386902	-0.820068359	0.432128906	0.561523438	889.38	-169.9348865	-17.60995738	156.8003731	-81
17964	0	0.112465858	-0.065639496	-0.35800457	0.999999046	1.04904E-05	-7.43866E-05	6.38962E-05	2.811646461	-1.640987396	-8.95011425	0.000524521	-0.00371933	0.003194809	-0.820068359	0.432373047	0.564453125	889.38	-169.9338922	-17.60796927	156.7844436	-81
17965	0	0.112487793	-0.065368652	-0.357910156	0.999999046	7.62939E-06	3.52859E-05	0.000144958	2.812194824	-1.634216309	-8.947753906	0.00038147	0.001764297	0.007247925	-0.820068359	0.434570313	0.561279297	889.44	-169.9296764	-17.61673394	156.7504403	-81
17966	0	0.112675667	-0.065712929	-0.357962608	0.999999046	-5.14984E-05	-0.000160217	3.33786E-05	2.81689167	-1.642823219	-8.949065208	-0.002574921	-0.008010864	0.00166893	-0.822509766	0.432373047	0.561767578	889.42	-169.9374264	-17.60568893	156.7426266	-81
17967	0	0.112365723	-0.065673828	-0.359191895	0.999999046	3.8147E-05	9.53674E-07	0.000144958	2.809143066	-1.641845703	-8.979797363	0.001907349	4.76837E-05	0.007247925	-0.820068359	0.432128906	0.561523438	889.42	-169.9298897	-17.61057437	156.7174063	-81
17968	0	0.11228466	-0.065550804	-0.359187126	0.999999046	-6.67572E-06	4.57764E-05	8.67844E-05	2.807116508	-1.638770103	-8.979678154	-0.000333786	0.002288818	0.004339218	-0.820068359	0.432128906	0.55859375	889.44	-169.9293069	-17.62165691	156.6978232	-81
17969	0	0.111877441	-0.065917969	-0.357116699	0.999999046	8.39233E-05	4.76837E-06	1.14441E-05	2.796936035	-1.647949219	-8.92791748	0.004196167	0.000238419	0.000572205	-0.820068359	0.429931641	0.561767578	889.42	-169.9212388	-17.62961031	156.694879	-81
17970	0	0.112427711	-0.065980911	-0.358631134	0.999999046	4.3869E-05	-8.01086E-05	0.000133514	2.810692787	-1.649522781	-8.965778351	0.002193451	-0.004005432	0.00667572	-0.820068359	0.432128906	0.55859375	889.42	-169.9139535	-17.62552154	156.6731241	-81
17971	0	0.112609863	-0.066101074	-0.358703613	0.999999046	9.53674E-05	-0.00014782	4.19617E-05	2.815246582	-1.652526855	-8.967590332	0.004768372	-0.007390976	0.002098084	-0.820068359	0.432128906	0.55859375	889.44	-169.9044656	-17.61562545	156.6641387	-81
17972	0	0.112681389	-0.065324783	-0.356101036	0.999999046	-0.00014019	-0.000102997	0.000106812	2.817034721	-1.633119583	-8.902525902	-0.007009506	-0.005149841	0.005340576	-0.820068359	0.429931641	0.564697266	889.44	-169.9193267	-17.60953047	156.6535702	-81
17973	0	0.112609863	-0.066162109	-0.358215332	0.999999046	6.48499E-05	-9.05991E-05	4.19617E-05	2.815246582	-1.654052734	-8.955383301	0.003242493	-0.004529953	0.002098084	-0.817871094	0.432128906	0.564453125	889.38	-169.912954	-17.60613802	156.6425927	-81
17974	0	0.112477303	-0.066401482	-0.357556343	0.999999046	-7.62939E-06	-0.000106812	8.39233E-05	2.811932564	-1.660037041	-8.938908577	-0.00038147	-0.005340576	0.004196167	-0.820068359	0.432128906	0.55859375	889.48	-169.9134513	-17.60008355	156.6282437	-81
17975	0	0.112182617	-0.065979004	-0.355834961	0.999999046	-5.34058E-05	7.72476E-05	8.39233E-05	2.80456543	-1.649475098	-8.895874023	-0.002670288	0.003862381	0.004196167	-0.822509766	0.434570313	0.55859375	889.44	-169.9180194	-17.61481601	156.6058967	-81
17976	0	0.112164497	-0.066265106	-0.355947495	0.999999046	-5.05447E-05	3.24249E-05	6.38962E-05	2.804112434	-1.656627655	-8.898687363	-0.002527237	0.001621246	0.003194809	-0.820068359	0.434570313	0.561279297	889.5	-169.9232202	-17.62490876	156.5854003	-81
17977	0	0.112060547	-0.066162109	-0.357788086	0.999999046	7.62939E-06	-0.000117302	4.95911E-05	2.801513672	-1.654052734	-8.944702148	0.00038147	-0.005865097	0.002479553	-0.817871094	0.432128906	0.564453125	889.42	-169.923163	-17.6183779	156.575092	-81
17978	0	0.112701416	-0.064775467	-0.356776237	0.999999046	8.7738E-05	-3.24249E-05	0.000182152	2.8175354	-1.619386673	-8.919405937	0.004386902	-0.001621246	0.00910759	-0.822265625	0.432373047	0.555908203	889.5	-169.9086747	-17.61879382	156.5501222	-81
17979	0	0.11315918	-0.065185547	-0.359924316	0.999999046	-7.62939E-05	3.52859E-05	0.000114441	2.828979492	-1.629638672	-8.99810791	-0.003814697	0.001764297	0.005722046	-0.822509766	0.432373047	0.561767578	889.38	-169.9150208	-17.62821142	156.5329869	-81
17980	0	0.112557411	-0.065645218	-0.357729912	0.999999046	-0.000187874	2.28882E-05	0.000151634	2.81393528	-1.641130447	-8.943247795	-0.009393692	0.001144409	0.007581711	-0.820068359	0.432128906	0.561523438	889.44	-169.9329094	-17.63548807	156.5099776	-81
17981	0	0.111633301	-0.065795898	-0.356262207	0.999999046	9.53674E-05	-9.82285E-05	0.000175476	2.79083252	-1.644897461	-8.906555176	0.004768372	-0.004911423	0.008773804	-0.820068359	0.432128906	0.561523438	889.44	-169.9182306	-17.62859997	156.4876289	-81
17982	0	0.112027168	-0.065964699	-0.356760979	0.999999046	-4.76837E-05	-0.00012207	0.000171661	2.800679207	-1.64911747	-8.919024467	-0.002384186	-0.006103516	0.008583069	-0.820068359	0.432373047	0.564453125	889.42	-169.9202105	-17.61908959	156.4665562	-81
17983	0	0.112854004	-0.065429688	-0.357666016	0.999999046	7.62939E-05	-6.67572E-06	6.48499E-05	2.821350098	-1.635742188	-8.941650391	0.003814697	-0.000333786	0.003242493	-0.820068359	0.432128906	0.561523438	889.42	-169.911091	-17.6247636	156.4560667	-81
17984	0	0.112961769	-0.065926552	-0.356803894	0.999999046	-6.96182E-05	-8.01086E-05	0.000179291	2.824044228	-1.648163795	-8.920097351	-0.003480911	-0.004005432	0.008964539	-0.820068359	0.432373047	0.564453125	889.44	-169.9150403	-17.61989399	156.4338011	-81
17985	0	0.112731934	-0.066162109	-0.358520508	0.999999046	-1.90735E-05	-7.53403E-05	9.91821E-05	2.81829834	-1.654052734	-8.963012695	-0.000953674	-0.003767014	0.004959106	-0.820068359	0.429931641	0.561767578	889.44	-169.915996	-17.61717297	156.4266023	-81
17986	0	0.112725258	-0.065683365	-0.357502937	0.999999046	-0.000102997	-2.28882E-05	7.24792E-05	2.818131447	-1.642084122	-8.937573433	-0.005149841	-0.001144409	0.003623962	-0.820068359	0.432128906	0.55859375	889.48	-169.9272283	-17.62091927	156.4151076	-81
17987	0	0.112548828	-0.065673828	-0.358337402	0.999999046	-1.52588E-05	1.62125E-05	5.72205E-05	2.813720703	-1.641845703	-8.958435059	-0.000762939	0.000810623	0.002861023	-0.820068359	0.432373047	0.564453125	889.42	-169.928707	-17.6293782	156.404787	-81
17988	0	0.112490654	-0.06592083	-0.357848167	0.999999046	-4.76837E-06	-7.05719E-05	9.05991E-05	2.81226635	-1.648020744	-8.946204185	-0.000238419	-0.003528595	0.004529953	-0.822509766	0.430175781	0.564697266	889.48	-169.9282911	-17.62737623	156.3999654	-81
17989	0	0.112609863	-0.066162109	-0.358520508	0.999999046	5.34058E-05	-9.44138E-05	0.000171661	2.815246582	-1.654052734	-8.963012695	0.002670288	-0.004720688	0.008583069	-0.820068359	0.432128906	0.55859375	889.48	-169.9184751	-17.62104711	156.3787314	-81
17990	0	0.112640381	-0.066300392	-0.356704712	0.999999046	7.62939E-06	4.95911E-05	9.05991E-05	2.816009521	-1.657509804	-8.917617798	0.00038147	0.002479553	0.004529953	-0.820068359	0.432128906	0.561523438	889.42	-169.9158503	-17.63261359	156.3645712	-81
17991	0	0.112670898	-0.065795898	-0.357666016	0.999999046	2.28882E-05	-2.95639E-05	9.15527E-05	2.816772461	-1.644897461	-8.941650391	0.001144409	-0.001478195	0.004577637	-0.820068359	0.432128906	0.561523438	889.38	-169.9119453	-17.635237	156.3521542	-81
17992	0	0.112819672	-0.066382408	-0.357365608	0.999999046	-2.76566E-05	-7.62939E-05	3.05176E-05	2.820491791	-1.659560204	-8.934140205	-0.001382828	-0.003814697	0.001525879	-0.822265625	0.430175781	0.559082031	889.38	-169.916259	-17.63383157	156.3539358	-81
17993	0	0.112365723	-0.06640625	-0.358520508	0.999999046	4.19617E-05	-2.95639E-05	2.28882E-05	2.809143066	-1.66015625	-8.963012695	0.002098083	-0.001478195	0.001144409	-0.820068359	0.432128906	0.561523438	889.48	-169.9125747	-17.63782554	156.3490794	-81
17994	0	0.112401009	-0.065831184	-0.357179642	0.999999046	4.76837E-05	-7.24792E-05	8.7738E-05	2.810025215	-1.64577961	-8.929491043	0.002384186	-0.003623962	0.004386902	-0.819824219	0.429931641	0.558837891	889.38	-169.9061533	-17.6356783	156.3423063	-81
17995	0	0.112792969	-0.065368652	-0.356201172	0.999999046	-6.10352E-05	-6.38962E-05	1.14441E-05	2.819824219	-1.634216309	-8.905029297	-0.003051758	-0.003194809	0.000572205	-0.822509766	0.432373047	0.561767578	889.34	-169.9149044	-17.63606345	156.3408637	-81
17996	0	0.112622261	-0.066243172	-0.357505798	0.999999046	2.76566E-05	-5.91278E-05	9.05991E-05	2.815556526	-1.656079292	-8.937644958	0.001382828	-0.00295639	0.004529953	-0.822265625	0.432373047	0.555908203	889.48	-169.9106039	-17.63540024	156.3291704	-81
17997	0	0.112731934	-0.065917969	-0.356506348	0.999999046	-7.24792E-05	-0.000208855	2.28882E-05	2.81829834	-1.647949219	-8.912658691	-0.003623962	-0.010442734	0.001144409	-0.822509766	0.432373047	0.561767578	889.48	-169.9211395	-17.61922914	156.3293619	-81
17998	0	0.11318779	-0.065627098	-0.35931015	0.999999046	-4.57764E-05	-2.09808E-05	5.72205E-05	2.829694748	-1.640677452	-8.982753754	-0.002288818	-0.001049042	0.002861023	-0.820068359	0.432128906	0.561523438	889.44	-169.9262157	-17.6235746	156.3197422	-81
17999	0	0.112365723	-0.06640625	-0.357116699	0.999999046	-5.72205E-05	6.58035E-05	-1.14441E-05	2.809143066	-1.66015625	-8.92791748	-0.002861023	0.003290176	-0.000572205	-0.822509766	0.432373047	0.564697266	889.44	-169.9344676	-17.63908738	156.317869	-81
18000	0	0.112107277	-0.065875053	-0.356377602	0.999999046	-3.52859E-05	-0.000219345	0.000113487	2.802681923	-1.646876335	-8.909440041	-0.001764298	-0.010967255	0.005674362	-0.820068359	0.432128906	0.55859375	889.48	-169.9375303	-17.61991806	156.3051218	-81
18001	0	0.112182617	-0.06640625	-0.357116699	0.999999046	-5.34058E-05	-0.000189781	2.67029E-05	2.80456543	-1.66015625	-8.92791748	-0.002670288	-0.00948906	0.001335144	-0.822509766	0.432373047	0.564697266	889.4	-169.9455366	-17.60581468	156.3042229	-81
18002	0	0.112286568	-0.066191673	-0.356801033	0.999999046	-1.90735E-05	-0.000165939	6.00815E-05	2.807164192	-1.654791832	-8.920025826	-0.000953674	-0.008296967	0.003004074	-0.819824219	0.429931641	0.558837891	889.48	-169.9482107	-17.5937424	156.3013506	-81
18003	0	0.112487793	-0.065979004	-0.357177734	0.999999046	-1.52588E-05	-0.000216484	-7.62939E-06	2.812194824	-1.649475098	-8.929443359	-0.000762939	-0.010824204	-0.00038147	-0.822265625	0.432373047	0.555908203	889.44	-169.9531905	-17.57733348	156.303444	-81
18004	0	0.112943649	-0.065173149	-0.355337143	0.999999046	-2.57492E-05	-6.67572E-05	8.01086E-05	2.823591232	-1.629328728	-8.883428574	-0.00128746	-0.00333786	0.004005432	-0.822509766	0.432373047	0.558837891	889.5	-169.9552847	-17.57613815	156.2926418	-81
18005	0	0.112915039	-0.064880371	-0.356872559	0.999999046	-1.14441E-05	-0.000113487	9.53674E-05	2.822875977	-1.622009277	-8.921813965	-0.000572205	-0.005674362	0.004768372	-0.817626953	0.432128906	0.561523438	889.44	-169.9555319	-17.56941196	156.2777655	-81
18006	0	0.112332344	-0.065565109	-0.356106758	0.999999046	5.72205E-05	-5.91278E-05	0.000128746	2.808308601	-1.639127731	-8.902668953	0.002861023	-0.00295639	0.006437302	-0.820068359	0.432128906	0.561523438	889.44	-169.9463524	-17.56818275	156.2605309	-81
18007	0	0.112731934	-0.065368652	-0.355712891	0.999999046	-3.8147E-05	-0.000124931	0.000190735	2.81829834	-1.634216309	-8.892822266	-0.001907349	-0.006246567	0.009536743	-0.820068359	0.432128906	0.55859375	889.5	-169.9463043	-17.55834309	156.2375366	-81
18008	0	0.112189293	-0.066056252	-0.357578278	0.999999046	3.33786E-05	-0.00021553	5.62668E-05	2.804732323	-1.651406288	-8.93945694	0.00166893	-0.01077652	0.002813339	-0.820068359	0.432128906	0.561523438	889.42	-169.9434104	-17.54097258	156.2328745	-81
18009	0	0.112609863	-0.06640625	-0.358642578	0.999999046	-1.52588E-05	-0.000102043	3.05176E-05	2.815246582	-1.66015625	-8.966064453	-0.000762939	-0.005102158	0.001525879	-0.822509766	0.432373047	0.561767578	889.48	-169.9462567	-17.53693327	156.2303376	-81
18010	0	0.112470627	-0.065670013	-0.357447624	0.999999046	0	-0.000112534	6.77109E-05	2.811765671	-1.641750336	-8.936190605	0	-0.005626678	0.003385544	-0.820068359	0.432128906	0.55859375	889.48	-169.9461016	-17.53099012	156.2216182	-81
18011	0	0.112304688	-0.065734863	-0.358154297	0.999999046	-9.15527E-05	-4.86374E-05	0.0001297	2.807617188	-1.643371582	-8.953857422	-0.004577637	-0.00243187	0.006484985	-0.820068359	0.432373047	0.564453125	889.5	-169.9538248	-17.53102413	156.2043845	-81
18012	0	0.112556458	-0.065332413	-0.357811928	0.999999046	-5.81741E-05	-0.000177383	0.000102043	2.813911438	-1.633310318	-8.945298195	-0.002908707	-0.008869171	0.005102158	-0.817871094	0.432128906	0.564453125	889.48	-169.9595447	-17.51710861	156.191816	-81
18013	0	0.112121582	-0.065307617	-0.357727051	0.999999046	-1.52588E-05	-7.15256E-05	7.62939E-05	2.803039551	-1.63269043	-8.94317627	-0.000762939	-0.003576279	0.003814697	-0.820068359	0.432128906	0.561523438	889.44	-169.9606079	-17.51566152	156.1817758	-82
18014	0	0.112669945	-0.065253258	-0.357563019	0.999999046	7.05719E-05	-7.82013E-05	2.95639E-05	2.816748619	-1.631331444	-8.93907547	0.003528595	-0.003910065	0.001478195	-0.820068359	0.432128906	0.561523438	889.44	-169.9535584	-17.51443431	156.177421	-81
18015	0	0.112182617	-0.065734863	-0.358642578	0.999999046	-7.62939E-06	-5.24521E-05	7.62939E-06	2.80456543	-1.643371582	-8.966064453	-0.00038147	-0.002622604	0.00038147	-0.820068359	0.432128906	0.55859375	889.48	-169.9560958	-17.51654827	156.174478	-81
18016	0	0.112570763	-0.065121651	-0.355787277	0.999999046	3.52859E-05	-0.000185013	0.000109673	2.814269066	-1.628041267	-8.894681931	0.001764297	-0.009250641	0.005483627	-0.817626953	0.432128906	0.561523438	889.44	-169.9509297	-17.50172529	156.1607559	-81
18017	0	0.112976074	-0.064819336	-0.358459473	0.999999046	-9.15527E-05	6.96182E-05	1.52588E-05	2.824401855	-1.620483398	-8.961486816	-0.004577637	0.003480911	0.000762939	-0.820068359	0.432373047	0.564453125	889.44	-169.9620989	-17.51756437	156.1543281	-81
18018	0	0.111985207	-0.065551758	-0.356137276	1	1.81198E-05	-3.91006E-05	5.24521E-05	2.799630165	-1.638793945	-8.903431892	0.000905991	-0.001955032	0.002622604	-0.820068359	0.432128906	0.561523438	889.4	-169.9600484	-17.5204146	156.1459532	-81
18019	0	0.111572266	-0.065185547	-0.355957031	0.999999046	1.14441E-05	-4.86374E-05	8.7738E-05	2.789306641	-1.629638672	-8.898925781	0.000572205	-0.00243187	0.004386902	-0.820068359	0.434326172	0.55859375	889.48	-169.9575955	-17.52148423	156.1283791	-81
18020	0	0.111768723	-0.065885544	-0.355662346	0.999999046	-4.673E-05	-0.000209808	4.57764E-05	2.794218063	-1.647138596	-8.891558647	-0.002336502	-0.010490418	0.002288818	-0.819824219	0.429931641	0.558837891	889.48	-169.9642379	-17.50522887	156.1290086	-82
18021	0	0.112609863	-0.064880371	-0.356933594	0.999999046	-0.00012207	-9.44138E-05	7.24792E-05	2.815246582	-1.622009277	-8.923339844	-0.006103516	-0.004720688	0.003623962	-0.820068359	0.429931641	0.564697266	889.44	-169.97786	-17.50150632	156.1244502	-81
18022	0	0.11210537	-0.065176964	-0.354957581	0.999999046	-5.91278E-05	-0.000143051	0.000121117	2.802634239	-1.629424095	-8.873939514	-0.00295639	-0.007152557	0.006055832	-0.820068359	0.432128906	0.55859375	889.44	-169.9828631	-17.49136999	156.1093915	-81
18023	0	0.112731934	-0.064697266	-0.356567383	0.999999046	1.52588E-05	-0.000144005	2.67029E-05	2.81829834	-1.617431641	-8.91418457	0.000762939	-0.007200241	0.001335144	-0.817626953	0.429931641	0.567382813	889.4	-169.9827108	-17.48307132	156.1091821	-81
18024	0	0.112563133	-0.064958572	-0.3570261	0.999999046	-9.44138E-05	1.14441E-05	0.000125885	2.814078331	-1.62396431	-8.925652504	-0.004720688	0.000572205	0.006294251	-0.820068359	0.429931641	0.561767578	889.4	-169.9906399	-17.4903819	156.0954212	-81
18025	0	0.111816406	-0.065673828	-0.35559082	0.999999046	7.62939E-06	5.43594E-05	0.000144958	2.795410156	-1.641845703	-8.889770508	0.00038147	0.002717972	0.007247925	-0.820068359	0.429931641	0.564697266	889.48	-169.9858889	-17.50218025	156.0788715	-81
18026	0	0.111896515	-0.065284729	-0.35661602	1	2.19345E-05	-3.52859E-05	5.24521E-05	2.797412872	-1.632118225	-8.915400505	0.001096725	-0.001764297	0.002622604	-0.817871094	0.434326172	0.564208984	889.34	-169.9834044	-17.50570636	156.0626971	-81
18027	0	0.112121582	-0.065795898	-0.357055664	0.999999046	-4.57764E-05	-6.77109E-05	7.62939E-05	2.803039551	-1.644897461	-8.926391602	-0.002288818	-0.003385544	0.003814697	-0.820068359	0.429931641	0.564697266	889.34	-169.9879544	-17.50511755	156.0567449	-81
18028	0	0.112306595	-0.065536499	-0.356894493	0.999999046	2.95639E-05	-0.000104904	8.29697E-05	2.807664871	-1.638412476	-8.922362328	0.001478195	-0.005245209	0.004148483	-0.820068359	0.432128906	0.561523438	889.38	-169.9838788	-17.50021725	156.0453343	-81
18029	0	0.111999512	-0.065490723	-0.356750488	0.999999046	-3.8147E-05	-5.24521E-05	2.28882E-05	2.799987793	-1.637268066	-8.918762207	-0.001907349	-0.002622604	0.001144409	-0.820068359	0.432128906	0.561523438	889.4	-169.9893604	-17.50244433	156.0395986	-81
18030	0	0.112262726	-0.065834999	-0.356157303	0.999999046	-5.34058E-05	-0.000101089	4.86374E-05	2.806568146	-1.645874977	-8.903932571	-0.002670288	-0.005054474	0.00243187	-0.817626953	0.432128906	0.55859375	889.4	-169.9959544	-17.49869884	156.029012	-81
18031	0	0.112182617	-0.064880371	-0.357055664	0.999999046	-0.000114441	-5.24521E-05	0.000156403	2.80456543	-1.622009277	-8.926391602	-0.005722046	-0.002622604	0.007820129	-0.817626953	0.432128906	0.561523438	889.5	-170.0054211	-17.49831354	156.0051605	-81
18032	0	0.111940384	-0.065505981	-0.355862617	0.999999046	-4.48227E-05	-9.53674E-06	9.15527E-05	2.798509598	-1.637649536	-8.896565437	-0.002241135	-0.000476837	0.004577637	-0.8203125	0.432373047	0.567382813	889.4	-170.0089112	-17.50408363	155.9906761	-81
18033	0	0.111694336	-0.066101074	-0.356689453	0.999999046	-4.19617E-05	-1.43051E-05	3.05176E-05	2.792358398	-1.652526855	-8.917236328	-0.002098083	-0.000715256	0.001525879	-0.819824219	0.429931641	0.555908203	889.54	-170.0142119	-17.51052314	155.9871281	-81
18034	0	0.112533569	-0.065284729	-0.357309341	0.999999046	-1.90735E-06	-9.34601E-05	7.53403E-05	2.813339233	-1.632118225	-8.932733536	-9.53674E-05	-0.004673004	0.003767014	-0.820068359	0.429931641	0.564697266	889.38	-170.013813	-17.50716439	155.9809781	-81
18035	0	0.112487793	-0.066467285	-0.357116699	0.999999046	-0.000198364	0.000103951	0.000148773	2.812194824	-1.661682129	-8.92791748	-0.009918213	0.005197525	0.00743866	-0.822509766	0.432373047	0.561767578	889.32	-170.0320304	-17.52464421	155.9578079	-81
18036	0	0.111869812	-0.065688133	-0.355899811	0.999999046	-5.05447E-05	-7.82013E-05	4.48227E-05	2.7967453	-1.642203331	-8.89749527	-0.002527237	-0.003910065	0.002241135	-0.822509766	0.432373047	0.561767578	889.36	-170.0381143	-17.52363445	155.9504416	-81
18037	0	0.11151123	-0.065551758	-0.355773926	0.999999046	-2.67029E-05	-0.000105858	-7.62939E-06	2.787780762	-1.638793945	-8.894348145	-0.001335144	-0.005292892	-0.00038147	-0.822509766	0.432373047	0.561767578	889.32	-170.043473	-17.52053337	155.9494199	-81
18038	0	0.111985207	-0.064677238	-0.35671711	0.999999046	6.10352E-05	-0.000204086	6.00815E-05	2.799630165	-1.616930962	-8.917927742	0.003051758	-0.010204315	0.003004074	-0.820068359	0.432128906	0.561523438	889.4	-170.0369999	-17.50500709	155.9408684	-81
18039	0	0.112609863	-0.065246582	-0.35736084	0.999999046	-1.14441E-05	-0.000208855	6.10352E-05	2.815246582	-1.631164551	-8.934020996	-0.000572205	-0.010442734	0.003051758	-0.820068359	0.432128906	0.55859375	889.4	-170.0388236	-17.48895124	155.932091	-81
18040	0	0.112086296	-0.06567955	-0.355395317	0.999999046	4.1008E-05	-0.00041008	0.000102043	2.802157402	-1.641988754	-8.884882927	0.0020504	-0.020503998	0.005102158	-0.820068359	0.432373047	0.564453125	889.44	-170.0343818	-17.44940814	155.9232942	-81
18041	0	0.111816406	-0.065856934	-0.357727051	0.999999046	9.53674E-05	-0.000250816	0.000160217	2.795410156	-1.64642334	-8.94317627	0.004768372	-0.012540817	0.008010864	-0.817871094	0.432128906	0.564453125	889.4	-170.0206242	-17.42668525	155.9036277	-81
18042	0	0.111005783	-0.064679146	-0.355329514	0.999999046	0.000120163	-0.000387192	0.000137329	2.775144577	-1.616978645	-8.883237839	0.006008148	-0.019359589	0.006866455	-0.8203125	0.432373047	0.567382813	889.38	-170.0056912	-17.38903371	155.892599	-81
18043	0	0.109375	-0.065917969	-0.351074219	0.999999046	0.000671387	-0.000502586	0.000217438	2.734375	-1.647949219	-8.776855469	0.03356934	-0.025129321	0.010871889	-0.817871094	0.432128906	0.567138672	889.48	-169.9254024	-17.33676574	155.8755761	-81
18044	0	0.109839439	-0.066386223	-0.35799408	0.999997139	0.001631737	-0.001260757	0.000469208	2.745985985	-1.659655571	-8.94985199	0.081586899	-0.063037919	0.023460406	-0.817871094	0.434326172	0.564208984	889.44	-169.7310319	-17.19381421	155.8468416	-81
18045	0	0.10534668	-0.072143555	-0.353881836	0.999990463	0.003808022	-0.001502991	0.00094986	2.633666992	-1.803588867	-8.847045898	0.190401638	-0.075149757	0.047493121	-0.815673828	0.438720703	0.566650391	889.4	-169.2721616	-17.01325391	155.7711729	-81
18046	0	0.108705521	-0.079975128	-0.375769615	0.999986649	0.004023552	-0.002968788	0.00086689	2.717638016	-1.999378204	-9.394240379	0.201178461	-0.148440045	0.043344684	-0.813476563	0.4453125	0.562988281	889.38	-168.8015407	-16.66877127	155.7390968	-81
18047	0	0.105712891	-0.077148438	-0.37689209	0.999976158	0.005981445	-0.003417015	-0.000175476	2.642822266	-1.928710938	-9.422302246	0.299074633	-0.170852106	-0.008773873	-0.811279297	0.449707031	0.565429688	889.36	-168.1453552	-16.29730927	155.8495804	-81
18048	0	0.104104996	-0.07505703	-0.363862038	0.99994278	0.010570526	-0.000538826	-0.001048088	2.602624893	-1.876425743	-9.096550941	0.528536272	-0.026941807	-0.052405392	-0.804443359	0.456298828	0.561523438	889.32	-166.9725349	-16.27117551	155.9956141	-81
18049	0	0.107849121	-0.07989502	-0.362548828	0.999876022	0.015656471	0.000686646	-0.001235962	2.696228027	-1.997375488	-9.063720703	0.782855809	0.03433369	-0.061800641	-0.807128906	0.467285156	0.552246094	889.38	-165.2136315	-16.3902774	156.1412235	-81
18050	0	0.09943676	-0.09185791	-0.339680672	0.999815941	0.019161224	6.48499E-05	-0.000740051	2.485918999	-2.296447754	-8.492016792	0.958119942	0.003242691	-0.037004832	-0.810058594	0.485107422	0.539306641	889.44	-163.041582	-16.42958975	156.2530179	-80
18051	0	0.114074707	-0.090942383	-0.354431152	0.999742508	0.022400856	0.003513336	0.000110626	2.851867676	-2.27355957	-8.860778809	1.120138802	0.175681866	0.005531785	-0.810302734	0.502685547	0.514648438	889.44	-160.4343178	-16.81774148	156.148544	-81
18052	0	0.105252266	-0.114346504	-0.343309402	0.999725342	0.02207756	0.007554054	0.001693726	2.631306648	-2.858662605	-8.582735062	1.103978748	0.377737178	0.084694007	-0.812988281	0.524902344	0.478027344	889.38	-157.7540192	-17.56724182	155.6742546	-81
18053	0	0.096801758	-0.150390625	-0.360656738	0.999590874	0.026878357	0.009663582	0.001010895	2.420043945	-3.759765625	-9.016418457	1.344100878	0.483244898	0.050551623	-0.822998047	0.549316406	0.441894531	889.44	-154.4941948	-18.54228047	155.1398933	-79
18054	0	0.115916252	-0.163228989	-0.358657837	0.999381065	0.03373909	0.009857178	0.001091957	2.897906303	-4.080724716	-8.966445923	1.687302396	0.492960528	0.054609114	-0.830322266	0.578125	0.390625	889.44	-150.410406	-19.49500371	154.5204415	-79
18055	0	0.121032715	-0.187255859	-0.342224121	0.999257088	0.037654877	0.007916451	0.002128601	3.025817871	-4.681396484	-8.555603027	1.883210155	0.395920563	0.106456414	-0.835205078	0.602539063	0.333740234	889.4	-145.8487588	-20.14547018	153.8547773	-78
18056	0	0.13179493	-0.215063095	-0.320585251	0.999281883	0.037487984	0.005151749	0.001932144	3.294873238	-5.376577377	-8.014631271	1.874847963	0.257649106	0.096630338	-0.835205078	0.628662109	0.2734375	889.44	-141.3577606	-20.49816448	153.3437034	-76
18057	0	0.134521484	-0.226989746	-0.296691895	0.99939537	0.03456974	0.002319336	0.002685547	3.363037109	-5.674743652	-7.417297363	1.728835108	0.115990151	0.134304385	-0.837646484	0.650634766	0.22265625	889.42	-137.24521	-20.50804584	152.9601395	-74
18058	0	0.132554054	-0.245512962	-0.248971939	0.9995327	0.030200005	0.003453255	0.002936363	3.313851357	-6.137824059	-6.224298477	1.510235029	0.172689583	0.146840991	-0.835205078	0.665771484	0.174804688	889.48	-133.590956	-20.56316406	152.4549789	-74
18059	0	0.136047363	-0.259399414	-0.230957031	0.999632835	0.02640152	0.004910469	0.003387451	3.401184082	-6.484985352	-5.773925781	1.320237229	0.245553442	0.169393247	-0.832519531	0.680908203	0.129882813	889.44	-130.3101072	-20.66058361	151.7707036	-74
18060	0	0.134616852	-0.271754265	-0.21011734	0.999721527	0.021837234	0.007939339	0.004092216	3.365421295	-6.793856621	-5.252933502	1.091963047	0.397003772	0.204629812	-0.827392578	0.691650391	0.088134766	889.4	-127.4261332	-20.87673328	150.7373547	-74
18061	0	0.141479492	-0.274169922	-0.202575684	0.99978447	0.018536568	0.007652283	0.005298615	3.536987305	-6.854248047	-5.06439209	0.926894857	0.382641577	0.264949726	-0.822265625	0.699951172	0.040771484	889.48	-124.8932666	-20.91485385	149.6252856	-74
18062	0	0.142874718	-0.309207916	-0.18786335	0.999832153	0.014855385	0.007889748	0.007255554	3.571867943	-7.730197906	-4.696583748	0.74281079	0.394509448	0.362798003	-0.814941406	0.712890625	0.004638672	889.44	-122.7263351	-20.7382736	148.3526558	-76
18063	0	0.133483887	-0.30847168	-0.178405762	0.999832153	0.015229225	0.008125305	0.006076813	3.337097168	-7.711791992	-4.460144043	0.761503764	0.406287937	0.303857598	-0.805175781	0.721191406	-0.028564453	889.44	-120.5400459	-20.64479318	147.1421785	-76
18064	0	0.130896568	-0.337737083	-0.174757004	0.99990654	0.010717392	0.006037712	0.005893707	3.272414207	-8.443427086	-4.368925095	0.535886216	0.301894967	0.294694502	-0.797851563	0.731689453	-0.061767578	889.54	-118.9568112	-20.41217241	146.1548978	-77
18065	0	0.129089355	-0.323059082	-0.15814209	0.999944687	0.008431435	0.0050354	0.00359726	3.227233887	-8.076477051	-3.953552246	0.421579418	0.25177461	0.179866255	-0.790527344	0.735839844	-0.082763672	889.48	-117.7238807	-20.33349801	145.412464	-77
18066	0	0.137984276	-0.329145432	-0.168139458	0.999948502	0.008257866	0.003996849	0.004161835	3.449606895	-8.228635788	-4.203486443	0.41290028	0.199845833	0.208095256	-0.785644531	0.739990234	-0.097900391	889.48	-116.541611	-20.12822115	144.7629595	-75
18067	0	0.128295898	-0.322998047	-0.144042969	0.999945641	0.008972168	0.001919746	0.004871368	3.207397461	-8.074951172	-3.601074219	0.448616467	0.095989046	0.243572801	-0.776123047	0.74609375	-0.119140625	889.48	-115.3469499	-19.73274034	144.2965298	-74
18068	0	0.120323181	-0.337903976	-0.155920982	0.999927521	0.011011124	0.001976967	0.00435257	3.008079529	-8.447599411	-3.898024559	0.550569406	0.098850717	0.217633706	-0.769042969	0.750244141	-0.131591797	889.48	-113.9317993	-19.383443	143.8714869	-74
18069	0	0.116760254	-0.330749512	-0.125793457	0.999908447	0.012890816	0.001544952	0.003696442	2.919006348	-8.268737793	-3.144836426	0.644560363	0.077249966	0.184827696	-0.763916016	0.754394531	-0.155273438	889.5	-112.3325662	-19.0727159	143.5308005	-73
18070	0	0.115773201	-0.359532356	-0.135874748	0.999879837	0.014925957	0.002514839	0.003152847	2.894330025	-8.988308907	-3.396868706	0.746327573	0.125746969	0.157648646	-0.761230469	0.754150391	-0.178710938	889.44	-110.4769515	-18.8499097	143.1241225	-74
18071	0	0.132446289	-0.351074219	-0.132202148	0.999878883	0.015007019	0.001179695	0.003807068	3.311157227	-8.776855469	-3.305053711	0.750381107	0.058987127	0.190361043	-0.753417969	0.751464844	-0.19921875	889.56	-108.6572812	-18.49268218	142.8579955	-74
18072	0	0.131837845	-0.373022079	-0.130473137	0.999844551	0.016699791	0.00050354	0.005506516	3.295946121	-9.325551987	-3.261828423	0.835032619	0.025178301	0.275339977	-0.748291016	0.753173828	-0.225830078	889.44	-106.6553529	-17.91739202	142.6233263	-75
18073	0	0.119506836	-0.373657227	-0.12109375	0.999833107	0.017471313	0.001076698	0.005214691	2.987670898	-9.341430664	-3.02734375	0.873614251	0.053837909	0.260749057	-0.740966797	0.755126953	-0.246582031	889.44	-104.5576526	-17.38308023	142.3651489	-74
18074	0	0.121614456	-0.373240471	-0.103540421	0.999802589	0.019012451	0.000761032	0.005612373	3.040361404	-9.331011772	-2.588510513	0.950684923	0.038054102	0.280637077	-0.730712891	0.752197266	-0.278808594	889.44	-102.3008008	-16.78571138	142.1478437	-72
18075	0	0.117736816	-0.381469727	-0.102905273	0.999720573	0.022708893	0.00142765	0.006282806	2.94342041	-9.536743164	-2.572631836	1.135550114	0.071389153	0.314169501	-0.722900391	0.749511719	-0.308105469	889.48	-99.60549638	-16.11761358	141.8792022	-71
18076	0	0.113341331	-0.372768402	-0.080945015	0.999645233	0.025547028	0.001130104	0.007437706	2.833533287	-9.319210052	-2.023625374	1.277502421	0.056511885	0.371929273	-0.712646484	0.744628906	-0.340087891	889.48	-96.60379114	-15.29961324	141.6767898	-72
18077	0	0.112792969	-0.38684082	-0.070983887	0.999565125	0.028256416	-3.05176E-05	0.008403778	2.819824219	-9.671020508	-1.774597168	1.413025531	-0.0015261	0.420249788	-0.702148438	0.737304688	-0.377685547	889.48	-93.34157842	-14.34736284	141.6573242	-72
18078	0	0.103424072	-0.396327019	-0.055822372	0.999466896	0.031429291	-0.000246048	0.008749008	2.585601807	-9.908175468	-1.395559311	1.571743452	-0.012304582	0.43752805	-0.688964844	0.727539063	-0.418212891	889.4	-89.73881846	-13.35144215	141.7260399	-71
18079	0	0.104125977	-0.411560059	-0.041870117	0.999342918	0.035114288	0.000367165	0.008907318	2.603149414	-10.28900146	-1.04675293	1.756098703	0.018362249	0.445463386	-0.677978516	0.711181641	-0.466796875	889.5	-85.71516006	-12.3366442	141.7958977	-72
18080	0	0.096679688	-0.407707214	-0.022699356	0.999199867	0.038847923	0.001585007	0.009374619	2.416992188	-10.19268036	-0.567483902	1.942914366	0.079271478	0.468855977	-0.664306641	0.692626953	-0.509277344	889.48	-81.2541153	-11.25513141	141.8313337	-74
18081	0	0.085327148	-0.406494141	-0.007873535	0.998985291	0.043980598	0.003097534	0.009170532	2.133178711	-10.16235352	-0.196838379	2.199773869	0.154929105	0.458681734	-0.652587891	0.662841797	-0.568359375	889.42	-76.1931412	-10.16089666	141.792467	-71
18082	0	0.073396683	-0.402759552	0.005004883	0.998737335	0.049239159	0.003939629	0.009109497	1.834917068	-10.0689888	0.12512207	2.462994361	0.197064355	0.455666598	-0.638183594	0.626220703	-0.624267578	889.34	-70.53774951	-9.036217779	141.7870472	-73
18083	0	0.085449219	-0.412658691	-0.000244141	0.998355865	0.056508064	0.004119873	0.008605957	2.136230469	-10.31646729	-0.006103516	2.826952034	0.206106573	0.430533731	-0.622802734	0.572021484	-0.687255859	889.5	-64.06942258	-7.948763607	141.8782981	-73
18084	0	0.088418961	-0.415654182	0.024900436	0.997821808	0.065174103	0.005412102	0.008631706	2.210474014	-10.39135456	0.62251091	3.261073134	0.270801727	0.431898931	-0.606445313	0.501953125	-0.754638672	889.4	-56.61565009	-6.786809582	141.9959959	-78
18085	0	0.085510254	-0.436096191	0.002685547	0.997216225	0.073482513	0.007050514	0.010505676	2.137756348	-10.90240479	0.067138672	3.67753876	0.352853191	0.525771777	-0.594482422	0.411865234	-0.817382813	889.34	-48.23507984	-5.344346295	142.3028347	-79
18086	0	0.08465004	-0.392428398	-0.025510788	0.996099472	0.087088585	0.008849144	0.011059761	2.116250992	-9.810709953	-0.637769699	4.360099037	0.443033311	0.553708084	-0.576904297	0.308349609	-0.882080078	889.34	-38.31143761	-3.741756396	142.8071765	-76
18087	0	0.073486328	-0.335632324	-0.078979492	0.994351387	0.105289459	0.009774208	0.009117126	1.837158203	-8.390808105	-1.974487305	5.274407034	0.489632601	0.456716525	-0.560302734	0.162841797	-0.928955078	889.38	-26.3035272	-2.240810958	143.4656671	-81
18088	0	0.069473267	-0.310213089	-0.10444355	0.991943359	0.124494553	0.016545296	0.016582489	1.736831665	-7.755327225	-2.611088753	6.241497696	0.829493523	0.831358198	-0.542480469	-0.018310547	-0.955322266	889.4	-12.09813619	0.172418629	145.1637277	-80
18089	0	0.0390625	-0.280761719	-0.152709961	0.989756584	0.137462616	0.020897865	0.03237915	0.9765625	-7.019042969	-3.817749023	6.896694555	1.048475564	1.624507933	-0.516845703	-0.226074219	-0.951171875	889.38	3.714337992	2.837093618	149.3563861	-72
18090	0	0.09465313	-0.045990944	-0.15196991	0.986617088	0.155473709	0.01795578	0.045718193	2.366328239	-1.149773598	-3.799247742	7.808547581	0.901815256	2.296161118	-0.514404297	-0.423583984	-0.882568359	889.48	21.85003189	3.696767228	155.8361191	-83
18091	0	0.174316406	0.194763184	0.073852539	0.988089561	0.143798828	0.011612892	0.053520203	4.357910156	4.86907959	1.846313477	7.218621203	0.582960728	2.686684409	-0.547119141	-0.604003906	-0.746826172	889.44	38.61434394	1.769895083	162.753302	-72
18092	0	-0.005020142	1.027766228	0.476772308	0.990283012	0.138112068	0.006948471	0.014653206	-0.12550354	25.69415569	11.91930771	6.928056039	0.348553154	0.735042439	-0.602294922	-0.718994141	-0.580566406	889.44	54.48524209	1.118866438	165.587564	-72
18093	0	-0.126464844	0.894042969	0.161315918	0.993667603	0.111699104	0.010627747	0.005809784	-3.161621094	22.35107422	4.032897949	5.596772649	0.532511713	0.291103855	-0.61328125	-0.815185547	-0.406738281	889.48	67.30731338	1.15764413	167.7076591	-65
18094	0	0.044200897	0.510752678	-0.109524727	0.993961334	0.107445717	0.01315403	0.017974854	1.10502243	12.76881695	-2.738118172	5.383125699	0.65902856	0.900556101	-0.626220703	-0.857910156	-0.248779297	889.48	79.64159434	-0.363043184	170.024876	-64
18095	0	0.098815918	0.457397461	-0.299987793	0.995038986	0.09865284	0.003925323	0.012180328	2.470397949	11.43493652	-7.499694824	4.940814124	0.196591338	0.610025405	-0.652832031	-0.858154297	-0.09375	889.48	90.95528585	-1.697298755	170.6749267	-62
18096	0	-0.022951126	0.317376137	-0.275351524	0.995599747	0.093200684	-0.007275581	0.006424904	-0.573778152	7.934403419	-6.883788109	4.666880902	-0.364313548	0.321717181	-0.673339844	-0.838378906	0.071044922	889.4	101.6958483	-2.317071458	169.7976697	-61
18097	0	0.024353027	0.420959473	-0.282226563	0.995791435	0.089485168	-0.016428947	0.011024475	0.608825684	10.52398682	-7.055664063	4.480545464	-0.822601636	0.551998311	-0.682617188	-0.799072266	0.227783203	889.56	112.0872343	-2.960749886	167.6493973	-63
18098	0	0.041355133	0.440667152	-0.378558159	0.995877266	0.088977814	0.011680603	0.013187408	1.033878326	11.01667881	-9.463953972	4.455013847	0.584833972	0.660277937	-0.697753906	-0.724121094	0.370117188	889.48	122.293745	-4.901309058	168.163637	-65
18099	0	0.042419434	0.358703613	-0.315795898	0.997825623	0.063416481	0.012504578	0.012874603	1.06048584	8.967590332	-7.894897461	3.173124105	0.625682411	0.644197113	-0.729003906	-0.640136719	0.451904297	889.54	129.5684648	-6.924435762	168.4709988	-66
18100	0	0.054116249	0.349372864	-0.326187134	0.997873306	0.062927246	0.012722969	0.011208534	1.352906227	8.734321594	-8.154678345	3.148593853	0.636599639	0.560824193	-0.757324219	-0.55859375	0.504638672	889.6	136.7919531	-8.848633417	168.6693329	-69
18101	0	0.074035645	0.301513672	-0.353149414	0.998467445	0.054790497	0.000851631	0.007694244	1.850891113	7.537841797	-8.828735352	2.740924808	0.042603318	0.384908817	-0.782958984	-0.479492188	0.545654297	889.6	143.2047989	-9.482201376	168.0615494	-70
18102	0	0.068270683	0.249245644	-0.385549545	0.998884201	0.046652794	-0.002316475	0.006853104	1.706767082	6.23114109	-9.638738632	2.333507068	-0.115866814	0.342782596	-0.786865234	-0.407714844	0.592041016	889.56	148.7205079	-9.694937403	167.2624021	-71
18103	0	0.069274902	0.19909668	-0.391662598	0.999283791	0.037128448	-0.002078056	0.006904602	1.731872559	4.977416992	-9.791564941	1.856865316	-0.103927605	0.345312465	-0.787841797	-0.343017578	0.624511719	889.56	153.1485076	-9.865184369	166.4538901	-71
18104	0	0.060268402	0.186447144	-0.390130043	0.999535561	0.0297575	0.001115799	0.006339073	1.506710052	4.661178589	-9.753251076	1.488104942	0.05579857	0.317002646	-0.788330078	-0.289306641	0.651855469	889.56	156.6988014	-10.28310322	165.8505817	-70
18105	0	0.069763184	0.149230957	-0.378967285	0.999515533	0.029614449	0.00491333	0.008144379	1.74407959	3.730773926	-9.474182129	1.480961295	0.245706134	0.407284625	-0.800048828	-0.239746094	0.659912109	889.44	160.250195	-11.14423413	165.1875732	-71
18106	0	0.085500717	0.100686073	-0.362635612	0.999550819	0.028493881	0.005727768	0.007266998	2.137517929	2.517151833	-9.065890312	1.424907262	0.286431254	0.363404289	-0.809570313	-0.186035156	0.667724609	889.44	163.6688703	-12.0225572	164.5958529	-72
18107	0	0.09197998	0.085754395	-0.357116699	0.999703407	0.023384094	0.004288673	0.005184174	2.299499512	2.143859863	-8.92791748	1.169320121	0.214454836	0.259234265	-0.818847656	-0.13671875	0.6640625	889.5	166.4788016	-12.64824662	164.1457522	-72
18108	0	0.06713295	0.084620476	-0.392700195	0.999854088	0.016322136	0.003444672	0.003435135	1.678323746	2.115511894	-9.817504883	0.816146257	0.172241909	0.171765049	-0.822753906	-0.103271484	0.664306641	889.44	168.4491224	-13.1163483	163.8467791	-77
18109	0	0.109130859	0.069763184	-0.357421875	0.999860764	0.015007973	0.006072998	0.003845215	2.728271484	1.74407959	-8.935546875	0.750433272	0.303663918	0.192269616	-0.828369141	-0.076416016	0.656738281	889.44	170.2728605	-13.88080936	163.5408934	-76
18110	0	0.082324982	0.035765648	-0.359892845	0.999913216	0.011266708	0.005998611	0.003217697	2.058124542	0.894141197	-8.997321129	0.563351689	0.299939235	0.160889504	-0.839111328	-0.047119141	0.645996094	889.4	171.6600715	-14.61686594	163.2826754	-76
18111	0	0.098693848	0.038085938	-0.360961914	0.999959946	0.008404732	0.002521515	0.001148224	2.467346191	0.952148438	-9.024047852	0.420242073	0.12607739	0.057411943	-0.846679688	-0.029296875	0.636230469	889.34	172.6779756	-14.92099527	163.1945686	-76
18112	0	0.090747833	0.034726143	-0.343809128	0.99996376	0.008150101	0.001933098	-0.001312256	2.268695831	0.868153572	-8.595228195	0.407509918	0.09665605	-0.065613579	-0.849609375	-0.018066406	0.632568359	889.4	173.5950929	-15.12337596	163.3824678	-77
18113	0	0.073669434	0.02545166	-0.346557617	0.999949455	0.009490967	-0.001029015	-0.003017426	1.84173584	0.636291504	-8.66394043	0.474556268	-0.051451589	-0.150873798	-0.847412109	-0.011474609	0.629150391	889.6	174.6236315	-14.97067853	163.7323052	-78
18114	0	0.087450027	0.026908875	-0.334121704	0.999954224	0.008080482	0.002070427	-0.004663467	2.186250687	0.672721863	-8.353042603	0.404030274	0.103522923	-0.23317692	-0.847900391	-0.004638672	0.634277344	889.54	175.4303044	-15.16147468	164.31059	-79
18115	0	0.112426758	0.021606445	-0.378295898	0.999985695	-0.004608154	0.002099037	-0.001487732	2.810668945	0.540161133	-9.457397461	-0.230408785	0.104952346	-0.074386942	-0.852294922	-0.006835938	0.62890625	889.6	174.8794315	-15.38850539	164.5131843	-78
18116	0	0.095672607	0.016453743	-0.410114288	0.999973297	-0.000709534	-0.007063866	-0.001293182	2.391815186	0.411343575	-10.25285721	-0.035476992	-0.353196349	-0.06465968	-0.854492188	-0.015625	0.629882813	889.48	174.8073784	-14.5701334	164.597724	-76
18117	0	0.111022949	0.02532959	-0.348144531	0.999968529	0.00176239	-0.007342339	-0.002231598	2.77557373	0.633239746	-8.703613281	0.088120417	-0.367120722	-0.111581048	-0.842529297	-0.018066406	0.643798828	889.4	174.9928292	-13.71183181	164.7905964	-76
18118	0	0.095711708	0.030262947	-0.335780144	0.999987602	-0.004764557	-0.000627518	-0.000613213	2.392792702	0.756573677	-8.394503593	-0.238228776	-0.031376008	-0.030660749	-0.833251953	-0.020507813	0.657958984	889.5	174.4593762	-13.63717229	164.8626323	-75
18119	0	0.092651367	0.035461426	-0.366271973	0.999980927	-0.006007195	0.000595093	-0.000541687	2.31628418	0.886535645	-9.156799316	-0.300361565	0.029754821	-0.027084516	-0.835205078	-0.029541016	0.656005859	889.44	173.7813351	-13.70230834	164.9409474	-75
18120	0	0.089044571	0.03585434	-0.385112762	0.999994278	-0.00328064	-0.000142097	-7.53403E-05	2.226114273	0.89635849	-9.627819061	-0.164032277	-0.007104886	-0.00376702	-0.839599609	-0.038330078	0.651123047	889.44	173.4302378	-13.68864255	164.9563977	-75
18121	0	0.087768555	0.038269043	-0.373168945	0.999999046	-0.000530243	8.10623E-05	0.000175476	2.194213867	0.956726074	-9.329223633	-0.026512147	0.004053116	0.008773804	-0.834716797	-0.04296875	0.654296875	889.44	173.3999546	-13.70361052	164.9455473	-76
18122	0	0.085152626	0.036115646	-0.357980728	0.999999046	-4.95911E-05	0.000276566	7.62939E-05	2.128815651	0.902891159	-8.949518204	-0.002479553	0.013828278	0.003814697	-0.837158203	-0.040527344	0.651123047	889.5	173.4208097	-13.73958102	164.9486597	-75
18123	0	0.08984375	0.037841797	-0.367675781	0.999999046	0.000732422	-0.000376701	0.000152588	2.24609375	0.946044922	-9.191894531	0.036621098	-0.01883507	0.007629395	-0.834472656	-0.04296875	0.651367188	889.5	173.5349059	-13.70232758	164.9344237	-75
18124	0	0.089024544	0.03507328	-0.371212959	0.999998093	0.001411438	-0.000861168	0.000408173	2.225613594	0.876832008	-9.280323982	0.070571934	-0.043058416	0.02040864	-0.834716797	-0.040527344	0.654052734	889.48	173.734897	-13.61318626	164.883939	-75
18125	0	0.089782715	0.033569336	-0.369812012	0.999999046	0.001270294	-0.00039959	0.000240326	2.244567871	0.839233398	-9.245300293	0.063514729	-0.019979483	0.0120163	-0.834960938	-0.036132813	0.653564453	889.48	173.9121591	-13.57456173	164.8591237	-75
18126	0	0.090360641	0.032354355	-0.364902496	0.999999046	0.000480652	0.000217438	0.000178337	2.259016037	0.808858871	-9.122562408	0.024032594	0.010871888	0.008916855	-0.834960938	-0.036132813	0.656494141	889.5	173.9949708	-13.60570888	164.8495072	-76
18127	0	0.090637207	0.031921387	-0.364624023	0.999999046	-8.7738E-05	0.000172615	0.000156403	2.265930176	0.798034668	-9.115600586	-0.004386902	0.008630753	0.007820129	-0.834960938	-0.036132813	0.653564453	889.5	174.0117569	-13.63173526	164.8420051	-76
18128	0	0.091018677	0.033605576	-0.369592667	0.999999046	5.62668E-05	-0.000272751	4.86374E-05	2.275466919	0.840139389	-9.239816666	0.002813339	-0.013637543	0.00243187	-0.834716797	-0.038574219	0.647949219	889.44	174.0428735	-13.60591608	164.8420608	-76
18129	0	0.089599609	0.03338623	-0.367675781	0.999999046	0.000305176	-0.000338554	2.67029E-05	2.239990234	0.834655762	-9.191894531	0.01525879	-0.01692772	0.001335144	-0.834960938	-0.033935547	0.653564453	889.44	174.1016061	-13.57249976	164.843379	-77
18130	0	0.08831501	0.033158302	-0.365254402	0.999999046	-8.01086E-05	-4.57764E-05	3.43323E-05	2.207875252	0.828957558	-9.131360054	-0.004005432	-0.002288818	0.001716614	-0.834960938	-0.033935547	0.656494141	889.54	174.1150708	-13.57268058	164.8475966	-77
18131	0	0.088378906	0.033813477	-0.366394043	0.999999046	-0.00025177	-4.48227E-05	3.05176E-05	2.209472656	0.845336914	-9.159851074	-0.012588501	-0.002241135	0.001525879	-0.832763672	-0.033935547	0.65625	889.56	174.1082448	-13.5730425	164.8524111	-76
18132	0	0.089811325	0.035153389	-0.369986534	0.999999046	-6.58035E-05	-0.00028038	9.05991E-05	2.245283127	0.878834724	-9.249663353	-0.003290176	-0.014019013	0.004529953	-0.832519531	-0.036376953	0.653564453	889.6	174.1245042	-13.54739833	164.8477887	-76
18133	0	0.088378906	0.034606934	-0.367492676	0.999999046	0.000213623	-0.000311852	0.000171661	2.209472656	0.86517334	-9.187316895	0.010681153	-0.015592576	0.008583069	-0.832519531	-0.034179688	0.650390625	889.5	174.1745659	-13.51921223	164.8331981	-77
18134	0	0.088648796	0.033503532	-0.367197037	0.999999046	8.96454E-05	-0.00037384	0.000118256	2.216219902	0.83758831	-9.179925919	0.004482269	-0.018692017	0.005912781	-0.832519531	-0.036376953	0.653564453	889.48	174.2086483	-13.48345361	164.8244509	-77
18135	0	0.089538574	0.033081055	-0.368530273	0.999999046	8.7738E-05	-0.000128746	2.28882E-05	2.238464355	0.827026367	-9.213256836	0.004386902	-0.006437302	0.001144409	-0.834960938	-0.036132813	0.659423828	889.5	174.2387806	-13.47469827	164.8297548	-77
18136	0	0.089688301	0.03301239	-0.367278099	0.999999046	-2.86102E-06	0	8.01086E-05	2.242207527	0.825309753	-9.181952477	-0.000143051	0	0.004005432	-0.832519531	-0.034179688	0.650390625	889.56	174.2592994	-13.48146759	164.8298485	-77
18137	0	0.089416504	0.03338623	-0.367797852	0.999999046	-0.000110626	-3.71933E-05	0.00019455	2.235412598	0.834655762	-9.194946289	-0.005531311	-0.001859665	0.009727478	-0.832519531	-0.036376953	0.653564453	889.5	174.2702483	-13.48546102	164.8163737	-77
18138	0	0.089279175	0.033859253	-0.366577148	1	7.53403E-05	-2.00272E-05	-9.53674E-07	2.23197937	0.846481323	-9.164428711	0.003767014	-0.001001358	-4.76837E-05	-0.832519531	-0.036376953	0.647705078	889.4	174.29664	-13.4893347	164.8261154	-77
18139	0	0.088806152	0.034301758	-0.368408203	0.999999046	2.67029E-05	6.96182E-05	7.62939E-05	2.220153809	0.857543945	-9.210205078	0.001335144	0.003480911	0.003814697	-0.832519531	-0.034179688	0.650390625	889.5	174.3188402	-13.50442339	164.8276407	-77
18140	0	0.088861465	0.034085274	-0.368459702	0.999999046	2.19345E-05	2.86102E-05	9.82285E-05	2.221536636	0.852131844	-9.211492538	0.001096725	0.001430511	0.004911423	-0.834960938	-0.036132813	0.650634766	889.54	174.3407398	-13.51518744	164.8264998	-77
18141	0	0.088806152	0.033203125	-0.367736816	0.999999046	1.14441E-05	-8.67844E-05	1.52588E-05	2.220153809	0.830078125	-9.19342041	0.000572205	-0.004339218	0.000762939	-0.832519531	-0.036376953	0.650634766	889.5	174.359055	-13.51195876	164.8337264	-78
18142	0	0.089108467	0.033435822	-0.367631912	0.999999046	0.000144958	-0.000188828	5.24521E-05	2.227711678	0.835895538	-9.190797806	0.007247925	-0.009441376	0.002622604	-0.832763672	-0.033935547	0.65625	889.4	174.3935342	-13.49763219	164.8352285	-77
18143	0	0.089355469	0.033081055	-0.367675781	0.999999046	0.000118256	-6.00815E-05	-7.62939E-06	2.233886719	0.827026367	-9.191894531	0.005912781	-0.003004074	-0.00038147	-0.834960938	-0.033935547	0.656494141	889.44	174.4225525	-13.49745118	164.8455154	-77
18144	0	0.089492798	0.033117294	-0.36787796	0.999999046	5.81741E-05	4.19617E-05	9.44138E-05	2.237319946	0.827932358	-9.196949005	0.002908707	0.002098084	0.004720688	-0.834960938	-0.036132813	0.653564453	889.56	174.4467981	-13.51017925	164.8453389	-77
18145	0	0.088867188	0.03302002	-0.367126465	0.999999046	4.19617E-05	6.58035E-05	0.000102997	2.221679688	0.825500488	-9.178161621	0.002098084	0.003290176	0.005149841	-0.834960938	-0.033935547	0.650634766	889.54	174.4689514	-13.52582173	164.8442374	-77
18146	0	0.088737488	0.032848358	-0.367239952	0.999999046	6.10352E-05	0.000135422	0.00014019	2.218437195	0.821208954	-9.180998802	0.003051758	0.006771088	0.007009506	-0.832519531	-0.036132813	0.656494141	889.48	174.4937347	-13.54989771	164.8397439	-77
18147	0	0.090026855	0.032531738	-0.366516113	0.999999046	-7.62939E-06	-5.62668E-05	0.000156403	2.250671387	0.813293457	-9.162902832	-0.00038147	-0.002813339	0.007820129	-0.834960938	-0.033935547	0.650634766	889.5	174.511227	-13.55242987	164.8311442	-77
18148	0	0.090238571	0.033668518	-0.368723869	0.999999046	-8.58307E-06	-3.8147E-05	7.15256E-05	2.255964279	0.841712952	-9.218096733	-0.000429153	-0.001907349	0.003576279	-0.832519531	-0.036376953	0.653564453	889.48	174.5258058	-13.55622087	164.8329402	-77
18149	0	0.089233398	0.032592773	-0.366638184	0.999999046	-4.19617E-05	3.14713E-05	0.000164032	2.230834961	0.814819336	-9.16595459	-0.002098084	0.001573563	0.008201599	-0.832519531	-0.036376953	0.650634766	889.48	174.5385503	-13.56905851	164.8247061	-78
18150	0	0.089448929	0.033143044	-0.366203308	0.999999046	3.24249E-05	-8.58307E-05	7.15256E-05	2.236223221	0.828576088	-9.155082703	0.001621246	-0.004291534	0.003576279	-0.834960938	-0.036132813	0.653564453	889.54	174.557185	-13.56760913	164.8260239	-78
18151	0	0.090148926	0.033325195	-0.366943359	0.999999046	4.95911E-05	-4.86374E-05	0.000141144	2.253723145	0.833129883	-9.173583984	0.002479553	-0.00243187	0.00705719	-0.834960938	-0.033935547	0.653564453	889.44	174.5792073	-13.57128507	164.8194865	-79
18152	0	0.090304375	0.033750534	-0.368421555	0.999999046	-4.29153E-05	-6.86646E-05	0.00019455	2.257609367	0.843763351	-9.210538864	-0.002145767	-0.003433228	0.009727478	-0.834960938	-0.033935547	0.653564453	889.5	174.591743	-13.57336171	164.8066383	-79
18153	0	0.089660645	0.033203125	-0.365905762	0.999999046	-1.52588E-05	-0.000102043	0.000125885	2.241516113	0.830078125	-9.147644043	-0.000762939	-0.005102158	0.006294251	-0.834960938	-0.036132813	0.650634766	889.46	174.6052571	-13.57099169	164.8018025	-77
18154	0	0.089592934	0.033679962	-0.36720562	0.999999046	2.28882E-05	2.47955E-05	6.77109E-05	2.239823341	0.841999054	-9.180140495	0.001144409	0.001239777	0.003385544	-0.834960938	-0.033935547	0.650634766	889.44	174.6208092	-13.58255051	164.804984	-77
18155	0	0.089538574	0.032775879	-0.367614746	0.999999046	6.48499E-05	8.58307E-06	6.86646E-05	2.238464355	0.819396973	-9.190368652	0.003242493	0.000429153	0.003433228	-0.832519531	-0.033935547	0.653320313	889.54	174.6408923	-13.59234426	164.8079292	-77
18156	0	0.089731216	0.033204079	-0.365787506	0.999999046	-2.76566E-05	-2.28882E-05	8.39233E-05	2.243280411	0.830101967	-9.144687653	-0.001382828	-0.001144409	0.004196167	-0.834960938	-0.033935547	0.653564453	889.4	174.6505036	-13.59881055	164.8088946	-77
18157	0	0.090087891	0.032470703	-0.367797852	0.999999046	9.53674E-05	-9.44138E-05	0.000183105	2.252197266	0.811767578	-9.194946289	0.004768372	-0.004720688	0.009155274	-0.834960938	-0.033935547	0.647705078	889.5	174.6768148	-13.59825979	164.7975911	-77
18158	0	0.090150833	0.032610893	-0.367760658	0.999999046	8.58307E-05	-5.14984E-05	7.15256E-05	2.253770828	0.815272331	-9.194016457	0.004291534	-0.002574921	0.003576279	-0.834960938	-0.033935547	0.647705078	889.5	174.6985152	-13.60150503	164.7998782	-77
18159	0	0.089172363	0.032348633	-0.367797852	0.999999046	0.000114441	-2.19345E-05	0.000106812	2.229309082	0.80871582	-9.194946289	0.005722046	-0.001096725	0.005340576	-0.834960938	-0.031738281	0.647460938	889.5	174.7240792	-13.60853415	164.7982187	-77
18160	0	0.090565681	0.032793999	-0.368115425	0.999999046	-5.43594E-05	-6.48499E-05	0.000106812	2.264142036	0.819849968	-9.202885628	-0.002717972	-0.003242493	0.005340576	-0.837158203	-0.033935547	0.647705078	889.48	174.7300765	-13.61076388	164.7964392	-78
18161	0	0.090209961	0.032836914	-0.367370605	0.999999046	7.24792E-05	-0.000155449	9.53674E-05	2.255249023	0.820922852	-9.184265137	0.003623962	-0.007772446	0.004768372	-0.837402344	-0.033935547	0.656494141	889.4	174.7501884	-13.60261951	164.7949306	-78
18162	0	0.089428902	0.032094955	-0.36783123	0.999999046	4.19617E-05	-9.53674E-05	0.000117302	2.235722542	0.802373886	-9.195780754	0.002098084	-0.004768372	0.005865097	-0.834960938	-0.033935547	0.653564453	889.56	174.7669646	-13.60160241	164.791572	-78
18163	0	0.090393066	0.03326416	-0.367797852	0.999999046	-9.53674E-05	-0.000124931	9.53674E-05	2.25982666	0.831604004	-9.194946289	-0.004768372	-0.006246567	0.004768372	-0.837158203	-0.033935547	0.647705078	889.48	174.7671237	-13.59707046	164.7906288	-78
18164	0	0.089818001	0.03246212	-0.367570877	0.999999046	-3.33786E-05	4.76837E-05	0.000118256	2.24545002	0.811553001	-9.189271927	-0.00166893	0.002384186	0.005912781	-0.834960938	-0.033935547	0.653564453	889.44	174.7742812	-13.6125367	164.7887655	-77
18165	0	0.090026855	0.032653809	-0.366271973	0.999999046	-2.28882E-05	-4.1008E-05	0.000118256	2.250671387	0.816345215	-9.156799316	-0.001144409	-0.0020504	0.005912781	-0.834960938	-0.036132813	0.653564453	889.48	174.7825559	-13.61796264	164.7862162	-77
18166	0	0.089148521	0.032221794	-0.366156578	0.999999046	1.33514E-05	-0.000143051	0.000102043	2.228713036	0.805544853	-9.153914452	0.000667572	-0.007152557	0.005102158	-0.834960938	-0.033935547	0.650634766	889.48	174.7945083	-13.61160921	164.7843116	-77
18167	0	0.089782715	0.03314209	-0.367431641	0.999999046	6.86646E-05	1.23978E-05	0.00012207	2.244567871	0.828552246	-9.185791016	0.003433228	0.000619888	0.006103516	-0.834960938	-0.033935547	0.656494141	889.5	174.8126397	-13.62325478	164.781769	-77
18168	0	0.090226173	0.033373833	-0.367190361	0.999999046	-2.76566E-05	-0.000156403	9.15527E-05	2.255654335	0.834345818	-9.179759026	-0.001382828	-0.007820129	0.004577637	-0.834960938	-0.031738281	0.647460938	889.54	174.8189814	-13.61539106	164.7810462	-77
18169	0	0.090209961	0.032043457	-0.365356445	0.999999046	3.05176E-05	-0.000155449	9.53674E-05	2.255249023	0.801086426	-9.133911133	0.001525879	-0.007772446	0.004768372	-0.834960938	-0.036132813	0.653564453	889.44	174.8318281	-13.60776982	164.7802945	-78
18170	0	0.090222359	0.032430649	-0.367828369	0.999999046	-6.10352E-05	-0.000114441	7.62939E-05	2.255558968	0.81076622	-9.195709229	-0.003051758	-0.005722046	0.003814697	-0.834960938	-0.033935547	0.653564453	889.56	174.8332818	-13.60469584	164.7819576	-78
18171	0	0.08984375	0.032714844	-0.366333008	0.999999046	2.67029E-05	5.05447E-05	8.39233E-05	2.24609375	0.817871094	-9.158325195	0.001335144	0.002527237	0.004196167	-0.834960938	-0.031738281	0.650390625	889.44	174.8443019	-13.6205931	164.784434	-77
18172	0	0.089335442	0.032130241	-0.366570473	0.999999046	5.62668E-05	-5.53131E-05	8.01086E-05	2.23338604	0.803256035	-9.164261818	0.002813339	-0.002765656	0.004005432	-0.834960938	-0.031738281	0.650390625	889.5	174.8586179	-13.62439937	164.7863861	-77
18173	0	0.08984375	0.032165527	-0.367431641	0.999999046	-1.90735E-05	-9.82285E-05	0.000156403	2.24609375	0.804138184	-9.185791016	-0.000953674	-0.004911423	0.007820129	-0.834960938	-0.033935547	0.647705078	889.56	174.8662718	-13.62413216	164.7792212	-75
18174	0	0.090391159	0.032699585	-0.367143631	0.999999046	2.67029E-05	2.47955E-05	0.000102043	2.259778976	0.817489624	-9.178590775	0.001335144	0.001239777	0.005102158	-0.834960938	-0.033935547	0.650634766	889.48	174.8770897	-13.63741711	164.7796583	-76
18175	0	0.089782715	0.032592773	-0.367370605	0.999999046	8.01086E-05	-3.33786E-05	0.000106812	2.244567871	0.814819336	-9.184265137	0.004005432	-0.00166893	0.005340576	-0.834960938	-0.033935547	0.650634766	889.56	174.8940425	-13.64414229	164.7789532	-77
18176	0	0.089580536	0.033369064	-0.368115425	0.999999046	2.57492E-05	-0.000156403	8.01086E-05	2.239513397	0.834226608	-9.202885628	0.00128746	-0.007820129	0.004005432	-0.834960938	-0.031738281	0.650390625	889.5	174.9040327	-13.63656177	164.7799697	-76
18177	0	0.089782715	0.032897949	-0.366882324	0.999999046	3.8147E-05	-0.000105858	0.00012207	2.244567871	0.82244873	-9.172058105	0.001907349	-0.005292892	0.006103516	-0.834960938	-0.033935547	0.650634766	889.48	174.916207	-13.63521352	164.7769093	-76
18178	0	0.089773178	0.032725334	-0.366904259	0.999999046	-9.72748E-05	-8.39233E-05	7.62939E-05	2.244329453	0.818133354	-9.172606468	-0.004863739	-0.004196167	0.003814697	-0.834960938	-0.033935547	0.653564453	889.44	174.9112791	-13.63593771	164.7794001	-76
18179	0	0.090087891	0.032653809	-0.36730957	0.999999046	9.91821E-05	-8.29697E-05	4.57764E-05	2.252197266	0.816345215	-9.182739258	0.004959106	-0.004148483	0.002288818	-0.832519531	-0.033935547	0.653320313	889.56	174.9277683	-13.63650577	164.7855046	-79
18180	0	0.090028763	0.032205582	-0.369223595	0.999999046	-5.62668E-05	0.00012207	1.81198E-05	2.25071907	0.805139542	-9.230589867	-0.002813339	0.006103516	0.000905991	-0.834960938	-0.033935547	0.650634766	889.54	174.9249575	-13.66021702	164.7970884	-78
18181	0	0.08972168	0.032470703	-0.365722656	0.999999046	-2.28882E-05	-2.57492E-05	9.53674E-05	2.243041992	0.811767578	-9.143066406	-0.001144409	-0.00128746	0.004768372	-0.832519531	-0.033935547	0.653320313	889.5	174.9282379	-13.66787401	164.7980216	-79
18182	0	0.089585304	0.03283596	-0.366458893	0.999999046	-7.82013E-05	-5.34058E-05	3.43323E-05	2.239632607	0.82089901	-9.161472321	-0.003910065	-0.002670288	0.001716614	-0.837402344	-0.033935547	0.653564453	889.54	174.9233054	-13.67177232	164.8059627	-79
18183	0	0.089416504	0.032836914	-0.367980957	0.999999046	-1.52588E-05	-0.000113487	5.34058E-05	2.235412598	0.820922852	-9.199523926	-0.000762939	-0.005674362	0.002670288	-0.834960938	-0.033935547	0.647705078	889.4	174.9260296	-13.66899392	164.8110885	-79
18184	0	0.089640617	0.032471657	-0.36641407	0.999999046	-2.38419E-05	-0.000175476	6.67572E-06	2.241015434	0.81179142	-9.160351753	-0.001192093	-0.008773804	0.000333786	-0.832519531	-0.034179688	0.650390625	889.44	174.9264103	-13.65868568	164.8210304	-79
18185	0	0.089904785	0.031860352	-0.366943359	0.999999046	-5.34058E-05	-0.000166893	2.28882E-05	2.247619629	0.796508789	-9.173583984	-0.002670288	-0.00834465	0.001144409	-0.834960938	-0.033935547	0.650634766	889.48	174.9236573	-13.64955132	164.8292157	-79
18186	0	0.08984375	0.032138824	-0.365994453	0.999999046	-4.19617E-05	-7.43866E-05	4.19617E-05	2.24609375	0.803470612	-9.149861336	-0.002098083	-0.00371933	0.002098083	-0.834960938	-0.033935547	0.647705078	889.6	174.9223278	-13.65120887	164.8361931	-79
18188	0	0.089700699	0.032560349	-0.366402626	0.999999046	5.24521E-05	-5.14984E-05	2.19345E-05	2.242517471	0.814008713	-9.160065651	0.002622604	-0.002574921	0.001096725	-0.834960938	-0.033935547	0.647705078	889.5	174.9310011	-13.65530245	164.8457904	-81
18189	0	0.089660645	0.032714844	-0.366638184	0.999999046	7.62939E-06	-0.000144005	8.39233E-05	2.241516113	0.817871094	-9.16595459	0.00038147	-0.007200241	0.004196167	-0.832763672	-0.033935547	0.65625	889.54	174.9362754	-13.64948362	164.8470672	-80
18190	0	0.089497566	0.032083511	-0.367397308	0.999999046	-1.71661E-05	-0.000171661	9.53674E-05	2.237439156	0.802087784	-9.184932709	-0.000858307	-0.008583069	0.004768372	-0.834960938	-0.033935547	0.653564453	889.48	174.9389251	-13.64062736	164.846873	-79
18191	0	0.089477539	0.032226563	-0.367004395	0.999999046	3.05176E-05	-0.000121117	0.000209808	2.236938477	0.805664063	-9.175109863	0.001525879	-0.006055832	0.010490418	-0.834960938	-0.033935547	0.647705078	889.46	174.9499107	-13.63870506	164.8338729	-79
18192	0	0.089584351	0.032349586	-0.366662979	0.999999046	-1.23978E-05	-4.19617E-05	5.34058E-05	2.239608765	0.808739662	-9.166574478	-0.000619888	-0.002098083	0.002670288	-0.832763672	-0.031738281	0.656005859	889.5	174.95127	-13.64425652	164.8397543	-79
18193	0	0.089294434	0.032470703	-0.366638184	0.999999046	-6.10352E-05	-2.57492E-05	2.67029E-05	2.23236084	0.811767578	-9.16595459	-0.003051758	-0.00128746	0.001335144	-0.832519531	-0.034179688	0.650390625	889.48	174.9460932	-13.65139348	164.8493587	-78
18194	0	0.088971138	0.031899452	-0.366211891	0.999999046	4.95911E-05	-0.000104904	0.000155449	2.22427845	0.797486305	-9.155297279	0.002479553	-0.005245209	0.007772446	-0.834960938	-0.033935547	0.653564453	889.66	174.9572066	-13.65078344	164.8429738	-79
18195	0	0.088989258	0.032226563	-0.367004395	0.999999046	3.8147E-06	-0.000208855	4.19617E-05	2.224731445	0.805664063	-9.175109863	0.000190735	-0.010442734	0.002098084	-0.832519531	-0.033935547	0.653320313	889.56	174.9600205	-13.63714496	164.8488143	-80
18196	0	0.090484619	0.033009529	-0.368325233	0.999999046	-6.00815E-05	3.43323E-05	0.000156403	2.262115479	0.825238228	-9.208130836	-0.003004074	0.001716614	0.007820129	-0.834960938	-0.033935547	0.653564453	889.56	174.9578959	-13.652462	164.8438089	-81
18197	0	0.089111328	0.032226563	-0.365722656	0.999999046	-8.01086E-05	2.76566E-05	0.000125885	2.227783203	0.805664063	-9.143066406	-0.004005432	0.001382828	0.006294251	-0.834960938	-0.033935547	0.656494141	889.5	174.9524883	-13.66671033	164.8422975	-81
18198	0	0.08877182	0.031956673	-0.36595726	0.999999046	-7.43866E-05	-0.000167847	7.15256E-05	2.219295502	0.798916817	-9.148931503	-0.00371933	-0.008392334	0.003576279	-0.834960938	-0.033935547	0.656494141	889.5	174.9465693	-13.6580714	164.8451785	-81
18199	0	0.088684082	0.032043457	-0.366210938	0.999999046	7.62939E-05	-0.000170708	6.86646E-05	2.217102051	0.801086426	-9.155273438	0.003814697	-0.008535385	0.003433228	-0.832763672	-0.033935547	0.65625	889.5	174.9577096	-13.64905046	164.8483838	-80
18200	0	0.089416504	0.033317566	-0.368566513	0.999999046	-3.71933E-05	-0.000225067	9.91821E-05	2.235412598	0.832939148	-9.214162827	-0.001859665	-0.011253357	0.004959106	-0.832763672	-0.031738281	0.656005859	889.54	174.9566323	-13.63411555	164.8473242	-81
18201	0	0.08984375	0.032653809	-0.365661621	0.999999046	1.90735E-05	-0.000250816	8.7738E-05	2.24609375	0.816345215	-9.141540527	0.000953674	-0.012540817	0.004386902	-0.832763672	-0.033935547	0.65625	889.5	174.9615851	-13.61617246	164.8476664	-81
18202	0	0.089054108	0.032684326	-0.366684914	0.999999046	-3.43323E-05	-8.7738E-05	0.000152588	2.226352692	0.817108154	-9.167122841	-0.001716614	-0.004386902	0.007629395	-0.834960938	-0.033935547	0.653564453	889.5	174.9616549	-13.61749619	164.8421185	-80
18203	0	0.089233398	0.032958984	-0.366149902	0.999999046	-2.67029E-05	-0.000170708	6.48499E-05	2.230834961	0.823974609	-9.153747559	-0.001335144	-0.008535385	0.003242493	-0.834960938	-0.033935547	0.647705078	889.46	174.9602043	-13.60847942	164.8460482	-79
18204	0	0.089355469	0.032356262	-0.367094994	0.999999046	8.29697E-05	-4.00543E-05	2.86102E-06	2.233886719	0.808906555	-9.17737484	0.004148483	-0.002002716	0.000143051	-0.832519531	-0.036132813	0.656494141	889.44	174.9691592	-13.61376531	164.8586218	-76
18205	0	0.088562012	0.032348633	-0.367675781	0.999999046	-2.67029E-05	-0.000105858	6.86646E-05	2.214050293	0.80871582	-9.191894531	-0.001335144	-0.005292892	0.003433228	-0.832519531	-0.034179688	0.650390625	889.54	174.9673981	-13.61216558	164.862659	-76
18206	0	0.089830399	0.032538414	-0.366656303	0.999999046	-4.76837E-05	-4.19617E-05	3.43323E-05	2.245759964	0.81346035	-9.166407585	-0.002384186	-0.002098083	0.001716614	-0.835205078	-0.031738281	0.65625	889.56	174.9619899	-13.61755318	164.8712155	-76
18207	0	0.088806152	0.031921387	-0.365600586	0.999999046	0	-0.000113487	7.62939E-05	2.220153809	0.798034668	-9.140014648	0	-0.005674362	0.003814697	-0.832763672	-0.033935547	0.65625	889.48	174.9632761	-13.6151984	164.8744186	-75
18208	0	0.088726044	0.032273293	-0.368490219	0.999999046	1.23978E-05	-4.76837E-05	0.000185966	2.218151093	0.806832314	-9.212255478	0.000619888	-0.002384186	0.009298325	-0.832763672	-0.031738281	0.650390625	889.54	174.9687475	-13.62141872	164.8653185	-76
18209	0	0.088867188	0.032409668	-0.367614746	0.999999046	-7.62939E-06	-0.000105858	-2.67029E-05	2.221679688	0.810241699	-9.190368652	-0.00038147	-0.005292892	-0.001335144	-0.832763672	-0.031738281	0.656005859	889.4	174.9660663	-13.61883789	164.8805925	-75
18210	0	0.089030266	0.032297134	-0.366901398	0.999999046	8.39233E-05	-9.15527E-05	5.24521E-05	2.225756645	0.80742836	-9.172534943	0.004196167	-0.004577637	0.002622604	-0.835205078	-0.029541016	0.653076172	889.48	174.9759198	-13.61868233	164.8866962	-76
18211	0	0.089355469	0.032592773	-0.367126465	0.999999046	8.01086E-05	-9.82285E-05	1.52588E-05	2.233886719	0.814819336	-9.178161621	0.004005432	-0.004911423	0.000762939	-0.835205078	-0.031738281	0.65625	889.54	174.9841989	-13.61740276	164.8973612	-77
18212	0	0.090076447	0.033019066	-0.368676186	0.999999046	-6.67572E-06	-3.43323E-05	0.000179291	2.251911163	0.825476646	-9.21690464	-0.000333786	-0.001716614	0.008964539	-0.832763672	-0.033935547	0.65625	889.48	174.9867749	-13.62508704	164.8895562	-79
18213	0	0.089050293	0.032714844	-0.365783691	0.999999046	9.15527E-05	-3.71933E-05	0.000144958	2.226257324	0.817871094	-9.144592285	0.004577637	-0.001859665	0.007247925	-0.832763672	-0.031738281	0.656005859	889.46	174.9995296	-13.63210566	164.8855089	-79
18214	0	0.088420868	0.032133102	-0.366102219	0.999999046	-2.86102E-05	-8.7738E-05	0.000137329	2.210521698	0.80332756	-9.152555466	-0.001430511	-0.004386902	0.006866455	-0.832519531	-0.033935547	0.653320313	889.46	174.9983232	-13.633248	164.882116	-79
18215	0	0.089233398	0.032104492	-0.367553711	0.999999046	1.90735E-05	-3.71933E-05	2.67029E-05	2.230834961	0.802612305	-9.188842773	0.000953674	-0.001859665	0.001335144	-0.832519531	-0.033935547	0.653320313	889.56	174.9993023	-13.63904785	164.8921463	-79
18216	0	0.089511871	0.032329559	-0.366829872	0.999999046	-1.81198E-05	-7.62939E-05	0.000110626	2.237796783	0.808238983	-9.170746803	-0.000905991	-0.003814697	0.005531311	-0.832763672	-0.031738281	0.653076172	889.5	174.9983324	-13.64123534	164.8917239	-79
18217	0	0.089416504	0.032409668	-0.366210938	0.999999046	2.67029E-05	-5.62668E-05	6.86646E-05	2.235412598	0.810241699	-9.155273438	0.001335144	-0.002813339	0.003433228	-0.835205078	-0.031738281	0.653320313	889.54	175.0011788	-13.64530522	164.8965765	-80
18218	0	0.089683533	0.032316208	-0.366223335	0.999999046	-1.33514E-05	-8.7738E-05	0.000125885	2.242088318	0.807905197	-9.155583382	-0.000667572	-0.004386902	0.006294251	-0.832519531	-0.033935547	0.653320313	889.6	175.0009951	-13.64638044	164.8945703	-81
18219	0	0.089660645	0.032531738	-0.367126465	0.999999046	3.8147E-06	-1.43051E-05	8.7738E-05	2.241516113	0.813293457	-9.178161621	0.000190735	-0.000715256	0.004386902	-0.832519531	-0.034179688	0.650390625	889.44	175.0014364	-13.65547043	164.8977949	-80
18220	0	0.088129044	0.031658173	-0.366641998	0.999999046	6.00815E-05	-3.24249E-05	3.33786E-05	2.203226089	0.791454315	-9.166049957	0.003004074	-0.001621246	0.00166893	-0.834960938	-0.033935547	0.656494141	889.44	175.0067999	-13.66189017	164.9071127	-80
18221	0	0.088989258	0.031921387	-0.367431641	0.999999046	8.39233E-05	-0.000105858	-4.95911E-05	2.224731445	0.798034668	-9.185791016	0.004196167	-0.005292892	-0.002479553	-0.830078125	-0.034179688	0.650390625	889.5	175.0127	-13.6590742	164.9254471	-80
18222	0	0.089334488	0.0313797	-0.367334366	0.999999046	7.24792E-05	-9.53674E-05	6.77109E-05	2.233362198	0.784492493	-9.183359146	0.003623962	-0.004768372	0.003385544	-0.832519531	-0.033935547	0.653320313	889.6	175.0204747	-13.65861933	164.9301053	-80
18223	0	0.089477539	0.031921387	-0.367614746	0.999999046	-0.000110626	-6.67572E-06	8.01086E-05	2.236938477	0.798034668	-9.190368652	-0.005531311	-0.000333786	0.004005432	-0.832763672	-0.031738281	0.650390625	889.44	175.0073238	-13.66840888	164.9340695	-80
18224	0	0.08917141	0.032049179	-0.367121696	1	-4.3869E-05	-4.76837E-06	6.00815E-05	2.22928524	0.801229477	-9.178042412	-0.002193451	-0.000238419	0.003004074	-0.834960938	-0.033935547	0.653564453	889.5	175.0011871	-13.67820064	164.9406925	-80
18225	0	0.089599609	0.032104492	-0.36730957	0.999999046	7.62939E-06	-1.43051E-05	0.000102997	2.239990234	0.802612305	-9.182739258	0.00038147	-0.000715256	0.005149841	-0.832763672	-0.031738281	0.650390625	889.54	175.0020934	-13.68733119	164.9419479	-80
18226	0	0.089472771	0.032506943	-0.366153717	0.999999046	4.3869E-05	-0.00015831	0.000124931	2.236819267	0.812673569	-9.153842926	0.002193451	-0.007915497	0.006246567	-0.832519531	-0.034179688	0.650390625	889.5	175.0080158	-13.68024654	164.9394657	-79
18227	0	0.088562012	0.032287598	-0.36932373	0.999999046	3.8147E-06	-7.15256E-05	0.000141144	2.214050293	0.807189941	-9.233093262	0.000190735	-0.003576279	0.00705719	-0.832519531	-0.034179688	0.650390625	889.44	175.0095171	-13.68315372	164.9358981	-80
18228	0	0.090287209	0.03311348	-0.370558739	0.999999046	1.43051E-05	-7.43866E-05	1.43051E-05	2.257180214	0.82783699	-9.263968468	0.000715256	-0.00371933	0.000715256	-0.834960938	-0.031738281	0.650390625	889.56	175.0085953	-13.6844636	164.9470022	-80
18229	0	0.089416504	0.031921387	-0.366882324	0.999999046	-2.28882E-05	6.19888E-05	6.48499E-05	2.235412598	0.798034668	-9.172058105	-0.001144409	0.003099442	0.003242493	-0.834960938	-0.033935547	0.650634766	889.54	175.0044264	-13.70184248	164.9538368	-80
18230	0	0.087573051	0.032109261	-0.366016388	0.999999046	3.62396E-05	4.00543E-05	7.24792E-05	2.189326286	0.802731514	-9.150409698	0.001811981	0.002002716	0.003623962	-0.832763672	-0.031738281	0.653076172	889.5	175.0072272	-13.71670231	164.9592458	-80
18231	0	0.088806152	0.031982422	-0.367492676	0.999999046	-8.01086E-05	-0.000132561	8.39233E-05	2.220153809	0.799560547	-9.187316895	-0.004005432	-0.006628037	0.004196167	-0.832519531	-0.034179688	0.650390625	889.54	174.9973802	-13.71192243	164.9618917	-79
18232	0	0.090055466	0.032513618	-0.368305206	0.999999046	8.10623E-05	-7.82013E-05	0.000136375	2.251386642	0.812840462	-9.207630157	0.004053116	-0.003910065	0.006818771	-0.835205078	-0.031738281	0.653320313	889.58	175.0072564	-13.71387551	164.9586823	-79
18233	0	0.089782715	0.032226563	-0.367248535	0.999999046	3.05176E-05	-0.000102043	0.000102997	2.244567871	0.805664063	-9.181213379	0.001525879	-0.005102158	0.005149841	-0.834960938	-0.033935547	0.653564453	889.5	175.0104043	-13.71277769	164.9594234	-79
18234	0	0.089468956	0.03236866	-0.367574692	0.999999046	7.82013E-05	-7.43866E-05	3.33786E-05	2.2367239	0.809216499	-9.189367294	0.003910065	-0.00371933	0.00166893	-0.835205078	-0.031738281	0.65625	889.54	175.0169388	-13.71412716	164.9683508	-79
18235	0	0.088928223	0.032531738	-0.367248535	0.999999046	0	1.23978E-05	0.000114441	2.223205566	0.813293457	-9.181213379	0	0.000619888	0.005722046	-0.834960938	-0.033935547	0.653564453	889.54	175.0164795	-13.72615323	164.9689622	-79
18236	0	0.088943481	0.031961441	-0.366270065	0.999999046	4.86374E-05	1.71661E-05	9.53674E-05	2.223587036	0.799036026	-9.156751633	0.00243187	0.000858307	0.004768372	-0.832519531	-0.034179688	0.650390625	889.54	175.0209967	-13.73850483	164.9718097	-80
18237	0	0.089538574	0.032531738	-0.366882324	0.999999046	7.62939E-05	-0.000102043	0.000152588	2.238464355	0.813293457	-9.172058105	0.003814697	-0.005102158	0.007629395	-0.832519531	-0.033935547	0.653320313	889.54	175.0304895	-13.73780532	164.9666435	-80
18238	0	0.089532852	0.032264709	-0.367882729	0.999999046	1.71661E-05	-0.000125885	0.000148773	2.238321304	0.806617737	-9.197068214	0.000858307	-0.006294251	0.00743866	-0.832763672	-0.033935547	0.65625	889.56	175.033095	-13.73432309	164.961677	-81
18239	0	0.089599609	0.032226563	-0.36706543	0.999999046	3.8147E-06	-6.00815E-05	0.0001297	2.239990234	0.805664063	-9.176635742	0.000190735	-0.003004074	0.006484985	-0.832763672	-0.031738281	0.653076172	889.5	175.0334148	-13.73815588	164.9594982	-81
18240	0	0.089989662	0.032505035	-0.36762619	0.999999046	1.43051E-05	-8.58307E-05	0.000151634	2.249741554	0.812625885	-9.190654755	0.000715256	-0.004291534	0.007581711	-0.832519531	-0.033935547	0.653320313	889.48	175.035538	-13.73927092	164.9547781	-80
18241	0	0.089599609	0.032592773	-0.366821289	0.999999046	1.90735E-05	-0.000121117	0.000110626	2.239990234	0.814819336	-9.170532227	0.000953674	-0.006055832	0.005531311	-0.832763672	-0.031738281	0.650390625	889.44	175.037067	-13.73594388	164.9543136	-79
18242	0	0.088845253	0.032375336	-0.367272377	0.999999046	-9.91821E-05	-2.28882E-05	0.000106812	2.221131325	0.809383392	-9.181809425	-0.004959106	-0.001144409	0.005340576	-0.832519531	-0.031738281	0.647460938	889.48	175.0246342	-13.74374546	164.9553843	-79
18243	0	0.088928223	0.032653809	-0.367431641	0.999999046	-4.57764E-05	-7.9155E-05	0.000125885	2.223205566	0.816345215	-9.185791016	-0.002288818	-0.003957748	0.006294251	-0.832763672	-0.031738281	0.650390625	889.56	175.0189163	-13.74526598	164.9536344	-76
18244	0	0.089609146	0.032603264	-0.366344452	0.999999046	2.76566E-05	-5.14984E-05	0.000163078	2.240228653	0.815081596	-9.158611298	0.001382828	-0.002574921	0.008153915	-0.837402344	-0.033935547	0.656494141	889.5	175.0225131	-13.75031465	164.9480423	-76
18245	0	0.090026855	0.032470703	-0.368774414	0.999999046	3.8147E-06	-3.71933E-05	4.19617E-05	2.250671387	0.811767578	-9.219360352	0.000190735	-0.001859665	0.002098083	-0.834960938	-0.031738281	0.650390625	889.44	175.0199051	-13.75578131	164.9565627	-75
18246	0	0.089390755	0.032155037	-0.365852356	0.999999046	1.52588E-05	1.90735E-06	8.29697E-05	2.234768867	0.803875923	-9.146308899	0.000762939	9.53674E-05	0.004148483	-0.832763672	-0.031738281	0.656005859	889.54	175.0196102	-13.76611202	164.9606217	-76
18247	0	0.089111328	0.032165527	-0.365905762	0.999999046	7.62939E-05	-0.00014782	0.000102997	2.227783203	0.804138184	-9.147644043	0.003814697	-0.007390976	0.005149841	-0.832519531	-0.034179688	0.650390625	889.44	175.0271878	-13.7595253	164.9611731	-76
18248	0	0.089313507	0.032334328	-0.367769241	0.999999046	-9.44138E-05	-9.53674E-05	0.000125885	2.232837677	0.808358192	-9.194231033	-0.004720688	-0.004768372	0.006294251	-0.832519531	-0.033935547	0.653320313	889.54	175.0156666	-13.75911882	164.9593877	-76
18249	0	0.089294434	0.032043457	-0.367370605	0.999999046	1.14441E-05	-0.000166893	8.7738E-05	2.23236084	0.801086426	-9.184265137	0.000572205	-0.00834465	0.004386902	-0.834960938	-0.033935547	0.650634766	889.44	175.015354	-13.75013809	164.9614122	-76
18250	0	0.089360237	0.031835556	-0.365754128	0.999999046	-8.7738E-05	-0.000160217	8.01086E-05	2.234005928	0.795888901	-9.143853188	-0.004386902	-0.008010864	0.004005432	-0.832763672	-0.031738281	0.653076172	889.54	175.0034206	-13.74183953	164.9640875	-75
18251	0	0.089477539	0.032104492	-0.367553711	0.999999046	4.57764E-05	-2.57492E-05	0.000114441	2.236938477	0.802612305	-9.188842773	0.002288818	-0.00128746	0.005722046	-0.834960938	-0.033935547	0.656494141	889.56	175.0073912	-13.74921836	164.9644425	-75
18252	0	0.089953423	0.032721519	-0.366280556	0.999999046	-9.53674E-07	-4.95911E-05	0.000110626	2.248835564	0.818037987	-9.157013893	-4.76837E-05	-0.002479553	0.005531311	-0.832763672	-0.033935547	0.65625	889.54	175.005893	-13.75385718	164.9649269	-76
18253	0	0.088989258	0.031921387	-0.366699219	0.999999046	7.62939E-06	-6.38962E-05	0.000160217	2.224731445	0.798034668	-9.167480469	0.00038147	-0.003194809	0.008010864	-0.835205078	-0.031738281	0.653320313	889.48	175.0067791	-13.7573235	164.9593219	-76
18254	0	0.089744568	0.032008171	-0.367505074	0.999999046	0.000118256	1.71661E-05	6.67572E-06	2.243614197	0.800204277	-9.187626839	0.005912781	0.000858307	0.000333786	-0.835205078	-0.031738281	0.653320313	889.46	175.0158317	-13.76850669	164.9726565	-77
18255	0	0.089904785	0.031677246	-0.36730957	0.999999046	6.86646E-05	-9.44138E-05	0.000167847	2.247619629	0.791931152	-9.182739258	0.003433228	-0.004720688	0.008392334	-0.834960938	-0.031738281	0.650390625	889.46	175.0239749	-13.76855779	164.9659831	-77
18256	0	0.089661598	0.031657219	-0.368063927	0.999999046	2.86102E-06	-0.000102997	9.15527E-05	2.241539955	0.791430473	-9.201598167	0.000143051	-0.005149841	0.004577637	-0.832763672	-0.031738281	0.653076172	889.36	175.0224594	-13.76684918	164.9681052	-76
18257	0	0.089294434	0.031799316	-0.367431641	0.999999046	3.05176E-05	-2.57492E-05	0.000118256	2.23236084	0.79498291	-9.185791016	0.001525879	-0.00128746	0.005912781	-0.832763672	-0.031738281	0.653076172	889.54	175.0246578	-13.77419439	164.9679176	-76
18258	0	0.089465141	0.031816483	-0.366950989	0.999999046	-4.19617E-05	3.43323E-05	8.67844E-05	2.236628532	0.795412064	-9.173774719	-0.002098083	0.001716614	0.004339218	-0.832763672	-0.031738281	0.653076172	889.54	175.0175053	-13.78806772	164.9720477	-76
18259	0	0.08972168	0.031799316	-0.366638184	0.999999046	4.95911E-05	-4.86374E-05	3.05176E-05	2.243041992	0.79498291	-9.16595459	0.002479553	-0.00243187	0.001525879	-0.832763672	-0.031738281	0.650390625	889.46	175.0194541	-13.79190393	164.9819838	-77
18260	0	0.089442253	0.03169632	-0.367016792	0.999999046	5.05447E-05	-7.62939E-05	0.000110626	2.236056328	0.79240799	-9.175419807	0.002527237	-0.003814697	0.005531311	-0.832763672	-0.031738281	0.656005859	889.5	175.0238157	-13.79335502	164.982151	-78
18261	0	0.08972168	0.031494141	-0.366577148	0.999999046	-8.01086E-05	-0.000189781	8.01086E-05	2.243041992	0.787353516	-9.164428711	-0.004005432	-0.00948906	0.004005432	-0.834960938	-0.031738281	0.650390625	889.4	175.0126269	-13.78154171	164.9848698	-79
18262	0	0.090256691	0.032026291	-0.36941433	0.999999046	0.000190735	-9.53674E-06	0.000155449	2.256417274	0.800657272	-9.235358238	0.009536743	-0.000476837	0.007772446	-0.832763672	-0.031738281	0.653076172	889.44	175.0341326	-13.79104427	164.9804972	-79
18263	0	0.090148926	0.031982422	-0.366210938	0.999999046	-5.72205E-05	5.43594E-05	9.15527E-05	2.253723145	0.799560547	-9.155273438	-0.002861023	0.002717972	0.004577637	-0.834960938	-0.031738281	0.650390625	889.4	175.0252475	-13.80722731	164.9843562	-79
18264	0	0.089339256	0.031885147	-0.366747856	0.999999046	9.44138E-05	-0.000120163	0.000128746	2.233481407	0.797128677	-9.168696404	0.004720688	-0.006008148	0.006437302	-0.832519531	-0.034179688	0.650390625	889.44	175.0351872	-13.80382463	164.9822313	-79
