Counter	Temperature	VelInc_X	VelInc_Y	VelInc_Z	OriInc_w	OriInc_x	OriInc_y	OriInc_z	Acc_X	Acc_Y	Acc_Z	Gyr_X	Gyr_Y	Gyr_Z	Mag_X	Mag_Y	Mag_Z	Pressure	Roll	Pitch	Yaw	RSSI
33321	0	0.386962891	-0.058532715	0.018859863	0.999996185	-0.001765251	0.000370026	-0.001800537	9.674072266	-1.463317871	0.471496582	-0.088262654	0.018501302	-0.090026953	-0.678466797	0.775878906	-0.295654297	880.88	-70.56734227	-78.54458252	0.040120618	-53
33322	0	0.387277603	-0.073497772	0.017540932	0.999996185	-0.001940727	-0.000226021	-0.001390457	9.681940079	-1.837444305	0.438523293	-0.097036455	-0.011301051	-0.069522924	-0.68359375	0.776123047	-0.286621094	880.78	-70.63357482	-78.71690764	-0.121730305	-52
33323	0	0.380065918	-0.073913574	0.020507813	0.999999046	-0.001144409	8.4877E-05	-0.00012207	9.501647949	-1.847839355	0.512695313	-0.057220472	0.004243852	-0.006103517	-0.686035156	0.776367188	-0.286621094	880.88	-70.68157567	-78.74023391	-0.205577141	-52
33324	0	0.386304855	-0.071673393	0.022116661	0.999999046	-0.000645638	0.000232697	-9.15527E-05	9.657621384	-1.791834831	0.552916527	-0.032281878	0.011634828	-0.004577637	-0.686035156	0.774169922	-0.280517578	880.94	-70.59784187	-78.75468102	-0.37458226	-52
33325	0	0.382995605	-0.067016602	0.024475098	0.999999046	-0.001064301	6.19888E-05	3.05176E-05	9.574890137	-1.675415039	0.611877441	-0.053215037	0.003099442	0.001525879	-0.686035156	0.776367188	-0.283691406	880.88	-70.67724404	-78.76259741	-0.417653737	-53
33326	0	0.384757042	-0.074666977	0.027170181	0.999999046	-0.000669479	-0.000349045	0.000826836	9.618926048	-1.866674423	0.679254532	-0.033473976	-0.017452244	0.04134179	-0.68359375	0.778564453	-0.283935547	880.74	-71.08416899	-78.69954997	-0.077647869	-53
33327	0	0.386901855	-0.075073242	0.026428223	0.999998093	8.86917E-05	-0.000366211	0.001556396	9.672546387	-1.876831055	0.660705566	0.004434587	-0.018310555	0.077819857	-0.683837891	0.778564453	-0.281005859	880.84	-71.54052721	-78.5572743	0.397798317	-53
33328	0	0.383936882	-0.077057838	0.027991295	0.999998093	-0.000385284	0.000412941	0.001636505	9.59842205	-1.926445961	0.699782372	-0.019264231	0.020647059	0.081825297	-0.683837891	0.780761719	-0.284179688	880.88	-71.63911399	-78.37737513	0.459616504	-53
33329	0	0.381774902	-0.077392578	0.027526855	0.999998093	-0.001494408	0.000717163	0.000923157	9.544372559	-1.934814453	0.688171387	-0.074720428	0.035858176	0.046157865	-0.679199219	0.78515625	-0.284667969	880.78	-71.57809751	-78.26381926	0.230536985	-52
33330	0	0.388859749	-0.076846123	0.025963783	0.999997139	-0.001983643	0.000740051	0.000494957	9.721493721	-1.921153069	0.649094582	-0.099182207	0.037002593	0.024747868	-0.676757813	0.78515625	-0.279052734	880.88	-71.48860765	-78.1958609	-0.091011925	-53
33331	0	0.387939453	-0.079833984	0.028076172	0.999998093	-0.001582146	0.000732422	-0.000205994	9.698486328	-1.995849609	0.701904297	-0.079107325	0.036621113	-0.010299688	-0.677001953	0.787353516	-0.279296875	880.9	-71.23520327	-78.20388628	-0.530754461	-52
33332	0	0.391415596	-0.085918427	0.025752068	0.999999046	-0.000609398	0.000572205	-0.001052856	9.7853899	-2.147960663	0.643801689	-0.030469904	0.028610238	-0.052642838	-0.677001953	0.789550781	-0.279541016	880.88	-70.79997063	-78.30867812	-1.043938912	-52
33333	0	0.386230469	-0.080932617	0.029907227	0.999994278	0.001042366	0.000205994	-0.002902985	9.655761719	-2.02331543	0.747680664	0.052118384	0.010299699	-0.145149462	-0.679199219	0.78515625	-0.278808594	880.88	-70.00479477	-78.62579241	-1.736456059	-53
33334	0	0.3819561	-0.07420063	0.029244423	0.999993324	0.001937866	-0.000276566	-0.002967834	9.548902512	-1.855015755	0.731110573	0.096893515	-0.013828307	-0.148392036	-0.681396484	0.780761719	-0.28125	880.88	-69.31354469	-78.96709563	-2.218522505	-52
33335	0	0.383117676	-0.070556641	0.025390625	0.999997139	0.000896454	-0.000472069	-0.00177002	9.577941895	-1.763916016	0.634765625	0.044822724	-0.023603456	-0.088501038	-0.690673828	0.776367188	-0.286376953	880.8	-69.07589144	-79.18723575	-2.349873301	-52
33336	0	0.380896568	-0.072645187	0.023696899	0.999999046	4.76837E-06	-0.000509262	-0.000659943	9.522414207	-1.816129684	0.592422485	0.000238419	-0.025463107	-0.032997135	-0.693115234	0.772216797	-0.280029297	880.84	-69.19703946	-79.28980403	-2.2292238	-52
33337	0	0.384094238	-0.070068359	0.025512695	0.999999046	-0.000610352	-0.000277519	0.000450134	9.602355957	-1.751708984	0.637817383	-0.030517581	-0.013875963	0.022506716	-0.690673828	0.774169922	-0.283203125	880.9	-69.49662284	-79.26378788	-1.990364425	-53
33338	0	0.383248329	-0.076431274	0.029600143	0.999998093	-0.001471519	0.000607491	0.000743866	9.581208229	-1.91078186	0.740003586	-0.073576011	0.030374543	0.037193317	-0.695556641	0.772216797	-0.276855469	880.8	-69.45586973	-79.17013189	-2.205775465	-52
33339	0	0.384765625	-0.074523926	0.029602051	0.999997139	-0.00157547	0.000481606	0.001068115	9.619140625	-1.863098145	0.74005127	-0.078773549	0.024080292	0.053405796	-0.693115234	0.774414063	-0.280273438	880.74	-69.56588054	-79.04643115	-2.269261457	-52
33340	0	0.385073662	-0.072502136	0.027059555	0.999998093	-0.001403809	0.000723839	0.000965118	9.626841545	-1.812553406	0.676488876	-0.07019047	0.036191961	0.048255948	-0.691162109	0.778808594	-0.274902344	880.8	-69.50161815	-78.92396611	-2.500664843	-53
33341	0	0.385864258	-0.072387695	0.023620605	0.999999046	-0.000991821	0.000351906	0.000335693	9.646606445	-1.809692383	0.590515137	-0.049591075	0.017595295	0.016784671	-0.686279297	0.778564453	-0.278076172	880.84	-69.46751292	-78.88394866	-2.643841639	-53
33342	0	0.384943962	-0.07080555	0.025947571	0.999999046	-0.000101089	-0.000192642	0.000136375	9.623599052	-1.770138741	0.64868927	-0.005054474	-0.009632111	0.006818771	-0.686279297	0.781005859	-0.278076172	880.78	-69.58810302	-78.88720619	-2.526292187	-53
33343	0	0.385559082	-0.072509766	0.02722168	0.999999046	0.001041412	-0.000590324	0.000476837	9.638977051	-1.812744141	0.680541992	0.052070632	-0.029516228	0.023841865	-0.686279297	0.781005859	-0.272216797	880.94	-69.86353872	-78.86951261	-2.131232159	-53
33344	0	0.383079529	-0.071783066	0.026124001	0.999998093	0.001190186	-0.000433922	0.000582695	9.57698822	-1.794576645	0.653100014	0.059509297	-0.021696098	0.02913476	-0.686279297	0.778564453	-0.275146484	880.8	-70.05591534	-78.83392841	-1.798135621	-53
33345	0	0.38671875	-0.07244873	0.020446777	0.999998093	0.000660896	-0.000286102	0.001316071	9.66796875	-1.811218262	0.511169434	0.033044827	-0.01430512	0.065803553	-0.686279297	0.781005859	-0.278076172	880.78	-70.36991782	-78.71332508	-1.39894997	-52
33346	0	0.388982773	-0.072345734	0.021782875	0.999998093	-0.001051903	0.000292778	0.001506805	9.724569321	-1.808643341	0.544571877	-0.052595169	0.014638909	0.075340314	-0.684082031	0.782958984	-0.278564453	880.86	-70.59833026	-78.54972558	-1.28323004	-53
33347	0	0.388427734	-0.075683594	0.026672363	0.999996185	-0.001925468	0.000526428	0.001564026	9.710693359	-1.892089844	0.666809082	-0.096273525	0.026321439	0.078201378	-0.681640625	0.78515625	-0.275878906	880.84	-70.80864153	-78.37095509	-1.288378449	-52
33348	0	0.389740944	-0.077392578	0.031791687	0.999995232	-0.002589226	0.00050354	0.001338005	9.743523598	-1.934814453	0.794792175	-0.129461477	0.025177039	0.066900351	-0.677246094	0.789550781	-0.270751953	880.8	-71.06135505	-78.21739643	-1.332396955	-52
33349	0	0.383789063	-0.085021973	0.031677246	0.999999046	-0.000740051	0.000218391	0.001029968	9.594726563	-2.125549316	0.791931152	-0.037002574	0.010919574	0.051498427	-0.677246094	0.791992188	-0.270751953	880.88	-71.19239085	-78.10734212	-1.282994019	-52
33350	0	0.378334999	-0.093475342	0.029628754	0.999998093	0.001353264	-2.38419E-05	0.000629425	9.458374977	-2.336883545	0.740718842	0.067663218	-0.001192093	0.031471264	-0.674804688	0.791748047	-0.273925781	880.8	-71.13733933	-78.04880559	-1.176337608	-53
33351	0	0.378479004	-0.091125488	0.021728516	0.999993324	0.00327301	-0.000666618	0.001396179	9.461975098	-2.278137207	0.543212891	0.16365087	-0.03333099	0.069809112	-0.674804688	0.791748047	-0.270996094	880.88	-71.32374345	-77.93014459	-0.6128062	-53
33352	0	0.37642765	-0.089111328	0.020829201	0.999982834	0.005628586	-0.001191139	0.001014709	9.410691261	-2.227783203	0.520730019	0.281430892	-0.0595573	0.050735762	-0.672363281	0.793945313	-0.280029297	880.74	-71.43679811	-77.87131019	0.152728995	-52
33353	0	0.387268066	-0.06842041	0.020568848	0.999966621	0.007827759	-0.001460075	0.001605988	9.68170166	-1.710510254	0.514221191	0.391392244	-0.073004572	0.080300261	-0.669433594	0.789306641	-0.291503906	880.84	-71.52683461	-77.75835537	1.156708342	-54
33354	0	0.38335228	-0.057589531	0.017961502	0.999988556	0.004387856	-0.000733376	0.0011549	9.583806992	-1.439738274	0.449037552	0.219393549	-0.036668907	0.057745183	-0.669433594	0.786865234	-0.294189453	880.8	-71.56406191	-77.66900391	1.698184104	-54
33355	0	0.385253906	-0.066162109	0.019714355	0.999997139	-0.002338409	-0.000430107	0.000167847	9.631347656	-1.654052734	0.492858887	-0.116920582	-0.021505376	0.008392342	-0.666992188	0.786865234	-0.300292969	880.84	-72.05581758	-77.67650753	1.938207007	-52
33356	0	0.384755135	-0.081767082	0.019854546	0.999992371	-0.00365448	0.000121117	0.000630379	9.618878365	-2.044177055	0.49636364	-0.182724418	0.006055846	0.031519008	-0.669433594	0.786865234	-0.294189453	880.84	-72.49824729	-77.6139463	1.974297873	-53
33357	0	0.394104004	-0.08795166	0.01763916	0.999994278	-0.002764702	0.000152588	0.00177002	9.852600098	-2.198791504	0.440979004	-0.138235341	0.007629408	0.088501136	-0.664794922	0.791259766	-0.2890625	880.84	-72.99747964	-77.42547041	2.1702476	-54
33358	0	0.389046669	-0.082257271	0.023287773	0.999996185	-0.00247097	0.00077343	0.000794411	9.726166725	-2.05643177	0.582194328	-0.123548659	0.038671541	0.039720584	-0.665283203	0.795898438	-0.283447266	880.84	-73.00752899	-77.32304099	1.892146111	-54
33359	0	0.389587402	-0.077148438	0.028015137	0.999997139	-0.001998901	0.001011848	-0.000793457	9.739685059	-1.928710938	0.700378418	-0.099945162	0.05059247	-0.039672889	-0.662841797	0.798095703	-0.281005859	880.78	-72.60799306	-77.38646749	1.246843526	-52
33360	0	0.384469032	-0.074743271	0.024280548	0.999993324	-0.00206089	0.000514984	-0.00279808	9.611725807	-1.868581772	0.607013702	-0.103044722	0.02574926	-0.13990431	-0.665039063	0.793701172	-0.280517578	880.8	-72.13402764	-77.68537727	0.524044002	-53
33361	0	0.386657715	-0.078674316	0.025817871	0.99998951	-0.002807617	0.000466347	-0.003498077	9.666442871	-1.96685791	0.645446777	-0.140381335	0.023317416	-0.174904462	-0.669921875	0.791503906	-0.280029297	880.84	-71.62120457	-78.06098491	-0.319066106	-53
33362	0	0.381270409	-0.078281403	0.024138451	0.999988556	-0.004044533	0.000546455	-0.002465248	9.531760216	-1.957035065	0.603461266	-0.202227405	0.027322873	-0.123262872	-0.677001953	0.789550781	-0.276611328	880.78	-71.35282501	-78.32016131	-1.051396279	-53
33363	0	0.383483887	-0.093322754	0.019958496	0.999986649	-0.005038261	0.000148773	0.000286102	9.587097168	-2.333068848	0.498962402	-0.251914141	0.007438691	0.014305176	-0.677246094	0.789550781	-0.270751953	880.88	-71.88532276	-78.29411357	-1.07640626	-53
33364	0	0.383600235	-0.103420258	0.022755623	0.999991417	-0.003659248	0.000164032	0.001552582	9.590005875	-2.585506439	0.568890572	-0.1829629	0.008201621	0.077629294	-0.677490234	0.791992188	-0.259033203	880.9	-72.46603158	-78.12822869	-0.902962897	-53
33365	0	0.381286621	-0.097290039	0.031555176	0.999997139	-3.8147E-06	0.000882149	0.001987457	9.532165527	-2.432250977	0.788879395	-0.000190735	0.044107472	0.099372942	-0.675292969	0.796386719	-0.256591797	880.88	-72.323147	-77.88879732	-1.049674168	-52
33366	0	0.37862587	-0.073101044	0.030390739	0.999997139	0.001358032	0.001079559	0.001114845	9.465646744	-1.827526093	0.759768486	0.067901659	0.053978005	0.055742303	-0.670654297	0.80078125	-0.260253906	880.84	-71.7887536	-77.73753388	-1.439545814	-53
33367	0	0.382446289	-0.06829834	0.027099609	0.999999046	0.000114441	0.000203133	0.001022339	9.561157227	-1.707458496	0.677490234	0.005722047	0.010156633	0.051116953	-0.670654297	0.80078125	-0.260253906	880.88	-71.8243612	-77.62789232	-1.392113069	-54
33368	0	0.384469986	-0.080982208	0.020986557	0.999999046	-0.0001688	-0.000530243	0.001037598	9.611749649	-2.024555206	0.524663925	-0.00844002	-0.026512152	0.051879895	-0.665771484	0.800537109	-0.260498047	880.78	-72.25649647	-77.54255868	-0.968301644	-52
33369	0	0.38873291	-0.090148926	0.022827148	0.999999046	0.000858307	-0.000452995	0.000545502	9.718322754	-2.253723145	0.570678711	0.042915353	-0.02264977	0.027275091	-0.668212891	0.802978516	-0.263427734	880.8	-72.45230518	-77.50749468	-0.662987063	-54
33370	0	0.38512516	-0.081373215	0.02383709	0.999997139	0.002309799	-0.000242233	-0.000237465	9.628129005	-2.034330368	0.595927238	0.115490065	-0.012111675	-0.011873256	-0.665771484	0.802734375	-0.260742188	880.88	-72.2547915	-77.55068881	-0.603610843	-53
33371	0	0.385742188	-0.072814941	0.021911621	0.999998093	0.00168705	-0.000362396	-0.000541687	9.643554688	-1.820373535	0.547790527	0.084352539	-0.018119822	-0.027084365	-0.668212891	0.800537109	-0.266113281	880.88	-72.13940714	-77.6318221	-0.526228555	-54
33372	0	0.384070396	-0.074146271	0.024874687	0.999999046	-2.95639E-05	-0.000488281	6.86646E-05	9.601759911	-1.853656769	0.62186718	-0.001478195	-0.024414063	0.003433228	-0.66796875	0.798339844	-0.266113281	880.88	-72.38075086	-77.65105685	-0.282078583	-54
33373	0	0.387390137	-0.082702637	0.023132324	0.999999046	-0.000205994	-0.000304222	0.000511169	9.684753418	-2.067565918	0.578308105	-0.010299683	-0.015211106	0.025558473	-0.670410156	0.798583984	-0.262939453	880.88	-72.6206038	-77.61536154	-0.064873873	-52
33374	0	0.382928848	-0.081519127	0.026953697	0.999999046	0.000526428	-0.000165939	0.000926018	9.573221207	-2.037978172	0.67384243	0.026321416	-0.008296968	0.046300897	-0.668212891	0.800537109	-0.266113281	880.88	-72.76966943	-77.52935877	0.150000673	-52
33375	0	0.382202148	-0.080932617	0.023925781	0.999999046	0.000694275	6.58035E-05	0.000846863	9.555053711	-2.02331543	0.598144531	0.034713752	0.003290177	0.042343148	-0.663330078	0.800537109	-0.263427734	880.88	-72.77100103	-77.44413776	0.225750744	-52
33376	0	0.380474091	-0.081300735	0.023476601	0.999999046	0.00051403	-0.000278473	0.000858307	9.511852264	-2.032518387	0.586915016	0.025701527	-0.013923648	0.042915352	-0.665771484	0.800537109	-0.266357422	880.84	-72.9623082	-77.36929918	0.480782367	-54
33377	0	0.385437012	-0.08605957	0.023010254	0.999998093	0.001511574	-0.000488281	0.00075531	9.635925293	-2.151489258	0.575256348	0.075578729	-0.024414075	0.037765522	-0.665527344	0.800537109	-0.272216797	880.88	-73.12435334	-77.3124927	0.831502209	-54
33378	0	0.385033607	-0.080040932	0.023241043	0.999996185	0.002537727	-0.000409126	0.000632286	9.625840187	-2.001023293	0.581026077	0.126886516	-0.020456338	0.031614341	-0.665771484	0.802734375	-0.266601563	880.8	-73.11026666	-77.26663908	1.101489302	-54
33379	0	0.384094238	-0.077575684	0.022399902	0.999996185	0.002423286	-0.000282288	0.000236511	9.602355957	-1.93939209	0.559997559	0.121164443	-0.014114394	0.011825573	-0.660644531	0.800292969	-0.275390625	880.8	-72.988782	-77.26032353	1.259913387	-52
33380	0	0.383582115	-0.075270653	0.022120476	0.999998093	0.001495361	-0.000433922	0.000572205	9.589552879	-1.881766319	0.553011894	0.074768101	-0.021696101	0.028610243	-0.660644531	0.798095703	-0.278076172	880.78	-73.0961108	-77.22270944	1.547154118	-54
33381	0	0.38494873	-0.078552246	0.025146484	0.999999046	3.05176E-05	-2.57492E-05	0.000259399	9.623718262	-1.963806152	0.628662109	0.001525879	-0.00128746	0.012969971	-0.660644531	0.800292969	-0.275390625	880.9	-73.12671812	-77.20598157	1.57672492	-54
33382	0	0.386370659	-0.084916115	0.024886131	0.999999046	-0.000812531	0.000144958	0.000637054	9.659266472	-2.12290287	0.622153282	-0.040626533	0.007247926	0.031852728	-0.660644531	0.800292969	-0.275390625	880.8	-73.22635113	-77.14213619	1.581237749	-54
33383	0	0.385375977	-0.08605957	0.027587891	0.999999046	-0.000587463	6.58035E-05	0.000343323	9.634399414	-2.151489258	0.689697266	-0.029373171	0.003290177	0.017166139	-0.663085938	0.800292969	-0.278076172	880.8	-73.29465018	-77.11303176	1.587892632	-54
33384	0	0.386468887	-0.09069252	0.028568268	0.999999046	1.43051E-05	2.86102E-05	0.000377655	9.661722183	-2.267313004	0.714206696	0.000715256	0.001430512	0.018882752	-0.660888672	0.802490234	-0.275634766	880.78	-73.31602532	-77.08106999	1.610640118	-52
33385	0	0.383728027	-0.090270996	0.028259277	0.999998093	0.001660347	-7.62939E-05	-0.000511169	9.593200684	-2.256774902	0.706481934	0.083017391	-0.003814699	-0.025558485	-0.658447266	0.802490234	-0.275634766	880.9	-73.07005666	-77.14978752	1.546193598	-54
33386	0	0.378386497	-0.085100174	0.025676727	0.999995232	0.002681732	-0.000762939	-0.000163078	9.459662437	-2.127504349	0.641918182	0.134086783	-0.038147022	-0.008153926	-0.660644531	0.800292969	-0.278320313	880.84	-73.08758363	-77.2031104	1.871259183	-54
33387	0	0.384094238	-0.082092285	0.019897461	0.999997139	0.001739502	-0.000803947	-0.000915527	9.602355957	-2.052307129	0.497436523	0.086975163	-0.040197403	-0.045776402	-0.662841797	0.798095703	-0.286865234	880.88	-73.12545426	-77.34043231	2.120316094	-54
33388	0	0.385689735	-0.084052086	0.023171425	0.999997139	0.001769066	-0.000650406	-0.001156807	9.642243385	-2.101302147	0.579285622	0.088453365	-0.032520321	-0.057840394	-0.665283203	0.798095703	-0.286621094	880.88	-73.05128656	-77.49909841	2.251372728	-54
33389	0	0.383605957	-0.081665039	0.024597168	0.999997139	0.001117706	-0.000491142	-0.001548767	9.590148926	-2.041625977	0.614929199	0.055885351	-0.02455713	-0.077438405	-0.665039063	0.793701172	-0.286376953	880.94	-72.91285695	-77.69543265	2.238439933	-52
33390	0	0.382165909	-0.07841301	0.024702072	0.999999046	0.000175476	-0.000490189	-0.001220703	9.55414772	-1.960325241	0.617551804	0.008773806	-0.024509437	-0.061035174	-0.669677734	0.789306641	-0.282714844	880.88	-72.93124345	-77.85587769	2.270801293	-54
33391	0	0.383666992	-0.07800293	0.026367188	0.999999046	-0.001022339	-0.000277519	-0.000270844	9.591674805	-1.950073242	0.659179688	-0.051116954	-0.013875964	-0.013542178	-0.669677734	0.787109375	-0.282470703	880.94	-73.12712879	-77.90512968	2.349650798	-54
33392	0	0.383420944	-0.083343506	0.026410103	0.999997139	-0.002333641	0.000234604	0.000343323	9.585523605	-2.083587646	0.660252571	-0.116682162	0.011730205	0.017166154	-0.672119141	0.789306641	-0.282714844	880.88	-73.30642199	-77.86977444	2.264886484	-54
33393	0	0.383056641	-0.08807373	0.024780273	0.999997139	-0.002243042	0.000424385	0.000118256	9.576416016	-2.201843262	0.619506836	-0.112152197	0.021219272	0.005912786	-0.669921875	0.791503906	-0.280029297	880.84	-73.3440899	-77.85251067	2.045641002	-54
33394	0	0.382525444	-0.086025238	0.026488304	0.999999046	-0.001155853	0.000375748	8.7738E-05	9.563136101	-2.150630951	0.662207603	-0.057792678	0.018787389	0.004386903	-0.669921875	0.791503906	-0.280029297	880.88	-73.27717511	-77.83985464	1.849875589	-54
33395	0	0.382751465	-0.081420898	0.023193359	0.999999046	-0.000141144	0.000412941	-0.000301361	9.568786621	-2.035522461	0.579833984	-0.00705719	0.02064705	-0.015068055	-0.672363281	0.793945313	-0.274169922	880.94	-73.0150281	-77.86845671	1.558574058	-52
33396	0	0.386381149	-0.0763731	0.021292686	0.999999046	-0.000239372	4.95911E-05	-0.00092411	9.659528732	-1.909327507	0.532317162	-0.011968614	0.002479554	-0.046205528	-0.672363281	0.791748047	-0.273925781	880.84	-72.85032417	-77.9775139	1.356387273	-52
33397	0	0.386535645	-0.076965332	0.020996094	0.999998093	-0.000849724	5.72205E-05	-0.001361847	9.663391113	-1.924133301	0.524902344	-0.042486209	0.002861024	-0.068092375	-0.671875	0.786865234	-0.276611328	880.8	-72.67796165	-78.13427382	1.085435204	-54
33398	0	0.386328697	-0.081564903	0.020716667	0.999999046	-0.001045227	-3.62396E-05	-0.000882149	9.65821743	-2.039122581	0.517916679	-0.052261369	-0.001811982	-0.044107451	-0.676757813	0.789306641	-0.276367188	880.88	-72.65159515	-78.24155486	0.941535838	-54
33399	0	0.384033203	-0.075866699	0.019470215	0.999999046	-0.000740051	-0.000193596	-0.000289917	9.600830078	-1.89666748	0.486755371	-0.037002568	-0.009679795	-0.014495851	-0.677001953	0.787109375	-0.270263672	880.8	-72.77033585	-78.28955483	0.973317986	-52
33400	0	0.389030457	-0.076105118	0.024576187	0.999997139	-0.001807213	0.000265121	0.00075531	9.725761414	-1.902627945	0.614404678	-0.0903607	0.013256082	0.037765528	-0.679443359	0.789550781	-0.270507813	880.88	-72.93961722	-78.20767045	0.937133277	-54
33401	0	0.389831543	-0.08013916	0.022644043	0.999995232	-0.002674103	0.00098896	0.000644684	9.745788574	-2.003479004	0.566101074	-0.13370533	0.049448084	0.032234238	-0.677246094	0.791748047	-0.264892578	880.88	-72.81263142	-78.11343799	0.491047491	-54
33402	0	0.383939743	-0.083446503	0.023690224	0.999997139	-0.001691818	0.000873566	0.001300812	9.598493576	-2.086162567	0.592255592	-0.084590987	0.043678322	0.065040646	-0.674804688	0.793945313	-0.265136719	880.84	-72.74347878	-77.95090602	0.222783255	-54
33403	0	0.37890625	-0.083129883	0.024963379	0.999998093	-0.000636101	0.000965118	0.001426697	9.47265625	-2.07824707	0.624084473	-0.031805056	0.048255948	0.071334879	-0.674804688	0.793945313	-0.262207031	880.8	-72.53242271	-77.77109646	-0.072308525	-54
33404	0	0.384443283	-0.077236176	0.022250175	0.999999046	-0.000300407	0.000677109	0.000900269	9.611082077	-1.930904388	0.556254387	-0.015020374	0.033855446	0.045013438	-0.670166016	0.798339844	-0.265869141	880.8	-72.35033291	-77.65874759	-0.293878858	-54
33405	0	0.381286621	-0.075744629	0.020202637	0.999998093	-0.001681328	0.000495911	0.000511169	9.532165527	-1.893615723	0.505065918	-0.084066438	0.024795546	0.025558486	-0.66796875	0.800537109	-0.263183594	880.84	-72.35802884	-77.59541501	-0.485122917	-54
33406	0	0.382821083	-0.086413383	0.024930954	0.999997139	-0.0020504	0.000366211	0.000494957	9.570527077	-2.160334587	0.623273849	-0.102520067	0.018310561	0.024747867	-0.66796875	0.800537109	-0.260253906	880.88	-72.47063745	-77.53815327	-0.6115138	-52
33407	0	0.380187988	-0.088745117	0.025817871	0.999999046	-0.00044632	0.00011158	8.01086E-05	9.504699707	-2.21862793	0.645446777	-0.02231598	0.005578995	0.004005432	-0.668212891	0.802734375	-0.260498047	880.96	-72.46077217	-77.53467297	-0.674671538	-54
33408	0	0.378886223	-0.083031654	0.026071548	0.999999046	0.000487328	-0.000295639	0.000151634	9.472155571	-2.075791359	0.651788712	0.02436638	-0.014781953	0.007581711	-0.668212891	0.802734375	-0.257568359	880.78	-72.55609756	-77.5373038	-0.527463844	-52
33409	0	0.382324219	-0.08026123	0.023193359	0.999999046	0.000957489	-0.000597954	0.000255585	9.558105469	-2.006530762	0.579833984	0.047874461	-0.029897696	0.012779239	-0.66796875	0.800537109	-0.257324219	880.94	-72.76340169	-77.53890407	-0.21103865	-54
33410	0	0.386277199	-0.080171585	0.02270031	0.999998093	0.001158714	-0.000729561	-0.000606537	9.65692997	-2.004289627	0.567507744	0.057935736	-0.036478056	-0.030326855	-0.66796875	0.800537109	-0.263183594	880.8	-72.88201672	-77.63929628	0.047590804	-52
33411	0	0.385620117	-0.081176758	0.026062012	0.999997139	0.001766205	-0.000964165	-0.000656128	9.64050293	-2.029418945	0.651550293	0.088310308	-0.048208273	-0.032806421	-0.66796875	0.798095703	-0.260009766	880.94	-73.04396891	-77.75287093	0.412339435	-54
33412	0	0.38790226	-0.078086853	0.022171974	0.999997139	0.002066612	-0.000537872	-0.000558853	9.697556496	-1.952171326	0.554299355	0.103330696	-0.026893638	-0.02794268	-0.670166016	0.796142578	-0.259765625	880.88	-72.97404762	-77.84163821	0.569306858	-52
33413	0	0.385314941	-0.072753906	0.018798828	0.999999046	0.000709534	-7.9155E-05	-0.000564575	9.632873535	-1.818847656	0.469970703	0.035476689	-0.003957749	-0.028228764	-0.669921875	0.793701172	-0.271240234	880.88	-72.82559488	-77.91607369	0.509431958	-54
33414	0	0.386992455	-0.07753849	0.019945145	0.999999046	-0.001331329	9.53674E-06	0.000152588	9.674811363	-1.938462257	0.498628616	-0.066566487	0.000476837	0.007629397	-0.672363281	0.793701172	-0.265380859	880.88	-72.97886454	-77.90915173	0.511526975	-54
33415	0	0.382446289	-0.085266113	0.022521973	0.999997139	-0.002151489	0.000149727	0	9.561157227	-2.131652832	0.563049316	-0.107574546	0.007486349	0	-0.672607422	0.796142578	-0.262695313	880.9	-73.13096917	-77.91400739	0.416427233	-52
33416	0	0.384451866	-0.086782455	0.025863647	0.999999046	-0.000733376	0.000234604	5.72205E-05	9.611296654	-2.169561386	0.646591187	-0.036668781	0.011730195	0.002861023	-0.672607422	0.793945313	-0.262451172	880.8	-73.08578158	-77.90941936	0.288633262	-54
33417	0	0.384033203	-0.080810547	0.02520752	0.999999046	0.000648499	9.63211E-05	-0.000137329	9.600830078	-2.020263672	0.630187988	0.032424929	0.004816056	-0.006866456	-0.672607422	0.796142578	-0.265625	880.88	-72.92203007	-77.93065924	0.203761975	-54
33418	0	0.388016701	-0.076340675	0.02354908	0.999998093	0.001362801	-0.000216484	-0.000114441	9.700417519	-1.908516884	0.588726997	0.068140052	-0.010824207	-0.005722048	-0.672607422	0.796142578	-0.259765625	880.8	-72.83964116	-77.96009685	0.269023207	-54
33419	0	0.38671875	-0.075134277	0.023254395	0.999999046	0.001251221	-0.000155449	-0.00030899	9.66796875	-1.878356934	0.581359863	0.062561053	-0.007772448	-0.015449528	-0.677246094	0.793945313	-0.268066406	880.9	-72.70722636	-78.00900963	0.284420612	-54
33420	0	0.389883995	-0.074597359	0.020999908	0.999999046	0.000380516	0.000173569	-0.000622749	9.747099876	-1.864933968	0.524997711	0.019025804	0.008678437	-0.031137469	-0.674804688	0.791748047	-0.268066406	880.86	-72.45327566	-78.08124317	0.072423218	-54
33421	0	0.387145996	-0.075317383	0.022033691	0.999999046	-0.000835419	0.000374794	-0.000858307	9.678649902	-1.88293457	0.550842285	-0.041770946	0.018739705	-0.042915356	-0.674560547	0.789306641	-0.264892578	880.94	-72.1921938	-78.17218148	-0.293070673	-52
33422	0	0.38732338	-0.078539848	0.024754524	0.999998093	-0.001786232	0.000315666	6.00815E-05	9.683084488	-1.963496208	0.618863106	-0.089311649	0.015783319	0.003004076	-0.677246094	0.789794922	-0.264648438	880.88	-72.22196518	-78.16479971	-0.467925277	-54
33423	0	0.38092041	-0.082458496	0.022766113	0.999999046	-0.001003265	-8.67844E-05	-7.62939E-06	9.523010254	-2.061462402	0.569152832	-0.050163278	-0.004339219	-0.00038147	-0.677490234	0.791992188	-0.261962891	880.88	-72.3609498	-78.17864312	-0.44284812	-54
33424	0	0.382756233	-0.080423355	0.022415161	0.999999046	0.000250816	-0.00018692	-0.000271797	9.56890583	-2.010583878	0.560379028	0.012540818	-0.009346009	-0.013589859	-0.677490234	0.794189453	-0.259277344	880.88	-72.36519658	-78.22467434	-0.416331509	-53
33425	0	0.382202148	-0.078613281	0.023803711	0.999999046	0.000999451	-0.000254631	-0.000762939	9.555053711	-1.965332031	0.595092773	0.049972548	-0.012731556	-0.038146983	-0.677490234	0.789794922	-0.258789063	880.84	-72.23668153	-78.32659708	-0.439445965	-54
33426	0	0.38354969	-0.074988365	0.024917603	0.999996185	0.002266884	-0.000628471	-0.000667572	9.588742256	-1.874709129	0.622940063	0.113344305	-0.0314236	-0.033378634	-0.6796875	0.789794922	-0.264648438	880.9	-72.17592073	-78.43123773	-0.239849546	-54
33427	0	0.385070801	-0.071594238	0.023803711	0.999996185	0.002636909	-0.00069046	-0.000118256	9.62677002	-1.789855957	0.595092773	0.131845638	-0.034523053	-0.005912788	-0.682128906	0.787597656	-0.264404297	880.8	-72.20070601	-78.47832455	0.083561432	-54
33428	0	0.388589859	-0.071166992	0.017355919	0.999998093	0.001701355	-0.000441551	0.000155449	9.714746475	-1.779174805	0.433897972	0.085067793	-0.022077572	0.00777245	-0.681884766	0.785400391	-0.270019531	880.84	-72.24830321	-78.48711823	0.329229625	-52
33429	0	0.385864258	-0.069702148	0.017578125	0.999999046	0.000286102	3.91006E-05	0.000102997	9.646606445	-1.742553711	0.439453125	0.014305115	0.001955032	0.005149841	-0.681640625	0.782958984	-0.272705078	880.88	-72.19242777	-78.4851765	0.309864612	-52
33430	0	0.385115623	-0.070747375	0.019478798	0.999998093	-0.00184536	0.000260353	0.000166893	9.627890587	-1.768684387	0.486969948	-0.092268044	0.013017662	0.008344655	-0.681884766	0.782958984	-0.266845703	880.84	-72.27374267	-78.46879945	0.174986617	-52
33431	0	0.385559082	-0.07434082	0.021057129	0.999996185	-0.002367973	0.000324249	0.000106812	9.638977051	-1.858520508	0.526428223	-0.118398779	0.016212479	0.005340581	-0.681884766	0.785400391	-0.267089844	880.88	-72.37082364	-78.45688984	0.001624359	-52
33432	0	0.386685371	-0.0772295	0.02527523	0.999998093	-0.001447678	0.000124931	0.000338554	9.667134285	-1.930737495	0.63188076	-0.072383907	0.006246569	0.016927725	-0.682128906	0.787597656	-0.258544922	880.88	-72.50773743	-78.42652932	-0.037651856	-53
33433	0	0.385192871	-0.077331543	0.024902344	0.999999046	0.000221252	-0.000185966	0.000404358	9.629821777	-1.933288574	0.622558594	0.011062623	-0.009298325	0.020217896	-0.682128906	0.789794922	-0.258544922	880.8	-72.62943282	-78.39955415	0.101551818	-54
33434	0	0.386726379	-0.076169968	0.022776604	0.999998093	0.001395226	-0.00042057	-9.63211E-05	9.668159485	-1.904249191	0.569415092	0.069761301	-0.021028526	-0.004816057	-0.682128906	0.789794922	-0.264404297	880.88	-72.65804396	-78.43531939	0.291454916	-53
33435	0	0.385070801	-0.074462891	0.021484375	0.999998093	0.001458168	-0.000770569	-0.00037384	9.62677002	-1.861572266	0.537109375	0.072908436	-0.038528461	-0.018692026	-0.679443359	0.787597656	-0.267333984	880.9	-72.82227601	-78.51335562	0.631140429	-52
33436	0	0.384372711	-0.077094078	0.024718285	0.999997139	0.001950264	-0.000915527	6.67572E-06	9.60931778	-1.927351952	0.617957115	0.097513274	-0.045776403	0.000333786	-0.684326172	0.785400391	-0.266845703	880.8	-73.07398869	-78.55418891	1.113486953	-52
33437	0	0.382751465	-0.07824707	0.024230957	0.999997139	0.001945496	-0.001002312	5.72205E-05	9.568786621	-1.956176758	0.605773926	0.097274858	-0.050115625	0.002861025	-0.684326172	0.783203125	-0.263916016	880.9	-73.38379342	-78.59165864	1.6457323	-52
33438	0	0.387366295	-0.08198452	0.023283958	0.999998093	0.00133419	-0.000706673	-0.000331879	9.684157372	-2.049612999	0.582098961	0.066709545	-0.035333647	-0.01659394	-0.686523438	0.783203125	-0.266601563	880.88	-73.54234768	-78.66144909	1.954763489	-52
33439	0	0.38885498	-0.082397461	0.019104004	0.999996185	0.002293587	-0.000610352	-0.000629425	9.721374512	-2.059936523	0.477600098	0.114679452	-0.030517609	-0.031471284	-0.686523438	0.781005859	-0.269287109	880.88	-73.49310669	-78.76043993	2.163894074	-53
33440	0	0.38702774	-0.079005241	0.021374702	0.999997139	0.002013206	-0.000329971	-0.000958443	9.675693512	-1.975131035	0.534367561	0.100660409	-0.01649858	-0.047922175	-0.686279297	0.778564453	-0.275146484	880.8	-73.26665979	-78.88624739	2.166219372	-53
33441	0	0.38269043	-0.076965332	0.02355957	0.999994278	0.003056526	-0.000484467	-0.000339508	9.567260742	-1.924133301	0.588989258	0.152826556	-0.024223367	-0.01697543	-0.691162109	0.778808594	-0.274902344	880.78	-73.10923537	-78.94904499	2.350060286	-54
33442	0	0.38745594	-0.0742836	0.016436577	0.999994278	0.003182411	-0.000468254	-0.00011158	9.686398506	-1.857089996	0.410914421	0.159120834	-0.023412745	-0.005579004	-0.690673828	0.774169922	-0.280273438	880.9	-72.96851365	-78.98643462	2.569915888	-54
33443	0	0.38659668	-0.073242188	0.020019531	0.999993324	0.003364563	-0.000746727	-0.000587463	9.664916992	-1.831054688	0.500488281	0.168228492	-0.037336426	-0.029373229	-0.692871094	0.771972656	-0.285888672	880.88	-72.88290074	-79.08540146	2.869805318	-54
33444	0	0.385975838	-0.070708275	0.019003868	0.999996185	0.002513885	-0.000529289	-0.000290871	9.649395943	-1.767706871	0.475096703	0.125694415	-0.026464492	-0.01454355	-0.690429688	0.767333984	-0.288574219	880.88	-72.82486626	-79.14470896	3.099567183	-52
33445	0	0.385070801	-0.074829102	0.020996094	0.999997139	0.002094269	-0.000487328	7.62939E-06	9.62677002	-1.870727539	0.524902344	0.104713521	-0.024366398	0.00038147	-0.692626953	0.765136719	-0.291259766	880.9	-72.84451922	-79.16976757	3.360556264	-54
33446	0	0.388321877	-0.066215515	0.017781258	0.999997139	0.002212524	-0.000640869	0.000293732	9.708046913	-1.655387878	0.444531441	0.11062632	-0.032043486	0.014686598	-0.692626953	0.767578125	-0.294189453	880.8	-72.98957443	-79.16890718	3.761246065	-54
33447	0	0.385437012	-0.070068359	0.016906738	0.999999046	0.001113892	-0.000346184	0.000354767	9.635925293	-1.751708984	0.422668457	0.055694594	-0.017309193	0.017738347	-0.692138672	0.762695313	-0.293945313	880.82	-73.10284202	-79.15145746	4.002079664	-52
33448	0	0.387169838	-0.069996834	0.018685341	0.999999046	-7.34329E-05	-9.72748E-05	-0.000297546	9.679245949	-1.749920845	0.467133522	-0.003671646	-0.004863739	-0.01487732	-0.697265625	0.765136719	-0.293701172	880.94	-73.09625192	-79.19731707	3.980258169	-54
33449	0	0.383300781	-0.065551758	0.01763916	0.999999046	5.34058E-05	-0.000483513	0.000221252	9.582519531	-1.638793945	0.440979004	0.002670288	-0.024175645	0.011062623	-0.697021484	0.765136719	-0.299560547	880.8	-73.38778528	-79.19931648	4.290252396	-54
33450	0	0.384141922	-0.068955421	0.018372536	0.999999046	0.000217438	-0.000598907	0.001158714	9.60354805	-1.723885536	0.459313393	0.01087189	-0.029945382	0.057935732	-0.692382813	0.765136719	-0.291015625	880.8	-73.88349849	-79.10170365	4.811567687	-52
33451	0	0.387878418	-0.072692871	0.016296387	0.999998093	0.000103951	-0.000377655	0.001384735	9.696960449	-1.817321777	0.407409668	0.005197527	-0.018882758	0.069236779	-0.692382813	0.765136719	-0.291015625	880.86	-74.29424531	-78.97148832	5.235645709	-54
33452	0	0.385425568	-0.075222015	0.017240524	0.999999046	0.000199318	-0.000131607	0.000906944	9.635639191	-1.880550385	0.431013107	0.009965898	-0.006580354	0.04534722	-0.692382813	0.765136719	-0.293945313	880.84	-74.47286878	-78.88592065	5.441271186	-54
33453	0	0.389038086	-0.076843262	0.019348145	0.999999046	0.000843048	1.23978E-05	0.000858307	9.725952148	-1.921081543	0.483703613	0.042152415	0.000619888	0.042915355	-0.692382813	0.767333984	-0.297119141	880.82	-74.48727944	-78.80112468	5.557364934	-53
33454	0	0.387142181	-0.072834969	0.02045536	0.999998093	0.001324654	0.000277519	0.000700951	9.678554535	-1.820874214	0.51138401	0.066232707	0.013875967	0.035047545	-0.6875	0.767089844	-0.294433594	880.8	-74.27420201	-78.72562259	5.487300027	-52
33455	0	0.385009766	-0.073303223	0.018737793	0.999999046	0.001102448	3.91006E-05	0.000793457	9.625244141	-1.832580566	0.468444824	0.055122392	0.001955033	0.039672864	-0.689941406	0.769287109	-0.300292969	880.84	-74.23368728	-78.64737672	5.574542836	-54
33456	0	0.387453079	-0.075235367	0.011730194	0.999999046	0.001078606	-0.000276566	0.000671387	9.686326981	-1.880884171	0.293254852	0.053930298	-0.013828281	0.033569345	-0.687744141	0.769287109	-0.297607422	880.8	-74.3512319	-78.59250423	5.812026347	-54
33457	0	0.385742188	-0.070129395	0.018371582	0.999998093	0.001572609	-0.000114441	0.00043869	9.643554688	-1.753234863	0.459289551	0.078630482	-0.005722048	0.021934519	-0.685302734	0.769287109	-0.297607422	880.88	-74.28671881	-78.55853809	5.916612941	-53
33458	0	0.382695198	-0.067912102	0.016360283	0.999999046	0.000360489	-0.000370026	0.000591278	9.567379951	-1.697802544	0.409007072	0.018024446	-0.018501284	0.029563907	-0.685302734	0.769287109	-0.297607422	880.84	-74.52294467	-78.51595643	6.186966586	-53
33459	0	0.389892578	-0.071228027	0.014892578	0.999998093	-0.001685143	-0.000720978	0.000247955	9.747314453	-1.780700684	0.372314453	-0.084257174	-0.03604891	0.012397773	-0.685058594	0.769287109	-0.303466797	880.8	-75.13266298	-78.5217954	6.620109531	-54
33460	0	0.387256622	-0.074410439	0.017378807	0.999998093	-0.001558304	-0.000338554	-0.000217438	9.681415558	-1.860260963	0.434470177	-0.077915225	-0.016927726	-0.010871892	-0.685302734	0.769287109	-0.294677734	880.84	-75.45310472	-78.56753069	6.760792699	-54
33461	0	0.389770508	-0.075195313	0.018249512	0.999999046	-0.001056671	-0.00020504	-7.24792E-05	9.744262695	-1.879882813	0.456237793	-0.052833567	-0.010252001	-0.003623963	-0.685302734	0.771484375	-0.294921875	880.88	-75.66449848	-78.59330857	6.851967574	-54
33462	0	0.386002541	-0.071817398	0.015924454	0.999999046	-0.001047134	-0.000225067	-0.000210762	9.650063515	-1.795434952	0.398111343	-0.05235673	-0.011253359	-0.010538103	-0.685546875	0.771484375	-0.291992188	880.88	-75.86730636	-78.63516266	6.933567615	-54
33463	0	0.381896973	-0.072509766	0.017578125	0.999998093	-0.00171566	-3.43323E-05	-0.000598907	9.547424316	-1.812744141	0.439453125	-0.085783052	-0.001716615	-0.02994539	-0.685302734	0.771484375	-0.294921875	880.88	-75.987516	-78.71490336	6.864594555	-54
33464	0	0.387051582	-0.073133469	0.014186859	0.999998093	-0.001848221	0.000235558	8.01086E-05	9.676289558	-1.828336716	0.354671478	-0.092411095	0.011777885	0.004005434	-0.685546875	0.771484375	-0.286132813	880.88	-76.06759416	-78.71183644	6.726782184	-54
33465	0	0.389282227	-0.07635498	0.013671875	0.999997139	-0.002044678	0.00017643	0.000961304	9.732055664	-1.908874512	0.341796875	-0.102233974	0.008821495	0.048065227	-0.687988281	0.771728516	-0.286132813	880.88	-76.32451588	-78.61241435	6.754403248	-53
33466	0	0.383095741	-0.072087288	0.014855385	0.999994278	-0.002943993	0.001051903	0.000294685	9.577393532	-1.802182198	0.371384621	-0.147199873	0.052595225	0.014734292	-0.683349609	0.773925781	-0.280517578	880.84	-76.11143132	-78.56346044	6.191651763	-54
33467	0	0.387634277	-0.074707031	0.014343262	0.999993324	-0.003314972	0.001255989	0.000709534	9.690856934	-1.867675781	0.358581543	-0.165748957	0.062799591	0.035476762	-0.681152344	0.780517578	-0.278320313	880.88	-75.89085347	-78.46242307	5.577350677	-52
33468	0	0.387115479	-0.075986862	0.018231392	0.999992371	-0.003297806	0.001271248	0.001304626	9.677886963	-1.899671555	0.455784798	-0.164890679	0.063562544	0.065231478	-0.683837891	0.782958984	-0.275390625	880.84	-75.74965133	-78.2944984	5.047917425	-54
33469	0	0.389404297	-0.07635498	0.015380859	0.999992371	-0.003237724	0.001426697	0.001293182	9.735107422	-1.908874512	0.384521484	-0.161886598	0.071335008	0.064659272	-0.681396484	0.78515625	-0.275878906	880.88	-75.52800487	-78.12322658	4.451582091	-54
33470	0	0.38579464	-0.07947731	0.017251968	0.999993324	-0.00321579	0.001642227	0.000396729	9.64486599	-1.986932755	0.43129921	-0.160789843	0.082111539	0.019836469	-0.677001953	0.789306641	-0.2734375	880.84	-75.0785379	-78.04431576	3.623788322	-54
33471	0	0.386108398	-0.077270508	0.018188477	0.999991417	-0.003681183	0.001496315	-0.000217438	9.652709961	-1.931762695	0.454711914	-0.184059629	0.074815948	-0.010871916	-0.674804688	0.791748047	-0.268066406	880.84	-74.67776367	-78.03654104	2.786931331	-52
33472	0	0.383879662	-0.081234932	0.022521973	0.999993324	-0.003218651	0.001609802	-0.000552177	9.596991539	-2.030873299	0.563049316	-0.160932896	0.08049029	-0.027608932	-0.677490234	0.791992188	-0.264892578	880.88	-74.11518206	-78.06058728	1.838774901	-54
33473	0	0.389343262	-0.080932617	0.020874023	0.999995232	-0.002605438	0.001282692	-8.01086E-05	9.733581543	-2.02331543	0.521850586	-0.130272095	0.064134688	-0.004005438	-0.6796875	0.791992188	-0.264892578	880.8	-73.7221761	-78.04131416	1.141631318	-52
33474	0	0.385326385	-0.080937386	0.02461338	0.999997139	-0.001665115	0.001291275	0.000191689	9.633159637	-2.023434639	0.615334511	-0.08325583	0.064563799	0.009584434	-0.677490234	0.791992188	-0.256103516	880.88	-73.26070319	-77.99063945	0.468134018	-54
33475	0	0.387207031	-0.078979492	0.024658203	0.999997139	-0.00164032	0.001202583	0.000545502	9.680175781	-1.974487305	0.616455078	-0.082016052	0.06012921	0.027275106	-0.672851563	0.794189453	-0.256591797	880.78	-72.90205188	-77.90310224	-0.094639899	-54
33476	0	0.382302284	-0.080144882	0.023666382	0.999998093	-0.001407623	0.001049995	0.000267029	9.557557106	-2.003622055	0.591659546	-0.070381202	0.052499799	0.013351447	-0.677734375	0.796630859	-0.253662109	880.8	-72.55590619	-77.85040964	-0.622900162	-54
33477	0	0.382995605	-0.081115723	0.024658203	0.999996185	-0.002379417	0.000717163	1.14441E-05	9.574890137	-2.027893066	0.616455078	-0.118970993	0.035858191	0.000572205	-0.673095703	0.798583984	-0.251220703	880.8	-72.45122965	-77.83655666	-1.017587337	-52
33478	0	0.381428719	-0.086988449	0.026621819	0.999997139	-0.002063751	0.000682831	-0.000152588	9.535717964	-2.174711227	0.665545464	-0.103187643	0.034141568	-0.007629401	-0.673095703	0.798583984	-0.254150391	880.88	-72.30139508	-77.84118393	-1.409365354	-52
33479	0	0.379760742	-0.086181641	0.028808594	0.999997139	-0.001953125	0.000473976	-0.000465393	9.494018555	-2.154541016	0.720214844	-0.097656319	0.023698824	-0.02326967	-0.673095703	0.80078125	-0.254150391	880.8	-72.19242778	-77.88660904	-1.742247441	-54
33480	0	0.381219864	-0.089972496	0.029793739	0.999999046	6.67572E-06	0.000511169	-0.000113487	9.530496597	-2.249312401	0.744843483	0.000333786	0.025558473	-0.005674362	-0.675537109	0.798828125	-0.245117188	880.84	-71.8958553	-77.89146698	-2.057340144	-52
33481	0	0.383850098	-0.084594727	0.025634766	0.999999046	0.001262665	0.000447273	0.000267029	9.596252441	-2.114868164	0.640869141	0.063133259	0.02236367	0.013351445	-0.673095703	0.80078125	-0.254150391	880.78	-71.55166635	-77.85656918	-2.261301985	-54
33482	0	0.382750511	-0.076377869	0.024032593	0.999998093	0.001383781	0.000458717	0.000453949	9.568762779	-1.909446716	0.600814819	0.069189099	0.022935876	0.022697458	-0.675292969	0.796386719	-0.256591797	880.84	-71.22117931	-77.80082536	-2.435332653	-52
33483	0	0.387451172	-0.074462891	0.019836426	0.999999046	0.000102997	0.000584602	0.000431061	9.686279297	-1.861572266	0.495910645	0.005149842	0.02923012	0.021553041	-0.673095703	0.798583984	-0.257080078	880.9	-70.97353587	-77.74305429	-2.677001448	-52
33484	0	0.387543678	-0.076501846	0.021158218	0.999999046	-0.000905037	0.000442505	0.000624657	9.688591957	-1.912546158	0.52895546	-0.045251857	0.022125249	0.031232841	-0.672851563	0.796386719	-0.25390625	880.9	-70.94794899	-77.66975911	-2.812587661	-54
33485	0	0.381469727	-0.076782227	0.024108887	0.999998093	-0.001349449	0.00030899	0.000370026	9.536743164	-1.919555664	0.602722168	-0.067472481	0.015449529	0.018501288	-0.673095703	0.798583984	-0.251220703	880.8	-70.9965607	-77.62919725	-2.927078962	-53
33486	0	0.383230209	-0.075360298	0.023715019	0.999998093	-0.001202583	-3.52859E-05	0.000891685	9.580755234	-1.884007454	0.592875481	-0.060129188	-0.001764298	0.044584291	-0.670898438	0.802978516	-0.254638672	880.9	-71.28582724	-77.54514569	-2.767873076	-53
33487	0	0.386657715	-0.081359863	0.026245117	0.999998093	-0.001532555	0.000293732	0.000663757	9.666442871	-2.033996582	0.65612793	-0.076627768	0.014686592	0.033187882	-0.670898438	0.80078125	-0.251464844	880.74	-71.41146117	-77.47366269	-2.815132413	-54
33488	0	0.381163597	-0.081577301	0.0250597	0.999999046	-0.000979424	0.000440598	0.000450134	9.529089928	-2.039432526	0.6264925	-0.048971187	0.022029882	0.022506719	-0.668457031	0.802978516	-0.248779297	880.86	-71.36713415	-77.4199859	-2.976060568	-52
33489	0	0.383605957	-0.08203125	0.025817871	0.999999046	-0.000766754	-0.000365257	0.000717163	9.590148926	-2.05078125	0.645446777	-0.038337715	-0.018262867	0.035858162	-0.668457031	0.802978516	-0.248779297	880.88	-71.73340432	-77.36658607	-2.686851239	-54
33490	0	0.38424015	-0.082808495	0.027362823	0.999999046	-0.000663757	0.00018692	0.000476837	9.606003761	-2.070212364	0.684070587	-0.03318787	0.009346009	0.023841861	-0.666259766	0.807373047	-0.246337891	880.84	-71.77946256	-77.31925574	-2.719345452	-52
33491	0	0.38482666	-0.083190918	0.02545166	0.999999046	0.000240326	-3.33786E-05	0.000507355	9.620666504	-2.079772949	0.636291504	0.012016297	-0.00166893	0.025367738	-0.668701172	0.807617188	-0.243408203	880.88	-71.83311157	-77.27646937	-2.644835458	-52
33492	0	0.384440422	-0.08100605	0.024974823	0.999999046	0.000498772	-0.000249863	0.000938416	9.611010551	-2.025151253	0.624370575	0.024938588	-0.012493136	0.046920786	-0.666503906	0.809814453	-0.249511719	880.88	-72.02800214	-77.19447205	-2.383529576	-52
33493	0	0.384216309	-0.082702637	0.025024414	0.999999046	0.000240326	1.23978E-05	0.001018524	9.605407715	-2.067565918	0.625610352	0.012016299	0.000619888	0.050926218	-0.663818359	0.807373047	-0.246582031	880.9	-72.13679212	-77.09438305	-2.24589717	-54
33494	0	0.38515377	-0.078960419	0.022140503	0.999999046	-0.000141144	5.72205E-05	0.000548363	9.628844261	-1.974010468	0.553512573	-0.00705719	0.002861023	0.027418138	-0.6640625	0.807373047	-0.243652344	880.88	-72.19500327	-77.04426873	-2.210537035	-52
33495	0	0.387329102	-0.081054688	0.024902344	0.999999046	-0.000808716	-3.33786E-05	0.000282288	9.683227539	-2.026367188	0.622558594	-0.040435796	-0.00166893	0.014114382	-0.6640625	0.809570313	-0.240722656	880.88	-72.33166809	-77.02654446	-2.177318226	-52
33496	0	0.385083199	-0.08790493	0.025160789	0.999999046	-0.000144005	2.67029E-05	7.62939E-06	9.627079964	-2.197623253	0.629019737	-0.007200241	0.001335144	0.00038147	-0.661865234	0.811767578	-0.244140625	880.84	-72.32227938	-77.03655736	-2.209014509	-52
33497	0	0.385681152	-0.087280273	0.024291992	0.999999046	0.00069809	-3.33786E-05	-0.000965118	9.642028809	-2.182006836	0.607299805	0.034904488	-0.00166893	-0.048255932	-0.661376953	0.809326172	-0.246826172	880.78	-72.09645387	-77.15469298	-2.359712813	-54
33498	0	0.383649826	-0.084917068	0.026398659	0.999997139	0.001476288	-0.000267029	-0.001644135	9.591245651	-2.122926712	0.659966469	0.073814453	-0.013351451	-0.082206794	-0.666015625	0.807128906	-0.249267578	880.88	-71.78275409	-77.35484989	-2.508578333	-53
33499	0	0.383178711	-0.080566406	0.024536133	0.999995232	0.002185822	-0.000483513	-0.001838684	9.579467773	-2.014160156	0.61340332	0.10929123	-0.024175678	-0.091934333	-0.666015625	0.802734375	-0.248779297	880.9	-71.45438566	-77.58385844	-2.595716093	-52
33500	0	0.383107185	-0.073626518	0.022780418	0.999996185	0.001865387	-0.000721931	-0.001602173	9.577679634	-1.840662956	0.56951046	0.09326945	-0.036096612	-0.08010873	-0.672851563	0.798583984	-0.248046875	880.84	-71.31524411	-77.79616147	-2.531891015	-54
33501	0	0.382141113	-0.074890137	0.021911621	0.999996185	0.001755714	-0.00038147	-0.00164032	9.553527832	-1.872253418	0.547790527	0.087785807	-0.019073505	-0.082016072	-0.672851563	0.798339844	-0.256835938	880.88	-71.00761309	-78.0002576	-2.640867796	-54
33502	0	0.390627861	-0.069872856	0.02118969	0.999998093	0.001046181	-0.00083065	-0.000727654	9.765696526	-1.746821404	0.529742241	0.052309056	-0.041532532	-0.036382689	-0.677490234	0.793945313	-0.256347656	880.8	-71.16934175	-78.12252749	-2.353651061	-54
33503	0	0.388916016	-0.075866699	0.024414063	0.999999046	-0.000461578	-0.000380516	-0.001041412	9.722900391	-1.89666748	0.610351563	-0.023078924	-0.019025807	-0.05207063	-0.677246094	0.791748047	-0.256103516	880.88	-71.21895366	-78.26215589	-2.35482179	-54
33504	0	0.389778137	-0.081793785	0.025993347	0.999999046	-0.00109005	-0.00015831	-0.000167847	9.74445343	-2.044844627	0.649833679	-0.054502498	-0.007915498	-0.008392336	-0.682373047	0.791992188	-0.25	880.78	-71.38016565	-78.2985287	-2.324604734	-53
33505	0	0.38470459	-0.081176758	0.023498535	0.999998093	-0.000800133	-4.19617E-05	0.001155853	9.617614746	-2.029418945	0.587463379	-0.040006651	-0.002098084	0.057792683	-0.682128906	0.791992188	-0.252929688	880.84	-71.679292	-78.18651277	-2.109171229	-53
33506	0	0.377873421	-0.078117371	0.020778656	0.999999046	-0.000366211	0.000417709	0.000843048	9.446835518	-1.952934265	0.5194664	-0.01831055	0.020885471	0.042152412	-0.679931641	0.794189453	-0.247314453	880.88	-71.63461791	-78.09174547	-2.2068718	-53
33507	0	0.381713867	-0.073425293	0.021118164	0.999998093	-0.001086235	0.000415802	0.000904083	9.54284668	-1.835632324	0.527954102	-0.054311772	0.020790108	0.045204179	-0.677490234	0.796386719	-0.253417969	880.9	-71.6848046	-77.99059433	-2.27650081	-52
33508	0	0.386200905	-0.073561668	0.022133827	0.999998093	-0.001508713	0.000180244	0.00070858	9.655022621	-1.83904171	0.55334568	-0.075435674	0.009012227	0.035429017	-0.677734375	0.798583984	-0.247802734	880.8	-71.8703317	-77.91944458	-2.265211278	-53
33509	0	0.385375977	-0.076782227	0.025817871	0.999999046	-0.001209259	-0.000102043	0.000537872	9.634399414	-1.919555664	0.645446777	-0.060462969	-0.005102159	0.026893624	-0.672851563	0.798583984	-0.248046875	880.8	-72.13481879	-77.87693377	-2.132203756	-53
33510	0	0.388285637	-0.079942703	0.023163795	0.999999046	8.7738E-05	-2.86102E-05	0.00070858	9.707140923	-1.998567581	0.579094887	0.004386902	-0.001430512	0.035429004	-0.673095703	0.80078125	-0.242431641	880.84	-72.24019793	-77.81311908	-2.023141455	-52
33511	0	0.387207031	-0.077148438	0.020507813	0.999999046	2.67029E-05	8.86917E-05	0.000225067	9.680175781	-1.928710938	0.512695313	0.001335144	0.004434586	0.011253357	-0.673095703	0.80078125	-0.248291016	880.84	-72.21497354	-77.79810239	-2.042297406	-52
33512	0	0.382773399	-0.076526642	0.022592545	0.999999046	-0.000397682	0.000102997	0.000342369	9.569334984	-1.913166046	0.564813614	-0.01988411	0.005149842	0.017118455	-0.673095703	0.80078125	-0.248291016	880.84	-72.25010685	-77.76989495	-2.048129955	-52
33513	0	0.382324219	-0.075439453	0.020568848	0.999999046	-0.001018524	-6.77109E-05	0.000358582	9.558105469	-1.885986328	0.514221191	-0.050926218	-0.003385544	0.017929081	-0.670898438	0.805175781	-0.245849609	880.82	-72.44497753	-77.7460528	-1.967051386	-53
33514	0	0.385931969	-0.079547882	0.023160934	0.999998093	-0.001704216	-4.76837E-06	0.000770569	9.648299217	-1.988697052	0.579023361	-0.08521085	-0.000238419	0.038528465	-0.673339844	0.805419922	-0.239990234	880.9	-72.75080733	-77.674946	-1.858649252	-53
33515	0	0.384155273	-0.082397461	0.024963379	0.999999046	-0.001094818	0.0001688	0.000782013	9.603881836	-2.059936523	0.624084473	-0.054740923	0.00844002	0.039100659	-0.670898438	0.805175781	-0.239990234	880.84	-72.89955273	-77.59647717	-1.835073616	-52
33516	0	0.387249947	-0.08391571	0.026313782	0.999999046	-0.00055027	-3.24249E-05	0.000693321	9.681248665	-2.097892761	0.657844543	-0.027513508	-0.001621247	0.034666066	-0.666259766	0.807373047	-0.240478516	880.74	-73.07069369	-77.53428702	-1.722162546	-52
33517	0	0.383117676	-0.08605957	0.028137207	0.999999046	-0.000190735	-9.05991E-05	0.000350952	9.577941895	-2.151489258	0.703430176	-0.009536743	-0.004529953	0.017547608	-0.668701172	0.807373047	-0.234375	880.8	-73.1760474	-77.51119634	-1.646359578	-52
33518	0	0.381475449	-0.084812164	0.026935577	0.999999046	0.00044632	-2.47955E-05	0.000174522	9.536886215	-2.120304108	0.673389435	0.02231598	-0.001239777	0.00872612	-0.668701172	0.807373047	-0.237304688	880.88	-73.14849133	-77.50500692	-1.626883755	-53
33519	0	0.383605957	-0.086791992	0.026977539	0.999998093	0.001549721	-1.90735E-05	0.000339508	9.590148926	-2.169799805	0.674438477	0.077486071	-0.000953675	0.01697541	-0.668701172	0.807373047	-0.237304688	880.84	-73.01591828	-77.48022493	-1.590858191	-52
33520	0	0.38476944	-0.085261345	0.026921272	0.999996185	0.002389908	-8.86917E-05	0.000156403	9.619235992	-2.131533623	0.673031807	0.119495506	-0.00443459	0.007820137	-0.668701172	0.807373047	-0.243164063	880.74	-72.79333278	-77.47764779	-1.544233637	-52
33521	0	0.381164551	-0.08190918	0.026489258	0.999995232	0.002788544	-0.000163078	-0.000225067	9.52911377	-2.047729492	0.662231445	0.139427368	-0.008153926	-0.011253372	-0.668457031	0.807373047	-0.24609375	880.8	-72.50246089	-77.51928894	-1.524547377	-52
33522	0	0.383406639	-0.0818367	0.026087761	0.999995232	0.002929688	-0.000322342	-0.00056076	9.585165977	-2.045917511	0.652194023	0.146484595	-0.01611712	-0.028038067	-0.668457031	0.802734375	-0.245849609	880.74	-72.2201787	-77.60307293	-1.487448225	-52
33523	0	0.381164551	-0.077453613	0.023925781	0.999997139	0.002147675	-0.000437737	-0.000377655	9.52911377	-1.936340332	0.598144531	0.107383817	-0.021886844	-0.018882767	-0.66796875	0.800537109	-0.257324219	880.74	-72.11310831	-77.67108235	-1.343690211	-53
33524	0	0.388565063	-0.079641342	0.019350052	0.999999046	0.0004282	-0.000106812	4.95911E-05	9.714126587	-1.991033554	0.483751297	0.021409989	-0.005340576	0.002479553	-0.670410156	0.798339844	-0.257080078	880.88	-72.10794706	-77.68102228	-1.297886987	-53
33525	0	0.38104248	-0.076599121	0.019775391	0.999999046	-0.001296997	3.14713E-05	-0.000385284	9.526062012	-1.914978027	0.494384766	-0.064849873	0.001573563	-0.019264227	-0.672851563	0.798583984	-0.248046875	880.8	-72.16196582	-77.73372964	-1.408936683	-52
33526	0	0.380732536	-0.075626373	0.020212173	0.999995232	-0.002752304	0.000192642	-0.000595093	9.518313408	-1.890659332	0.505304337	-0.137615387	0.009632123	-0.029754678	-0.672851563	0.798339844	-0.250976563	880.84	-72.26808279	-77.80394101	-1.621518837	-52
33527	0	0.384033203	-0.078674316	0.022155762	0.999992371	-0.003764153	-8.39233E-05	-7.24792E-05	9.600830078	-1.96685791	0.553894043	-0.188208071	-0.004196177	-0.003623971	-0.673095703	0.80078125	-0.245361328	880.78	-72.71452644	-77.8268591	-1.603933472	-53
33528	0	0.388261795	-0.090369225	0.028184891	0.999997139	-0.002280235	-0.000301361	0.000601768	9.706544876	-2.259230614	0.704622269	-0.114011872	-0.015068068	0.030088453	-0.673339844	0.802978516	-0.239746094	880.9	-73.20629361	-77.78264119	-1.369579587	-52
33529	0	0.383422852	-0.09362793	0.031860352	0.999997139	0.001567841	-0.000517845	0.001422882	9.585571289	-2.340698242	0.796508789	0.078392091	-0.025892278	0.07114416	-0.673339844	0.805419922	-0.239990234	880.86	-73.48587714	-77.65426648	-0.90513028	-53
33530	0	0.383144379	-0.085850716	0.025137901	0.99998951	0.004304886	-0.000490189	0.001062393	9.578609467	-2.146267891	0.628447533	0.215245007	-0.024509511	0.053119836	-0.670898438	0.805175781	-0.239990234	880.88	-73.37902697	-77.56415134	-0.528533307	-53
33531	0	0.383178711	-0.076477051	0.021362305	0.99998951	0.004310608	-0.00051403	0.001049042	9.579467773	-1.91192627	0.534057617	0.215531112	-0.025701608	0.052452262	-0.670898438	0.802978516	-0.245605469	880.8	-73.27921765	-77.47668419	-0.143960458	-53
33532	0	0.383775711	-0.073764801	0.018853188	0.999997139	0.002301216	-0.000120163	0.000243187	9.594392776	-1.844120026	0.471329689	0.115060909	-0.006008154	0.012159358	-0.668212891	0.802734375	-0.248779297	880.8	-73.094797	-77.46522168	-0.082658563	-53
33533	0	0.386535645	-0.076965332	0.020324707	0.999999046	0.000694275	-7.9155E-05	0.000118256	9.663391113	-1.924133301	0.508117676	0.034713748	-0.003957749	0.005912781	-0.670654297	0.802734375	-0.254394531	880.78	-73.05592237	-77.46642703	-0.050891491	-53
33534	0	0.384200096	-0.078860283	0.02012825	0.999999046	0.000507355	-1.14441E-05	0.000216484	9.605002403	-1.971507072	0.503206253	0.025367738	-0.000572205	0.010824204	-0.670654297	0.802734375	-0.254394531	880.8	-73.02033019	-77.45479995	-0.039248299	-52
33535	0	0.388000488	-0.075927734	0.019042969	0.999999046	0.000198364	-0.00039196	0.00019455	9.700012207	-1.898193359	0.476074219	0.009918213	-0.019598008	0.009727478	-0.665771484	0.800292969	-0.257568359	880.74	-73.20484969	-77.45862655	0.170614872	-52
33536	0	0.387253761	-0.075461388	0.019073486	0.999999046	-0.001149178	-0.000255585	9.15527E-05	9.681344032	-1.886534691	0.476837158	-0.057458891	-0.012779239	0.004577638	-0.668212891	0.800537109	-0.254394531	880.88	-73.46183421	-77.46949856	0.294686671	-52
33537	0	0.38684082	-0.080993652	0.021972656	0.999997139	-0.002037048	0.000119209	-8.39233E-05	9.671020508	-2.024841309	0.549316406	-0.101852488	0.005960469	-0.00419617	-0.668212891	0.800537109	-0.254394531	880.84	-73.60978337	-77.48746617	0.210038892	-53
33538	0	0.385689735	-0.081866264	0.020142555	0.999997139	-0.001934052	0.000465393	-0.000511169	9.642243385	-2.046656609	0.503563881	-0.096702644	0.02326967	-0.02555849	-0.668212891	0.800537109	-0.254394531	880.8	-73.51173324	-77.54121992	-0.109176905	-53
33539	0	0.384765625	-0.081115723	0.021484375	0.999998093	-0.001662254	0.000423431	-0.000659943	9.619140625	-2.027893066	0.537109375	-0.083112763	0.021171582	-0.03299715	-0.668212891	0.800537109	-0.251464844	880.84	-73.37934588	-77.6125744	-0.433633646	-53
33540	0	0.381496429	-0.080134392	0.021356583	0.999997139	-0.001872063	0.000183105	-0.001038551	9.537410736	-2.003359795	0.533914566	-0.093603206	0.00915528	-0.051927606	-0.670654297	0.800537109	-0.248535156	880.74	-73.33185156	-77.73329168	-0.696547348	-52
33541	0	0.385131836	-0.084655762	0.024108887	0.999999046	-0.001083374	-0.000342369	-0.000217438	9.628295898	-2.116394043	0.602722168	-0.054168713	-0.017118458	-0.01087189	-0.670654297	0.80078125	-0.242675781	880.8	-73.58237537	-77.78082024	-0.569908826	-52
33542	0	0.383781433	-0.08472538	0.024332047	0.999999046	0.000576019	-0.000156403	-8.10623E-05	9.594535828	-2.118134499	0.608301163	0.028800966	-0.00782013	-0.004053116	-0.673095703	0.80078125	-0.242431641	880.82	-73.5692111	-77.80699951	-0.520785357	-52
33543	0	0.384460449	-0.079040527	0.020751953	0.999999046	0.000442505	-0.000300407	3.8147E-06	9.61151123	-1.976013184	0.518798828	0.022125245	-0.015020371	0.000190735	-0.670898438	0.802978516	-0.245605469	880.88	-73.65771892	-77.8285368	-0.378623334	-52
33544	0	0.383800507	-0.077683449	0.020161629	0.999999046	-0.000237465	-8.2016E-05	-8.39233E-05	9.595012665	-1.94208622	0.504040718	-0.011873245	-0.0041008	-0.004196167	-0.675537109	0.80078125	-0.245361328	880.94	-73.70009951	-77.85275811	-0.361566871	-52
33545	0	0.384094238	-0.078735352	0.023925781	0.999999046	-0.000423431	-0.000449181	0.000114441	9.602355957	-1.968383789	0.598144531	-0.021171571	-0.022459032	0.005722046	-0.670654297	0.798339844	-0.242431641	880.9	-73.98073314	-77.86684371	-0.124458426	-53
33546	0	0.382691383	-0.079451561	0.021194458	0.999999046	0.000324249	-0.000501633	0.000685692	9.567284584	-1.986289024	0.52986145	0.016212466	-0.025081638	0.034284596	-0.673339844	0.802978516	-0.236816406	880.9	-74.28555982	-77.81933174	0.211023908	-52
33547	0	0.381164551	-0.081176758	0.019592285	0.999998093	0.000905037	-0.000648499	0.001197815	9.52911377	-2.029418945	0.489807129	0.045251866	-0.032424941	0.059890774	-0.673339844	0.801025391	-0.239501953	880.88	-74.66798848	-77.71925317	0.700758232	-53
33548	0	0.383681297	-0.080658913	0.018568039	0.999999046	-0.000138283	-0.000278473	0.000240326	9.592032433	-2.016472816	0.464200974	-0.006914139	-0.013923645	0.012016297	-0.670898438	0.80078125	-0.242675781	880.88	-74.84557568	-77.71339119	0.867080972	-52
33549	0	0.382568359	-0.077697754	0.017272949	0.999999046	0.000289917	-0.000220299	0.000411987	9.564208984	-1.942443848	0.43182373	0.01449585	-0.011014939	0.020599366	-0.670898438	0.803222656	-0.245849609	880.72	-74.96819936	-77.68687467	1.03241811	-53
33550	0	0.381656647	-0.078856468	0.018491745	0.999999046	-0.00063324	8.7738E-05	0.000198364	9.541416168	-1.971411705	0.462293625	-0.03166199	0.004386902	0.009918214	-0.671142578	0.803222656	-0.239990234	880.84	-75.01119712	-77.67490412	0.9975867	-52
33551	0	0.390197754	-0.081237793	0.015319824	0.999999046	-0.000938416	0.00023365	0.000411987	9.754943848	-2.030944824	0.382995605	-0.046920785	0.011682513	0.020599369	-0.668701172	0.805419922	-0.243164063	880.88	-75.0452903	-77.63508579	0.926387808	-53
33552	0	0.387923241	-0.083299637	0.017479897	0.999998093	-0.00144577	0.000134468	0.00014019	9.698081017	-2.082490921	0.436997414	-0.072288539	0.006723406	0.007009509	-0.671142578	0.805419922	-0.237060547	880.94	-75.1516034	-77.62828979	0.861565446	-53
33553	0	0.386413574	-0.084411621	0.018554688	0.999998093	-0.001353264	-0.000106812	0.00050354	9.660339355	-2.110290527	0.463867188	-0.067663216	-0.005340578	0.025177011	-0.668945313	0.805419922	-0.234375	880.8	-75.41754358	-77.58819172	0.971054563	-53
33554	0	0.378825188	-0.084601402	0.018977165	0.999999046	-0.000616074	-0.000238419	0.000506401	9.470629692	-2.115035057	0.474429131	-0.030803684	-0.01192093	0.025320056	-0.668945313	0.807617188	-0.231689453	880.8	-75.66464544	-77.55125367	1.144162513	-52
33555	0	0.383544922	-0.083068848	0.016784668	0.999999046	-0.000240326	-0.000365257	0.000492096	9.588623047	-2.076721191	0.419616699	-0.012016297	-0.018262864	0.024604799	-0.668945313	0.805419922	-0.234375	880.8	-75.92986144	-77.51928145	1.389403415	-53
33556	0	0.38292408	-0.086446762	0.019330978	0.999999046	-0.00057888	-0.000396729	0.000644684	9.573101997	-2.161169052	0.48327446	-0.02894402	-0.019836429	0.032234197	-0.666503906	0.807617188	-0.234619141	880.8	-76.26705843	-77.47072315	1.671578503	-52
33557	0	0.386169434	-0.087768555	0.022399902	0.999999046	0.000865936	-0.000292778	0.000709534	9.65423584	-2.194213867	0.559997559	0.043296824	-0.014638904	0.035476692	-0.669189453	0.809814453	-0.231689453	880.88	-76.39181968	-77.41163808	1.896359305	-52
33558	0	0.385082245	-0.087298393	0.023483276	0.999995232	0.002588272	-0.000585556	0.000910759	9.627056122	-2.182459831	0.587081909	0.129413775	-0.02927784	0.045538008	-0.666503906	0.807617188	-0.231689453	880.84	-76.48622988	-77.33767096	2.286504517	-52
33559	0	0.386291504	-0.083312988	0.020385742	0.999992371	0.003640175	-0.000530243	-7.62939E-05	9.657287598	-2.082824707	0.509643555	0.182009154	-0.026512206	-0.003814706	-0.666503906	0.807617188	-0.237548828	880.94	-76.31313833	-77.37223355	2.526628417	-53
33560	0	0.386868477	-0.078382492	0.015357971	0.999991417	0.003825188	-0.000761032	-0.00025177	9.671711922	-1.959562302	0.38394928	0.191259871	-0.038051702	-0.012588533	-0.668701172	0.805419922	-0.243164063	880.84	-76.21339472	-77.43304629	2.864764223	-52
33561	0	0.387939453	-0.078979492	0.01373291	0.999995232	0.002948761	-0.000685692	-0.000259399	9.698486328	-1.974487305	0.343322754	0.147438276	-0.034284644	-0.012969991	-0.668701172	0.805175781	-0.24609375	880.9	-76.1776085	-77.49302004	3.162639621	-52
33562	0	0.385744095	-0.078193665	0.016593933	0.999997139	0.0020504	-0.000406265	-0.000283241	9.643602371	-1.954841614	0.414848328	0.102520065	-0.020313278	-0.014162074	-0.668457031	0.802978516	-0.248779297	880.84	-76.1026249	-77.54828149	3.31542759	-52
33563	0	0.385986328	-0.074462891	0.014221191	0.999999046	0.000736237	-5.62668E-05	-0.000606537	9.649658203	-1.861572266	0.355529785	0.036811834	-0.00281334	-0.030326848	-0.668457031	0.802978516	-0.251708984	880.88	-75.96161832	-77.63031343	3.249593826	-53
33564	0	0.384306908	-0.073854446	0.014286041	0.999999046	-0.00133419	-8.58307E-05	-0.000228882	9.607672691	-1.84636116	0.357151031	-0.066709539	-0.004291536	-0.011444095	-0.670654297	0.80078125	-0.254394531	880.88	-76.12074699	-77.67158473	3.260384728	-53
33565	0	0.383666992	-0.079589844	0.015625	0.999994278	-0.00329113	0.000270844	0.000213623	9.591674805	-1.989746094	0.390625	-0.164556804	0.0135422	0.010681172	-0.670898438	0.80078125	-0.245605469	880.88	-76.37876646	-77.6539971	3.135760005	-52
33566	0	0.381546021	-0.082383156	0.019134521	0.999991417	-0.004056931	0.000261307	0.00032711	9.538650513	-2.059578896	0.478363037	-0.202847089	0.013065374	0.01635556	-0.670898438	0.80078125	-0.242675781	880.88	-76.74257532	-77.62408843	3.037962581	-53
33567	0	0.380432129	-0.08605957	0.0234375	0.999993324	-0.003391266	0.000458717	0.000667572	9.510803223	-2.151489258	0.5859375	-0.169563637	0.022935914	0.033378669	-0.671142578	0.805419922	-0.237060547	880.84	-76.96876395	-77.55086423	2.874291323	-52
33568	0	0.382917404	-0.089279175	0.021170616	0.999997139	-0.002064705	0.000219345	0.000956535	9.572935104	-2.23197937	0.529265404	-0.103235335	0.010967264	0.047826809	-0.671386719	0.807617188	-0.234375	880.8	-77.19617537	-77.45126652	2.868260274	-52
33569	0	0.387573242	-0.089050293	0.019958496	0.999999046	8.7738E-05	0.00017643	0.000621796	9.689331055	-2.226257324	0.498962402	0.004386902	0.008821488	0.031089785	-0.666748047	0.812011719	-0.235107422	880.8	-77.15920122	-77.38989731	2.842446502	-52
33570	0	0.387094498	-0.085195541	0.018217087	0.999999046	0.001148224	0.000333786	0.000545502	9.677362442	-2.129888535	0.45542717	0.05741121	0.016689305	0.027275093	-0.669189453	0.809814453	-0.231689453	880.8	-76.91423569	-77.33293509	2.717279382	-53
33571	0	0.386535645	-0.080749512	0.019592285	0.999997139	0.001838684	0.000695229	-0.000331879	9.663391113	-2.018737793	0.489807129	0.091934265	0.034761452	-0.016593944	-0.666748047	0.809814453	-0.231933594	880.84	-76.30831378	-77.36415317	2.294828797	-52
33572	0	0.385890961	-0.078351021	0.018707275	0.999998093	0.001649857	0.000481606	-0.000106812	9.647274017	-1.95877552	0.467681885	0.082492869	0.024080288	-0.005340579	-0.666259766	0.807373047	-0.234619141	880.8	-75.85544596	-77.3756546	2.007043493	-52
33573	0	0.386901855	-0.077209473	0.014282227	0.999999046	0.001148224	0.00048542	-0.00056839	9.672546387	-1.930236816	0.357055664	0.057411212	0.024271019	-0.028419504	-0.668701172	0.805175781	-0.240234375	880.78	-75.39892609	-77.43817742	1.664130143	-53
33574	0	0.387158394	-0.077102661	0.014956474	0.999999046	-0.000612259	0.000806808	-0.00078392	9.678959846	-1.927566528	0.373911858	-0.030612954	0.040340435	-0.039196025	-0.668457031	0.802978516	-0.242919922	880.8	-74.95201666	-77.51491855	1.131003402	-53
33575	0	0.381774902	-0.080200195	0.018981934	0.999998093	-0.001494408	0.000614166	-0.000297546	9.544372559	-2.005004883	0.47454834	-0.074720416	0.030708327	-0.014877326	-0.668457031	0.805175781	-0.243164063	880.8	-74.7642882	-77.54304501	0.762633696	-52
33576	0	0.381858826	-0.085717201	0.022794724	0.999997139	-0.002217293	0.000749588	-0.000378609	9.546470642	-2.142930031	0.569868088	-0.110864743	0.037479436	-0.018930453	-0.670898438	0.805175781	-0.239990234	880.8	-74.57872174	-77.57550997	0.310747448	-53
33577	0	0.381225586	-0.08392334	0.022583008	0.999996185	-0.002455711	0.00062561	-7.24792E-05	9.530639648	-2.098083496	0.564575195	-0.1227857	0.031280551	-0.003623966	-0.668457031	0.805175781	-0.243164063	880.84	-74.52373517	-77.57756319	-0.021379988	-52
33578	0	0.383589745	-0.089048386	0.023174286	0.999997139	-0.002038956	0.000677109	0.000656128	9.589743614	-2.226209641	0.579357147	-0.10194787	0.033855467	0.032806424	-0.666259766	0.807373047	-0.234619141	880.78	-74.49710911	-77.49712736	-0.289226105	-52
33579	0	0.381286621	-0.090026855	0.021850586	0.999997139	-0.002033234	0.000912666	-0.000125885	9.532165527	-2.250671387	0.546264648	-0.101661767	0.045633354	-0.006294256	-0.666259766	0.807373047	-0.237548828	880.84	-74.24576553	-77.49515922	-0.775578371	-52
33580	0	0.379858971	-0.086125374	0.024634361	0.999999046	-0.000412941	0.000150681	4.1008E-05	9.496474266	-2.153134346	0.615859032	-0.02064705	0.007534027	0.0020504	-0.668945313	0.809570313	-0.234619141	880.88	-74.21059504	-77.49797075	-0.856942702	-52
33581	0	0.379272461	-0.085754395	0.023376465	0.999999046	0.000164032	-0.000178337	-0.000152588	9.481811523	-2.143859863	0.584411621	0.008201599	-0.008916855	-0.007629395	-0.666503906	0.807373047	-0.231689453	880.8	-74.24557367	-77.53212719	-0.804016111	-53
33582	0	0.381748199	-0.087645531	0.022413254	0.999999046	0.000450134	-0.000610352	-0.000328064	9.543704987	-2.191138268	0.560331345	0.022506716	-0.030517582	-0.0164032	-0.666503906	0.809570313	-0.237792969	880.78	-74.43994925	-77.59867134	-0.542799765	-52
33583	0	0.381103516	-0.088684082	0.02154541	0.999999046	0.000537872	-0.000723839	-0.00044632	9.527587891	-2.217102051	0.538635254	0.02689362	-0.036191946	-0.022315983	-0.668701172	0.805175781	-0.228515625	880.74	-74.66791546	-77.68117229	-0.254684836	-52
33584	0	0.385365486	-0.093018532	0.019621849	0.999998093	0.001033783	-0.000994682	9.44138E-05	9.634137154	-2.325463295	0.490546227	0.051689166	-0.049734133	0.004720689	-0.668945313	0.807373047	-0.231445313	880.88	-75.05487523	-77.71109692	0.258403651	-53
33585	0	0.384094238	-0.092712402	0.020080566	0.999996185	0.002522469	-0.000972748	-0.000385284	9.602355957	-2.317810059	0.50201416	0.126123585	-0.048637451	-0.019264245	-0.668701172	0.807373047	-0.237304688	880.78	-75.1986234	-77.79245594	0.702635383	-53
33586	0	0.385855675	-0.092122078	0.021809578	0.99998951	0.004365921	-0.00053978	-0.000770569	9.646391869	-2.303051949	0.545239449	0.218296777	-0.026989073	-0.03852857	-0.673339844	0.802978516	-0.239746094	880.8	-74.85847538	-77.90326747	0.860375404	-52
33587	0	0.387817383	-0.088439941	0.014343262	0.999983788	0.005466461	-0.000498772	-0.00088501	9.69543457	-2.210998535	0.358581543	0.273324467	-0.024938712	-0.044250716	-0.673095703	0.80078125	-0.245361328	880.88	-74.35402738	-78.02543753	0.972799723	-52
33588	0	0.39236927	-0.085486412	0.005978584	0.99998951	0.004292488	-0.000740051	-0.000533104	9.809231758	-2.137160301	0.149464607	0.214625094	-0.037002682	-0.026655283	-0.675292969	0.796386719	-0.250732422	880.8	-74.16302763	-78.11642734	1.268108197	-52
33589	0	0.391296387	-0.090270996	0.00579834	0.999997139	0.002033234	-0.000647545	-0.000328064	9.782409668	-2.256774902	0.144958496	0.101661761	-0.032377268	-0.016403211	-0.677490234	0.793945313	-0.256347656	880.9	-74.21830659	-78.18171902	1.55797087	-52
33590	0	0.386787415	-0.092066765	0.006464958	0.999992371	0.003621101	-0.001097679	0.000281334	9.669685364	-2.301669121	0.161623955	0.181055503	-0.054884089	0.01406673	-0.677246094	0.791748047	-0.259033203	880.88	-74.42481062	-78.19314059	2.185331152	-52
33591	0	0.377929688	-0.090576172	0.007751465	0.999988556	0.004368782	-0.00164032	0.00069809	9.448242188	-2.264404297	0.193786621	0.218439913	-0.082016296	0.03490461	-0.677001953	0.789550781	-0.264648438	880.74	-74.89593667	-78.17369717	3.173149749	-52
33592	0	0.38551712	-0.097190857	0.009957314	0.99998951	0.004063606	-0.001468658	0.000758171	9.637928009	-2.429771423	0.248932838	0.203180965	-0.073433158	0.037908676	-0.677001953	0.787353516	-0.264404297	880.8	-75.31960546	-78.14021107	4.067964319	-53
33593	0	0.381896973	-0.104492188	0.007019043	0.999980927	0.005925179	-0.001113892	-0.000614166	9.547424316	-2.612304688	0.175476074	0.29626074	-0.055694921	-0.030708501	-0.677001953	0.787109375	-0.270263672	880.88	-75.1562728	-78.24692313	4.574317032	-52
33594	0	0.379660606	-0.100681305	0.009444237	0.99997139	0.007357597	-0.000756264	-0.000930786	9.49151516	-2.517032623	0.236105919	0.367883275	-0.037813537	-0.046539738	-0.681152344	0.780517578	-0.28125	880.8	-74.59656393	-78.37764035	4.845735846	-53
33595	0	0.383972168	-0.094360352	0.010009766	0.999958038	0.008984566	-0.000156403	-0.001293182	9.599304199	-2.359008789	0.250244141	0.449234458	-0.007820237	-0.064660007	-0.680664063	0.773681641	-0.295410156	880.88	-73.46725676	-78.52950333	4.726990793	-52
33596	0	0.390675545	-0.089224815	0.0061903	0.999954224	0.009447098	0.000557899	-0.001338005	9.766888618	-2.230620384	0.1547575	0.472362081	0.027895398	-0.066901272	-0.684814453	0.764648438	-0.306152344	880.8	-71.8739121	-78.66095529	4.181294063	-52
33597	0	0.389343262	-0.086608887	0.004577637	0.999959946	0.008717537	0.001167297	-0.001522064	9.733581543	-2.165222168	0.114440918	0.435882635	0.058365643	-0.076104221	-0.687011719	0.758056641	-0.320068359	880.78	-69.97659108	-78.78602401	3.238277908	-51
33598	0	0.390812874	-0.085327148	0.006560326	0.999967575	0.007706642	0.001282692	-0.001753807	9.770321846	-2.133178711	0.164008141	0.385336225	0.064135283	-0.08769129	-0.688720703	0.751220703	-0.337158203	880.8	-68.0565076	-78.92485477	2.161875937	-51
33599	0	0.384216309	-0.081542969	0.006469727	0.999973297	0.0070467	0.001022339	-0.001579285	9.605407715	-2.038574219	0.161743164	0.3523381	0.051117397	-0.078964934	-0.690673828	0.7421875	-0.344970703	880.84	-66.36271498	-79.05013388	1.233321482	-52
33600	0	0.378605843	-0.081976891	0.006637573	0.999976158	0.006573677	0.000597	-0.001726151	9.465146065	-2.049422264	0.165939331	0.328686403	0.029850238	-0.086308195	-0.694824219	0.735595703	-0.361816406	880.8	-64.89356434	-79.20580056	0.491705782	-52
33601	0	0.371643066	-0.086669922	0.006103516	0.999987602	0.004550934	0.000424385	-0.00188446	9.29107666	-2.166748047	0.152587891	0.227547619	0.02121934	-0.094223406	-0.694335938	0.726318359	-0.369873047	880.8	-63.68445609	-79.38262832	-0.21545383	-52
33602	0	0.366445541	-0.095662117	0.007718086	0.999974251	0.006496429	0.000268936	-0.00291729	9.161138535	-2.391552925	0.192952156	0.324824222	0.013446922	-0.145865721	-0.701171875	0.722167969	-0.375	880.88	-62.01377605	-79.66855448	-1.179075737	-53
33603	0	0.361022949	-0.097045898	0.006652832	0.999939919	0.010059357	7.34329E-05	-0.004177094	9.02557373	-2.426147461	0.166320801	0.502977781	0.003671719	-0.208858805	-0.705322266	0.708740234	-0.385253906	880.88	-59.56814182	-80.08385391	-2.522448512	-54
33604	0	0.370851517	-0.093777657	0.009602547	0.999899864	0.01330471	-6.86646E-05	-0.004673004	9.271287918	-2.344441414	0.240063667	0.665257569	-0.003433341	-0.233657952	-0.709228516	0.695068359	-0.404541016	880.84	-56.48760349	-80.5430912	-4.132626369	-54
33605	0	0.384216309	-0.081298828	0.026855469	0.999809265	0.018910408	0.001003265	-0.004638672	9.605407715	-2.032470703	0.671386719	0.945580314	0.050166448	-0.23194829	-0.719970703	0.677490234	-0.422851563	880.78	-51.91625952	-80.9071651	-6.624177553	-54
33606	0	0.391190529	-0.049125671	0.017004013	0.999843597	0.01686573	0.004229546	-0.003059387	9.779763222	-1.228141785	0.425100327	0.843330329	0.211488268	-0.152977308	-0.720703125	0.65234375	-0.455810547	880.8	-46.34199098	-80.85627862	-10.34982017	-54
33607	0	0.39666748	-0.051879883	0.014038086	0.999969482	0.00350666	0.00680542	0.000980377	9.916687012	-1.29699707	0.350952148	0.175334764	0.340274375	0.049019347	-0.722167969	0.636474609	-0.474853516	880.78	-43.19468522	-80.22586745	-13.14170005	-55
33608	0	0.391224861	-0.062278748	0.039516449	0.999956131	0.002632141	0.008782387	0.001749039	9.780621529	-1.556968689	0.987911224	0.131608967	0.439125715	0.087453205	-0.714599609	0.636230469	-0.489990234	880.8	-40.08173541	-79.34322205	-16.00829869	-55
33609	0	0.359069824	-0.063537598	0.045471191	0.999950409	0.000874519	0.009597778	0.002109528	8.976745605	-1.588439941	1.136779785	0.043726677	0.479896701	0.105478091	-0.702392578	0.637939453	-0.502441406	880.9	-37.50746029	-78.3374099	-18.54392957	-55
33610	0	0.356075287	-0.06490612	0.04675293	0.999938965	0.000697136	0.010704994	0.002411842	8.901882172	-1.622653008	1.168823242	0.034857499	0.535260496	0.120594547	-0.690185547	0.639648438	-0.518066406	880.8	-35.16346103	-77.18869175	-20.8736647	-57
33611	0	0.338806152	-0.083740234	0.059204102	0.999879837	-0.002444267	0.014938354	0.003116608	8.470153809	-2.093505859	1.480102539	-0.122218229	0.74694746	0.155836587	-0.677978516	0.641357422	-0.539306641	880.74	-32.77721052	-75.57207929	-23.61554692	-57
33612	0	0.309684753	-0.110250473	0.073762894	0.999785423	0.001606941	0.020002365	0.005085945	7.742118835	-2.756261826	1.844072342	0.080352801	1.000189702	0.254315423	-0.653808594	0.649414063	-0.552978516	880.78	-30.1412183	-73.31376862	-26.19853738	-58
33613	0	0.283203125	-0.099365234	0.079589844	0.999663353	0.009399414	0.021538734	0.010978699	7.080078125	-2.484130859	1.989746094	0.470023418	1.077057519	0.548996509	-0.622070313	0.652587891	-0.587402344	880.8	-28.75968274	-70.54611198	-26.57199103	-57
33614	0	0.259210587	-0.151443481	0.102395058	0.999456406	0.012282372	0.026522636	0.015227318	6.480264664	-3.786087036	2.559876442	0.614229804	1.326372007	0.761503788	-0.575683594	0.657226563	-0.631347656	880.84	-27.67098411	-67.03924741	-26.29935543	-60
33615	0	0.216430664	-0.143798828	0.133850098	0.999181747	0.021454811	0.029193878	0.017978668	5.410766602	-3.594970703	3.346252441	1.073033239	1.460092169	0.899178674	-0.521484375	0.652832031	-0.683837891	880.8	-25.97711489	-63.11530164	-25.55725434	-60
33616	0	0.194978714	-0.218381882	0.164069176	0.998951912	0.024992943	0.033449173	0.018718719	4.87446785	-5.459547043	4.101729393	1.250083655	1.673042855	0.936262906	-0.452636719	0.643310547	-0.739501953	880.9	-23.77324611	-58.71935659	-24.94909005	-60
33617	0	0.177734375	-0.243713379	0.180480957	0.998609543	0.029118538	0.038417816	0.021305084	4.443359375	-6.092834473	4.512023926	1.456601766	1.921781206	1.065747993	-0.375732422	0.615234375	-0.802978516	880.88	-21.34557644	-53.69293403	-24.02972663	-60
33618	0	0.204501152	-0.282829285	0.168751717	0.99817276	0.02849102	0.04553318	0.027666092	5.112528801	-7.070732117	4.218792915	1.425419139	2.27804642	1.384147589	-0.279296875	0.584472656	-0.867431641	880.74	-19.55209574	-47.66483628	-22.32833347	-75
33619	0	0.287231445	-0.303405762	0.144470215	0.99696064	0.043647766	0.054062843	0.035217285	7.180786133	-7.585144043	3.611755371	2.184601541	2.705883515	1.762650011	-0.155761719	0.541503906	-0.926269531	880.74	-16.48277876	-40.48975501	-19.88351648	-73
33620	0	0.348884583	-0.244950294	0.139601707	0.995789528	0.055569649	0.062297821	0.037855148	8.722114563	-6.123757362	3.490042686	2.782388031	3.119269522	1.895417984	-0.013671875	0.454833984	-0.991455078	880.78	-11.99247617	-32.46892863	-17.15332693	-69
33621	0	0.324951172	-0.213928223	0.189025879	0.995260239	0.059628487	0.066696167	0.038116455	8.123779297	-5.348205566	4.725646973	2.986143564	3.340086946	1.90883944	0.146484375	0.336425781	-1.031494141	880.88	-6.87127687	-24.18105376	-14.0297342	-66
33622	0	0.300024033	-0.169425011	0.303554535	0.994504929	0.073988914	0.062010765	0.04047966	7.500600815	-4.235625267	7.588863373	3.706235866	3.106229132	2.027697918	0.304443359	0.195800781	-1.039794922	880.84	-0.020510535	-16.77849169	-9.973060439	-67
33623	0	0.428161621	-0.238708496	0.378051758	0.993601799	0.102603912	0.041981697	0.021537781	10.70404053	-5.967712402	9.451293945	5.141163685	2.103572579	1.079191366	0.433349609	-0.006591797	-1.018310547	880.78	10.92372481	-12.2093901	-7.275326682	-70
33624	0	0.383226395	-0.060310364	0.567933083	0.998039246	0.061389923	0.009696007	-0.007333755	9.580659866	-1.507759094	14.19832706	3.071503318	0.485117353	-0.366927554	0.501464844	-0.208984375	-0.978515625	880.78	17.97490747	-10.91947694	-7.762240288	-64
33625	0	0.038085938	0.15246582	0.687683105	0.999371529	0.018966675	-0.027346611	0.012187958	0.952148438	3.811645508	17.19207764	0.948532389	-1.367616968	0.60952554	0.504638672	-0.283447266	-0.97265625	880.78	19.9825118	-14.3273743	-7.356785712	-66
33626	0	0.049789429	0.21791172	0.722551346	0.992542267	0.093579292	-0.053738594	0.05668354	1.244735718	5.447793007	18.06378365	4.690629409	-2.693628296	2.841242702	0.414794922	-0.363769531	-0.998779297	880.94	29.54060285	-22.63150883	-4.0161873	-72
33627	0	0.299560547	0.472839355	0.412231445	0.989624977	0.124023438	-0.02175045	0.069179535	7.489013672	11.82098389	10.30578613	6.222705248	-1.091298894	3.470987933	0.256103516	-0.618896484	-0.930419922	880.9	41.29020108	-29.24299691	1.469480904	-69
33628	0	0.36589241	0.500330925	0.120423317	0.995951653	0.06865406	0.01442337	0.056200981	9.147310257	12.50827312	3.010582924	3.437342594	0.722143236	2.813847065	0.139404297	-0.825439453	-0.780517578	880.88	45.62740016	-32.45063068	8.289200931	-78
33629	0	0.33807373	0.324707031	-0.010559082	0.998941422	9.25064E-05	0.031295776	0.03370285	8.451843262	8.117675781	-0.263977051	0.004626953	1.565341015	1.685737185	0.086181641	-0.901855469	-0.709472656	880.9	42.22374408	-32.52100488	14.62010424	-70
33630	0	0.377882957	0.176491737	-0.031590462	0.998768806	-0.032405853	0.036870956	0.007152557	9.447073936	4.412293434	-0.789761543	-1.620957927	1.844304749	0.357774704	0.092773438	-0.875244141	-0.744384766	880.8	36.46161881	-29.75617347	18.54368432	-66
33631	0	0.292602539	0.152648926	-0.061279297	0.998379707	-0.04183197	0.038479805	0.002578735	7.315063477	3.816223145	-1.531982422	-2.092728666	1.925029841	0.129006436	0.148925781	-0.810058594	-0.805664063	880.88	30.21130145	-26.22885231	21.5900222	-81
33632	0	0.159527779	0.114670753	-0.068685532	0.998904228	-0.032244682	0.033540726	0.004940987	3.988194466	2.866768837	-1.71713829	-1.612822923	1.677648759	0.247139557	0.209472656	-0.73828125	-0.859130859	880.74	25.43631287	-23.09576925	24.11441202	-69
33633	0	0.056091309	0.090942383	-0.077514648	0.999468803	-0.021831512	0.024155617	0.001003265	1.402282715	2.27355957	-1.937866211	-1.091768763	1.207994539	0.050172145	0.262939453	-0.684082031	-0.890136719	880.84	22.42458799	-20.61789747	25.42766813	-78
33634	0	-0.035049438	0.07930851	-0.158729553	0.999568939	-0.024882317	0.015442848	-0.001890182	-0.876235962	1.982712746	-3.968238831	-1.244294467	0.772253279	-0.094522695	0.309814453	-0.645507813	-0.910644531	880.84	19.4093913	-18.89389725	25.87295634	-70
33635	0	-0.157104492	0.110778809	-0.216430664	0.998418808	-0.055682182	-0.001361847	0.007472992	-3.927612305	2.769470215	-5.410766602	-2.785576667	-0.068128239	0.373846554	0.339355469	-0.588134766	-0.952148438	880.88	12.75628516	-19.28330368	26.69246554	-80
33636	0	-0.125702858	-0.002727509	-0.04477787	0.995373726	-0.067072868	-0.060405731	0.032912254	-3.142571449	-0.068187714	-1.119446754	-3.358824458	-3.024952598	1.648155022	0.308837891	-0.459472656	-1.040527344	880.84	3.887812658	-26.68438262	29.62228794	-73
33637	0	0.387268066	-0.049072266	-0.140258789	0.991556168	-0.046790123	-0.115852356	0.034706116	9.68170166	-1.226806641	-3.506469727	-2.346112966	-5.808976277	1.740206328	0.10546875	-0.342773438	-1.1328125	880.74	-4.176331215	-40.03700712	34.36043863	-71
33638	0	2.311579704	0.363251686	2.954607964	0.99968338	-0.02303791	-0.008475304	0.005526543	57.78949261	9.081292152	73.86519909	-1.152017105	-0.423809911	0.276356299	-0.019287109	-0.275878906	-1.175292969	880.88	-7.391816645	-40.9200027	35.27159803	-75
33639	0	0.33807373	-0.409912109	0.124450684	0.999559402	-0.024878502	-0.011371613	0.011474609	8.451843262	-10.24780273	3.11126709	-1.244107593	-0.568664045	0.573814642	-0.122558594	-0.170898438	-1.178466797	880.74	-11.55687271	-41.97081639	37.25929762	-81
33640	0	0.07763195	0.197435379	-0.013354301	0.998229027	0.044770241	-0.037807465	0.010212898	1.940798759	4.935884476	-0.333857536	2.239834152	-1.891489724	0.51094651	-0.177734375	-0.182373047	-1.162597656	880.84	-8.218853305	-46.03217721	39.83919379	-79
33641	0	0.153259277	0.020935059	0.289306641	0.999724388	0.0063591	-0.022566795	0.000205994	3.831481934	0.523376465	7.232666016	0.317984156	-1.128443175	0.010300627	-0.255126953	-0.242431641	-1.1328125	880.9	-7.866092064	-48.58245029	40.36809431	-79
33642	0	0.242133141	-0.13412571	0.317358971	0.999172211	0.038041115	-0.014336586	-0.000721931	6.053328514	-3.353142738	7.933974266	1.902580206	-0.717026956	-0.036106526	-0.300048828	-0.272216797	-1.113037109	880.9	-3.564878917	-50.21542237	40.45096249	-75
33643	0	0.3828125	-0.055297852	0.129394531	0.999764442	0.020885468	-0.001986504	0.00554657	9.5703125	-1.382446289	3.234863281	1.044355354	-0.099332977	0.277350262	-0.321044922	-0.354736328	-1.078613281	880.84	-1.915979645	-50.403922	41.42960082	-73
33644	0	0.346851349	-0.021059036	0.167779922	0.999938965	0.007675171	0.001860619	0.007630348	8.671283722	-0.526475906	4.194498062	0.383766258	0.093032799	0.381525079	-0.329833984	-0.381347656	-1.067138672	880.88	-2.04665163	-50.15388859	42.7536638	-73
33645	0	0.333435059	-0.059020996	0.195983887	0.999923706	-0.006445885	0.009075165	0.005290985	8.335876465	-1.475524902	4.899597168	-0.322302395	0.453769728	0.264555953	-0.324707031	-0.385986328	-1.072753906	880.84	-3.410707555	-49.0806967	43.58421027	-74
33646	0	0.312049866	-0.079778671	0.156985283	0.999931335	-0.006106377	0.009940147	0.000184059	7.801246643	-1.994466782	3.924632072	-0.30532576	0.497018647	0.009203166	-0.305908203	-0.368652344	-1.081298828	880.84	-4.028099887	-47.93939412	43.47850694	-73
33647	0	0.295410156	-0.007995605	0.201538086	0.999872208	-0.0126791	0.009643555	9.15527E-05	7.385253906	-0.199890137	5.038452148	-0.633981818	0.48219813	0.00457783	-0.287353516	-0.351318359	-1.089599609	880.84	-5.371752706	-46.83584699	43.33507822	-73
33648	0	0.275911331	-0.013161659	0.307694435	0.999956131	0.007270813	0.005352974	-0.002380371	6.897783279	-0.329041481	7.692360878	0.363545932	0.267652586	-0.119020284	-0.268554688	-0.334228516	-1.106689453	880.94	-4.175547208	-46.24486562	42.83496514	-72
33649	0	0.336669922	0.004943848	0.326293945	0.999958038	-0.004683495	0.001544952	-0.007637024	8.416748047	0.123596191	8.157348633	-0.234177954	0.077248684	-0.381856456	-0.2578125	-0.359375	-1.102294922	880.88	-3.765195899	-46.12461469	41.529551	-72
33650	0	0.397695541	-0.111159325	0.284410477	0.999949455	-0.00872612	-0.000404358	-0.004834175	9.942388535	-2.778983116	7.110261917	-0.436313248	-0.020218231	-0.241712771	-0.251220703	-0.337158203	-1.116210938	880.78	-4.174371149	-46.20357095	40.71138639	-71
33651	0	0.422424316	-0.065185547	0.201782227	0.999861717	0.010940552	-0.010775566	-0.006336212	10.56060791	-1.629638672	5.044555664	0.54705275	-0.538803088	-0.316825181	-0.253662109	-0.339111328	-1.113037109	880.88	-2.204194884	-47.47277402	39.72337438	-73
33652	0	0.436144829	-0.054530144	0.209550858	0.999661446	0.015791893	-0.020130157	-0.004721642	10.90362072	-1.363253593	5.238771439	0.789683757	-1.006621459	-0.236108719	-0.281494141	-0.374023438	-1.09375	880.84	0.189499394	-49.78557089	38.93910683	-75
33653	0	0.400390625	-0.038574219	0.226257324	0.999252319	0.02430439	-0.029838562	-0.00359726	10.00976563	-0.964355469	5.656433105	1.215522288	-1.492299837	-0.179907792	-0.332763672	-0.423828125	-1.060302734	880.8	3.652651532	-53.18621545	38.06670967	-72
33654	0	0.329632759	0.105444908	0.165198326	0.999345779	-0.011704445	-0.032668114	-0.010112762	8.240818977	2.636122704	4.129958153	-0.585349748	-1.63376156	-0.505748287	-0.396484375	-0.470947266	-1.017822266	880.84	4.362938975	-56.83928845	35.57772308	-69
33655	0	0.247558594	0.026489258	0.182128906	0.998750687	-0.037745476	-0.027328491	-0.018024445	6.188964844	0.662231445	4.553222656	-1.888059919	-1.366993735	-0.901597627	-0.453613281	-0.439453125	-1.005371094	880.94	3.765985449	-59.81835683	31.21093075	-72
33656	0	0.220601082	-0.008979797	0.303860664	0.999411583	-0.006026268	-0.025871277	-0.021666527	5.515027046	-0.224494934	7.596516609	-0.301372443	-1.293817316	-1.083538617	-0.493896484	-0.397705078	-1.00390625	880.9	8.152999771	-62.50851198	25.41157511	-78
33657	0	0.208251953	0.044555664	0.330200195	0.99960041	0.0117836	-0.019724846	-0.016452789	5.206298828	1.113891602	8.255004883	0.589258442	-0.986373613	-0.822749	-0.529296875	-0.429931641	-0.975585938	880.9	14.10990137	-64.35426103	20.25986412	-82
33658	0	0.214123726	0.087061882	0.301677704	0.999921799	0.0049963	-0.00915432	-0.006854057	5.353093147	2.17654705	7.541942596	0.249821472	-0.45772787	-0.342711762	-0.549804688	-0.471679688	-0.935791016	880.9	16.91692992	-65.14004088	17.79267195	-84
33659	0	0.247619629	0.093688965	0.258911133	0.999854088	-0.016410828	0.004582405	-0.000518799	6.190490723	2.342224121	6.47277832	-0.820581126	0.229131352	-0.025941198	-0.556640625	-0.478271484	-0.940917969	881	14.88942868	-64.60035517	17.96017777	-86
33660	0	0.255478859	0.058015823	0.130108833	0.999668121	-0.023864746	0.009627342	0.000860214	6.386971474	1.450395584	3.252720833	-1.193369187	0.481420314	0.043015465	-0.543457031	-0.436035156	-0.965576172	880.94	11.48017825	-63.5325374	18.71342541	-87
33661	0	0.281066895	0.065795898	0.129577637	0.999224663	-0.037704468	0.006596565	0.009208679	7.026672363	1.644897461	3.239440918	-1.885710726	0.329913524	0.460552984	-0.528320313	-0.385009766	-0.994140625	880.88	4.919400994	-62.92150424	21.22647002	-82
33662	0	0.265538216	0.017442703	0.170780182	0.999001503	-0.041631699	-0.000850677	0.016152382	6.638455391	0.436067581	4.269504547	-2.082277617	-0.042548028	0.807887845	-0.527099609	-0.288574219	-1.031738281	880.88	-3.433430123	-63.03288089	25.24915474	-77
33663	0	0.278564453	0.040893555	0.116027832	0.999423027	-0.029956818	-0.010603905	0.011985779	6.964111328	1.022338867	2.900695801	-1.498128994	-0.53029722	0.599404215	-0.54296875	-0.19140625	-1.05078125	880.94	-9.83837458	-64.07670494	28.57045446	-73
33664	0	0.352977753	0.02028656	0.093238831	0.999601364	-0.027534485	-0.005484581	0.002716064	8.824443817	0.507164001	2.330970764	-1.376906863	-0.274265426	0.135821237	-0.572509766	-0.122802734	-1.052001953	880.84	-13.83674766	-64.6280112	29.50924211	-73
33665	0	0.557739258	-0.064147949	0.288696289	0.998642921	-0.046951294	0.018849373	0.012290955	13.94348145	-1.60369873	7.217407227	-2.348626619	0.942894969	0.61482572	-0.580322266	-0.054931641	-1.051269531	880.9	-20.57259504	-62.14316183	31.02985368	-72
33666	0	0.583696365	-0.337500572	0.335952759	0.999949455	-0.008512497	-0.002254486	0.004764557	14.59240913	-8.437514305	8.39881897	-0.425631959	-0.112726188	0.238231825	-0.543457031	0.051513672	-1.076904297	880.84	-22.6553865	-62.16826478	32.27745439	-73
33667	0	0.394287109	-0.053833008	0.202148438	0.999894142	0.008945465	-0.011347771	0.001346588	9.857177734	-1.345825195	5.053710938	0.447288956	-0.567408452	0.06733177	-0.558105469	0.049804688	-1.067382813	880.88	-22.84357564	-63.29328649	33.63985429	-72
33668	0	0.276273727	-0.050526619	0.104166031	0.999980927	0.003414154	-0.005105019	0.000597954	6.906843185	-1.263165474	2.604150772	0.170708786	-0.255252551	0.02989788	-0.581542969	0.032714844	-1.05859375	880.9	-22.99805004	-63.79375266	34.24965374	-72
33669	0	0.296630859	-0.036437988	0.127075195	0.999995232	-0.001041412	0.002491951	0.000682831	7.415771484	-0.910949707	3.176879883	-0.052070685	0.124597711	0.034141585	-0.583984375	0.028320313	-1.049316406	880.84	-22.9971408	-63.49072413	34.11694955	-73
33670	0	0.377340317	-0.076703072	0.183852196	0.999985695	-0.004066467	0.003324509	0.000832558	9.433507919	-1.91757679	4.596304893	-0.203324323	0.166226217	0.04162808	-0.576904297	0.037109375	-1.053466797	880.88	-23.30018789	-63.09232619	33.9358091	-73
33671	0	0.394104004	-0.101196289	0.197937012	0.999996185	-0.000842094	-0.002193451	-0.000534058	9.852600098	-2.529907227	4.948425293	-0.042104762	-0.109672653	-0.026702907	-0.570068359	0.045898438	-1.063232422	880.88	-23.44529114	-63.33484968	33.99022928	-73
33672	0	0.343502998	-0.064242363	0.163912773	0.999985695	0.000750542	-0.005046844	-0.001566887	8.587574959	-1.606059074	4.097819328	0.037527263	-0.252343422	-0.078344717	-0.579589844	0.041748047	-1.056640625	880.84	-23.45251211	-63.92453614	34.09470699	-73
33673	0	0.336547852	-0.054321289	0.149719238	0.999991417	-6.48499E-05	-0.003943443	-0.000961304	8.413696289	-1.358032227	3.742980957	-0.003242502	-0.197172706	-0.048065318	-0.591552734	0.040039063	-1.049804688	880.9	-23.58325235	-64.37128064	34.23250205	-73
33674	0	0.364315033	-0.064932823	0.144765854	0.999995232	-0.001556396	-0.00254631	-0.000463486	9.107875824	-1.62332058	3.619146347	-0.077819943	-0.127315715	-0.023174321	-0.599121094	0.040283203	-1.040771484	880.9	-23.86528538	-64.64884366	34.3481883	-74
33675	0	0.365905762	-0.068359375	0.15802002	0.999994278	-0.001467705	-0.002918243	0.000473022	9.147644043	-1.708984375	3.950500488	-0.073385372	-0.145912435	0.023651166	-0.606445313	0.044921875	-1.037841797	880.8	-24.38778029	-64.92097086	34.74041755	-74
33676	0	0.357178688	-0.063450813	0.145254135	0.999995232	-0.001400948	-0.002241135	0.001396179	8.929467201	-1.586270332	3.631353378	-0.070047483	-0.112056899	0.069809064	-0.611572266	0.047363281	-1.034667969	880.94	-25.04872976	-65.07710105	35.293271	-74
33677	0	0.358337402	-0.069580078	0.145874023	0.999996185	-0.001315117	-0.001560211	0.001739502	8.958435059	-1.739501953	3.646850586	-0.065755923	-0.078010653	0.086975202	-0.614257813	0.054443359	-1.032226563	880.88	-25.71131375	-65.14343808	35.85796249	-75
33678	0	0.367078781	-0.076494217	0.146726608	0.999997139	-0.000989914	-0.001390457	0.001395226	9.176969528	-1.912355423	3.668165207	-0.049495737	-0.069522914	0.069761333	-0.619384766	0.056884766	-1.026367188	880.88	-26.24549238	-65.20715384	36.32195519	-75
33679	0	0.366394043	-0.075622559	0.144897461	0.999998093	-6.38962E-05	-0.001243591	0.000938416	9.159851074	-1.890563965	3.622436523	-0.00319481	-0.062179591	0.046920795	-0.619384766	0.061279297	-1.026611328	880.9	-26.55869976	-65.27779362	36.65878779	-75
33680	0	0.360473633	-0.076965332	0.140075684	0.999999046	0.000370979	-0.000301361	0.000484467	9.01184082	-1.924133301	3.50189209	0.018548967	-0.015068055	0.02422333	-0.624267578	0.059326172	-1.029296875	880.84	-26.61810645	-65.27503142	36.77101799	-74
33681	0	0.36041069	-0.075730324	0.14041996	0.999997139	0.000854492	0.000481606	0.000306129	9.010267258	-1.893258095	3.510499001	0.042724617	0.024080281	0.015306475	-0.621826172	0.059082031	-1.026367188	880.9	-26.49617173	-65.20152782	36.74430329	-75
33682	0	0.362467766	-0.076666832	0.143694878	0.999998093	0.000845909	0.001261711	-0.000128746	9.061694145	-1.916670799	3.592371941	0.042295472	0.06308558	-0.006437304	-0.624267578	0.057128906	-1.023193359	880.88	-26.19471909	-65.07020668	36.51857256	-74
33683	0	0.360961914	-0.075256348	0.14654541	0.999997139	0.001121521	0.001614571	-0.000576019	9.024047852	-1.881408691	3.663635254	0.056076089	0.080728587	-0.028800984	-0.619140625	0.056884766	-1.029296875	880.88	-25.72865969	-64.92450641	36.14539932	-74
33684	0	0.361124992	-0.072926521	0.146349907	0.999997139	0.001027107	0.001779556	-0.000638008	9.028124809	-1.823163033	3.658747673	0.051355402	0.088977882	-0.03190043	-0.616699219	0.052246094	-1.031982422	880.9	-25.24783021	-64.76378083	35.74356835	-74
33685	0	0.361755371	-0.07220459	0.149536133	0.999996185	0.001267433	0.002029419	-0.000686646	9.043884277	-1.805114746	3.73840332	0.063371724	0.101471052	-0.034332311	-0.611572266	0.047363281	-1.037597656	880.88	-24.70948713	-64.57815506	35.30791304	-74
33686	0	0.358670235	-0.071569443	0.153615952	0.999996185	0.001442909	0.001986504	-0.000850677	8.966755867	-1.789236069	3.840398788	0.072145543	0.099325292	-0.042533922	-0.606689453	0.047363281	-1.041015625	880.9	-24.12671781	-64.40306638	34.84427968	-74
33687	0	0.356201172	-0.068115234	0.155761719	0.999996185	0.001656532	0.00188446	-0.000926971	8.905029297	-1.702880859	3.894042969	0.082826713	0.094223135	-0.046348627	-0.6015625	0.044921875	-1.043945313	880.9	-23.5196198	-64.24027675	34.38010554	-74
33688	0	0.357507706	-0.068702698	0.157827377	0.999997139	0.00156498	0.001283646	-0.000953674	8.937692642	-1.717567444	3.945684433	0.078249043	0.064182335	-0.047683756	-0.598876953	0.038085938	-1.043457031	880.84	-22.97939811	-64.1400343	33.97825848	-74
33689	0	0.358032227	-0.065063477	0.159423828	0.999998093	0.001606941	0.000514984	-0.000843048	8.950805664	-1.626586914	3.985595703	0.080347109	0.025749222	-0.04215243	-0.596191406	0.033447266	-1.046142578	880.84	-22.53140856	-64.11473603	33.68399007	-73
33690	0	0.35687542	-0.061697006	0.158099174	0.999999046	0.000991821	-1.14441E-05	-0.000354767	8.92188549	-1.542425156	3.952479362	0.049591074	-0.000572205	-0.017738346	-0.595947266	0.028808594	-1.051757813	880.94	-22.30809314	-64.12337499	33.56118033	-73
33691	0	0.354187012	-0.060668945	0.158874512	0.999999046	0.000556946	-0.000517845	0.000144958	8.854675293	-1.516723633	3.971862793	0.027847293	-0.02589226	0.007247926	-0.595947266	0.026611328	-1.048583984	880.9	-22.28891067	-64.16409689	33.60993645	-74
33692	0	0.354941368	-0.061635971	0.156071663	0.999999046	-0.000216484	-0.000469208	0.000579834	8.873534203	-1.540899277	3.901791573	-0.010824205	-0.023460391	0.028991702	-0.595703125	0.024414063	-1.048339844	880.88	-22.44930544	-64.18101327	33.75983126	-73
33693	0	0.358032227	-0.065246582	0.155334473	0.999999046	-0.000293732	-0.000353813	0.000614166	8.950805664	-1.631164551	3.883361816	-0.014686586	-0.01769066	0.030708316	-0.598388672	0.026611328	-1.045410156	880.84	-22.61608059	-64.18433253	33.90676879	-74
33694	0	0.359584808	-0.068099976	0.155649185	0.999999046	-0.000173569	-0.00012207	0.0001297	8.989620209	-1.70249939	3.89122963	-0.008678436	-0.006103516	0.006484985	-0.595947266	0.028808594	-1.048828125	880.96	-22.64261681	-64.18463733	33.91288853	-74
33695	0	0.358337402	-0.066833496	0.157836914	0.999999046	-0.00019455	-0.000227928	-0.000366211	8.958435059	-1.670837402	3.945922852	-0.009727478	-0.011396409	-0.018310548	-0.596191406	0.028808594	-1.040039063	880.9	-22.57298874	-64.21814271	33.80956552	-74
33696	0	0.358519554	-0.067914009	0.156486511	0.999999046	-0.000252724	-0.000350952	-0.000645638	8.962988853	-1.697850227	3.912162781	-0.012636186	-0.017547609	-0.032281879	-0.601074219	0.03125	-1.039794922	880.88	-22.46010692	-64.2770532	33.65063378	-74
33697	0	0.359313965	-0.064575195	0.155761719	0.999999046	-7.24792E-05	-0.000552177	-0.000774384	8.982849121	-1.614379883	3.894042969	-0.003623963	-0.027608876	-0.038719183	-0.603515625	0.029296875	-1.039794922	880.88	-22.31593622	-64.36303108	33.48006038	-74
33698	0	0.359948158	-0.064223289	0.152057648	0.999999046	0.000135422	-0.000347137	-0.000946999	8.998703957	-1.605582237	3.801441193	0.006771089	-0.017356876	-0.047349938	-0.601074219	0.029052734	-1.042724609	880.96	-22.09044616	-64.43494181	33.24558949	-74
33699	0	0.360656738	-0.062744141	0.151062012	0.999999046	-0.00012207	-2.86102E-06	-0.000682831	9.016418457	-1.568603516	3.776550293	-0.006103516	-0.000143051	-0.034141543	-0.605957031	0.027099609	-1.039550781	880.88	-21.92160559	-64.45909074	33.04141494	-74
33700	0	0.360127449	-0.058321953	0.15086174	0.999999046	-4.673E-05	0.000272751	-0.000171661	9.003186226	-1.45804882	3.771543503	-0.002336502	0.013637543	-0.008583069	-0.603271484	0.024658203	-1.042236328	880.84	-21.83301266	-64.43249868	32.93577878	-74
33701	0	0.358886719	-0.062744141	0.153259277	0.999999046	-0.000392914	0.000359535	0.000442505	8.972167969	-1.568603516	3.831481934	-0.019645692	0.017976762	0.022125246	-0.601074219	0.024658203	-1.039550781	880.8	-21.91319162	-64.37083076	32.97317817	-74
33702	0	0.359086037	-0.062574387	0.155420303	0.999999046	-0.000150681	8.96454E-05	0.0007658	8.977150917	-1.564359665	3.885507584	-0.007534028	0.00448227	0.038290028	-0.603515625	0.026855469	-1.042480469	880.88	-22.06107904	-64.32422986	33.11635411	-74
33703	0	0.358337402	-0.064880371	0.159912109	0.999999046	-0.000125885	-0.00064373	0.000835419	8.958435059	-1.622009277	3.997802734	-0.006294252	-0.032186514	0.041770943	-0.601074219	0.029052734	-1.039794922	880.88	-22.28729498	-64.35226491	33.34947376	-74
33704	0	0.357398033	-0.064358711	0.159495354	0.999998093	-2.86102E-05	-0.001545906	0.00070858	8.934950829	-1.608967781	3.987383842	-0.001430512	-0.077295341	0.035429018	-0.603515625	0.031494141	-1.045898438	880.9	-22.55767937	-64.48101574	33.64367364	-74
33705	0	0.356750488	-0.06451416	0.155090332	0.999997139	-7.62939E-06	-0.002005577	0.00030899	8.918762207	-1.612854004	3.877258301	-0.00038147	-0.100278923	0.015449535	-0.608642578	0.031738281	-1.036865234	881	-22.7827331	-64.67568386	33.89007236	-74
33706	0	0.359696388	-0.066143036	0.150472641	0.999998093	-0.000130653	-0.001814842	8.7738E-05	8.992409706	-1.653575897	3.761816025	-0.006532673	-0.090742161	0.004386904	-0.611083984	0.031738281	-1.033691406	880.94	-22.95810608	-64.86006317	34.0654858	-74
33707	0	0.360900879	-0.064147949	0.149597168	0.999998093	1.62125E-05	-0.001506805	-0.000217438	9.022521973	-1.60369873	3.739929199	0.000810623	-0.0753403	-0.010871891	-0.61328125	0.029541016	-1.033447266	881	-23.02060614	-65.02584062	34.13464538	-74
33708	0	0.359661102	-0.064720154	0.14601326	0.999999046	-0.00017643	-0.000741959	-0.000240326	8.991527557	-1.618003845	3.650331497	-0.008821488	-0.037097935	-0.012016298	-0.615722656	0.031982422	-1.033447266	880.94	-23.02725939	-65.11244693	34.11752694	-74
33709	0	0.360961914	-0.063659668	0.145019531	0.999999046	-9.91821E-05	-0.000182152	-0.000362396	9.024047852	-1.591491699	3.625488281	-0.004959107	-0.00910759	-0.018119813	-0.618408203	0.031982422	-1.02734375	880.88	-22.94343337	-65.14598321	34.01045897	-74
33710	0	0.362710953	-0.065319061	0.148596764	0.999999046	7.05719E-05	-3.43323E-05	-0.000397682	9.067773819	-1.632976532	3.71491909	0.003528595	-0.001716614	-0.01988411	-0.615966797	0.034179688	-1.027832031	880.88	-22.81801521	-65.16570642	33.87870771	-74
33711	0	0.361694336	-0.062561035	0.147888184	0.999999046	-0.000102997	-0.000357628	-0.00025177	9.042358398	-1.564025879	3.69720459	-0.005149841	-0.017881394	-0.012588501	-0.623046875	0.027587891	-1.026855469	880.9	-22.77677981	-65.21340124	33.81837757	-74
33712	0	0.360184669	-0.062289238	0.149996758	0.999999046	2.38419E-05	-0.000888824	-1.23978E-05	9.004616737	-1.557230949	3.749918938	0.001192093	-0.044441229	-0.000619888	-0.620849609	0.032226563	-1.02734375	880.96	-22.82693728	-65.30681885	33.87413775	-74
33713	0	0.361022949	-0.063293457	0.145996094	0.999999046	-0.000190735	-0.000918388	0.000106812	9.02557373	-1.582336426	3.649902344	-0.009536745	-0.045919425	0.005340577	-0.623046875	0.030029297	-1.027099609	880.84	-22.93278981	-65.39840678	33.96426404	-74
33714	0	0.36206913	-0.063549042	0.144634247	0.999999046	7.43866E-05	-0.000658035	-3.14713E-05	9.051728249	-1.588726044	3.615856171	0.00371933	-0.032901766	-0.001573563	-0.625488281	0.030029297	-1.026855469	880.9	-22.95178695	-65.46908205	33.99210711	-74
33715	0	0.361938477	-0.062561035	0.143737793	0.999999046	0.0001297	-8.29697E-05	-8.39233E-05	9.048461914	-1.564025879	3.593444824	0.006484985	-0.004148483	-0.004196167	-0.623046875	0.030029297	-1.030029297	880.94	-22.8963347	-65.48186631	33.94490161	-74
33716	0	0.361850739	-0.063500404	0.146439552	0.999999046	6.77109E-05	0.000259399	-1.62125E-05	9.046268463	-1.587510109	3.660988808	0.003385544	0.012969971	-0.000810623	-0.625732422	0.032226563	-1.024169922	880.88	-22.83050025	-65.45574597	33.87838961	-74
33717	0	0.362915039	-0.061523438	0.147155762	0.999999046	3.8147E-05	0.000306129	0	9.072875977	-1.538085938	3.678894043	0.001907349	0.015306473	0	-0.623046875	0.030029297	-1.027099609	880.96	-22.76742822	-65.42424067	33.81130062	-74
33718	0	0.362030983	-0.065846443	0.147624969	0.999999046	0.000185013	0.000116348	0	9.050774574	-1.646161079	3.690624237	0.009250641	0.005817413	0	-0.623046875	0.030029297	-1.030029297	880.96	-22.70654195	-65.41294522	33.76493488	-74
33719	0	0.361877441	-0.063049316	0.146362305	0.999999046	0.00050354	5.81741E-05	-0.000171661	9.046936035	-1.57623291	3.659057617	0.025177003	0.002908707	-0.008583069	-0.620849609	0.029785156	-1.024169922	880.88	-22.57539603	-65.41565136	33.68133851	-74
33720	0	0.360905647	-0.0632658	0.147199631	0.999999046	0.000596046	-0.000101089	-0.000423431	9.022641182	-1.581645012	3.679990768	0.029802325	-0.005054474	-0.021171572	-0.620605469	0.027587891	-1.026855469	880.9	-22.39081651	-65.44640036	33.55062216	-74
33721	0	0.362548828	-0.060791016	0.147033691	0.999999046	0.000583649	-0.000311852	-0.000213623	9.063720703	-1.519775391	3.675842285	0.029182436	-0.015592576	-0.010681153	-0.622802734	0.025390625	-1.026611328	880.88	-22.27618201	-65.49051731	33.49534888	-74
33722	0	0.36120224	-0.061990738	0.147307396	0.999999046	0.000434875	-0.000301361	2.67029E-05	9.030056	-1.549768448	3.682684898	0.021743775	-0.015068055	0.001335144	-0.625	0.023193359	-1.026123047	880.94	-22.23355069	-65.52328752	33.50053888	-74
33723	0	0.361083984	-0.061279297	0.147705078	0.999999046	6.48499E-05	-0.000227928	0.000141144	9.027099609	-1.531982422	3.692626953	0.003242493	-0.011396408	0.00705719	-0.625	0.023193359	-1.026123047	880.9	-22.25312917	-65.54350771	33.52737315	-74
33724	0	0.362109184	-0.062583923	0.146570206	0.999999046	-1.43051E-05	-7.62939E-05	0.000137329	9.052729607	-1.564598083	3.664255142	-0.000715256	-0.003814697	0.006866455	-0.625	0.023193359	-1.023193359	880.88	-22.26677137	-65.54804332	33.53765186	-74
33725	0	0.36126709	-0.062133789	0.14630127	0.999999046	7.24792E-05	-9.05991E-05	0.000110626	9.031677246	-1.553344727	3.657531738	0.003623962	-0.004529953	0.005531311	-0.625	0.020996094	-1.025878906	880.94	-22.26588964	-65.55549512	33.54295102	-74
33726	0	0.361889839	-0.062314987	0.147158623	0.999999046	4.57764E-05	6.29425E-05	3.33786E-05	9.047245979	-1.55787468	3.678965569	0.002288818	0.003147125	0.00166893	-0.625	0.023193359	-1.023193359	880.9	-22.23563973	-65.55020594	33.51232509	-74
33727	0	0.362792969	-0.062316895	0.147460938	0.999999046	8.7738E-05	-0.000197411	5.72205E-05	9.069824219	-1.557922363	3.686523438	0.004386902	-0.009870529	0.002861023	-0.625244141	0.025390625	-1.026367188	880.88	-22.23122135	-65.5716797	33.51508035	-74
33728	0	0.361683846	-0.061051369	0.146045685	0.999999046	4.76837E-06	-0.000102997	9.53674E-05	9.042096138	-1.526284218	3.65114212	0.000238419	-0.005149841	0.004768372	-0.625	0.020996094	-1.022949219	880.9	-22.23636689	-65.58174256	33.51840853	-74
33729	0	0.362670898	-0.061706543	0.145690918	0.999999046	9.15527E-05	4.29153E-05	0.000324249	9.066772461	-1.542663574	3.642272949	0.004577637	0.002145767	0.016212464	-0.625	0.020996094	-1.022949219	880.94	-22.27132772	-65.56666237	33.56526328	-74
33730	0	0.361886024	-0.062036514	0.146220207	0.999999046	-4.95911E-05	0.000411987	0.000311852	9.047150612	-1.550912857	3.65550518	-0.002479553	0.020599366	0.015592576	-0.627441406	0.020996094	-1.025878906	880.94	-22.28448432	-65.51319662	33.5703688	-74
33731	0	0.362426758	-0.063293457	0.14642334	0.999999046	4.57764E-05	0.000473976	0.000213623	9.060668945	-1.582336426	3.660583496	0.002288818	0.023698808	0.010681153	-0.625	0.023193359	-1.023193359	880.84	-22.25833035	-65.45762922	33.54393624	-74
33732	0	0.361893654	-0.063069344	0.147625923	0.999999046	4.673E-05	0.000364304	2.28882E-05	9.047341347	-1.576733589	3.690648079	0.002336502	0.01821518	0.001144409	-0.625	0.023193359	-1.026123047	880.88	-22.19861533	-65.42211307	33.48066246	-74
33733	0	0.362243652	-0.061828613	0.148620605	0.999999046	8.39233E-05	0.000271797	-2.67029E-05	9.056091309	-1.545715332	3.715515137	0.004196167	0.013589859	-0.001335144	-0.622558594	0.020996094	-1.026123047	880.88	-22.13214179	-65.39867592	33.41479273	-74
33734	0	0.362409592	-0.063188553	0.14919281	0.999999046	0.000110626	-1.33514E-05	-0.00012207	9.060239792	-1.579713821	3.729820251	0.005531311	-0.000667572	-0.006103516	-0.622558594	0.020751953	-1.031982422	880.88	-22.06766919	-65.40969142	33.354297	-74
33735	0	0.362182617	-0.061035156	0.147949219	0.999999046	0.000102997	-8.67844E-05	-0.000164032	9.05456543	-1.525878906	3.698730469	0.005149841	-0.004339218	-0.008201599	-0.622558594	0.020996094	-1.029052734	880.88	-22.00124172	-65.43047878	33.29065107	-74
33736	0	0.361312866	-0.061802864	0.145700455	0.999999046	0.000124931	3.43323E-05	-6.96182E-05	9.032821655	-1.545071602	3.642511368	0.006246567	0.001716614	-0.003480911	-0.620117188	0.020751953	-1.031982422	880.94	-21.94310187	-65.43458963	33.23873678	-74
33737	0	0.362121582	-0.061767578	0.145874023	0.999999046	0.000114441	0.000149727	4.57764E-05	9.053039551	-1.544189453	3.646850586	0.005722046	0.007486343	0.002288818	-0.625	0.020996094	-1.028808594	880.84	-21.90249014	-65.42174342	33.20488491	-74
33738	0	0.361949921	-0.060791016	0.147582054	0.999999046	0.000101089	0.000267029	0.000117302	9.048748016	-1.519775391	3.689551353	0.005054474	0.013351441	0.005865097	-0.622314453	0.018554688	-1.028808594	880.84	-21.86923498	-65.39355276	33.17760687	-74
33739	0	0.361938477	-0.061218262	0.148376465	0.999999046	0.000118256	0.000222206	0.000144958	9.048461914	-1.530456543	3.709411621	0.005912781	0.011110306	0.007247925	-0.622314453	0.018554688	-1.028808594	880.94	-21.84479729	-65.36909269	33.16207987	-74
33740	0	0.361367226	-0.061105728	0.146841049	0.999999046	-9.25064E-05	0.000278473	0.000182152	9.034180641	-1.527643204	3.67102623	-0.004625321	0.013923645	0.00910759	-0.620117188	0.020751953	-1.026123047	880.96	-21.8481274	-65.33728782	33.15022855	-74
33741	0	0.361633301	-0.060791016	0.15032959	0.999999046	-7.24792E-05	6.96182E-05	0.000247955	9.04083252	-1.519775391	3.758239746	-0.003623962	0.003480911	0.012397766	-0.620117188	0.020751953	-1.029052734	880.94	-21.88378163	-65.324953	33.17652093	-74
33742	0	0.361215591	-0.061907768	0.147806168	0.999999046	-1.90735E-05	0.000200272	0.000102997	9.030389786	-1.547694206	3.69515419	-0.000953674	0.01001358	0.005149841	-0.620117188	0.020751953	-1.026123047	880.88	-21.86783825	-65.30508023	33.15281335	-74
33743	0	0.361022949	-0.061767578	0.148620605	0.999999046	-4.57764E-05	0.000271797	4.57764E-05	9.02557373	-1.544189453	3.715515137	-0.002288818	0.013589859	0.002288818	-0.619873047	0.018554688	-1.029052734	880.94	-21.83530076	-65.28016657	33.10767894	-74
33744	0	0.361729622	-0.060898781	0.148444176	0.999999046	0.000145912	0.000131607	-8.39233E-05	9.043240547	-1.522469521	3.711104393	0.007295609	0.006580353	-0.004196167	-0.619873047	0.018554688	-1.029052734	880.94	-21.7639431	-65.2758441	33.04383166	-74
33745	0	0.361328125	-0.061889648	0.149108887	0.999999046	5.72205E-05	9.25064E-05	1.14441E-05	9.033203125	-1.547241211	3.727722168	0.002861023	0.00462532	0.000572205	-0.617675781	0.018554688	-1.029052734	880.88	-21.72860413	-65.27172003	33.00828684	-74
33746	0	0.361543655	-0.060416222	0.147899628	0.999999046	0.000232697	1.71661E-05	-7.24792E-05	9.038591385	-1.51040554	3.697490692	0.011634827	0.000858307	-0.003623962	-0.617431641	0.018310547	-1.034912109	880.94	-21.66077453	-65.27936192	32.95892794	-74
33747	0	0.362060547	-0.061950684	0.148071289	0.999999046	0.000297546	0.00023365	-0.000152588	9.051513672	-1.54876709	3.701782227	0.01487732	0.011682511	-0.007629395	-0.617675781	0.020751953	-1.029296875	880.9	-21.54739842	-65.2674497	32.86725842	-74
33748	0	0.361460686	-0.061631203	0.14809227	0.999999046	0.00024128	0.000421524	-0.000283241	9.036517143	-1.540780067	3.702306747	0.012063981	0.021076204	-0.014162064	-0.619873047	0.016357422	-1.028808594	880.96	-21.39353804	-65.24105345	32.72459966	-74
33749	0	0.362304688	-0.059753418	0.150634766	0.999999046	0.000324249	0.000267982	-0.000289917	9.057617188	-1.493835449	3.765869141	0.016212464	0.013399125	-0.01449585	-0.619873047	0.016357422	-1.028808594	880.96	-21.24273834	-65.23125468	32.5955428	-74
33750	0	0.361282349	-0.05993557	0.14958477	0.999999046	5.91278E-05	0.000234604	-6.58035E-05	9.032058716	-1.498389244	3.739619255	0.00295639	0.011730194	-0.003290176	-0.617431641	0.013916016	-1.031738281	880.88	-21.17740029	-65.21575062	32.5273064	-74
33751	0	0.36114502	-0.058776855	0.149047852	0.999999046	0.000133514	0.000283241	-0.000114441	9.028625488	-1.469421387	3.726196289	0.00667572	0.014162064	-0.005722046	-0.617431641	0.016113281	-1.031738281	880.9	-21.08804859	-65.19718982	32.4415383	-74
33752	0	0.361194611	-0.059630394	0.151464462	0.999999046	0.000248909	0.000198364	-0.000114441	9.029865265	-1.49075985	3.786611557	0.01244545	0.009918213	-0.005722046	-0.617431641	0.016113281	-1.031738281	880.94	-20.99318173	-65.1876865	32.36421327	-74
33753	0	0.361755371	-0.058898926	0.150390625	0.999999046	0.000228882	0.000199318	-0.000221252	9.043884277	-1.472473145	3.759765625	0.011444092	0.009965897	-0.011062622	-0.612304688	0.013671875	-1.037841797	880.94	-20.87589901	-65.18251155	32.25969605	-74
33754	0	0.360988617	-0.058731079	0.152208328	0.999999046	0.000257492	0.00012207	-0.000133514	9.024715424	-1.468276978	3.805208206	0.012874603	0.006103516	-0.00667572	-0.612304688	0.013671875	-1.037841797	880.9	-20.78247618	-65.18197018	32.18502893	-74
33755	0	0.360717773	-0.057983398	0.150390625	0.999999046	0.000202179	3.52859E-05	-3.05176E-05	9.017944336	-1.449584961	3.759765625	0.010108948	0.001764297	-0.001525879	-0.6171875	0.01171875	-1.037353516	880.9	-20.7268804	-65.18662069	32.14554593	-74
33756	0	0.360953331	-0.058692932	0.151049614	0.999998093	0.000137329	-6.77109E-05	0.0001297	9.023833275	-1.467323303	3.776240349	0.006866455	-0.003385544	0.006484985	-0.612304688	0.011474609	-1.034667969	880.9	-20.72496243	-65.19587241	32.15681512	-74
33757	0	0.361022949	-0.058166504	0.150268555	0.999999046	0.000167847	-0.000197411	3.05176E-05	9.02557373	-1.454162598	3.756713867	0.008392334	-0.009870529	0.001525879	-0.614746094	0.009277344	-1.034423828	880.94	-20.70796811	-65.22315949	32.15568701	-74
33758	0	0.360712051	-0.059419632	0.150876999	0.999999046	0.000179291	-0.000259399	0.000110626	9.017801285	-1.485490799	3.771924973	0.008964539	-0.012969971	0.005531311	-0.612304688	0.009277344	-1.031494141	880.94	-20.71389123	-65.25388453	32.18099212	-74
33759	0	0.361450195	-0.057922363	0.149108887	0.999999046	0.000183105	-0.000216484	3.8147E-06	9.036254883	-1.448059082	3.727722168	0.009155274	-0.010824204	0.000190735	-0.614746094	0.01171875	-1.031494141	880.88	-20.69084459	-65.28449222	32.17436324	-74
33760	0	0.36126709	-0.05847168	0.151123047	0.999999046	-2.19345E-05	-0.000141144	0.000133514	9.031677246	-1.461791992	3.778076172	-0.001096725	-0.00705719	0.00667572	-0.616943359	0.009277344	-1.037109375	880.88	-20.71491893	-65.30179699	32.19421665	-74
33761	0	0.361117363	-0.058103561	0.149769783	0.999998093	-3.91006E-05	-0.000177383	0.000160217	9.027934074	-1.452589035	3.744244576	-0.001955032	-0.008869171	0.008010864	-0.6171875	0.009521484	-1.03125	881	-20.75047461	-65.3219884	32.2246084	-74
33762	0	0.361027718	-0.058955193	0.150870323	0.999999046	-8.39233E-05	-0.000125885	0.000144958	9.02569294	-1.473879814	3.77175808	-0.004196167	-0.006294251	0.007247925	-0.617431641	0.013916016	-1.031738281	880.94	-20.78319698	-65.33728306	32.24532523	-74
33763	0	0.361999512	-0.05859375	0.15057373	0.999999046	1.90735E-05	-0.000109673	3.8147E-06	9.049987793	-1.46484375	3.764343262	0.000953674	-0.005483627	0.000190735	-0.614990234	0.01171875	-1.028564453	880.86	-20.76979649	-65.35661835	32.22878551	-74
33764	0	0.362031937	-0.058651924	0.152265549	0.999999046	5.43594E-05	-0.000455856	7.24792E-05	9.050798416	-1.466298103	3.806638718	0.002717972	-0.022792817	0.003623963	-0.6171875	0.009521484	-1.034179688	880.9	-20.7990951	-65.41020132	32.26400961	-74
33765	0	0.36114502	-0.056518555	0.148376465	0.999999046	-2.28882E-05	-0.000380516	0.000160217	9.028625488	-1.412963867	3.709411621	-0.001144409	-0.019025803	0.008010864	-0.6171875	0.01171875	-1.031494141	880.88	-20.85114924	-65.45227361	32.31407358	-74
33766	0	0.361726761	-0.059571266	0.147608757	0.999999046	-0.000171661	-0.000286102	0.000282288	9.043169022	-1.489281654	3.690218925	-0.008583069	-0.014305115	0.01411438	-0.619628906	0.01171875	-1.034179688	880.88	-20.94088179	-65.479339	32.38692307	-74
33767	0	0.361572266	-0.058105469	0.148376465	0.999999046	-0.000160217	-1.43051E-05	0.000232697	9.039306641	-1.452636719	3.709411621	-0.008010864	-0.000715256	0.011634827	-0.619628906	0.01171875	-1.034179688	880.9	-20.99337925	-65.47940607	32.4203926	-74
33768	0	0.361731529	-0.05923748	0.149261475	0.999999046	-9.63211E-05	-2.86102E-05	0.000208855	9.043288231	-1.480937004	3.731536865	-0.004816055	-0.001430511	0.010442734	-0.619628906	0.013916016	-1.031494141	880.88	-21.03435417	-65.4819976	32.44887626	-74
33769	0	0.361694336	-0.059692383	0.149658203	0.999999046	-9.15527E-05	6.96182E-05	5.72205E-05	9.042358398	-1.49230957	3.741455078	-0.004577637	0.003480911	0.002861023	-0.6171875	0.01171875	-1.031494141	880.94	-21.03048204	-65.48031216	32.42912123	-74
33770	0	0.362521172	-0.059212685	0.150306702	1	1.81198E-05	-2.00272E-05	1.43051E-05	9.063029289	-1.480317116	3.757667542	0.000905991	-0.001001358	0.000715256	-0.617431641	0.013916016	-1.028808594	880.96	-21.01208732	-65.48996786	32.4067304	-75
33771	0	0.362121582	-0.060180664	0.149047852	0.999999046	0.000205994	-0.000136375	-6.10352E-05	9.053039551	-1.504516602	3.726196289	0.010299683	-0.006818771	-0.003051758	-0.619628906	0.01171875	-1.028320313	880.9	-20.96512813	-65.51518104	32.37711309	-75
33772	0	0.36119175	-0.057269096	0.147201538	0.999999046	0.000123024	-0.000131607	-3.8147E-05	9.029793739	-1.431727409	3.680038452	0.006151199	-0.006580353	-0.001907349	-0.619873047	0.01171875	-1.025390625	880.94	-20.93252859	-65.53907341	32.35278349	-75
33773	0	0.362182617	-0.058532715	0.148498535	0.999999046	0.00012207	1.23978E-05	3.8147E-05	9.05456543	-1.463317871	3.712463379	0.006103516	0.000619888	0.001907349	-0.619628906	0.01171875	-1.034179688	880.9	-20.90506511	-65.5444811	32.33355959	-74
33774	0	0.361746788	-0.058035851	0.149680138	0.999999046	8.58307E-05	3.05176E-05	8.67844E-05	9.043669701	-1.450896263	3.742003441	0.004291534	0.001525879	0.004339218	-0.619873047	0.01171875	-1.025390625	880.9	-20.89153082	-65.54595627	32.32539031	-74
33775	0	0.362487793	-0.057983398	0.149658203	0.999999046	8.7738E-05	8.4877E-05	0.000152588	9.062194824	-1.449584961	3.741455078	0.004386902	0.004243851	0.007629395	-0.619384766	0.009521484	-1.034179688	880.96	-20.88834761	-65.5389359	32.32906213	-74
33776	0	0.362077713	-0.060143471	0.148935318	0.999999046	8.10623E-05	0.00015831	0.000124931	9.051942825	-1.503586769	3.72338295	0.004053116	0.007915497	0.006246567	-0.6171875	0.01171875	-1.028564453	880.94	-20.8730825	-65.52518651	32.31798915	-74
33777	0	0.361694336	-0.057250977	0.147827148	0.999999046	0.000171661	0.000103951	6.48499E-05	9.042358398	-1.431274414	3.695678711	0.008583069	0.005197525	0.003242493	-0.6171875	0.009521484	-1.028320313	880.9	-20.83815223	-65.51981336	32.29729926	-74
33778	0	0.361227989	-0.058345795	0.149020195	0.999999046	-3.24249E-05	4.57764E-05	0.00014019	9.03069973	-1.458644867	3.725504875	-0.001621246	0.002288818	0.007009506	-0.6171875	0.01171875	-1.031494141	880.88	-20.84959696	-65.51761643	32.3011131	-74
33779	0	0.362060547	-0.057128906	0.150085449	0.999999046	6.86646E-05	0.000214577	0.00018692	9.051513672	-1.428222656	3.75213623	0.003433228	0.010728836	0.009346008	-0.619628906	0.01171875	-1.03125	880.9	-20.84518407	-65.49544506	32.30052533	-74
33780	0	0.361730576	-0.058526039	0.149148941	0.999999046	4.29153E-05	0.000146866	1.43051E-05	9.043264389	-1.463150978	3.728723526	0.002145767	0.007343292	0.000715256	-0.619628906	0.01171875	-1.034179688	880.9	-20.80930153	-65.48758764	32.26198395	-74
33781	0	0.361938477	-0.057861328	0.149841309	0.999999046	0.000125885	2.00272E-05	-6.86646E-05	9.048461914	-1.446533203	3.746032715	0.006294251	0.001001358	-0.003433228	-0.6171875	0.01171875	-1.034423828	880.8	-20.75570641	-65.49669467	32.21417599	-75
33782	0	0.36224556	-0.057529449	0.151272774	0.999999046	6.86646E-05	-0.000276566	-0.0001297	9.056138992	-1.438236237	3.781819344	0.003433228	-0.013828278	-0.006484985	-0.614746094	0.009277344	-1.031494141	880.96	-20.72054802	-65.54000429	32.18007466	-74
33783	0	0.360961914	-0.05645752	0.148010254	0.999999046	5.34058E-05	-0.000224113	0.000114441	9.024047852	-1.411437988	3.700256348	0.002670288	-0.011205673	0.005722046	-0.619628906	0.009521484	-1.028320313	880.94	-20.73987217	-65.56787605	32.20423952	-74
33784	0	0.362358093	-0.057623863	0.14882946	0.999999046	-0.000124931	-4.95911E-05	0.000255585	9.058952332	-1.440596581	3.720736504	-0.006246567	-0.002479553	0.012779236	-0.619628906	0.009521484	-1.028320313	880.84	-20.79738303	-65.57134983	32.24797942	-75
33785	0	0.361083984	-0.057434082	0.149719238	0.999999046	-0.000179291	0.000130653	0.000133514	9.027099609	-1.435852051	3.742980957	-0.008964539	0.006532669	0.00667572	-0.619628906	0.01171875	-1.037109375	880.88	-20.81612729	-65.56045168	32.24131527	-75
33786	0	0.361639023	-0.058989525	0.151866913	0.999999046	-0.000177383	0.000192642	0.000198364	9.040975571	-1.474738121	3.796672821	-0.008869171	0.009632111	0.009918213	-0.619628906	0.01171875	-1.034179688	880.9	-20.84437063	-65.54014121	32.2457339	-75
33787	0	0.361755371	-0.058532715	0.150512695	0.999999046	-8.7738E-05	-3.71933E-05	0.000148773	9.043884277	-1.463317871	3.762817383	-0.004386902	-0.001859665	0.00743866	-0.614990234	0.01171875	-1.028564453	880.8	-20.87126577	-65.54641658	32.25995776	-75
33788	0	0.362725258	-0.057934761	0.151329041	1	-2.86102E-05	-7.15256E-05	2.86102E-06	9.068131447	-1.448369026	3.783226013	-0.001430511	-0.003576279	0.000143051	-0.6171875	0.01171875	-1.037353516	880.84	-20.86000063	-65.5622651	32.23948779	-75
33789	0	0.362731934	-0.058959961	0.150817871	0.999999046	4.57764E-05	-0.000151634	-0.000144958	9.06829834	-1.473999023	3.770446777	0.002288818	-0.007581711	-0.007247925	-0.6171875	0.01171875	-1.028564453	880.96	-20.81253992	-65.59265863	32.18890611	-75
33790	0	0.361572266	-0.056705475	0.148880959	0.999999046	5.34058E-05	-5.34058E-05	0.000102043	9.039306641	-1.417636871	3.722023964	0.002670288	-0.002670288	0.005102158	-0.6171875	0.009521484	-1.028320313	880.9	-20.81351697	-65.60250686	32.19326851	-75
33791	0	0.360961914	-0.058532715	0.149780273	0.999999046	4.19617E-05	0.000123024	0.000179291	9.024047852	-1.463317871	3.744506836	0.002098084	0.006151199	0.008964539	-0.619628906	0.009521484	-1.028320313	880.88	-20.81826572	-65.59026355	32.20046823	-75
33792	0	0.361759186	-0.056513786	0.149628639	0.999999046	4.76837E-06	9.53674E-05	0.000124931	9.043979645	-1.412844658	3.740715981	0.000238419	0.004768372	0.006246567	-0.619628906	0.009521484	-1.03125	880.94	-20.81675772	-65.58321118	32.19594646	-75
