Counter	Temperature	VelInc_X	VelInc_Y	VelInc_Z	OriInc_w	OriInc_x	OriInc_y	OriInc_z	Acc_X	Acc_Y	Acc_Z	Gyr_X	Gyr_Y	Gyr_Z	Mag_X	Mag_Y	Mag_Z	Pressure	Roll	Pitch	Yaw	RSSI
44032	0	0.049650192	-0.242636681	0.312333107	0.999999046	9.53674E-07	-3.43323E-05	0.000189781	1.241254807	-6.065917015	7.808327675	4.76837E-05	-0.001716614	0.00948906	-0.657958984	0.067871094	-0.786132813	884.46	-37.81730044	-7.599404624	147.715971	-72
44033	0	0.049804688	-0.240783691	0.313598633	0.999999046	5.72205E-05	1.62125E-05	0.000301361	1.245117188	-6.019592285	7.83996582	0.002861023	0.000810623	0.015068054	-0.657958984	0.067871094	-0.786132813	884.38	-37.8109375	-7.573646082	147.7298208	-72
44034	0	0.048734665	-0.239984512	0.313505173	0.999999046	3.24249E-05	-5.14984E-05	8.39233E-05	1.218366623	-5.999612808	7.837629318	0.001621246	-0.002574921	0.004196167	-0.655517578	0.067871094	-0.786132813	884.38	-37.80541816	-7.569250909	147.7273284	-73
44035	0	0.048522949	-0.240905762	0.313415527	0.999999046	3.8147E-05	-9.05991E-05	0.000110626	1.21307373	-6.022644043	7.835388184	0.001907349	-0.004529953	0.005531311	-0.655517578	0.067871094	-0.786132813	884.54	-37.79996161	-7.56646645	147.7300856	-73
44036	0	0.048221588	-0.239733696	0.314156532	0.999999046	-2.76566E-05	-0.000150681	-8.01086E-05	1.205539703	-5.9933424	7.853913307	-0.001382828	-0.007534027	-0.004005432	-0.657958984	0.0703125	-0.786376953	884.46	-37.80027146	-7.582453956	147.7223452	-72
44037	0	0.04901123	-0.240600586	0.312988281	0.999999046	-0.000175476	-0.000235558	-0.000209808	1.225280762	-6.015014648	7.824707031	-0.008773804	-0.011777878	-0.010490418	-0.657958984	0.065673828	-0.782958984	884.4	-37.81678338	-7.615208879	147.7075596	-72
44038	0	0.050479889	-0.240445137	0.310987473	0.999999046	-0.000324249	-0.000219345	-0.000118256	1.261997223	-6.011128426	7.774686813	-0.016212464	-0.010967255	-0.005912781	-0.657958984	0.070068359	-0.789306641	884.4	-37.8513827	-7.64011331	147.6985926	-72
44039	0	0.050170898	-0.242919922	0.311706543	0.999999046	0.000133514	0.000123024	0.000160217	1.254272461	-6.072998047	7.792663574	0.00667572	0.006151199	0.008010864	-0.655517578	0.070068359	-0.786376953	884.44	-37.8338265	-7.614467548	147.6915126	-73
44040	0	0.048978806	-0.240715981	0.314040184	0.999999046	0.000372887	4.00543E-05	0.000190735	1.224470139	-6.017899513	7.851004601	0.018644333	0.002002716	0.009536743	-0.655517578	0.067871094	-0.7890625	884.44	-37.78998186	-7.594136729	147.6906612	-73
44041	0	0.04876709	-0.239013672	0.313598633	0.999999046	4.95911E-05	-2.57492E-05	8.01086E-05	1.219177246	-5.975341797	7.83996582	0.002479553	-0.00128746	0.004005432	-0.657958984	0.0703125	-0.783447266	884.5	-37.78240794	-7.58749848	147.6909746	-73
44042	0	0.047768593	-0.240028381	0.313009262	0.999999046	-0.000177383	-0.000118256	6.86646E-05	1.194214821	-6.000709534	7.825231552	-0.008869171	-0.005912781	0.003433228	-0.657958984	0.067871094	-0.786132813	884.54	-37.80158664	-7.589950175	147.693107	-73
44043	0	0.048828125	-0.242370605	0.313598633	0.999999046	-0.000640869	-0.000254631	-0.000205994	1.220703125	-6.059265137	7.83996582	-0.03204346	-0.012731553	-0.010299684	-0.657958984	0.0703125	-0.783447266	884.48	-37.87191888	-7.624003737	147.6822449	-73
44044	0	0.050979614	-0.243542671	0.311490059	0.999999046	-8.29697E-05	-0.000137329	-0.000107765	1.274490356	-6.08856678	7.787251472	-0.004148483	-0.006866455	-0.00538826	-0.658203125	0.0703125	-0.780517578	884.44	-37.878571	-7.640603512	147.6738237	-73
44045	0	0.050170898	-0.238220215	0.313171387	0.999999046	-0.000114441	-2.19345E-05	6.10352E-05	1.254272461	-5.955505371	7.829284668	-0.005722046	-0.001096725	0.003051758	-0.657958984	0.0703125	-0.786376953	884.5	-37.88968438	-7.634910117	147.6684931	-73
44046	0	0.048995018	-0.242509842	0.313174248	0.999999046	-0.000518799	1.14441E-05	0.000175476	1.22487545	-6.062746048	7.829356194	-0.025939943	0.000572205	0.008773804	-0.655761719	0.072265625	-0.783691406	884.46	-37.94826951	-7.618091527	147.6723091	-73
44047	0	0.048583984	-0.245788574	0.312683105	0.999999046	4.19617E-05	-0.000159264	-0.000156403	1.214599609	-6.144714355	7.817077637	0.002098084	-0.007963181	-0.007820129	-0.655517578	0.072265625	-0.789550781	884.4	-37.94038554	-7.640002076	147.6540299	-73
44048	0	0.050040245	-0.242207527	0.311222076	0.999999046	0.000515938	-0.000198364	-0.000103951	1.251006126	-6.055188179	7.78055191	0.025796892	-0.009918213	-0.005197525	-0.655517578	0.070068359	-0.783447266	884.4	-37.87927493	-7.66176092	147.6464156	-73
44049	0	0.049560547	-0.23840332	0.312866211	0.999999046	0.000148773	-0.000163078	-4.57764E-05	1.239013672	-5.960083008	7.821655273	0.00743866	-0.008153915	-0.002288818	-0.655517578	0.070068359	-0.786376953	884.44	-37.86051317	-7.676216821	147.6396769	-73
44050	0	0.050172806	-0.240564346	0.31267643	0.999999046	-0.000202179	-6.67572E-05	3.05176E-05	1.254320145	-6.014108658	7.816910744	-0.010108948	-0.00333786	0.001525879	-0.657958984	0.070068359	-0.789306641	884.44	-37.88199151	-7.676597917	147.6325824	-73
44051	0	0.049987793	-0.241943359	0.311828613	0.999999046	-7.62939E-06	-0.000105858	-3.05176E-05	1.249694824	-6.048583984	7.795715332	-0.00038147	-0.005292892	-0.001525879	-0.657958984	0.070068359	-0.789306641	884.46	-37.88088396	-7.68480587	147.6227742	-73
44052	0	0.049092293	-0.240419388	0.313035011	0.999999046	-1.81198E-05	-0.000146866	0.000117302	1.22730732	-6.010484695	7.825875282	-0.000905991	-0.007343292	0.005865097	-0.657958984	0.067871094	-0.783203125	884.5	-37.88314821	-7.686271202	147.6318391	-73
44053	0	0.049804688	-0.241027832	0.311706543	0.999999046	-0.000125885	-7.15256E-05	5.34058E-05	1.245117188	-6.025695801	7.792663574	-0.006294251	-0.003576279	0.002670288	-0.660400391	0.0703125	-0.786132813	884.46	-37.89631052	-7.685408476	147.6310367	-73
44054	0	0.04933548	-0.241111755	0.311943054	0.999999046	5.91278E-05	-0.000114441	-5.81741E-05	1.233386993	-6.027793884	7.798576355	0.00295639	-0.005722046	-0.002908707	-0.657958984	0.067871094	-0.786132813	884.38	-37.88735637	-7.696240579	147.6194787	-73
44055	0	0.049987793	-0.240539551	0.312255859	0.999999046	-3.43323E-05	-0.000155449	-6.48499E-05	1.249694824	-6.01348877	7.806396484	-0.001716614	-0.007772446	-0.003242493	-0.657958984	0.067871094	-0.786132813	884.46	-37.88942406	-7.711244769	147.6101706	-73
44056	0	0.050177574	-0.241775513	0.313016891	0.999999046	-0.000136375	-0.000211716	-1.14441E-05	1.254439354	-6.044387817	7.825422287	-0.006818771	-0.010585785	-0.000572205	-0.657714844	0.067871094	-0.7890625	884.48	-37.90440805	-7.727566255	147.6070274	-73
44057	0	0.049865723	-0.241516113	0.311889648	0.999999046	-2.67029E-05	-0.000174522	-3.8147E-05	1.246643066	-6.037902832	7.797241211	-0.001335144	-0.00872612	-0.001907349	-0.657714844	0.067871094	-0.7890625	884.38	-37.90619104	-7.742380127	147.5988013	-73
44058	0	0.050725937	-0.242322922	0.31295681	1	-9.53674E-07	-4.29153E-05	-2.76566E-05	1.268148422	-6.058073044	7.82392025	-4.76837E-05	-0.002145767	-0.001382828	-0.657958984	0.070068359	-0.789306641	884.38	-37.90393673	-7.744562784	147.5842641	-73
44059	0	0.051025391	-0.241027832	0.313049316	0.999999046	-7.62939E-06	-6.38962E-05	-1.14441E-05	1.275634766	-6.025695801	7.82623291	-0.00038147	-0.003194809	-0.000572205	-0.657958984	0.067871094	-0.783203125	884.38	-37.90283519	-7.747527449	147.5757559	-73
44060	0	0.049118042	-0.241336823	0.312001228	0.999999046	-3.71933E-05	-0.000196457	4.86374E-05	1.22795105	-6.033420563	7.800030708	-0.001859665	-0.009822846	0.00243187	-0.657958984	0.0703125	-0.783447266	884.52	-37.90716507	-7.758180773	147.5836323	-73
44061	0	0.049560547	-0.240356445	0.313232422	0.999999046	-0.000209808	-0.000281334	-0.000183105	1.239013672	-6.008911133	7.830810547	-0.010490418	-0.014066697	-0.009155274	-0.657958984	0.068115234	-0.780273438	884.4	-37.92918884	-7.792773909	147.5764332	-73
44062	0	0.051290512	-0.244680405	0.311390877	0.999999046	-0.000108719	-0.000156403	-0.000134468	1.282262802	-6.117010117	7.784771919	-0.005435944	-0.007820129	-0.006723404	-0.657958984	0.067871094	-0.783203125	884.46	-37.9392085	-7.812665471	147.5619984	-73
44063	0	0.050842285	-0.241027832	0.312194824	0.999999046	0.000408173	-8.29697E-05	-9.15527E-05	1.271057129	-6.025695801	7.804870605	0.020408631	-0.004148483	-0.004577637	-0.657958984	0.067871094	-0.786132813	884.44	-37.88981814	-7.822887705	147.5445989	-73
44064	0	0.051120758	-0.239359856	0.312870026	0.999999046	-8.29697E-05	-3.8147E-06	0.000148773	1.278018951	-5.983996391	7.821750641	-0.004148483	-0.000190735	0.00743866	-0.66015625	0.065917969	-0.785888672	884.46	-37.89885659	-7.809043353	147.5438053	-74
44065	0	0.049804688	-0.244262695	0.310913086	0.999999046	8.01086E-05	3.52859E-05	0.000125885	1.245117188	-6.106567383	7.772827148	0.004005432	0.001764297	0.006294251	-0.657958984	0.067871094	-0.786132813	884.44	-37.88873404	-7.793214366	147.5382259	-73
44066	0	0.048989296	-0.241234779	0.312419891	0.999999046	0.000455856	-2.47955E-05	3.8147E-05	1.224732399	-6.030869484	7.810497284	0.022792817	-0.001239777	0.001907349	-0.657958984	0.070068359	-0.789306641	884.44	-37.83506384	-7.788900609	147.529083	-73
44067	0	0.050048828	-0.239562988	0.313171387	0.999999046	4.19617E-05	-0.00020504	-1.14441E-05	1.251220703	-5.989074707	7.829284668	0.002098084	-0.010251999	-0.000572205	-0.657714844	0.067871094	-0.7890625	884.4	-37.82988781	-7.804350829	147.5260513	-73
44068	0	0.050792694	-0.240818024	0.312376976	0.999999046	-0.000239372	-0.000204086	3.43323E-05	1.269817352	-6.020450592	7.8094244	-0.011968613	-0.010204315	0.001716614	-0.657958984	0.0703125	-0.786376953	884.38	-37.8575273	-7.816503118	147.5313477	-73
44069	0	0.05078125	-0.242675781	0.311950684	0.999999046	1.90735E-05	-0.000155449	8.7738E-05	1.26953125	-6.066894531	7.79876709	0.000953674	-0.007772446	0.004386902	-0.660400391	0.068115234	-0.782958984	884.5	-37.85584399	-7.82049254	147.540898	-73
44070	0	0.050531387	-0.241024971	0.31267643	0.999999046	-2.28882E-05	3.8147E-05	0.00019455	1.263284683	-6.025624275	7.816910744	-0.001144409	0.001907349	0.009727478	-0.657958984	0.065673828	-0.782958984	884.46	-37.85843932	-7.799432831	147.5419922	-73
44071	0	0.050048828	-0.241699219	0.312316895	0.999999046	0.000106812	0.00011158	0.000183105	1.251220703	-6.042480469	7.807922363	0.005340576	0.005578995	0.009155274	-0.657958984	0.067871094	-0.783203125	884.5	-37.84536721	-7.772500157	147.5392337	-73
44072	0	0.049707413	-0.241285324	0.312867165	0.999999046	0.00032711	1.33514E-05	0.000305176	1.242685318	-6.032133102	7.821679115	0.016355515	0.000667572	0.01525879	-0.655517578	0.067871094	-0.786132813	884.44	-37.80951938	-7.745830966	147.550182	-73
44073	0	0.049438477	-0.239929199	0.314086914	0.999999046	0.000259399	-3.71933E-05	0.000106812	1.235961914	-5.99822998	7.852172852	0.012969971	-0.001859665	0.005340576	-0.655517578	0.067871094	-0.783203125	884.34	-37.77939827	-7.737633123	147.5498196	-73
44074	0	0.049593925	-0.240326881	0.313474655	0.999999046	-1.71661E-05	-0.000141144	6.86646E-05	1.239848137	-6.008172035	7.836866379	-0.000858307	-0.00705719	0.003433228	-0.657958984	0.067871094	-0.786132813	884.5	-37.78147551	-7.741492922	147.5526277	-73
44075	0	0.050231934	-0.240844727	0.313476563	0.999999046	-0.000156403	-7.15256E-05	7.62939E-05	1.25579834	-6.021118164	7.836914063	-0.007820129	-0.003576279	0.003814697	-0.657958984	0.065673828	-0.782958984	884.46	-37.79894032	-7.738507639	147.5516941	-73
44076	0	0.049995422	-0.241438866	0.313149452	0.999999046	-0.000159264	-4.76837E-05	0.000175476	1.249885559	-6.035971642	7.828736305	-0.007963181	-0.002384186	0.008773804	-0.655517578	0.067871094	-0.783203125	884.4	-37.8177557	-7.726380554	147.5574774	-73
44077	0	0.049560547	-0.241943359	0.312316895	0.999999046	8.39233E-05	-0.000105858	0.000133514	1.239013672	-6.048583984	7.807922363	0.004196167	-0.005292892	0.00667572	-0.655517578	0.067871094	-0.7890625	884.38	-37.80881901	-7.722431248	147.5579325	-74
44078	0	0.050539017	-0.240501404	0.312101364	0.999999046	4.19617E-05	6.10352E-05	0.000224113	1.263475418	-6.012535095	7.802534103	0.002098084	0.003051758	0.011205673	-0.657958984	0.0703125	-0.783447266	884.44	-37.80421877	-7.697046521	147.5655398	-74
44079	0	0.049621582	-0.240539551	0.314453125	0.999999046	7.62939E-06	8.86917E-05	0.000217438	1.240539551	-6.01348877	7.861328125	0.00038147	0.004434586	0.010871887	-0.657958984	0.068115234	-0.780273438	884.44	-37.80315452	-7.669604719	147.5714925	-73
44080	0	0.048179626	-0.239640236	0.315196991	0.999999046	-6.96182E-05	-6.48499E-05	4.86374E-05	1.204490662	-5.991005898	7.879924774	-0.003480911	-0.003242493	0.00243187	-0.657958984	0.070068359	-0.789306641	884.46	-37.81023567	-7.667828886	147.5657969	-74
44081	0	0.051025391	-0.242858887	0.313232422	0.999999046	-0.000228882	-0.00014019	-2.67029E-05	1.275634766	-6.071472168	7.830810547	-0.011444092	-0.007009506	-0.001335144	-0.657958984	0.067871094	-0.786132813	884.44	-37.83544512	-7.678225355	147.5589304	-74
44082	0	0.051491737	-0.240314484	0.312558174	0.999999046	0.000175476	-2.86102E-05	0.000155449	1.287293434	-6.007862091	7.813954353	0.008773804	-0.001430511	0.007772446	-0.657958984	0.0703125	-0.783447266	884.4	-37.81546571	-7.665817797	147.566464	-74
44083	0	0.048706055	-0.239135742	0.314331055	0.999999046	-0.000221252	4.29153E-05	0.000415802	1.217651367	-5.978393555	7.858276367	-0.011062622	0.002145767	0.020790101	-0.658203125	0.0703125	-0.780517578	884.44	-37.84332395	-7.628588907	147.5952398	-74
44084	0	0.048171043	-0.244258881	0.312273026	0.999999046	-7.72476E-05	-4.76837E-05	0.000224113	1.204276085	-6.106472015	7.806825638	-0.003862381	-0.002384186	0.011205673	-0.657958984	0.0703125	-0.783447266	884.48	-37.8533624	-7.612950006	147.6091967	-74
44085	0	0.048400879	-0.240966797	0.313842773	0.999999046	0.000320435	-0.00020504	-0.000190735	1.210021973	-6.024169922	7.846069336	0.016021729	-0.010251999	-0.009536743	-0.657958984	0.0703125	-0.783447266	884.46	-37.81425277	-7.640663341	147.5968603	-74
44086	0	0.050147057	-0.238488197	0.314279556	0.999999046	0.000102997	-0.000211716	-0.000125885	1.253676414	-5.962204933	7.856988907	0.005149841	-0.010585785	-0.006294251	-0.657958984	0.0703125	-0.783447266	884.4	-37.80077262	-7.664454724	147.5908008	-74
44087	0	0.05065918	-0.240600586	0.312683105	0.999999046	-0.000324249	-0.000174522	2.28882E-05	1.266479492	-6.015014648	7.817077637	-0.016212464	-0.00872612	0.001144409	-0.657958984	0.0703125	-0.786376953	884.46	-37.83773026	-7.674476137	147.5916229	-74
44088	0	0.050513268	-0.243369102	0.312385559	0.999999046	-0.000121117	-7.43866E-05	0.000124931	1.262831688	-6.084227562	7.809638977	-0.006055832	-0.00371933	0.006246567	-0.657958984	0.067871094	-0.786132813	884.44	-37.85183271	-7.668288625	147.5918409	-73
44089	0	0.050109863	-0.241638184	0.312072754	0.999999046	0.000205994	9.25064E-05	0.000152588	1.252746582	-6.04095459	7.801818848	0.010299683	0.00462532	0.007629395	-0.655517578	0.070068359	-0.789306641	884.38	-37.82726523	-7.64507233	147.5801141	-73
44090	0	0.049063683	-0.239754677	0.313034058	0.999999046	0.000228882	9.72748E-05	4.48227E-05	1.226592064	-5.99386692	7.82585144	0.011444092	0.004863739	0.002241135	-0.655517578	0.070068359	-0.789306641	884.4	-37.79867815	-7.628971465	147.5593671	-73
44091	0	0.048339844	-0.240661621	0.312194824	0.999999046	2.67029E-05	-2.57492E-05	4.19617E-05	1.208496094	-6.016540527	7.804870605	0.001335144	-0.00128746	0.002098083	-0.655517578	0.067871094	-0.7890625	884.4	-37.79441727	-7.624152628	147.5451161	-73
44092	0	0.04858017	-0.239977837	0.312997818	0.999999046	-3.52859E-05	-0.000171661	-3.8147E-06	1.214504242	-5.999445915	7.82494545	-0.001764297	-0.008583069	-0.000190735	-0.655517578	0.070068359	-0.783447266	884.46	-37.79804013	-7.635731031	147.5456977	-73
44093	0	0.049377441	-0.240539551	0.312316895	0.999999046	-0.000213623	-0.000124931	-9.15527E-05	1.234436035	-6.01348877	7.807922363	-0.010681152	-0.006246567	-0.004577637	-0.655517578	0.067871094	-0.786132813	884.5	-37.82062236	-7.649236503	147.528885	-74
44094	0	0.049804688	-0.241396904	0.313238144	0.999999046	-0.000255585	-0.000173569	6.67572E-06	1.245117188	-6.0349226	7.830953598	-0.012779236	-0.008678436	0.000333786	-0.655517578	0.067871094	-0.7890625	884.4	-37.84968956	-7.660248975	147.520527	-73
44095	0	0.049926758	-0.241333008	0.313598633	0.999999046	4.19617E-05	-9.82285E-05	-3.05176E-05	1.248168945	-6.033325195	7.83996582	0.002098084	-0.004911423	-0.001525879	-0.660400391	0.068115234	-0.782958984	884.54	-37.84347037	-7.66707884	147.5164664	-73
44096	0	0.050308228	-0.240571976	0.312814713	0.999999046	-4.86374E-05	3.05176E-05	0.0001297	1.257705688	-6.014299393	7.820367813	-0.00243187	0.001525879	0.006484985	-0.655517578	0.067871094	-0.786132813	884.44	-37.84836682	-7.651019248	147.5084442	-73
44097	0	0.048828125	-0.241760254	0.31237793	0.999999046	-7.62939E-06	-6.67572E-06	0.000114441	1.220703125	-6.044006348	7.809448242	-0.00038147	-0.000333786	0.005722046	-0.655517578	0.067871094	-0.783203125	884.46	-37.84877396	-7.639361804	147.505282	-73
44098	0	0.04865551	-0.240189552	0.314082146	0.999999046	-0.000207901	-0.000297546	-0.000142097	1.216387749	-6.004738808	7.852053642	-0.01039505	-0.01487732	-0.007104874	-0.657958984	0.070068359	-0.789306641	884.44	-37.87169493	-7.672013688	147.4968803	-73
44099	0	0.051452637	-0.244140625	0.312011719	0.999999046	-0.000217438	-0.000266075	-0.00012207	1.286315918	-6.103515625	7.800292969	-0.010871887	-0.013303757	-0.006103516	-0.657958984	0.070068359	-0.789306641	884.38	-37.89580507	-7.700490293	147.4873258	-73
44100	0	0.051067352	-0.240785599	0.313038826	0.999999046	0.000161171	-0.000125885	4.86374E-05	1.276683807	-6.019639969	7.82597065	0.008058548	-0.006294251	0.00243187	-0.660400391	0.0703125	-0.783203125	884.44	-37.877235	-7.704341683	147.4940497	-73
44101	0	0.049804688	-0.239135742	0.313293457	0.999999046	-0.000240326	-6.77109E-05	0.000133514	1.245117188	-5.978393555	7.832336426	-0.012016297	-0.003385544	0.00667572	-0.657958984	0.0703125	-0.786376953	884.44	-37.90506791	-7.696948186	147.496927	-73
44102	0	0.048805237	-0.244242668	0.311398506	0.999999046	-0.000276566	-0.000152588	7.9155E-05	1.22013092	-6.106066704	7.784962654	-0.013828278	-0.007629395	0.003957748	-0.657958984	0.0703125	-0.786376953	884.44	-37.9373583	-7.700988941	147.4999837	-73
44103	0	0.049377441	-0.243041992	0.312744141	0.999999046	0.000328064	-0.000136375	-8.39233E-05	1.234436035	-6.076049805	7.818603516	0.016403199	-0.006818772	-0.004196167	-0.657958984	0.0703125	-0.786376953	884.44	-37.89826647	-7.715012624	147.4877638	-73
44104	0	0.051029205	-0.240021706	0.312398911	0.999999046	0.000250816	-0.000146866	-9.91821E-05	1.275730133	-6.000542641	7.809972763	0.012540817	-0.007343292	-0.004959107	-0.657958984	0.0703125	-0.783447266	884.44	-37.86788349	-7.73111374	147.4790175	-73
44105	0	0.051391602	-0.24005127	0.312072754	0.999999046	-0.000114441	-0.000163078	-5.34058E-05	1.284790039	-6.001281738	7.801818848	-0.005722046	-0.008153915	-0.002670288	-0.657958984	0.067871094	-0.786132813	884.4	-37.88006034	-7.745522394	147.468584	-73
44106	0	0.050298691	-0.241399765	0.312793732	0.999999046	-8.01086E-05	-7.05719E-05	6.86646E-05	1.25746727	-6.034994125	7.819843292	-0.004005432	-0.003528595	0.003433228	-0.657958984	0.067871094	-0.786132813	884.46	-37.88892569	-7.742973938	147.4626188	-73
44107	0	0.050415039	-0.241516113	0.313720703	0.999999046	1.14441E-05	-0.000159264	7.24792E-05	1.260375977	-6.037902832	7.843017578	0.000572205	-0.007963181	0.003623962	-0.657958984	0.070068359	-0.789306641	884.4	-37.88817547	-7.748176903	147.4620406	-73
44108	0	0.049747467	-0.241394997	0.314442635	0.999999046	2.86102E-06	-0.000207901	-3.8147E-05	1.243686676	-6.034874916	7.861065865	0.000143051	-0.01039505	-0.001907349	-0.657958984	0.0703125	-0.783447266	884.44	-37.88745147	-7.765531683	147.4623169	-73
44109	0	0.050109863	-0.241455078	0.312011719	0.999999046	7.62939E-06	-0.000102043	-7.62939E-06	1.252746582	-6.036376953	7.800292969	0.00038147	-0.005102158	-0.00038147	-0.655517578	0.070068359	-0.783447266	884.44	-37.88557756	-7.771149471	147.4544443	-73
44110	0	0.050664902	-0.240839958	0.311332703	0.999999046	0.000101089	-0.000116348	-4.76837E-06	1.266622543	-6.020998955	7.783317566	0.005054474	-0.005817413	-0.000238419	-0.657958984	0.0703125	-0.783447266	884.44	-37.87318964	-7.777881124	147.4514344	-73
44111	0	0.050720215	-0.241333008	0.312316895	0.999999046	-1.52588E-05	-0.000185966	-6.10352E-05	1.268005371	-6.033325195	7.807922363	-0.000762939	-0.009298325	-0.003051758	-0.657958984	0.070068359	-0.789306641	884.34	-37.87414219	-7.794872268	147.4400056	-73
44112	0	0.05196476	-0.241397858	0.312533379	0.999999046	2.76566E-05	-6.86646E-05	1.81198E-05	1.299118996	-6.034946442	7.813334465	0.001382828	-0.003433228	0.000905991	-0.657958984	0.067871094	-0.786132813	884.44	-37.8700411	-7.795751901	147.4288256	-73
44113	0	0.051147461	-0.241577148	0.311828613	0.999999046	0.00012207	4.673E-05	0.000133514	1.278686523	-6.039428711	7.795715332	0.006103516	0.002336502	0.00667572	-0.657958984	0.0703125	-0.786376953	884.5	-37.85547931	-7.778105097	147.423788	-73
44114	0	0.050443649	-0.240232468	0.313173294	0.999999046	0.000192642	-5.72205E-06	9.53674E-05	1.261091232	-6.005811691	7.829332352	0.009632111	-0.000286102	0.004768372	-0.657958984	0.0703125	-0.783447266	884.38	-37.83280941	-7.767884807	147.423493	-73
44115	0	0.050292969	-0.240356445	0.31262207	0.999999046	-4.19617E-05	-7.9155E-05	-4.57764E-05	1.257324219	-6.008911133	7.815551758	-0.002098083	-0.003957748	-0.002288818	-0.657958984	0.067871094	-0.786132813	884.4	-37.83598271	-7.774217507	147.4084406	-73
44116	0	0.051218987	-0.241415977	0.312166214	0.999999046	-0.000182152	-0.000127792	4.95911E-05	1.280474663	-6.035399437	7.80415535	-0.00910759	-0.006389618	0.002479553	-0.660400391	0.068115234	-0.782958984	884.56	-37.85689593	-7.778290442	147.4127308	-73
44117	0	0.051086426	-0.240966797	0.311950684	0.999999046	-0.000110626	2.00272E-05	-7.62939E-06	1.277160645	-6.024169922	7.79876709	-0.005531311	0.001001358	-0.00038147	-0.657958984	0.067871094	-0.783203125	884.46	-37.86751402	-7.773041565	147.3975231	-73
44118	0	0.049551964	-0.240119934	0.31196022	0.999999046	9.53674E-06	-6.67572E-05	3.33786E-05	1.238799095	-6.002998352	7.799005508	0.000476837	-0.00333786	0.00166893	-0.660400391	0.0703125	-0.783203125	884.34	-37.86567488	-7.772722822	147.3990122	-73
44119	0	0.051208496	-0.242858887	0.311401367	0.999999046	-0.000293732	-0.000250816	-3.8147E-06	1.280212402	-6.071472168	7.78503418	-0.014686585	-0.012540818	-0.000190735	-0.657958984	0.068115234	-0.780273438	884.44	-37.90001508	-7.791700191	147.4062585	-73
44120	0	0.052709579	-0.243408203	0.311841965	0.999999046	0.000290871	2.47955E-05	8.67844E-05	1.317739487	-6.085205078	7.796049118	0.014543534	0.001239777	0.004339218	-0.657958984	0.067871094	-0.786132813	884.4	-37.86595271	-7.779465688	147.3948307	-73
44121	0	0.05078125	-0.237854004	0.312744141	0.999999046	0.000144958	0.000142097	0.000255585	1.26953125	-5.946350098	7.818603516	0.007247925	0.007104874	0.012779236	-0.660400391	0.0703125	-0.780273438	884.56	-37.84940439	-7.744778681	147.4062785	-73
44122	0	0.048859596	-0.242183685	0.312828064	0.999999046	-0.000371933	3.05176E-05	0.00026989	1.221489906	-6.054592133	7.820701599	-0.01859665	0.001525879	0.013494492	-0.657958984	0.067871094	-0.786132813	884.4	-37.89339857	-7.719080959	147.4108285	-73
44123	0	0.049377441	-0.245117188	0.312011719	0.999999046	0.000102997	-8.67844E-05	-4.95911E-05	1.234436035	-6.127929688	7.800292969	0.005149841	-0.004339218	-0.002479553	-0.657958984	0.0703125	-0.783447266	884.4	-37.8803255	-7.726423999	147.4023496	-73
44124	0	0.050615311	-0.241081238	0.312234879	0.999999046	0.000414848	-0.000148773	-0.000100136	1.265382767	-6.027030945	7.805871964	0.020742417	-0.00743866	-0.00500679	-0.657958984	0.067871094	-0.786132813	884.46	-37.83149846	-7.742941054	147.3872234	-73
44125	0	0.051330566	-0.238891602	0.313049316	0.999999046	-7.62939E-05	-4.48227E-05	8.7738E-05	1.28326416	-5.972290039	7.82623291	-0.003814697	-0.002241135	0.004386902	-0.657958984	0.067871094	-0.786132813	884.44	-37.84017243	-7.736897909	147.3817917	-73
44126	0	0.050156593	-0.241268158	0.313251495	0.999999046	-0.000255585	1.90735E-05	0.000141144	1.253914833	-6.031703949	7.831287384	-0.012779236	0.000953674	0.00705719	-0.655517578	0.070068359	-0.789306641	884.46	-37.86943871	-7.721302108	147.3718179	-73
44127	0	0.050720215	-0.241149902	0.313415527	0.999999046	-4.95911E-05	-7.9155E-05	0.000213623	1.268005371	-6.028747559	7.835388184	-0.002479553	-0.003957748	0.010681152	-0.655517578	0.067871094	-0.780517578	884.46	-37.87688027	-7.709522092	147.3842609	-73
44128	0	0.050300598	-0.24138546	0.311246872	0.999999046	6.58035E-05	0.000173569	0.00018692	1.257514954	-6.034636497	7.781171799	0.003290176	0.008678436	0.009346008	-0.657714844	0.067871094	-0.7890625	884.46	-37.86843153	-7.676767015	147.3681702	-73
44129	0	0.049560547	-0.242248535	0.313781738	0.999999046	0.000141144	-6.77109E-05	9.91821E-05	1.239013672	-6.056213379	7.844543457	0.00705719	-0.003385544	0.004959106	-0.657958984	0.0703125	-0.786376953	884.46	-37.85255982	-7.671988115	147.3695457	-73
44130	0	0.049310684	-0.240462303	0.311828613	0.999999046	6.10352E-05	-4.57764E-05	9.91821E-05	1.232767105	-6.011557579	7.795715332	0.003051758	-0.002288818	0.004959106	-0.657958984	0.067871094	-0.783203125	884.5	-37.84565866	-7.665204486	147.3703089	-73
44131	0	0.049718857	-0.240677834	0.312280655	0.999999046	-9.72748E-05	-8.67844E-05	-2.28882E-05	1.24297142	-6.016945839	7.807016373	-0.004863739	-0.004339218	-0.001144409	-0.657958984	0.065673828	-0.782958984	884.46	-37.85580366	-7.670710626	147.3595824	-73
44132	0	0.050639153	-0.241467476	0.313018799	0.999999046	-0.000170708	1.14441E-05	3.8147E-05	1.265978813	-6.036686897	7.825469971	-0.008535385	0.000572205	0.001907349	-0.655517578	0.070068359	-0.786376953	884.46	-37.87418159	-7.663074832	147.3458376	-73
44133	0	0.050048828	-0.241577148	0.312927246	0.999999046	6.10352E-05	5.43594E-05	0.000228882	1.251220703	-6.039428711	7.823181152	0.003051758	0.002717972	0.011444092	-0.657958984	0.0703125	-0.786376953	884.44	-37.86791563	-7.638151585	147.3507078	-73
44134	0	0.049233437	-0.241378784	0.31180191	0.999999046	9.72748E-05	-1.33514E-05	0.000228882	1.230835915	-6.034469604	7.79504776	0.004863739	-0.000667572	0.011444092	-0.655517578	0.070068359	-0.786376953	884.5	-37.85817075	-7.619335145	147.3566882	-73
44135	0	0.04901123	-0.239379883	0.313110352	0.999999046	6.86646E-05	-6.00815E-05	3.43323E-05	1.225280762	-5.98449707	7.827758789	0.003433228	-0.003004074	0.001716614	-0.657958984	0.0703125	-0.786376953	884.46	-37.8496942	-7.618411783	147.3523945	-73
44136	0	0.049215317	-0.239706993	0.314052582	0.999999046	-0.000170708	-1.52588E-05	0.000148773	1.230382919	-5.992674828	7.851314545	-0.008535385	-0.000762939	0.00743866	-0.655517578	0.070068359	-0.783447266	884.5	-37.86951105	-7.605370479	147.3553345	-73
44137	0	0.04876709	-0.240661621	0.312805176	0.999999046	-0.000137329	-8.67844E-05	0.000133514	1.219177246	-6.016540527	7.820129395	-0.006866455	-0.004339218	0.00667572	-0.657958984	0.0703125	-0.786376953	884.5	-37.88596842	-7.599839648	147.3609096	-73
44138	0	0.049550056	-0.241372108	0.312851906	0.999999046	-0.000391006	-0.000228882	-0.000102997	1.238751411	-6.034302711	7.821297646	-0.019550324	-0.011444092	-0.005149841	-0.657958984	0.0703125	-0.783447266	884.5	-37.92996707	-7.623815583	147.3578919	-73
44139	0	0.052062988	-0.243896484	0.310852051	0.999999046	-6.86646E-05	-0.000102043	4.19617E-05	1.301574707	-6.097412109	7.77130127	-0.003433228	-0.005102158	0.002098084	-0.657958984	0.0703125	-0.786376953	884.54	-37.93774332	-7.626241095	147.3543872	-73
44140	0	0.049665451	-0.23875618	0.312395096	0.999999046	0.00023365	0.000131607	0.000315666	1.241636276	-5.968904495	7.809877396	0.011682511	0.006580353	0.01578331	-0.655517578	0.070068359	-0.783447266	884.44	-37.91186265	-7.588285991	147.360681	-73
44141	0	0.048095703	-0.241516113	0.314025879	0.999999046	-0.000350952	8.10623E-05	0.0001297	1.202392578	-6.037902832	7.850646973	-0.017547608	0.004053116	0.006484986	-0.655517578	0.070068359	-0.789306641	884.46	-37.95118084	-7.567918986	147.3444078	-73
44142	0	0.048409462	-0.243578911	0.311359406	0.999999046	0.000165939	-0.00018692	-0.000134468	1.210236549	-6.089472771	7.783985138	0.008296967	-0.009346008	-0.006723404	-0.655761719	0.072265625	-0.783691406	884.4	-37.93068974	-7.590352744	147.3359297	-73
44143	0	0.049316406	-0.240356445	0.313476563	0.999999046	0.000347137	-0.000216484	-0.000137329	1.232910156	-6.008911133	7.836914063	0.017356873	-0.010824204	-0.006866455	-0.655517578	0.070068359	-0.786376953	884.44	-37.88960509	-7.615648629	147.3219339	-73
44144	0	0.049944878	-0.239393234	0.313193321	0.999999046	-0.000102043	-0.000207901	3.8147E-06	1.248621941	-5.984830856	7.829833031	-0.005102158	-0.01039505	0.000190735	-0.657958984	0.0703125	-0.783447266	884.44	-37.90150714	-7.630265657	147.3279021	-73
44145	0	0.050720215	-0.240722656	0.313232422	0.999999046	-0.000362396	-0.000174522	-1.52588E-05	1.268005371	-6.018066406	7.830810547	-0.018119813	-0.00872612	-0.000762939	-0.657958984	0.0703125	-0.786376953	884.38	-37.94266621	-7.64325837	147.3239204	-73
44146	0	0.050653458	-0.242350578	0.311085701	0.999999046	1.52588E-05	-0.000177383	0.000132561	1.266336441	-6.058764458	7.777142525	0.000762939	-0.008869171	0.006628037	-0.655517578	0.067871094	-0.780517578	884.5	-37.94244242	-7.646147247	147.3344363	-73
44147	0	0.049987793	-0.24029541	0.312438965	0.999999046	0.000137329	-2.95639E-05	0.000179291	1.249694824	-6.007385254	7.810974121	0.006866455	-0.001478195	0.008964539	-0.657958984	0.070068359	-0.789306641	884.48	-37.92735936	-7.632397472	147.3328538	-73
44148	0	0.049248695	-0.240777016	0.314027786	0.999999046	-0.000180244	-6.86646E-05	9.53674E-05	1.231217384	-6.019425392	7.850694656	-0.009012222	-0.003433228	0.004768372	-0.655517578	0.070068359	-0.783447266	884.38	-37.9479319	-7.628071566	147.3313159	-73
44149	0	0.049682617	-0.24230957	0.312011719	0.999999046	-4.19617E-05	-6.77109E-05	3.43323E-05	1.24206543	-6.057739258	7.800292969	-0.002098083	-0.003385544	0.001716614	-0.655517578	0.070068359	-0.789306641	884.4	-37.95197413	-7.627954326	147.3151522	-73
44150	0	0.049403191	-0.240631104	0.31125164	0.999999046	0.000108719	-0.00012207	-0.0001688	1.235079765	-6.015777588	7.781291008	0.005435944	-0.006103516	-0.008440018	-0.655517578	0.070068359	-0.789306641	884.44	-37.9367991	-7.647060497	147.2851213	-73
44151	0	0.050415039	-0.239990234	0.311889648	0.999999046	-0.000137329	-0.00014019	-0.000137329	1.260375977	-5.999755859	7.797241211	-0.006866455	-0.007009506	-0.006866455	-0.657958984	0.0703125	-0.786376953	884.46	-37.95031077	-7.66563359	147.2677431	-73
44152	0	0.050507545	-0.241588593	0.311076164	0.999999046	-0.000159264	-0.000211716	-2.00272E-05	1.262688637	-6.039714813	7.776904106	-0.007963181	-0.010585785	-0.001001358	-0.657958984	0.0703125	-0.786376953	884.34	-37.96848612	-7.682440526	147.2652785	-73
44153	0	0.050292969	-0.241821289	0.311462402	0.999999046	-3.8147E-06	-0.000113487	6.48499E-05	1.257324219	-6.045532227	7.786560059	-0.000190735	-0.005674362	0.003242493	-0.657958984	0.0703125	-0.783447266	884.4	-37.96897372	-7.684409179	147.2679613	-73
44154	0	0.050515175	-0.240732193	0.311570168	0.999999046	7.62939E-05	-5.53131E-05	5.62668E-05	1.262879372	-6.018304825	7.789254189	0.003814697	-0.002765656	0.002813339	-0.658203125	0.0703125	-0.780517578	884.4	-37.95959822	-7.681761519	147.2708798	-73
44155	0	0.050231934	-0.240600586	0.311584473	0.999999046	-6.10352E-05	-8.29697E-05	9.91821E-05	1.25579834	-6.015014648	7.789611816	-0.003051758	-0.004148483	0.004959106	-0.655517578	0.067871094	-0.783203125	884.44	-37.96675267	-7.678594227	147.2668976	-73
44156	0	0.049077034	-0.240283012	0.313499451	0.999999046	-0.000218391	-0.000263214	-5.34058E-05	1.22692585	-6.00707531	7.837486267	-0.010919571	-0.013160706	-0.002670288	-0.660400391	0.0703125	-0.786132813	884.44	-37.99169367	-7.702419902	147.2675623	-73
44157	0	0.051147461	-0.243896484	0.31060791	0.999999046	-0.000213623	-0.00033474	-0.000148773	1.278686523	-6.097412109	7.765197754	-0.010681153	-0.016736985	-0.00743866	-0.657958984	0.0703125	-0.783447266	884.5	-38.01574584	-7.739479501	147.2638156	-73
44158	0	0.051915169	-0.241510391	0.310529709	0.999998093	0.000329018	-9.05991E-05	4.1008E-05	1.297879219	-6.037759781	7.763242722	0.016450882	-0.004529953	0.0020504	-0.657958984	0.0703125	-0.786376953	884.54	-37.97764329	-7.741183506	147.2562865	-73
44159	0	0.051391602	-0.239929199	0.311706543	0.999999046	-0.000148773	-0.000105858	3.43323E-05	1.284790039	-5.99822998	7.792663574	-0.00743866	-0.005292892	0.001716614	-0.657958984	0.0703125	-0.786376953	884.54	-37.99430084	-7.744789166	147.2488075	-73
44160	0	0.050158501	-0.244175911	0.310646057	0.999999046	-0.000155449	-3.62396E-05	0.00012207	1.253962517	-6.104397774	7.766151428	-0.007772446	-0.001811981	0.006103516	-0.660400391	0.0703125	-0.786132813	884.44	-38.01227268	-7.735896912	147.2481506	-73
44161	0	0.050109863	-0.243469238	0.311584473	0.999999046	0.000320435	-4.1008E-05	-3.05176E-05	1.252746582	-6.086730957	7.789611816	0.016021729	-0.0020504	-0.001525879	-0.657958984	0.067871094	-0.786132813	884.5	-37.97397467	-7.738169803	147.2273797	-73
44162	0	0.05112648	-0.240459442	0.311001778	0.999999046	0.000213623	-0.000144958	-1.52588E-05	1.278162003	-6.011486053	7.775044441	0.010681152	-0.007247925	-0.000762939	-0.657958984	0.067871094	-0.783203125	884.46	-37.94907288	-7.748798474	147.2206283	-73
44163	0	0.051086426	-0.240356445	0.31237793	0.999999046	-2.28882E-05	2.76566E-05	0	1.277160645	-6.008911133	7.809448242	-0.001144409	0.001382828	0	-0.660400391	0.0703125	-0.786132813	884.5	-37.94974673	-7.742783879	147.2067216	-73
44164	0	0.050642014	-0.24079895	0.312186241	0.999999046	-3.52859E-05	-9.53674E-06	7.15256E-05	1.266050339	-6.019973755	7.804656029	-0.001764297	-0.000476837	0.003576279	-0.657958984	0.070068359	-0.789306641	884.4	-37.9530662	-7.735090092	147.1929561	-73
44165	0	0.051330566	-0.240539551	0.311096191	0.999999046	-0.000167847	-6.38962E-05	0.000110626	1.28326416	-6.01348877	7.777404785	-0.008392334	-0.003194809	0.005531311	-0.66015625	0.065673828	-0.788818359	884.46	-37.97258214	-7.729599058	147.1829159	-73
44166	0	0.051086426	-0.242492676	0.311950684	0.999999046	-0.000141144	-0.000171661	0.000152588	1.277160645	-6.062316895	7.79876709	-0.00705719	-0.008583069	0.007629395	-0.657958984	0.0703125	-0.783447266	884.5	-37.99059561	-7.7309186	147.1966613	-73
44167	0	0.051153183	-0.24209404	0.310344696	0.999998093	0.000279427	4.76837E-05	0.000272751	1.278829575	-6.052350998	7.758617401	0.013971329	0.002384186	0.013637543	-0.660400391	0.068115234	-0.782958984	884.48	-37.95985253	-7.703993146	147.2073563	-73
44168	0	0.049906731	-0.240063667	0.312710762	0.999999046	0.000290871	-4.76837E-05	0.000151634	1.247668266	-6.001591682	7.817769051	0.014543534	-0.002384186	0.007581711	-0.660400391	0.068115234	-0.780029297	884.5	-37.92713282	-7.694210033	147.2191163	-73
44169	0	0.050598145	-0.239990234	0.313293457	0.999999046	7.62939E-06	-5.62668E-05	0.000114441	1.264953613	-5.999755859	7.832336426	0.00038147	-0.002813339	0.005722046	-0.657958984	0.0703125	-0.786376953	884.48	-37.92642662	-7.687833993	147.2178246	-73
44170	0	0.050700188	-0.240608215	0.313412666	0.999999046	-6.86646E-05	-8.39233E-05	0.000160217	1.267504692	-6.015205383	7.835316658	-0.003433228	-0.004196167	0.008010864	-0.657958984	0.067871094	-0.786132813	884.48	-37.93522808	-7.68075002	147.218491	-73
44171	0	0.050354004	-0.241149902	0.311706543	0.999999046	7.24792E-05	2.38419E-05	0.000148773	1.258850098	-6.028747559	7.792663574	0.003623962	0.001192093	0.00743866	-0.657958984	0.067871094	-0.786132813	884.54	-37.92670065	-7.664743761	147.211071	-73
44172	0	0.049534798	-0.241425514	0.31107235	0.999999046	6.77109E-05	9.53674E-06	9.44138E-05	1.238369942	-6.035637856	7.776808739	0.003385544	0.000476837	0.004720688	-0.657958984	0.0703125	-0.786376953	884.4	-37.91822957	-7.653839785	147.2041352	-73
44173	0	0.050170898	-0.241088867	0.312255859	0.999999046	7.24792E-05	3.52859E-05	0.000167847	1.254272461	-6.02722168	7.806396484	0.003623962	0.001764297	0.008392334	-0.660400391	0.068115234	-0.785888672	884.4	-37.90985626	-7.635445639	147.2032888	-73
44174	0	0.050739288	-0.240267754	0.312355042	0.999999046	0.000135422	-0.000108719	7.62939E-05	1.268482208	-6.00669384	7.808876038	0.006771088	-0.005435944	0.003814697	-0.657958984	0.067871094	-0.783203125	884.4	-37.89447796	-7.636565759	147.2046647	-73
44175	0	0.050842285	-0.239868164	0.312744141	0.999999046	2.28882E-05	-2.57492E-05	0.000221252	1.271057129	-5.996704102	7.818603516	0.001144409	-0.00128746	0.011062622	-0.655517578	0.067871094	-0.786132813	884.46	-37.89292199	-7.620026054	147.2049288	-73
44176	0	0.049286842	-0.240120888	0.312202454	0.999999046	-0.000142097	-8.7738E-05	0.000286102	1.232171059	-6.003022194	7.80506134	-0.007104874	-0.004386902	0.014305115	-0.657958984	0.068115234	-0.780273438	884.44	-37.91157996	-7.60451184	147.228249	-73
44177	0	0.049682617	-0.24041748	0.312072754	0.999999046	-0.000301361	-0.000121117	2.67029E-05	1.24206543	-6.010437012	7.801818848	-0.015068054	-0.006055832	0.001335144	-0.657958984	0.067871094	-0.786132813	884.54	-37.94566878	-7.610272833	147.2193566	-73
44178	0	0.052248001	-0.243844032	0.312828064	0.999999046	8.01086E-05	-0.000108719	6.00815E-05	1.306200027	-6.096100807	7.820701599	0.004005432	-0.005435944	0.003004074	-0.657958984	0.067871094	-0.783203125	884.46	-37.93640391	-7.612677754	147.2175503	-73
44179	0	0.050964355	-0.23840332	0.31262207	0.999999046	0.000259399	0.000115395	0.000278473	1.274108887	-5.960083008	7.815551758	0.012969971	0.00576973	0.013923645	-0.657958984	0.067871094	-0.783203125	884.4	-37.90698857	-7.579512353	147.2209082	-73
44180	0	0.048866272	-0.240221977	0.313062668	0.999999046	-0.000163078	0.000137329	0.000227928	1.221656799	-6.005549431	7.826566696	-0.008153916	0.006866455	0.011396408	-0.655761719	0.072265625	-0.783691406	884.4	-37.92510489	-7.547889164	147.2216831	-73
44181	0	0.04864502	-0.243591309	0.311462402	0.999999046	-0.000141144	-4.1008E-05	9.15527E-05	1.216125488	-6.089782715	7.786560059	-0.00705719	-0.0020504	0.004577637	-0.657958984	0.0703125	-0.786376953	884.44	-37.94087628	-7.541944371	147.217949	-73
44182	0	0.050152779	-0.24088192	0.312427521	0.999999046	0.000341415	-0.000112534	-5.81741E-05	1.253819466	-6.022047997	7.810688019	0.017070771	-0.005626679	-0.002908707	-0.657958984	0.0703125	-0.786376953	884.44	-37.90019901	-7.553052841	147.2067422	-73
44183	0	0.049438477	-0.239562988	0.313964844	0.999999046	0.000156403	-0.000144005	3.8147E-05	1.235961914	-5.989074707	7.849121094	0.007820129	-0.007200241	0.001907349	-0.657958984	0.067871094	-0.786132813	884.4	-37.88206682	-7.560219876	147.2029001	-73
44184	0	0.049694061	-0.240568161	0.313597679	0.999999046	-0.000201225	-0.000144958	0.000102997	1.242351532	-6.014204025	7.839941978	-0.010061264	-0.007247925	0.005149841	-0.655517578	0.070068359	-0.786376953	884.4	-37.90565394	-7.562916238	147.20382	-73
44185	0	0.050476074	-0.2421875	0.312255859	0.999999046	-1.52588E-05	-4.1008E-05	8.39233E-05	1.261901855	-6.0546875	7.806396484	-0.000762939	-0.0020504	0.004196167	-0.655517578	0.070068359	-0.789306641	884.38	-37.90679193	-7.557597649	147.1911076	-73
44186	0	0.049485207	-0.240252495	0.31175518	0.999999046	9.53674E-05	-5.91278E-05	0.000197411	1.237130165	-6.00631237	7.793879509	0.004768372	-0.00295639	0.009870529	-0.655517578	0.070068359	-0.786376953	884.4	-37.89676043	-7.545939031	147.1950513	-73
44187	0	0.04888916	-0.240600586	0.313110352	0.999999046	-6.10352E-05	-0.000102043	2.28882E-05	1.222229004	-6.015014648	7.827758789	-0.003051758	-0.005102158	0.001144409	-0.657958984	0.0703125	-0.783447266	884.44	-37.90290734	-7.550423928	147.1948614	-73
44188	0	0.049490929	-0.242106438	0.312948227	0.999999046	4.673E-05	5.14984E-05	5.62668E-05	1.237273216	-6.052660942	7.823705673	0.002336502	0.002574921	0.002813339	-0.657958984	0.067871094	-0.783203125	884.44	-37.89570922	-7.538669137	147.1835649	-73
44189	0	0.04901123	-0.241027832	0.312866211	0.999999046	0.000167847	-0.000227928	5.34058E-05	1.225280762	-6.025695801	7.821655273	0.008392334	-0.011396408	0.002670288	-0.657958984	0.0703125	-0.786376953	884.38	-37.87719232	-7.552365368	147.1907666	-73
44190	0	0.049554825	-0.240684509	0.31243515	0.999999046	-1.90735E-05	-6.10352E-05	0.00012207	1.238870621	-6.017112732	7.810878754	-0.000953674	-0.003051758	0.006103516	-0.657958984	0.070068359	-0.789306641	884.4	-37.87936709	-7.546141271	147.1871199	-73
44191	0	0.049621582	-0.241027832	0.312561035	0.999999046	-0.000160217	-2.95639E-05	5.34058E-05	1.240539551	-6.025695801	7.814025879	-0.008010864	-0.001478195	0.002670288	-0.660400391	0.068115234	-0.785888672	884.46	-37.89659588	-7.541916589	147.1806712	-73
44192	0	0.049674988	-0.24113369	0.313334465	0.999999046	4.48227E-05	-0.000173569	0.000121117	1.241874695	-6.028342247	7.833361626	0.002241135	-0.008678436	0.006055832	-0.657958984	0.067871094	-0.786132813	884.46	-37.89246707	-7.545957462	147.1856274	-73
44193	0	0.049621582	-0.240356445	0.31237793	0.999999046	-1.52588E-05	-2.86102E-06	0.000118256	1.240539551	-6.008911133	7.809448242	-0.000762939	-0.000143051	0.005912781	-0.657958984	0.067871094	-0.786132813	884.34	-37.89357576	-7.534777612	147.1784718	-73
44194	0	0.049261093	-0.240561485	0.313101768	0.999999046	1.33514E-05	-7.43866E-05	0.000109673	1.231527328	-6.014037132	7.827544212	0.000667572	-0.00371933	0.005483627	-0.657714844	0.067871094	-0.7890625	884.4	-37.89194335	-7.530661873	147.1705651	-73
44195	0	0.04876709	-0.239990234	0.312438965	0.999999046	-0.000247955	-0.000254631	1.52588E-05	1.219177246	-5.999755859	7.810974121	-0.012397766	-0.012731552	0.000762939	-0.655517578	0.070068359	-0.789306641	884.44	-37.92076752	-7.549467125	147.1657195	-73
44196	0	0.051664352	-0.243625641	0.310826302	0.999999046	-0.000145912	-0.000205994	-0.000123024	1.29160881	-6.090641022	7.770657539	-0.007295609	-0.010299683	-0.006151199	-0.657958984	0.067871094	-0.783203125	884.38	-37.93592575	-7.573729751	147.1541871	-73
44197	0	0.051086426	-0.239929199	0.312072754	0.999999046	6.10352E-05	5.05447E-05	0.000217438	1.277160645	-5.99822998	7.801818848	0.003051758	0.002527237	0.010871887	-0.657958984	0.072509766	-0.786376953	884.5	-37.92900262	-7.550905101	147.1588793	-73
44198	0	0.04893589	-0.240523338	0.311617851	0.999999046	-0.000318527	-6.86646E-05	0.000163078	1.223397255	-6.013083458	7.790446281	-0.015926361	-0.003433228	0.008153916	-0.660400391	0.072509766	-0.786376953	884.4	-37.96602782	-7.542659976	147.1695872	-72
44199	0	0.048583984	-0.244140625	0.311645508	0.999999046	-3.05176E-05	-0.000132561	-0.000160217	1.214599609	-6.103515625	7.791137695	-0.001525879	-0.006628037	-0.008010864	-0.655761719	0.072265625	-0.786621094	884.5	-37.96691466	-7.562919665	147.1475002	-72
44200	0	0.049781799	-0.240604401	0.31259346	0.999999046	0.000134468	-0.000289917	-0.000157356	1.244544983	-6.015110016	7.814836502	0.006723404	-0.01449585	-0.007867813	-0.655517578	0.070068359	-0.783447266	884.4	-37.95034813	-7.597204293	147.1377439	-73
44201	0	0.050476074	-0.240539551	0.31237793	0.999999046	-6.10352E-05	-0.000185966	-0.000160217	1.261901855	-6.01348877	7.809448242	-0.003051758	-0.009298325	-0.008010864	-0.655517578	0.070068359	-0.783447266	884.4	-37.95513194	-7.622332376	147.1201615	-73
44202	0	0.0505476	-0.240623474	0.312268257	0.999999046	-0.000259399	-0.000112534	3.05176E-05	1.263689995	-6.015586853	7.806706429	-0.012969971	-0.005626679	0.001525879	-0.655517578	0.070068359	-0.786376953	884.5	-37.98423886	-7.627409004	147.1091724	-73
44203	0	0.049560547	-0.243896484	0.311096191	0.999999046	-8.01086E-05	-0.000124931	-7.62939E-06	1.239013672	-6.097412109	7.777404785	-0.004005432	-0.006246567	-0.00038147	-0.655517578	0.070068359	-0.786376953	884.46	-37.99258649	-7.636265663	147.0954829	-72
44204	0	0.049398422	-0.241321564	0.31183815	0.999999046	0.000117302	-3.43323E-05	-4.76837E-06	1.234960556	-6.033039093	7.795953751	0.005865097	-0.001716614	-0.000238419	-0.657958984	0.0703125	-0.786376953	884.38	-37.97747884	-7.636705737	147.0806262	-73
44205	0	0.048828125	-0.240722656	0.312255859	0.999999046	3.8147E-06	-9.44138E-05	3.8147E-06	1.220703125	-6.018066406	7.806396484	0.000190735	-0.004720688	0.000190735	-0.655517578	0.070068359	-0.783447266	884.4	-37.97600752	-7.641905701	147.0715609	-72
44206	0	0.050411224	-0.242003441	0.312003136	0.999999046	-0.000146866	-7.05719E-05	-2.28882E-05	1.260280609	-6.050086021	7.800078392	-0.007343292	-0.003528595	-0.001144409	-0.658203125	0.0703125	-0.780517578	884.38	-37.99126351	-7.646854819	147.0674831	-73
44207	0	0.04901123	-0.241027832	0.313110352	0.999999046	5.72205E-05	-0.000121117	-1.90735E-05	1.225280762	-6.025695801	7.827758789	0.002861023	-0.006055832	-0.000953674	-0.657958984	0.0703125	-0.783447266	884.4	-37.98361115	-7.656036462	147.062142	-72
44208	0	0.049889565	-0.240624428	0.312820435	0.999999046	-0.000187874	-0.000143051	-6.48499E-05	1.247239113	-6.015610695	7.820510864	-0.009393692	-0.007152557	-0.003242493	-0.657958984	0.070068359	-0.789306641	884.34	-38.00365781	-7.670406592	147.0435545	-72
44209	0	0.050476074	-0.242126465	0.312072754	0.999999046	-0.000202179	-0.000128746	-0.00012207	1.261901855	-6.053161621	7.801818848	-0.010108948	-0.006437302	-0.006103516	-0.657958984	0.0703125	-0.786376953	884.46	-38.02452124	-7.687536654	147.0237136	-72
44210	0	0.050005913	-0.242362976	0.312571526	0.999999046	2.28882E-05	-0.000118256	-8.58307E-06	1.25014782	-6.059074402	7.814288139	0.001144409	-0.005912781	-0.000429153	-0.655517578	0.070068359	-0.783447266	884.38	-38.02087742	-7.695686491	147.014215	-73
44211	0	0.050292969	-0.241821289	0.312438965	0.999999046	9.53674E-05	-8.67844E-05	7.62939E-06	1.257324219	-6.045532227	7.810974121	0.004768372	-0.004339218	0.00038147	-0.660400391	0.0703125	-0.783203125	884.32	-38.00880266	-7.699843628	147.0126611	-72
44212	0	0.050160408	-0.241641045	0.312354088	0.999999046	8.10623E-05	-4.19617E-05	5.62668E-05	1.254010201	-6.041026115	7.808852196	0.004053116	-0.002098084	0.002813339	-0.660400391	0.0703125	-0.780273438	884.44	-37.99851239	-7.696507189	147.0173905	-73
44213	0	0.049194336	-0.241760254	0.312194824	0.999999046	1.90735E-05	-0.000182152	-8.01086E-05	1.229858398	-6.044006348	7.804870605	0.000953674	-0.00910759	-0.004005432	-0.658203125	0.0703125	-0.780517578	884.44	-37.99500511	-7.715384859	147.0155027	-72
44214	0	0.050810814	-0.240886688	0.31139183	0.999999046	-0.000379562	-0.000299454	-0.000305176	1.270270348	-6.022167206	7.784795761	-0.01897812	-0.014972688	-0.01525879	-0.660400391	0.0703125	-0.780273438	884.4	-38.03553182	-7.760759472	147.0036981	-72
44215	0	0.052185059	-0.245788574	0.311340332	0.999999046	7.62939E-06	-8.67844E-05	-0.000232697	1.304626465	-6.144714355	7.783508301	0.00038147	-0.004339218	-0.011634827	-0.658203125	0.072509766	-0.783447266	884.38	-38.03071172	-7.781877307	146.9790054	-72
44216	0	0.051130295	-0.240084648	0.312738419	0.999999046	0.000397682	-6.48499E-05	8.29697E-05	1.27825737	-6.002116203	7.818460464	0.01988411	-0.003242493	0.004148483	-0.660400391	0.0703125	-0.783203125	884.56	-37.98477492	-7.778735663	146.9825074	-72
44217	0	0.051025391	-0.240905762	0.313964844	0.999999046	-0.000160217	2.00272E-05	0.000190735	1.275634766	-6.022644043	7.849121094	-0.008010864	0.001001358	0.009536743	-0.660400391	0.068115234	-0.782958984	884.38	-38.00320225	-7.760317872	146.9858795	-72
44218	0	0.049881935	-0.244015694	0.311202049	0.999999046	-1.71661E-05	-7.24792E-05	1.04904E-05	1.247048378	-6.100392342	7.780051231	-0.000858307	-0.003623962	0.000524521	-0.657958984	0.0703125	-0.783447266	884.54	-38.00403007	-7.762913857	146.9787267	-72
44219	0	0.050292969	-0.2421875	0.312683105	0.999999046	0.000453949	-6.00815E-05	7.24792E-05	1.257324219	-6.0546875	7.817077637	0.02269745	-0.003004074	0.003623963	-0.657714844	0.067871094	-0.782958984	884.38	-37.95152027	-7.759979265	146.9738542	-72
44220	0	0.050356865	-0.239043236	0.312771797	0.999999046	0.000395775	-0.000143051	-1.14441E-05	1.258921623	-5.976080894	7.81929493	0.019788743	-0.007152558	-0.000572205	-0.657714844	0.067871094	-0.782958984	884.4	-37.90532469	-7.770438116	146.9682756	-72
44221	0	0.050415039	-0.23828125	0.312805176	0.999999046	-0.000164032	-0.000189781	0.0001297	1.260375977	-5.95703125	7.820129395	-0.008201599	-0.00948906	0.006484985	-0.659912109	0.065673828	-0.785644531	884.34	-37.92535685	-7.775163152	146.9728948	-72
44222	0	0.05193615	-0.241388321	0.312400818	0.999999046	-0.000488281	-8.01086E-05	0.000110626	1.29840374	-6.034708023	7.810020447	-0.024414064	-0.004005432	0.005531311	-0.66015625	0.068115234	-0.782958984	884.38	-37.98125087	-7.771369445	146.9756342	-73
44223	0	0.051391602	-0.242919922	0.311157227	0.999999046	-0.000171661	-2.19345E-05	0.0001297	1.284790039	-6.072998047	7.778930664	-0.008583069	-0.001096725	0.006484985	-0.657714844	0.067871094	-0.782958984	884.44	-38.00063576	-7.760994798	146.9713497	-73
44224	0	0.05152607	-0.241576195	0.312108994	0.999999046	7.72476E-05	9.53674E-06	0.000208855	1.288151741	-6.039404869	7.802724838	0.003862381	0.000476837	0.010442734	-0.657714844	0.067871094	-0.785888672	884.38	-37.99217421	-7.742224467	146.9676447	-73
44225	0	0.049743652	-0.241516113	0.311706543	0.999999046	0.000247955	5.05447E-05	0.000118256	1.243591309	-6.037902832	7.792663574	0.012397766	0.002527237	0.005912781	-0.657714844	0.067871094	-0.785888672	884.38	-37.96265433	-7.726092775	146.9541735	-73
44226	0	0.050082207	-0.240580559	0.312318802	0.999999046	7.05719E-05	-3.43323E-05	9.91821E-05	1.252055168	-6.014513969	7.807970047	0.003528595	-0.001716614	0.004959106	-0.657714844	0.070068359	-0.7890625	884.56	-37.95400581	-7.718948048	146.9441624	-73
44227	0	0.050476074	-0.24029541	0.313659668	0.999999046	-3.05176E-05	-8.29697E-05	0.0001297	1.261901855	-6.007385254	7.841491699	-0.001525879	-0.004148483	0.006484985	-0.657958984	0.0703125	-0.780273438	884.5	-37.95766501	-7.714050224	146.9555349	-73
44228	0	0.050221443	-0.240877151	0.312842369	0.999999046	-0.000121117	-4.57764E-05	0.000209808	1.255536079	-6.021928787	7.821059227	-0.006055832	-0.002288818	0.010490418	-0.657714844	0.070068359	-0.786132813	884.46	-37.97231417	-7.700121547	146.9604093	-73
44229	0	0.050842285	-0.241394043	0.312561035	0.999999046	-2.28882E-05	-4.1008E-05	0.000125885	1.271057129	-6.034851074	7.814025879	-0.001144409	-0.0020504	0.006294251	-0.655273438	0.067871094	-0.786132813	884.54	-37.97463716	-7.691693884	146.9497042	-73
44230	0	0.050013542	-0.240994453	0.312178612	0.999999046	0.000104904	-0.000101089	1.81198E-05	1.250338554	-6.024861336	7.804465294	0.005245209	-0.005054474	0.000905991	-0.657714844	0.067871094	-0.785888672	884.46	-37.96155241	-7.696277922	146.9381957	-73
44231	0	0.050476074	-0.240600586	0.311828613	0.999999046	8.01086E-05	-6.38962E-05	0.000118256	1.261901855	-6.015014648	7.795715332	0.004005432	-0.003194809	0.005912781	-0.657714844	0.070068359	-0.786132813	884.46	-37.95215484	-7.690455828	146.936995	-73
44232	0	0.049604416	-0.24092865	0.31216526	0.999999046	0.000107765	4.19617E-05	0.000170708	1.240110397	-6.023216248	7.804131508	0.00538826	0.002098084	0.008535385	-0.660400391	0.0703125	-0.780273438	884.38	-37.93918714	-7.671346105	146.9479359	-73
44233	0	0.048706055	-0.239868164	0.31237793	0.999999046	-0.000152588	-1.81198E-05	9.91821E-05	1.217651367	-5.996704102	7.809448242	-0.007629395	-0.000905991	0.004959106	-0.655517578	0.070068359	-0.786132813	884.44	-37.95572926	-7.662626148	146.9384624	-73
44234	0	0.05184269	-0.243697166	0.312239647	0.999999046	-0.000181198	-0.000202179	-0.000138283	1.296067238	-6.092429161	7.805991173	-0.009059906	-0.010108948	-0.006914139	-0.657714844	0.070068359	-0.7890625	884.46	-37.97451552	-7.687350546	146.9184765	-73
44235	0	0.051391602	-0.241088867	0.3125	0.999999046	0.000362396	-9.05991E-05	0.000232697	1.284790039	-6.02722168	7.8125	0.018119813	-0.004529953	0.011634827	-0.657714844	0.067871094	-0.782958984	884.46	-37.93443483	-7.675904097	146.931381	-73
44236	0	0.048956871	-0.23850441	0.314249992	0.999999046	-0.000159264	-3.8147E-06	0.000453949	1.223921776	-5.962610245	7.856249809	-0.007963181	-0.000190735	0.02269745	-0.655517578	0.070068359	-0.783447266	884.6	-37.9558232	-7.640964676	146.9570322	-73
44237	0	0.04864502	-0.244689941	0.31262207	0.999999046	-0.000228882	-5.62668E-05	0.000175476	1.216125488	-6.117248535	7.815551758	-0.011444092	-0.002813339	0.008773804	-0.657958984	0.072509766	-0.783447266	884.5	-37.98241805	-7.63030555	146.9683379	-73
44238	0	0.049388885	-0.242042542	0.311833382	0.999999046	0.000417709	-0.000207901	-4.29153E-05	1.234722137	-6.051063538	7.795834541	0.020885468	-0.01039505	-0.002145767	-0.657958984	0.070068359	-0.783203125	884.44	-37.93374915	-7.648714682	146.9673385	-73
44239	0	0.049804688	-0.239929199	0.314453125	0.999999046	0.00019455	-0.000208855	-7.62939E-06	1.245117188	-5.99822998	7.861328125	0.009727478	-0.010442734	-0.00038147	-0.657714844	0.070068359	-0.7890625	884.4	-37.91099071	-7.664703189	146.9596618	-73
44240	0	0.050427437	-0.239685059	0.31415844	0.999999046	-0.000323296	-2.67029E-05	2.67029E-05	1.260685921	-5.992126465	7.853960991	-0.01616478	-0.001335144	0.001335144	-0.655273438	0.070068359	-0.7890625	884.38	-37.94616648	-7.661820593	146.9379314	-73
44241	0	0.050476074	-0.242248535	0.311828613	0.999999046	-0.000114441	-0.000105858	0.000118256	1.261901855	-6.056213379	7.795715332	-0.005722046	-0.005292892	0.005912781	-0.657714844	0.070068359	-0.7890625	884.54	-37.95933275	-7.659660873	146.9336655	-73
44242	0	0.049386978	-0.240074158	0.313227654	0.999999046	5.72205E-05	0.000120163	0.00012207	1.234674454	-6.001853943	7.830691338	0.002861023	0.006008148	0.006103516	-0.657714844	0.070068359	-0.7890625	884.52	-37.95065719	-7.63677606	146.9148442	-73
44243	0	0.049255371	-0.240905762	0.312988281	0.999999046	0	1.23978E-05	6.48499E-05	1.231384277	-6.022644043	7.824707031	0	0.000619888	0.003242493	-0.655517578	0.070068359	-0.783447266	884.5	-37.94882409	-7.627630956	146.9049505	-73
44244	0	0.0490942	-0.241705894	0.314026833	0.999999046	-3.52859E-05	-0.000102997	-2.76566E-05	1.227355003	-6.042647362	7.850670815	-0.001764297	-0.005149841	-0.001382828	-0.655273438	0.070068359	-0.7890625	884.44	-37.95099455	-7.635378115	146.8851806	-73
44245	0	0.049621582	-0.240905762	0.313537598	0.999999046	0.000102997	-0.000170708	-0.000110626	1.240539551	-6.022644043	7.838439941	0.005149841	-0.008535385	-0.005531311	-0.657714844	0.067871094	-0.785888672	884.44	-37.93689948	-7.655075522	146.8682617	-73
44246	0	0.050697327	-0.240464211	0.312897682	0.999999046	-0.000114441	-0.000143051	2.67029E-05	1.267433167	-6.011605263	7.822442055	-0.005722046	-0.007152557	0.001335144	-0.66015625	0.067871094	-0.788818359	884.5	-37.9490947	-7.662631855	146.8603651	-73
44247	0	0.050048828	-0.241760254	0.313293457	0.999999046	-3.8147E-05	-7.9155E-05	0.000133514	1.251220703	-6.044006348	7.832336426	-0.001907349	-0.003957748	0.00667572	-0.657958984	0.070068359	-0.783203125	884.46	-37.95321879	-7.656888119	146.8673728	-73
44248	0	0.048996925	-0.240576744	0.313816071	0.999999046	-9.44138E-05	-2.28882E-05	8.39233E-05	1.224923134	-6.014418602	7.845401764	-0.004720688	-0.001144409	0.004196167	-0.66015625	0.068115234	-0.785888672	884.5	-37.96260047	-7.649495567	146.861143	-73
44249	0	0.048706055	-0.241088867	0.313049316	0.999999046	-0.000175476	-0.00014782	3.8147E-06	1.217651367	-6.02722168	7.82623291	-0.008773804	-0.007390976	0.000190735	-0.655517578	0.070068359	-0.783447266	884.52	-37.98145486	-7.658974965	146.8562114	-73
44250	0	0.048797607	-0.239796638	0.314292908	0.999999046	-0.000177383	-0.000114441	-0.000114441	1.219940186	-5.994915962	7.857322693	-0.008869171	-0.005722046	-0.005722046	-0.657714844	0.070068359	-0.786132813	884.5	-37.99865906	-7.673716431	146.8367777	-73
44251	0	0.050842285	-0.242431641	0.31262207	0.999999046	-0.000320435	-0.000170708	-0.000148773	1.271057129	-6.060791016	7.815551758	-0.016021729	-0.008535385	-0.00743866	-0.66015625	0.0703125	-0.783203125	884.5	-38.03239485	-7.696005443	146.826408	-73
44252	0	0.051630974	-0.241945267	0.312387466	0.999999046	0.000199318	-1.71661E-05	9.05991E-05	1.290774345	-6.048631668	7.809686661	0.009965897	-0.000858307	0.004529953	-0.657714844	0.067871094	-0.782958984	884.4	-38.00804745	-7.687604258	146.8199186	-73
44253	0	0.049865723	-0.238220215	0.31237793	0.999999046	-0.000141144	4.76837E-06	0.000228882	1.246643066	-5.955505371	7.809448242	-0.00705719	0.000238419	0.011444092	-0.657714844	0.067871094	-0.780029297	884.38	-38.02404961	-7.667463748	146.8289614	-73
44254	0	0.048957825	-0.242787361	0.312492371	0.999999046	-0.000211716	-0.000202179	1.81198E-05	1.223945618	-6.069684029	7.812309265	-0.010585785	-0.010108948	0.000905991	-0.657714844	0.067871094	-0.782958984	884.4	-38.04760145	-7.680814493	146.8275328	-73
44255	0	0.049438477	-0.243713379	0.311767578	0.999999046	0.000328064	-0.000174522	-7.24792E-05	1.235961914	-6.092834473	7.794189453	0.016403199	-0.00872612	-0.003623962	-0.657958984	0.070068359	-0.783203125	884.56	-38.00802126	-7.698028121	146.8207023	-73
44256	0	0.050803185	-0.241181374	0.313555717	0.999999046	0.000231743	-0.000112534	-0.00011158	1.270079613	-6.02953434	7.838892937	0.011587143	-0.005626679	-0.005578995	-0.657714844	0.070068359	-0.786132813	884.44	-37.97836525	-7.712419296	146.8015365	-73
44257	0	0.050354004	-0.239318848	0.313781738	0.999999046	-0.000202179	-0.000121117	-2.67029E-05	1.258850098	-5.982971191	7.844543457	-0.010108948	-0.006055832	-0.001335144	-0.657714844	0.067871094	-0.788818359	884.48	-37.99944909	-7.721593742	146.7818083	-73
44258	0	0.05025959	-0.243166924	0.313304901	0.999999046	-0.000207901	-0.000143051	-2.76566E-05	1.256489754	-6.079173088	7.832622528	-0.01039505	-0.007152557	-0.001382828	-0.657714844	0.067871094	-0.785888672	884.4	-38.02142621	-7.732801375	146.7679972	-73
44259	0	0.050354004	-0.24206543	0.313537598	0.999999046	3.43323E-05	-6.67572E-06	-3.43323E-05	1.258850098	-6.051635742	7.838439941	0.001716614	-0.000333786	-0.001716614	-0.66015625	0.068115234	-0.785888672	884.46	-38.01423696	-7.732156355	146.7488879	-73
44260	0	0.049947739	-0.240819931	0.313919067	0.999999046	-0.000128746	-0.000143051	0.000102997	1.248693466	-6.020498276	7.847976685	-0.006437302	-0.007152557	0.005149841	-0.657714844	0.067871094	-0.785888672	884.5	-38.0286586	-7.734096648	146.7471052	-73
44261	0	0.049804688	-0.242370605	0.311828613	0.999999046	-3.05176E-05	-9.05991E-05	7.24792E-05	1.245117188	-6.059265137	7.795715332	-0.001525879	-0.004529953	0.003623962	-0.657958984	0.070068359	-0.783203125	884.44	-38.03098246	-7.733428834	146.7475929	-73
44262	0	0.049582481	-0.241298676	0.313207626	0.999999046	0.000146866	-0.000146866	-3.52859E-05	1.239562035	-6.032466888	7.830190659	0.007343292	-0.007343292	-0.001764297	-0.657958984	0.070068359	-0.783203125	884.46	-38.0121592	-7.745401009	146.7425785	-73
44263	0	0.050292969	-0.240478516	0.313110352	0.999999046	-9.91821E-05	-0.000239372	-8.01086E-05	1.257324219	-6.011962891	7.827758789	-0.004959107	-0.011968613	-0.004005432	-0.657714844	0.070068359	-0.786132813	884.5	-38.02181848	-7.768873916	146.7340426	-73
44264	0	0.050847054	-0.241143227	0.312427521	0.999999046	-0.000180244	-0.000123978	-0.000133514	1.271176338	-6.028580666	7.810688019	-0.009012222	-0.006198883	-0.00667572	-0.657714844	0.067871094	-0.788818359	884.52	-38.03900043	-7.785706012	146.7038166	-73
44265	0	0.05090332	-0.241699219	0.312133789	0.999999046	5.34058E-05	-9.82285E-05	6.10352E-05	1.272583008	-6.042480469	7.803344727	0.002670288	-0.004911423	0.003051758	-0.657958984	0.068115234	-0.777099609	884.48	-38.03153369	-7.786500112	146.7102354	-73
44266	0	0.050813675	-0.240940094	0.313064575	0.999999046	4.19617E-05	-0.000144958	0.000141144	1.270341873	-6.02350235	7.82661438	0.002098084	-0.007247925	0.00705719	-0.657714844	0.067871094	-0.788818359	884.5	-38.026811	-7.785843083	146.7063956	-73
44267	0	0.049926758	-0.240905762	0.313781738	0.999999046	-4.95911E-05	-2.95639E-05	5.72205E-05	1.248168945	-6.022644043	7.844543457	-0.002479553	-0.001478195	0.002861023	-0.66015625	0.068115234	-0.785888672	884.54	-38.030349	-7.780652268	146.6961879	-73
44268	0	0.049377441	-0.240356445	0.313537598	0.999999046	-0.000216484	-0.000217438	-8.01086E-05	1.234436035	-6.008911133	7.838439941	-0.010824204	-0.010871887	-0.004005432	-0.66015625	0.068115234	-0.782958984	884.5	-38.05304279	-7.802049061	146.6908464	-73
44269	0	0.052036285	-0.244585037	0.312804222	0.999998093	-0.000248909	-0.000156403	-1.90735E-05	1.300907135	-6.114625931	7.820105553	-0.01244545	-0.00782013	-0.000953674	-0.660400391	0.068115234	-0.782958984	884.38	-38.07972608	-7.81367314	146.6861694	-73
44270	0	0.052090645	-0.243237495	0.311779976	0.999999046	0.000572205	-5.14984E-05	6.38962E-05	1.302266121	-6.080937386	7.794499397	0.028610231	-0.002574921	0.003194809	-0.655517578	0.067871094	-0.786132813	884.44	-38.01241609	-7.810017831	146.6701984	-73
44271	0	0.051025391	-0.237426758	0.313842773	0.999999046	0.000198364	7.34329E-05	0.000267029	1.275634766	-5.935668945	7.846069336	0.009918213	0.003671646	0.013351441	-0.657958984	0.067871094	-0.786132813	884.46	-37.98903937	-7.780764437	146.6687627	-73
44272	0	0.049507141	-0.241785049	0.312725067	0.999999046	-0.000386238	1.90735E-05	0.000216484	1.237678528	-6.044626236	7.818126678	-0.019311906	0.000953674	0.010824204	-0.660400391	0.068115234	-0.785888672	884.52	-38.03256677	-7.759920792	146.6703118	-73
44273	0	0.04901123	-0.245178223	0.31237793	0.999999046	4.57764E-05	-0.000132561	4.95911E-05	1.225280762	-6.129455566	7.809448242	0.002288818	-0.006628037	0.002479553	-0.660400391	0.068115234	-0.782958984	884.44	-38.02613634	-7.764453992	146.6723547	-73
44274	0	0.050718307	-0.241676331	0.314216614	0.999999046	0.000375748	-0.000246048	-0.000191689	1.267957687	-6.041908264	7.855415344	0.018787385	-0.012302399	-0.009584427	-0.657958984	0.0703125	-0.783447266	884.5	-37.97995813	-7.796258675	146.6607339	-73
44275	0	0.050598145	-0.237731934	0.315185547	0.999999046	-0.000152588	-0.000311852	7.62939E-06	1.264953613	-5.94329834	7.879638672	-0.007629395	-0.015592575	0.00038147	-0.657958984	0.067871094	-0.783203125	884.4	-37.99720921	-7.819933586	146.6664917	-73
44276	0	0.050729752	-0.241491318	0.315201759	0.999999046	-0.000823021	-0.00047493	0.000114441	1.26824379	-6.037282944	7.880043983	-0.041151053	-0.023746494	0.005722047	-0.657958984	0.067871094	-0.783203125	884.3	-38.09414234	-7.850744306	146.6892817	-73
44277	0	0.050170898	-0.240661621	0.314147949	0.999999046	-0.000747681	-0.00064373	0.000282288	1.254272461	-6.016540527	7.85369873	-0.03738404	-0.032186514	0.014114382	-0.657958984	0.0703125	-0.783447266	884.46	-38.18610341	-7.884785649	146.7382748	-73
44278	0	0.053429604	-0.242505074	0.314022064	0.999999046	0.000606537	-4.3869E-05	0.000914574	1.335740089	-6.062626839	7.850551605	0.030326849	-0.002193451	0.045728693	-0.657958984	0.072509766	-0.786376953	884.44	-38.1248086	-7.820093454	146.8013751	-73
44279	0	0.056152344	-0.253356934	0.313598633	0.999997139	0.001422882	9.25064E-05	0.001895905	1.403808594	-6.33392334	7.83996582	0.071144171	0.004625325	0.094795316	-0.658203125	0.072509766	-0.783447266	884.46	-37.98097877	-7.67413114	146.9510365	-73
44280	0	0.051499367	-0.245829582	0.312660217	0.999993324	0.002411842	0.00060463	0.00241375	1.287484169	-6.145739555	7.816505432	0.120592359	0.030231536	0.120687726	-0.660400391	0.072509766	-0.789306641	884.5	-37.72499632	-7.446014828	147.1112138	-73
44281	0	0.05255127	-0.241638184	0.312133789	0.999992371	0.00118351	0.000717163	0.003398895	1.313781738	-6.04095459	7.803344727	0.059175624	0.035858235	0.169945145	-0.657958984	0.070068359	-0.789306641	884.38	-37.61962633	-7.139432069	147.3460508	-73
44282	0	0.049129486	-0.230805397	0.312080383	0.99998951	0.002714157	0.00053978	0.003468513	1.228237152	-5.770134926	7.802009583	0.135708301	0.026989072	0.173426244	-0.655761719	0.072265625	-0.786621094	884.5	-37.33963672	-6.84516122	147.6099055	-73
44283	0	0.039672852	-0.231567383	0.310241699	0.999996185	0.002011299	0.000274658	0.001537323	0.991821289	-5.78918457	7.75604248	0.100565065	0.013732925	0.076866233	-0.653320313	0.074462891	-0.789794922	884.38	-37.12046299	-6.709950582	147.7159964	-75
44284	0	0.029631615	-0.250647545	0.317432404	0.999995232	0.002211571	-0.000463486	0.000287056	0.740790367	-6.266188622	7.935810089	0.110578633	-0.023174306	0.014352811	-0.655761719	0.072265625	-0.786621094	884.4	-36.87132627	-6.728214887	147.7683054	-74
44285	0	0.037780762	-0.245483398	0.315368652	0.999982834	0.005307198	-0.001174927	-0.002140045	0.944519043	-6.137084961	7.884216309	0.265361388	-0.058746672	-0.107002867	-0.655517578	0.067871094	-0.7890625	884.38	-36.24699224	-6.97768374	147.6486289	-75
44286	0	0.043043137	-0.262462616	0.305377007	0.999927521	0.011303902	-0.00048542	-0.004051208	1.076078415	-6.561565399	7.634425163	0.565208689	-0.024271596	-0.202565301	-0.654785156	0.056640625	-0.791259766	884.38	-34.90790279	-7.28794246	147.3165261	-77
44287	0	0.050404549	-0.257653236	0.325422287	0.999800682	0.019317627	-0.000535011	-0.004927635	1.260113716	-6.44133091	8.135557175	0.965945387	-0.026752338	-0.246398095	-0.658447266	0.025390625	-0.791259766	884.32	-32.63779613	-7.647408152	146.9095262	-81
44288	0	0.077073097	-0.283223152	0.387528419	0.99955368	0.028921127	-0.002484322	0.00697422	1.926827431	-7.080578804	9.688210487	1.44627125	-0.124234538	0.348762832	-0.661376953	-0.012451172	-0.790771484	884.4	-29.43575342	-7.474115467	147.7722546	-85
44289	0	0.120605469	-0.353942871	0.394775391	0.999620438	0.02203083	-0.013832092	0.009048462	3.015136719	-8.848571777	9.869384766	1.101680831	-0.691692081	0.452480313	-0.667480469	-0.043457031	-0.781982422	884.44	-27.15038874	-8.375373714	149.4180201	-85
44290	0	0.115727425	-0.280575752	0.30235672	0.999495506	0.022584915	-0.014215469	0.017215729	2.893185616	-7.014393806	7.558917999	1.129435659	-0.710892996	0.860931193	-0.691162109	-0.055908203	-0.765136719	884.38	-24.95449416	-8.971602834	151.8922251	-77
44291	0	0.005187988	-0.026977539	0.316467285	0.99889946	0.046269417	0.00088501	0.007598877	0.129699707	-0.674438477	7.911682129	2.314319716	0.044266725	0.380083259	-0.709960938	-0.073242188	-0.748046875	884.4	-19.77558472	-8.542516941	152.7727225	-76
44292	0	-0.067728043	0.16864872	0.450437546	0.999992371	-0.00378418	0.000779152	0.000365257	-1.693201065	4.216217995	11.26093864	-0.189209459	0.038957694	0.018262909	-0.707519531	-0.129150391	-0.743408203	884.46	-20.20184743	-8.433534492	152.7288499	-75
44293	0	-0.071289063	-0.172241211	0.377502441	0.997468948	-0.070490837	0.007881165	0.004878998	-1.782226563	-4.306030273	9.437561035	-3.527517983	0.394390971	0.244155882	-0.704345703	-0.089111328	-0.752929688	884.54	-28.29944808	-7.363988854	152.6740028	-71
44294	0	-0.013484955	-1.056649208	0.597390175	0.999349594	-0.035271645	0.00158596	0.007305145	-0.337123871	-26.4162302	14.93475437	-1.763964554	0.07931521	0.365336447	-0.692871094	0.040283203	-0.764404297	884.4	-32.44717916	-6.761715422	153.2419962	-76
44295	0	0.072692871	-0.989135742	0.434936523	0.996209145	0.069984436	0.042019844	0.030052185	1.817321777	-24.72839355	10.87341309	3.503649777	2.103650834	1.504510681	-0.674316406	0.059570313	-0.787353516	884.5	-24.51489094	-0.860662639	154.3411509	-70
44296	0	-0.096861839	-0.734917641	0.345249176	0.995511055	0.053893089	0.008003235	0.077381134	-2.421545982	-18.37294102	8.631229401	2.698693144	0.400761495	3.874855546	-0.606201172	0.007568359	-0.850830078	884.46	-18.23128839	3.272054025	162.2333608	-66
44297	0	0.064819336	-0.80480957	0.055480957	0.990996361	0.087734222	-0.023066521	0.098468781	1.620483398	-20.12023926	1.387023926	4.399923614	-1.156799779	4.938268109	-0.602539063	0.036376953	-0.859375	884.34	-7.558029404	3.262241132	174.0741963	-73
44298	0	0.209524155	-0.545268059	-0.123764992	0.9865942	0.123090744	-0.025129318	0.104149818	5.238103867	-13.63170147	-3.094124794	6.182185712	-1.262110432	5.230884941	-0.634765625	0.006347656	-0.857910156	884.4	6.936431255	0.494114411	-173.3101842	-67
44299	0	0.321960449	-0.284973145	-0.14440918	0.987421036	0.117207527	-0.012237549	0.10541153	8.04901123	-7.124328613	-3.610229492	5.88507241	-0.614455937	5.29278707	-0.668457031	-0.052734375	-0.833740234	884.46	20.04037078	-3.637228276	-161.2391732	-67
44300	0	0.377999306	-0.106764793	-0.091489792	0.990334511	0.084816933	0.001245499	0.109730721	9.449982643	-2.669119835	-2.287244797	4.254562056	0.062476338	5.504280162	-0.686523438	-0.081298828	-0.830322266	884.6	28.47747672	-8.625557859	-149.3365553	-71
44301	0	0.53125	-0.059997559	0.017822266	0.991112709	0.047676086	0.012776375	0.123527527	13.28125	-1.499938965	0.445556641	2.390891253	0.640717917	6.194738404	-0.678466797	-0.041259766	-0.842773438	884.44	31.22218999	-14.37309047	-136.0646923	-57
44302	0	0.672809601	0.004490852	0.040487289	0.992547035	0.023393631	0.018432617	0.118162155	16.82024002	0.112271309	1.012182236	1.172595895	0.923927169	5.922828232	-0.639160156	0.062011719	-0.8828125	884.32	29.94269218	-19.42527504	-122.7166692	-58
44303	0	0.659606934	0.12677002	0.159484863	0.99178791	0.011863708	0.024697304	0.124923706	16.49017334	3.169250488	3.987121582	0.594814531	1.238256584	6.263339633	-0.559570313	0.173095703	-0.916992188	884.44	25.68480537	-23.59662987	-107.6302816	-56
44304	0	0.687506676	0.211122513	0.175413132	0.992806435	0.001290321	0.010503769	0.119254112	17.18766689	5.27806282	4.385328293	0.064671194	0.526451243	5.977042726	-0.453857422	0.287841797	-0.952636719	884.5	19.44378748	-27.73520961	-93.0261039	-60
44305	0	0.567626953	0.263061523	0.199768066	0.992964745	-0.019161224	0.005032539	0.116733551	14.19067383	6.576538086	4.99420166	-0.960314002	0.252218644	5.850401903	-0.348144531	0.391601563	-0.961425781	884.54	9.838919398	-30.56480779	-77.96571702	-63
44306	0	0.537614822	0.216733932	0.244477272	0.99485302	-0.024435043	-0.007253647	0.09806633	13.44037056	5.418348312	6.111931801	-1.223852443	-0.363305819	4.911745639	-0.23828125	0.501953125	-0.938964844	884.44	0.154895853	-32.37614997	-64.88140344	-65
44307	0	0.52166748	0.109375	0.24041748	0.996552467	-0.025672913	-0.017012596	0.077033997	13.04168701	2.734375	6.010437012	-1.285122714	-0.851608622	3.85613196	-0.154296875	0.591064453	-0.904541016	884.44	-8.65145378	-33.67783856	-54.18896349	-67
44308	0	0.41515255	-0.034357071	0.240383148	0.997220993	-0.035232544	-0.030520439	0.058106422	10.37881374	-0.858926773	6.009578705	-1.763260545	-1.527436857	2.908014881	-0.098144531	0.661132813	-0.864013672	884.4	-17.75857373	-35.5822888	-45.32557773	-69
44309	0	0.296386719	-0.180419922	0.184997559	0.997922897	-0.032046318	-0.037578583	0.041339874	7.409667969	-4.510498047	4.624938965	-1.603425737	-1.880230567	2.068425404	-0.080810547	0.732421875	-0.806884766	884.46	-25.94764312	-37.83896437	-37.82673736	-75
44310	0	0.222343445	-0.268313408	0.220288277	0.998480797	-0.016296387	-0.035348892	0.03899765	5.558586121	-6.707835197	5.507206917	-0.81523219	-1.768340142	1.950870476	-0.076904297	0.788574219	-0.756347656	884.38	-32.54517387	-39.20725267	-30.29439821	-69
44311	0	0.250793457	-0.243469238	0.245117188	0.998705864	0.000457764	-0.032881737	0.038787842	6.269836426	-6.086730957	6.127929688	0.02289806	-1.644796242	1.940228914	-0.066650391	0.813232422	-0.727050781	884.44	-37.32579589	-39.76123886	-22.75695747	-67
44312	0	0.234517097	-0.140208244	0.199450493	0.998541832	-0.014933586	-0.025085449	0.045390129	5.862927437	-3.505206108	4.986262321	-0.747042239	-1.254882117	2.270609578	-0.045654297	0.823730469	-0.723144531	884.54	-43.83260038	-38.56457281	-15.22459913	-72
44313	0	0.25213623	-0.231750488	0.209289551	0.998579025	-0.013625145	-0.025058746	0.044998169	6.303405762	-5.793762207	5.23223877	-0.681579943	-1.253530802	2.250974173	0.000244141	0.855957031	-0.681884766	884.48	-49.78806173	-36.76922938	-8.100509979	-81
44314	0	0.25530529	-0.210272789	0.215454102	0.998886108	-0.000458717	-0.022046089	0.041701317	6.382632256	-5.256819725	5.386352539	-0.022944382	-1.102713684	2.085839912	0.044677734	0.870117188	-0.670898438	884.34	-53.4382995	-34.58930512	-1.995057117	-75
44315	0	0.284973145	-0.329223633	0.225158691	0.998967171	0.013267517	-0.014433861	0.040977478	7.124328613	-8.23059082	5.628967285	0.663604215	-0.721941474	2.049579204	0.087646484	0.870849609	-0.667724609	884.44	-54.63605729	-31.75481397	2.90695987	-74
44316	0	0.208138466	-0.174348831	0.282032967	0.998467445	0.010647774	-0.010229111	0.053321838	5.203461647	-4.358720779	7.050824165	0.532660689	-0.511716843	2.667454049	0.147216797	0.839599609	-0.703125	884.38	-55.96751898	-27.38927499	8.020580516	-69
44317	0	0.211364746	-0.295654297	0.167602539	0.997098923	0.003861427	-0.016304016	0.074237823	5.284118652	-7.391357422	4.190063477	0.193258231	-0.815989802	3.715483749	0.231933594	0.818603516	-0.709228516	884.38	-58.35389838	-21.23667643	14.81050912	-63
44318	0	0.170606613	-0.171756744	0.129733086	0.997481346	-0.003837585	-0.011716843	0.069840431	4.265165329	-4.29391861	3.243327141	-0.192040487	-0.586334349	3.494955508	0.330078125	0.770263672	-0.728027344	884.4	-60.53492689	-15.01487152	20.3101694	-60
44319	0	0.223571777	-0.378234863	0.303466797	0.998376846	-0.005660057	-0.013713837	0.054969788	5.589294434	-9.455871582	7.586669922	-0.283155983	-0.686062852	2.749976551	0.417480469	0.73828125	-0.721435547	884.5	-62.19166424	-10.2352907	24.81273445	-61
44320	0	0.188384056	-0.41304493	0.166558266	0.99960804	-0.008887291	-0.007619858	0.025421143	4.709601402	-10.32612324	4.163956642	-0.444422579	-0.381042644	1.27122312	0.462158203	0.707519531	-0.732910156	884.4	-63.57153445	-8.045629347	26.93984917	-62
44321	0	0.154296875	-0.266174316	0.081420898	0.999156952	-0.025557518	0.007709503	0.031173706	3.857421875	-6.65435791	2.035522461	-1.27823492	0.385583458	1.559123216	0.492675781	0.711181641	-0.708740234	884.46	-66.60343311	-4.444323186	27.64330046	-62
44322	0	0.02532959	-0.437133789	0.178588867	0.998765945	-0.013197899	0.010373116	0.046737671	0.633239746	-10.92834473	4.46472168	-0.660166483	0.518869198	2.337845148	0.559326172	0.704589844	-0.674072266	884.5	-68.1719226	0.94822464	28.59834863	-65
44323	0	-0.016533852	-0.419246674	0.137529373	0.998927116	-0.014293671	0.006468773	0.04354763	-0.413346291	-10.48116684	3.438234329	-0.714938987	0.323554253	2.178159791	0.639404297	0.668701172	-0.646240234	884.38	-69.77271333	5.863816871	29.68905831	-65
44324	0	-0.034793854	-0.380678177	0.125551224	0.999412537	-0.010606766	0.007313728	0.031749725	-0.869846344	-9.516954422	3.138780594	-0.530442115	0.365758009	1.58779706	0.697509766	0.639892578	-0.623779297	884.4	-70.95769904	9.562619419	30.11448995	-65
44325	0	-0.08203125	-0.382019043	0.137878418	0.999483109	-0.013739586	0.012878418	0.026023865	-2.05078125	-9.550476074	3.446960449	-0.687097494	0.64403169	1.301417119	0.744140625	0.609375	-0.603515625	884.38	-72.65355313	12.84723653	29.62300456	-66
44326	0	-0.11457634	-0.364105225	0.128293037	0.999387741	-0.023442268	0.00972271	0.024075508	-2.864408493	-9.102630615	3.207325935	-1.172352603	0.486234685	1.204021051	0.789550781	0.592529297	-0.563720703	884.34	-75.4476986	15.79757992	29.2870598	-66
44327	0	-0.105407715	-0.349975586	0.097229004	0.999171257	-0.030750275	0.008294106	0.02532196	-2.635192871	-8.749389648	2.430725098	-1.537938294	0.414819791	1.266447636	0.832275391	0.584472656	-0.524658203	884.44	-79.08934123	18.8285316	28.97276243	-66
44328	0	-0.12345314	-0.348748207	0.07208252	0.998838425	-0.039089203	0.0106287	0.026065826	-3.086328506	-8.718705177	1.802062988	-1.955216777	0.531640748	1.303795866	0.867431641	0.579345703	-0.468017578	884.44	-83.88121016	21.95350075	28.14628848	-67
44329	0	-0.145446777	-0.359680176	0.034240723	0.998605728	-0.043654442	0.010417938	0.027786255	-3.636169434	-8.992004395	0.856018066	-2.183736992	0.521139113	1.389958733	0.907226563	0.571777344	-0.405517578	884.44	-89.35199967	25.19231978	27.03743508	-69
44330	0	-0.156834602	-0.34280014	-0.005830765	0.998614311	-0.041624069	0.008428574	0.031059265	-3.920865059	-8.57000351	-0.145769119	-2.082164885	0.421623362	1.553680658	0.947509766	0.552978516	-0.342041016	884.4	-94.70756518	28.70393111	25.79873382	-72
44331	0	-0.173217773	-0.330627441	-0.027770996	0.998659134	-0.038859367	0.005672455	0.033706665	-4.330444336	-8.265686035	-0.694274902	-1.943836746	0.283749502	1.686086483	0.986083984	0.520751953	-0.280517578	884.44	-99.86169286	32.44074603	24.46571554	-75
44332	0	-0.188134193	-0.324149132	-0.047031403	0.998498917	-0.04042244	0.004595757	0.036662102	-4.703354836	-8.103728294	-1.175785065	-2.022133638	0.229902845	1.834022636	1.025390625	0.475097656	-0.229248047	884.48	-105.5094791	36.410365	22.7091808	-79
44333	0	-0.222229004	-0.308105469	-0.093444824	0.998306274	-0.040789604	0.00220108	0.041419983	-5.555725098	-7.702636719	-2.336120605	-2.040632317	0.110116186	2.072169058	1.060791016	0.416015625	-0.185546875	884.54	-111.6143065	40.81550352	20.45397134	-86
44334	0	-0.258750916	-0.278906822	-0.116985321	0.99796772	-0.043489456	-0.001792908	0.046525002	-6.468772888	-6.972670555	-2.924633026	-2.175946578	-0.089706144	2.327826714	1.092041016	0.343505859	-0.155029297	884.54	-118.5872025	45.71674557	17.58776379	-87
44335	0	-0.284729004	-0.262817383	-0.135314941	0.997888565	-0.046076775	-0.006752014	0.045265198	-7.118225098	-6.57043457	-3.382873535	-2.305461255	-0.33783847	2.264853834	1.124267578	0.255371094	-0.131835938	884.52	-126.2756102	50.49480097	14.38353433	-83
44336	0	-0.315029144	-0.254784584	-0.167009354	0.998226166	-0.046730042	-0.020234108	0.030842781	-7.875728607	-6.369614601	-4.175233841	-2.337884528	-1.012304001	1.543051501	1.139648438	0.176513672	-0.131835938	884.46	-132.2363536	54.67974365	13.64098728	-76
44337	0	-0.309509277	-0.17791748	-0.193115234	0.997581482	-0.041766167	-0.051502228	0.020797729	-7.737731934	-4.447937012	-4.827880859	-2.08999289	-2.57718863	1.04072531	1.142089844	0.137939453	-0.184082031	884.46	-132.7382438	60.41067747	18.73171253	-72
44338	0	-0.493755341	-0.10007	-0.211327553	0.99587059	-0.043269157	-0.075911522	0.024627686	-12.34388351	-2.501749992	-5.28318882	-2.166440564	-3.80080894	1.233081949	1.123779297	0.115234375	-0.306396484	884.44	-127.6928713	68.20957586	29.83101497	-69
44339	0	-0.412902832	-0.338867188	-0.301513672	0.997839928	-0.02060318	-0.058062553	0.022777557	-10.3225708	-8.471679688	-7.537841797	-1.03090122	-2.905219358	1.139698424	1.068115234	0.086914063	-0.464111328	884.32	-117.8602143	74.02080199	42.71289129	-75
44340	0	-0.317445755	-0.245359421	-0.13765049	0.999572754	0.005571365	-0.01303196	0.025553703	-7.936143875	-6.133985519	-3.441262245	0.278607926	-0.651690742	1.277867063	1.027587891	0.063232422	-0.547119141	884.38	-117.4650315	77.27720951	42.47789963	-81
44341	0	-0.322814941	0.019287109	-0.017211914	0.999305725	0.00143528	-0.005870819	0.036762238	-8.070373535	0.482177734	-0.430297852	0.071780604	-0.293608902	1.838537356	1.018554688	-0.001464844	-0.564697266	884.4	-126.1027495	81.19696545	33.53586749	-69
44342	0	-0.246678352	-0.086324692	-0.044236183	0.998651505	-0.016821861	0.000418663	0.049100876	-6.166958809	-2.158117294	-1.105904579	-0.841471179	0.020942562	2.456147465	1.016601563	-0.06640625	-0.564941406	884.44	-166.1084284	84.43838785	-4.796678753	-75
44343	0	-0.501037598	0.07232666	-0.125427246	0.995363235	-0.057639122	0.076522827	0.008541107	-12.52593994	1.808166504	-3.135681152	-2.886418179	3.8320653	0.427716561	1.031005859	-0.077880859	-0.529785156	884.4	176.9387474	75.7184782	-15.24554511	-64
44344	0	-0.650444984	-0.030044556	-0.126701355	0.997440338	0.00693512	-0.044228554	0.05574894	-16.26112461	-0.751113892	-3.167533875	0.347052111	-2.213316248	2.789827456	1.078125	-0.101074219	-0.434326172	884.54	143.5765631	78.42675431	-50.21861982	-66
44345	0	-0.28314209	0.11517334	-0.066467285	0.997729301	0.028091431	-0.047320366	0.038814545	-7.078552246	2.879333496	-1.661682129	1.405635307	-2.367810236	1.942197074	1.001708984	-0.224609375	-0.544921875	884.4	112.4277363	78.23485608	-85.2730849	-73
44346	0	-0.416121483	0.156786919	-0.070428848	0.998117447	0.014214516	-0.059529305	0.00393486	-10.40303707	3.919672966	-1.760721207	0.711172079	-2.978334274	0.196866555	0.932373047	-0.305419922	-0.621826172	884.44	80.42925762	78.56512222	-119.5752398	-72
44347	0	-0.247680664	0.233825684	-0.090026855	0.997265816	0.005191803	-0.071871758	-0.016338348	-6.192016602	5.84564209	-2.250671387	0.259826934	-3.596865768	-0.817662571	0.845947266	-0.310058594	-0.730224609	884.44	43.91158414	76.26640541	-157.545146	-72
44348	0	-0.261155128	0.15179348	-0.006411552	0.99721241	0.008612633	-0.069532394	-0.025627136	-6.528878212	3.794836998	-0.160288811	0.431032101	-3.479852784	-1.282548402	0.743896484	-0.289306641	-0.831054688	884.5	21.63572349	71.07143392	178.2513938	-66
44349	0	-0.243103027	0.112060547	0.051147461	0.997011185	0.000348091	-0.068084717	-0.036487579	-6.077575684	2.801513672	1.278686523	0.017421912	-3.407630472	-1.826198199	0.641845703	-0.266357422	-0.923339844	884.4	6.995088099	64.51967078	162.4192609	-63
44350	0	-0.252461433	0.039254189	0.048903465	0.997113228	-0.004007339	-0.065080643	-0.038889885	-6.311535835	0.981354713	1.222586632	-0.20055996	-3.257166296	-1.946367111	0.531005859	-0.218505859	-1.002929688	884.46	-2.049078161	57.27590113	152.6079432	-63
44351	0	-0.249267578	0.001220703	0.090332031	0.997366905	0.005207062	-0.067450523	-0.026111603	-6.231689453	0.030517578	2.258300781	0.260581808	-3.375488925	-1.306727088	0.413574219	-0.187988281	-1.060058594	884.44	-4.838419946	49.41861713	148.3878117	-64
44352	0	-0.204162598	-0.026306152	0.090209961	0.997208595	0.014855385	-0.072299957	-0.011199951	-5.104064941	-0.657653809	2.255249023	0.743460937	-3.618364288	-0.56051905	0.275878906	-0.192626953	-1.113037109	884.46	-3.789743106	41.10476928	147.458188	-74
44353	0	-0.15553093	0.015929222	0.139917374	0.996649742	0.018745422	-0.079518318	0.003073692	-3.888273239	0.398230553	3.497934341	0.938318391	-3.980358455	0.153856338	0.117431641	-0.229736328	-1.136230469	884.46	-1.076866546	32.05825855	148.3775066	-79
44354	0	-0.159493446	-0.001672745	0.170694351	0.995944977	0.01806736	-0.087529182	0.0102005	-3.987336159	-0.041818619	4.26735878	0.904590772	-4.382382984	0.510715381	-0.064941406	-0.272705078	-1.136962891	884.46	1.587494742	22.06309925	149.6342937	-74
44355	0	-0.051940918	-0.046508789	0.113830566	0.994847298	0.031162262	-0.09647274	0.000747681	-1.298522949	-1.162719727	2.84576416	1.560794733	-4.831938866	0.037448374	-0.274414063	-0.312255859	-1.095947266	884.44	5.018676566	11.05726956	149.0608345	-72
44356	0	0.153692245	0.119457245	0.173827171	0.994703293	0.049985886	-0.089749336	-0.003343582	3.842306137	2.986431122	4.345679283	2.503716056	-4.49540608	-0.167474882	-0.478271484	-0.3984375	-1.004638672	884.54	10.59813758	0.949122584	147.2830893	-84
44357	0	0.260070801	0.361938477	0.972167969	0.992291451	0.018218994	-0.120184898	0.024101257	6.50177002	9.048461914	24.30419922	0.913297577	-6.024733069	1.20816878	-0.648681641	-0.494384766	-0.870605469	884.46	12.73380116	-13.10297181	147.165094	-76
44358	0	1.027392387	0.235842705	1.433725357	0.998600006	-0.045872688	0.025271416	-0.007333755	25.68480968	5.896067619	35.84313393	-2.294704876	1.264160506	-0.366858911	-0.876464844	-0.445068359	-0.701904297	884.54	7.558472242	-10.10931966	146.8452988	-72
44359	0	-0.180419922	-0.190002441	0.205627441	0.996747971	-0.06711483	0.041683197	-0.015808105	-4.510498047	-4.750061035	5.140686035	-3.359382941	2.086421451	-0.791262972	-0.729980469	-0.379882813	-0.884277344	884.48	0.062233831	-5.216440558	145.3286128	-75
44360	0	0.214852333	0.118674278	0.11920929	0.999570847	-0.019004822	0.012070656	0.018740654	5.371308327	2.966856956	2.980232239	-0.950377041	0.603619139	0.937166762	-0.701416016	-0.302978516	-0.927246094	884.54	-2.271033964	-3.798501971	147.444044	-77
44361	0	-0.035888672	-0.133850098	0.27154541	0.999597549	0.01850605	0.006973267	0.020294189	-0.897216797	-3.346252441	6.788635254	0.92542638	0.348710007	1.014845316	-0.679443359	-0.248046875	-0.956542969	884.44	-0.280720751	-2.951722381	149.7472765	-79
44362	0	-0.0644207	0.029963493	0.345959663	0.998600006	0.049151421	-0.019108772	-0.004014969	-1.610517502	0.749087334	8.648991585	2.458718164	-0.955884589	-0.200842148	-0.6875	-0.287841797	-0.940917969	884.4	5.400803401	-5.117892541	149.180944	-79
44363	0	-0.030151367	0.166809082	0.423461914	0.999387741	0.010914803	-0.031421661	-0.01084137	-0.75378418	4.170227051	10.58654785	0.545851519	-1.571403744	-0.542179123	-0.727783203	-0.379882813	-0.872802734	884.44	6.859865336	-8.560688433	147.5367368	-79
44364	0	0.221191406	0.071777344	0.614929199	0.999793053	-0.019301414	-0.003440857	0.00541687	5.529785156	1.794433594	15.37322998	-0.965137283	-0.172054712	0.270862185	-0.771484375	-0.380371094	-0.838378906	884.4	4.571615179	-9.01569739	148.1080774	-76
44365	0	0.005584717	-0.010162354	0.364575386	0.999917984	-0.009482384	0.008508682	0.000554085	0.13961792	-0.254058838	9.114384651	-0.474132038	0.425445644	0.02770499	-0.765380859	-0.347167969	-0.861816406	884.56	3.475873779	-8.045958031	148.2299974	-77
44366	0	0.073941231	0.07106781	0.303348541	0.999769211	-0.021428108	-0.00101757	-0.000413895	1.848530769	1.776695251	7.583713531	-1.071487635	-0.050882429	-0.020696321	-0.754150391	-0.325195313	-0.870117188	884.5	1.040584062	-8.160771908	148.1645843	-76
44367	0	0.053466797	-0.013305664	0.424560547	0.999944687	-0.010214806	0.002357483	0.000801086	1.336669922	-0.332641602	10.61401367	-0.51074969	0.117876317	0.040055059	-0.755371094	-0.291748047	-0.881591797	884.5	-0.131672487	-7.891331918	148.2480851	-76
44368	0	0.064127922	-0.021132469	0.425684929	0.999959946	-0.00810051	0.003428459	0.00107193	1.603198051	-0.528311729	10.64212322	-0.405030783	0.171425202	0.053597198	-0.750976563	-0.276367188	-0.894775391	884.46	-1.065876386	-7.497499414	148.3563471	-75
44369	0	0.02935791	-0.024108887	0.382995605	0.999995232	-0.002902985	0.000489235	0.00069809	0.733947754	-0.602722168	9.574890137	-0.145149452	0.024461784	0.034904533	-0.744384766	-0.260986328	-0.905273438	884.46	-1.399979418	-7.43896218	148.4245071	-75
44370	0	0.042264938	-0.006655693	0.400217056	0.999998093	0.000819206	-0.001404762	0.000102997	1.056623459	-0.166392326	10.00542641	0.04096033	-0.070238144	0.005149844	-0.744384766	-0.260986328	-0.90234375	884.48	-1.299388253	-7.598257268	148.4287394	-75
44371	0	0.052734375	0.003967285	0.403564453	0.999995232	-0.002304077	-0.001769066	0.000450134	1.318359375	0.099182129	10.08911133	-0.115204023	-0.08845342	0.022506746	-0.749267578	-0.260742188	-0.896240234	884.4	-1.561859765	-7.79813545	148.4740569	-75
44372	0	0.056426048	-0.004221916	0.388459206	0.999987602	-0.004687309	-0.001392365	0.000500679	1.410651207	-0.105547905	9.711480141	-0.234366407	-0.069618505	0.025034052	-0.754394531	-0.25390625	-0.899414063	884.44	-2.098328826	-7.954433775	148.5251916	-74
44373	0	0.061584473	-0.016235352	0.396789551	0.999985695	-0.005237579	-0.00032711	0.000488281	1.539611816	-0.405883789	9.91973877	-0.26188018	-0.01635559	0.024414176	-0.754638672	-0.244873047	-0.900146484	884.5	-2.697607627	-7.988526767	148.5713001	-74
44374	0	0.056450844	-0.024344444	0.395786285	0.999990463	-0.00417614	0.000575066	0.000476837	1.411271095	-0.608611107	9.894657135	-0.208807618	0.028753367	0.023841929	-0.752685547	-0.233886719	-0.906982422	884.66	-3.174919709	-7.918946098	148.6112346	-74
44375	0	0.051635742	-0.03326416	0.393005371	0.999997139	-0.001998901	0.000523567	0.000274658	1.290893555	-0.831604004	9.825134277	-0.099945141	0.026178379	0.01373292	-0.755371094	-0.227050781	-0.907470703	884.48	-3.400314026	-7.856082346	148.6280117	-74
44376	0	0.051261902	-0.031164169	0.398918152	0.999998093	0.000650406	-0.000189781	0.000113487	1.281547546	-0.779104233	9.972953796	0.032520297	-0.00948906	0.005674363	-0.752929688	-0.227294922	-0.910400391	884.4	-3.320834279	-7.875592041	148.6307733	-74
44377	0	0.05456543	-0.020996094	0.396728516	0.999999046	0.001308441	-0.000292778	-6.86646E-05	1.364135742	-0.524902344	9.918212891	0.065422078	-0.014638905	-0.003433229	-0.752929688	-0.229492188	-0.907226563	884.5	-3.163263955	-7.907964144	148.6131322	-74
44378	0	0.055228233	-0.015920639	0.397471428	0.999999046	0.000221252	-5.72205E-05	1.14441E-05	1.380705833	-0.398015976	9.936785698	0.011062622	-0.002861023	0.000572205	-0.752929688	-0.229492188	-0.904541016	884.5	-3.131236823	-7.912763713	148.6032049	-74
44379	0	0.053710938	-0.020690918	0.397827148	0.999999046	-0.000682831	0.000119209	0.000160217	1.342773438	-0.517272949	9.945678711	-0.034141543	0.005960465	0.008010865	-0.755371094	-0.229248047	-0.904296875	884.54	-3.205182427	-7.896271922	148.6093357	-74
44380	0	0.052876472	-0.025400162	0.396645546	0.999999046	-0.000256538	-4.3869E-05	0.000151634	1.321911812	-0.635004044	9.916138649	-0.01282692	-0.002193451	0.007581711	-0.752929688	-0.229492188	-0.904541016	884.54	-3.230662035	-7.898297592	148.6154155	-74
44381	0	0.054016113	-0.023498535	0.397216797	0.999999046	0.000431061	-0.000170708	4.19617E-05	1.350402832	-0.587463379	9.930419922	0.02155304	-0.008535385	0.002098084	-0.752929688	-0.229492188	-0.91015625	884.4	-3.175977679	-7.915406414	148.6097188	-74
44382	0	0.054638863	-0.020353317	0.39733696	0.999999046	0.000387192	-5.53131E-05	-8.58307E-06	1.365971565	-0.508832932	9.933423996	0.019359589	-0.002765656	-0.000429153	-0.750488281	-0.229492188	-0.907470703	884.5	-3.125521445	-7.91952063	148.5974634	-74
44383	0	0.053588867	-0.018676758	0.395324707	0.999999046	-0.000171661	-0.000235558	0.000125885	1.33972168	-0.466918945	9.883117676	-0.008583069	-0.011777878	0.006294251	-0.750488281	-0.229492188	-0.904541016	884.48	-3.141447664	-7.943271546	148.6018858	-74
44384	0	0.054991722	-0.020231247	0.397122383	0.999999046	-0.000727654	-0.000225067	0.000144958	1.374793053	-0.505781174	9.928059578	-0.036382679	-0.011253358	0.007247926	-0.752929688	-0.227294922	-0.907470703	884.44	-3.22149787	-7.965609375	148.6085603	-74
44385	0	0.055053711	-0.024658203	0.397338867	0.999999046	-0.000553131	4.76837E-06	0.000152588	1.376342773	-0.616455078	9.93347168	-0.027656557	0.000238419	0.007629395	-0.752929688	-0.227294922	-0.907470703	884.4	-3.281774069	-7.961501316	148.6145655	-74
44386	0	0.053882599	-0.024626732	0.397373199	0.999999046	-0.000198364	1.71661E-05	0.000114441	1.347064972	-0.615668297	9.934329987	-0.009918213	0.000858307	0.005722046	-0.752929688	-0.227294922	-0.907470703	884.46	-3.301049863	-7.956073086	148.6160978	-74
44387	0	0.052856445	-0.023803711	0.397644043	0.999999046	0.000205994	-8.67844E-05	-1.52588E-05	1.321411133	-0.595092773	9.941101074	0.010299683	-0.004339218	-0.000762939	-0.753173828	-0.224853516	-0.907714844	884.44	-3.272227984	-7.9631927	148.603528	-75
44388	0	0.054024696	-0.020831108	0.397521019	0.999999046	0.000138283	-0.000110626	5.34058E-05	1.350617409	-0.520777702	9.938025475	0.006914139	-0.005531311	0.002670288	-0.752929688	-0.229492188	-0.904541016	884.62	-3.252356945	-7.972453292	148.5987504	-75
44389	0	0.054626465	-0.022460938	0.396240234	0.999999046	-0.000247955	-0.000197411	0.000118256	1.365661621	-0.561523438	9.906005859	-0.012397766	-0.009870529	0.005912781	-0.752929688	-0.227294922	-0.907470703	884.5	-3.278026836	-7.991125367	148.6021975	-75
44390	0	0.054534912	-0.0226717	0.398465157	0.999999046	-0.000196457	-0.000169754	9.44138E-05	1.363372803	-0.566792488	9.961628914	-0.009822846	-0.008487702	0.004720688	-0.752929688	-0.227294922	-0.904541016	884.46	-3.297542913	-8.006670346	148.6027209	-75
44391	0	0.054321289	-0.023620605	0.397277832	0.999999046	-0.000171661	-0.00033474	4.95911E-05	1.358032227	-0.590515137	9.931945801	-0.008583069	-0.016736985	0.002479553	-0.755371094	-0.227050781	-0.907470703	884.46	-3.313844236	-8.041262003	148.5992183	-75
44392	0	0.05513382	-0.022542	0.396622658	0.999999046	3.91006E-05	-0.000181198	6.77109E-05	1.37834549	-0.563549995	9.915566444	0.001955032	-0.009059906	0.003385544	-0.755371094	-0.229248047	-0.901367188	884.52	-3.306273533	-8.058081619	148.5967021	-75
44393	0	0.05480957	-0.022155762	0.394592285	0.999999046	8.39233E-05	-6.67572E-06	0.000114441	1.370239258	-0.553894043	9.864807129	0.004196167	-0.000333786	0.005722046	-0.752929688	-0.227294922	-0.907470703	884.44	-3.294275993	-8.054534652	148.5984672	-74
44394	0	0.054626465	-0.022163391	0.397585869	0.999999046	-5.72205E-06	-9.15527E-05	8.39233E-05	1.365661621	-0.554084778	9.939646721	-0.000286102	-0.004577637	0.004196167	-0.750244141	-0.227294922	-0.910400391	884.54	-3.292245793	-8.06077996	148.5971964	-75
44395	0	0.053466797	-0.020385742	0.397399902	0.999999046	-0.000404358	-0.000193596	9.15527E-05	1.336669922	-0.509643555	9.934997559	-0.020217896	-0.009679795	0.004577637	-0.755371094	-0.227050781	-0.904296875	884.54	-3.336131585	-8.07847463	148.5977013	-75
44396	0	0.055325508	-0.024684906	0.39723587	0.999999046	-0.000504494	-0.000301361	0.000105858	1.383137703	-0.61712265	9.930896759	-0.025224687	-0.015068055	0.005292893	-0.752929688	-0.227050781	-0.904541016	884.46	-3.392051758	-8.108316905	148.600428	-75
44397	0	0.054992676	-0.026184082	0.394104004	0.999999046	-3.43323E-05	-1.43051E-05	0.000175476	1.374816895	-0.654602051	9.852600098	-0.001716614	-0.000715256	0.008773804	-0.752929688	-0.22265625	-0.910644531	884.5	-3.395235438	-8.10476287	148.6095009	-75
44398	0	0.054568291	-0.023911476	0.397274017	0.999999046	9.72748E-05	-2.09808E-05	6.38962E-05	1.364207268	-0.597786903	9.931850433	0.004863739	-0.001049042	0.003194809	-0.755371094	-0.224853516	-0.907470703	884.52	-3.381674218	-8.102603188	148.6056408	-75
44399	0	0.053771973	-0.023803711	0.396911621	0.999999046	-4.19617E-05	-6.67572E-06	7.62939E-05	1.344299316	-0.595092773	9.922790527	-0.002098083	-0.000333786	0.003814697	-0.752929688	-0.227050781	-0.904541016	884.5	-3.384401087	-8.098563147	148.6029333	-75
44400	0	0.053956985	-0.024578094	0.396724701	0.999999046	0.000155449	-0.000226974	7.15256E-05	1.348924637	-0.614452362	9.918117523	0.007772446	-0.011348725	0.003576279	-0.752929688	-0.224853516	-0.907470703	884.44	-3.36481828	-8.119612187	148.6013725	-75
44401	0	0.054992676	-0.022949219	0.395812988	0.999999046	8.01086E-05	-7.15256E-05	0	1.374816895	-0.573730469	9.895324707	0.004005432	-0.003576279	0	-0.752929688	-0.224853516	-0.904541016	884.38	-3.352651627	-8.123270169	148.5905037	-75
44402	0	0.054439545	-0.023862839	0.395319939	0.999999046	-2.28882E-05	-7.62939E-05	8.39233E-05	1.360988617	-0.596570969	9.882998466	-0.001144409	-0.003814697	0.004196167	-0.752929688	-0.22265625	-0.907714844	884.44	-3.353812216	-8.126798249	148.5894357	-75
44403	0	0.054931641	-0.023803711	0.397216797	0.999999046	5.34058E-05	-0.000144005	8.39233E-05	1.373291016	-0.595092773	9.930419922	0.002670288	-0.007200241	0.004196167	-0.752929688	-0.227050781	-0.904541016	884.44	-3.346433066	-8.137973122	148.5885552	-75
44404	0	0.054736137	-0.024259567	0.395555496	0.999999046	0.000191689	1.90735E-06	0.000109673	1.368403435	-0.606489182	9.888887405	0.009584427	9.53674E-05	0.005483627	-0.752929688	-0.224853516	-0.904541016	884.5	-3.323653195	-8.132186402	148.5899077	-75
44405	0	0.054626465	-0.023620605	0.39630127	0.999999046	0.000282288	8.10623E-05	7.62939E-06	1.365661621	-0.590515137	9.907531738	0.01411438	0.004053116	0.00038147	-0.752929688	-0.224853516	-0.910400391	884.44	-3.288883919	-8.117915033	148.5789133	-74
44406	0	0.053890228	-0.023152351	0.398519516	0.999999046	0.000131607	7.24792E-05	0.000102043	1.347255707	-0.578808784	9.9629879	0.006580353	0.003623962	0.005102158	-0.752929688	-0.224853516	-0.907470703	884.6	-3.273044246	-8.103852509	148.5789219	-75
44407	0	0.053588867	-0.022033691	0.39666748	0.999999046	-5.72205E-05	-0.000144005	-3.8147E-05	1.33972168	-0.550842285	9.916687012	-0.002861023	-0.007200241	-0.001907349	-0.750244141	-0.229492188	-0.907226563	884.4	-3.276823447	-8.115332079	148.56381	-75
44408	0	0.054071426	-0.023235321	0.39573288	0.999999046	-9.05991E-05	-0.000169754	9.15527E-05	1.35178566	-0.580883026	9.893321991	-0.004529953	-0.008487701	0.004577637	-0.750488281	-0.227294922	-0.907470703	884.52	-3.286689185	-8.128796967	148.5641459	-75
44409	0	0.05456543	-0.023803711	0.396057129	0.999999046	-6.48499E-05	-4.48227E-05	3.8147E-06	1.364135742	-0.595092773	9.901428223	-0.003242493	-0.002241135	0.000190735	-0.755371094	-0.224853516	-0.904541016	884.46	-3.292197825	-8.128455495	148.5538285	-75
44410	0	0.05453968	-0.023917198	0.396231651	1	6.19888E-05	6.00815E-05	1.90735E-05	1.363492012	-0.597929955	9.905791283	0.003099442	0.003004074	0.000953674	-0.752929688	-0.227050781	-0.904541016	884.5	-3.283469574	-8.115920033	148.544255	-75
44411	0	0.054626465	-0.023071289	0.396240234	0.999999046	0.000244141	-6.00815E-05	0.000152588	1.365661621	-0.576782227	9.906005859	0.012207031	-0.003004074	0.007629395	-0.755126953	-0.224853516	-0.910400391	884.4	-3.256260207	-8.116177008	148.5510981	-75
44412	0	0.053935051	-0.022223473	0.395877838	0.999999046	0.000210762	9.34601E-05	-1.62125E-05	1.348376274	-0.555586815	9.896945953	0.010538101	0.004673004	-0.000810623	-0.752929688	-0.227050781	-0.904541016	884.44	-3.230047643	-8.099855336	148.5372505	-75
44413	0	0.053771973	-0.022094727	0.395996094	0.999999046	-6.10352E-05	-8.67844E-05	8.7738E-05	1.344299316	-0.552368164	9.899902344	-0.003051758	-0.004339218	0.004386902	-0.750488281	-0.227294922	-0.904541016	884.44	-3.236907831	-8.103371034	148.5365315	-75
44414	0	0.05499649	-0.021969795	0.397143364	0.999999046	-0.000205994	-1.90735E-05	4.95911E-05	1.374912262	-0.549244881	9.928584099	-0.010299683	-0.000953674	0.002479553	-0.755371094	-0.227050781	-0.904296875	884.54	-3.259746912	-8.099333545	148.531166	-75
44415	0	0.053710938	-0.022705078	0.395812988	0.999999046	-0.000228882	0.000115395	0.000114441	1.342773438	-0.567626953	9.895324707	-0.011444092	0.00576973	0.005722046	-0.752685547	-0.227294922	-0.907226563	884.46	-3.286223862	-8.07938264	148.532229	-75
44416	0	0.053125381	-0.02363205	0.396912575	0.999999046	4.48227E-05	-2.47955E-05	5.62668E-05	1.328134537	-0.590801239	9.922814369	0.002241135	-0.001239777	0.002813339	-0.752685547	-0.227294922	-0.91015625	884.4	-3.280638487	-8.075716699	148.5275384	-75
44417	0	0.053100586	-0.022216797	0.397155762	0.999999046	-0.000270844	-0.000239372	0.000137329	1.327514648	-0.555419922	9.928894043	-0.013542176	-0.011968613	0.006866455	-0.750488281	-0.227294922	-0.907470703	884.5	-3.312786078	-8.09593311	148.5335815	-75
44418	0	0.056640625	-0.024400711	0.395710945	0.999999046	-0.000164032	-0.000135422	8.39233E-05	1.416015625	-0.610017776	9.892773628	-0.008201599	-0.006771088	0.004196167	-0.752929688	-0.227050781	-0.904541016	884.56	-3.331874174	-8.104661124	148.5329252	-75
44419	0	0.054016113	-0.024291992	0.393981934	0.999999046	1.90735E-05	0.000206947	5.72205E-05	1.350402832	-0.607299805	9.84954834	0.000953674	0.010347366	0.002861023	-0.752929688	-0.225097656	-0.910644531	884.46	-3.329356786	-8.074327826	148.5269533	-75
44420	0	0.051590919	-0.023489952	0.398276329	0.999999046	7.9155E-05	2.86102E-05	4.95911E-05	1.289772987	-0.587248802	9.956908226	0.003957748	0.001430511	0.002479553	-0.750732422	-0.227294922	-0.901855469	884.54	-3.320080484	-8.064233442	148.5211378	-75
44421	0	0.052856445	-0.02331543	0.396484375	0.999999046	2.67029E-05	-9.05991E-05	5.34058E-05	1.321411133	-0.582885742	9.912109375	0.001335144	-0.004529953	0.002670288	-0.750732422	-0.225097656	-0.910644531	884.44	-3.317065059	-8.067624008	148.5166605	-75
44422	0	0.054512024	-0.023972511	0.394460678	0.999999046	7.43866E-05	-0.000181198	-4.76837E-06	1.362800598	-0.599312782	9.861516953	0.00371933	-0.009059906	-0.000238419	-0.750732422	-0.225097656	-0.910644531	884.54	-3.307840358	-8.081736412	148.5060624	-75
44423	0	0.053588867	-0.023071289	0.396850586	0.999999046	8.01086E-05	-6.00815E-05	0.000118256	1.33972168	-0.576782227	9.921264648	0.004005432	-0.003004074	0.005912781	-0.750488281	-0.227294922	-0.907714844	884.44	-3.299905173	-8.081084091	148.5087537	-75
44424	0	0.053325653	-0.023386955	0.395260811	0.999999046	-0.000103951	-0.000118256	4.95911E-05	1.333141327	-0.584673882	9.881520271	-0.005197525	-0.005912781	0.002479553	-0.752929688	-0.225097656	-0.910644531	884.44	-3.312083863	-8.08744721	148.5041169	-75
44425	0	0.054321289	-0.024597168	0.395751953	0.999999046	0.00018692	-9.05991E-05	4.19617E-05	1.358032227	-0.614929199	9.893798828	0.009346008	-0.004529953	0.002098084	-0.750732422	-0.225097656	-0.907714844	884.46	-3.290918585	-8.09064846	148.4983313	-75
44426	0	0.052926064	-0.022684097	0.396360397	0.999999046	0.000289917	6.10352E-05	7.9155E-05	1.323151588	-0.567102432	9.909009933	0.01449585	0.003051758	0.003957748	-0.750732422	-0.225097656	-0.907714844	884.5	-3.258456293	-8.076134837	148.4958568	-74
44427	0	0.052490234	-0.021057129	0.396606445	0.999999046	-9.91821E-05	-9.82285E-05	0.0001297	1.312255859	-0.526428223	9.915161133	-0.004959106	-0.004911423	0.006484985	-0.750732422	-0.225097656	-0.910644531	884.46	-3.271518769	-8.079375736	148.5001999	-74
44428	0	0.054210663	-0.022493362	0.396834373	0.999999046	-8.10623E-05	-8.01086E-05	1.43051E-05	1.355266571	-0.562334061	9.920859337	-0.004053116	-0.004005432	0.000715256	-0.750488281	-0.227294922	-0.910644531	884.54	-3.280651667	-8.081249052	148.4909681	-75
44429	0	0.053344727	-0.022888184	0.39630127	0.999999046	-1.52588E-05	-0.000136375	0.000164032	1.333618164	-0.57220459	9.907531738	-0.000762939	-0.006818771	0.008201599	-0.752929688	-0.227294922	-0.907470703	884.44	-3.284783544	-8.088490041	148.4995729	-75
44430	0	0.054116249	-0.022979736	0.395674706	0.999999046	7.05719E-05	-0.000173569	3.33786E-05	1.352906227	-0.574493408	9.891867638	0.003528595	-0.008678436	0.00166893	-0.752929688	-0.227294922	-0.904541016	884.6	-3.277048471	-8.100797897	148.4933428	-74
44431	0	0.054077148	-0.022766113	0.398010254	0.999999046	9.53674E-05	2.38419E-05	-4.19617E-05	1.351928711	-0.569152832	9.950256348	0.004768372	0.001192093	-0.002098084	-0.750732422	-0.227294922	-0.904785156	884.5	-3.265104289	-8.090945027	148.4770409	-74
44432	0	0.053693771	-0.022686958	0.396613121	0.999999046	7.72476E-05	-0.000137329	0.000102997	1.342344284	-0.567173958	9.915328026	0.003862381	-0.006866455	0.005149841	-0.752929688	-0.227294922	-0.907470703	884.38	-3.257790326	-8.098512246	148.4786134	-75
44433	0	0.053955078	-0.022827148	0.396789551	0.999999046	0.000179291	-0.000128746	2.67029E-05	1.348876953	-0.570678711	9.91973877	0.008964539	-0.006437302	0.001335144	-0.752929688	-0.227294922	-0.910400391	884.6	-3.237585603	-8.105532983	148.471289	-75
44434	0	0.053934097	-0.020552635	0.395562172	0.999999046	-0.0001297	-6.86646E-05	7.24792E-05	1.348352432	-0.51381588	9.889054298	-0.006484985	-0.003433228	0.003623962	-0.750488281	-0.227294922	-0.907714844	884.46	-3.253424855	-8.105330012	148.4687802	-75
44435	0	0.053466797	-0.022644043	0.397766113	0.999999046	-5.72205E-05	1.23978E-05	8.39233E-05	1.336669922	-0.566101074	9.944152832	-0.002861023	0.000619888	0.004196167	-0.752929688	-0.227294922	-0.904541016	884.52	-3.261112376	-8.095688174	148.4671918	-75
44436	0	0.05279541	-0.02130127	0.396911621	0.999999046	-0.000159264	-0.000221252	3.43323E-05	1.319885254	-0.532531738	9.922790527	-0.007963181	-0.011062622	0.001716614	-0.750488281	-0.227294922	-0.907714844	884.46	-3.27987533	-8.112988845	148.4612463	-75
44437	0	0.05465126	-0.023676872	0.3968153	0.999998093	-0.000210762	-0.000240326	6.38962E-05	1.366281509	-0.591921806	9.9203825	-0.010538101	-0.012016297	0.003194809	-0.753173828	-0.224853516	-0.901855469	884.56	-3.305127352	-8.132257243	148.4591449	-75
44438	0	0.054972649	-0.023856163	0.394705772	0.999999046	0.00012207	6.29425E-05	9.82285E-05	1.374316216	-0.596404076	9.86764431	0.006103516	0.003147125	0.004911423	-0.750732422	-0.225097656	-0.902099609	884.54	-3.292607552	-8.116607038	148.4588168	-75
44439	0	0.053039551	-0.020996094	0.395507813	0.999999046	3.43323E-05	-2.19345E-05	6.86646E-05	1.32598877	-0.524902344	9.887695313	0.001716614	-0.001096725	0.003433228	-0.752929688	-0.227294922	-0.904541016	884.46	-3.289685317	-8.110767482	148.4555498	-75
44440	0	0.052931786	-0.023784637	0.395689964	0.999999046	-0.000100136	-0.000152588	3.8147E-05	1.32329464	-0.594615936	9.892249107	-0.00500679	-0.007629395	0.001907349	-0.750732422	-0.225097656	-0.907714844	884.48	-3.30188717	-8.119979083	148.4496918	-75
44441	0	0.054199219	-0.023742676	0.39642334	0.999999046	0.000301361	-0.000159264	0	1.354980469	-0.593566895	9.910583496	0.015068054	-0.007963181	0	-0.752929688	-0.229492188	-0.91015625	884.44	-3.267542392	-8.130163953	148.4393007	-75
44442	0	0.054447174	-0.021185875	0.394953728	0.999999046	0.000200272	-9.15527E-05	1.04904E-05	1.361179352	-0.529646873	9.873843193	0.01001358	-0.004577637	0.000524521	-0.750488281	-0.227294922	-0.910644531	884.34	-3.244851125	-8.132511285	148.4298403	-75
44443	0	0.053771973	-0.022155762	0.395996094	0.999999046	-0.000106812	-6.38962E-05	-4.57764E-05	1.344299316	-0.553894043	9.899902344	-0.005340576	-0.003194809	-0.002288818	-0.752929688	-0.227294922	-0.910400391	884.4	-3.256422158	-8.131999086	148.4137713	-75
44444	0	0.053764343	-0.024372101	0.397814751	0.999999046	-4.86374E-05	-0.000169754	0.000132561	1.344108582	-0.609302521	9.945368767	-0.00243187	-0.008487701	0.006628037	-0.752929688	-0.225097656	-0.910644531	884.46	-3.264463547	-8.142365441	148.4190817	-75
44445	0	0.054626465	-0.023376465	0.393737793	0.999999046	0.000125885	-0.000159264	3.05176E-05	1.365661621	-0.584411621	9.843444824	0.006294251	-0.007963181	0.001525879	-0.753173828	-0.224853516	-0.904785156	884.44	-3.250902477	-8.152194983	148.4125321	-75
44446	0	0.053286552	-0.022242546	0.396471977	0.999999046	-2.28882E-05	-4.95911E-05	0.000110626	1.332163811	-0.556063652	9.911799431	-0.001144409	-0.002479553	0.005531311	-0.753173828	-0.224853516	-0.907714844	884.46	-3.255613254	-8.148864097	148.4144103	-75
44447	0	0.054077148	-0.022644043	0.396118164	0.999999046	-0.000118256	-0.000151634	4.95911E-05	1.351928711	-0.566101074	9.902954102	-0.005912781	-0.007581711	0.002479553	-0.753173828	-0.224853516	-0.907714844	884.5	-3.270380468	-8.15755953	148.4098747	-75
44448	0	0.054012299	-0.022987366	0.395913124	0.999999046	1.04904E-05	-0.000125885	-2.38419E-05	1.350307465	-0.574684143	9.897828102	0.000524521	-0.006294251	-0.001192093	-0.750732422	-0.225097656	-0.905029297	884.54	-3.269210875	-8.163739802	148.3966256	-75
44449	0	0.054626465	-0.022949219	0.396850586	0.999999046	-0.000125885	-0.000216484	5.34058E-05	1.365661621	-0.573730469	9.921264648	-0.006294251	-0.010824204	0.002670288	-0.752929688	-0.227294922	-0.910400391	884.44	-3.285060742	-8.179754085	148.3928194	-75
44450	0	0.054504395	-0.023132324	0.396850586	0.999999046	7.62939E-06	-0.000106812	2.67029E-05	1.362609863	-0.578308105	9.921264648	0.00038147	-0.005340576	0.001335144	-0.752929688	-0.227294922	-0.910400391	884.4	-3.285110474	-8.183359915	148.3852931	-76
44451	0	0.054255486	-0.022668839	0.396840096	0.999998093	8.4877E-05	-0.000146866	6.67572E-05	1.356387138	-0.566720963	9.921002388	0.004243851	-0.007343292	0.00333786	-0.752929688	-0.227294922	-0.910400391	884.44	-3.277022204	-8.191234917	148.3826993	-75
44452	0	0.054136276	-0.024457932	0.396187782	0.999999046	-6.38962E-05	-4.95911E-05	9.15527E-05	1.353406906	-0.611448288	9.904694557	-0.003194809	-0.002479553	0.004577637	-0.750732422	-0.225097656	-0.907714844	884.44	-3.286411764	-8.187765292	148.3824231	-76
44453	0	0.054016113	-0.023620605	0.395874023	0.999999046	0.000106812	-0.000155449	0.000125885	1.350402832	-0.590515137	9.896850586	0.005340576	-0.007772446	0.006294251	-0.750488281	-0.227294922	-0.910644531	884.4	-3.276970058	-8.19612628	148.3866224	-76
44454	0	0.05395031	-0.022573471	0.395251274	0.999999046	-0.000125885	-4.95911E-05	5.34058E-05	1.348757744	-0.564336777	9.881281853	-0.006294251	-0.002479553	0.002670288	-0.752929688	-0.227294922	-0.910400391	884.5	-3.292914323	-8.192798536	148.3818858	-76
44455	0	0.053894043	-0.023681641	0.395874023	0.999999046	1.52588E-05	2.76566E-05	8.7738E-05	1.347351074	-0.592041016	9.896850586	0.000762939	0.001382828	0.004386902	-0.752929688	-0.227294922	-0.907470703	884.54	-3.293241157	-8.180348703	148.3806306	-77
44456	0	0.053929329	-0.022825241	0.394839287	0.999999046	4.48227E-05	-0.000154495	4.19617E-05	1.348233223	-0.570631027	9.87098217	0.002241135	-0.007724762	0.002098084	-0.752929688	-0.227294922	-0.907470703	884.46	-3.289620806	-8.18899473	148.3752775	-77
44457	0	0.054748535	-0.023010254	0.397033691	0.999999046	-0.000133514	-0.000212669	0.000118256	1.368713379	-0.575256348	9.925842285	-0.00667572	-0.010633469	0.005912781	-0.753173828	-0.224853516	-0.907714844	884.4	-3.307772794	-8.203773305	148.3792452	-78
44458	0	0.054606438	-0.024289131	0.396697998	0.999999046	-3.8147E-06	4.76837E-05	4.57764E-05	1.365160942	-0.607228279	9.917449951	-0.000190735	0.002384186	0.002288818	-0.752929688	-0.227294922	-0.907470703	884.46	-3.309704806	-8.189215056	148.3728926	-79
44459	0	0.054077148	-0.021911621	0.395568848	0.999999046	0.000240326	-8.29697E-05	9.91821E-05	1.351928711	-0.547790527	9.889221191	0.012016297	-0.004148483	0.004959107	-0.752929688	-0.227294922	-0.907470703	884.5	-3.284627656	-8.189208776	148.3736496	-79
44460	0	0.053527832	-0.023258209	0.396791458	0.999999046	-0.000109673	3.43323E-05	8.7738E-05	1.338195801	-0.581455231	9.919786453	-0.005483627	0.001716614	0.004386902	-0.752929688	-0.227294922	-0.907470703	884.46	-3.299396174	-8.175780351	148.3723073	-79
44461	0	0.053649902	-0.024841309	0.395141602	0.999999046	0.000114441	-0.000109673	3.8147E-05	1.341247559	-0.621032715	9.878540039	0.005722046	-0.005483627	0.001907349	-0.750732422	-0.227294922	-0.904785156	884.5	-3.287922311	-8.179099155	148.3661726	-78
44462	0	0.053918839	-0.022802353	0.397087097	0.999999046	0.000249863	-0.000116348	6.67572E-06	1.347970963	-0.570058823	9.927177429	0.012493134	-0.005817413	0.000333786	-0.752929688	-0.229492188	-0.907226563	884.44	-3.260427307	-8.183332474	148.3564124	-79
44463	0	0.054138184	-0.021850586	0.394958496	0.999999046	5.34058E-05	-2.86102E-06	-0.000106812	1.35345459	-0.546264648	9.873962402	0.002670288	-0.000143051	-0.005340576	-0.753173828	-0.224853516	-0.904785156	884.46	-3.253448859	-8.175292363	148.3331554	-78
44464	0	0.053596497	-0.023506165	0.396608353	0.999999046	3.91006E-05	-9.15527E-05	3.8147E-05	1.339912415	-0.587654114	9.915208817	0.001955032	-0.004577637	0.001907349	-0.752929688	-0.227294922	-0.910400391	884.4	-3.250636658	-8.176391324	148.3268725	-78
44465	0	0.054077148	-0.024230957	0.39654541	0.999999046	0.000152588	6.19888E-05	6.10352E-05	1.351928711	-0.605773926	9.913635254	0.007629395	0.003099442	0.003051758	-0.750488281	-0.227294922	-0.910644531	884.44	-3.235149317	-8.159737342	148.3222208	-77
44466	0	0.053781509	-0.023506165	0.397291183	0.999999046	0.00015831	-1.90735E-06	4.95911E-05	1.344537735	-0.587654114	9.932279587	0.007915497	-9.53674E-05	0.002479553	-0.750488281	-0.227294922	-0.910644531	884.48	-3.218938661	-8.15041629	148.3167404	-76
44467	0	0.053710938	-0.022460938	0.397827148	0.999999046	0.000228882	-3.33786E-05	4.57764E-05	1.342773438	-0.561523438	9.945678711	0.011444092	-0.00166893	0.002288818	-0.750488281	-0.227294922	-0.907714844	884.44	-3.194617044	-8.144666114	148.3110826	-75
44468	0	0.053186417	-0.021003723	0.395757675	0.999999046	8.86917E-05	-6.10352E-05	0.000118256	1.329660416	-0.525093079	9.893941879	0.004434586	-0.003051758	0.005912781	-0.750488281	-0.227294922	-0.907714844	884.5	-3.187520449	-8.141556313	148.3139503	-75
44469	0	0.053466797	-0.02166748	0.397644043	0.999999046	-8.01086E-05	-0.000136375	6.86646E-05	1.336669922	-0.541687012	9.941101074	-0.004005432	-0.006818771	0.003433228	-0.750488281	-0.229492188	-0.907470703	884.5	-3.199004391	-8.14732551	148.311409	-75
44470	0	0.053998947	-0.023570061	0.397014618	0.999999046	-0.000110626	2.47955E-05	0.000183105	1.349973679	-0.589251518	9.925365448	-0.005531311	0.001239777	0.009155274	-0.750488281	-0.227294922	-0.907714844	884.4	-3.215786801	-8.133894904	148.3212522	-75
44471	0	0.053466797	-0.023376465	0.397338867	0.999999046	0.000144958	0.000107765	4.19617E-05	1.336669922	-0.584411621	9.93347168	0.007247925	0.00538826	0.002098084	-0.752929688	-0.229492188	-0.907226563	884.5	-3.200954596	-8.111825891	148.3141961	-76
44472	0	0.053074837	-0.022594452	0.397233963	0.999999046	0.000247002	-2.47955E-05	2.67029E-05	1.326870918	-0.564861298	9.930849075	0.012350083	-0.001239777	0.001335144	-0.750488281	-0.227294922	-0.910644531	884.46	-3.174325373	-8.104958455	148.3062963	-76
44473	0	0.053955078	-0.022399902	0.397277832	0.999999046	7.62939E-05	-4.1008E-05	1.90735E-05	1.348876953	-0.559997559	9.931945801	0.003814697	-0.0020504	0.000953674	-0.750488281	-0.227294922	-0.907714844	884.4	-3.167169882	-8.099980069	148.2976243	-75
44474	0	0.053437233	-0.022280693	0.396177292	0.999999046	-3.05176E-05	-1.14441E-05	6.10352E-05	1.335930824	-0.557017326	9.904432297	-0.001525879	-0.000572205	0.003051758	-0.752929688	-0.227294922	-0.907470703	884.46	-3.172931028	-8.091325107	148.2936599	-75
44475	0	0.052978516	-0.023071289	0.396240234	0.999999046	1.90735E-05	-5.24521E-05	0.000118256	1.324462891	-0.576782227	9.906005859	0.000953674	-0.002622604	0.005912781	-0.750488281	-0.227294922	-0.910644531	884.4	-3.174034433	-8.086950838	148.2964021	-76
44476	0	0.05148983	-0.021055222	0.396234512	0.999999046	-0.000237465	-0.000175476	9.91821E-05	1.28724575	-0.526380539	9.905862808	-0.011873245	-0.008773804	0.004959107	-0.750488281	-0.227294922	-0.910644531	884.5	-3.204288004	-8.096653626	148.2977212	-76
44477	0	0.055908203	-0.024658203	0.397033691	0.999999046	-0.000228882	-0.000227928	6.86646E-05	1.397705078	-0.616455078	9.925842285	-0.011444092	-0.011396408	0.003433228	-0.750732422	-0.227294922	-0.904785156	884.46	-3.23323479	-8.112648744	148.2959351	-76
44478	0	0.053583145	-0.024114609	0.395105362	0.999999046	0.00019455	0.000234604	0.000106812	1.339578629	-0.602865219	9.877634048	0.009727478	0.011730194	0.005340576	-0.752929688	-0.227294922	-0.910400391	884.56	-3.213945975	-8.075464186	148.2956273	-76
44479	0	0.050720215	-0.022460938	0.398620605	0.999999046	-7.24792E-05	0.00017643	2.28882E-05	1.268005371	-0.561523438	9.965515137	-0.003623962	0.008821487	0.001144409	-0.748291016	-0.225097656	-0.910888672	884.44	-3.223949152	-8.04530459	148.2859544	-75
44480	0	0.052349091	-0.023924828	0.396986961	0.999999046	-7.72476E-05	-0.000274658	1.43051E-05	1.308727264	-0.598120689	9.924674034	-0.003862381	-0.01373291	0.000715256	-0.750488281	-0.227294922	-0.910644531	884.4	-3.234847256	-8.066748483	148.2781402	-74
44481	0	0.053771973	-0.024047852	0.396850586	0.999999046	1.52588E-05	-0.000342369	4.19617E-05	1.344299316	-0.601196289	9.921264648	0.000762939	-0.017118454	0.002098084	-0.750488281	-0.227294922	-0.910644531	884.4	-3.235729246	-8.095765314	148.2740008	-74
44482	0	0.054102898	-0.022881508	0.396203041	0.999999046	0.000164032	-0.000101089	4.1008E-05	1.352572441	-0.572037697	9.905076027	0.008201599	-0.005054474	0.0020504	-0.750732422	-0.225097656	-0.907714844	884.44	-3.219339905	-8.097198975	148.2683935	-74
44483	0	0.052612305	-0.02166748	0.397827148	0.999999046	0.000118256	-7.53403E-05	4.95911E-05	1.315307617	-0.541687012	9.945678711	0.005912781	-0.003767014	0.002479553	-0.750488281	-0.229492188	-0.913330078	884.5	-3.208266393	-8.095557764	148.2631862	-75
44484	0	0.053952217	-0.023653984	0.397946358	0.999999046	0.000138283	-8.01086E-05	7.15256E-05	1.348805428	-0.591349602	9.948658943	0.006914139	-0.004005432	0.003576279	-0.750732422	-0.225097656	-0.905029297	884.46	-3.195319713	-8.094318457	148.2610638	-75
44485	0	0.053833008	-0.021789551	0.396728516	0.999999046	0.000289917	8.4877E-05	3.05176E-05	1.345825195	-0.54473877	9.918212891	0.01449585	0.004243851	0.001525879	-0.752929688	-0.225097656	-0.910644531	884.46	-3.164153502	-8.074462617	148.2530623	-75
44486	0	0.051445007	-0.020830154	0.397847176	0.999999046	0.000101089	-0.000179291	1.14441E-05	1.286125183	-0.52075386	9.94617939	0.005054474	-0.008964539	0.000572205	-0.750488281	-0.229492188	-0.904541016	884.38	-3.154485502	-8.084828881	148.2441235	-76
44487	0	0.054077148	-0.023132324	0.396240234	0.999999046	-5.34058E-05	-0.000109673	4.19617E-05	1.351928711	-0.578308105	9.906005859	-0.002670288	-0.005483627	0.002098084	-0.750732422	-0.227294922	-0.904785156	884.46	-3.163013143	-8.0870598	148.2385452	-78
44488	0	0.053429604	-0.022264481	0.395188332	0.999999046	2.19345E-05	-0.000265121	-8.58307E-06	1.335740089	-0.556612015	9.87970829	0.001096725	-0.013256073	-0.000429153	-0.752929688	-0.227294922	-0.907470703	884.46	-3.162236587	-8.107393026	148.228143	-79
44489	0	0.053955078	-0.020935059	0.396728516	0.999999046	-0.000106812	-4.48227E-05	6.86646E-05	1.348876953	-0.523376465	9.918212891	-0.005340576	-0.002241135	0.003433228	-0.750488281	-0.227294922	-0.910644531	884.5	-3.177212759	-8.102037101	148.2250958	-78
44490	0	0.053621292	-0.023224831	0.39665699	0.999999046	9.53674E-06	-0.000123978	2.57492E-05	1.340532303	-0.580620766	9.916424751	0.000476837	-0.006198883	0.00128746	-0.750732422	-0.227294922	-0.904785156	884.5	-3.17828295	-8.106000639	148.2177156	-78
44491	0	0.053656578	-0.022608757	0.397315979	0.999999046	0.000101089	-9.63211E-05	1.81198E-05	1.341414452	-0.565218925	9.932899475	0.005054474	-0.004816055	0.000905991	-0.750488281	-0.227294922	-0.907714844	884.4	-3.1687314	-8.106833493	148.2092479	-78
44492	0	0.054097176	-0.020575523	0.396089554	0.999999046	-1.81198E-05	3.8147E-05	-7.62939E-06	1.35242939	-0.514388084	9.902238846	-0.000905991	0.001907349	-0.00038147	-0.750732422	-0.227294922	-0.904785156	884.44	-3.17222208	-8.092461585	148.1969901	-78
44493	0	0.053283691	-0.023193359	0.396728516	0.999999046	-8.7738E-05	-4.1008E-05	8.7738E-05	1.332092285	-0.579833984	9.918212891	-0.004386902	-0.0020504	0.004386902	-0.752929688	-0.227294922	-0.904541016	884.44	-3.185369138	-8.086517799	148.1963093	-78
44494	0	0.052702904	-0.020281792	0.397147179	0.999999046	-0.000112534	-0.00021553	0.000136375	1.317572594	-0.507044792	9.928679466	-0.005626679	-0.01077652	0.006818771	-0.750488281	-0.227294922	-0.907714844	884.4	-3.20220436	-8.100178393	148.2021693	-78
44495	0	0.054199219	-0.023803711	0.398071289	0.999999046	-0.000522614	-0.00033474	5.34058E-05	1.354980469	-0.595092773	9.951782227	-0.026130678	-0.016736985	0.002670288	-0.750488281	-0.227294922	-0.910644531	884.46	-3.264863655	-8.128020855	148.1991995	-78
44496	0	0.054460526	-0.025198936	0.394407272	0.999999046	-2.00272E-05	-0.000154495	1.43051E-05	1.361513138	-0.629973412	9.860181808	-0.001001358	-0.007724762	0.000715256	-0.750488281	-0.227294922	-0.910644531	884.5	-3.269255627	-8.135539327	148.1906405	-78
44497	0	0.053649902	-0.022033691	0.396484375	0.999999046	0.000156403	-4.48227E-05	4.57764E-05	1.341247559	-0.550842285	9.912109375	0.007820129	-0.002241135	0.002288818	-0.750732422	-0.225097656	-0.907714844	884.54	-3.253799244	-8.130286753	148.1852278	-77
44498	0	0.052584648	-0.023013115	0.397340775	0.999999046	-0.000154495	-0.000114441	8.01086E-05	1.314616203	-0.575327873	9.933519363	-0.007724762	-0.005722046	0.004005432	-0.753173828	-0.224853516	-0.907714844	884.52	-3.274606504	-8.132698942	148.1842217	-77
44499	0	0.053771973	-0.024047852	0.396850586	0.999999046	0.000137329	-0.000155449	2.28882E-05	1.344299316	-0.601196289	9.921264648	0.006866455	-0.007772446	0.001144409	-0.750488281	-0.227294922	-0.907714844	884.46	-3.261133637	-8.140163798	148.1765542	-77
44500	0	0.054382324	-0.022538185	0.396411896	0.999999046	0.000134468	-0.000133514	3.33786E-05	1.359558105	-0.563454628	9.910297394	0.006723404	-0.00667572	0.00166893	-0.750488281	-0.227294922	-0.910644531	884.46	-3.248124036	-8.145069482	148.1700415	-77
44501	0	0.054260254	-0.02130127	0.395446777	0.999999046	-3.8147E-05	-0.000113487	0	1.356506348	-0.532531738	9.886169434	-0.001907349	-0.005674362	0	-0.750488281	-0.229492188	-0.907470703	884.46	-3.254258759	-8.147919444	148.1594665	-77
44502	0	0.053801537	-0.023895264	0.397324562	0.999999046	-7.24792E-05	-0.000131607	3.8147E-05	1.345038414	-0.597381592	9.933114052	-0.003623962	-0.006580353	0.001907349	-0.750732422	-0.225097656	-0.902099609	884.5	-3.265026108	-8.152575943	148.1538488	-77
44503	0	0.054321289	-0.023498535	0.394958496	0.999999046	8.01086E-05	-5.62668E-05	-3.05176E-05	1.358032227	-0.587463379	9.873962402	0.004005432	-0.002813339	-0.001525879	-0.750488281	-0.227294922	-0.907714844	884.46	-3.257151263	-8.149082372	148.1394697	-77
