Counter	Temperature	VelInc_X	VelInc_Y	VelInc_Z	OriInc_w	OriInc_x	OriInc_y	OriInc_z	Acc_X	Acc_Y	Acc_Z	Gyr_X	Gyr_Y	Gyr_Z	Mag_X	Mag_Y	Mag_Z	Pressure	Roll	Pitch	Yaw	RSSI
18546	0	0.387044907	-0.077280998	-0.019728661	0.999999046	-0.000654221	-6.48499E-05	4.19617E-05	9.676122665	-1.932024956	-0.493216515	-0.032711031	-0.003242493	0.002098084	-0.602783203	0.310546875	0.656738281	890.66	-104.1136903	-78.35429833	-54.25301934	-61
18547	0	0.383361816	-0.077880859	-0.018310547	0.999999046	-0.000541687	-0.000151634	-4.57764E-05	9.58404541	-1.947021484	-0.457763672	-0.027084352	-0.007581711	-0.002288818	-0.602783203	0.308349609	0.659912109	890.66	-104.2588228	-78.36302464	-54.17657928	-61
18548	0	0.384583473	-0.076482773	-0.019000053	0.999999046	-0.000338554	-0.000108719	7.53403E-05	9.61458683	-1.912069321	-0.475001335	-0.016927719	-0.005435944	0.003767014	-0.604980469	0.308349609	0.659912109	890.68	-104.3406932	-78.3595385	-54.14050394	-61
18549	0	0.386901855	-0.078063965	-0.020324707	0.999999046	-0.000423431	-0.000144005	0.000148773	9.672546387	-1.951599121	-0.508117676	-0.021171571	-0.007200241	0.00743866	-0.605224609	0.310546875	0.659912109	890.68	-104.4410029	-78.34687163	-54.08955812	-61
18550	0	0.385285378	-0.07840538	-0.020747185	0.999999046	-3.43323E-05	-7.82013E-05	0.000109673	9.632134438	-1.960134506	-0.518679619	-0.001716614	-0.003910065	0.005483627	-0.604980469	0.308349609	0.656982422	890.68	-104.4665738	-78.34036285	-54.07157544	-62
18551	0	0.38659668	-0.076782227	-0.020141602	0.999999046	3.05176E-05	-9.82285E-05	0.000141144	9.664916992	-1.919555664	-0.503540039	0.001525879	-0.004911423	0.00705719	-0.602783203	0.308349609	0.659912109	890.66	-104.4909644	-78.32984155	-54.04895604	-61
18552	0	0.386693001	-0.076282501	-0.019054413	1	-3.43323E-05	3.91006E-05	-7.62939E-06	9.66732502	-1.907062531	-0.476360321	-0.001716614	0.001955032	-0.00038147	-0.602783203	0.310546875	0.662597656	890.68	-104.4692889	-78.33986019	-54.07804917	-61
18553	0	0.384033203	-0.077392578	-0.020996094	0.999999046	0.000102997	8.86917E-05	-7.24792E-05	9.600830078	-1.934814453	-0.524902344	0.005149841	0.004434586	-0.003623962	-0.605224609	0.310546875	0.659912109	890.66	-104.4141801	-78.3584717	-54.1239408	-61
18554	0	0.384596825	-0.07587719	-0.021767616	0.999999046	4.00543E-05	-4.57764E-05	0.000133514	9.614920616	-1.896929741	-0.544190407	0.002002716	-0.002288818	0.00667572	-0.602539063	0.308349609	0.656982422	890.66	-104.4104857	-78.35042563	-54.12629793	-62
18555	0	0.385681152	-0.077270508	-0.020874023	0.999999046	-0.000179291	-0.000212669	5.34058E-05	9.642028809	-1.931762695	-0.521850586	-0.008964539	-0.010633469	0.002670288	-0.604980469	0.308349609	0.659912109	890.62	-104.5328634	-78.34649256	-54.02814741	-62
18556	0	0.386395454	-0.078342438	-0.021067619	0.999999046	-4.76837E-06	-0.000211716	2.95639E-05	9.65988636	-1.958560944	-0.526690483	-0.000238419	-0.010585785	0.001478195	-0.602783203	0.308349609	0.662841797	890.62	-104.6379937	-78.34514872	-53.92840657	-62
18557	0	0.385803223	-0.078552246	-0.020202637	0.999999046	0.000648499	-0.000174522	-0.000102997	9.645080566	-1.963806152	-0.505065918	0.032424929	-0.008726121	-0.005149842	-0.602539063	0.308349609	0.656982422	890.62	-104.6666835	-78.35950655	-53.82689251	-62
18558	0	0.385018349	-0.077646255	-0.020726204	0.999999046	0.001195908	-0.000133514	-0.000126839	9.625458717	-1.941156387	-0.518155098	0.059795394	-0.006675722	-0.006341936	-0.602539063	0.310546875	0.653808594	890.66	-104.6139548	-78.37767772	-53.74046914	-62
18559	0	0.384033203	-0.075195313	-0.020141602	0.999999046	0.001312256	-0.00026226	-0.000175476	9.600830078	-1.879882813	-0.503540039	0.065612813	-0.013113026	-0.008773806	-0.602539063	0.310546875	0.653808594	890.72	-104.6242357	-78.3976091	-53.57968741	-62
18560	0	0.386001587	-0.074929237	-0.019782066	0.999999046	0.001086235	-0.000175476	-0.000126839	9.650039673	-1.873230934	-0.494551659	0.054311763	-0.008773806	-0.006341936	-0.602783203	0.312744141	0.653564453	890.68	-104.6067793	-78.41477497	-53.47178421	-62
18561	0	0.385253906	-0.075195313	-0.020629883	0.999999046	0.00050354	2.76566E-05	0.000102997	9.631347656	-1.879882813	-0.51574707	0.025177003	0.001382828	0.005149842	-0.603027344	0.314941406	0.659423828	890.68	-104.5139663	-78.41240004	-53.51104178	-62
18562	0	0.385726929	-0.074931145	-0.021694183	0.999999046	3.43323E-05	8.7738E-05	9.44138E-05	9.643173218	-1.873278618	-0.542354584	0.001716614	0.004386902	0.004720688	-0.605224609	0.312744141	0.653808594	890.66	-104.4440022	-78.41276505	-53.58294166	-62
18563	0	0.382507324	-0.073669434	-0.019897461	0.999999046	-0.000221252	-0.000193596	0.00031662	9.562683105	-1.84173584	-0.497436523	-0.011062622	-0.009679795	0.015830994	-0.605224609	0.312744141	0.656738281	890.66	-104.5244535	-78.38054415	-53.53344004	-62
18564	0	0.386296272	-0.074881554	-0.021607399	0.999999046	-0.001166344	-0.000179291	0.000576019	9.657406807	-1.872038841	-0.540184975	-0.058317201	-0.008964541	0.028800973	-0.602783203	0.312744141	0.656494141	890.68	-104.6690164	-78.32004885	-53.52526182	-62
18565	0	0.388671875	-0.078125	-0.021057129	0.999997139	-0.002010345	0.000256538	0.000759125	9.716796875	-1.953125	-0.526428223	-0.100517351	0.01282693	0.037956267	-0.602783203	0.312744141	0.656494141	890.68	-104.6512555	-78.25188765	-53.77696448	-62
18566	0	0.384466171	-0.082118988	-0.017284393	0.999998093	-0.001513481	0.00032711	0.000816345	9.611654282	-2.052974701	-0.432109833	-0.075674096	0.016355523	0.040817282	-0.602783203	0.310546875	0.656738281	890.68	-104.5318442	-78.17918347	-54.0765776	-62
18567	0	0.381835938	-0.081298828	-0.020507813	0.999999046	-8.7738E-05	0.000329018	0.000892639	9.545898438	-2.032470703	-0.512695313	-0.004386903	0.016450884	0.044631965	-0.602783203	0.310546875	0.659667969	890.72	-104.2406089	-78.09767161	-54.38949555	-63
18568	0	0.38408947	-0.079479218	-0.022223473	0.999999046	0.000689507	0.000196457	0.00056839	9.602236748	-1.986980438	-0.555586815	0.034475331	0.009822847	0.028419499	-0.602783203	0.310546875	0.656738281	890.66	-103.9768448	-78.04813203	-54.58475948	-63
18569	0	0.384399414	-0.07824707	-0.023986816	0.999999046	0.001312256	-1.81198E-05	0.000171661	9.609985352	-1.956176758	-0.59967041	0.065612812	-0.000905991	0.008583071	-0.602783203	0.314941406	0.656494141	890.72	-103.8082628	-78.03668324	-54.6047493	-63
18570	0	0.387850761	-0.075754166	-0.022399902	0.999999046	0.000932693	-8.96454E-05	4.57764E-05	9.696269035	-1.893854141	-0.559997559	0.046634681	-0.00448227	0.002288819	-0.603027344	0.317138672	0.65625	890.58	-103.7377903	-78.03747367	-54.56713766	-63
18571	0	0.385681152	-0.074768066	-0.020019531	0.999999046	-6.48499E-05	-3.33786E-05	0.000244141	9.642028809	-1.86920166	-0.500488281	-0.003242493	-0.00166893	0.012207031	-0.600341797	0.314941406	0.653320313	890.62	-103.7268115	-78.01795393	-54.58711763	-63
18572	0	0.383750916	-0.074953079	-0.019201279	0.999999046	-0.000811577	5.72205E-05	0.000328064	9.593772888	-1.873826981	-0.480031967	-0.040578847	0.002861023	0.0164032	-0.602783203	0.314941406	0.656494141	890.66	-103.7432216	-77.99177903	-54.66822764	-63
18573	0	0.383239746	-0.077880859	-0.020324707	0.999998093	-0.001612663	-9.15527E-05	0.000152588	9.580993652	-1.947021484	-0.508117676	-0.080633199	-0.004577639	0.007629398	-0.602783203	0.314941406	0.656494141	890.72	-103.951822	-77.9811485	-54.64146722	-62
18574	0	0.383454323	-0.082810402	-0.022249222	0.999998093	-0.001397133	-0.000220299	-9.63211E-05	9.58635807	-2.070260048	-0.556230545	-0.069856667	-0.011014942	-0.004816057	-0.602783203	0.312744141	0.659423828	890.66	-104.2355848	-77.99437726	-54.51455688	-62
18575	0	0.383850098	-0.083496094	-0.020935059	0.999999046	-0.000263214	-0.000349998	-0.000171661	9.596252441	-2.087402344	-0.523376465	-0.013160706	-0.017499924	-0.008583069	-0.605224609	0.312988281	0.662597656	890.66	-104.4673984	-78.01196272	-54.30922922	-62
18576	0	0.384961128	-0.080911636	-0.021737099	0.999999046	0.000102043	-0.000377655	-0.000386238	9.624028206	-2.022790909	-0.543427467	0.005102158	-0.018882752	-0.019311906	-0.600341797	0.310302734	0.656738281	890.58	-104.7018637	-78.05228881	-54.05644871	-62
18577	0	0.384216309	-0.080566406	-0.019714355	0.999999046	0.0001297	-0.000300407	-0.000423431	9.605407715	-2.014160156	-0.492858887	0.006484986	-0.015020371	-0.021171571	-0.600341797	0.310546875	0.659423828	890.56	-104.8988654	-78.09874148	-53.8393207	-62
18578	0	0.383294106	-0.079149246	-0.021267891	0.999999046	0.000164032	-0.00038147	-0.000359535	9.582352638	-1.978731155	-0.531697273	0.0082016	-0.019073487	-0.017976762	-0.600341797	0.308105469	0.662597656	890.66	-105.1269621	-78.13551168	-53.59346816	-62
18579	0	0.383789063	-0.078369141	-0.020812988	0.999999046	-0.00019455	-0.000285149	-0.000278473	9.594726563	-1.959228516	-0.520324707	-0.009727478	-0.014257431	-0.013923645	-0.600341797	0.308105469	0.659667969	890.68	-105.3348654	-78.16602428	-53.40602099	-62
18580	0	0.384858131	-0.079794884	-0.02167511	0.999999046	-0.000411034	-0.00022316	-0.000171661	9.621453285	-1.994872093	-0.541877747	-0.020551682	-0.01115799	-0.008583069	-0.600341797	0.308105469	0.662597656	890.66	-105.5199856	-78.18641886	-53.26737903	-62
18581	0	0.385559082	-0.080688477	-0.020935059	0.999999046	-0.000377655	-0.000151634	3.8147E-05	9.638977051	-2.017211914	-0.523376465	-0.018882752	-0.007581711	0.001907349	-0.602539063	0.306152344	0.662841797	890.62	-105.632493	-78.1856704	-53.20283897	-62
18582	0	0.384325981	-0.080764771	-0.019465446	0.999999046	-3.8147E-06	-0.000112534	0.000144005	9.608149529	-2.019119263	-0.486636162	-0.000190735	-0.005626678	0.007200241	-0.600097656	0.305908203	0.659912109	890.62	-105.6649556	-78.17433026	-53.17355163	-62
18583	0	0.387023926	-0.078430176	-0.022705078	0.999999046	0.000141144	-0.000105858	0.0001297	9.675598145	-1.960754395	-0.567626953	0.00705719	-0.005292892	0.006484985	-0.600097656	0.305908203	0.659912109	890.62	-105.6793807	-78.16477355	-53.14628816	-62
18584	0	0.387242317	-0.08018589	-0.022582054	0.999999046	0.000216484	8.58307E-05	-0.000237465	9.68105793	-2.004647255	-0.564551353	0.010824204	0.004291535	-0.011873245	-0.600341797	0.308105469	0.662597656	890.56	-105.6382861	-78.20158639	-53.16425854	-62
18585	0	0.383605957	-0.079650879	-0.022399902	0.999999046	0.001289368	9.53674E-07	-0.00025177	9.590148926	-1.991271973	-0.559997559	0.064468402	4.76837E-05	-0.012588505	-0.600341797	0.305908203	0.668701172	890.68	-105.520819	-78.2372583	-53.1477629	-63
18586	0	0.383338928	-0.076154709	-0.020738602	0.999999046	0.00112915	-6.48499E-05	0	9.583473206	-1.903867722	-0.518465042	0.056457532	-0.003242493	0	-0.602783203	0.308349609	0.662841797	890.72	-105.4191424	-78.24320511	-53.12814497	-63
18587	0	0.384277344	-0.076293945	-0.022644043	0.999999046	0.000457764	0.00017643	9.53674E-05	9.606933594	-1.907348633	-0.566101074	0.022888185	0.008821488	0.004768372	-0.602783203	0.310546875	0.662597656	890.66	-105.252582	-78.24599391	-53.25001552	-63
18588	0	0.384025574	-0.078403473	-0.023231506	0.999999046	0.000441551	0.000183105	0.000208855	9.600639343	-1.960086823	-0.580787659	0.022077561	0.009155274	0.010442734	-0.602783203	0.310546875	0.662597656	890.62	-105.0682893	-78.2362961	-53.39380966	-63
18589	0	0.388183594	-0.079040527	-0.023986816	0.999999046	0.001003265	6.19888E-05	0.00019455	9.704589844	-1.976013184	-0.59967041	0.050163278	0.003099442	0.00972748	-0.602783203	0.310546875	0.659667969	890.62	-104.8867828	-78.22445061	-53.47028381	-63
18590	0	0.385714531	-0.0766716	-0.022016525	0.999999046	0.001289368	0.000356674	7.9155E-05	9.642863274	-1.916790009	-0.550413132	0.064468403	0.017833715	0.00395775	-0.597900391	0.3125	0.65625	890.68	-104.5323716	-78.23397152	-53.68535693	-63
18591	0	0.383972168	-0.073120117	-0.020446777	0.999999046	0.000873566	0.000287056	0.000328064	9.599304199	-1.82800293	-0.511169434	0.043678291	0.014352801	0.016403201	-0.600585938	0.314941406	0.659179688	890.66	-104.2287111	-78.21386882	-53.89924895	-64
18592	0	0.385219574	-0.071519852	-0.022480965	0.999998093	-0.000324249	0.000128746	0.000349998	9.630489349	-1.787996292	-0.562024117	-0.016212464	0.006437302	0.017499924	-0.602783203	0.314941406	0.656494141	890.66	-104.1451817	-78.1870427	-54.02687125	-64
18593	0	0.386413574	-0.073852539	-0.02355957	0.999998093	-0.001654625	0.000106812	0.000259399	9.660339355	-1.846313477	-0.588989258	-0.082731286	0.005340579	0.012969977	-0.602783203	0.314941406	0.656494141	890.66	-104.239155	-78.16986552	-54.12395965	-64
18594	0	0.385278702	-0.078131676	-0.021782875	0.999998093	-0.001896858	-4.1008E-05	0.000178337	9.631967545	-1.953291893	-0.544571877	-0.094842968	-0.002050401	0.00891686	-0.602783203	0.312744141	0.656494141	890.68	-104.450344	-78.15754622	-54.12839209	-64
18595	0	0.385437012	-0.07989502	-0.022338867	0.999999046	-0.001285553	0.000180244	9.91821E-05	9.635925293	-1.997375488	-0.55847168	-0.064277667	0.009012225	0.004959108	-0.600341797	0.310546875	0.662353516	890.66	-104.4852676	-78.16026123	-54.24578855	-64
18596	0	0.384757996	-0.07948494	-0.023077011	0.999999046	-0.000533104	0.000141144	-2.28882E-05	9.61894989	-1.987123489	-0.576925278	-0.026655198	0.00705719	-0.001144409	-0.602539063	0.306152344	0.66015625	890.68	-104.4716474	-78.17531577	-54.33126369	-64
18597	0	0.384216309	-0.07989502	-0.022338867	0.999999046	0.000148773	0.000119209	-6.86646E-05	9.605407715	-1.997375488	-0.55847168	0.00743866	0.005960465	-0.003433228	-0.600341797	0.308105469	0.659667969	890.66	-104.3977991	-78.19470932	-54.39296084	-64
18598	0	0.385025024	-0.077590942	-0.021981239	0.999999046	0.00069809	-0.000110626	-6.86646E-05	9.62562561	-1.93977356	-0.549530983	0.034904483	-0.005531312	-0.003433228	-0.602539063	0.308349609	0.656982422	890.66	-104.3832222	-78.20755944	-54.32982797	-65
18599	0	0.385131836	-0.076721191	-0.021728516	0.999999046	0.00075531	-3.33786E-05	-0.00025177	9.628295898	-1.918029785	-0.543212891	0.037765507	-0.00166893	-0.012588502	-0.602539063	0.308349609	0.656982422	890.68	-104.3462637	-78.24299054	-54.28440872	-64
18600	0	0.385986328	-0.075622559	-0.022827148	0.999999046	0.000634193	-6.86646E-05	-0.000362396	9.649658203	-1.890563965	-0.570678711	0.031709674	-0.003433228	-0.018119814	-0.602783203	0.308349609	0.659912109	890.66	-104.3578837	-78.2897904	-54.2068137	-64
18601	0	0.383852959	-0.07571888	-0.020166397	0.999998093	0.000441551	-7.62939E-05	-0.000113487	9.596323967	-1.892971992	-0.504159927	0.022077561	-0.003814697	-0.005674362	-0.602783203	0.308349609	0.659912109	890.62	-104.3616884	-78.30881502	-54.16050777	-64
18602	0	0.387127876	-0.076108932	-0.020001411	0.999999046	9.53674E-05	-2.67029E-05	0.000160217	9.678196907	-1.902723312	-0.500035286	0.004768372	-0.001335144	0.008010864	-0.602783203	0.310546875	0.656738281	890.72	-104.3408915	-78.29895247	-54.17291193	-64
18603	0	0.386352539	-0.077087402	-0.019226074	0.999999046	7.62939E-06	0.000164986	0.000225067	9.658813477	-1.927185059	-0.480651855	0.00038147	0.008249283	0.011253357	-0.604980469	0.308349609	0.654052734	890.68	-104.2182375	-78.28734147	-54.30351021	-64
18604	0	0.382600784	-0.077687263	-0.020687103	0.999999046	0.000491142	6.29425E-05	0.000125885	9.565019608	-1.942181587	-0.517177582	0.024557115	0.003147125	0.006294251	-0.602783203	0.308349609	0.659912109	890.68	-104.1084312	-78.28379518	-54.37001297	-64
18605	0	0.384277344	-0.075195313	-0.019470215	0.999999046	0.000148773	-6.77109E-05	0.000202179	9.606933594	-1.879882813	-0.486755371	0.00743866	-0.003385544	0.010108948	-0.602783203	0.310546875	0.656738281	890.66	-104.0975218	-78.26822538	-54.36887027	-64
18606	0	0.387294769	-0.077068329	-0.021942139	0.999999046	-0.000291824	-5.34058E-05	9.91821E-05	9.682369232	-1.926708221	-0.548553467	-0.014591217	-0.002670288	0.004959107	-0.602783203	0.310546875	0.659667969	890.68	-104.1436547	-78.26452899	-54.3624288	-64
18607	0	0.384521484	-0.078491211	-0.019104004	0.999999046	1.90735E-05	-0.000121117	0.000141144	9.613037109	-1.962280273	-0.477600098	0.000953674	-0.006055832	0.00705719	-0.605224609	0.310546875	0.659912109	890.62	-104.1842415	-78.25423412	-54.3264881	-64
18608	0	0.386569023	-0.077381134	-0.020904541	0.999999046	0.000224113	-0.000120163	7.15256E-05	9.664225578	-1.934528351	-0.522613525	0.011205673	-0.006008148	0.003576279	-0.605224609	0.310546875	0.659912109	890.62	-104.2102499	-78.25171633	-54.28199046	-64
18609	0	0.385681152	-0.076660156	-0.021850586	0.999999046	0.000511169	-1.81198E-05	-7.62939E-05	9.642028809	-1.916503906	-0.546264648	0.025558473	-0.000905991	-0.003814697	-0.602783203	0.310546875	0.659667969	890.66	-104.1691626	-78.26852358	-54.2724099	-64
18610	0	0.384226799	-0.077661514	-0.021359444	0.999999046	0.00050354	-8.96454E-05	-8.39233E-05	9.605669975	-1.941537857	-0.533986092	0.025177003	-0.004482269	-0.004196167	-0.602783203	0.312744141	0.656494141	890.72	-104.1684449	-78.28414557	-54.21623286	-64
18611	0	0.385131836	-0.075012207	-0.020629883	0.999999046	0.000621796	-0.000197411	0.00012207	9.628295898	-1.875305176	-0.51574707	0.031089785	-0.00987053	0.006103516	-0.600341797	0.312744141	0.656494141	890.68	-104.184181	-78.27396675	-54.13056773	-65
18612	0	0.385959625	-0.074339867	-0.021118164	0.999999046	0.000128746	-0.000127792	2.67029E-05	9.648990631	-1.858496666	-0.527954102	0.006437302	-0.006389618	0.001335144	-0.602783203	0.312744141	0.653564453	890.66	-104.2323176	-78.2764778	-54.06826284	-64
18613	0	0.385192871	-0.076293945	-0.020935059	0.999999046	0	3.52859E-05	-4.57764E-05	9.629821777	-1.907348633	-0.523376465	0	0.001764297	-0.002288818	-0.602783203	0.312744141	0.656494141	890.72	-104.2178501	-78.29167277	-54.08703383	-64
18614	0	0.385140419	-0.07882309	-0.022313118	0.999999046	0.000469208	-0.000137329	0.000114441	9.628510475	-1.97057724	-0.55782795	0.023460389	-0.006866455	0.005722046	-0.602783203	0.312744141	0.653564453	890.68	-104.2206265	-78.28410751	-54.03242626	-64
18615	0	0.385498047	-0.076049805	-0.022888184	0.999999046	0.000785828	-0.000178337	0.000221252	9.637451172	-1.901245117	-0.57220459	0.039291386	-0.008916856	0.011062623	-0.602783203	0.312744141	0.656494141	890.68	-104.1951086	-78.26355605	-53.97500195	-64
18616	0	0.386250496	-0.074606895	-0.021384239	0.999999046	0.000552177	-0.00028801	0.000106812	9.656262398	-1.865172386	-0.53460598	0.027608873	-0.014400483	0.005340577	-0.603027344	0.317382813	0.662109375	890.62	-104.2706742	-78.25275949	-53.83813281	-64
18617	0	0.385803223	-0.075683594	-0.020385742	0.999999046	0.000183105	-6.38962E-05	0.000183105	9.645080566	-1.892089844	-0.509643555	0.009155274	-0.003194809	0.009155274	-0.602783203	0.312744141	0.653564453	890.66	-104.2583307	-78.23988679	-53.83780457	-64
18618	0	0.385832787	-0.076809883	-0.020468712	0.999999046	0.000276566	-0.000165939	0.000160217	9.645819664	-1.920247078	-0.511717796	0.013828278	-0.008296967	0.008010864	-0.600341797	0.314941406	0.653320313	890.62	-104.292696	-78.2267137	-53.77386626	-64
18619	0	0.385864258	-0.076660156	-0.022644043	0.999999046	0.000221252	-8.67844E-05	0.000320435	9.646606445	-1.916503906	-0.566101074	0.011062622	-0.004339218	0.016021729	-0.600585938	0.317138672	0.658935547	890.58	-104.2698947	-78.19800949	-53.77620594	-64
18620	0	0.384101868	-0.075940132	-0.021945953	0.999999046	0.000208855	-0.000207901	0.000213623	9.602546692	-1.898503304	-0.548648834	0.010442734	-0.01039505	0.010681153	-0.600585938	0.314941406	0.659179688	890.66	-104.3275323	-78.17779226	-53.70363728	-64
18621	0	0.384765625	-0.076293945	-0.02142334	0.999999046	-0.000328064	-0.000243187	0.000431061	9.619140625	-1.907348633	-0.535583496	-0.016403199	-0.012159348	0.021553041	-0.603027344	0.317138672	0.65625	890.72	-104.4356523	-78.13247344	-53.63574019	-64
18622	0	0.388471603	-0.078507423	-0.021725655	0.999999046	-0.000389099	-6.48499E-05	0.000343323	9.711790085	-1.962685585	-0.543141365	-0.019454957	-0.003242493	0.017166138	-0.598144531	0.317138672	0.658935547	890.68	-104.4681862	-78.10197887	-53.65188951	-64
18623	0	0.384155273	-0.078735352	-0.02130127	0.999999046	9.91821E-05	-4.48227E-05	0.000263214	9.603881836	-1.968383789	-0.532531738	0.004959107	-0.002241135	0.013160706	-0.600830078	0.319335938	0.658691406	890.74	-104.4450265	-78.08091086	-53.66470303	-64
18624	0	0.381914139	-0.078025818	-0.021626472	0.999999046	0.000208855	-0.000148773	0.00056839	9.54785347	-1.950645447	-0.540661812	0.010442734	-0.00743866	0.028419496	-0.600585938	0.314941406	0.65625	890.68	-104.4227146	-78.02297545	-53.67309086	-64
18625	0	0.383728027	-0.078430176	-0.021484375	0.999999046	-0.000289917	-3.71933E-05	0.000499725	9.593200684	-1.960754395	-0.537109375	-0.01449585	-0.001859665	0.024986268	-0.600585938	0.317138672	0.658935547	890.66	-104.4085945	-77.97584626	-53.72907356	-64
18626	0	0.385537148	-0.081000328	-0.021866798	0.999999046	-0.000246048	-4.19617E-05	0.000304222	9.638428688	-2.025008202	-0.54666996	-0.012302399	-0.002098084	0.015211106	-0.598388672	0.319335938	0.655761719	890.68	-104.4181885	-77.95018885	-53.74712951	-64
18627	0	0.386901855	-0.083435059	-0.021484375	0.999999046	0.000358582	-6.00815E-05	0.000423431	9.672546387	-2.085876465	-0.537109375	0.017929078	-0.003004074	0.021171571	-0.598144531	0.317138672	0.653076172	890.5	-104.3518161	-77.91059575	-53.77655541	-64
18628	0	0.384694099	-0.080786705	-0.022511482	0.999999046	0.001027107	-9.53674E-06	0.000281334	9.617352486	-2.019667625	-0.562787056	0.051355372	-0.000476837	0.014066699	-0.598388672	0.321533203	0.655517578	890.68	-104.2019343	-77.88813002	-53.80971868	-64
18629	0	0.382202148	-0.07635498	-0.021484375	0.999999046	0.000835419	5.43594E-05	0.000404358	9.555053711	-1.908874512	-0.537109375	0.041770941	0.002717972	0.020217898	-0.598388672	0.321533203	0.655517578	890.58	-104.025542	-77.85389104	-53.89624102	-64
18630	0	0.383545876	-0.077314377	-0.022901535	0.999999046	0.000116348	-0.000110626	0.000392914	9.588646889	-1.932859421	-0.572538376	0.005817414	-0.005531311	0.019645692	-0.595947266	0.321533203	0.658447266	890.58	-104.0191356	-77.8164124	-53.89583364	-64
18631	0	0.383850098	-0.078857422	-0.022460938	0.999999046	-0.000343323	-9.05991E-05	0.000274658	9.596252441	-1.971435547	-0.561523438	-0.017166138	-0.004529953	0.013732911	-0.598388672	0.323730469	0.655517578	890.66	-104.0705722	-77.79268241	-53.88324425	-64
18632	0	0.384777069	-0.081740379	-0.021611214	0.999999046	-0.000292778	-9.34601E-05	0.000330925	9.619426727	-2.043509483	-0.540280342	-0.014638901	-0.004673004	0.01654625	-0.598632813	0.323730469	0.658203125	890.62	-104.1102427	-77.76254998	-53.87882501	-64
18633	0	0.385070801	-0.083740234	-0.022033691	0.999999046	0.000301361	8.86917E-05	0.000289917	9.62677002	-2.093505859	-0.550842285	0.015068055	0.004434586	0.01449585	-0.598632813	0.323730469	0.658203125	890.58	-103.9937787	-77.74188868	-53.9661362	-64
18634	0	0.384233475	-0.08122921	-0.020514488	0.999999046	0.000663757	0.000101089	0.000270844	9.605836868	-2.030730247	-0.512862206	0.033187869	0.005054474	0.013542176	-0.596191406	0.323730469	0.658203125	890.62	-103.8319517	-77.72363065	-54.05913965	-64
18635	0	0.384338379	-0.078857422	-0.020996094	0.999999046	0.000591278	-2.95639E-05	0.000202179	9.608459473	-1.971435547	-0.524902344	0.029563906	-0.001478195	0.010108948	-0.598632813	0.328369141	0.655029297	890.68	-103.7541855	-77.70950961	-54.06532301	-64
18636	0	0.384732246	-0.077573776	-0.021111488	0.999999046	2.38419E-05	0.000110626	0.000395775	9.61830616	-1.939344406	-0.527787209	0.001192093	0.005531311	0.019788743	-0.598632813	0.326171875	0.661132813	890.66	-103.6460783	-77.67780354	-54.18005107	-64
18637	0	0.386535645	-0.078125	-0.020507813	0.999999046	-0.000595093	0.000157356	0.000247955	9.663391113	-1.953125	-0.512695313	-0.029754641	0.007867814	0.012397767	-0.598388672	0.325927734	0.65234375	890.62	-103.6037829	-77.66397063	-54.29154894	-64
18638	0	0.38418293	-0.079695702	-0.020666122	0.999999046	-0.001010895	0.000236511	0.000361443	9.60457325	-1.99239254	-0.516653061	-0.050544749	0.011825564	0.018072132	-0.596191406	0.325927734	0.655029297	890.66	-103.5551289	-77.63968781	-54.457278	-64
18639	0	0.385131836	-0.082702637	-0.022644043	0.999999046	-0.001094818	0.000321388	0.000301361	9.628295898	-2.067565918	-0.566101074	-0.054740918	0.016069416	0.015068058	-0.595947266	0.323730469	0.655273438	890.62	-103.4809855	-77.62426062	-54.66095598	-64
18640	0	0.382898331	-0.082092285	-0.021907806	0.999999046	-0.000618935	0.000192642	0.000320435	9.572458267	-2.052307129	-0.54769516	-0.030946734	0.009632111	0.01602173	-0.598388672	0.323730469	0.652587891	890.62	-103.4159044	-77.60317095	-54.79708912	-64
18641	0	0.38684082	-0.081115723	-0.022216797	0.999999046	-0.000659943	5.43594E-05	8.39233E-05	9.671020508	-2.027893066	-0.555419922	-0.032997134	0.002717972	0.004196167	-0.598388672	0.323730469	0.655517578	890.6	-103.4547493	-77.6047972	-54.83198672	-64
18642	0	0.3838377	-0.084507942	-0.022593498	0.999999046	-0.000217438	0.000141144	-0.000183105	9.595942497	-2.112698555	-0.564837456	-0.010871887	0.00705719	-0.009155274	-0.600830078	0.321533203	0.655761719	890.68	-103.4313592	-77.63833294	-54.88326167	-64
18643	0	0.381958008	-0.080871582	-0.020690918	0.999999046	0.00012207	0.000149727	0.000106812	9.548950195	-2.021789551	-0.517272949	0.006103516	0.007486343	0.005340576	-0.598388672	0.319335938	0.661621094	890.66	-103.3293157	-77.63976927	-54.98419879	-64
18644	0	0.383472443	-0.080471039	-0.019947052	0.999999046	-0.000367165	4.57764E-05	0.000121117	9.586811066	-2.01177597	-0.4986763	-0.018358231	0.002288818	0.006055832	-0.598388672	0.321533203	0.655517578	890.68	-103.3343731	-77.63690082	-55.02194727	-64
18645	0	0.383483887	-0.081237793	-0.020324707	0.999999046	-0.000808716	0.000130653	0.000175476	9.587097168	-2.030944824	-0.508117676	-0.040435796	0.00653267	0.008773805	-0.595703125	0.319091797	0.652832031	890.68	-103.3402196	-77.63022603	-55.11026853	-64
18646	0	0.3848629	-0.084877968	-0.021827698	0.999999046	-0.000520706	-5.72205E-06	0.000174522	9.621572495	-2.121949196	-0.545692444	-0.02603531	-0.000286102	0.00872612	-0.598388672	0.319335938	0.658691406	890.58	-103.3825599	-77.61989002	-55.13134589	-65
18647	0	0.385375977	-0.084777832	-0.022949219	0.999999046	3.05176E-05	1.62125E-05	7.62939E-05	9.634399414	-2.119445801	-0.573730469	0.001525879	0.000810623	0.003814697	-0.595703125	0.319091797	0.652832031	890.72	-103.3627611	-77.62092484	-55.14611515	-65
18648	0	0.383471489	-0.082213402	-0.022078514	0.999999046	0.000414848	-0.000104904	-6.48499E-05	9.586787224	-2.055335045	-0.551962852	0.020742417	-0.005245209	-0.003242493	-0.595947266	0.319335938	0.658447266	890.68	-103.3777374	-77.63443911	-55.0853168	-64
18649	0	0.3828125	-0.080993652	-0.021911621	0.999999046	0.00030899	-7.9155E-05	8.39233E-05	9.5703125	-2.024841309	-0.547790527	0.015449524	-0.003957748	0.004196167	-0.598388672	0.321533203	0.658447266	890.62	-103.3740571	-77.63205313	-55.05335164	-64
18650	0	0.384626389	-0.080034256	-0.020825386	0.999999046	-0.000104904	-0.000278473	7.62939E-05	9.615659714	-2.0008564	-0.520634651	-0.005245209	-0.013923645	0.003814697	-0.598388672	0.319335938	0.664550781	890.62	-103.5200076	-77.62528027	-54.92590502	-64
18651	0	0.383850098	-0.082275391	-0.021911621	0.999999046	-3.8147E-05	-0.000151634	-0.000209808	9.596252441	-2.056884766	-0.547790527	-0.001907349	-0.007581711	-0.010490418	-0.598144531	0.319335938	0.652832031	890.62	-103.6291505	-77.65367758	-54.81758213	-64
18652	0	0.38418293	-0.083883286	-0.022340775	0.999999046	0.000157356	-0.000179291	3.71933E-05	9.60457325	-2.097082138	-0.558519363	0.007867813	-0.008964539	0.001859665	-0.598388672	0.319335938	0.658691406	890.72	-103.6998123	-77.65365389	-54.73093232	-64
18653	0	0.383666992	-0.081054688	-0.021057129	0.999999046	0.000389099	-5.24521E-05	0.000102997	9.591674805	-2.026367188	-0.526428223	0.019454957	-0.002622604	0.005149841	-0.598388672	0.319335938	0.661621094	890.62	-103.6711603	-77.64975072	-54.72240307	-64
18654	0	0.384867668	-0.080968857	-0.022073746	0.999999046	0.000505447	-0.000165939	-7.24792E-05	9.621691704	-2.02422142	-0.551843643	0.025272371	-0.008296967	-0.003623963	-0.598388672	0.319335938	0.655761719	890.74	-103.70885	-77.66232567	-54.62862272	-64
18655	0	0.384521484	-0.080627441	-0.023071289	0.999999046	0.000709534	-0.00026226	-7.62939E-06	9.613037109	-2.015686035	-0.576782227	0.035476688	-0.013113023	-0.00038147	-0.598388672	0.319335938	0.661621094	890.68	-103.76461	-77.6650594	-54.49911213	-64
18656	0	0.385182381	-0.079675674	-0.021452904	0.999999046	0.000433922	-8.96454E-05	-0.000187874	9.629559517	-1.991891861	-0.536322594	0.021696092	-0.004482269	-0.009393692	-0.598388672	0.321533203	0.655517578	890.62	-103.7867785	-77.69263174	-54.42714901	-65
18657	0	0.383789063	-0.080688477	-0.021911621	0.999999046	0.000415802	-7.53403E-05	-0.000270844	9.594726563	-2.017211914	-0.547790527	0.020790101	-0.003767014	-0.013542176	-0.595947266	0.319335938	0.655517578	890.62	-103.8144604	-77.72982563	-54.35569525	-64
18658	0	0.384378433	-0.081292152	-0.021903038	0.999999046	0.000465393	-6.86646E-05	-5.05447E-05	9.609460831	-2.03230381	-0.547575951	0.023269654	-0.003433228	-0.002527237	-0.598388672	0.321533203	0.658447266	890.66	-103.8055535	-77.74265651	-54.31565604	-64
18659	0	0.384094238	-0.078674316	-0.022521973	0.999999046	0.000331879	-0.000189781	8.01086E-05	9.602355957	-1.96685791	-0.563049316	0.016593934	-0.00948906	0.004005432	-0.598632813	0.323730469	0.661132813	890.66	-103.8578805	-77.73771328	-54.22721269	-64
18660	0	0.388039589	-0.078629494	-0.021885872	0.999999046	-0.000258446	-2.67029E-05	5.72205E-05	9.700989723	-1.965737343	-0.547146797	-0.012922287	-0.001335144	0.002861023	-0.595947266	0.321533203	0.655517578	890.74	-103.8974214	-77.73991818	-54.21906515	-64
18661	0	0.3828125	-0.080444336	-0.020751953	0.999999046	-0.000324249	0.000142097	5.72205E-05	9.5703125	-2.011108398	-0.518798828	-0.016212464	0.007104874	0.002861023	-0.598388672	0.319335938	0.655761719	890.72	-103.8578377	-77.74676421	-54.3043319	-64
18662	0	0.38286972	-0.080413818	-0.021734238	0.999999046	-0.000394821	2.86102E-05	0.000258446	9.571743011	-2.010345459	-0.543355942	-0.019741059	0.001430512	0.012922287	-0.598388672	0.321533203	0.655517578	890.72	-103.8591008	-77.72809699	-54.3503149	-64
18663	0	0.384765625	-0.081237793	-0.022644043	0.999999046	-0.000930786	3.91006E-05	0.000396729	9.619140625	-2.030944824	-0.566101074	-0.046539315	0.001955033	0.019836429	-0.598388672	0.319335938	0.655761719	890.68	-103.8992356	-77.69430747	-54.42206946	-63
18664	0	0.384700775	-0.083699226	-0.022343636	0.999999046	-0.000601768	0.000116348	0.000270844	9.617519379	-2.092480659	-0.558590889	-0.030088427	0.005817414	0.013542176	-0.598388672	0.319335938	0.655761719	890.62	-103.878259	-77.67651694	-54.51633018	-64
18665	0	0.384887695	-0.083862305	-0.021728516	0.999999046	7.24792E-05	-4.1008E-05	0.000331879	9.622192383	-2.096557617	-0.543212891	0.003623962	-0.0020504	0.016593933	-0.595703125	0.316894531	0.655761719	890.66	-103.8524162	-77.64747999	-54.54146178	-64
18666	0	0.384648323	-0.081801414	-0.020284653	0.999999046	0.000526428	3.24249E-05	0.000216484	9.616208076	-2.045035362	-0.507116318	0.026321413	0.001621246	0.010824204	-0.598388672	0.321533203	0.655517578	890.68	-103.751479	-77.63329073	-54.58326727	-64
18667	0	0.382324219	-0.079345703	-0.021789551	0.999999046	0.00050354	-9.05991E-05	9.91821E-05	9.558105469	-1.983642578	-0.54473877	0.025177003	-0.004529953	0.004959107	-0.598388672	0.321533203	0.658447266	890.68	-103.7304167	-77.62887925	-54.55007949	-64
18668	0	0.383646965	-0.079749107	-0.021230698	0.999999046	-4.1008E-05	-0.000144958	0.000198364	9.591174126	-1.993727684	-0.530767441	-0.0020504	-0.007247925	0.009918213	-0.598388672	0.323730469	0.655517578	890.66	-103.7869941	-77.61202802	-54.49432505	-64
18669	0	0.384399414	-0.079772949	-0.021240234	0.999999046	-0.000404358	-8.29697E-05	9.53674E-05	9.609985352	-1.99432373	-0.531005859	-0.020217896	-0.004148483	0.004768372	-0.598388672	0.321533203	0.655517578	890.66	-103.8664952	-77.60841552	-54.46114067	-64
18670	0	0.386271477	-0.083552361	-0.021861076	0.999999046	-0.00022316	-8.7738E-05	2.95639E-05	9.656786919	-2.088809013	-0.546526909	-0.01115799	-0.004386902	0.001478195	-0.595947266	0.321533203	0.658447266	890.68	-103.9357587	-77.61190845	-54.41763772	-64
18671	0	0.38470459	-0.085327148	-0.023132324	0.999999046	0.000648499	-3.33786E-05	-3.05176E-05	9.617614746	-2.133178711	-0.578308105	0.032424929	-0.00166893	-0.001525879	-0.598388672	0.321533203	0.658447266	890.66	-103.8852154	-77.62338271	-54.39735595	-64
18672	0	0.38421917	-0.08118248	-0.022260666	0.999999046	0.000817299	-0.000141144	0.00012207	9.60547924	-2.029561996	-0.556516647	0.040864949	-0.007057191	0.006103516	-0.600830078	0.321777344	0.661621094	890.74	-103.8509127	-77.61493216	-54.34641212	-63
18673	0	0.384094238	-0.078491211	-0.023376465	0.999999046	0.000549316	-0.000163078	8.7738E-05	9.602355957	-1.962280273	-0.584411621	0.027465822	-0.008153916	0.004386902	-0.596191406	0.323730469	0.658203125	890.62	-103.863247	-77.60982989	-54.27197746	-63
18674	0	0.384255409	-0.079864502	-0.021706581	0.999999046	0.000360489	-0.000123978	-9.91821E-05	9.606385231	-1.996612549	-0.542664528	0.018024445	-0.006198883	-0.004959107	-0.598632813	0.323730469	0.661132813	890.68	-103.90088	-77.62667073	-54.19779554	-63
18675	0	0.38470459	-0.079589844	-0.021972656	0.999999046	0.000148773	-9.82285E-05	-4.57764E-05	9.617614746	-1.989746094	-0.549316406	0.00743866	-0.004911423	-0.002288818	-0.595947266	0.321533203	0.661376953	890.66	-103.9432463	-77.63835796	-54.14733359	-64
18676	0	0.383852005	-0.08078289	-0.023612022	0.999999046	-0.000134468	-9.34601E-05	-7.24792E-05	9.596300125	-2.019572258	-0.59030056	-0.006723404	-0.004673004	-0.003623962	-0.595947266	0.323730469	0.655273438	890.66	-104.0195798	-77.6531325	-54.08463505	-63
18677	0	0.382446289	-0.081115723	-0.024291992	0.999999046	-6.86646E-05	-0.000189781	-0.000106812	9.561157227	-2.027893066	-0.607299805	-0.003433228	-0.00948906	-0.005340576	-0.595947266	0.321533203	0.661376953	890.66	-104.1423687	-77.66896798	-53.97549087	-63
18678	0	0.386054993	-0.081274986	-0.023535728	0.999999046	-0.000202179	-0.000249863	-7.62939E-06	9.651374817	-2.031874657	-0.588393211	-0.010108948	-0.012493134	-0.00038147	-0.595947266	0.321533203	0.661376953	890.74	-104.2987534	-77.67202515	-53.84645279	-64
18679	0	0.385681152	-0.082763672	-0.022460938	0.999999046	7.62939E-05	-5.62668E-05	-0.000152588	9.642028809	-2.069091797	-0.561523438	0.003814697	-0.002813339	-0.007629395	-0.595947266	0.321533203	0.655517578	890.58	-104.3436492	-77.69653905	-53.79354432	-63
18680	0	0.38124752	-0.081003189	-0.021698952	0.999999046	0.000390053	-2.28882E-05	5.62668E-05	9.531188011	-2.025079727	-0.542473793	0.01950264	-0.001144409	0.002813339	-0.596191406	0.323730469	0.658203125	890.68	-104.3082937	-77.69877554	-53.7848212	-63
18681	0	0.382080078	-0.079040527	-0.022705078	0.999999046	0.0001297	-0.000349998	0.000175476	9.552001953	-1.976013184	-0.567626953	0.006484986	-0.017499924	0.008773804	-0.595947266	0.321533203	0.658447266	890.62	-104.4537403	-77.67852092	-53.62684289	-63
18682	0	0.384720802	-0.081684113	-0.022222519	0.999999046	-0.000356674	-0.000423431	3.43323E-05	9.618020058	-2.042102814	-0.555562973	-0.017833711	-0.021171571	0.001716614	-0.595947266	0.323730469	0.655273438	890.68	-104.7101746	-77.67165104	-53.40348669	-63
18683	0	0.382751465	-0.084777832	-0.022399902	0.999999046	0.000160217	-0.000349998	-0.000137329	9.568786621	-2.119445801	-0.559997559	0.008010864	-0.017499924	-0.006866455	-0.596191406	0.323730469	0.658203125	890.68	-104.8926631	-77.68557071	-53.19751071	-63
18684	0	0.386664391	-0.085595131	-0.023803711	0.999999046	0.000901222	-0.000411987	-4.29153E-05	9.666609764	-2.139878273	-0.595092773	0.045061119	-0.020599369	-0.002145768	-0.595947266	0.321533203	0.658447266	890.66	-105.0089727	-77.68687026	-52.9795536	-63
18685	0	0.38269043	-0.082275391	-0.022888184	0.999999046	0.000892639	-0.00020504	-2.28882E-05	9.567260742	-2.056884766	-0.57220459	0.044631964	-0.010252	-0.001144409	-0.59375	0.323730469	0.657958984	890.58	-105.0184199	-77.69195934	-52.86853235	-63
18686	0	0.381279945	-0.080652237	-0.023145676	0.999999046	0.00069809	-0.000240326	8.7738E-05	9.531998634	-2.016305923	-0.578641891	0.034904483	-0.012016297	0.004386902	-0.59375	0.323730469	0.657958984	890.62	-105.0529008	-77.68372119	-52.75687752	-63
18687	0	0.383300781	-0.08013916	-0.02355957	0.999999046	0.000297546	-0.000273705	0.000301361	9.582519531	-2.003479004	-0.588989258	0.01487732	-0.013685227	0.015068055	-0.59375	0.325927734	0.657958984	890.62	-105.1208572	-77.65085259	-52.65470357	-63
18688	0	0.385251999	-0.081240654	-0.024028778	0.999999046	-2.38419E-05	-0.000221252	0.000244141	9.631299973	-2.03101635	-0.600719452	-0.001192093	-0.011062622	0.012207031	-0.59375	0.325927734	0.657958984	890.66	-105.2066169	-77.62585209	-52.57225692	-63
18689	0	0.383239746	-0.083496094	-0.025085449	0.999999046	0.000366211	-0.00026989	9.53674E-05	9.580993652	-2.087402344	-0.62713623	0.018310548	-0.013494492	0.004768372	-0.593994141	0.325927734	0.663818359	890.62	-105.2924353	-77.61566873	-52.45004464	-63
18690	0	0.38424778	-0.080780029	-0.02493	0.999999046	0.001001358	-0.000200272	4.86374E-05	9.606194496	-2.019500732	-0.623250008	0.05006791	-0.010013582	0.00243187	-0.591552734	0.328125	0.657470703	890.62	-105.2770109	-77.61274521	-52.34913671	-63
18691	0	0.383483887	-0.07800293	-0.025878906	0.999999046	0.000747681	-0.000426292	8.01086E-05	9.587097168	-1.950073242	-0.646972656	0.037384038	-0.021314624	0.004005433	-0.59375	0.325927734	0.657958984	890.66	-105.4005006	-77.59958997	-52.14395024	-63
18692	0	0.384122849	-0.078648567	-0.022855759	0.999999046	8.86917E-05	-0.000282288	0.000179291	9.603071213	-1.96621418	-0.571393967	0.004434586	-0.01411438	0.008964539	-0.591552734	0.328125	0.663330078	890.68	-105.5128887	-77.5799293	-52.02672722	-63
18693	0	0.384277344	-0.078735352	-0.024536133	0.999999046	-0.000347137	-0.000163078	5.34058E-05	9.606933594	-1.968383789	-0.61340332	-0.017356873	-0.008153916	0.002670288	-0.591552734	0.328125	0.657470703	890.66	-105.6329645	-77.57789992	-51.94644443	-63
18694	0	0.385419846	-0.0812006	-0.02532959	0.999999046	-0.000440598	-0.000190735	-4.57764E-05	9.63549614	-2.030014992	-0.633239746	-0.022029878	-0.009536744	-0.002288818	-0.589111328	0.327880859	0.657470703	890.66	-105.7917446	-77.58591739	-51.83515459	-63
18695	0	0.38494873	-0.082824707	-0.02532959	0.999999046	-0.000118256	-0.000178337	9.91821E-05	9.623718262	-2.070617676	-0.633239746	-0.005912781	-0.008916855	0.004959106	-0.591308594	0.325927734	0.657714844	890.72	-105.8868509	-77.57820702	-51.75600689	-63
18696	0	0.382787704	-0.079294205	-0.024997711	0.999999046	2.95639E-05	-0.000226974	5.24521E-05	9.569692612	-1.982355118	-0.62494278	0.001478195	-0.011348724	0.002622604	-0.589111328	0.327880859	0.660400391	890.62	-105.9960399	-77.57415856	-51.64223366	-63
18697	0	0.388366699	-0.079772949	-0.025268555	0.999999046	-0.000148773	-0.000227928	-9.53674E-05	9.70916748	-1.99432373	-0.631713867	-0.00743866	-0.011396408	-0.004768372	-0.591552734	0.325927734	0.666503906	890.66	-106.14751	-77.58640777	-51.51513101	-63
18698	0	0.382937431	-0.081218719	-0.026201248	0.999999046	0.000101089	-0.000270844	-0.000210762	9.573435783	-2.030467987	-0.655031204	0.005054474	-0.013542176	-0.010538101	-0.589111328	0.325683594	0.663574219	890.66	-106.3091489	-77.60985583	-51.34466036	-63
18699	0	0.381103516	-0.078063965	-0.025024414	0.999999046	-1.14441E-05	-0.000105858	1.90735E-05	9.527587891	-1.951599121	-0.625610352	-0.000572205	-0.005292892	0.000953674	-0.589111328	0.325683594	0.663574219	890.66	-106.3677999	-77.61337345	-51.29247327	-63
18700	0	0.38359642	-0.078993797	-0.027671814	0.999999046	-0.000697136	-3.8147E-06	0.000133514	9.589910507	-1.974844933	-0.691795349	-0.034856799	-0.000190735	0.006675721	-0.589111328	0.323486328	0.666503906	890.58	-106.4376727	-77.607641	-51.31399257	-63
18701	0	0.383789063	-0.082397461	-0.027526855	0.999999046	-0.000389099	-0.000212669	-0.000175476	9.594726563	-2.059936523	-0.688171387	-0.019454957	-0.010633469	-0.008773804	-0.591552734	0.325927734	0.666503906	890.66	-106.6228682	-77.62893649	-51.17487748	-63
18702	0	0.387896538	-0.083218575	-0.025743484	0.999999046	0.000181198	-8.7738E-05	-0.000317574	9.697413445	-2.080464363	-0.643587112	0.009059906	-0.004386902	-0.015878678	-0.591308594	0.323730469	0.663818359	890.68	-106.7017044	-77.66977214	-51.07940842	-63
18703	0	0.386230469	-0.081237793	-0.026184082	0.999999046	0.000461578	-6.38962E-05	-0.000179291	9.655761719	-2.030944824	-0.654602051	0.023078919	-0.003194809	-0.008964539	-0.589111328	0.323486328	0.663574219	890.68	-106.7159297	-77.69616259	-51.01733365	-63
18704	0	0.382837296	-0.078499794	-0.02536869	0.999999046	0.000487328	-2.67029E-05	-7.34329E-05	9.570932388	-1.96249485	-0.634217262	0.02436638	-0.001335144	-0.003671646	-0.589111328	0.325683594	0.666503906	890.68	-106.6925268	-77.71222327	-50.98968112	-63
18705	0	0.383789063	-0.076782227	-0.026428223	0.999999046	-3.05176E-05	-7.15256E-05	-1.14441E-05	9.594726563	-1.919555664	-0.660705566	-0.001525879	-0.003576279	-0.000572205	-0.589111328	0.325683594	0.660644531	890.66	-106.7420479	-77.72013187	-50.94282916	-63
18706	0	0.387570381	-0.078419685	-0.02734375	0.999999046	-0.00062561	-1.71661E-05	0.000198364	9.689259529	-1.960492134	-0.68359375	-0.03128052	-0.000858307	0.009918214	-0.589111328	0.325683594	0.660644531	890.66	-106.800938	-77.70688884	-50.95447533	-63
18707	0	0.389099121	-0.081298828	-0.027709961	0.999999046	-0.000286102	9.25064E-05	0.0001297	9.727478027	-2.032470703	-0.692749023	-0.014305115	0.004625321	0.006484985	-0.589111328	0.323486328	0.666503906	890.62	-106.7763505	-77.70476687	-51.02042385	-63
18708	0	0.385298729	-0.081077576	-0.028357506	0.999999046	0.000657082	0.000238419	0.000270844	9.632468224	-2.026939392	-0.708937645	0.032854083	0.01192093	0.013542177	-0.591308594	0.321289063	0.666992188	890.62	-106.5494019	-77.69182771	-51.19132382	-63
18709	0	0.38293457	-0.076965332	-0.026123047	0.999999046	0.000946045	0.000393867	0.000450134	9.573364258	-1.924133301	-0.653076172	0.047302256	0.019693379	0.022506719	-0.591308594	0.323486328	0.657958984	890.66	-106.1854233	-77.66414091	-51.46057717	-63
18710	0	0.385515213	-0.074378967	-0.029647827	0.999999046	0.000177383	0.000385284	0.000475883	9.637880325	-1.859474182	-0.741195679	0.008869172	0.019264222	0.023794176	-0.589111328	0.327880859	0.660400391	890.66	-105.9128112	-77.63327123	-51.72032809	-63
18711	0	0.38861084	-0.077209473	-0.029663086	0.999999046	-0.000198364	0.000477791	0.000423431	9.715270996	-1.930236816	-0.741577148	-0.009918214	0.023889543	0.021171571	-0.591552734	0.325927734	0.660644531	890.66	-105.6466476	-77.61094556	-52.02331015	-63
18712	0	0.390768051	-0.079421997	-0.028895378	0.999999046	0.000308037	0.000680923	0.00062561	9.769201279	-1.985549927	-0.722384453	0.015401843	0.034046178	0.031280523	-0.591308594	0.325927734	0.657714844	890.62	-105.1947972	-77.57214795	-52.45720764	-63
18713	0	0.390625	-0.075805664	-0.030273438	0.999998093	0.000969887	0.001110077	0.000919342	9.765625	-1.895141602	-0.756835938	0.048494363	0.055503873	0.045967125	-0.591308594	0.325927734	0.657714844	890.68	-104.4181663	-77.51262791	-53.1519841	-63
18714	0	0.385375977	-0.06854248	-0.028869629	0.999997139	0.000572205	0.001354218	0.001338959	9.634399414	-1.713562012	-0.721740723	0.028610248	0.067710921	0.066947981	-0.593994141	0.330322266	0.654541016	890.74	-103.5231421	-77.41162342	-54.01001206	-63
18715	0	0.387111664	-0.068710327	-0.029427528	0.999994278	-0.00074482	0.001544952	0.002092361	9.677791595	-1.717758179	-0.73568821	-0.037241027	0.077247714	0.1046182	-0.593994141	0.332519531	0.654296875	890.62	-102.6166099	-77.22917761	-55.03393494	-63
18716	0	0.387587547	-0.071362495	-0.030291557	0.999994278	-0.001228333	0.001738548	0.002366066	9.689688683	-1.784062386	-0.757288933	-0.06141673	0.086927561	0.118303499	-0.594238281	0.337158203	0.656982422	890.58	-101.6729287	-77.01769824	-56.1492904	-63
18717	0	0.385314941	-0.071472168	-0.029724121	0.999992371	-0.001616478	0.001838684	0.002887726	9.632873535	-1.786804199	-0.743103027	-0.080824091	0.091934424	0.144386636	-0.596435547	0.332763672	0.657470703	890.58	-100.7139779	-76.74629917	-57.34068114	-63
18718	0	0.38421154	-0.074203491	-0.03019619	0.999990463	-0.001675606	0.001997948	0.003356934	9.605288506	-1.85508728	-0.754904747	-0.083780541	0.099897685	0.167847185	-0.599121094	0.337158203	0.654296875	890.68	-99.69540535	-76.42118565	-58.59550336	-62
18719	0	0.382324219	-0.075012207	-0.030822754	0.999990463	-0.001273155	0.002037048	0.00345993	9.558105469	-1.875305176	-0.770568848	-0.063657949	0.101852718	0.172997033	-0.596679688	0.339355469	0.651123047	890.68	-98.66230094	-76.08059345	-59.81725227	-61
18720	0	0.381530762	-0.075439453	-0.031005859	0.999990463	-0.000907898	0.001885414	0.003585815	9.538269043	-1.885986328	-0.775146484	-0.045395028	0.094270977	0.179291287	-0.596435547	0.339355469	0.642333984	890.62	-97.70505378	-75.71894237	-60.91980313	-60
18721	0	0.387023926	-0.077819824	-0.031005859	0.999990463	-0.000452995	0.001781464	0.003852844	9.675598145	-1.945495605	-0.775146484	-0.022649834	0.089073452	0.192642797	-0.596923828	0.346191406	0.647705078	890.62	-96.78181956	-75.3218371	-61.93528097	-60
18722	0	0.385087967	-0.077586174	-0.031838417	0.999990463	0.000605583	0.001570702	0.003941536	9.627199173	-1.93965435	-0.795960426	0.030279252	0.07853532	0.197077401	-0.596923828	0.350585938	0.644287109	890.68	-95.87857416	-74.90882958	-62.80795276	-58
18723	0	0.375854492	-0.075744629	-0.029296875	0.999988556	0.001893044	0.001502991	0.004051208	9.396362305	-1.893615723	-0.732421875	0.094652527	0.075149815	0.202561176	-0.597167969	0.354980469	0.638183594	890.66	-94.90379658	-74.47991624	-63.60746212	-58
18724	0	0.37629509	-0.078478813	-0.028301239	0.999979019	0.004457474	0.001290321	0.004322052	9.407377243	-1.961970329	-0.707530975	0.222875182	0.0645165	0.216104049	-0.594970703	0.364013672	0.637207031	890.68	-93.76692463	-74.01534606	-64.27780626	-57
18725	0	0.381530762	-0.067016602	-0.020446777	0.999973297	0.003743172	0.001308441	0.006137848	9.538269043	-1.675415039	-0.511169434	0.18716025	0.06542264	0.306895126	-0.593017578	0.375	0.636230469	890.66	-92.72011578	-73.34153125	-64.94651713	-57
18726	0	0.386795998	-0.066488266	-0.002963066	0.999938011	-0.004959106	0.001573563	0.009783745	9.66989994	-1.66220665	-0.074076653	-0.247960397	0.078679741	0.489197252	-0.591308594	0.390625	0.62890625	890.72	-92.56567367	-72.25200907	-65.70059487	-59
18727	0	0.400634766	-0.110961914	-0.01184082	0.999905586	-0.00655365	0.001973152	0.011901855	10.01586914	-2.774047852	-0.296020508	-0.327692791	0.098660708	0.595111471	-0.584228516	0.392578125	0.631347656	890.62	-92.48172566	-70.9221217	-66.58526412	-60
18728	0	0.391242027	-0.098060608	0.007525444	0.999926567	0.0002985	0.00075531	0.012038231	9.781050682	-2.451515198	0.188136101	0.014925365	0.037766419	0.60192615	-0.577636719	0.403564453	0.635742188	890.66	-92.07330421	-69.57143243	-66.99990007	-60
18729	0	0.338134766	-0.105957031	0.08190918	0.999912262	0.009346962	0.002799988	0.008907318	8.453369141	-2.648925781	2.047729492	0.467361695	0.140003463	0.445378863	-0.568603516	0.421142578	0.633789063	890.62	-90.11638348	-68.58197868	-67.97541554	-61
18730	0	0.193235397	-0.105710983	0.125002861	0.999388695	0.033014297	0.011459351	0.000284195	4.830884933	-2.642774582	3.125071526	1.651051073	0.573084225	0.014212641	-0.571777344	0.445800781	0.614501953	890.66	-82.98559622	-68.49315836	-71.64000647	-62
18731	0	-0.01385498	0.022888184	0.181518555	0.998051643	0.061161041	0.011940956	-0.002796173	-0.346374512	0.57220459	4.537963867	3.06003873	0.597435679	-0.139899482	-0.592285156	0.5	0.555664063	890.62	-72.35343442	-68.53472678	-75.63802418	-66
18732	0	-0.015207291	-0.039895058	0.168036461	0.999752998	0.00583744	0.007070541	0.020206451	-0.380182266	-0.997376442	4.200911522	0.291895981	0.353556086	1.010405498	-0.598876953	0.5625	0.498291016	890.68	-71.49348246	-66.09667179	-75.85695528	-66
18733	0	0.125488281	-0.094421387	0.076843262	0.999633789	0.016015053	0.006191254	0.020881653	3.137207031	-2.360534668	1.921081543	0.800850211	0.309600403	1.044209863	-0.573730469	0.597412109	0.485107422	890.66	-69.85392206	-63.6153069	-75.6737385	-62
18734	0	0.161739349	-0.168911934	-0.006635666	0.998848915	0.046892166	0.005231857	0.008622169	4.043483734	-4.222798347	-0.165891647	2.345508236	0.261693272	0.431273947	-0.553710938	0.647949219	0.447753906	890.66	-64.10026054	-62.47900884	-76.16821838	-64
18735	0	0.221557617	-0.160827637	-0.031066895	0.996757507	0.080101967	0.006187439	-0.004405975	5.53894043	-4.020690918	-0.776672363	4.009432497	0.309706738	-0.220537165	-0.547119141	0.705322266	0.354980469	890.62	-53.20092048	-62.54665838	-78.19888653	-77
18736	0	0.387836456	-0.132405281	-0.00722599	0.996593475	0.080904007	0.008759499	-0.013332367	9.695911407	-3.310132027	-0.180649757	4.049798953	0.438472822	-0.667376162	-0.556640625	0.754150391	0.231689453	890.68	-40.43117204	-62.98149874	-82.19004479	-58
18737	0	0.495239258	-0.106506348	-0.042297363	0.997623444	0.063614845	0.022621155	-0.013694763	12.38098145	-2.662658691	-1.057434082	3.183263679	1.131954343	-0.68528096	-0.579101563	0.771728516	0.097167969	890.68	-27.85016244	-61.72972154	-88.16941444	-56
18738	0	0.458491325	-0.132704735	0.05098629	0.998821259	0.034398079	0.032414436	-0.011012077	11.46228313	-3.31761837	1.274657249	1.720579779	1.621358677	-0.550820225	-0.598144531	0.767089844	-0.023925781	890.68	-19.25944736	-58.84425549	-93.47079895	-56
18739	0	0.672546387	-0.223449707	0.072143555	0.998259544	0.033863068	0.0471735	-0.010253906	16.81365967	-5.586242676	1.803588867	1.694136156	2.360044073	-0.512992901	-0.608154297	0.7578125	-0.118896484	890.62	-11.5062272	-53.96713439	-98.10488369	-57
18740	0	0.874707222	-0.020113945	-0.204096794	0.997883797	0.004761696	0.063861847	-0.011234283	21.86768055	-0.502848625	-5.102419853	0.238252852	3.195346286	-0.562110675	-0.604980469	0.738769531	-0.239990234	890.62	-7.918661813	-47.02471137	-102.0184925	-60
18741	0	0.540710449	0.118286133	-0.05279541	0.993116379	-0.095622063	0.065879822	0.015342712	13.51776123	2.95715332	-1.319885254	-4.792103276	3.301569752	0.76890061	-0.580078125	0.746337891	-0.309082031	890.68	-18.87405838	-39.35009745	-102.0520299	-59
18742	0	0.513073921	-0.720536232	1.423416138	0.998800278	-0.047726631	0.007317543	0.008131027	12.82684803	-18.0134058	35.58540344	-2.387286123	0.366023507	0.406713987	-0.520996094	0.828125	-0.199707031	890.68	-24.79835707	-38.27569665	-101.3231511	-58
18743	0	0.199157715	-0.703552246	0.742126465	0.999406815	0.033299446	0.00655365	-0.00573349	4.978942871	-17.58880615	18.55316162	1.665301223	0.327747229	-0.286731132	-0.524169922	0.833007813	-0.167724609	890.68	-20.30962399	-37.86091911	-102.4520712	-59
18744	0	0.06268692	0.107052803	0.452166557	0.997385979	-0.067439079	0.016819	0.019738197	1.567173004	2.676320076	11.30416393	-3.374894762	0.841683434	0.987770584	-0.522705078	0.823486328	-0.216796875	890.74	-28.98465163	-35.18234336	-100.8942704	-58
18745	0	-0.020324707	-0.226196289	0.27532959	0.99939537	-0.018961906	0.006469727	0.028396606	-0.508117676	-5.654907227	6.883239746	-0.948286274	0.32355148	1.420116284	-0.469726563	0.876464844	-0.092773438	890.68	-32.80305525	-32.88015062	-97.98764597	-59
18746	0	0.013484955	-0.025486946	0.095866203	0.999850273	0.016418457	-0.001764297	0.005034447	0.337123871	-0.637173653	2.396655083	0.820963633	-0.088219257	0.251734841	-0.434082031	0.890869141	-0.116455078	890.78	-31.31891148	-32.74842054	-97.27799934	-60
18747	0	0.122558594	-0.014526367	0.041931152	0.99991703	0.009166718	-0.008448601	-0.003196716	3.063964844	-0.36315918	1.048278809	0.45834853	-0.4224417	-0.159840228	-0.431152344	0.888183594	-0.130859375	890.8	-30.39979293	-33.77425684	-97.06075189	-61
18748	0	0.173894882	-0.03319931	0.105257988	0.999426842	0.028878212	-0.015228271	-0.00887394	4.347372055	-0.829982758	2.631449699	1.44418619	-0.761558901	-0.443781662	-0.442626953	0.881835938	-0.144287109	890.68	-27.06276243	-35.80399632	-97.12742239	-58
18749	0	0.189331055	0.016113281	0.09777832	0.998661995	0.044769287	-0.021391869	-0.014507294	4.733276367	0.402832031	2.444458008	2.239462554	-1.070070394	-0.725688147	-0.465087891	0.859863281	-0.185058594	890.68	-21.54935646	-38.73779728	-97.76803279	-55
18750	0	0.231985092	0.104427338	0.149814606	0.999130249	0.021126747	-0.030585289	-0.0188694	5.799627304	2.610683441	3.745365143	1.056643556	-1.529707736	-0.943743484	-0.498779297	0.831542969	-0.239257813	890.68	-18.40060198	-42.79151983	-98.87868238	-55
18751	0	0.57244873	-0.627319336	1.052307129	0.998173714	0.040996552	0.044213295	0.003566742	14.31121826	-15.6829834	26.30767822	2.051076008	2.212011139	0.178445712	-0.543212891	0.803955078	-0.240234375	890.68	-12.88311122	-37.79945854	-100.163177	-57
18752	0	0.16170311	0.089317322	0.445366859	0.998983383	-0.009027481	0.04232502	0.012551308	4.042577744	2.232933044	11.13417149	-0.451526942	2.1169678	0.62777795	-0.482666016	0.796386719	-0.377197266	890.58	-14.10711443	-32.73814236	-99.84395088	-57
18753	0	0.034851074	-0.027709961	0.359436035	0.999098778	-0.042144775	0.003457069	0.003482819	0.871276855	-0.692749023	8.985900879	-2.107871546	0.172905376	0.174193222	-0.448486328	0.828857422	-0.35546875	890.66	-19.1056605	-32.22890465	-99.53225114	-57
18754	0	0.165616035	-0.226383209	0.330176353	0.999806404	-0.009971619	-0.016464233	-0.00404644	4.140400887	-5.659580231	8.254408836	-0.498613087	-0.82326476	-0.202335054	-0.447998047	0.849365234	-0.301757813	890.68	-20.38225632	-34.14332822	-99.29731168	-57
18755	0	0.196044922	-0.183410645	0.316223145	0.999882698	0.012004852	-0.007098198	-0.006195068	4.901123047	-4.585266113	7.905578613	0.600265915	-0.354923674	-0.309765442	-0.467285156	0.843505859	-0.279785156	890.68	-18.73829999	-35.12780369	-99.78454115	-58
18756	0	0.197496414	-0.094838142	0.298820496	0.999958038	0.005022049	-0.005570412	-0.005177498	4.937410355	-2.37095356	7.47051239	0.251105924	-0.27852444	-0.258878477	-0.478515625	0.832763672	-0.295898438	890.66	-17.90926891	-35.90000303	-100.2346541	-58
18757	0	0.233276367	-0.072387695	0.297302246	0.999970436	0.006843567	-0.001704216	-0.002986908	5.83190918	-1.809692383	7.432556152	0.34218169	-0.085211633	-0.149346858	-0.489990234	0.819580078	-0.294189453	890.72	-16.93360495	-36.16942388	-100.5727203	-58
18758	0	0.256251335	-0.054905891	0.264867783	0.999998093	-0.001137733	0.000792503	-0.001281738	6.406283379	-1.372647285	6.621694565	-0.056886707	0.039625191	-0.064086952	-0.494628906	0.819580078	-0.305419922	890.68	-16.94396126	-36.10881415	-100.786345	-58
18759	0	0.268615723	-0.063171387	0.290710449	0.999969482	-0.007407188	0.002220154	0.000392914	6.715393066	-1.579284668	7.26776123	-0.370363121	0.1110088	0.019645887	-0.494628906	0.817382813	-0.299560547	890.68	-17.76910894	-35.83864975	-100.8350519	-58
18760	0	0.260829926	-0.101847649	0.305900574	0.999933243	-0.010356903	0.004509926	0.0020895	6.520748138	-2.546191216	7.647514343	-0.517856545	0.225501252	0.104477319	-0.490478516	0.826416016	-0.285888672	890.72	-19.00219915	-35.26043837	-100.7642	-58
18761	0	0.231506348	-0.116210938	0.312438965	0.999957085	-0.006336212	0.005551338	0.003643036	5.787658691	-2.905273438	7.810974121	-0.316815056	0.277570807	0.182154352	-0.483642578	0.833007813	-0.281005859	890.68	-19.85601756	-34.50964819	-100.5501636	-58
18762	0	0.212409973	-0.130466461	0.322725296	0.999980927	-0.003973961	0.003369331	0.003287315	5.310249329	-3.26166153	8.068132401	-0.198699301	0.168467634	0.164366808	-0.477050781	0.841796875	-0.276123047	890.66	-20.46306949	-34.00461141	-100.2908242	-58
18763	0	0.205505371	-0.139221191	0.313720703	0.999998093	-0.00070858	7.24792E-05	0.001495361	5.137634277	-3.480529785	7.843017578	-0.035429017	0.003623964	0.074768101	-0.469970703	0.84375	-0.270996094	890.68	-20.65291291	-33.92314579	-100.107641	-58
18764	0	0.210330963	-0.127220154	0.302889824	0.999996185	0.001930237	-0.001444817	-0.000302315	5.258274078	-3.180503845	7.572245598	0.096511936	-0.072240901	-0.015115753	-0.467773438	0.845947266	-0.268310547	890.68	-20.45210323	-34.07667561	-100.0830207	-58
18765	0	0.223632813	-0.122131348	0.306884766	0.999994278	0.002625465	-0.001506805	-0.001033783	5.590820313	-3.053283691	7.672119141	0.131273494	-0.075340399	-0.051689236	-0.472167969	0.84375	-0.273681641	890.62	-20.11971875	-34.26633501	-100.1512778	-58
18766	0	0.228868484	-0.109869003	0.304397583	0.999997139	0.002096176	-0.000553131	-0.000776291	5.721712112	-2.746725082	7.609939575	0.1048089	-0.02765658	-0.038814579	-0.472167969	0.84375	-0.279541016	890.74	-19.84020341	-34.34355224	-100.2325457	-58
18767	0	0.230163574	-0.110961914	0.31262207	0.999999046	-3.8147E-06	5.81741E-05	-0.000484467	5.754089355	-2.774047852	7.815551758	-0.000190735	0.002908707	-0.024223329	-0.474365234	0.839355469	-0.276123047	890.74	-19.806051	-34.3437821	-100.3054053	-58
18768	0	0.227370262	-0.115139008	0.31032753	0.999999046	-0.001156807	0.000200272	-0.000432014	5.684256554	-2.878475189	7.758188248	-0.057840362	0.010013583	-0.021600729	-0.477050781	0.841796875	-0.276123047	890.68	-19.90412629	-34.32703001	-100.3780343	-58
18769	0	0.226196289	-0.122741699	0.306518555	0.999999046	-0.00038147	7.34329E-05	-0.000617981	5.654907227	-3.06854248	7.662963867	-0.019073488	0.003671646	-0.030899051	-0.474365234	0.839355469	-0.276123047	890.78	-19.90354926	-34.33157032	-100.468406	-58
18770	0	0.224953651	-0.117877007	0.307620049	0.999999046	0.001167297	-1.14441E-05	-0.000595093	5.623841286	-2.946925163	7.690501213	0.058364885	-0.000572205	-0.029754647	-0.479248047	0.839599609	-0.278808594	890.68	-19.72957366	-34.34452451	-100.5519914	-58
18771	0	0.226013184	-0.112304688	0.307312012	0.999998093	0.001420021	-3.05176E-05	-0.000629425	5.65032959	-2.807617188	7.682800293	0.071001081	-0.00152588	-0.031471265	-0.476806641	0.839355469	-0.279052734	890.68	-19.52444382	-34.36098536	-100.6390998	-58
18772	0	0.225805283	-0.110658646	0.308101654	0.999999046	0.001036644	0.000286102	-0.000229836	5.645132065	-2.766466141	7.702541351	0.05183221	0.014305118	-0.011491778	-0.479003906	0.834960938	-0.278564453	890.68	-19.38432032	-34.32809209	-100.689111	-58
18773	0	0.222717285	-0.113708496	0.307800293	0.999999046	0.000469208	0.000206947	-0.000167847	5.567932129	-2.842712402	7.695007324	0.023460389	0.010347367	-0.008392334	-0.479003906	0.834960938	-0.284423828	890.68	-19.31601228	-34.30150655	-100.7268985	-58
18774	0	0.222384453	-0.114871025	0.308426857	0.999999046	0.000644684	-9.72748E-05	-0.000232697	5.55961132	-2.871775627	7.710671425	0.032234194	-0.004863739	-0.011634828	-0.479003906	0.834960938	-0.284423828	890.72	-19.23086137	-34.31038092	-100.7591413	-58
18775	0	0.225830078	-0.114685059	0.309020996	0.999999046	0.000999451	-0.00033474	-0.000442505	5.645751953	-2.867126465	7.725524902	0.049972545	-0.016736988	-0.022125249	-0.479003906	0.832763672	-0.278320313	890.68	-19.0957853	-34.35306373	-100.8083334	-58
18776	0	0.22558403	-0.108436584	0.308842659	0.999999046	0.000971794	-0.000204086	-0.000458717	5.639600754	-2.710914612	7.721066475	0.048589716	-0.010204317	-0.022935872	-0.481201172	0.832763672	-0.286865234	890.66	-18.95908622	-34.38239707	-100.8654453	-58
18777	0	0.225463867	-0.108520508	0.307800293	0.999999046	0.000419617	-6.67572E-06	-0.00037384	5.63659668	-2.713012695	7.695007324	0.020980836	-0.000333786	-0.018692018	-0.481201172	0.832763672	-0.286865234	890.68	-18.88681273	-34.38739261	-100.9204301	-58
18778	0	0.226222038	-0.11016655	0.310757637	0.999999046	0.000267029	-0.000108719	-0.000320435	5.655550957	-2.754163742	7.768940926	0.013351441	-0.005435944	-0.016021729	-0.483398438	0.832763672	-0.289794922	890.68	-18.83856133	-34.40165707	-100.9638666	-58
18779	0	0.226074219	-0.109375	0.307739258	0.999999046	0.00038147	2.38419E-05	-0.000205994	5.651855469	-2.734375	7.693481445	0.019073487	0.001192093	-0.010299683	-0.483398438	0.832763672	-0.289794922	890.68	-18.78235766	-34.39758309	-100.9982219	-58
18780	0	0.225858688	-0.105018616	0.308683395	0.999999046	-2.00272E-05	0.000249863	-6.19888E-05	5.646467209	-2.625465393	7.717084885	-0.001001358	0.012493134	-0.003099442	-0.483398438	0.830566406	-0.289550781	890.68	-18.77693655	-34.36396098	-101.0239983	-58
18781	0	0.225158691	-0.108947754	0.309631348	0.999999046	-0.00043869	0.000309944	4.19617E-05	5.628967285	-2.723693848	7.740783691	-0.02193451	0.015497208	0.002098084	-0.483398438	0.830566406	-0.289550781	890.68	-18.8256884	-34.32020604	-101.0387985	-58
18782	0	0.22453022	-0.109848976	0.309185028	0.999999046	-0.00028801	0.000368118	0.000102997	5.613255501	-2.746224403	7.729625702	-0.014400483	0.018405915	0.005149842	-0.483398438	0.830566406	-0.292480469	890.72	-18.86025531	-34.26809525	-101.0480683	-58
18783	0	0.224731445	-0.110717773	0.309204102	0.999999046	-0.000301361	0.000344276	8.7738E-05	5.618286133	-2.767944336	7.730102539	-0.015068055	0.017213822	0.004386902	-0.483398438	0.830566406	-0.292480469	890.72	-18.89589351	-34.21935553	-101.0583281	-58
18784	0	0.224620819	-0.109540939	0.309658051	0.999999046	-0.000184059	0.000272751	0.000118256	5.615520477	-2.738523483	7.741451263	-0.009202957	0.013637543	0.005912781	-0.483398438	0.830566406	-0.292480469	890.62	-18.92211954	-34.17746118	-101.061464	-58
18785	0	0.225219727	-0.110107422	0.311584473	0.999999046	-0.000328064	0.000287056	0.000125885	5.630493164	-2.752685547	7.789611816	-0.016403199	0.014352799	0.006294251	-0.483398438	0.830566406	-0.283691406	890.68	-18.96500055	-34.13393051	-101.0648078	-58
18786	0	0.22422123	-0.111160278	0.309015274	0.999999046	-0.000276566	0.000200272	0.000174522	5.605530739	-2.779006958	7.725381851	-0.013828278	0.010013581	0.00872612	-0.481201172	0.832763672	-0.289794922	890.62	-19.00779539	-34.09821718	-101.0570782	-58
18787	0	0.22277832	-0.110595703	0.309448242	0.999999046	-6.86646E-05	6.96182E-05	0.000144958	5.569458008	-2.764892578	7.736206055	-0.003433228	0.003480911	0.007247925	-0.481201172	0.832763672	-0.286865234	890.72	-19.02788998	-34.077921	-101.0476462	-58
18788	0	0.225754738	-0.110216141	0.309463501	0.999999046	-0.00023365	3.43323E-05	0.000117302	5.643868446	-2.755403519	7.736587524	-0.011682511	0.001716614	0.005865097	-0.480957031	0.830566406	-0.289550781	890.74	-19.06572568	-34.06277131	-101.0401732	-58
18789	0	0.225524902	-0.111022949	0.312438965	0.999999046	-0.000320435	0.000248909	2.28882E-05	5.638122559	-2.77557373	7.810974121	-0.016021729	0.01244545	0.001144409	-0.480957031	0.830566406	-0.286621094	890.74	-19.10110942	-34.02811309	-101.0549977	-58
18790	0	0.221215248	-0.112391472	0.309668541	0.999999046	-5.14984E-05	-1.33514E-05	0.000121117	5.530381203	-2.809786797	7.741713524	-0.002574921	-0.000667572	0.006055832	-0.480957031	0.830566406	-0.286621094	890.62	-19.11957178	-34.01825388	-101.0450666	-58
18791	0	0.22277832	-0.112243652	0.309936523	0.999999046	3.05176E-05	-0.000224113	-0.00012207	5.569458008	-2.806091309	7.748413086	0.001525879	-0.011205673	-0.006103516	-0.483398438	0.830566406	-0.289550781	890.72	-19.11625205	-34.04048192	-101.0573268	-58
18792	0	0.22508049	-0.112353325	0.309352875	0.999999046	7.15256E-05	-0.00012207	-9.25064E-05	5.627012253	-2.808833122	7.733821869	0.003576279	-0.006103516	-0.00462532	-0.483398438	0.830566406	-0.283691406	890.68	-19.10787462	-34.0507937	-101.0706491	-58
18793	0	0.224182129	-0.11126709	0.309997559	0.999999046	7.24792E-05	0.000153542	-0.000171661	5.604553223	-2.781677246	7.749938965	0.003623962	0.007677078	-0.008583069	-0.483398438	0.830566406	-0.289550781	890.62	-19.08661535	-34.03441446	-101.1062275	-58
18794	0	0.223697662	-0.110779762	0.310203552	0.999999046	-0.000133514	0.00015831	-0.000172615	5.592441559	-2.769494057	7.755088806	-0.00667572	0.007915497	-0.008630753	-0.478759766	0.832763672	-0.287109375	890.62	-19.088761	-34.0177194	-101.1416256	-58
18795	0	0.223754883	-0.112731934	0.310852051	0.999999046	0.000106812	-2.95639E-05	1.52588E-05	5.59387207	-2.81829834	7.77130127	0.005340576	-0.001478195	0.000762939	-0.481201172	0.830566406	-0.283935547	890.68	-19.08192842	-34.01446436	-101.1448111	-58
18796	0	0.222732544	-0.109010696	0.310373306	0.999999046	0.00014782	-4.95911E-05	4.1008E-05	5.568313599	-2.72526741	7.759332657	0.007390976	-0.002479553	0.0020504	-0.483398438	0.830566406	-0.286621094	890.66	-19.07265057	-34.01254834	-101.1438486	-58
18797	0	0.223571777	-0.11114502	0.309814453	0.999999046	-8.39233E-05	-5.62668E-05	7.62939E-05	5.589294434	-2.778625488	7.745361328	-0.004196167	-0.002813339	0.003814697	-0.483398438	0.830566406	-0.286621094	890.74	-19.09268388	-34.01019667	-101.1379041	-58
18798	0	0.224444389	-0.110987663	0.310013771	0.999999046	0.000108719	4.00543E-05	-0.000119209	5.611109734	-2.774691582	7.750344276	0.005435944	0.002002716	-0.005960465	-0.483398438	0.830566406	-0.286621094	890.68	-19.07391051	-34.00493258	-101.1617936	-58
18799	0	0.224365234	-0.110412598	0.31036377	0.999999046	-0.000118256	0.000107765	-8.7738E-05	5.609130859	-2.760314941	7.759094238	-0.005912781	0.00538826	-0.004386902	-0.483398438	0.828369141	-0.289306641	890.74	-19.08169577	-33.99133971	-101.1845063	-58
18800	0	0.224744797	-0.110263824	0.311178207	0.999999046	-0.0001688	0.000307083	-0.00012207	5.618619919	-2.756595612	7.779455185	-0.008440018	0.015354157	-0.006103516	-0.483398438	0.830566406	-0.289550781	890.72	-19.08767554	-33.95763234	-101.2205958	-58
18801	0	0.223815918	-0.110473633	0.310913086	0.999999046	-0.000411987	0.000332832	-0.000141144	5.595397949	-2.76184082	7.772827148	-0.020599366	0.016641618	-0.00705719	-0.483398438	0.830566406	-0.289550781	890.68	-19.11944955	-33.92201845	-101.2603838	-58
18802	0	0.223274231	-0.111276627	0.310236931	0.999999046	-0.000421524	0.000486374	-6.48499E-05	5.581855774	-2.781915665	7.755923271	-0.021076204	0.024318697	-0.003242493	-0.480957031	0.830566406	-0.286621094	890.68	-19.15401336	-33.86708924	-101.2971194	-59
18803	0	0.221557617	-0.111877441	0.3125	0.999999046	-0.000366211	0.000306129	-1.14441E-05	5.53894043	-2.796936035	7.8125	-0.018310548	0.015306473	-0.000572205	-0.485839844	0.828613281	-0.283447266	890.72	-19.19065059	-33.82970562	-101.320029	-59
18804	0	0.221247673	-0.111001968	0.310600281	0.999999046	-0.000206947	-4.00543E-05	5.62668E-05	5.531191826	-2.77504921	7.765007019	-0.010347366	-0.002002716	0.002813339	-0.480957031	0.830566406	-0.289550781	890.68	-19.22264067	-33.82732891	-101.3167055	-58
18805	0	0.223510742	-0.11114502	0.310668945	0.999999046	-0.000179291	3.14713E-05	1.14441E-05	5.587768555	-2.778625488	7.766723633	-0.008964539	0.001573563	0.000572205	-0.481201172	0.832763672	-0.283935547	890.62	-19.2463464	-33.81907889	-101.3230871	-59
18806	0	0.223793983	-0.111689568	0.311862946	0.999999046	-0.000165939	6.29425E-05	0.00019455	5.594849586	-2.792239189	7.796573639	-0.008296967	0.003147125	0.009727478	-0.483642578	0.833007813	-0.283935547	890.68	-19.28093446	-33.80065175	-101.3075864	-58
18807	0	0.220947266	-0.112060547	0.311157227	0.999999046	-3.43323E-05	-7.9155E-05	3.8147E-05	5.523681641	-2.801513672	7.778930664	-0.001716614	-0.003957748	0.001907349	-0.481201172	0.832763672	-0.286865234	890.74	-19.29268069	-33.80355313	-101.3052213	-58
18808	0	0.222167969	-0.112426758	0.310791016	0.999999046	-8.67844E-05	-0.000102997	2.28882E-05	5.554199219	-2.810668945	7.769775391	-0.004339218	-0.005149841	0.001144409	-0.481201172	0.832763672	-0.283935547	890.68	-19.30993313	-33.80971034	-101.3041243	-58
18809	0	0.223222733	-0.112811089	0.309049606	0.999998093	8.58307E-06	-5.14984E-05	-1.62125E-05	5.580568314	-2.820277214	7.726240158	0.000429153	-0.002574921	-0.000810623	-0.483398438	0.830566406	-0.283691406	890.66	-19.31216617	-33.81196282	-101.3110105	-59
18810	0	0.223402977	-0.110990524	0.310477257	0.999999046	-0.000171661	0.000205994	3.05176E-05	5.585074425	-2.774763107	7.761931419	-0.008583069	0.010299683	0.001525879	-0.486083984	0.833007813	-0.283691406	890.66	-19.33181418	-33.78476472	-101.3238431	-58
18811	0	0.22277832	-0.111450195	0.310241699	0.999999046	-0.000328064	0.000126839	0.000156403	5.569458008	-2.786254883	7.75604248	-0.016403199	0.006341934	0.00782013	-0.483642578	0.830566406	-0.280761719	890.74	-19.38043134	-33.76149588	-101.316669	-58
18812	0	0.222419739	-0.11361599	0.30991745	0.999999046	-0.000231743	0.00021553	0.000171661	5.560493469	-2.840399742	7.747936249	-0.011587143	0.01077652	0.008583069	-0.481201172	0.832763672	-0.283935547	890.74	-19.41689716	-33.72818	-101.3105248	-59
18813	0	0.221740723	-0.11340332	0.309997559	0.999999046	-0.000225067	0.000157356	8.7738E-05	5.543518066	-2.835083008	7.749938965	-0.011253357	0.007867813	0.004386902	-0.481201172	0.832763672	-0.286865234	890.74	-19.44803601	-33.70445072	-101.3124138	-59
18814	0	0.220768929	-0.111995697	0.311480522	0.999999046	-0.000169754	1.14441E-05	6.00815E-05	5.519223213	-2.799892426	7.787013054	-0.008487701	0.000572205	0.003004074	-0.481201172	0.832763672	-0.286865234	890.66	-19.47445462	-33.69758403	-101.3113877	-58
18815	0	0.222106934	-0.113098145	0.31036377	0.999999046	-0.000221252	-7.53403E-05	5.34058E-05	5.55267334	-2.827453613	7.759094238	-0.011062622	-0.003767014	0.002670288	-0.481201172	0.832763672	-0.286865234	890.72	-19.50848679	-33.70046549	-101.3073227	-58
18816	0	0.221469879	-0.113015175	0.310768127	0.999999046	-2.19345E-05	-0.000104904	9.82285E-05	5.536746979	-2.825379372	7.769203186	-0.001096725	-0.005245209	0.004911423	-0.481201172	0.832763672	-0.283935547	890.74	-19.52362146	-33.7048984	-101.2965353	-59
18817	0	0.221801758	-0.113464355	0.310852051	0.999999046	-7.62939E-06	-8.29697E-05	-8.01086E-05	5.545043945	-2.836608887	7.77130127	-0.00038147	-0.004148483	-0.004005432	-0.483642578	0.835205078	-0.28125	890.68	-19.5236861	-33.71386999	-101.3104783	-58
18818	0	0.221993446	-0.112030029	0.311667442	0.999999046	-0.000139236	4.3869E-05	4.95911E-05	5.549836159	-2.800750732	7.791686058	-0.006961823	0.002193451	0.002479553	-0.481201172	0.832763672	-0.283935547	890.68	-19.54481487	-33.7042525	-101.3127551	-58
18819	0	0.222167969	-0.114318848	0.310668945	0.999999046	-0.000160217	-3.71933E-05	0.000125885	5.554199219	-2.857971191	7.766723633	-0.008010864	-0.001859665	0.006294251	-0.481201172	0.832763672	-0.281005859	890.72	-19.57594171	-33.70055041	-101.3017874	-58
18820	0	0.2221632	-0.113010406	0.31098175	0.999999046	-0.000105858	0.000139236	7.24792E-05	5.554080009	-2.825260162	7.774543762	-0.005292892	0.006961823	0.003623962	-0.481201172	0.832763672	-0.283935547	890.72	-19.59240764	-33.67994021	-101.3055706	-58
18821	0	0.221679688	-0.114074707	0.310546875	0.999999046	-6.86646E-05	0.000130653	0.000110626	5.541992188	-2.851867676	7.763671875	-0.003433228	0.006532669	0.005531311	-0.481201172	0.832763672	-0.283935547	890.56	-19.60757264	-33.65886865	-101.3041061	-58
18822	0	0.221390724	-0.112823486	0.309794426	0.999999046	-4.57764E-05	0.000196457	0.000156403	5.534768105	-2.820587158	7.744860649	-0.002288818	0.009822846	0.007820129	-0.483642578	0.832763672	-0.286865234	890.68	-19.62165236	-33.62903466	-101.3000892	-59
18823	0	0.223144531	-0.112060547	0.310668945	0.999999046	-0.000255585	0.000245094	6.48499E-05	5.578613281	-2.801513672	7.766723633	-0.012779236	0.012254715	0.003242493	-0.481201172	0.832763672	-0.281005859	890.62	-19.65182348	-33.59764494	-101.3104733	-59
18824	0	0.221694946	-0.114690781	0.311756134	0.999999046	-0.000145912	0.000253677	9.53674E-05	5.542373657	-2.867269516	7.793903351	-0.007295609	0.012683869	0.004768372	-0.481201172	0.832763672	-0.283935547	890.72	-19.67138639	-33.56421804	-101.3169312	-58
18825	0	0.219299316	-0.112854004	0.31237793	0.999999046	-7.62939E-06	0.000103951	7.62939E-05	5.48248291	-2.821350098	7.809448242	-0.00038147	0.005197525	0.003814697	-0.481201172	0.834960938	-0.284179688	890.68	-19.67743719	-33.54765345	-101.3188007	-58
18826	0	0.219888687	-0.115029335	0.310833931	0.999999046	-0.000185013	-0.000179291	-9.53674E-07	5.497217178	-2.875733376	7.770848274	-0.009250641	-0.008964539	-4.76837E-05	-0.481445313	0.835205078	-0.28125	890.68	-19.70556557	-33.56465208	-101.3179118	-59
18827	0	0.221496582	-0.113952637	0.309875488	0.999999046	0.000179291	-0.000136375	2.67029E-05	5.537414551	-2.848815918	7.746887207	0.008964539	-0.006818771	0.001335144	-0.481201172	0.834960938	-0.287109375	890.66	-19.6928041	-33.57607203	-101.3145323	-59
18828	0	0.221636772	-0.112571716	0.311319351	0.999999046	6.19888E-05	0	0.000159264	5.540919304	-2.814292908	7.78298378	0.003099442	0	0.007963181	-0.483642578	0.835205078	-0.28125	890.68	-19.69935179	-33.56774721	-101.3020252	-58
18829	0	0.221008301	-0.114074707	0.310913086	0.999999046	-0.000137329	-9.82285E-05	0.000198364	5.52520752	-2.851867676	7.772827148	-0.006866455	-0.004911423	0.009918213	-0.481201172	0.832763672	-0.286865234	890.62	-19.73402169	-33.56856614	-101.2786025	-58
18830	0	0.221207619	-0.113454819	0.311203957	0.999999046	-1.33514E-05	-0.000139236	0.000197411	5.530190468	-2.836370468	7.780098915	-0.000667572	-0.006961823	0.009870529	-0.481201172	0.832763672	-0.283935547	890.62	-19.75538586	-33.57390032	-101.2539889	-59
18831	0	0.221069336	-0.114440918	0.311279297	0.999999046	-7.24792E-05	1.62125E-05	0.000102997	5.526733398	-2.861022949	7.781982422	-0.003623962	0.000810623	0.005149841	-0.479003906	0.834960938	-0.284423828	890.72	-19.77273454	-33.56616861	-101.24793	-58
18832	0	0.220547676	-0.113188744	0.309620857	0.999999046	-0.000126839	-0.000204086	0.000185966	5.513691902	-2.82971859	7.740521431	-0.006341934	-0.010204315	0.009298325	-0.481445313	0.835205078	-0.28125	890.66	-19.80784255	-33.57904824	-101.2221779	-58
18833	0	0.221252441	-0.114257813	0.311889648	0.999999046	-8.39233E-05	-0.000155449	0.000175476	5.531311035	-2.856445313	7.797241211	-0.004196167	-0.007772446	0.008773804	-0.481445313	0.835205078	-0.28125	890.62	-19.83596254	-33.58711337	-101.2000238	-58
18834	0	0.221369743	-0.114021301	0.30911541	0.999999046	-8.39233E-05	-8.58307E-05	0.000217438	5.534243584	-2.850532532	7.727885246	-0.004196167	-0.004291534	0.010871887	-0.479003906	0.832763672	-0.278320313	890.72	-19.86525258	-33.586143	-101.1757631	-58
18835	0	0.222351074	-0.114074707	0.311096191	0.999999046	-7.24792E-05	-2.57492E-05	0.000160217	5.558776855	-2.851867676	7.777404785	-0.003623962	-0.00128746	0.008010864	-0.481445313	0.835205078	-0.28125	890.62	-19.88749428	-33.58101468	-101.1616921	-58
18836	0	0.221475601	-0.114191055	0.310640335	0.999999046	-3.33786E-05	3.62396E-05	0.00025177	5.53689003	-2.854776382	7.766008377	-0.00166893	0.001811981	0.012588501	-0.479003906	0.834960938	-0.278564453	890.58	-19.91011791	-33.5657013	-101.1385575	-58
18837	0	0.223083496	-0.114013672	0.312011719	0.999999046	4.19617E-05	2.00272E-05	0.000202179	5.577087402	-2.850341797	7.800292969	0.002098084	0.001001358	0.010108948	-0.481201172	0.834960938	-0.284179688	890.66	-19.92085339	-33.5541714	-101.1209459	-58
18838	0	0.220399857	-0.114443779	0.310991287	0.999999046	-0.000164032	8.7738E-05	0.000243187	5.509996414	-2.861094475	7.774782181	-0.008201599	0.004386902	0.012159348	-0.479003906	0.834960938	-0.281494141	890.66	-19.95628442	-33.53375607	-101.1011585	-58
18839	0	0.22064209	-0.115478516	0.310119629	0.999999046	-0.000183105	-6.00815E-05	0.000228882	5.516052246	-2.886962891	7.752990723	-0.009155274	-0.003004074	0.011444092	-0.478759766	0.834960938	-0.287109375	890.66	-19.99669202	-33.52985882	-101.0752827	-58
18840	0	0.220870972	-0.115510941	0.311148643	0.999999046	8.10623E-05	-4.3869E-05	0.000197411	5.521774292	-2.887773514	7.778716087	0.004053116	-0.002193451	0.009870529	-0.479003906	0.834960938	-0.281494141	890.66	-20.00411884	-33.52546779	-101.0556034	-58
18841	0	0.220947266	-0.116088867	0.310852051	0.999999046	3.43323E-05	-0.000132561	0.000144958	5.523681641	-2.90222168	7.77130127	0.001716614	-0.006628037	0.007247925	-0.4765625	0.837158203	-0.281738281	890.68	-20.01545759	-33.53271734	-101.0373756	-58
18842	0	0.219959259	-0.114056587	0.30982399	0.999999046	2.28882E-05	-6.86646E-05	0.000170708	5.498981476	-2.85141468	7.745599747	0.001144409	-0.003433228	0.008535385	-0.479003906	0.834960938	-0.281494141	890.72	-20.02818507	-33.53210886	-101.0202254	-58
18843	0	0.220153809	-0.11529541	0.31036377	0.999999046	-0.000106812	-0.000105858	9.53674E-05	5.503845215	-2.882385254	7.759094238	-0.005340576	-0.005292892	0.004768372	-0.479003906	0.834960938	-0.281494141	890.78	-20.05132371	-33.53847693	-101.0109916	-58
18844	0	0.223493576	-0.116381645	0.310107231	0.999999046	0.000126839	8.2016E-05	8.29697E-05	5.587339401	-2.90954113	7.752680779	0.006341934	0.0041008	0.004148483	-0.479003906	0.839355469	-0.284667969	890.68	-20.04192718	-33.52526312	-101.0110175	-58
18845	0	0.22052002	-0.11517334	0.312744141	0.999999046	0.000102997	0.000138283	0.000144958	5.513000488	-2.879333496	7.818603516	0.005149841	0.006914139	0.007247925	-0.479003906	0.837158203	-0.278564453	890.66	-20.03811738	-33.50352498	-101.0075073	-58
18846	0	0.219241142	-0.11529541	0.312034607	0.999999046	-2.09808E-05	-0.000183105	3.8147E-06	5.481028557	-2.882385254	7.800865173	-0.001049042	-0.009155273	0.000190735	-0.479003906	0.834960938	-0.278564453	890.74	-20.0467307	-33.52186956	-101.0072292	-59
18847	0	0.221069336	-0.116882324	0.310119629	0.999999046	0.000137329	-0.000212669	-0.000167847	5.526733398	-2.922058105	7.752990723	0.006866455	-0.010633469	-0.008392334	-0.479003906	0.837158203	-0.284423828	890.68	-20.02577083	-33.55019032	-101.0258498	-58
18848	0	0.22380352	-0.115502357	0.309200287	0.999999046	0.000296593	7.24792E-05	-1.23978E-05	5.595088005	-2.887558937	7.730007172	0.014829636	0.003623962	-0.000619888	-0.479003906	0.834960938	-0.281494141	890.72	-19.99023127	-33.54189674	-101.0389111	-58
18849	0	0.221313477	-0.112854004	0.313293457	0.999999046	-3.05176E-05	0.000203133	4.19617E-05	5.532836914	-2.821350098	7.832336426	-0.001525879	0.010156632	0.002098084	-0.479003906	0.834960938	-0.284423828	890.68	-19.99243928	-33.51740361	-101.0506241	-58
18850	0	0.220322609	-0.116004944	0.311177254	0.999999046	-0.000123978	8.7738E-05	4.86374E-05	5.508065224	-2.900123596	7.779431343	-0.006198883	0.004386902	0.00243187	-0.478759766	0.834960938	-0.287109375	890.68	-20.00883088	-33.50507247	-101.0554067	-59
18851	0	0.220336914	-0.116638184	0.311767578	0.999999046	0.000175476	-0.000159264	2.67029E-05	5.508422852	-2.91595459	7.794189453	0.008773804	-0.007963181	0.001335144	-0.479003906	0.834960938	-0.284423828	890.58	-19.99577632	-33.5201748	-101.0521414	-58
18852	0	0.219331741	-0.114404678	0.311676025	0.999999046	0.00024128	-2.47955E-05	2.95639E-05	5.483293533	-2.860116959	7.791900635	0.01206398	-0.001239777	0.001478195	-0.479003906	0.834960938	-0.281494141	890.74	-19.97179391	-33.52063653	-101.0555975	-58
18853	0	0.220153809	-0.114379883	0.310852051	0.999999046	7.62939E-06	-0.000109673	-0.000125885	5.503845215	-2.85949707	7.77130127	0.00038147	-0.005483627	-0.006294251	-0.478759766	0.832763672	-0.28125	890.66	-19.96561807	-33.53633457	-101.0752641	-58
18854	0	0.221410751	-0.115174294	0.310804367	0.999999046	6.10352E-05	-0.000141144	-1.62125E-05	5.535268784	-2.879357338	7.770109177	0.003051758	-0.00705719	-0.000810623	-0.479003906	0.834960938	-0.278564453	890.66	-19.96193931	-33.55118373	-101.0794952	-58
18855	0	0.221984863	-0.114562988	0.310852051	0.999999046	0.000152588	-0.000117302	-0.000110626	5.549621582	-2.864074707	7.77130127	0.007629395	-0.005865097	-0.005531311	-0.479003906	0.834960938	-0.284423828	890.68	-19.94033995	-33.56723408	-101.0954681	-59
18856	0	0.222266197	-0.113564491	0.311566353	0.999999046	4.673E-05	-2.28882E-05	4.48227E-05	5.55665493	-2.839112282	7.789158821	0.002336502	-0.001144409	0.002241135	-0.479003906	0.837158203	-0.284423828	890.68	-19.93940714	-33.56710746	-101.0955273	-58
18857	0	0.221557617	-0.114624023	0.310974121	0.999999046	-0.000106812	0.000130653	5.72205E-05	5.53894043	-2.865600586	7.774353027	-0.005340576	0.006532669	0.002861023	-0.479003906	0.834960938	-0.284423828	890.68	-19.95292994	-33.55000121	-101.101734	-59
18858	0	0.220852852	-0.11459446	0.310396194	0.999999046	-7.43866E-05	-2.09808E-05	7.53403E-05	5.521321297	-2.864861488	7.759904861	-0.00371933	-0.001049042	0.003767014	-0.481445313	0.835205078	-0.28125	890.72	-19.96792919	-33.54855264	-101.1003824	-58
18859	0	0.220825195	-0.114929199	0.311218262	0.999999046	-6.86646E-05	-2.57492E-05	1.90735E-05	5.520629883	-2.87322998	7.780456543	-0.003433228	-0.00128746	0.000953674	-0.479003906	0.834960938	-0.284423828	890.68	-19.97833362	-33.54983099	-101.1040538	-59
18860	0	0.221385956	-0.115530014	0.311861038	0.999999046	6.19888E-05	0.000104904	0.000114441	5.534648895	-2.888250351	7.796525955	0.003099442	0.005245209	0.005722046	-0.481201172	0.834960938	-0.284179688	890.66	-19.97716607	-33.53331196	-101.1028218	-58
18861	0	0.220458984	-0.113464355	0.310302734	0.999999046	0.000160217	0.000130653	5.34058E-05	5.511474609	-2.836608887	7.757568359	0.008010864	0.006532669	0.002670288	-0.479003906	0.837158203	-0.281494141	890.66	-19.95961264	-33.51644476	-101.1100716	-58
18862	0	0.220426559	-0.114975929	0.311311722	0.999999046	-0.000192642	6.86646E-05	0.000166893	5.510663986	-2.874398232	7.782793045	-0.009632111	0.003433228	0.00834465	-0.476318359	0.832763672	-0.284179688	890.68	-19.99216052	-33.50181152	-101.0987183	-58
18863	0	0.220947266	-0.11529541	0.309692383	0.999999046	9.15527E-05	-7.9155E-05	0.000205994	5.523681641	-2.882385254	7.74230957	0.004577637	-0.003957748	0.010299683	-0.479003906	0.837158203	-0.287353516	890.62	-19.99876778	-33.50162626	-101.0751974	-58
18864	0	0.222780228	-0.114048958	0.310653687	0.999999046	-5.62668E-05	9.15527E-05	0.000155449	5.569505692	-2.851223946	7.766342163	-0.002813339	0.004577637	0.007772446	-0.479003906	0.837158203	-0.278564453	890.68	-20.01420132	-33.48516213	-101.0689126	-58
18865	0	0.219543457	-0.115844727	0.311523438	0.999999046	-0.0001297	0.000126839	0.000118256	5.488586426	-2.896118164	7.788085938	-0.006484985	0.006341934	0.005912781	-0.478759766	0.834960938	-0.287109375	890.66	-20.03447292	-33.46631223	-101.0670442	-58
18866	0	0.218277931	-0.115427971	0.311426163	0.999999046	1.33514E-05	-9.34601E-05	7.15256E-05	5.45694828	-2.885699272	7.785654068	0.000667572	-0.004673004	0.003576279	-0.479003906	0.834960938	-0.284423828	890.68	-20.04071186	-33.47292529	-101.0617642	-59
18867	0	0.222229004	-0.116210938	0.308837891	0.999999046	0.000133514	-0.000102043	-9.15527E-05	5.555725098	-2.905273438	7.720947266	0.00667572	-0.005102158	-0.004577637	-0.479003906	0.834960938	-0.284423828	890.68	-20.02185865	-33.48700708	-101.0769208	-59
18868	0	0.222679138	-0.112792015	0.310652733	0.999999046	0.000224113	0.000133514	2.86102E-06	5.566978455	-2.819800377	7.766318321	0.011205673	0.00667572	0.000143051	-0.479003906	0.834960938	-0.284423828	890.66	-19.99307175	-33.47215597	-101.0911582	-58
18869	0	0.221191406	-0.11340332	0.312011719	0.999999046	-0.000320435	0.0001688	0.000133514	5.529785156	-2.835083008	7.800292969	-0.016021729	0.008440018	0.00667572	-0.479003906	0.834960938	-0.284423828	890.68	-20.03493021	-33.44841764	-101.0903237	-58
18870	0	0.219895363	-0.115736961	0.311461449	0.999999046	-0.000104904	0.000154495	0.000141144	5.497384071	-2.893424034	7.786536217	-0.005245209	0.007724762	0.00705719	-0.479003906	0.837158203	-0.284423828	890.72	-20.05298657	-33.42589916	-101.0875133	-59
18871	0	0.221008301	-0.116455078	0.312927246	0.999999046	4.19617E-05	-7.15256E-05	9.15527E-05	5.52520752	-2.911376953	7.823181152	0.002098084	-0.003576279	0.004577637	-0.479003906	0.834960938	-0.284423828	890.72	-20.05654709	-33.42964699	-101.0809667	-59
18872	0	0.22017765	-0.115309715	0.312110901	0.999999046	0.000189781	-7.82013E-05	-8.58307E-06	5.504441261	-2.882742882	7.802772522	0.00948906	-0.003910065	-0.000429153	-0.4765625	0.834960938	-0.284423828	890.66	-20.03616913	-33.43803394	-101.0856411	-58
18873	0	0.219360352	-0.114074707	0.311218262	0.999999046	6.10352E-05	-0.000121117	-1.14441E-05	5.484008789	-2.851867676	7.780456543	0.003051758	-0.006055832	-0.000572205	-0.479003906	0.834960938	-0.281494141	890.68	-20.03135961	-33.45113233	-101.0909236	-58
18874	0	0.219743729	-0.116045952	0.311361313	0.999999046	-6.48499E-05	-5.34058E-05	0.000106812	5.493593216	-2.901148796	7.784032822	-0.003242493	-0.002670288	0.005340576	-0.479003906	0.834960938	-0.281494141	890.68	-20.04764771	-33.4522709	-101.084044	-58
18875	0	0.22076416	-0.115356445	0.311340332	0.999999046	0.00025177	-2.57492E-05	-7.24792E-05	5.519104004	-2.883911133	7.783508301	0.012588501	-0.00128746	-0.003623962	-0.479003906	0.834960938	-0.284423828	890.66	-20.01415276	-33.45749512	-101.1005427	-59
18876	0	0.22061348	-0.113824844	0.312239647	1	2.09808E-05	-2.38419E-05	-3.43323E-05	5.51533699	-2.845621109	7.805991173	0.001049042	-0.001192093	-0.001716614	-0.479003906	0.834960938	-0.281494141	890.72	-20.00964655	-33.4610181	-101.1131042	-58
18877	0	0.220703125	-0.114318848	0.311096191	0.999999046	-7.24792E-05	-0.000151634	3.05176E-05	5.517578125	-2.857971191	7.777404785	-0.003623962	-0.007581711	0.001525879	-0.481201172	0.834960938	-0.284179688	890.56	-20.02371337	-33.47579143	-101.1115213	-58
18878	0	0.220607758	-0.115537643	0.311133385	1	1.81198E-05	-1.04904E-05	-7.72476E-05	5.515193939	-2.888441086	7.778334618	0.000905991	-0.000524521	-0.003862381	-0.481201172	0.834960938	-0.284179688	890.68	-20.01606493	-33.47960721	-101.1302534	-58
18879	0	0.221069336	-0.114135742	0.311035156	0.999999046	-4.57764E-05	-3.33786E-05	-0.000228882	5.526733398	-2.853393555	7.775878906	-0.002288818	-0.00166893	-0.011444092	-0.479003906	0.834960938	-0.281494141	890.66	-20.00545056	-33.49187832	-101.1666445	-58
18880	0	0.220959663	-0.114246368	0.310887337	0.999999046	-5.24521E-05	-6.67572E-05	-9.53674E-07	5.523991585	-2.85615921	7.772183418	-0.002622604	-0.00333786	-4.76837E-05	-0.478759766	0.832763672	-0.28125	890.68	-20.0126419	-33.49884386	-101.1724122	-58
18881	0	0.221008301	-0.114074707	0.310424805	0.999999046	-8.01086E-05	-2.19345E-05	4.57764E-05	5.52520752	-2.851867676	7.760620117	-0.004005432	-0.001096725	0.002288818	-0.481201172	0.834960938	-0.284179688	890.68	-20.02510799	-33.49920168	-101.1741482	-58
18882	0	0.221072197	-0.115243912	0.310944557	0.999999046	-0.000114441	4.00543E-05	8.39233E-05	5.526804924	-2.881097794	7.77361393	-0.005722046	0.002002716	0.004196167	-0.481201172	0.834960938	-0.284179688	890.66	-20.04260881	-33.49141546	-101.1738783	-58
18883	0	0.221191406	-0.114807129	0.3125	0.999999046	-3.8147E-06	9.53674E-07	6.48499E-05	5.529785156	-2.870178223	7.8125	-0.000190735	4.76837E-05	0.003242493	-0.481201172	0.832763672	-0.281005859	890.62	-20.04702287	-33.48858208	-101.1759973	-58
18884	0	0.220809937	-0.113862038	0.309996605	0.999999046	-6.96182E-05	-5.72205E-05	0.000132561	5.520248413	-2.846550941	7.749915123	-0.003480911	-0.002861023	0.006628037	-0.481201172	0.832763672	-0.281005859	890.72	-20.06523946	-33.48940664	-101.1665984	-59
18885	0	0.220947266	-0.11517334	0.310668945	0.999999046	1.90735E-05	0.000149727	3.43323E-05	5.523681641	-2.879333496	7.766723633	0.000953674	0.007486343	0.001716614	-0.479003906	0.834960938	-0.284423828	890.72	-20.0608933	-33.47185052	-101.176255	-58
18886	0	0.222249985	-0.115604401	0.311104774	0.999999046	-0.000169754	8.7738E-05	0.00014782	5.556249619	-2.890110016	7.777619362	-0.008487701	0.004386902	0.007390976	-0.481445313	0.837402344	-0.284423828	890.68	-20.08787703	-33.45657895	-101.1695275	-58
18887	0	0.21887207	-0.114379883	0.311523438	0.999999046	-1.14441E-05	4.673E-05	0.000102997	5.471801758	-2.85949707	7.788085938	-0.000572205	0.002336502	0.005149841	-0.479003906	0.834960938	-0.281494141	890.68	-20.09450872	-33.44741895	-101.1669223	-58
18888	0	0.219307899	-0.115103722	0.310503006	0.999999046	-3.91006E-05	-9.15527E-05	4.86374E-05	5.482697487	-2.87759304	7.76257515	-0.001955032	-0.004577637	0.00243187	-0.481201172	0.834960938	-0.287109375	890.68	-20.10401634	-33.45526039	-101.1640559	-58
18889	0	0.221313477	-0.115966797	0.309570313	0.999999046	0.000156403	-7.15256E-05	-6.10352E-05	5.532836914	-2.899169922	7.739257813	0.007820129	-0.003576279	-0.003051758	-0.481445313	0.835205078	-0.28125	890.66	-20.08284806	-33.46534059	-101.1785807	-58
18890	0	0.221615791	-0.111997604	0.310732841	0.999999046	0.000253677	6.10352E-05	3.33786E-05	5.540394783	-2.799940109	7.768321037	0.012683869	0.003051758	0.00166893	-0.481445313	0.835205078	-0.28125	890.72	-20.0535977	-33.45752876	-101.1873462	-58
18891	0	0.220581055	-0.112976074	0.312438965	0.999999046	-0.00018692	-1.43051E-05	0.000144958	5.514526367	-2.824401855	7.810974121	-0.009346008	-0.000715256	0.007247925	-0.478759766	0.832763672	-0.284179688	890.68	-20.08455698	-33.4534365	-101.1757364	-58
18892	0	0.221349716	-0.11608696	0.312205315	0.999999046	-7.53403E-05	3.62396E-05	0.00018692	5.533742905	-2.902173996	7.805132866	-0.003767014	0.001811981	0.009346008	-0.481201172	0.832763672	-0.278076172	890.68	-20.10441723	-33.44224952	-101.1656967	-58
18893	0	0.220153809	-0.115783691	0.311096191	0.999999046	0.000213623	-9.44138E-05	-7.62939E-06	5.503845215	-2.894592285	7.777404785	0.010681152	-0.004720688	-0.00038147	-0.479003906	0.834960938	-0.281494141	890.68	-20.08073093	-33.45277714	-101.1705403	-59
18894	0	0.220214844	-0.113755226	0.312139511	0.999999046	-5.72205E-06	-0.000154495	-0.000125885	5.505371094	-2.843880653	7.803487778	-0.000286102	-0.007724762	-0.006294251	-0.478759766	0.832763672	-0.28125	890.66	-20.07520442	-33.47440387	-101.1880548	-58
18895	0	0.22052002	-0.114440918	0.309204102	0.999999046	3.8147E-06	-6.77109E-05	-5.34058E-05	5.513000488	-2.861022949	7.730102539	0.000190735	-0.003385544	-0.002670288	-0.481201172	0.832763672	-0.283935547	890.72	-20.07146538	-33.48389705	-101.2008254	-58
18896	0	0.219292641	-0.11313343	0.310090065	0.999999046	0.000100136	6.48499E-05	5.24521E-05	5.482316017	-2.828335762	7.752251625	0.00500679	0.003242493	0.002622604	-0.481201172	0.832763672	-0.283935547	890.68	-20.06066906	-33.47494941	-101.2063177	-58
18897	0	0.220825195	-0.113952637	0.310791016	0.999999046	-6.86646E-05	0.000134468	-3.8147E-06	5.520629883	-2.848815918	7.769775391	-0.003433228	0.006723404	-0.000190735	-0.481201172	0.834960938	-0.284179688	890.78	-20.06333363	-33.4607539	-101.2215043	-58
18898	0	0.219643593	-0.113811493	0.311444283	0.999999046	5.53131E-05	9.34601E-05	8.01086E-05	5.491089821	-2.845287323	7.786107063	0.002765656	0.004673004	0.004005432	-0.481201172	0.832763672	-0.281005859	890.66	-20.05874605	-33.44764216	-101.2263038	-59
18899	0	0.219482422	-0.114379883	0.312744141	0.999999046	8.01086E-05	-2.19345E-05	5.34058E-05	5.487060547	-2.85949707	7.818603516	0.004005432	-0.001096725	0.002670288	-0.479003906	0.834960938	-0.284423828	890.66	-20.05232479	-33.44793449	-101.2249479	-58
18900	0	0.219240189	-0.113560677	0.310554504	0.999999046	2.19345E-05	-7.24792E-05	8.7738E-05	5.481004715	-2.839016914	7.76386261	0.001096725	-0.003623962	0.004386902	-0.481201172	0.832763672	-0.286865234	890.66	-20.0562508	-33.45230355	-101.2183556	-58
18901	0	0.219909668	-0.113220215	0.311767578	0.999999046	-3.05176E-05	-3.33786E-05	8.39233E-05	5.497741699	-2.830505371	7.794189453	-0.001525879	-0.00166893	0.004196167	-0.481201172	0.832763672	-0.278076172	890.68	-20.0647902	-33.45259416	-101.2183187	-58
18902	0	0.221071243	-0.11455822	0.311805725	0.999999046	-0.000139236	-9.53674E-05	0.000209808	5.526781082	-2.863955498	7.795143127	-0.006961823	-0.004768372	0.010490418	-0.481201172	0.832763672	-0.283935547	890.64	-20.09629963	-33.45462685	-101.1962927	-58
18903	0	0.221069336	-0.114685059	0.311523438	0.999999046	-2.67029E-05	9.53674E-07	0.000225067	5.526733398	-2.867126465	7.788085938	-0.001335144	4.76837E-05	0.011253357	-0.479003906	0.834960938	-0.281494141	890.68	-20.11344643	-33.44571261	-101.1756024	-58
18904	0	0.220712662	-0.113702774	0.310051918	0.999999046	-6.38962E-05	8.7738E-05	0.000232697	5.517816544	-2.842569351	7.751297951	-0.003194809	0.004386902	0.011634827	-0.481201172	0.832763672	-0.286865234	890.72	-20.13306042	-33.42721591	-101.1585462	-58
18905	0	0.21875	-0.114562988	0.311035156	0.999999046	-8.7738E-05	8.86917E-05	9.91821E-05	5.46875	-2.864074707	7.775878906	-0.004386902	0.004434586	0.004959106	-0.479003906	0.834960938	-0.284423828	890.58	-20.14584201	-33.41383045	-101.1573263	-59
18906	0	0.219831467	-0.115393639	0.310687065	0.999999046	4.00543E-05	4.76837E-05	0.0001297	5.495786667	-2.884840965	7.767176628	0.002002716	0.002384186	0.006484985	-0.478759766	0.834960938	-0.287109375	890.72	-20.14721244	-33.40365569	-101.1489209	-59
18907	0	0.221252441	-0.115356445	0.311706543	0.999999046	-7.24792E-05	0.000138283	6.48499E-05	5.531311035	-2.883911133	7.792663574	-0.003623962	0.006914139	0.003242493	-0.4765625	0.834960938	-0.278564453	890.68	-20.15450455	-33.3863316	-101.1556826	-58
18908	0	0.219197273	-0.115247726	0.313885689	0.999999046	-0.000100136	-9.53674E-06	0.000102043	5.479931831	-2.881193161	7.84714222	-0.00500679	-0.000476837	0.005102158	-0.478759766	0.832763672	-0.284179688	890.68	-20.17137454	-33.38334153	-101.1507035	-58
18909	0	0.217651367	-0.114257813	0.311401367	0.999999046	-0.000202179	-0.000250816	1.90735E-05	5.44128418	-2.856445313	7.78503418	-0.010108948	-0.012540817	0.000953674	-0.4765625	0.834960938	-0.284423828	890.78	-20.20025273	-33.40949817	-101.1415436	-58
18910	0	0.219573021	-0.116833687	0.310754776	0.999999046	0.000112534	-0.000150681	-8.58307E-06	5.489325523	-2.920842171	7.7688694	0.005626679	-0.007534027	-0.000429153	-0.479003906	0.834960938	-0.284423828	890.74	-20.18857168	-33.42595753	-101.1428771	-58
18911	0	0.221313477	-0.114807129	0.309875488	0.999999046	0.000350952	3.52859E-05	-1.90735E-05	5.532836914	-2.870178223	7.746887207	0.017547608	0.001764298	-0.000953674	-0.4765625	0.834960938	-0.278564453	890.62	-20.14394753	-33.42291743	-101.1553123	-59
18912	0	0.220031738	-0.112548828	0.311828613	0.999999046	-0.000124931	0.0001297	4.57764E-05	5.500793457	-2.813720703	7.795715332	-0.006246567	0.006484985	0.002288818	-0.479003906	0.834960938	-0.281494141	890.74	-20.15582482	-33.40716338	-101.1647783	-58
18913	0	0.219787598	-0.115356445	0.312255859	0.999999046	-0.000209808	-4.48227E-05	0.0001297	5.494689941	-2.883911133	7.806396484	-0.010490418	-0.002241135	0.006484985	-0.479003906	0.834960938	-0.281494141	890.68	-20.18790091	-33.40683209	-101.1551243	-58
18914	0	0.220151901	-0.116521835	0.311636925	0.999999046	-7.62939E-06	7.05719E-05	0.000171661	5.503797531	-2.913045883	7.790923119	-0.00038147	0.003528595	0.008583069	-0.479003906	0.834960938	-0.284423828	890.72	-20.19681318	-33.39241397	-101.1442032	-59
18915	0	0.218566895	-0.114562988	0.312744141	0.999999046	0.000183105	-0.000174522	7.62939E-05	5.464172363	-2.864074707	7.818603516	0.009155274	-0.00872612	0.003814697	-0.479003906	0.834960938	-0.284423828	890.62	-20.18340044	-33.40803986	-101.1340057	-59
18916	0	0.219145775	-0.115337372	0.311060905	0.999999046	0.000105858	-0.000165939	3.8147E-06	5.478644371	-2.883434296	7.776522636	0.005292892	-0.008296967	0.000190735	-0.479003906	0.834960938	-0.284423828	890.72	-20.17346258	-33.42557964	-101.1333664	-58
18917	0	0.219238281	-0.114807129	0.310974121	0.999999046	8.7738E-05	-0.000113487	-8.7738E-05	5.480957031	-2.870178223	7.774353027	0.004386902	-0.005674362	-0.004386902	-0.481201172	0.834960938	-0.284179688	890.68	-20.15769759	-33.44106885	-101.1490587	-58
18918	0	0.220610619	-0.114958763	0.311065674	0.999999046	0.000110626	-0.000175476	-9.91821E-05	5.515265465	-2.873969078	7.776641846	0.005531311	-0.008773804	-0.004959106	-0.481445313	0.835205078	-0.28125	890.74	-20.14008451	-33.46370042	-101.1646272	-59
18919	0	0.220703125	-0.113830566	0.310974121	0.999999046	2.28882E-05	-7.9155E-05	7.62939E-05	5.517578125	-2.84576416	7.774353027	0.001144409	-0.003957748	0.003814697	-0.479003906	0.837158203	-0.281494141	890.74	-20.14239993	-33.46908231	-101.1585664	-59
18920	0	0.220612526	-0.113850594	0.310882568	0.999999046	-0.00011158	-0.000152588	4.95911E-05	5.515313148	-2.846264839	7.772064209	-0.005578995	-0.007629395	0.002479553	-0.478759766	0.834960938	-0.287109375	890.72	-20.16006347	-33.4834509	-101.1497252	-59
18921	0	0.219604492	-0.11529541	0.31048584	0.999999046	1.52588E-05	9.53674E-07	5.72205E-05	5.490112305	-2.882385254	7.762145996	0.000762939	4.76837E-05	0.002861023	-0.479003906	0.834960938	-0.281494141	890.66	-20.15974781	-33.4809763	-101.150822	-59
18922	0	0.219652176	-0.114701271	0.310427666	1	1.81198E-05	-5.81741E-05	1.81198E-05	5.491304398	-2.867531776	7.760691643	0.000905991	-0.002908707	0.000905991	-0.481445313	0.837402344	-0.281494141	890.78	-20.15784967	-33.48639428	-101.1555567	-58
18923	0	0.219421387	-0.115234375	0.309936523	0.999999046	-1.14441E-05	-0.000163078	0.000179291	5.485534668	-2.880859375	7.748413086	-0.000572205	-0.008153915	0.008964539	-0.478759766	0.832763672	-0.284179688	890.72	-20.17357031	-33.49671769	-101.1321363	-59
18924	0	0.219908714	-0.114710808	0.310349464	0.999999046	0.000128746	-6.67572E-05	4.86374E-05	5.497717857	-2.867770195	7.75873661	0.006437302	-0.00333786	0.00243187	-0.478759766	0.832763672	-0.284179688	890.68	-20.16138751	-33.50183826	-101.1301762	-59
18925	0	0.22064209	-0.114746094	0.310180664	0.999999046	-1.90735E-05	-4.48227E-05	1.90735E-05	5.516052246	-2.868652344	7.754516602	-0.000953674	-0.002241135	0.000953674	-0.478759766	0.832763672	-0.287109375	890.72	-20.16344865	-33.5057995	-101.1311898	-59
18926	0	0.220116615	-0.114400864	0.310216904	0.999999046	-6.86646E-05	-5.53131E-05	9.15527E-05	5.502915382	-2.860021591	7.755422592	-0.003433228	-0.002765656	0.004577637	-0.478759766	0.832763672	-0.28125	890.68	-20.17660308	-33.50803165	-101.1259931	-59
18927	0	0.218933105	-0.114257813	0.311950684	0.999999046	-9.91821E-05	-2.19345E-05	0.0001297	5.473327637	-2.856445313	7.79876709	-0.004959106	-0.001096725	0.006484985	-0.481201172	0.834960938	-0.284179688	890.62	-20.19501551	-33.505077	-101.1174432	-59
18928	0	0.220931053	-0.114438057	0.30984211	0.999999046	-4.1008E-05	7.82013E-05	0.000209808	5.523276329	-2.860951424	7.746052742	-0.0020504	0.003910065	0.010490418	-0.478759766	0.832763672	-0.28125	890.66	-20.2098086	-33.48823656	-101.1038273	-59
18929	0	0.220458984	-0.11517334	0.312805176	0.999999046	-7.24792E-05	2.38419E-05	0.000110626	5.511474609	-2.879333496	7.820129395	-0.003623962	0.001192093	0.005531311	-0.479003906	0.834960938	-0.284423828	890.72	-20.22250925	-33.48112242	-101.0977855	-59
18930	0	0.218648911	-0.115205765	0.311088562	0.999999046	-0.000143051	-0.000141144	0.000174522	5.466222763	-2.880144119	7.77721405	-0.007152557	-0.00705719	0.00872612	-0.479003906	0.834960938	-0.281494141	890.68	-20.25214916	-33.48913759	-101.0775549	-58
18931	0	0.218811035	-0.116027832	0.31036377	0.999999046	-0.000110626	-7.9155E-05	0.000141144	5.470275879	-2.900695801	7.759094238	-0.005531311	-0.003957748	0.00705719	-0.479003906	0.834960938	-0.281494141	890.64	-20.27410828	-33.49174932	-101.0645544	-58
18932	0	0.220902443	-0.115793228	0.308898926	0.999999046	-3.14713E-05	-7.43866E-05	4.48227E-05	5.522561073	-2.894830704	7.722473145	-0.001573563	-0.00371933	0.002241135	-0.4765625	0.832763672	-0.28125	890.62	-20.28005904	-33.49774674	-101.0623954	-59
18933	0	0.220397949	-0.114318848	0.311096191	0.999999046	6.48499E-05	1.23978E-05	3.8147E-05	5.50994873	-2.857971191	7.777404785	0.003242493	0.000619888	0.001907349	-0.479003906	0.837158203	-0.281494141	890.68	-20.27212364	-33.49468461	-101.0659117	-59
18934	0	0.221053123	-0.114112854	0.312213898	0.999999046	-0.000234604	1.14441E-05	0.000185966	5.526328087	-2.85282135	7.805347443	-0.011730194	0.000572205	0.009298325	-0.481445313	0.835205078	-0.28125	890.66	-20.30892497	-33.48585487	-101.0545343	-59
18935	0	0.21887207	-0.116577148	0.311340332	0.999999046	-0.000278473	-2.19345E-05	0.000164032	5.471801758	-2.914428711	7.783508301	-0.013923645	-0.001096725	0.008201599	-0.479003906	0.834960938	-0.281494141	890.64	-20.35008761	-33.48139487	-101.0413513	-59
18936	0	0.219335556	-0.117128372	0.310898781	0.999999046	-6.67572E-06	4.76837E-05	0.000133514	5.483388901	-2.928209305	7.772469521	-0.000333786	0.002384186	0.00667572	-0.479003906	0.837158203	-0.281494141	890.74	-20.35614872	-33.47061276	-101.0345474	-59
18937	0	0.219238281	-0.114379883	0.31072998	0.999999046	-1.90735E-05	-6.00815E-05	4.95911E-05	5.480957031	-2.85949707	7.768249512	-0.000953674	-0.003004074	0.002479553	-0.479003906	0.837158203	-0.281494141	890.66	-20.36040276	-33.47473085	-101.0333559	-59
18938	0	0.220118523	-0.116184235	0.310576439	0.999999046	-0.000137329	-4.57764E-05	0.000133514	5.502963066	-2.904605865	7.764410973	-0.006866455	-0.002288818	0.00667572	-0.479003906	0.837158203	-0.278564453	890.68	-20.383799	-33.47396343	-101.0240304	-59
18939	0	0.219665527	-0.116821289	0.310546875	0.999999046	9.53674E-05	3.14713E-05	9.53674E-05	5.491638184	-2.920532227	7.763671875	0.004768372	0.001573563	0.004768372	-0.479003906	0.834960938	-0.281494141	890.68	-20.37581266	-33.46639578	-101.022606	-58
18940	0	0.21919632	-0.115888596	0.310276985	0.999999046	0.000174522	-4.00543E-05	1.90735E-05	5.47990799	-2.89721489	7.756924629	0.00872612	-0.002002716	0.000953674	-0.479003906	0.834960938	-0.281494141	890.66	-20.35521011	-33.46952992	-101.0275656	-59
18941	0	0.219421387	-0.116210938	0.311279297	0.999999046	4.57764E-05	-0.000166893	6.48499E-05	5.485534668	-2.905273438	7.781982422	0.002288818	-0.00834465	0.003242493	-0.479003906	0.837158203	-0.281494141	890.74	-20.35594306	-33.48442117	-101.0192521	-58
18942	0	0.220487595	-0.115479469	0.312375069	0.999999046	9.53674E-05	-4.3869E-05	8.67844E-05	5.512189865	-2.886986732	7.809376717	0.004768372	-0.002193451	0.004339218	-0.479003906	0.837158203	-0.281494141	890.74	-20.3492348	-33.48519524	-101.0141424	-59
18943	0	0.219726563	-0.115844727	0.311767578	0.999999046	6.10352E-05	5.81741E-05	4.57764E-05	5.493164063	-2.896118164	7.794189453	0.003051758	0.002908707	0.002288818	-0.479003906	0.837158203	-0.287353516	890.74	-20.34081357	-33.47659741	-101.0152299	-59
18944	0	0.219130516	-0.116071701	0.310952187	0.999999046	0.000105858	-0.000112534	2.28882E-05	5.478262901	-2.901792526	7.773804665	0.005292892	-0.005626678	0.001144409	-0.479003906	0.834960938	-0.281494141	890.72	-20.33013451	-33.4872015	-101.0163576	-58
18945	0	0.22052002	-0.115478516	0.311279297	0.999999046	2.67029E-05	-0.000128746	-1.14441E-05	5.513000488	-2.886962891	7.781982422	0.001335144	-0.006437302	-0.000572205	-0.479003906	0.834960938	-0.284423828	890.74	-20.32646658	-33.50092307	-101.0187144	-59
18946	0	0.221335411	-0.115884781	0.311777115	0.999999046	0.000144958	-2.67029E-05	7.53403E-05	5.533385277	-2.897119522	7.794427872	0.007247925	-0.001335144	0.003767014	-0.4765625	0.834960938	-0.278564453	890.66	-20.31270833	-33.50024342	-101.0159806	-59
18947	0	0.220825195	-0.116210938	0.312561035	0.999999046	0.00018692	-7.15256E-05	7.62939E-05	5.520629883	-2.905273438	7.814025879	0.009346008	-0.003576279	0.003814697	-0.479003906	0.834960938	-0.284423828	890.68	-20.2953716	-33.50431716	-101.010079	-59
18948	0	0.218837738	-0.11509037	0.311655998	0.999999046	0.000279427	4.00543E-05	-1.62125E-05	5.470943451	-2.877259254	7.791399956	0.013971329	0.002002716	-0.000810623	-0.478759766	0.832763672	-0.284179688	890.66	-20.25786548	-33.49999372	-101.0226409	-59
18949	0	0.217834473	-0.114990234	0.311279297	0.999999046	0.000125885	-2.95639E-05	5.34058E-05	5.445861816	-2.874755859	7.781982422	0.006294251	-0.001478195	0.002670288	-0.479003906	0.834960938	-0.281494141	890.68	-20.24470117	-33.50028168	-101.0240763	-58
18950	0	0.220221519	-0.114020348	0.310927391	0.999999046	0.000133514	5.91278E-05	7.15256E-05	5.505537987	-2.85050869	7.773184776	0.00667572	0.00295639	0.003576279	-0.479003906	0.834960938	-0.284423828	890.68	-20.22954136	-33.49033442	-101.0254913	-59
18951	0	0.219665527	-0.114440918	0.312438965	0.999999046	-0.000209808	0.000256538	6.48499E-05	5.491638184	-2.861022949	7.810974121	-0.010490418	0.01282692	0.003242493	-0.479003906	0.834960938	-0.284423828	890.66	-20.24799479	-33.45938014	-101.0374177	-59
18952	0	0.216804504	-0.116127014	0.312745094	0.999999046	-0.000161171	-8.96454E-05	4.48227E-05	5.42011261	-2.903175354	7.818627357	-0.008058548	-0.004482269	0.002241135	-0.479003906	0.837158203	-0.287353516	890.66	-20.26852515	-33.46626204	-101.0317379	-59
18953	0	0.217895508	-0.115112305	0.31048584	0.999999046	9.53674E-05	-0.000376701	-7.62939E-06	5.447387695	-2.877807617	7.762145996	0.004768372	-0.018835068	-0.00038147	-0.476318359	0.834960938	-0.287353516	890.66	-20.26344858	-33.50602327	-101.0161947	-59
18954	0	0.221365929	-0.114684105	0.310523033	0.999999046	3.05176E-05	-0.000312805	2.28882E-05	5.534148216	-2.867102623	7.763075829	0.001525879	-0.015640259	0.001144409	-0.478759766	0.832763672	-0.28125	890.64	-20.26628045	-33.53777434	-101.0086789	-59
