Counter	Temperature	VelInc_X	VelInc_Y	VelInc_Z	OriInc_w	OriInc_x	OriInc_y	OriInc_z	Acc_X	Acc_Y	Acc_Z	Gyr_X	Gyr_Y	Gyr_Z	Mag_X	Mag_Y	Mag_Z	Pressure	Roll	Pitch	Yaw	RSSI
19729	0	0.360290527	-0.125	0.138122559	0.999760628	-0.021766663	0.000882149	-0.001785278	9.007263184	-3.125	3.453063965	-1.088419808	0.04411095	-0.089271025	-0.563232422	0.110839844	-0.752929688	892.16	-51.96481168	-71.90972414	59.673786	-72
19730	0	0.363318443	-0.156914711	0.116267204	0.999946594	-0.010056496	0.00127697	-0.001606941	9.082961082	-3.922867775	2.906680107	-0.502833612	0.063849617	-0.080348472	-0.562255859	0.141845703	-0.749755859	892.16	-52.3795812	-71.97329893	58.90426461	-72
19731	0	0.368591309	-0.134887695	0.079528809	0.99998188	0.005741119	0.000653267	-0.001613617	9.214782715	-3.372192383	1.988220215	0.287057691	0.032663541	-0.080681331	-0.5625	0.146240234	-0.747314453	892.14	-51.15410522	-72.07815112	58.28435665	-73
19732	0	0.377734184	-0.115073204	0.063042641	0.999926567	0.012051582	-0.000137329	6.86646E-05	9.443354607	-2.876830101	1.576066017	0.602593707	-0.006866621	0.003433311	-0.561767578	0.1328125	-0.754882813	892.14	-49.79614584	-72.08742439	58.27464141	-73
19733	0	0.375793457	-0.09576416	0.062866211	0.999943733	0.010311127	-0.00057888	0.002082825	9.394836426	-2.394104004	1.571655273	0.515565873	-0.028944551	0.104143162	-0.560791016	0.114990234	-0.759277344	892.06	-49.22004874	-71.95451504	58.88540996	-72
19734	0	0.372015953	-0.09105587	0.070414543	0.999958992	0.008451462	-0.001317978	0.002652168	9.300398827	-2.276396751	1.760363579	0.422578738	-0.065899776	0.132610186	-0.560302734	0.101806641	-0.752441406	892.22	-49.18232045	-71.82889031	59.84700395	-71
19735	0	0.371032715	-0.080200195	0.07611084	0.999957085	0.008857727	-0.001708031	0.001918793	9.275817871	-2.005004883	1.902770996	0.442892631	-0.085402746	0.095940996	-0.5625	0.095214844	-0.754638672	892.14	-49.0291284	-71.79707238	60.72687406	-70
19736	0	0.371498108	-0.064099312	0.08317852	0.99997139	0.007347107	-0.001643181	0.000322342	9.287452698	-1.602482796	2.079463005	0.367358823	-0.08215982	0.016117248	-0.564208984	0.081787109	-0.756347656	892.16	-48.6638624	-71.90028044	61.20605271	-70
19737	0	0.376953125	-0.079345703	0.088684082	0.999998093	0.000943184	-0.00125885	-0.000663757	9.423828125	-1.983642578	2.217102051	0.047159218	-0.062942535	-0.033187882	-0.566162109	0.072998047	-0.755371094	892.22	-48.70216154	-72.05990647	61.35090713	-70
19738	0	0.373329163	-0.096450806	0.085363388	0.999998093	0.000201225	-0.001107216	-0.001029968	9.333229065	-2.411270142	2.134084702	0.010061268	-0.055360816	-0.051498433	-0.571044922	0.073242188	-0.758056641	892.16	-48.70073229	-72.23909773	61.36130306	-70
19739	0	0.371276855	-0.105163574	0.08404541	0.999997139	0.001914978	-0.001189232	-0.000682831	9.281921387	-2.629089355	2.101135254	0.09574899	-0.059461649	-0.034141572	-0.573242188	0.068847656	-0.754638672	892.16	-48.60851203	-72.39380896	61.48490348	-70
19740	0	0.371740341	-0.105376244	0.08283329	0.999990463	0.003967285	-0.001194954	3.91006E-05	9.29350853	-2.63440609	2.070832253	0.198364825	-0.059747867	0.001955038	-0.570556641	0.064208984	-0.751464844	892.2	-48.45718474	-72.48622929	61.78892474	-69
19741	0	0.369812012	-0.097595215	0.083984375	0.999982834	0.00565052	-0.001296997	0.000442505	9.245300293	-2.439880371	2.099609375	0.282527608	-0.064850219	0.022125369	-0.575195313	0.057861328	-0.747802734	892.22	-48.23929015	-72.55158363	62.22489062	-68
19742	0	0.375868797	-0.089599609	0.083536148	0.999980927	0.005955696	-0.00077343	0.000637054	9.396719933	-2.239990234	2.088403702	0.297786616	-0.038671729	0.031852916	-0.577148438	0.051269531	-0.75	892.2	-47.89147239	-72.56070808	62.5577142	-67
19743	0	0.375793457	-0.083129883	0.081848145	0.999988556	0.004414558	-4.19617E-05	0.001316071	9.394836426	-2.07824707	2.046203613	0.220728701	-0.002098091	0.065803761	-0.579345703	0.042480469	-0.743408203	892.1	-47.6873982	-72.45647336	62.86813934	-67
19744	0	0.37729454	-0.081292152	0.07911396	0.999994278	0.002620697	0.000309944	0.001710892	9.43236351	-2.03230381	1.977849007	0.131035067	0.015497233	0.085544727	-0.576660156	0.040039063	-0.752197266	892.04	-47.6885917	-72.29208015	63.17438999	-66
19745	0	0.377075195	-0.082092285	0.071716309	0.999996185	0.002240181	0.000358582	0.001373291	9.426879883	-2.052307129	1.792907715	0.11200918	0.017929098	0.068664631	-0.576660156	0.037841797	-0.754882813	892.2	-47.63736959	-72.15310768	63.38020939	-66
19746	0	0.376077652	-0.078915596	0.06818676	0.999996185	0.002589226	-1.23978E-05	0.000847816	9.401941299	-1.9728899	1.704668999	0.129461449	-0.000619889	0.042390876	-0.576416016	0.035644531	-0.754638672	892.2	-47.51759766	-72.08814316	63.55483669	-66
19747	0	0.37689209	-0.075683594	0.069580078	0.999992371	0.00364399	-0.000419617	0	9.422302246	-1.892089844	1.739501953	0.182199887	-0.020980882	0	-0.576416016	0.03125	-0.751464844	892.16	-47.18023897	-72.12734625	63.62693465	-66
19748	0	0.378958702	-0.07314682	0.063509941	0.999993324	0.003340721	-0.000671387	-0.000742912	9.473967552	-1.828670502	1.587748528	0.167036395	-0.033569404	-0.03714569	-0.580810547	0.024658203	-0.753417969	892.14	-46.76279784	-72.24978814	63.58028649	-66
19749	0	0.372009277	-0.093811035	0.070983887	0.999999046	-0.000347137	-0.000193596	0.000453949	9.300231934	-2.345275879	1.774597168	-0.017356874	-0.009679795	0.02269745	-0.580810547	0.020263672	-0.750244141	892.16	-46.9374634	-72.23469418	63.72312214	-67
19750	0	0.374587059	-0.090126038	0.091710091	0.999995232	-0.002342224	0.000125885	0.001857758	9.364676476	-2.25315094	2.292752266	-0.117111381	0.00629426	0.092888017	-0.580810547	0.024658203	-0.747558594	892.2	-47.59441451	-72.07577273	64.13627936	-68
19751	0	0.377258301	-0.093322754	0.106567383	0.999987602	-0.004203796	0.000645638	0.002258301	9.43145752	-2.333068848	2.66418457	-0.210190632	0.032282	0.112915475	-0.576171875	0.028808594	-0.754150391	892.1	-48.40968251	-71.84029691	64.4959105	-68
19752	0	0.374569893	-0.096483231	0.094408989	0.999995232	-0.001917839	0.000600815	0.001942635	9.364247322	-2.412080765	2.360224724	-0.095892077	0.03004078	0.097131856	-0.579101563	0.040039063	-0.751953125	892.12	-48.88893717	-71.63350477	64.76973428	-68
19753	0	0.376159668	-0.088806152	0.079772949	0.999998093	0.001149178	0.000339508	0.001228333	9.403991699	-2.220153809	1.99432373	0.057458906	0.016975411	0.061416656	-0.574707031	0.044433594	-0.749755859	892.2	-48.91766331	-71.50791311	64.92938946	-68
19754	0	0.375798225	-0.07538414	0.081115723	0.999999046	7.62939E-06	0.00075531	0.001036644	9.394955635	-1.8846035	2.027893066	0.00038147	0.037765513	0.051832213	-0.576904297	0.042236328	-0.752197266	892.16	-48.92427461	-71.3682489	64.9356853	-68
19755	0	0.376098633	-0.085144043	0.083862305	0.999997139	-0.001895905	0.001214027	0.000400543	9.40246582	-2.128601074	2.096557617	-0.09479531	0.060701423	0.020027178	-0.572265625	0.044433594	-0.749755859	892.2	-48.88942183	-71.24924726	64.67007989	-68
19756	0	0.374105453	-0.094314575	0.086000443	0.999997139	-0.001543999	0.001232147	-0.00019455	9.352636337	-2.35786438	2.150011063	-0.077199987	0.061607401	-0.009727484	-0.572265625	0.046630859	-0.755859375	892.1	-48.67943311	-71.17985906	64.26036854	-68
19757	0	0.366210938	-0.092712402	0.079406738	0.999998093	-0.00140667	0.001247406	0.000244141	9.155273438	-2.317810059	1.985168457	-0.070333523	0.062370338	0.012207039	-0.570068359	0.05078125	-0.759033203	892.16	-48.55012378	-71.07124158	63.9477664	-68
19758	0	0.370240211	-0.095129013	0.078903198	0.999998093	-0.001629829	0.000906944	0.00033474	9.256005287	-2.378225327	1.972579956	-0.081491519	0.045347241	0.016736994	-0.570068359	0.051025391	-0.753417969	892.1	-48.55424907	-70.98063401	63.75753748	-68
19759	0	0.371459961	-0.099243164	0.082214355	0.999999046	-0.000797272	0.000283241	-4.57764E-05	9.286499023	-2.481079102	2.055358887	-0.039863591	0.014162065	-0.002288819	-0.567871094	0.055175781	-0.756835938	892.16	-48.53598342	-70.96987919	63.63596376	-67
19760	0	0.366537094	-0.100019455	0.086716652	0.999999046	0.000622749	-0.000141144	-0.000125885	9.163427353	-2.500486374	2.167916298	0.031137469	-0.00705719	-0.006294251	-0.565429688	0.055175781	-0.762695313	892.16	-48.44335526	-70.99781594	63.60145419	-67
19761	0	0.373718262	-0.101989746	0.088378906	0.999999046	0.001312256	-0.000258446	0.000267029	9.342956543	-2.549743652	2.209472656	0.065612813	-0.012922291	0.013351445	-0.567871094	0.055175781	-0.756835938	892.14	-48.38802195	-71.00061914	63.69051159	-67
19762	0	0.373159409	-0.098306656	0.084109306	0.999999046	0.000946045	0.000247955	0.00058651	9.328985214	-2.457666397	2.102732658	0.047302256	0.012397769	0.029325492	-0.569824219	0.05078125	-0.761962891	892.1	-48.31985684	-70.93743564	63.72775325	-67
19763	0	0.369995117	-0.094665527	0.080566406	0.999999046	0.000274658	0.000153542	0.000843048	9.24987793	-2.366638184	2.014160156	0.013732912	0.007677079	0.04215241	-0.567626953	0.05078125	-0.756347656	892.16	-48.40880405	-70.85958268	63.85224058	-67
19764	0	0.373170853	-0.092931747	0.079936981	0.999999046	0.000788689	2.47955E-05	0.000549316	9.329271317	-2.323293686	1.99842453	0.039434439	0.001239777	0.027465825	-0.565185547	0.05078125	-0.762207031	892.1	-48.4061697	-70.81693271	63.93693349	-67
19765	0	0.374816895	-0.092529297	0.079650879	0.999999046	0.000663757	-0.000254631	4.19617E-05	9.370422363	-2.313232422	1.991271973	0.033187869	-0.012731553	0.002098084	-0.567626953	0.05078125	-0.759277344	892.06	-48.37609939	-70.83935604	63.97799147	-67
19766	0	0.375827789	-0.093182564	0.083732605	0.999999046	0.000768661	-0.00041008	-0.000232697	9.395694733	-2.329564095	2.093315125	0.03843308	-0.020504001	-0.011634828	-0.567626953	0.05078125	-0.759277344	892.14	-48.31214251	-70.89732298	63.99259268	-67
19767	0	0.372558594	-0.093811035	0.089050293	0.999999046	0.000804901	-0.000613213	-0.000183105	9.313964844	-2.345275879	2.226257324	0.040245063	-0.030660635	-0.009155275	-0.569824219	0.046386719	-0.755859375	892.12	-48.30472707	-70.96644308	64.07908498	-68
19768	0	0.371727943	-0.097680092	0.090154648	0.999999046	0.000479698	-0.000314713	-0.000149727	9.293198586	-2.442002296	2.253866196	0.02398491	-0.015735627	-0.007486344	-0.569824219	0.046386719	-0.758789063	892.26	-48.26781463	-71.00965164	64.09134088	-68
19769	0	0.37298584	-0.100708008	0.087097168	0.999999046	0.000488281	-9.44138E-05	3.05176E-05	9.324645996	-2.517700195	2.177429199	0.024414064	-0.004720688	0.001525879	-0.572265625	0.046630859	-0.758544922	892.2	-48.21555733	-71.0203423	64.08794192	-67
19770	0	0.374643326	-0.097353935	0.083030701	0.999999046	0.000953674	-7.62939E-05	0.00014782	9.366083145	-2.433848381	2.075767517	0.047683723	-0.003814698	0.007390977	-0.569824219	0.044189453	-0.755615234	892.1	-48.1321031	-71.01961439	64.10989578	-67
19771	0	0.371582031	-0.092285156	0.079956055	0.999998093	0.001599312	-0.000614166	0.000293732	9.289550781	-2.307128906	1.998901367	0.079965632	-0.030708328	0.014686592	-0.569580078	0.044189453	-0.758544922	892.22	-48.1411676	-71.04778147	64.30155328	-68
19772	0	0.373218536	-0.091564178	0.084123611	0.999999046	0.000828743	-0.000583649	0.000389099	9.330463409	-2.289104462	2.103090286	0.041437157	-0.02918244	0.01945496	-0.569580078	0.041992188	-0.761230469	892.16	-48.25236871	-71.06551781	64.50842689	-68
19773	0	0.367614746	-0.096923828	0.097900391	0.999999046	0.000743866	-9.44138E-05	0.000511169	9.190368652	-2.423095703	2.447509766	0.037193303	-0.004720689	0.025558475	-0.572021484	0.041992188	-0.758300781	892.16	-48.27734346	-71.03479632	64.61572923	-68
19774	0	0.371501923	-0.09485054	0.090157509	0.999999046	0.00120163	7.82013E-05	0.000494957	9.287548065	-2.371263504	2.253937721	0.060081499	0.003910066	0.024747856	-0.572021484	0.039794922	-0.752441406	892.14	-48.20270306	-70.99210232	64.677999	-67
19775	0	0.373962402	-0.094238281	0.080810547	0.999999046	0.000644684	0.000206947	0.00031662	9.349060059	-2.355957031	2.020263672	0.032234195	0.010347367	0.015830995	-0.569335938	0.037597656	-0.760986328	892.14	-48.12105737	-70.95499349	64.6628373	-67
19776	0	0.373074532	-0.096081734	0.079805374	0.999999046	0.000109673	-1.90735E-05	0.000335693	9.326863289	-2.402043343	1.995134354	0.005483627	-0.000953674	0.016784668	-0.571777344	0.037597656	-0.755126953	892.16	-48.16173122	-70.93367712	64.71674654	-67
19777	0	0.37121582	-0.095397949	0.082336426	0.999999046	0.000598907	-0.000220299	0.000293732	9.280395508	-2.38494873	2.058410645	0.029945376	-0.011014939	0.014686586	-0.569335938	0.037597656	-0.760986328	892.2	-48.18717067	-70.93135734	64.80804681	-67
19778	0	0.371134758	-0.096675873	0.083813667	0.999999046	0.000654221	-0.000268936	0.000164032	9.27836895	-2.41689682	2.095341682	0.032711032	-0.013446809	0.0082016	-0.569580078	0.037597656	-0.752197266	892.16	-48.19007499	-70.94378406	64.88466655	-67
19779	0	0.372436523	-0.09765625	0.083435059	0.999999046	0.000831604	-0.000330925	-1.14441E-05	9.310913086	-2.44140625	2.085876465	0.041580206	-0.016546252	-0.000572205	-0.571777344	0.037597656	-0.755126953	892.1	-48.14976056	-70.97588951	64.93399396	-67
19780	0	0.372859955	-0.096287727	0.084018707	0.999999046	0.000874519	-0.000183105	0.000227928	9.321498871	-2.407193184	2.100467682	0.043725974	-0.009155275	0.01139641	-0.573974609	0.035400391	-0.757568359	892.22	-48.12136493	-70.97625228	65.00310364	-67
19781	0	0.373840332	-0.095703125	0.083435059	0.999999046	0.000679016	-0.000243187	0.000362396	9.346008301	-2.392578125	2.085876465	0.033950809	-0.012159349	0.018119814	-0.57421875	0.035400391	-0.754638672	892.22	-48.16040179	-70.96976742	65.11988949	-68
19782	0	0.373932838	-0.096227646	0.083626747	0.999999046	0.000768661	-0.000185013	0.000247002	9.348320961	-2.405691147	2.090668678	0.038433079	-0.009250642	0.012350084	-0.571777344	0.033203125	-0.751708984	892.1	-48.14952753	-70.96869103	65.19690451	-68
19783	0	0.371276855	-0.093688965	0.083435059	0.999999046	0.000793457	-0.000197411	0.000133514	9.281921387	-2.342224121	2.085876465	0.039672856	-0.00987053	0.006675721	-0.573974609	0.033203125	-0.757568359	892.1	-48.11383217	-70.9783205	65.24676035	-68
19784	0	0.372323036	-0.091517448	0.085202217	0.999999046	0.000849724	-0.000192642	-7.34329E-05	9.308075905	-2.287936211	2.130055428	0.042486196	-0.009632112	-0.003671647	-0.571533203	0.033203125	-0.754638672	892.2	-48.02422619	-71.00534697	65.24362252	-68
19785	0	0.374328613	-0.091064453	0.083679199	0.999999046	0.000511169	-4.86374E-05	-0.000274658	9.358215332	-2.276611328	2.09197998	0.025558473	-0.00243187	-0.013732911	-0.573730469	0.028808594	-0.754150391	892.22	-47.89259094	-71.0386388	65.16276669	-68
19786	0	0.375302315	-0.09168911	0.083491325	0.999999046	-1.90735E-06	0.000150681	-0.000100136	9.382557869	-2.292227745	2.087283134	-9.53674E-05	0.007534027	-0.00500679	-0.571533203	0.031005859	-0.754394531	892.26	-47.80924858	-71.04189401	65.06516758	-68
19787	0	0.373291016	-0.09197998	0.083007813	0.999999046	-0.000427246	0.000107765	-6.86646E-05	9.332275391	-2.299499512	2.075195313	-0.021362305	0.00538826	-0.003433228	-0.573730469	0.028808594	-0.754150391	892.22	-47.79237436	-71.04589114	64.99305773	-68
19788	0	0.369379044	-0.09297657	0.082640648	0.999999046	-0.000710487	9.53674E-06	4.1008E-05	9.234476089	-2.324414253	2.066016197	-0.035524371	0.000476837	0.0020504	-0.573730469	0.028808594	-0.754150391	892.16	-47.85705072	-71.04818276	64.97478146	-68
19789	0	0.370117188	-0.094421387	0.078552246	0.999999046	-0.000255585	-0.000357628	0.000114441	9.252929688	-2.360534668	1.963806152	-0.012779236	-0.017881394	0.005722046	-0.571533203	0.031005859	-0.754394531	892.16	-47.97786939	-71.07256705	65.06559131	-68
19790	0	0.37211132	-0.093087196	0.087759018	0.999999046	-0.000776291	-6.48499E-05	-0.000133514	9.302783012	-2.327179909	2.193975449	-0.038814549	-0.003242493	-0.006675721	-0.573974609	0.031005859	-0.757324219	892.2	-48.02990484	-71.09547765	65.02236743	-68
19791	0	0.372619629	-0.101257324	0.096313477	0.999999046	-0.001113892	0.00017643	0.000144958	9.315490723	-2.531433105	2.407836914	-0.055694592	0.008821489	0.007247926	-0.573974609	0.033203125	-0.757568359	892.1	-48.12229885	-71.07552821	64.98031079	-69
19792	0	0.372439384	-0.095880508	0.085488319	0.999999046	0.00026226	6.29425E-05	7.62939E-05	9.310984612	-2.397012711	2.137207985	0.013113022	0.003147125	0.003814697	-0.573974609	0.033203125	-0.757568359	892.2	-48.07000536	-71.07002583	64.95142161	-68
19793	0	0.371582031	-0.09564209	0.079162598	0.999999046	-0.000553131	-1.81198E-05	0.000152588	9.289550781	-2.391052246	1.979064941	-0.027656557	-0.000905991	0.007629395	-0.573974609	0.035400391	-0.757568359	892.12	-48.1491644	-71.06432211	64.96029529	-68
19794	0	0.371129036	-0.094504356	0.082156181	0.999999046	-0.000947952	-2.67029E-05	0.000144958	9.278225899	-2.36260891	2.053904533	-0.047397621	-0.001335144	0.007247926	-0.571777344	0.035400391	-0.7578125	892.14	-48.2742779	-71.05995712	64.97139687	-68
19795	0	0.376159668	-0.086791992	0.083862305	0.999993324	-0.003475189	0.000683784	-7.24792E-05	9.403991699	-2.169799805	2.096557617	-0.173759824	0.034189296	-0.00362397	-0.57421875	0.035400391	-0.754638672	892.04	-48.46285917	-71.02046499	64.75696153	-68
19796	0	0.374469757	-0.090255737	0.084480286	0.999970436	-0.007475853	0.001579285	-0.000408173	9.361743927	-2.256393433	2.112007141	-0.373796296	0.078965004	-0.02040883	-0.572265625	0.046630859	-0.758544922	892.16	-48.81228057	-70.94254719	64.22565643	-68
19797	0	0.37310791	-0.097717285	0.08782959	0.999979973	-0.006038666	0.001194954	-0.000656128	9.327697754	-2.442932129	2.195739746	-0.301935217	0.059748078	-0.032806606	-0.5703125	0.055419922	-0.756591797	892.16	-49.03909284	-70.91566742	63.73869841	-68
19798	0	0.371082306	-0.103281975	0.086433411	0.999995232	-0.002916336	0.000705719	-0.00044632	9.277057648	-2.58204937	2.160835266	-0.145817027	0.035286004	-0.022316013	-0.568115234	0.064208984	-0.754638672	892.2	-49.07666637	-70.90735694	63.42067255	-68
19799	0	0.37109375	-0.106872559	0.084106445	0.999999046	-0.000431061	0.000386238	-0.000274658	9.27734375	-2.671813965	2.102661133	-0.021553041	0.019311906	-0.013732911	-0.565673828	0.063964844	-0.760498047	892.1	-48.94766818	-70.90770578	63.22537484	-68
19800	0	0.373223305	-0.104053497	0.082655907	0.999999046	0.000834465	0.000263214	0.00030899	9.330582619	-2.601337433	2.066397667	0.041723257	0.013160707	0.015449526	-0.568115234	0.06640625	-0.760498047	892.14	-48.8323679	-70.86657574	63.19333002	-68
19801	0	0.372497559	-0.097045898	0.081420898	0.999998093	0.001408577	7.62939E-06	0.000499725	9.312438965	-2.426147461	2.035522461	0.070428874	0.00038147	0.024986276	-0.568115234	0.064208984	-0.760253906	892.12	-48.75683896	-70.82836236	63.27444455	-68
19802	0	0.373259544	-0.090476036	0.081802368	0.999999046	0.001142502	-7.62939E-06	0.000572205	9.331488609	-2.261900902	2.045059204	0.057125107	-0.00038147	0.028610237	-0.568115234	0.062011719	-0.757324219	892.1	-48.73093645	-70.7854146	63.37929137	-68
19803	0	0.371887207	-0.089172363	0.081359863	0.999999046	0.000217438	0.000145912	0.000263214	9.297180176	-2.229309082	2.033996582	0.010871887	0.007295609	0.013160706	-0.565673828	0.061767578	-0.757324219	892.06	-48.70565174	-70.75785557	63.37173238	-68
19804	0	0.372668266	-0.092995644	0.082606316	0.999999046	-0.000815392	3.8147E-05	-0.000195503	9.316706657	-2.32489109	2.06515789	-0.040769582	0.001907349	-0.009775163	-0.563232422	0.061767578	-0.757568359	892.12	-48.72579986	-70.77815258	63.28730348	-68
19805	0	0.373901367	-0.100463867	0.085632324	0.999999046	-0.000534058	5.43594E-05	-0.000320435	9.34753418	-2.51159668	2.140808105	-0.026702883	0.002717972	-0.01602173	-0.565673828	0.061767578	-0.760253906	892.2	-48.68275155	-70.8078248	63.17126884	-68
19806	0	0.374078751	-0.101290703	0.084098816	0.999999046	0.000141144	-3.8147E-06	-7.62939E-06	9.351968765	-2.53226757	2.102470398	0.00705719	-0.000190735	-0.00038147	-0.563476563	0.063964844	-0.7578125	892.04	-48.64514323	-70.81482547	63.1378482	-68
19807	0	0.371887207	-0.096923828	0.082519531	0.999999046	0.000827789	-0.000212669	0.000175476	9.297180176	-2.423095703	2.062988281	0.041389471	-0.01063347	0.008773805	-0.565673828	0.061767578	-0.760253906	892.2	-48.62063544	-70.82192962	63.20387582	-68
19808	0	0.368899345	-0.092336655	0.084222794	0.999999046	0.001177788	-0.000379562	0.000148773	9.222483635	-2.308416367	2.105569839	0.058889404	-0.018978124	0.007438662	-0.565673828	0.061767578	-0.760253906	892.2	-48.59117742	-70.84408138	63.30360396	-68
19809	0	0.369934082	-0.09161377	0.08416748	0.999999046	0.000320435	-0.000315666	-5.34058E-05	9.248352051	-2.290344238	2.104187012	0.016021729	-0.01578331	-0.002670288	-0.565429688	0.059570313	-0.762939453	892.12	-48.5997385	-70.87890522	63.34116411	-68
19810	0	0.374268532	-0.094023705	0.08307457	0.999999046	-0.00112915	0.000242233	4.19617E-05	9.356713295	-2.350592613	2.076864243	-0.056457532	0.012111667	0.002098084	-0.565673828	0.059570313	-0.757324219	892.2	-48.65696938	-70.86340523	63.26049219	-68
19811	0	0.371643066	-0.096374512	0.082275391	0.999999046	-0.001277924	0.000229836	0.000301361	9.29107666	-2.409362793	2.056884766	-0.063896198	0.011491779	0.015068059	-0.565673828	0.061767578	-0.760253906	892.2	-48.7910771	-70.82658003	63.24226394	-68
19812	0	0.372460365	-0.099312782	0.082497597	0.999999046	-0.000664711	-8.58307E-05	0.000384331	9.311509132	-2.482819557	2.062439919	-0.033235553	-0.004291535	0.019216539	-0.565673828	0.062011719	-0.754394531	892.2	-48.95145839	-70.80634999	63.3305839	-68
19813	0	0.369934082	-0.099487305	0.085510254	0.999999046	0.000293732	-9.82285E-05	0.000217438	9.248352051	-2.487182617	2.137756348	0.014686585	-0.004911423	0.010871887	-0.565673828	0.063964844	-0.760498047	892.2	-48.96896944	-70.80124112	63.37711663	-68
19814	0	0.370213509	-0.096669197	0.085798264	0.999999046	0.000732422	-7.43866E-05	0.000346184	9.255337715	-2.416729927	2.144956589	0.036621098	-0.00371933	0.017309191	-0.567871094	0.062011719	-0.763183594	892.14	-48.95784652	-70.78312494	63.44910382	-68
19815	0	0.374450684	-0.094970703	0.082458496	0.999999046	0.000152588	0.0001688	0.000411987	9.36126709	-2.374267578	2.061462402	0.007629395	0.008440018	0.020599366	-0.565673828	0.062011719	-0.754394531	892.1	-48.96702846	-70.74119088	63.47504175	-67
19816	0	0.374954224	-0.095499039	0.082185745	0.999999046	-0.000439644	0.000167847	0.00045681	9.373855591	-2.387475967	2.054643631	-0.021982195	0.008392335	0.022840502	-0.568115234	0.062011719	-0.754394531	892.16	-49.05386792	-70.6956164	63.51516498	-67
19817	0	0.37322998	-0.096313477	0.083374023	0.999999046	-0.000518799	0.0001688	0.000358582	9.330749512	-2.407836914	2.084350586	-0.025939943	0.008440018	0.017929078	-0.568115234	0.06640625	-0.763427734	892.2	-49.12824111	-70.65854155	63.52281238	-67
19818	0	0.373069763	-0.098926544	0.083273888	0.999999046	-0.000417709	0.000154495	0.000408173	9.32674408	-2.473163605	2.081847191	-0.020885469	0.007724762	0.020408632	-0.565917969	0.06640625	-0.7578125	892.2	-49.20521389	-70.61823872	63.54862813	-67
19819	0	0.372009277	-0.099060059	0.083740234	0.999999046	-0.000217438	0.000180244	0.000370026	9.300231934	-2.476501465	2.093505859	-0.010871888	0.009012223	0.018501282	-0.568359375	0.068603516	-0.760742188	892.1	-49.24477669	-70.57928777	63.55682426	-67
19820	0	0.370988846	-0.099799156	0.084440231	0.999999046	0.000452995	5.91278E-05	0.000293732	9.274721146	-2.494978905	2.111005783	0.022649766	0.002956391	0.014686585	-0.565917969	0.06640625	-0.7578125	892.1	-49.22124181	-70.55594911	63.58283883	-67
19821	0	0.372680664	-0.098815918	0.083435059	0.999999046	0.000659943	2.00272E-05	3.43323E-05	9.317016602	-2.470397949	2.085876465	0.032997134	0.001001358	0.001716614	-0.565917969	0.068603516	-0.758056641	892.2	-49.12877723	-70.55807262	63.55469221	-67
19822	0	0.373524666	-0.09787941	0.082113266	0.999999046	0.000619888	-2.67029E-05	6.86646E-05	9.338116646	-2.446985245	2.05283165	0.030994417	-0.001335144	0.003433228	-0.563476563	0.066162109	-0.760742188	892.16	-49.05991704	-70.56083893	63.54720675	-67
19823	0	0.374450684	-0.096008301	0.082214355	0.999999046	0.000164032	2.38419E-05	-7.62939E-05	9.36126709	-2.40020752	2.055358887	0.008201599	0.001192093	-0.003814697	-0.565917969	0.06640625	-0.760742188	892.16	-49.00009838	-70.57254687	63.49430629	-67
19824	0	0.368113518	-0.095619202	0.084947586	0.999999046	0.000584602	-0.000164032	-0.000167847	9.202837944	-2.390480042	2.123689651	0.02923012	-0.0082016	-0.008392335	-0.565673828	0.063964844	-0.763427734	892.26	-48.9182598	-70.60629228	63.47038294	-67
19825	0	0.370117188	-0.097045898	0.084350586	0.999999046	0.000766754	-0.00039196	-0.000514984	9.252929688	-2.426147461	2.108764648	0.038337714	-0.01959801	-0.025749211	-0.563232422	0.061767578	-0.757568359	892.16	-48.79680731	-70.68716667	63.42775928	-66
19826	0	0.371997833	-0.101781845	0.085129738	0.999999046	0.000253677	-0.000196457	-0.000370026	9.299945831	-2.544546127	2.128243446	0.012683869	-0.009822846	-0.018501282	-0.565673828	0.059570313	-0.754394531	892.22	-48.71718746	-70.74056681	63.37219866	-66
19827	0	0.371765137	-0.102294922	0.082763672	0.999999046	0.00069809	-0.000308037	3.43323E-05	9.294128418	-2.557373047	2.069091797	0.034904483	-0.015401842	0.001716614	-0.565673828	0.062011719	-0.754394531	892.1	-48.70225705	-70.76741496	63.43185288	-66
19828	0	0.371319771	-0.098666191	0.081816673	0.999999046	0.001111031	-0.000526428	0.000118256	9.28299427	-2.466654778	2.045416832	0.055551543	-0.026321418	0.005912782	-0.567871094	0.059814453	-0.760009766	892.26	-48.71276887	-70.8035425	63.56813073	-66
19829	0	0.372558594	-0.097717285	0.082885742	0.999999046	0.001060486	-0.000613213	0.000137329	9.313964844	-2.442932129	2.072143555	0.053024305	-0.030660637	0.006866457	-0.567871094	0.057617188	-0.756835938	892.16	-48.75532411	-70.84456541	63.73409469	-66
19830	0	0.369215965	-0.095628738	0.083001137	0.999999046	0.001155853	-0.00063324	0.000247002	9.230399132	-2.39071846	2.075028419	0.057792681	-0.031661997	0.012350086	-0.567871094	0.057617188	-0.75390625	892.2	-48.81625261	-70.87759693	63.92860101	-66
19831	0	0.37097168	-0.09576416	0.08203125	0.999998093	0.001229286	-0.000656128	0.000232697	9.274291992	-2.394104004	2.05078125	0.06146433	-0.032806407	0.011634831	-0.567871094	0.055175781	-0.75390625	892.2	-48.87194742	-70.91356595	64.12724769	-66
19832	0	0.37396431	-0.096040726	0.082569122	0.999999046	0.000864983	-0.000494003	0.000125885	9.349107742	-2.401018143	2.064228058	0.043249138	-0.024700169	0.006294252	-0.570068359	0.05078125	-0.756347656	892.16	-48.90613909	-70.94654343	64.26477766	-66
19833	0	0.373901367	-0.096252441	0.083312988	0.999999046	0.00087738	-0.000411034	0.000236511	9.34753418	-2.406311035	2.082824707	0.043869026	-0.020551685	0.011825563	-0.570068359	0.05078125	-0.756347656	892.1	-48.94250662	-70.96369789	64.40342041	-66
19834	0	0.372093201	-0.095673561	0.082868576	0.999999046	0.000850677	-0.000385284	0.000372887	9.302330017	-2.391839027	2.071714401	0.042533882	-0.019264224	0.018644336	-0.570068359	0.05078125	-0.756347656	892.2	-49.00530288	-70.96709314	64.56457986	-66
19835	0	0.37322998	-0.094421387	0.081787109	0.999999046	0.000892639	-0.000300407	0.000137329	9.330749512	-2.360534668	2.044677734	0.044631965	-0.015020373	0.006866456	-0.572509766	0.051025391	-0.756103516	892.16	-48.99068353	-70.98456019	64.64734619	-66
19836	0	0.372764587	-0.094499588	0.082036018	0.999999046	0.000880241	-0.000364304	6.48499E-05	9.319114685	-2.3624897	2.050900459	0.044012076	-0.018215182	0.003242493	-0.569824219	0.046386719	-0.755859375	892.12	-48.97772589	-71.01318492	64.73489377	-66
19837	0	0.375061035	-0.09375	0.080993652	0.999999046	0.001144409	-0.00039196	5.72205E-05	9.376525879	-2.34375	2.024841309	0.057220473	-0.019598012	0.002861024	-0.572265625	0.046630859	-0.752929688	892.12	-48.9398788	-71.04472666	64.82662687	-66
19838	0	0.374014854	-0.093423843	0.081401825	0.999999046	0.000816345	-0.000225067	6.77109E-05	9.350371361	-2.335596085	2.035045624	0.040817266	-0.011253358	0.003385544	-0.574462891	0.044433594	-0.755371094	892.12	-48.89990995	-71.06294606	64.8782545	-66
19839	0	0.375854492	-0.094421387	0.080078125	0.999999046	0.00050354	-0.000239372	0	9.396362305	-2.360534668	2.001953125	0.025177003	-0.011968613	0	-0.572265625	0.046630859	-0.752929688	892.26	-48.88473663	-71.08825324	64.91186955	-66
19840	0	0.371438026	-0.095255852	0.081398964	0.999999046	0.000121117	-0.000261307	-7.24792E-05	9.285950661	-2.381396294	2.034974098	0.006055832	-0.013065338	-0.003623962	-0.572021484	0.041992188	-0.755371094	892.2	-48.90313644	-71.12147175	64.94143869	-66
19841	0	0.369689941	-0.098144531	0.082336426	0.999999046	0.00044632	-0.000292778	3.43323E-05	9.242248535	-2.453613281	2.058410645	0.02231598	-0.014638901	0.001716614	-0.574462891	0.042236328	-0.752441406	892.14	-48.9161344	-71.14765892	65.00521585	-66
19842	0	0.371623039	-0.097303391	0.082021713	0.999999046	0.000427246	-0.000244141	0.000136375	9.290575981	-2.432584763	2.050542831	0.021362306	-0.012207032	0.006818772	-0.574462891	0.040039063	-0.752197266	892.2	-48.94183864	-71.16125484	65.08302308	-66
19843	0	0.37322998	-0.096801758	0.08203125	0.999999046	0.000434875	-0.000277519	0.000190735	9.330749512	-2.420043945	2.05078125	0.021743776	-0.013875962	0.009536744	-0.576660156	0.040039063	-0.752197266	892.06	-48.98735517	-71.17258263	65.18258801	-66
19844	0	0.371835709	-0.093699455	0.081600189	0.999999046	0.000473976	-0.000125885	0.000231743	9.295892715	-2.342486382	2.04000473	0.023698808	-0.006294251	0.011587144	-0.57421875	0.040039063	-0.755126953	892.22	-48.99888547	-71.1689811	65.24702314	-65
19845	0	0.374206543	-0.094970703	0.081176758	0.999999046	0.000263214	-9.05991E-05	0.000175476	9.355163574	-2.374267578	2.029418945	0.013160706	-0.004529953	0.008773804	-0.574462891	0.040039063	-0.749267578	892.2	-49.01326373	-71.16763339	65.29117442	-65
19846	0	0.372905731	-0.094449043	0.081829071	0.999999046	-4.57764E-05	2.67029E-05	0.000193596	9.32264328	-2.361226082	2.045726776	-0.002288818	0.001335144	0.009679794	-0.57421875	0.037597656	-0.754882813	892.12	-49.03717741	-71.15591813	65.31044194	-65
19847	0	0.372070313	-0.094726563	0.081176758	0.999999046	-0.000270844	8.86917E-05	0.00030899	9.301757813	-2.368164063	2.029418945	-0.013542176	0.004434586	0.015449524	-0.574462891	0.042236328	-0.746582031	892.16	-49.09651021	-71.12957688	65.33629687	-65
19848	0	0.373461723	-0.095246315	0.081617355	0.999999046	-0.000487328	0.000217438	0.000144958	9.336543083	-2.381157875	2.040433884	-0.02436638	0.010871888	0.007247925	-0.576904297	0.042236328	-0.752197266	892.2	-49.11195016	-71.10779912	65.29037624	-65
19849	0	0.374023438	-0.097351074	0.08190918	0.999999046	-0.000289917	8.4877E-05	0.000156403	9.350585938	-2.433776855	2.047729492	-0.01449585	0.004243851	0.00782013	-0.574462891	0.042236328	-0.752441406	892.06	-49.14099951	-71.09492646	65.28232186	-65
19850	0	0.374223709	-0.095075607	0.082953453	0.999999046	-8.58307E-05	5.53131E-05	0.000179291	9.355592728	-2.376890182	2.073836327	-0.004291534	0.002765656	0.008964539	-0.574462891	0.042236328	-0.752441406	892.14	-49.15892718	-71.08229624	65.28785364	-65
19851	0	0.372924805	-0.094970703	0.081787109	0.999999046	-0.000423431	0.000252724	0.000282288	9.323120117	-2.374267578	2.044677734	-0.021171571	0.012636185	0.014114381	-0.574462891	0.044433594	-0.752441406	892.06	-49.18803086	-71.04597728	65.2621509	-65
19852	0	0.372280121	-0.095556259	0.082259178	0.999999046	-0.000620842	0.000297546	0.000231743	9.307003021	-2.388906479	2.056479454	-0.031042102	0.014877321	0.011587144	-0.574462891	0.044433594	-0.755371094	892.06	-49.21732991	-71.01068938	65.21405936	-65
19853	0	0.372741699	-0.097045898	0.082946777	0.999999046	-0.000663757	0.000321388	0.000160217	9.31854248	-2.426147461	2.073669434	-0.033187869	0.016069414	0.008010865	-0.572265625	0.044433594	-0.749755859	892.1	-49.23001545	-70.97977476	65.14692616	-65
19854	0	0.37369442	-0.097886086	0.08293438	0.999999046	-0.000680923	0.000387192	0.000270844	9.342360497	-2.447152138	2.073359489	-0.034046177	0.019359591	0.013542177	-0.572265625	0.046630859	-0.755859375	892.06	-49.25225802	-70.93428049	65.08380451	-65
19855	0	0.371459961	-0.097839355	0.083618164	0.999999046	-0.000591278	0.000329018	8.39233E-05	9.286499023	-2.445983887	2.090454102	-0.029563906	0.016450883	0.004196167	-0.574707031	0.046630859	-0.755615234	892.2	-49.23846079	-70.909268	64.99721055	-65
19856	0	0.370411873	-0.096779823	0.083135605	0.999999046	-2.19345E-05	0.000265121	4.19617E-05	9.260296822	-2.419495583	2.078390121	-0.001096725	0.013256073	0.002098084	-0.572265625	0.046630859	-0.752929688	892.16	-49.16642897	-70.89260645	64.91805358	-65
19857	0	0.372314453	-0.097045898	0.081298828	0.999999046	-0.000213623	0.000275612	-0.000350952	9.307861328	-2.426147461	2.032470703	-0.010681153	0.013780594	-0.017547608	-0.572265625	0.046630859	-0.755859375	892.12	-49.02887341	-70.90917321	64.74504213	-65
19858	0	0.374595642	-0.097551346	0.082377434	0.999999046	-0.000509262	0.000310898	-9.63211E-05	9.364891052	-2.438783646	2.059435844	-0.025463106	0.015544892	-0.004816056	-0.569824219	0.046386719	-0.755859375	892.16	-48.97170849	-70.90098304	64.62175473	-66
19859	0	0.37109375	-0.098693848	0.083068848	0.999999046	-0.000331879	0.00023365	0.000225067	9.27734375	-2.467346191	2.076721191	-0.016593934	0.011682511	0.011253357	-0.570068359	0.05078125	-0.756347656	892.16	-48.98358198	-70.87069499	64.58609131	-65
19860	0	0.370584488	-0.096474648	0.082627296	0.999999046	-0.000340462	0.000226974	0.000369072	9.264612198	-2.411866188	2.065682411	-0.017023087	0.011348725	0.018453599	-0.569824219	0.048583984	-0.756103516	892.06	-49.02930944	-70.82845507	64.59149507	-66
19861	0	0.372619629	-0.098815918	0.081237793	0.999999046	-0.000377655	0.000290871	6.10352E-05	9.315490723	-2.470397949	2.030944824	-0.018882752	0.014543534	0.003051758	-0.567626953	0.05078125	-0.756347656	892.22	-48.99724614	-70.80805931	64.50578494	-66
19862	0	0.372009277	-0.097826958	0.083881378	0.999999046	0.000123978	0.000249863	0.000175476	9.300231934	-2.445673943	2.097034454	0.006198883	0.012493134	0.008773804	-0.570068359	0.05078125	-0.759033203	892.12	-48.94273626	-70.78078602	64.45781905	-66
19863	0	0.374694824	-0.094848633	0.083312988	0.999999046	0.000114441	0.000271797	0.000366211	9.367370605	-2.37121582	2.082824707	0.005722046	0.01358986	0.018310548	-0.570068359	0.05078125	-0.759033203	892.1	-48.92495103	-70.7355054	64.44839488	-66
19864	0	0.374154091	-0.093395233	0.082437515	0.999999046	-0.000365257	0.000415802	0.000281334	9.353852272	-2.334880829	2.060937881	-0.018262864	0.020790101	0.014066697	-0.570068359	0.05078125	-0.756347656	892.26	-48.90814484	-70.68692858	64.38507532	-66
19865	0	0.371337891	-0.094726563	0.081542969	0.999999046	-0.000419617	0.000329018	0.000221252	9.283447266	-2.368164063	2.038574219	-0.020980836	0.016450883	0.011062623	-0.570068359	0.05078125	-0.759033203	892.2	-48.90619589	-70.65023424	64.33174811	-66
19866	0	0.371118546	-0.096791267	0.081827164	0.999999046	-0.000640869	0.000343323	-3.91006E-05	9.277963638	-2.419781685	2.045679092	-0.03204346	0.017166139	-0.001955033	-0.567626953	0.052978516	-0.762451172	892.12	-48.8705249	-70.63501462	64.21069633	-66
19867	0	0.37121582	-0.100891113	0.08203125	0.999999046	-0.000450134	0.000279427	-7.62939E-06	9.280395508	-2.522277832	2.05078125	-0.022506715	0.013971329	-0.00038147	-0.567626953	0.052978516	-0.759521484	892.2	-48.8361111	-70.62180737	64.11683837	-66
19868	0	0.372695923	-0.100656509	0.084039688	0.999999046	4.48227E-05	-4.00543E-05	0.000136375	9.317398071	-2.516412735	2.100992203	0.002241135	-0.002002716	0.006818771	-0.565185547	0.052978516	-0.759521484	892.16	-48.85457615	-70.62017155	64.13761416	-66
19869	0	0.371765137	-0.097717285	0.085205078	0.999999046	0.000320435	0.000180244	0.000152588	9.294128418	-2.442932129	2.130126953	0.016021729	0.009012223	0.007629395	-0.565429688	0.055175781	-0.762695313	892.2	-48.79081242	-70.60048125	64.09889495	-66
19870	0	0.375367165	-0.09552002	0.084240913	0.999999046	-0.000160217	0.000350952	0.000151634	9.384179115	-2.388000488	2.106022835	-0.008010864	0.017547608	0.007581711	-0.565429688	0.052978516	-0.756591797	892.1	-48.74007907	-70.56811434	64.02361268	-66
19871	0	0.370605469	-0.09564209	0.083435059	0.999999046	-0.00075531	0.000412941	1.14441E-05	9.265136719	-2.391052246	2.085876465	-0.037765508	0.020647052	0.000572205	-0.565185547	0.052978516	-0.762451172	892.2	-48.71247551	-70.5432094	63.90061741	-66
19872	0	0.36931324	-0.097546577	0.083042145	0.999999046	-0.000433922	0.00038147	-3.8147E-05	9.232831001	-2.438664436	2.076053619	-0.021696092	0.019073487	-0.001907349	-0.565429688	0.057373047	-0.760009766	892.2	-48.64544708	-70.52493949	63.76903741	-66
19873	0	0.370483398	-0.098388672	0.084472656	0.999999046	-0.000457764	0.000290871	5.34058E-05	9.262084961	-2.459716797	2.111816406	-0.022888185	0.014543534	0.002670288	-0.565429688	0.055175781	-0.756835938	892.12	-48.62302923	-70.50559698	63.68913645	-66
19874	0	0.373779297	-0.099300385	0.085513115	0.999999046	-0.000459671	0.000379562	0.000171661	9.344482422	-2.482509613	2.137827873	-0.022983552	0.01897812	0.008583069	-0.562988281	0.057373047	-0.760009766	892.2	-48.60480587	-70.46932499	63.60849265	-66
19875	0	0.372741699	-0.09576416	0.086486816	0.999999046	-0.000576019	0.000382423	0.000473022	9.31854248	-2.394104004	2.16217041	-0.028800968	0.019121172	0.023651126	-0.563232422	0.059570313	-0.757324219	892.16	-48.66323123	-70.40698959	63.59518441	-67
19876	0	0.372400284	-0.095912933	0.087636948	0.999999046	-0.000826836	0.000396729	0.000239372	9.310007095	-2.397823334	2.190923691	-0.041341788	0.019836429	0.011968614	-0.560791016	0.059326172	-0.763183594	892.2	-48.69670501	-70.3637165	63.52498811	-67
19877	0	0.369506836	-0.098632813	0.086364746	0.999999046	-0.000850677	0.000382423	-7.24792E-05	9.237670898	-2.465820313	2.159118652	-0.042533881	0.019121173	-0.003623963	-0.563232422	0.063964844	-0.760498047	892.12	-48.67026314	-70.34830841	63.38456627	-67
19878	0	0.368416786	-0.101656914	0.086777687	0.999999046	-0.000364304	0.000272751	-1.90735E-05	9.210419655	-2.541422844	2.169442177	-0.01821518	0.013637543	-0.000953674	-0.561035156	0.063964844	-0.763671875	892.12	-48.62610336	-70.33638808	63.28328606	-67
19879	0	0.369873047	-0.102416992	0.085876465	0.999999046	2.28882E-05	0.000214577	8.01086E-05	9.246826172	-2.560424805	2.146911621	0.001144409	0.010728836	0.004005432	-0.561035156	0.063964844	-0.760742188	892.04	-48.57305455	-70.32016644	63.22116294	-67
19880	0	0.370368958	-0.100581169	0.085184097	0.999999046	0.000342369	7.82013E-05	0.000125885	9.259223938	-2.514529228	2.129602432	0.017118454	0.003910065	0.006294251	-0.561035156	0.063964844	-0.760742188	892.26	-48.5262008	-70.31028787	63.20384493	-67
19881	0	0.372009277	-0.098571777	0.087280273	0.999999046	0.000221252	0.000134468	8.39233E-05	9.300231934	-2.464294434	2.182006836	0.011062622	0.006723404	0.004196167	-0.55859375	0.063720703	-0.763671875	892.16	-48.47071396	-70.29971845	63.1602234	-67
19882	0	0.369832993	-0.09871769	0.086628914	0.999999046	5.14984E-05	2.67029E-05	0.000132561	9.245824814	-2.467942238	2.165722847	0.002574921	0.001335144	0.006628037	-0.558349609	0.061523438	-0.766357422	892.22	-48.47079842	-70.29312639	63.15825485	-67
19883	0	0.369384766	-0.100341797	0.086242676	0.999999046	-2.67029E-05	-2.86102E-06	4.19617E-05	9.234619141	-2.508544922	2.156066895	-0.001335144	-0.000143051	0.002098083	-0.55859375	0.063720703	-0.766601563	892.06	-48.46787363	-70.29646905	63.13951943	-67
19884	0	0.370047569	-0.101964951	0.086356163	0.999999046	0.000105858	-0.000165939	0.000109673	9.251189232	-2.549123764	2.158904076	0.005292893	-0.008296967	0.005483627	-0.560791016	0.061767578	-0.760498047	892.12	-48.50352243	-70.3062596	63.18506146	-67
19885	0	0.369445801	-0.100952148	0.087158203	0.999999046	0.000606537	-0.000155449	0.00019455	9.23614502	-2.523803711	2.178955078	0.030326845	-0.007772446	0.009727479	-0.560791016	0.061767578	-0.763427734	892.14	-48.49741292	-70.30783121	63.24443738	-67
19886	0	0.372057915	-0.099467278	0.08588028	0.999999046	0.000463486	-0.000261307	6.48499E-05	9.301447868	-2.486681938	2.147006989	0.023174287	-0.013065339	0.003242493	-0.560791016	0.061767578	-0.763427734	892	-48.50570519	-70.32857954	63.30011055	-67
19887	0	0.367370605	-0.098754883	0.085510254	0.999999046	0.000747681	-0.000376701	1.52588E-05	9.184265137	-2.46887207	2.137756348	0.037384038	-0.01883507	0.00076294	-0.563232422	0.059570313	-0.763183594	892.22	-48.49877513	-70.36230383	63.37735548	-67
19888	0	0.369386673	-0.100039482	0.08745575	0.999999046	0.000834465	-0.000406265	-1.23978E-05	9.234666824	-2.500987053	2.186393738	0.041723257	-0.020313266	-0.000619888	-0.560791016	0.057128906	-0.760253906	892.16	-48.48323889	-70.40052527	63.45732772	-67
19889	0	0.371643066	-0.101867676	0.086791992	0.999999046	0.00063324	-0.000376701	0.000167847	9.29107666	-2.546691895	2.169799805	0.03166199	-0.01883507	0.008392335	-0.560546875	0.057128906	-0.765869141	892.12	-48.52247342	-70.42088147	63.56650083	-67
19890	0	0.371917725	-0.100603104	0.085355759	0.999999046	0.001037598	-0.000511169	0.000411034	9.297943115	-2.515077591	2.133893967	0.051879896	-0.025558478	0.020551687	-0.562988281	0.057373047	-0.762939453	892.12	-48.60014044	-70.43045407	63.76500856	-67
19891	0	0.371032715	-0.09588623	0.086669922	0.999999046	0.001239777	-0.000441551	0.000274658	9.275817871	-2.397155762	2.166748047	0.061988849	-0.022077567	0.013732914	-0.562988281	0.055175781	-0.762695313	892.16	-48.60848091	-70.44648146	63.91533512	-67
19892	0	0.371299744	-0.096365929	0.085846901	0.999999046	0.001032829	-0.000413895	8.39233E-05	9.282493591	-2.409148216	2.146172523	0.051641475	-0.020694737	0.004196168	-0.565185547	0.052978516	-0.759521484	892.2	-48.59305395	-70.47687749	64.01877987	-67
19893	0	0.374511719	-0.096008301	0.084228516	0.999999046	0.000873566	-0.000296593	0.000118256	9.362792969	-2.40020752	2.105712891	0.04367829	-0.014829638	0.005912782	-0.565429688	0.052978516	-0.756591797	892.16	-48.57480714	-70.49561365	64.09851318	-67
19894	0	0.371548653	-0.095825195	0.08551693	0.999999046	0.00038147	-3.8147E-05	9.44138E-05	9.288716316	-2.395629883	2.137923241	0.019073487	-0.001907349	0.004720688	-0.565185547	0.05078125	-0.762207031	892.22	-48.54493269	-70.49688594	64.10687509	-67
19895	0	0.372619629	-0.096740723	0.085388184	0.999999046	0.000358582	-0.000163078	-6.86646E-05	9.315490723	-2.418518066	2.13470459	0.017929078	-0.008153916	-0.003433228	-0.565185547	0.05078125	-0.759277344	892.12	-48.51290548	-70.5217091	64.10993474	-66
19896	0	0.37143898	-0.096079826	0.084846497	0.999999046	0.000308037	-0.00015831	-0.00012207	9.285974503	-2.401995659	2.121162415	0.015401841	-0.007915497	-0.006103516	-0.567626953	0.05078125	-0.762207031	892.2	-48.47388141	-70.55083006	64.09826884	-66
19897	0	0.371582031	-0.097106934	0.086425781	0.999999046	0.000370026	6.96182E-05	-0.000106812	9.289550781	-2.42767334	2.160644531	0.018501282	0.003480911	-0.005340576	-0.567382813	0.048583984	-0.759033203	892.2	-48.3754097	-70.56128819	64.03526295	-66
19898	0	0.372139931	-0.096964836	0.085021973	0.999999046	0.000314713	0	1.90735E-05	9.303498268	-2.424120903	2.125549316	0.015735626	0	0.000953674	-0.565185547	0.048583984	-0.756347656	892.12	-48.32728464	-70.56627745	64.01775264	-66
19899	0	0.369140625	-0.098449707	0.083496094	0.999999046	0.000221252	5.81741E-05	0.000114441	9.228515625	-2.461242676	2.087402344	0.011062622	0.002908707	0.005722046	-0.567382813	0.048583984	-0.764892578	892.2	-48.29669045	-70.55864446	64.00478539	-66
19900	0	0.369169235	-0.095567703	0.083824158	0.999999046	0.000426292	-0.000265121	0.000167847	9.229230881	-2.389192581	2.095603943	0.021314622	-0.013256074	0.008392334	-0.565185547	0.05078125	-0.759277344	892.2	-48.33257217	-70.57115257	64.08279096	-66
19901	0	0.367248535	-0.095397949	0.08392334	0.999999046	0.000148773	-0.000178337	-4.57764E-05	9.181213379	-2.38494873	2.098083496	0.00743866	-0.008916855	-0.002288818	-0.565185547	0.048583984	-0.756347656	892.1	-48.33308411	-70.59536644	64.09428843	-66
19902	0	0.364844322	-0.093326569	0.082598686	0.999999046	-7.43866E-05	-0.000181198	-0.000247955	9.121108055	-2.333164215	2.064967155	-0.00371933	-0.009059906	-0.012397766	-0.567382813	0.046386719	-0.764648438	892.2	-48.31600196	-70.63720868	64.0614279	-65
19903	0	0.364990234	-0.096435547	0.085266113	0.999999046	-0.00043869	-0.000395775	-0.000892639	9.124755859	-2.410888672	2.131652832	-0.021934513	-0.019788746	-0.044631967	-0.564941406	0.046142578	-0.759033203	892.12	-48.25245305	-70.7504466	63.93513631	-65
19904	0	0.377583504	-0.109692574	0.085540771	0.999998093	-0.000432968	-0.000582695	-0.001461983	9.439587593	-2.742314339	2.138519287	-0.021648417	-0.029134763	-0.073099169	-0.567382813	0.044189453	-0.758789063	892.16	-48.10873402	-70.92610263	63.72704371	-65
19905	0	0.374633789	-0.116638184	0.097412109	0.999999046	-9.91821E-05	-0.00051403	-0.000701904	9.365844727	-2.91595459	2.435302734	-0.004959107	-0.025701526	-0.035095219	-0.567382813	0.046386719	-0.756103516	892.2	-48.07684779	-71.0304334	63.67261752	-65
19906	0	0.366916656	-0.120905876	0.105249405	0.999999046	-0.000621796	0.000143051	0.000469208	9.172916412	-3.022646904	2.631235123	-0.031089786	0.007152558	0.023460391	-0.569580078	0.044189453	-0.761474609	892.1	-48.20245958	-70.9829019	63.72771475	-65
19907	0	0.360717773	-0.125	0.108520508	0.999985695	-0.004631042	0.001481056	0.001758575	9.017944336	-3.125	2.713012695	-0.231553156	0.074053141	0.087929164	-0.567382813	0.046386719	-0.756103516	892.16	-48.73801182	-70.72104653	63.74627619	-64
19908	0	0.373567581	-0.184994698	0.120864868	0.999982834	-0.0026474	0.003703117	0.003499031	9.339189529	-4.624867439	3.021621704	-0.132370722	0.185156886	0.174952515	-0.565429688	0.057373047	-0.762939453	892.1	-48.87699549	-70.13725771	63.5798194	-66
19909	0	0.364990234	-0.231323242	0.148254395	0.999799728	0.017102242	0.00548172	0.008781433	9.124755859	-5.783081055	3.706359863	0.855169044	0.274104258	0.439100906	-0.558349609	0.059326172	-0.766357422	892.12	-47.45865063	-68.95924877	64.13343787	-71
19910	0	0.367726326	-0.220183372	0.145170212	0.999745369	0.011230469	0.007236481	0.018135071	9.19315815	-5.504584312	3.629255295	0.561570932	0.361854639	0.906830234	-0.545654297	0.045410156	-0.771728516	892.12	-48.10077819	-66.84779269	66.22408608	-73
19911	0	0.358581543	-0.227355957	0.161010742	0.999501228	-0.00605011	0.011166573	0.028903961	8.964538574	-5.683898926	4.025268555	-0.302555769	0.558421421	1.445438247	-0.534179688	0.058349609	-0.784912109	892.16	-51.31808881	-63.47234846	69.07038876	-64
19912	0	0.345341682	-0.294957161	0.15806675	0.999067307	-0.011846542	0.013901711	0.039117813	8.633542061	-7.373929024	3.951668739	-0.592511269	0.695301624	1.956498731	-0.510009766	0.108642578	-0.790527344	892.12	-55.23833975	-58.89767176	72.08083466	-68
19913	0	0.343566895	-0.309509277	0.147277832	0.998761177	-0.003959656	0.0148592	0.047309875	8.589172363	-7.737731934	3.681945801	-0.198064537	0.743266752	2.36647051	-0.476806641	0.169677734	-0.803222656	892.06	-58.03068242	-53.39830698	74.97102641	-79
19914	0	0.337162971	-0.301310539	0.131159782	0.998450279	0.001279831	0.015275955	0.053483009	8.429074287	-7.532763481	3.27899456	0.064024606	0.764192356	2.675531998	-0.433349609	0.221435547	-0.818603516	892.06	-59.89732838	-47.2062151	77.65508395	-66
19915	0	0.311035156	-0.300292969	0.125671387	0.998270035	-7.9155E-05	0.015151978	0.056808472	7.775878906	-7.507324219	3.141784668	-0.003960032	0.758036034	2.842062593	-0.383056641	0.270751953	-0.831298828	892.16	-61.52885538	-40.64008991	80.05926375	-69
19916	0	0.277108192	-0.295597076	0.124992371	0.99826622	0.003860474	0.014044762	0.057023048	6.927704811	-7.38992691	3.124809265	0.193135288	0.702644117	2.852800955	-0.325439453	0.317626953	-0.844238281	892.2	-62.36081752	-34.07871743	82.20366425	-69
19917	0	0.238342285	-0.280212402	0.114318848	0.998354912	0.004692078	0.01289463	0.055664063	5.958557129	-7.005310059	2.857971191	0.234732587	0.645085226	2.784730011	-0.264648438	0.348876953	-0.855957031	892.2	-62.80728722	-27.70092625	84.14985043	-87
19918	0	0.187225342	-0.273465157	0.114042282	0.998557091	-0.000688553	0.010971069	0.052550316	4.680633545	-6.836628914	2.851057053	-0.034444203	0.548817332	2.62877968	-0.206054688	0.375732422	-0.864257813	892.12	-63.63074398	-21.72628674	85.94733395	-66
19919	0	0.141296387	-0.275268555	0.11895752	0.998800278	-0.000491142	0.008670807	0.048191071	3.532409668	-6.881713867	2.973937988	-0.024566938	0.433713789	2.410517508	-0.147705078	0.402587891	-0.866943359	892.14	-64.22750366	-16.29950871	87.59367195	-72
19920	0	0.086362839	-0.260279655	0.113965988	0.99903965	-0.001839638	0.006097794	0.0433321	2.159070969	-6.506991386	2.849149704	-0.09201132	0.304987238	2.167298272	-0.095947266	0.418701172	-0.87109375	892.12	-64.8219507	-11.4881073	89.15073944	-71
19921	0	0.040405273	-0.268188477	0.119567871	0.999235153	-0.005297661	0.003818512	0.038536072	1.010131836	-6.704711914	2.989196777	-0.26495053	0.190974244	1.927294515	-0.046875	0.434814453	-0.869384766	892.1	-65.67977482	-7.266765995	90.60279936	-75
19922	0	-0.002747536	-0.263655663	0.11842823	0.999435425	-0.003901482	0.001915932	0.033294678	-0.068688393	-6.591391563	2.960705757	-0.195110755	0.095814595	1.665046857	-0.009521484	0.451171875	-0.869873047	892.1	-66.26648301	-3.664022209	91.92935644	-70
19923	0	-0.03894043	-0.247680664	0.120788574	0.999577522	-0.006374359	-0.000376701	0.028343201	-0.973510742	-6.192016602	3.019714355	-0.318762812	-0.018837719	1.417359483	0.020996094	0.461425781	-0.866455078	892.12	-67.05611527	-0.66859475	93.21085432	-83
19924	0	-0.072090149	-0.239445686	0.112154007	0.999703407	-0.007679939	-0.001743317	0.023015976	-1.802253723	-5.986142159	2.803850174	-0.384034846	-0.087174432	1.150912326	0.041503906	0.478515625	-0.860351563	892.2	-67.9329803	1.72454913	94.35591945	-71
19925	0	-0.111938477	-0.222961426	0.120849609	0.999818802	-0.005663872	-0.003093719	0.017887115	-2.798461914	-5.574035645	3.021240234	-0.283210658	-0.154695298	0.894409682	0.060058594	0.491210938	-0.859619141	892.06	-68.53759157	3.533834995	95.38245994	-73
19926	0	-0.123322487	-0.196909904	0.115560532	0.999856949	-0.008654594	-0.004982948	0.013625145	-3.083062172	-4.922747612	2.88901329	-0.432750306	-0.249159267	0.681289655	0.069091797	0.499755859	-0.852050781	892.12	-69.45256848	4.828145123	96.40601559	-85
19927	0	-0.13494873	-0.190795898	0.10723877	0.999930382	-0.005840302	-0.004313469	0.009220123	-3.373718262	-4.769897461	2.680969238	-0.292021779	-0.215678398	0.461016747	0.070556641	0.517578125	-0.842041016	892.16	-70.04613875	5.694196793	97.17715158	-80
19928	0	-0.144952774	-0.151943207	0.093390465	0.999977112	0.000709534	-0.005484581	0.003806114	-3.623819351	-3.79858017	2.33476162	0.035476951	-0.27423111	0.190307139	0.068115234	0.522216797	-0.848144531	892.2	-69.88774127	5.939526801	97.8584877	-76
19929	0	-0.143981934	-0.106994629	0.086547852	0.999970436	0.001296997	-0.005969048	-0.004623413	-3.59954834	-2.674865723	2.163696289	0.064850488	-0.298455297	-0.231172916	0.05859375	0.520263672	-0.847412109	892.1	-69.68971088	5.261925118	98.24972908	-77
19930	0	-0.148160934	-0.085032463	0.081526756	0.999821663	0.01411438	-0.006866455	-0.010426521	-3.704023361	-2.125811577	2.038168907	0.705760765	-0.343343075	-0.521356922	0.037597656	0.516357422	-0.854736328	892.12	-68.04074947	3.925064135	98.49355741	-75
19931	0	-0.133789063	-0.010253906	0.05859375	0.999438286	0.030883789	-0.008009911	-0.010196686	-3.344726563	-0.256347656	1.46484375	1.544478347	-0.400570456	-0.509929672	0.008544922	0.479492188	-0.87890625	892.16	-64.47012035	2.552332374	98.82487902	-76
19932	0	-0.092163086	0.13067627	-0.016845703	0.99929142	0.036660194	-0.004707336	-0.007015228	-2.304077148	3.266906738	-0.421142578	1.833442385	-0.235422377	-0.350844208	-0.018798828	0.411132813	-0.912353516	892.16	-60.25222756	1.659861333	98.9217502	-75
19933	0	0.063437462	0.143975258	-0.115093231	0.999685287	0.017901421	0.002166748	-0.017346382	1.585936546	3.599381447	-2.87733078	0.89516445	0.10834871	-0.86740963	-0.039306641	0.347167969	-0.94921875	892.16	-58.21023735	0.144304849	97.69411713	-80
19934	0	0.362395287	-0.125858307	-0.267699242	0.999651909	-0.00097847	0.004589081	-0.0259552	9.059882164	-3.146457672	-6.692481041	-0.048929167	0.229480654	-1.29791053	-0.052001953	0.318603516	-0.960693359	892.28	-58.29579458	-2.063309841	95.67941119	-75
19935	0	0.365966797	0.120178223	-0.383666992	0.999739647	-0.007263184	-0.01355648	-0.016822815	9.149169922	3.004455566	-9.591674805	-0.363190633	-0.677882727	-0.841213598	-0.073242188	0.3125	-0.967773438	892.26	-59.16837222	-4.492738566	95.91503979	-79
19936	0	1.879307747	-3.390906334	2.558664322	0.988192558	0.081835747	0.042976379	0.122192383	46.98269367	-84.77265835	63.96660805	4.107968	2.157316311	6.133779165	-0.179199219	0.244873047	-0.988037109	892.38	-49.50400979	9.746887386	100.8292031	-71
19937	0	-0.377868652	-0.36126709	0.190063477	0.997454643	0.030540466	0.019230843	0.061489105	-9.446716309	-9.031677246	4.751586914	1.528320043	0.962358658	3.077066047	0.076904297	0.166748047	-1.024658203	892.16	-45.27320784	16.39475458	104.0159611	-70
19938	0	-0.086004257	-0.479334831	0.400351524	0.999018669	4.95911E-05	-0.031858444	-0.030755997	-2.15010643	-11.98337078	10.00878811	0.002480364	-1.593443263	-1.538302856	0.065917969	0.095947266	-1.032714844	892.22	-45.25321542	11.28042996	103.9804859	-72
19939	0	0.007446289	-0.200500488	0.30682373	0.99932003	-0.011333466	-0.022585869	-0.026836395	0.186157227	-5.012512207	7.670593262	-0.566801686	-1.129549338	-1.342123818	0.006591797	0.093505859	-1.031982422	892.2	-46.60633278	7.227255645	103.6196839	-78
19940	0	-0.189248085	-0.164250374	0.234745026	0.999033928	-0.03148365	-0.019329071	-0.023793221	-4.731202126	-4.106259346	5.868625641	-1.574689563	-0.966764852	-1.190044222	-0.045410156	0.135498047	-1.023925781	892.2	-50.2350433	3.682952894	103.4249439	-75
19941	0	-0.195495605	-0.261047363	0.245361328	0.998398781	-0.05513382	-0.011076927	-0.005966187	-4.887390137	-6.526184082	6.134033203	-2.758162428	-0.554141988	-0.298468556	-0.089355469	0.210449219	-1.007568359	892.22	-56.52698291	2.351611981	104.018519	-72
19942	0	0.146945	-0.341604233	0.16287899	0.999564171	-0.028522491	-0.002119064	0.007299423	3.673624992	-8.54010582	4.071974754	-1.426331752	-0.105968609	0.365024182	-0.106201172	0.313720703	-0.977539063	892.12	-59.77159471	2.900201544	104.665352	-73
19943	0	0.178283691	-0.351013184	0.134399414	0.999915123	-0.012405396	-0.000636101	0.003902435	4.457092285	-8.77532959	3.359985352	-0.620287302	-0.031805937	0.195127279	-0.101318359	0.358154297	-0.955566406	892.2	-61.1867046	3.210090124	104.9461662	-75
19944	0	-0.036881447	-0.348152161	0.231099129	0.999919891	-0.01004982	0.002135277	0.007296562	-0.922036171	-8.703804016	5.777478218	-0.502504297	0.106766666	0.364837766	-0.097412109	0.373535156	-0.951171875	892.22	-62.33397286	4.020703821	105.1229655	-76
19945	0	-0.026367188	-0.346557617	0.186889648	0.999794006	-0.018202782	0.002895355	0.008396149	-0.659179688	-8.66394043	4.672241211	-0.910201322	0.144777661	0.419836142	-0.086914063	0.402099609	-0.945556641	892.2	-64.41630897	4.988433371	105.2525352	-79
19946	0	0.007299423	-0.375193596	0.117588997	0.999947548	-0.009105682	0.001386642	0.004302979	0.18248558	-9.379839897	2.939724922	-0.455291961	0.069333317	0.215152632	-0.076904297	0.4375	-0.92578125	892.22	-65.46359102	5.459979933	105.3120474	-79
19947	0	-0.029663086	-0.376831055	0.161987305	0.999995232	0.002494812	0.001381874	-0.000797272	-0.741577148	-9.420776367	4.049682617	0.124740783	0.069093805	-0.039863645	-0.070068359	0.446289063	-0.921142578	892.22	-65.20506347	5.401039629	105.122467	-79
19948	0	-0.039189339	-0.359043121	0.165624619	0.999999046	-4.673E-05	0.001218796	-9.53674E-05	-0.979733467	-8.976078033	4.140615463	-0.002336503	0.060939804	-0.004768373	-0.069824219	0.441650391	-0.929443359	892.22	-65.23264722	5.408703256	104.9831734	-77
19949	0	-0.047729492	-0.349975586	0.170654297	0.999999046	-0.000339508	0.000351906	-0.000198364	-1.193237305	-8.749389648	4.266357422	-0.016975404	0.017595292	-0.009918213	-0.064941406	0.441650391	-0.9296875	892.22	-65.28507334	5.365448478	104.9275911	-78
19950	0	-0.047325134	-0.363768578	0.150232315	0.999992371	0.003533363	-0.000563622	-0.000868797	-1.183128357	-9.094214439	3.755807877	0.176668566	-0.02818114	-0.043439963	-0.067382813	0.443847656	-0.9296875	892.26	-64.8884294	5.209892051	104.9361276	-79
19951	0	-0.037902832	-0.352905273	0.169616699	0.99996376	0.008156776	-0.000751495	-0.002124786	-0.947570801	-8.822631836	4.24041748	0.407843689	-0.037575217	-0.106240587	-0.069335938	0.432861328	-0.928710938	892.28	-63.96555161	4.916076256	104.9006563	-79
19952	0	-0.05255127	-0.367032051	0.179916382	0.999958992	0.005825996	-0.00220108	-0.006567955	-1.313781738	-9.175801277	4.497909546	0.291303798	-0.110055519	-0.328402235	-0.070800781	0.417236328	-0.941894531	892.26	-63.31559782	4.094493895	104.7799523	-79
19953	0	-0.032958984	-0.393310547	0.144592285	0.999753952	0.012372017	-0.006515503	-0.017211914	-0.823974609	-9.832763672	3.614807129	0.618651558	-0.325801853	-0.860666254	-0.086914063	0.402099609	-0.945556641	892.18	-61.92167319	1.965457756	104.5207312	-74
19954	0	0.257302284	-0.484184265	0.245265961	0.998785019	0.035305977	-0.012137413	-0.032148361	6.432557106	-12.10460663	6.131649017	1.76601379	-0.607116434	-1.608069065	-0.118408203	0.365234375	-0.958007813	892.16	-57.88349601	-1.967199704	103.8580253	-72
19955	0	0.822998047	-0.587097168	0.199035645	0.996949196	0.066509247	-0.016066551	-0.037540436	20.57495117	-14.6774292	4.975891113	3.32884747	-0.804145302	-1.878932489	-0.166015625	0.266601563	-0.981933594	892.16	-50.18854531	-6.617852263	102.7962011	-74
19956	0	0.857701302	-0.540356636	0.027953148	0.997254372	0.041480064	-0.035739899	-0.049844742	21.44253254	-13.5089159	0.698828697	2.075903008	-1.788631823	-2.494519982	-0.221435547	0.119384766	-0.992675781	892.16	-45.30992996	-13.72823918	101.9026962	-77
19957	0	0.491882324	-0.420532227	0.277160645	0.994492531	0.018192291	-0.076666832	-0.069099426	12.29705811	-10.51330566	6.929016113	0.911287971	-3.840393757	-3.461327388	-0.319824219	0.020751953	-0.967529297	892.2	-43.42246351	-25.70558424	102.2288616	-83
19958	0	-0.068195343	-0.214035988	0.45255661	0.992446899	0.030091286	-0.089093208	-0.078775406	-1.704883575	-5.350899696	11.31391525	1.508363681	-4.465909532	-3.948716661	-0.471923828	-0.073486328	-0.887451172	892.1	-40.01116647	-39.48675942	102.1088221	-88
19959	0	-1.063781738	0.474609375	0.414489746	0.994468689	0.015725136	-0.080818176	-0.06520462	-26.59454346	11.86523438	10.36224365	0.78770948	-4.048374806	-3.266254629	-0.598632813	-0.219482422	-0.772705078	892.12	-38.22776314	-51.48319219	102.0854863	-73
19960	0	-0.653514862	-0.720691681	1.098688126	0.998156548	-0.059643745	-0.011072159	0.001770973	-16.33787155	-18.01729202	27.46720314	-2.98402093	-0.553948338	0.088603106	-0.666503906	-0.281005859	-0.6796875	892.26	-46.31318147	-52.28736866	103.8107093	-73
19961	0	0.689575195	-0.15246582	0.002258301	0.999295235	-0.026554108	-0.017798424	0.019645691	17.23937988	-3.811645508	0.05645752	-1.328017118	-0.890130134	0.982515178	-0.677490234	-0.180908203	-0.704833984	892.12	-53.20544983	-51.9064538	108.7199845	-77
19962	0	0.400617599	-0.185444832	0.02654171	0.999720573	0.003570557	-0.015182495	0.017739296	10.01543999	-4.636120796	0.663542747	0.178544437	-0.759195365	0.887047297	-0.710693359	-0.139404297	-0.677490234	892.18	-56.06068388	-51.28239945	112.9019997	-80
19963	0	0.251525879	-0.221130371	0.176086426	0.998785019	-0.04556942	-0.005893707	0.017772675	6.288146973	-5.528259277	4.402160645	-2.279393709	-0.294804703	0.8889936	-0.731689453	-0.100830078	-0.662353516	892.22	-63.23746696	-49.8898539	115.4633905	-80
19964	0	0.319935799	-0.278394699	0.084990501	0.999708176	-0.011289597	-0.013958931	0.016162872	7.998394966	-6.959867477	2.124762535	-0.564534742	-0.698014447	0.808222234	-0.739990234	-0.020263672	-0.654052734	892.18	-67.12987312	-48.90322995	118.888669	-82
19965	0	0.322631836	-0.262817383	0.140808105	0.999504089	-0.026885033	-0.005771637	0.015319824	8.065795898	-6.57043457	3.520202637	-1.344473716	-0.288629525	0.76611776	-0.756347656	0.018066406	-0.635986328	892.16	-71.59319665	-47.51623051	120.7552276	-80
19966	0	0.270845413	-0.302758217	0.096396446	0.999744415	-0.017302513	-0.009131432	0.011273384	6.77113533	-7.568955421	2.409911156	-0.865199187	-0.456610385	0.563717113	-0.759033203	0.076171875	-0.626220703	892.2	-75.05048257	-46.59919811	122.7691426	-80
19967	0	0.301818848	-0.279724121	0.016113281	0.999912262	-0.00940609	-0.00510025	0.007804871	7.545471191	-6.993103027	0.402832031	-0.470318239	-0.255019968	0.390254939	-0.770263672	0.110107422	-0.608154297	892.22	-76.95044613	-45.89330404	123.9056731	-76
19968	0	0.273651123	-0.301796913	0.096916199	0.999949455	0.005772591	-0.00743103	0.003440857	6.841278076	-7.544922829	2.422904968	0.288634361	-0.37155773	0.172045725	-0.7734375	0.123535156	-0.600341797	892.22	-77.23545138	-45.7175473	125.2181434	-74
19969	0	0.343322754	-0.275268555	0.138244629	0.999974251	-0.002925873	0.005955696	0.002677917	8.583068848	-6.881713867	3.456115723	-0.146294889	0.297787347	0.133897017	-0.778320313	0.119384766	-0.585449219	892.12	-76.96017353	-45.28539405	124.3737054	-76
19970	0	0.224515915	-0.375264168	-0.191418648	0.999792099	0.019047737	0.00716114	-0.000189781	5.612897873	-9.381604195	-4.785466194	0.952452604	0.358081741	-0.009489715	-0.769042969	0.132324219	-0.601318359	892.2	-73.9877378	-45.11601196	123.2482478	-85
19971	0	0.33215332	-0.195800781	0.133728027	0.999634743	0.013931274	0.022480965	-0.005477905	8.303833008	-4.895019531	3.343200684	0.696648437	1.12418494	-0.273928575	-0.757324219	0.091796875	-0.621826172	892.2	-69.75310996	-44.92990209	119.5269786	-85
19972	0	0.261403084	-0.391690254	-0.040810585	0.999515533	0.018091202	0.023335457	-0.009800911	6.535077095	-9.792256355	-1.020264626	0.904706072	1.166961143	-0.490124634	-0.727539063	0.079345703	-0.66015625	892.28	-64.80335339	-44.94875612	115.4469356	-79
19973	0	0.300231934	-0.336547852	0.10144043	0.998814583	0.037395477	0.024922371	-0.018703461	7.50579834	-8.413696289	2.536010742	1.870513016	1.246611156	-0.935542723	-0.698242188	0.020019531	-0.700195313	892.12	-56.97144311	-45.44664773	110.4391383	-75
19974	0	0.352846146	-0.380012512	0.165781021	0.998150826	0.047386169	0.02838707	-0.025359154	8.821153641	-9.500312805	4.144525528	2.370769749	1.420228875	-1.268739704	-0.660400391	-0.063720703	-0.741699219	892.22	-47.11047426	-45.74999401	104.2262363	-73
19975	0	0.506591797	-0.203491211	-0.045227051	0.996951103	0.069972992	0.016724586	-0.030200958	12.66479492	-5.087280273	-1.13067627	3.502209338	0.837080155	-1.511584328	-0.612304688	-0.183349609	-0.760498047	892.26	-35.07963265	-46.60824406	98.63288333	-78
19976	0	0.51749897	-0.133593559	-0.202429771	0.998275757	0.055566788	0.004631996	-0.018321037	12.93747425	-3.339838982	-5.060744286	2.779936993	0.231732983	-0.916578615	-0.578125	-0.318115234	-0.751220703	892.2	-26.5310768	-47.27575176	95.58404365	-75
19977	0	0.436828613	-0.017944336	-0.010070801	0.99982357	0.015434265	-0.009238243	-0.005371094	10.92071533	-0.448608398	-0.25177002	0.771758591	-0.46193929	-0.268570464	-0.565429688	-0.404785156	-0.715576172	892.22	-24.69779867	-48.55839999	95.43586454	-69
19978	0	0.572687149	0.123077393	0.222174644	0.999258995	-0.024259567	-0.022785187	0.019293785	14.31717873	3.076934814	5.554366112	-1.213277752	-1.139540532	0.964927361	-0.584472656	-0.413085938	-0.693603516	892.1	-31.19734403	-49.90322016	100.2978057	-76
19979	0	0.579528809	0.034973145	0.278808594	0.998490334	0.010643005	-0.031752586	0.043518066	14.48822021	0.874328613	6.970214844	0.532418066	-1.588428272	2.176998315	-0.637695313	-0.342041016	-0.679199219	892.1	-37.38793708	-50.18028667	109.8395747	-80
19980	0	0.618469238	0.01373291	0.295166016	0.99846077	0.016952515	-0.027667046	0.044960022	15.46173096	0.343322754	7.379150391	0.848060638	-1.384062059	2.249154517	-0.704833984	-0.299316406	-0.618164063	892.12	-42.57085003	-49.38228718	119.0535977	-75
19981	0	0.61214447	-0.016033173	0.485434532	0.997460365	0.058710098	-0.009055138	0.039258003	15.30361176	-0.400829315	12.1358633	2.937991122	-0.453140341	1.964562628	-0.750244141	-0.26171875	-0.572509766	892.12	-40.42240746	-47.26166974	125.0861915	-84
19982	0	0.521449089	0.108021736	0.501957893	0.999375343	0.022382736	0.014625549	0.023076057	13.03622723	2.700543404	12.54894733	1.119369609	0.731429584	1.154042882	-0.762207031	-0.270019531	-0.545166016	892.2	-38.85502091	-44.37212771	126.4682103	-75
19983	0	0.370666504	-0.055786133	0.469299316	0.9998312	-0.003124237	0.018055916	1.14441E-05	9.266662598	-1.39465332	11.73248291	-0.156220596	0.902846322	0.000572237	-0.743652344	-0.246582031	-0.57421875	892.2	-37.97460057	-42.83504496	124.6781821	-67
19984	0	0.249167442	-0.142019272	0.529093742	0.99845314	0.048326492	0.012030602	-0.024698257	6.229186058	-3.550481796	13.22734356	2.417570833	0.601840314	-1.235549777	-0.713867188	-0.265380859	-0.594482422	892.12	-29.47868411	-43.33347711	120.3285457	-69
19985	0	0.364685059	-0.051452637	0.58013916	0.997415543	0.044861794	0.022781372	-0.051273346	9.117126465	-1.286315918	14.503479	2.245023424	1.140050585	-2.565877413	-0.671630859	-0.366943359	-0.582519531	892.1	-18.18341371	-43.3804363	111.461961	-76
19986	0	0.431225777	0.048866272	0.545043945	0.994258881	0.048327446	0.043946266	-0.084742546	10.78064442	1.221656799	13.62609863	2.421006699	2.201527572	-4.245253759	-0.583007813	-0.4921875	-0.579833984	892.22	-3.108549521	-40.24614423	97.49456736	-69
19987	0	0.503234863	0.155029297	0.306091309	0.990659714	0.010655403	0.060775757	-0.12159729	12.58087158	3.875732422	7.652282715	0.534435103	3.048284278	-6.098864526	-0.412597656	-0.635986328	-0.588867188	892.18	8.365935012	-32.59354825	80.87902844	-66
19988	0	0.57011795	-0.120879173	0.032690048	0.986086845	-0.04943943	0.067747116	-0.143520355	14.25294876	-3.021979332	0.817251205	-2.483499703	3.403152947	-7.209483561	-0.159423828	-0.691894531	-0.64453125	892.1	10.55832364	-22.1376194	64.50745801	-73
19989	0	0.653564453	-0.17364502	-0.09765625	0.986811638	-0.048774719	0.062134743	-0.141288757	16.33911133	-4.341125488	-2.44140625	-2.449513577	3.120466879	-7.095658053	0.124511719	-0.619873047	-0.727050781	892.12	9.587802976	-12.23564114	49.27736291	-65
19990	0	0.539790154	-0.142217636	-0.164627075	0.989702225	-0.053471565	0.040036201	-0.126599312	13.49475384	-3.555440903	-4.11567688	-2.682793528	2.008709895	-6.351783661	0.361083984	-0.468017578	-0.755615234	892.16	5.690451031	-5.755983623	35.31127497	-61
19991	0	0.408081055	-0.151489258	-0.049926758	0.992787361	-0.034793854	0.004059792	-0.114654541	10.20202637	-3.787231445	-1.248168945	-1.743887238	0.203479004	-5.746549153	0.498535156	-0.281494141	-0.764404297	892.06	2.927766066	-4.341918197	22.11707717	-67
19992	0	0.298579216	-0.225376129	-0.017386436	0.993447304	0.006806374	-0.037338257	-0.107804298	7.4644804	-5.634403229	-0.434660912	0.341063956	-1.871001263	-5.40201915	0.527832031	-0.129150391	-0.778564453	892.06	5.151429419	-7.80188378	9.333126456	-72
19993	0	0.285888672	-0.333190918	0.054443359	0.992433548	0.023812294	-0.066665649	-0.100315094	7.147216797	-8.329772949	1.361083984	1.193626487	-3.341714363	-5.028442584	0.470458984	-0.049804688	-0.816894531	892.22	10.37668555	-13.89341296	-3.387891506	-69
19994	0	0.273900032	-0.276583672	0.016239166	0.994784355	0.01492691	-0.061210632	-0.080212593	6.847500801	-6.914591789	0.405979156	0.747645732	-3.065863381	-4.017616588	0.357910156	-0.012939453	-0.863037109	892.12	15.26465081	-18.74921616	-14.40438196	-72
19995	0	0.227905273	-0.324951172	-0.015930176	0.996468544	-0.005153656	-0.059298515	-0.059223175	5.697631836	-8.123779297	-0.398254395	-0.257986553	-2.968420781	-2.964649327	0.256835938	0.021484375	-0.892089844	891.94	17.99926206	-23.36572879	-23.49645954	-73
19996	0	0.193006516	-0.239073753	0.139699936	0.997173309	0.003686905	-0.063319206	-0.040276527	4.825162888	-5.976843834	3.492498398	0.184519129	-3.168946605	-2.015725913	0.147216797	0.034179688	-0.910400391	892.1	21.81112067	-28.66136397	-31.11139787	-63
19997	0	0.246154785	-0.374145508	0.027099609	0.997312546	-0.031928062	-0.056785583	-0.033508301	6.153869629	-9.353637695	0.677490234	-1.597834514	-2.841824973	-1.676917276	0.041503906	0.059814453	-0.912353516	892.16	21.78718904	-33.32586292	-38.10023815	-75
19998	0	0.256806374	-0.363087654	0.196504593	0.997695923	-0.015589714	-0.058478355	-0.030640602	6.42015934	-9.077191353	4.912614822	-0.780084758	-2.926164878	-1.533207511	-0.062744141	0.101318359	-0.91015625	892.1	24.24468235	-38.17554279	-45.32475387	-65
19999	0	0.458129883	-0.427429199	0.301574707	0.997513771	-0.021385193	-0.063639641	-0.021396637	11.45324707	-10.68572998	7.539367676	-1.070146465	-3.184621109	-1.070719144	-0.166259766	0.127197266	-0.895019531	892.06	26.43840723	-43.78627116	-52.38079493	-63
20000	0	0.590542793	-0.40363121	0.525339127	0.997800827	0.006549835	-0.063450813	0.01800251	14.76356983	-10.09078026	13.13347816	0.327732014	-3.174868095	0.900785851	-0.279541016	0.146972656	-0.858398438	892.12	28.84820433	-51.25754276	-54.65481024	-69
20001	0	0.62713623	-0.236633301	0.579589844	0.995321274	0.016453743	-0.055534363	0.077327728	15.67840576	-5.91583252	14.48974609	0.823972433	-2.781056205	3.872426867	-0.370849609	0.154785156	-0.831054688	892.12	22.87120759	-60.95857712	-45.24987454	-72
20002	0	0.830557823	-0.0912323	0.545907974	0.991803169	0.027456284	-0.039960861	0.118211746	20.76394558	-2.280807495	13.64769936	1.376577025	-2.003519642	5.92678807	-0.423339844	0.198974609	-0.794189453	892.06	-0.812147499	-68.33229124	-15.75939132	-64
20003	0	0.847229004	-0.028747559	0.346862793	0.991134644	0.029660225	-0.018959045	0.128112793	21.1807251	-0.718688965	8.671569824	1.487409306	-0.950763545	6.424636396	-0.416992188	0.265625	-0.782714844	892.06	-33.30341408	-65.95459963	22.93631243	-63
20004	0	0.654453278	-0.022636414	0.214736938	0.991697311	0.024942398	-0.008994102	0.125823975	16.36133194	-0.565910339	5.368423462	1.25058252	-0.450953726	6.308666183	-0.367431641	0.333007813	-0.782226563	892.1	-51.58116281	-56.7241146	46.83204792	-79
20005	0	0.436279297	-0.038574219	0.123291016	0.992870331	0.033238411	-0.006641388	0.114276886	10.90698242	-0.964355469	3.082275391	1.665881382	-0.332860814	5.727462032	-0.290771484	0.383544922	-0.802246094	892.16	-58.15610526	-46.3105983	59.94769429	-72
20006	0	0.385044098	-0.070607185	0.079312325	0.994718552	0.0518713	-0.00584507	0.088366508	9.626102448	-1.765179634	1.982808113	2.598139898	-0.292769014	4.426119115	-0.216796875	0.387451172	-0.823974609	892.12	-57.63215332	-38.00715712	67.85630554	-74
20007	0	0.364074707	-0.049865723	0.015625	0.997217178	0.048146248	-0.000709534	0.056907654	9.101867676	-1.246643066	0.390625	2.409547578	-0.035509625	2.848024623	-0.166503906	0.336669922	-0.857421875	892.12	-54.75125199	-32.58480995	72.24520064	-80
20008	0	0.359734535	-0.046440125	-0.001817703	0.999492645	0.022447586	0.002282143	0.02244854	8.99336338	-1.161003113	-0.045442581	1.122568892	0.114126407	1.122616584	-0.139892578	0.281982422	-0.886230469	892.16	-53.00097715	-30.32382794	73.65855015	-89
20009	0	0.300720215	-0.070800781	-0.029174805	0.999844551	-0.015613556	0.002083778	-0.007843018	7.518005371	-1.770019531	-0.729370117	-0.780718089	0.104194297	-0.392171119	-0.127197266	0.266113281	-0.894287109	892.1	-54.38905989	-30.8912285	72.73395975	-82
20010	0	0.267662048	-0.095134735	0.007417679	0.998723984	-0.039626122	-0.000971794	-0.031287193	6.691551208	-2.378368378	0.185441971	-1.982149119	-0.048610381	-1.565025298	-0.134033203	0.310791016	-0.880126953	892.16	-57.75140514	-33.92473985	70.40112255	-71
20011	0	0.286254883	-0.101806641	0.083129883	0.998343468	-0.032646179	0.003182411	-0.047264099	7.15637207	-2.545166016	2.07824707	-1.633210739	0.159208467	-2.364510522	-0.163085938	0.365478516	-0.857177734	892.16	-59.22968878	-38.36127715	66.43838417	-67
20012	0	0.287158012	-0.109434128	0.097925186	0.998169899	-0.021615028	0.00299263	-0.056391716	7.17895031	-2.735853195	2.448129654	-1.081411077	0.149722831	-2.821306791	-0.193115234	0.393310547	-0.834472656	892.16	-58.57028834	-43.73873179	61.53534181	-82
20013	0	0.292297363	-0.130371094	0.180603027	0.998178482	0.001473427	-0.002326965	-0.060264587	7.307434082	-3.259277344	4.515075684	0.073716101	-0.116418956	-3.015060098	-0.235839844	0.388183594	-0.822998047	892.16	-54.61331555	-49.67831078	56.19271742	-63
20014	0	0.30668354	-0.130821228	0.244415283	0.997714996	0.023245811	-0.008605003	-0.062839508	7.667088509	-3.270530701	6.11038208	1.163176357	-0.430578062	-3.144369909	-0.288330078	0.338623047	-0.830566406	892.12	-46.94764292	-55.9125038	49.76731431	-61
20015	0	0.386474609	-0.130310059	0.260559082	0.996847153	0.03381443	-0.016960144	-0.069740295	9.661865234	-3.257751465	6.513977051	1.692500339	-0.8488994	-3.490683499	-0.345947266	0.244873047	-0.848632813	892.12	-35.01449671	-62.66482493	40.26305026	-77
20016	0	0.518620491	-0.125601768	0.248351097	0.996484756	0.021379471	-0.021050453	-0.078210831	12.96551228	-3.140044212	6.208777428	1.070227695	-1.053757512	-3.915129505	-0.400634766	0.12890625	-0.838867188	892.18	-16.8791063	-68.84182765	22.99097054	-60
20017	0	0.565734863	-0.138977051	0.266540527	0.996986389	-0.000582695	-0.014801025	-0.076141357	14.14337158	-3.47442627	6.663513184	-0.029164047	-0.740795424	-3.810896047	-0.446533203	0.032714844	-0.825195313	892.12	6.938966127	-71.3549365	-2.424748601	-64
20018	0	0.431639671	-0.138959885	0.265933037	0.998535156	-0.01380825	-0.003750801	-0.052167892	10.79099178	-3.473997116	6.64832592	-0.690749683	-0.187631639	-2.609668426	-0.470214844	-0.030761719	-0.818603516	892.12	22.37339358	-70.24189412	-20.43984022	-75
20019	0	0.298400879	-0.093200684	0.201721191	0.999612808	-0.017416954	-0.000217438	-0.021659851	7.460021973	-2.33001709	5.043029785	-0.870959869	-0.010873288	-1.083132046	-0.471923828	-0.046386719	-0.814453125	892.12	26.51834964	-69.23058915	-26.96439102	-64
20020	0	0.265632629	-0.047673225	0.1477108	0.999825478	-0.018521309	-0.000419617	-0.002259254	6.640815735	-1.191830635	3.692770004	-0.926119214	-0.020982053	-0.112969282	-0.467529297	-0.035400391	-0.821289063	892.1	25.03867877	-69.15607589	-27.61104506	-60
20021	0	0.306030273	-0.076965332	0.101806641	0.999239922	-0.038070679	-0.002127647	0.008033752	7.650756836	-1.924133301	2.545166016	-1.904016	-0.106409311	0.401789348	-0.469482422	0.004882813	-0.812988281	892.06	18.59800198	-69.72239712	-25.31532776	-59
20022	0	0.384092331	-0.152661324	0.111205101	0.999080658	-0.040678978	-0.004439354	0.012740135	9.602308273	-3.816533089	2.780127525	-2.034572072	-0.222035705	0.63720193	-0.47265625	0.080566406	-0.810546875	892.12	10.30391606	-70.58101607	-21.38009238	-60
20023	0	0.441040039	-0.19152832	0.13079834	0.999527931	-0.02684021	-0.003890038	0.014427185	11.02600098	-4.788208008	3.269958496	-1.342221658	-0.194532481	0.721472756	-0.473876953	0.154052734	-0.793457031	892.1	2.528216262	-71.21155069	-16.36171128	-65
20024	0	0.3738451	-0.180314064	0.142314911	0.999827385	-0.008522987	-0.002269745	0.01629734	9.34612751	-4.507851601	3.557872772	-0.426173762	-0.11349374	0.814913664	-0.473876953	0.205322266	-0.780273438	892.12	-4.114534518	-71.44449463	-10.37368755	-60
20025	0	0.328125	-0.133117676	0.120788574	0.999725342	0.005818367	-0.003314972	0.022426605	8.203125	-3.327941895	3.019714355	0.290944917	-0.165763733	1.121432663	-0.472412109	0.227539063	-0.779296875	892.12	-11.34106576	-71.4675295	-2.058357327	-61
20026	0	0.388426781	-0.089793205	0.090830803	0.999363899	0.017812729	-0.004610062	0.030545235	9.710669518	-2.244830132	2.270770073	0.890825301	-0.23055196	1.527585586	-0.465820313	0.238525391	-0.780517578	892.2	-19.80672016	-71.02022853	9.008991299	-68
20027	0	0.452026367	-0.068603516	0.059936523	0.999013901	0.01882267	-0.005096436	0.039867401	11.30065918	-1.715087891	1.498413086	0.941442728	-0.254905504	1.994025019	-0.456298828	0.238037109	-0.781005859	892.1	-30.07171665	-69.59436036	22.18356475	-59
20028	0	0.49518013	-0.046693802	0.055624962	0.998672485	0.015514374	-0.006234169	0.048714638	12.37950325	-1.167345047	1.390624046	0.776062054	-0.311846425	2.436810043	-0.444824219	0.250976563	-0.788574219	892.1	-40.86453586	-66.89511606	35.70936597	-67
20029	0	0.447753906	-0.036376953	0.071533203	0.998579979	0.009670258	-0.006033897	0.052028656	11.19384766	-0.909423828	1.788330078	0.483741784	-0.301837699	2.602664375	-0.429199219	0.277099609	-0.788574219	892.12	-49.88829363	-63.09458135	46.88889116	-66
20030	0	0.40017128	-0.069052696	0.078054428	0.998888969	0.004104614	-0.006858826	0.046433449	10.004282	-1.726317406	1.951360703	0.205306723	-0.343068297	2.322532301	-0.409423828	0.314208984	-0.784179688	892.12	-56.42460455	-59.27436995	54.87909518	-63
20031	0	0.355102539	-0.090270996	0.071289063	0.999238014	0.002761841	-0.008986473	0.03786087	8.877563477	-2.256774902	1.782226563	0.13812709	-0.449437698	1.893523996	-0.392089844	0.347167969	-0.779296875	892.06	-61.09960534	-56.0731166	60.7656575	-69
20032	0	0.349622726	-0.07817173	0.099205971	0.999476433	0.010365486	-0.010656357	0.028717041	8.740568161	-1.954293251	2.480149269	0.518364674	-0.532910743	1.436102406	-0.383544922	0.369140625	-0.778564453	892.12	-63.65081434	-53.70457756	65.29001518	-75
20033	0	0.327880859	-0.041931152	0.091308594	0.999713898	0.014431953	-0.008274078	0.017181396	8.197021484	-1.048278809	2.282714844	0.721666475	-0.413743364	0.859151735	-0.37890625	0.373291016	-0.782226563	892.12	-64.29518642	-52.34011209	68.09903709	-70
20034	0	0.310222626	-0.04052639	0.079777718	0.99990654	0.009095192	-0.009919167	0.002305031	7.755565643	-1.013159752	1.99444294	0.454773729	-0.495973739	0.115255122	-0.383056641	0.362304688	-0.783935547	892	-64.74916387	-52.58647916	69.91070481	-69
20035	0	0.345275879	-0.080688477	0.115966797	0.999775887	0.007713318	-0.01355648	-0.014293671	8.631896973	-2.017211914	2.899169922	0.385694669	-0.677874594	-0.714736857	-0.401611328	0.349609375	-0.775878906	892.1	-64.83343501	-54.73185966	71.0143023	-71
20036	0	0.384694099	-0.124414444	0.163271904	0.999441147	0.013807297	-0.011813164	-0.028030396	9.617352486	-3.110361099	4.0817976	0.690493298	-0.590768095	-1.401780565	-0.438476563	0.317626953	-0.774169922	892.1	-62.94779007	-58.21764344	70.54077457	-75
20037	0	0.370361328	-0.109558105	0.157043457	0.999345779	0.00780201	-0.005321503	-0.034893036	9.259033203	-2.738952637	3.926086426	0.390185487	-0.266133116	-1.745031978	-0.469482422	0.265380859	-0.770996094	892.12	-59.62420719	-62.0267306	67.65441345	-67
20038	0	0.350583076	-0.032600403	0.117058754	0.998750687	-0.037470818	-0.000691414	-0.033041	8.764576912	-0.815010071	2.926468849	-1.874321226	-0.034585093	-1.652738113	-0.491943359	0.23046875	-0.769775391	892.06	-60.19112393	-65.35671695	63.51603466	-61
20039	0	0.386657715	-0.257324219	0.109191895	0.997390747	-0.069396019	0.00825119	-0.018070221	9.666442871	-6.433105469	2.729797363	-3.472821224	0.41291862	-0.904297505	-0.506103516	0.277832031	-0.746826172	892.12	-64.06288224	-66.75318866	59.14059804	-60
20040	0	0.362399101	-0.310899734	0.067256927	0.998876572	-0.045658112	0.009835243	-0.007990837	9.059977531	-7.772493362	1.681423187	-2.283760725	0.491946369	-0.399691518	-0.498535156	0.360107422	-0.710693359	892.16	-65.97475672	-67.1072117	55.57839265	-60
20041	0	0.342285156	-0.22064209	0.090698242	0.999840736	0.014457703	0.006546974	-0.00806427	8.557128906	-5.516052246	2.267456055	0.72292332	0.327366002	-0.403234802	-0.48828125	0.393310547	-0.696533203	892.16	-61.71243507	-67.60123073	52.68608503	-61
20042	0	0.364193916	-0.103559494	0.075987816	0.998659134	0.049237251	0.00445652	-0.015342712	9.104847908	-2.58898735	1.899695396	2.462963346	0.222925637	-0.767478632	-0.488037109	0.344238281	-0.727294922	892.16	-52.5913159	-68.79736462	48.81103331	-63
20043	0	0.383728027	-0.084106445	0.036376953	0.998622894	0.048851967	0.000377655	-0.019104004	9.593200684	-2.102661133	0.909423828	2.443719916	0.018891422	-0.955638797	-0.492675781	0.24609375	-0.765136719	892.06	-42.93027769	-70.38743887	44.36120241	-65
20044	0	0.391000748	-0.117825508	0.041893005	0.999363899	0.031428337	-0.002729416	-0.016617775	9.775018692	-2.945637703	1.047325134	1.571750013	-0.136499728	-0.831064906	-0.502929688	0.157470703	-0.777587891	892.1	-35.58674875	-71.83333928	40.33145521	-69
20045	0	0.381286621	-0.108337402	0.047424316	0.999722481	0.020805359	-0.003874779	-0.010311127	9.532165527	-2.708435059	1.18560791	1.040364054	-0.193756837	-0.515603967	-0.509765625	0.099853516	-0.783935547	892.1	-30.86111134	-72.85086174	37.82330396	-72
20046	0	0.363891602	-0.093383789	0.054626465	0.999860764	0.015534401	-0.00492382	-0.003349304	9.097290039	-2.334594727	1.365661621	0.776755881	-0.246202383	-0.167472936	-0.517578125	0.060058594	-0.783203125	892.12	-28.91834371	-73.53035515	37.62276703	-73
20047	0	0.375417709	-0.085643768	0.061872482	0.999929428	0.010148048	-0.0054245	0.002397537	9.385442734	-2.141094208	1.546812057	0.507414104	-0.271231221	0.119879622	-0.523681641	0.035888672	-0.780761719	892.16	-29.63419121	-73.93785001	39.56625619	-74
20048	0	0.3764534	-0.08777523	0.070525169	0.999965668	-0.000356674	-0.00524807	0.006275177	9.411334991	-2.19438076	1.763129234	-0.017833909	-0.26240642	0.313762356	-0.535400391	0.029541016	-0.770751953	892.16	-32.931622	-74.07800144	42.96542096	-73
20049	0	0.380737305	-0.087158203	0.084960938	0.999899864	-0.009754181	-0.005064964	0.008903503	9.518432617	-2.178955078	2.124023438	-0.48772531	-0.25325666	0.445190017	-0.540771484	0.041015625	-0.765625	892.06	-38.15256039	-73.95593186	47.26521664	-71
20050	0	0.371951103	-0.096456528	0.093305588	0.99987793	-0.011466026	-0.005297661	0.009143829	9.29877758	-2.411413193	2.332639694	-0.57332455	-0.264893777	0.457209997	-0.549316406	0.0703125	-0.759033203	892.1	-43.60008974	-73.72642367	51.59676357	-69
20051	0	0.384216309	-0.090576172	0.140014648	0.999946594	0.005829811	-0.005599976	0.006389618	9.605407715	-2.264404297	3.500366211	0.291495713	-0.280003734	0.31948655	-0.555419922	0.094970703	-0.751953125	892.16	-46.27189848	-73.65807719	55.06058575	-66
20052	0	0.39348793	0.000292778	0.186136246	0.999767303	0.021526337	-0.000962257	0.000813484	9.837198257	0.00731945	4.653406143	1.07640026	-0.048116599	0.040677362	-0.561767578	0.077392578	-0.747314453	892.1	-44.28778585	-73.6632682	55.53160969	-66
20053	0	0.386413574	-0.040710449	0.105102539	0.999998093	0.001091957	0.000171661	-0.001525879	9.660339355	-1.01776123	2.627563477	0.054597887	0.008583074	-0.07629399	-0.563232422	0.055175781	-0.751220703	892.12	-43.6684607	-73.76494388	55.01678277	-67
20054	0	0.394748688	-0.078597069	0.071291924	0.999948502	-0.009453773	0.00357151	-0.000505447	9.868717194	-1.96492672	1.782298088	-0.472696741	0.178578563	-0.025272801	-0.560791016	0.054931641	-0.754150391	892.16	-43.63204934	-73.5038959	53.87373225	-69
20055	0	0.359558105	-0.071655273	0.041259766	0.999735832	-0.022369385	0.005204201	0.000213623	8.988952637	-1.791381836	1.031494141	-1.118567597	0.26023292	0.010682092	-0.554443359	0.074951172	-0.756103516	892.1	-44.85875845	-73.05642827	52.52477761	-70
20056	0	0.361621857	-0.091885567	0.073402405	0.999620438	-0.027265549	0.003842354	0.000378609	9.040546417	-2.297139168	1.83506012	-1.363449794	0.19214198	0.018932829	-0.549072266	0.114746094	-0.754150391	892.16	-47.04662365	-72.71615806	51.59313001	-72
20057	0	0.371887207	-0.117004395	0.084472656	0.999904633	-0.013617516	0.002189636	0.000522614	9.297180176	-2.925109863	2.111816406	-0.680897398	0.109485288	0.026131506	-0.543457031	0.150146484	-0.748535156	892.16	-48.14074885	-72.49887666	51.12697066	-72
20058	0	0.373810768	-0.108185768	0.078009605	0.999999046	-5.91278E-05	4.57764E-05	0.000713348	9.345269203	-2.704644203	1.950240135	-0.002956391	0.002288819	0.035667422	-0.539306641	0.165527344	-0.752929688	892.18	-48.30564269	-72.43012629	51.28858586	-71
20059	0	0.381103516	-0.094055176	0.066955566	0.999991417	0.003452301	-0.001261711	0.001411438	9.527587891	-2.351379395	1.67388916	0.172615497	-0.063085719	0.070572082	-0.5390625	0.163330078	-0.755615234	892.1	-48.58950914	-72.40116587	51.99383075	-70
20060	0	0.373861313	-0.086662292	0.056596756	0.999995232	-0.00150013	-0.001752853	0.001552582	9.346532822	-2.166557312	1.4149189	-0.075006582	-0.087642783	0.077629189	-0.541503906	0.161132813	-0.749755859	892.16	-49.60844562	-72.39536905	52.8854863	-70
20061	0	0.369140625	-0.095458984	0.062255859	0.999993324	-0.002120972	-0.002635002	0.001087189	9.228515625	-2.386474609	1.556396484	-0.106048807	-0.131750384	0.05435955	-0.546386719	0.163574219	-0.746582031	892.1	-50.83984079	-72.49038034	53.92863519	-70
20062	0	0.370209694	-0.0911026	0.07694912	0.999990463	-0.003287315	-0.002242088	0.001235962	9.255242348	-2.277565002	1.923727989	-0.164366244	-0.11210474	0.061798275	-0.546875	0.170410156	-0.741455078	892.12	-52.13642212	-72.53721159	54.89759053	-69
20063	0	0.368164063	-0.093688965	0.097717285	0.999998093	0.000382423	-0.001625061	0.000461578	9.204101563	-2.342224121	2.442932129	0.01912118	-0.081253092	0.02307893	-0.552001953	0.177246094	-0.738769531	892.12	-52.66302294	-72.60592098	55.48993068	-68
20064	0	0.377285004	-0.087851524	0.107727051	0.999992371	0.003538132	-0.001000404	-0.000581741	9.432125092	-2.196288109	2.69317627	0.176906994	-0.050020333	-0.029087134	-0.551757813	0.172851563	-0.738525391	892.1	-52.41058748	-72.72491047	55.6421081	-68
20065	0	0.379943848	-0.081726074	0.083374023	0.999996185	0.00212574	0.000656128	-0.001533508	9.498596191	-2.043151855	2.084350586	0.106287132	0.032806436	-0.076675508	-0.553955078	0.168212891	-0.743652344	892.12	-51.61529694	-72.81375612	55.05747959	-68
20066	0	0.374985695	-0.104751587	0.071190834	0.999999046	0.000249863	0.00053978	-0.00103569	9.374642372	-2.618789673	1.779770851	0.012493137	0.02698899	-0.051784528	-0.553710938	0.166015625	-0.743652344	892.18	-51.17975364	-72.86417704	54.62586972	-67
20067	0	0.373413086	-0.104492188	0.062805176	0.999990463	0.00420475	-0.000362396	-0.000377655	9.335327148	-2.612304688	1.570129395	0.210238132	-0.018119866	-0.018882808	-0.551025391	0.159423828	-0.743164063	892.06	-50.70595171	-72.92008924	54.62698238	-66
20068	0	0.375370026	-0.100824356	0.068938255	0.999986649	0.005054474	-0.000725746	0.000355721	9.384250641	-2.520608902	1.723456383	0.252724797	-0.036287466	0.017786104	-0.553222656	0.152832031	-0.742431641	892.12	-50.41327716	-72.93741226	54.91917782	-65
20069	0	0.375671387	-0.094360352	0.066040039	0.999997139	0.002098083	-0.000384331	0.001075745	9.391784668	-2.359008789	1.651000977	0.104904275	-0.019216556	0.053787283	-0.555419922	0.1484375	-0.747802734	892.16	-50.53240441	-72.86652889	55.29250328	-64
20070	0	0.373679161	-0.100419998	0.071359634	0.999996185	-0.000964165	-0.000340462	0.002415657	9.341979027	-2.510499954	1.78399086	-0.048208292	-0.017023106	0.120782991	-0.555419922	0.1484375	-0.741943359	892.1	-51.29830352	-72.67227635	55.98324067	-63
20071	0	0.384216309	-0.102111816	0.074829102	0.999987602	0.002948761	-0.00039196	0.003883362	9.605407715	-2.55279541	1.870727539	0.147438637	-0.019598085	0.194168865	-0.553222656	0.150634766	-0.742431641	892.12	-51.9442925	-72.34723006	57.01467374	-62
20072	0	0.378691673	-0.083496094	0.074893951	0.999980927	0.003833771	-4.673E-05	0.004743576	9.467291832	-2.087402344	1.872348785	0.191689726	-0.002336517	0.237180273	-0.553222656	0.152832031	-0.745361328	892.12	-52.54408889	-71.91727769	58.10245524	-61
20073	0	0.377990723	-0.078186035	0.075134277	0.999985695	0.002426147	-0.000113487	0.004680634	9.449768066	-1.954650879	1.878356934	0.121307935	-0.005674388	0.234032762	-0.55078125	0.150390625	-0.742431641	892.12	-53.26714244	-71.49480879	59.15966779	-61
20074	0	0.383973122	-0.08154583	0.074457169	0.999986649	0.003920555	-0.000185966	0.003196716	9.599328041	-2.038645744	1.861429214	0.196028593	-0.009298364	0.159836498	-0.55078125	0.152587891	-0.745605469	892.1	-53.50519096	-71.21209543	59.88056221	-61
20075	0	0.375610352	-0.07623291	0.069458008	0.999994278	0.003060341	0.000312805	0.001213074	9.390258789	-1.905822754	1.736450195	0.153017323	0.015640287	0.060653797	-0.550537109	0.148193359	-0.748046875	892.04	-53.30022787	-71.07908404	60.03245249	-61
20076	0	0.365903854	-0.082779884	0.073121071	0.999998093	0.001216888	0.000319481	-0.000946999	9.147596359	-2.069497108	1.828026772	0.060844447	0.015974051	-0.047349949	-0.548095703	0.145751953	-0.748046875	892.1	-52.87036665	-71.14463162	59.72186169	-62
20077	0	0.362182617	-0.09576416	0.079101563	0.999994278	0.001450539	0.000473022	-0.002742767	9.05456543	-2.394104004	1.977539063	0.072527051	0.023651162	-0.137138592	-0.550292969	0.141357422	-0.750488281	892.12	-51.99739262	-71.36148982	58.97148391	-63
20078	0	0.363062859	-0.106782913	0.081892967	0.999984741	0.004235268	0.000144005	-0.003535271	9.076571465	-2.66957283	2.047324181	0.211764457	0.007200278	-0.176764432	-0.552246094	0.134765625	-0.752685547	892.1	-50.70076254	-71.66771769	58.10625014	-63
20079	0	0.378723145	-0.101135254	0.079162598	0.999990463	0.003621101	0.000427246	-0.002304077	9.468078613	-2.528381348	1.979064941	0.18105563	0.021362371	-0.115204215	-0.549560547	0.123535156	-0.749023438	892.12	-49.64288009	-71.83909534	57.42459792	-63
20080	0	0.384921074	-0.099027634	0.072159767	0.999998093	-0.001426697	0.000927925	0.000235558	9.623026848	-2.475690842	1.803994179	-0.071334874	0.046396278	0.011777884	-0.549316406	0.121337891	-0.751708984	892.06	-49.59856838	-71.74985412	57.20917851	-64
20081	0	0.379821777	-0.099609375	0.07635498	0.999998093	-0.000506401	0.000282288	0.001731873	9.495544434	-2.490234375	1.908874512	-0.025320067	0.014114388	0.086593676	-0.549560547	0.125732422	-0.754882813	892.16	-49.95507354	-71.57775272	57.52387762	-64
20082	0	0.370298386	-0.09419632	0.077139854	0.999995232	0.001970291	-0.000497818	0.002120972	9.257459641	-2.35490799	1.928496361	0.098514699	-0.024890935	0.106048736	-0.547119141	0.123535156	-0.749023438	892.12	-50.31235168	-71.42828857	58.14106916	-65
20083	0	0.371582031	-0.084899902	0.069885254	0.999991417	0.003684998	-0.00077343	0.00113678	9.289550781	-2.122497559	1.747131348	0.184250353	-0.038671593	0.056839136	-0.544677734	0.123535156	-0.749267578	892.16	-50.32646028	-71.38594774	58.59483818	-66
20084	0	0.371433258	-0.087230682	0.071721077	0.999998093	0.001745224	-0.000803947	-0.000102043	9.285831451	-2.180767059	1.793026924	0.087261254	-0.040197397	-0.005102161	-0.549072266	0.119140625	-0.757324219	892.1	-50.30135028	-71.45574358	58.77583033	-67
20085	0	0.373046875	-0.102539063	0.078979492	0.999998093	0.000401497	-0.001285553	-0.000431061	9.326171875	-2.563476563	1.974487305	0.020074851	-0.06427767	-0.021553047	-0.549072266	0.116943359	-0.754150391	892.1	-50.48736873	-71.58953303	59.01813101	-69
20086	0	0.374819756	-0.092867851	0.088161469	0.999994278	0.002802849	-0.001402855	-0.000652313	9.370493889	-2.321696281	2.204036713	0.14014268	-0.070142866	-0.032615717	-0.553710938	0.114746094	-0.756591797	892.22	-50.38130005	-71.75128072	59.23841493	-70
20087	0	0.373168945	-0.094848633	0.088012695	0.999999046	0.000667572	-0.000994682	-0.000457764	9.329223633	-2.37121582	2.200317383	0.03337861	-0.049734129	-0.02288819	-0.553710938	0.110351563	-0.750488281	892.1	-50.45362146	-71.86582152	59.39397621	-72
20088	0	0.373735428	-0.096466064	0.086909294	0.999998093	0.001331329	-0.000658989	-0.000290871	9.343385696	-2.411651611	2.172732353	0.066566493	-0.03294946	-0.014543539	-0.553466797	0.108154297	-0.750244141	892.16	-50.39620874	-71.94081696	59.49218659	-74
20089	0	0.372741699	-0.094604492	0.08013916	0.999999046	0.000797272	-0.000479698	6.48499E-05	9.31854248	-2.365112305	2.003479004	0.039863592	-0.023984913	0.003242493	-0.555908203	0.108398438	-0.750244141	892.18	-50.4309909	-71.97126363	59.62135704	-77
20090	0	0.367735863	-0.094959259	0.07554245	0.999999046	-0.000518799	-0.000102997	0.000743866	9.193396568	-2.373981476	1.888561249	-0.025939945	-0.005149842	0.037193304	-0.558349609	0.106201172	-0.747070313	892.12	-50.66637808	-71.91410253	59.81109593	-80
20091	0	0.375244141	-0.091430664	0.071777344	0.999998093	-0.000613213	-0.000759125	0.001155853	9.381103516	-2.285766602	1.794433594	-0.030660641	-0.037956252	0.057792686	-0.555908203	0.108398438	-0.747314453	892.1	-51.18068333	-71.86769942	60.28098495	-83
20092	0	0.38308239	-0.090025902	0.07267189	0.999998093	-0.00110054	-0.000742912	0.000846863	9.577059746	-2.250647545	1.816797256	-0.055027031	-0.03714563	0.042343157	-0.558349609	0.110595703	-0.747314453	892	-51.67675276	-71.8470904	60.6741073	-83
20093	0	0.376037598	-0.093688965	0.076538086	0.999996185	-0.002402306	-0.000671387	6.10352E-05	9.400939941	-2.342224121	1.913452148	-0.120115405	-0.033569371	0.003051761	-0.561035156	0.113037109	-0.744628906	892.16	-52.13192702	-71.89146421	60.87021277	-81
20094	0	0.364171982	-0.096628189	0.081078529	0.999998093	-0.000916481	-0.000775337	-0.000844955	9.104299545	-2.415704727	2.026963234	-0.045824067	-0.038766875	-0.042247787	-0.55859375	0.1171875	-0.750732422	892.1	-52.25109258	-72.02458623	60.88237343	-76
20095	0	0.375671387	-0.094604492	0.079467773	0.999998093	-0.000800133	-0.00069809	-0.001495361	9.391784668	-2.365112305	1.986694336	-0.04000666	-0.0349045	-0.074768108	-0.561035156	0.115234375	-0.741943359	892.12	-52.19316632	-72.21117303	60.72672432	-73
20096	0	0.378164291	-0.102816582	0.078164101	0.999993324	-0.00313282	-0.000167847	-0.001779556	9.454107285	-2.570414543	1.954102516	-0.156641346	-0.008392352	-0.088978007	-0.563476563	0.115234375	-0.741699219	892.24	-52.18778499	-72.38589514	60.3510233	-71
20097	0	0.37713623	-0.106628418	0.08026123	0.999991417	-0.003913879	4.76837E-06	-0.000930786	9.428405762	-2.665710449	2.006530762	-0.195694498	0.000238419	-0.046539432	-0.561279297	0.119628906	-0.745117188	892.1	-52.40878066	-72.47119148	60.11790045	-70
20098	0	0.374230385	-0.111732483	0.077740669	0.999999046	-0.000705719	-0.000276566	-0.000108719	9.355759621	-2.793312073	1.943516731	-0.035285953	-0.013828279	-0.005435944	-0.561523438	0.124023438	-0.742431641	892.04	-52.52608573	-72.50086054	60.15540574	-70
20099	0	0.372253418	-0.104248047	0.075378418	0.999999046	-8.39233E-05	7.34329E-05	0.000469208	9.306335449	-2.606201172	1.884460449	-0.004196167	0.003671646	0.023460389	-0.561523438	0.121826172	-0.739501953	892.1	-52.59943153	-72.45310465	60.22690195	-70
20100	0	0.373420715	-0.109921455	0.073521614	0.999999046	0.000462532	0.000238419	0.000812531	9.335517883	-2.748036385	1.838040352	0.023126606	0.011920931	0.040626532	-0.559082031	0.121826172	-0.745361328	892.1	-52.63898865	-72.36202749	60.32727031	-71
20101	0	0.374206543	-0.100952148	0.072692871	0.999998093	0.000855446	0.000492096	0.001255035	9.355163574	-2.523803711	1.817321777	0.042772311	0.024604808	0.062751797	-0.561523438	0.124023438	-0.739746094	892.12	-52.65711655	-72.21285334	60.45105685	-72
20102	0	0.370782852	-0.096207619	0.071451187	0.999997139	0.000204086	0.000488281	0.002009392	9.269571304	-2.405190468	1.786279678	0.010204323	0.02441408	0.100469662	-0.561523438	0.124023438	-0.739746094	892.1	-52.91062669	-71.9951047	60.74790263	-74
20103	0	0.374938965	-0.093566895	0.069885254	0.999996185	0.001591682	0.000137329	0.002204895	9.373474121	-2.339172363	1.747131348	0.07958422	0.006866464	0.110244887	-0.559082031	0.126220703	-0.745849609	892.16	-53.1382361	-71.78364675	61.17980993	-76
20104	0	0.372822762	-0.08864975	0.067642212	0.999997139	0.001284599	1.90735E-05	0.001861572	9.320569038	-2.216243744	1.691055298	0.06423002	0.000953675	0.093078693	-0.556884766	0.126220703	-0.745849609	892.16	-53.35530965	-71.61195801	61.56348961	-76
20105	0	0.373962402	-0.089233398	0.065856934	0.999999046	0.000141144	-0.00014782	0.001216888	9.349060059	-2.230834961	1.64642334	0.007057192	-0.007390978	0.060844437	-0.556884766	0.126220703	-0.742919922	892.06	-53.61258492	-71.5112756	61.85409352	-78
20106	0	0.375164032	-0.091531754	0.067967415	0.999999046	-5.72205E-06	-0.000286102	0.000385284	9.3791008	-2.288293839	1.699185371	-0.000286102	-0.014305115	0.019264222	-0.556884766	0.128417969	-0.740234375	892.04	-53.75399003	-71.49708147	62.0017697	-77
20107	0	0.381225586	-0.094116211	0.068237305	0.999999046	-0.000881195	-0.000308037	-0.000427246	9.530639648	-2.352905273	1.705932617	-0.044059761	-0.015401843	-0.021362308	-0.559326172	0.128417969	-0.740234375	892.06	-53.83723544	-71.56002602	61.98461486	-76
20108	0	0.376959801	-0.098134041	0.072469711	0.999998093	-0.001642227	-0.000124931	-0.000865936	9.423995018	-2.453351021	1.811742783	-0.082111406	-0.00624657	-0.043296839	-0.559326172	0.128417969	-0.740234375	892.06	-53.86745016	-71.65142577	61.82191473	-75
20109	0	0.372680664	-0.097839355	0.073974609	0.999999046	9.15527E-05	0.000294685	-0.001045227	9.317016602	-2.445983887	1.849365234	0.004577638	0.014734271	-0.052261363	-0.559326172	0.130615234	-0.743164063	892.06	-53.54314742	-71.73087403	61.48853712	-74
20110	0	0.374164581	-0.087949753	0.074088097	0.999998093	0.000889778	0.000130653	-0.001319885	9.354114532	-2.19874382	1.852202415	0.044488926	0.006532672	-0.065994291	-0.561767578	0.128662109	-0.739990234	892.06	-53.11134506	-71.84655873	61.13857557	-72
20111	0	0.375244141	-0.101074219	0.071044922	0.999998093	0.000718117	0.000164032	-0.001182556	9.381103516	-2.526855469	1.776123047	0.03590585	0.008201602	-0.059127827	-0.559082031	0.124023438	-0.739746094	892.12	-52.71478093	-71.94659435	60.80786011	-72
20112	0	0.375319481	-0.093551636	0.073438644	0.999998093	0.001037598	-7.53403E-05	-0.001159668	9.382987022	-2.338790894	1.83596611	0.051879904	-0.003767015	-0.057983422	-0.559082031	0.121826172	-0.742431641	892	-52.34908677	-72.06073223	60.54657781	-70
20113	0	0.373046875	-0.097106934	0.076660156	0.999999046	6.86646E-05	-6.38962E-05	-0.000965118	9.326171875	-2.42767334	1.916503906	0.003433228	-0.003194809	-0.048255928	-0.558837891	0.119628906	-0.745117188	892.1	-52.12982247	-72.15590576	60.32382392	-69
20114	0	0.371900558	-0.096867561	0.07473278	0.999999046	7.82013E-05	-5.72205E-05	-0.000885963	9.297513962	-2.421689034	1.868319511	0.003910065	-0.002861023	-0.044298178	-0.561279297	0.117431641	-0.744873047	892.1	-51.92269438	-72.24309907	60.11800221	-69
20115	0	0.37286377	-0.096191406	0.071105957	0.999999046	-0.00025177	-4.48227E-05	-0.000854492	9.321594238	-2.404785156	1.777648926	-0.012588503	-0.002241135	-0.042724615	-0.558837891	0.117431641	-0.7421875	892.16	-51.75541399	-72.32638708	59.9121532	-69
20116	0	0.373283386	-0.098887444	0.0750494	0.999999046	-0.000920296	0.000192642	-0.000720978	9.332084656	-2.472186089	1.876235008	-0.046014797	0.009632113	-0.036048898	-0.558837891	0.117431641	-0.745117188	892.06	-51.6262258	-72.38041488	59.66655837	-69
20117	0	0.376953125	-0.102050781	0.079406738	0.999999046	0.000331879	-9.44138E-05	-0.000572205	9.423828125	-2.551269531	1.985168457	0.016593934	-0.004720688	-0.028610232	-0.561279297	0.117431641	-0.741943359	892.06	-51.467085	-72.44092713	59.53933299	-69
20118	0	0.375370026	-0.097173691	0.080375671	0.999999046	0.001253128	5.34058E-05	-6.96182E-05	9.384250641	-2.42934227	2.009391785	0.062656419	0.002670289	-0.003480912	-0.561279297	0.117431641	-0.741943359	892.06	-51.27285533	-72.44544015	59.48252584	-69
20119	0	0.376647949	-0.09564209	0.079162598	0.999999046	0.00087738	0.000222206	0.000663757	9.41619873	-2.391052246	1.979064941	0.043869028	0.011110308	0.033187873	-0.561035156	0.113037109	-0.741699219	892.1	-51.23964089	-72.37207779	59.55669686	-69
20120	0	0.371970177	-0.095328331	0.078089714	0.999998093	0.001016617	0.000351906	0.001086235	9.299254417	-2.383208275	1.952242851	0.050830861	0.017595298	0.054311773	-0.55859375	0.112792969	-0.744628906	892.16	-51.24853973	-72.25147517	59.69053208	-70
20121	0	0.369934082	-0.090576172	0.072631836	0.999998093	0.00023365	0.00056076	0.001419067	9.248352051	-2.264404297	1.815795898	0.011682515	0.028038036	0.070953397	-0.55859375	0.114990234	-0.747802734	892.04	-51.36170303	-72.08627419	59.83810156	-70
20122	0	0.37234211	-0.091784477	0.070833206	0.999998093	-0.000964165	0.000607491	0.001452446	9.308552742	-2.294611931	1.770830154	-0.048208264	0.030374544	0.07262234	-0.556396484	0.1171875	-0.748046875	892.06	-51.6038833	-71.91488367	59.9781479	-70
20123	0	0.373840332	-0.093444824	0.068969727	0.999998093	-0.000475883	0.000362396	0.001361847	9.346008301	-2.336120605	1.724243164	-0.023794183	0.018119819	0.068092371	-0.556396484	0.1171875	-0.748046875	892.12	-51.83494824	-71.76921407	60.16986405	-71
20124	0	0.37659359	-0.092033386	0.067873001	0.999999046	0.000212669	-4.76837E-05	0.001361847	9.414839745	-2.300834656	1.696825027	0.010633472	-0.002384187	0.068092368	-0.556640625	0.121582031	-0.745605469	892.1	-52.09635992	-71.65276539	60.47115459	-71
20125	0	0.375244141	-0.090332031	0.069458008	0.999999046	0.000110626	-0.000338554	0.000934601	9.381103516	-2.258300781	1.736450195	0.005531312	-0.016927722	0.046730049	-0.556640625	0.121582031	-0.745605469	892.04	-52.35548449	-71.59554425	60.75916814	-71
20126	0	0.373721123	-0.090953827	0.074106216	0.999999046	4.3869E-05	-0.00037384	0.000480652	9.343028069	-2.273845673	1.852655411	0.002193451	-0.018692018	0.024032594	-0.556640625	0.121582031	-0.748291016	892.06	-52.53482457	-71.58204164	60.95526837	-71
20127	0	0.37713623	-0.090942383	0.078430176	0.999999046	0.000164032	-0.000323296	-3.43323E-05	9.428405762	-2.27355957	1.960754395	0.008201599	-0.01616478	-0.001716614	-0.556640625	0.121582031	-0.748291016	892.12	-52.57754573	-71.61203371	61.02102889	-70
20128	0	0.376950264	-0.090768814	0.080533981	0.999999046	-0.000760078	0.000120163	-0.000259399	9.423756599	-2.269220352	2.013349533	-0.038003926	0.006008149	-0.012969972	-0.556640625	0.121582031	-0.748291016	892.12	-52.55615	-71.63181792	60.90924355	-69
20129	0	0.374633789	-0.094787598	0.080444336	0.999998093	-0.001364708	0.00043869	-0.000137329	9.365844727	-2.369689941	2.011108398	-0.068235421	0.021934517	-0.006866457	-0.556640625	0.124023438	-0.742675781	892.1	-52.54135223	-71.61829281	60.73123537	-69
20130	0	0.373065948	-0.09678936	0.07733345	0.999999046	-0.000677109	0.000476837	-9.91821E-05	9.326648712	-2.419734001	1.933336258	-0.033855442	0.023841861	-0.004959107	-0.556640625	0.123779297	-0.748535156	892.16	-52.44515182	-71.59857996	60.55218577	-68
20131	0	0.373535156	-0.097229004	0.071716309	0.999999046	0.00082016	8.10623E-05	-0.000591278	9.338378906	-2.430725098	1.792907715	0.041008003	0.004053117	-0.029563909	-0.556884766	0.126220703	-0.745849609	892.1	-52.1820761	-71.65119302	60.37021602	-67
20132	0	0.373456001	-0.097771645	0.070410728	0.999997139	0.00174427	-0.000408173	-0.001094818	9.336400032	-2.444291115	1.760268211	0.08721358	-0.020408645	-0.054740946	-0.554199219	0.121582031	-0.751464844	892.18	-51.83828362	-71.78364177	60.21378272	-67
20133	0	0.371032715	-0.101135254	0.072143555	0.999991417	0.003681183	-0.000971794	-0.001182556	9.275817871	-2.528381348	1.803588867	0.184059631	-0.048589835	-0.059127964	-0.556152344	0.114990234	-0.750732422	892.12	-51.40498338	-71.9636263	60.19639701	-66
20134	0	0.377613068	-0.090805054	0.071533203	0.999993324	0.00334549	-0.000976563	-0.000961304	9.440326691	-2.270126343	1.788330078	0.167274839	-0.048828231	-0.04806529	-0.558349609	0.110595703	-0.747314453	892.12	-51.05662225	-72.12448876	60.22534498	-66
20135	0	0.375915527	-0.095031738	0.072937012	0.999998093	-0.001776695	-0.000179291	-0.000457764	9.397888184	-2.375793457	1.823425293	-0.088834813	-0.008964544	-0.022888197	-0.558349609	0.106201172	-0.744140625	892.12	-51.18652426	-72.18315802	60.15240726	-66
20136	0	0.374631882	-0.100164413	0.080563545	0.999999046	-0.000777245	-0.000226974	6.00815E-05	9.365797043	-2.504110336	2.014088631	-0.038862233	-0.011348726	0.003004074	-0.560791016	0.108398438	-0.744140625	892.1	-51.33098274	-72.19860527	60.21399783	-66
20137	0	0.373474121	-0.094909668	0.080383301	0.999999046	0.000217438	-0.000258446	0.000331879	9.336853027	-2.372741699	2.00958252	0.010871888	-0.012922287	0.016593934	-0.560791016	0.108642578	-0.741210938	892.1	-51.43025781	-72.19170793	60.34752821	-66
20138	0	0.37247467	-0.094574928	0.077178955	0.999999046	-7.62939E-06	4.19617E-05	0.000243187	9.31186676	-2.364373207	1.929473877	-0.00038147	0.002098084	0.012159348	-0.560791016	0.110839844	-0.744384766	892.1	-51.45149199	-72.17113617	60.36787028	-66
20139	0	0.374572754	-0.091552734	0.072631836	0.999999046	-0.000167847	0.000397682	4.95911E-05	9.364318848	-2.288818359	1.815795898	-0.008392334	0.01988411	0.002479553	-0.561035156	0.110839844	-0.741455078	892.18	-51.34916139	-72.14264695	60.24042753	-65
20140	0	0.376092911	-0.09430027	0.071982384	0.999999046	-0.001046181	0.000356674	0.00045681	9.402322769	-2.357506752	1.799559593	-0.052309049	0.017833714	0.022840505	-0.55859375	0.110595703	-0.744384766	892.1	-51.4498151	-72.08073785	60.22337496	-65
20141	0	0.376037598	-0.092590332	0.071105957	0.999999046	-9.91821E-05	0.000142097	0.000846863	9.400939941	-2.314758301	1.777648926	-0.004959107	0.007104875	0.042343145	-0.55859375	0.112792969	-0.741699219	892.16	-51.58714858	-71.99938047	60.35717782	-65
20142	0	0.374267578	-0.089904785	0.069091797	0.999999046	-0.000965118	-2.67029E-05	0.000846863	9.356689453	-2.247619629	1.727294922	-0.048255934	-0.001335144	0.042343151	-0.55859375	0.114990234	-0.744873047	892.1	-51.86913161	-71.93024121	60.53859259	-65
20143	0	0.37310791	-0.092651367	0.071166992	0.999999046	-0.000617981	-0.000277519	0.000411987	9.327697754	-2.31628418	1.779174805	-0.030899051	-0.013875963	0.020599367	-0.55859375	0.114990234	-0.747802734	892.16	-52.08548128	-71.91803718	60.6946861	-64
20144	0	0.374656677	-0.095370293	0.072609901	0.999999046	7.9155E-05	-0.000419617	-0.000664711	9.366416931	-2.384257317	1.815247536	0.003957749	-0.020980837	-0.033235553	-0.561279297	0.117431641	-0.741943359	892.16	-52.02884184	-72.01316826	60.64278166	-64
20145	0	0.373779297	-0.094909668	0.07244873	0.999999046	0.000709534	-0.00045681	-0.000995636	9.344482422	-2.372741699	1.811218262	0.035476695	-0.022840506	-0.049781813	-0.55859375	0.114990234	-0.747802734	892.1	-51.83723483	-72.14080618	60.52276647	-64
20146	0	0.375317574	-0.094974518	0.073216438	0.999999046	0.000364304	-0.000238419	-0.000775337	9.382939339	-2.374362946	1.830410957	0.018215182	-0.011920931	-0.038766866	-0.561035156	0.113037109	-0.744628906	892.06	-51.67079357	-72.23302366	60.38996215	-64
20147	0	0.374084473	-0.09765625	0.073974609	0.999999046	-3.05176E-05	-0.000189781	-0.00018692	9.352111816	-2.44140625	1.849365234	-0.001525879	-0.00948906	-0.009346008	-0.563476563	0.113037109	-0.741455078	892.22	-51.66602491	-72.26866715	60.38040226	-64
20148	0	0.374330521	-0.096544266	0.071323395	0.999999046	0.000512123	-6.48499E-05	0.000273705	9.358263016	-2.413606644	1.783084869	0.025606157	-0.003242493	0.013685227	-0.561035156	0.113037109	-0.741699219	892.06	-51.66688992	-72.25398065	60.43970535	-64
20149	0	0.376831055	-0.096618652	0.071166992	0.999999046	0.000392914	-4.48227E-05	0.000423431	9.420776367	-2.415466309	1.779174805	0.019645692	-0.002241135	0.021171571	-0.563232422	0.110839844	-0.747070313	892.04	-51.7095048	-72.22440321	60.53277561	-64
20150	0	0.374743462	-0.09468174	0.073159218	0.999999046	0.000448227	-0.000146866	0.000480652	9.36858654	-2.367043495	1.828980446	0.022411348	-0.007343293	0.024032595	-0.560791016	0.110839844	-0.744384766	892.12	-51.78692042	-72.19687957	60.66766459	-65
20151	0	0.376525879	-0.093566895	0.070922852	0.999999046	0.000907898	-0.000121117	0.000736237	9.413146973	-2.339172363	1.773071289	0.045394908	-0.006055833	0.036811837	-0.55859375	0.112792969	-0.744628906	892.16	-51.86058271	-72.14459274	60.84790311	-65
20152	0	0.374946594	-0.089532852	0.072335243	0.999999046	0.000842094	-0.000169754	0.000644684	9.373664856	-2.238321304	1.808381081	0.042104729	-0.008487703	0.032234198	-0.560791016	0.110839844	-0.744384766	892.12	-51.93424829	-72.10416812	61.02408052	-65
20153	0	0.375366211	-0.089233398	0.074890137	0.999999046	-0.000118256	-0.000128746	0.000274658	9.384155273	-2.230834961	1.872253418	-0.005912781	-0.006437302	0.01373291	-0.560791016	0.108398438	-0.744140625	892.16	-52.02445983	-72.09436665	61.10750994	-65
20154	0	0.375823975	-0.090251923	0.074892998	0.999999046	-0.000268936	-2.67029E-05	-4.19617E-05	9.395599365	-2.256298065	1.872324944	-0.013446808	-0.001335144	-0.002098084	-0.561035156	0.110839844	-0.741455078	892.12	-52.03359939	-72.10610943	61.08388375	-65
20155	0	0.375671387	-0.092773438	0.074157715	0.999999046	-8.39233E-05	-0.000113487	-0.000377655	9.391784668	-2.319335938	1.853942871	-0.004196167	-0.005674362	-0.018882752	-0.560791016	0.110839844	-0.744384766	892.12	-51.97203344	-72.15435781	61.00687213	-65
20156	0	0.376368523	-0.093600273	0.072102547	0.999999046	-0.000222206	-0.000146866	-0.000530243	9.409213066	-2.340006828	1.802563667	-0.011110306	-0.007343293	-0.026512148	-0.563232422	0.108642578	-0.741210938	892.1	-51.90179073	-72.21879922	60.90915984	-65
20157	0	0.375366211	-0.096801758	0.074279785	0.999999046	-0.00063324	6.58035E-05	-0.000167847	9.384155273	-2.420043945	1.856994629	-0.03166199	0.003290177	-0.008392335	-0.563232422	0.110839844	-0.741455078	892.12	-51.89853776	-72.23537069	60.82930898	-65
20158	0	0.375021935	-0.09677124	0.075059891	0.999999046	0.000169754	5.34058E-05	3.8147E-06	9.375548363	-2.419281006	1.876497269	0.008487701	0.002670288	0.000190735	-0.563232422	0.110839844	-0.747070313	892.18	-51.84463982	-72.23717047	60.79156239	-65
20159	0	0.375183105	-0.094421387	0.074707031	0.999999046	0.000610352	-9.44138E-05	0.000167847	9.379577637	-2.360534668	1.867675781	0.03051758	-0.004720688	0.008392335	-0.563232422	0.110839844	-0.744140625	892.16	-51.81794675	-72.23459442	60.83421065	-65
20160	0	0.376263618	-0.094396591	0.074322701	0.999999046	0.000458717	0.000219345	9.82285E-05	9.406590462	-2.35991478	1.858067513	0.022935868	0.010967255	0.004911423	-0.561035156	0.110839844	-0.741455078	892.12	-51.70505483	-72.21602066	60.76633609	-65
20161	0	0.375793457	-0.094421387	0.073120117	0.999999046	0.000423431	0.000130653	-3.8147E-06	9.394836426	-2.360534668	1.82800293	0.021171571	0.006532669	-0.000190735	-0.563232422	0.110839844	-0.747070313	892.12	-51.59872176	-72.21289377	60.70027197	-66
20162	0	0.373394966	-0.093870163	0.071769714	0.999999046	0.000379562	0.000114441	0.000144005	9.334874153	-2.346754074	1.794242859	0.018978119	0.005722046	0.007200241	-0.563232422	0.108642578	-0.744140625	892.16	-51.53508439	-72.19765931	60.67765856	-66
20163	0	0.374755859	-0.094787598	0.074523926	0.999999046	0.000587463	0.00017643	0.000244141	9.368896484	-2.369689941	1.863098145	0.029373171	0.008821488	0.012207032	-0.560791016	0.108642578	-0.741210938	892.06	-51.45268571	-72.16895539	60.65841008	-66
20164	0	0.374074936	-0.092812538	0.070796013	0.999999046	0.000342369	0.000171661	0.000315666	9.351873398	-2.320313454	1.769900322	0.017118455	0.008583069	0.015783311	-0.560791016	0.108398438	-0.744140625	892.06	-51.41603859	-72.13430819	60.65754058	-66
20165	0	0.375427246	-0.092956543	0.070800781	0.999999046	0.000152588	0.000164986	0.000335693	9.385681152	-2.323913574	1.770019531	0.007629395	0.008249283	0.016784668	-0.560546875	0.106201172	-0.746826172	892.12	-51.40782652	-72.0985001	60.66778247	-66
20166	0	0.375707626	-0.091844559	0.071500778	0.999999046	0.000104904	0.000202179	0.000475883	9.392690659	-2.296113968	1.787519455	0.005245209	0.010108948	0.023794175	-0.558349609	0.106201172	-0.744140625	892.04	-51.42586933	-72.04766503	60.69988092	-66
20167	0	0.374145508	-0.091552734	0.072875977	0.999999046	0.000286102	6.58035E-05	0.00043869	9.353637695	-2.288818359	1.821899414	0.014305115	0.003290177	0.02193451	-0.560791016	0.108398438	-0.747070313	892.12	-51.45243112	-72.01004666	60.75942202	-66
20168	0	0.376009941	-0.089949608	0.072853088	0.999999046	-0.000216484	6.48499E-05	0.000266075	9.400248528	-2.248740196	1.821327209	-0.010824204	0.003242493	0.013303757	-0.560791016	0.108398438	-0.744140625	892.1	-51.49851754	-71.98820678	60.78053945	-66
20169	0	0.371154785	-0.090637207	0.072570801	0.999999046	-0.000656128	5.05447E-05	6.10352E-05	9.278869629	-2.265930176	1.81427002	-0.032806399	0.002527237	0.003051758	-0.558349609	0.108398438	-0.747314453	892.12	-51.55374995	-71.98593142	60.75848943	-66
20170	0	0.373088837	-0.0928545	0.073096275	0.999999046	-0.000545502	2.28882E-05	-5.05447E-05	9.327220917	-2.321362495	1.827406883	-0.027275087	0.001144409	-0.002527237	-0.55859375	0.110595703	-0.744384766	892.16	-51.57947489	-71.99572942	60.71629788	-66
20171	0	0.37512207	-0.095336914	0.073852539	0.999999046	-0.000465393	0.000138283	-0.00025177	9.378051758	-2.383422852	1.846313477	-0.023269654	0.006914139	-0.012588502	-0.560791016	0.110595703	-0.750244141	892.24	-51.52008542	-72.01535185	60.59536903	-66
20172	0	0.37460041	-0.095887184	0.072340012	0.999999046	-0.000357628	-2.09808E-05	-8.10623E-05	9.365010262	-2.397179604	1.80850029	-0.017881394	-0.001049042	-0.004053116	-0.55859375	0.112792969	-0.747558594	892.16	-51.53015374	-72.03099969	60.55603415	-66
20173	0	0.374938965	-0.096862793	0.073730469	0.999999046	-0.000190735	-0.000105858	9.15527E-05	9.373474121	-2.421569824	1.843261719	-0.009536743	-0.005292893	0.004577637	-0.560791016	0.110595703	-0.747314453	892.06	-51.58283471	-72.0371323	60.58761414	-66
20174	0	0.375364304	-0.096166611	0.074528694	0.999999046	0.000205994	-0.00021553	0.000338554	9.38410759	-2.404165268	1.863217354	0.010299683	-0.01077652	0.01692772	-0.558349609	0.110595703	-0.747314453	892.1	-51.67476435	-72.02879481	60.70676246	-66
20175	0	0.374694824	-0.091796875	0.075744629	0.999999046	0.000522614	-0.000193596	0.000339508	9.367370605	-2.294921875	1.893615723	0.026130678	-0.009679795	0.016975404	-0.563232422	0.110839844	-0.741455078	892	-51.72393749	-72.01882272	60.82097468	-66
20176	0	0.375821114	-0.091241837	0.074960709	0.999999046	-0.000144005	1.90735E-05	0.000179291	9.39552784	-2.281045914	1.874017715	-0.007200241	0.000953674	0.008964539	-0.561035156	0.113037109	-0.747558594	892.16	-51.75498474	-72.00826906	60.83027341	-66
20177	0	0.377258301	-0.090576172	0.073852539	0.999999046	-0.000171661	1.62125E-05	9.91821E-05	9.43145752	-2.264404297	1.846313477	-0.008583069	0.000810623	0.004959106	-0.560791016	0.110839844	-0.744384766	892.16	-51.77207744	-72.00532895	60.82684052	-67
20178	0	0.375528336	-0.090249062	0.073588371	0.999999046	-0.00019455	1.52588E-05	-0.000187874	9.388208389	-2.25622654	1.839709282	-0.009727478	0.000762939	-0.009393692	-0.558349609	0.110595703	-0.747314453	892.12	-51.72891958	-72.0284781	60.7561005	-66
20179	0	0.374694824	-0.093017578	0.073547363	0.999999046	-0.000240326	-6.38962E-05	-0.000278473	9.367370605	-2.325439453	1.838684082	-0.012016297	-0.003194809	-0.013923645	-0.563476563	0.113037109	-0.744384766	892.1	-51.6928687	-72.06544019	60.68546162	-66
20180	0	0.376832008	-0.094491005	0.072476387	0.999999046	0.000184059	-0.000102997	-0.000390053	9.420800209	-2.362275124	1.811909676	0.009202957	-0.005149841	-0.01950264	-0.561035156	0.110839844	-0.741455078	892.16	-51.59442074	-72.11523881	60.60209504	-66
20181	0	0.375	-0.093505859	0.072265625	0.999999046	-0.000671387	-2.19345E-05	-0.000473022	9.375	-2.337646484	1.806640625	-0.03356934	-0.001096726	-0.023651126	-0.563476563	0.113037109	-0.741455078	892.16	-51.55281439	-72.16673163	60.47307844	-66
20182	0	0.371370316	-0.095452309	0.074622154	0.999999046	-0.000326157	3.43323E-05	-0.000457764	9.284257889	-2.386307716	1.865553856	-0.016307832	0.001716614	-0.022888185	-0.561035156	0.113037109	-0.744628906	892.06	-51.45885396	-72.21262707	60.32876201	-66
20183	0	0.374328613	-0.095397949	0.071655273	0.999999046	-0.00025177	-5.24521E-05	-0.00038147	9.358215332	-2.38494873	1.791381836	-0.012588501	-0.002622604	-0.019073487	-0.563232422	0.110839844	-0.741455078	892.1	-51.39757438	-72.25778741	60.23326701	-66
20184	0	0.375081062	-0.096429825	0.071870804	0.999999046	-1.43051E-05	-4.95911E-05	-9.63211E-05	9.377026558	-2.410745621	1.796770096	-0.000715256	-0.002479553	-0.004816055	-0.563232422	0.110839844	-0.747070313	892.12	-51.37234869	-72.2770975	60.20301332	-65
20185	0	0.376342773	-0.095397949	0.073059082	0.999999046	1.14441E-05	-0.000174522	0.000102997	9.408569336	-2.38494873	1.826477051	0.000572205	-0.00872612	0.005149841	-0.560791016	0.108398438	-0.744140625	892.12	-51.42409717	-72.28741924	60.26042373	-65
20186	0	0.3742733	-0.095596313	0.074333191	0.999999046	5.72205E-05	-0.000143051	0.000338554	9.356832504	-2.389907837	1.858329773	0.002861023	-0.007152558	0.01692772	-0.561035156	0.110839844	-0.741455078	892.12	-51.51458242	-72.27420459	60.35991545	-66
20187	0	0.374084473	-0.092895508	0.073669434	0.999999046	0.00044632	-0.000182152	0.000328064	9.352111816	-2.322387695	1.84173584	0.02231598	-0.00910759	0.016403199	-0.563476563	0.113037109	-0.738525391	892.12	-51.5689217	-72.26465357	60.46476209	-66
20188	0	0.376736641	-0.090941429	0.073307037	0.999999046	2.00272E-05	5.91278E-05	-8.10623E-05	9.418416023	-2.273535728	1.832675934	0.001001358	0.00295639	-0.004053116	-0.561035156	0.113037109	-0.741699219	892.06	-51.51294222	-72.27472228	60.40057317	-65
20189	0	0.376708984	-0.091125488	0.071716309	0.999999046	-0.000148773	5.81741E-05	0	9.417724609	-2.278137207	1.792907715	-0.00743866	0.002908707	0	-0.561035156	0.113037109	-0.744628906	892.1	-51.49461336	-72.27771661	60.35566797	-65
20190	0	0.377066612	-0.090964317	0.072097778	0.999999046	5.34058E-05	-0.000125885	-8.86917E-05	9.426665306	-2.274107933	1.802444458	0.002670288	-0.006294251	-0.004434586	-0.561035156	0.113037109	-0.741699219	892.04	-51.48488116	-72.3019283	60.34397146	-65
20191	0	0.374755859	-0.090942383	0.073181152	0.999999046	-0.00019455	4.76837E-06	-0.000167847	9.368896484	-2.27355957	1.829528809	-0.009727478	0.000238419	-0.008392334	-0.560791016	0.108398438	-0.744140625	892.1	-51.44886356	-72.32396444	60.28372358	-65
20192	0	0.376006126	-0.091759682	0.070950508	0.999999046	-0.000710487	0.000101089	-0.000328064	9.40015316	-2.293992043	1.773762703	-0.035524372	0.005054474	-0.0164032	-0.563232422	0.108642578	-0.741210938	892.12	-51.40895052	-72.35356306	60.1596502	-65
20193	0	0.373840332	-0.093078613	0.073913574	0.999999046	-0.000488281	2.76566E-05	-0.000179291	9.346008301	-2.326965332	1.847839355	-0.024414064	0.001382828	-0.008964539	-0.563476563	0.113037109	-0.741455078	892.16	-51.39742261	-72.37498468	60.0842538	-65
20194	0	0.373685837	-0.092953682	0.071217537	0.999999046	-0.000272751	0.000106812	-0.00012207	9.34214592	-2.323842049	1.780438423	-0.013637543	0.005340576	-0.006103516	-0.563232422	0.110839844	-0.741455078	892.1	-51.35195413	-72.38560665	60.00384754	-65
20195	0	0.373657227	-0.094970703	0.073303223	0.999999046	-0.000278473	-1.43051E-05	-6.86646E-05	9.341430664	-2.374267578	1.832580566	-0.013923645	-0.000715256	-0.003433228	-0.563476563	0.113037109	-0.741455078	892.18	-51.35350545	-72.3999578	59.96826218	-65
20196	0	0.374464989	-0.094717026	0.073482513	0.999999046	0.000405312	-0.0001297	3.33786E-05	9.361624718	-2.367925644	1.837062836	0.02026558	-0.006484986	0.00166893	-0.563232422	0.110839844	-0.741455078	892.1	-51.3324501	-72.41330262	59.99402679	-65
20197	0	0.37689209	-0.092407227	0.075439453	0.999999046	0.000267029	0.000115395	0.00012207	9.422302246	-2.310180664	1.885986328	0.013351441	0.00576973	0.006103516	-0.561035156	0.110839844	-0.741455078	892.12	-51.27781534	-72.40109068	59.96626175	-65
20198	0	0.374349594	-0.093252182	0.075024605	0.999999046	-3.24249E-05	-1.14441E-05	8.29697E-05	9.358739853	-2.33130455	1.87561512	-0.001621246	-0.000572205	0.004148483	-0.561035156	0.113037109	-0.741699219	892.1	-51.28430092	-72.40133959	59.96236332	-65
20199	0	0.373291016	-0.092224121	0.073547363	0.999999046	0.00044632	6.19888E-05	0	9.332275391	-2.305603027	1.838684082	0.02231598	0.003099442	0	-0.563232422	0.110839844	-0.741455078	892.12	-51.19641803	-72.40368335	59.92124437	-65
20200	0	0.375722885	-0.091671944	0.072026253	0.999999046	0.000222206	1.71661E-05	-0.000141144	9.393072128	-2.291798592	1.800656319	0.011110306	0.000858307	-0.00705719	-0.561035156	0.110839844	-0.747314453	892.18	-51.11492159	-72.42187953	59.85688429	-65
