Counter	Temperature	VelInc_X	VelInc_Y	VelInc_Z	OriInc_w	OriInc_x	OriInc_y	OriInc_z	Acc_X	Acc_Y	Acc_Z	Gyr_X	Gyr_Y	Gyr_Z	Mag_X	Mag_Y	Mag_Z	Pressure	Roll	Pitch	Yaw	RSSI
42156	0	0.368350029	-0.087340355	0.061945915	0.999815941	-0.017891884	0.006490707	0.002155304	9.208750725	-2.183508873	1.548647881	-0.894648905	0.324555218	0.107771789	-0.514892578	0.760009766	-0.261474609	891.62	-46.35182283	-71.39212333	-39.54696993	-49
42157	0	0.366516113	-0.098876953	0.067260742	0.999907494	-0.012325287	0.005066872	0.002449036	9.162902832	-2.471923828	1.681518555	-0.616283201	0.253351334	0.122455529	-0.508789063	0.773193359	-0.242675781	891.64	-47.06268188	-70.79571151	-40.25939028	-49
42158	0	0.361422539	-0.068462372	0.049622536	0.999959946	-0.008435249	0.002703667	0.001146317	9.035563469	-1.711559296	1.240563393	-0.421768074	0.135185132	0.057316589	-0.499755859	0.77734375	-0.229003906	891.68	-47.60719126	-70.49716275	-40.68263157	-49
42159	0	0.365234375	-0.097717285	0.063354492	0.999975204	-0.006762505	0.001876831	-0.000282288	9.130859375	-2.442932129	1.583862305	-0.338128009	0.093842324	-0.014114496	-0.500244141	0.786376953	-0.215332031	891.56	-47.84929087	-70.38505022	-41.23678802	-49
42160	0	0.375472069	-0.106445313	0.101356506	0.999960899	-0.008048058	0.003351212	0.000842094	9.38680172	-2.661132813	2.533912659	-0.402408023	0.16756272	0.042105259	-0.500488281	0.786376953	-0.209716797	891.58	-48.13360457	-70.0642101	-41.8965655	-49
42161	0	0.363952637	-0.09552002	0.117553711	0.999849319	-0.016829491	0.003566742	0.001964569	9.098815918	-2.388000488	2.938842773	-0.841516586	0.17834601	0.098233364	-0.498535156	0.791015625	-0.192626953	891.64	-49.60015591	-69.63279959	-42.35898287	-49
42162	0	0.357459068	-0.105155945	0.126123428	0.999863625	-0.016056061	0.003435135	0.0014925	8.936476707	-2.628898621	3.153085709	-0.802839414	0.171764527	0.074628396	-0.4921875	0.799804688	-0.173583984	891.56	-50.89496704	-69.25528164	-42.90361459	-49
42163	0	0.360656738	-0.127319336	0.113647461	0.999980927	-0.005137444	0.003387451	-9.91821E-05	9.016418457	-3.182983398	2.841186523	-0.256873799	0.169373628	-0.004959138	-0.492675781	0.806640625	-0.156738281	891.56	-50.6457194	-69.02263994	-43.78929241	-49
42164	0	0.359757423	-0.119244576	0.100767136	0.999994278	0.000507355	0.003024101	-0.001283646	8.993935585	-2.981114388	2.519178391	0.025367784	0.151205341	-0.0641824	-0.488037109	0.804199219	-0.154052734	891.68	-49.62063423	-68.91642409	-44.82505626	-49
42165	0	0.361938477	-0.114257813	0.098754883	0.999986649	-0.001612663	0.003528595	-0.003124237	9.048461914	-2.856445313	2.46887207	-0.080633497	0.176430478	-0.156212499	-0.492431641	0.802001953	-0.159423828	891.56	-48.37459844	-68.9235528	-46.34913944	-49
42166	0	0.356184959	-0.108635902	0.083091736	0.99996376	-0.005709648	0.003808022	-0.0048666	8.904623985	-2.71589756	2.077293396	-0.285485775	0.190403324	-0.243332873	-0.497314453	0.800048828	-0.156005859	891.56	-47.18391248	-69.04533785	-48.3115288	-48
42167	0	0.355163574	-0.109802246	0.066040039	0.999950409	-0.007624626	0.003334045	-0.0052948	8.879089355	-2.745056152	1.651000977	-0.38123749	0.166704974	-0.264744283	-0.501953125	0.795898438	-0.149658203	891.56	-46.21168808	-69.22717937	-50.26718434	-49
42168	0	0.361071587	-0.111181259	0.052992821	0.999972343	-0.005961418	0.002113342	-0.003716469	9.026789665	-2.779531479	1.324820518	-0.298073581	0.105668062	-0.185825107	-0.509033203	0.796142578	-0.143554688	891.62	-45.63136813	-69.36778396	-51.59731673	-49
42169	0	0.373901367	-0.105834961	0.045593262	0.999987602	-0.004821777	0.000573158	-0.000495911	9.34753418	-2.645874023	1.139831543	-0.241089824	0.028658027	-0.024795631	-0.511474609	0.791748047	-0.131347656	891.58	-45.9402875	-69.367388	-51.85089641	-48
42170	0	0.3724823	-0.107377052	0.052308083	0.999977112	-0.005505562	-0.001589775	0.003334045	9.312057495	-2.684426308	1.307702065	-0.275280108	-0.079489337	0.166703492	-0.514160156	0.794189453	-0.125732422	891.62	-47.60669746	-69.21977572	-50.73298623	-48
42171	0	0.373535156	-0.111999512	0.062072754	0.999958992	-0.005390167	-0.003870964	0.006057739	9.338378906	-2.799987793	1.551818848	-0.269511988	-0.193550807	0.302891039	-0.507568359	0.80078125	-0.114990234	891.56	-50.29188001	-68.99447931	-48.50746997	-48
42172	0	0.370017052	-0.123013496	0.070966721	0.999954224	-0.002210617	-0.006237984	0.006792068	9.250426292	-3.07533741	1.774168015	-0.11053251	-0.31190386	0.339608514	-0.49609375	0.807128906	-0.104736328	891.56	-53.25151274	-68.8324188	-45.59509326	-48
42173	0	0.377075195	-0.131286621	0.076782227	0.999925613	0.006810188	-0.008293152	0.005741119	9.426879883	-3.282165527	1.919555664	0.340517821	-0.41466783	0.287063056	-0.487060547	0.813476563	-0.093994141	891.58	-55.46153738	-68.85831731	-42.40440585	-48
42174	0	0.37555027	-0.131333351	0.091424942	0.999700546	0.022479057	-0.009032249	0.003325462	9.388756752	-3.283333778	2.28562355	1.124064907	-0.451657491	0.166289692	-0.482177734	0.815429688	-0.100341797	891.58	-55.67374555	-69.13507565	-39.47682154	-48
42175	0	0.380432129	-0.09197998	0.112365723	0.999464035	0.03173542	-0.007816315	0.001552582	9.510803223	-2.299499512	2.809143066	1.587054292	-0.390885506	0.077642948	-0.476806641	0.814941406	-0.135253906	891.58	-54.2471809	-69.50932284	-37.18797046	-49
42176	0	0.386912346	-0.051341057	0.154911995	0.999909401	0.012862206	-0.003927231	0.000332832	9.672808647	-1.283526421	3.872799873	0.643129674	-0.196367465	0.016642119	-0.48046875	0.803710938	-0.177490234	891.58	-53.79678159	-69.74874804	-36.11443854	-49
42177	0	0.381896973	-0.080505371	0.12890625	0.999990463	-0.004080772	0.00069046	-0.001148224	9.547424316	-2.012634277	3.22265625	-0.204039247	0.034523116	-0.05741137	-0.480224609	0.803710938	-0.188964844	891.64	-53.85408931	-69.8140589	-36.53120132	-50
42178	0	0.377471924	-0.105059624	0.108122826	0.999968529	-0.007249832	0.00147438	-0.002539635	9.436798096	-2.626490593	2.703070641	-0.362495304	0.073719776	-0.12698303	-0.480224609	0.803710938	-0.180419922	891.62	-53.8137962	-69.95454651	-37.43330819	-50
42179	0	0.369140625	-0.112854004	0.086791992	0.999977112	-0.005309105	0.002407074	-0.003387451	9.228515625	-2.821350098	2.169799805	-0.265457257	0.120354611	-0.169373842	-0.485351563	0.803955078	-0.168457031	891.62	-53.14600767	-70.10708041	-38.77847677	-50
42180	0	0.360085487	-0.11868	0.071446419	0.99998188	-0.004429817	0.003011703	-0.002619743	9.002137184	-2.967000008	1.786160469	-0.221492173	0.150586067	-0.130987944	-0.489990234	0.799804688	-0.159179688	891.58	-52.36279423	-70.14133394	-40.1502938	-49
42181	0	0.365112305	-0.116271973	0.055175781	0.999991417	-0.003120422	0.002602577	-0.00069809	9.127807617	-2.906799316	1.379394531	-0.15602156	0.130129229	-0.034904579	-0.492431641	0.799804688	-0.159179688	891.56	-51.91096742	-70.02573733	-41.00685794	-50
42182	0	0.369409561	-0.114110947	0.049793243	0.999998093	-0.000288963	0.001362801	0.001051903	9.235239029	-2.852773666	1.244831085	-0.014448173	0.068140065	0.052595165	-0.492431641	0.797607422	-0.156005859	891.62	-51.79255188	-69.83937065	-41.17397623	-50
42183	0	0.363647461	-0.107177734	0.058532715	0.999994278	0.001923561	-3.43323E-05	0.002639771	9.091186523	-2.679443359	1.463317871	0.096178226	-0.001716617	0.13198876	-0.487792969	0.802001953	-0.162353516	891.62	-52.0695102	-69.60914024	-40.64263278	-51
42184	0	0.364989281	-0.105743408	0.065319061	0.999988556	0.002674103	-0.001095772	0.00356102	9.124732018	-2.643585205	1.632976532	0.133705608	-0.054788782	0.178051619	-0.485351563	0.803955078	-0.159912109	891.56	-52.68120622	-69.36865695	-39.67466126	-51
42185	0	0.369506836	-0.108947754	0.063781738	0.999985695	0.003124237	-0.002039909	0.003799438	9.237670898	-2.723693848	1.594543457	0.156212591	-0.10199595	0.189972822	-0.478271484	0.805908203	-0.166259766	891.58	-53.4967669	-69.16763725	-38.42445787	-51
42186	0	0.372742653	-0.107117653	0.062493324	0.99998188	0.003738403	-0.002674103	0.003879547	9.318566322	-2.677941322	1.562333107	0.186921293	-0.133705945	0.193978526	-0.473632813	0.808105469	-0.169433594	891.56	-54.3922737	-68.99615766	-37.01281561	-52
42187	0	0.373657227	-0.105163574	0.067565918	0.999970436	0.005897522	-0.00310421	0.003646851	9.341430664	-2.629089355	1.689147949	0.294878935	-0.155211988	0.182344283	-0.468994141	0.810058594	-0.169921875	891.48	-55.08910541	-68.86866147	-35.56034498	-52
42188	0	0.37343502	-0.099316597	0.079345703	0.999962807	0.007517815	-0.002952576	0.00299263	9.335875511	-2.482914925	1.983642578	0.37589538	-0.14763061	0.149633351	-0.464111328	0.812011719	-0.178955078	891.56	-55.44146118	-68.78872444	-34.27703099	-52
42189	0	0.371704102	-0.094421387	0.094421387	0.999976158	0.006053925	-0.002371788	0.00188446	9.292602539	-2.360534668	2.360534668	0.30269854	-0.118590307	0.094223742	-0.459228516	0.811767578	-0.187988281	891.64	-55.62779235	-68.77406938	-33.34636656	-53
42190	0	0.37203598	-0.092357635	0.104515076	0.999996185	0.002181053	-0.001345634	0.000273705	9.300899506	-2.308940887	2.612876892	0.109052779	-0.067281798	0.013685242	-0.458984375	0.809570313	-0.199462891	891.62	-55.73538507	-68.84497896	-32.95574705	-53
42191	0	0.370300293	-0.096496582	0.104675293	0.999993324	-0.003227234	0.00024128	-0.000995636	9.257507324	-2.412414551	2.616882324	-0.161362003	0.012064003	-0.049781894	-0.458984375	0.809570313	-0.196533203	891.58	-55.85868644	-68.93375346	-33.20729512	-53
42192	0	0.366019249	-0.11165905	0.09759903	0.999979973	-0.005890846	0.001493454	-0.001420021	9.150481224	-2.79147625	2.439975739	-0.294544225	0.074673184	-0.071001514	-0.461425781	0.812011719	-0.190673828	891.52	-55.90439918	-68.98198216	-33.86441212	-52
42193	0	0.367980957	-0.121398926	0.08026123	0.999973297	-0.006976128	0.0014534	-0.00107193	9.199523926	-3.034973145	2.006530762	-0.3488094	0.072670612	-0.05359696	-0.464111328	0.814208984	-0.185058594	891.56	-56.14188266	-68.99993245	-34.44107854	-53
42194	0	0.363512039	-0.12638855	0.076259613	0.999986649	-0.004731178	0.001496315	-0.000763893	9.08780098	-3.159713745	1.906490326	-0.236559908	0.074816064	-0.038194817	-0.464111328	0.812011719	-0.173339844	891.62	-56.16373946	-68.98578822	-34.98452133	-52
42195	0	0.363830566	-0.094604492	0.082275391	0.999995232	-0.000953674	0.001507759	-0.002262115	9.09576416	-2.365112305	2.056884766	-0.047683782	0.075388059	-0.11310593	-0.466796875	0.812255859	-0.167480469	891.58	-55.49454184	-69.11241321	-35.81596341	-52
42196	0	0.369188309	-0.103830338	0.08062458	0.999987602	-0.003500938	0.001432419	-0.003026009	9.229707718	-2.595758438	2.01561451	-0.175047605	0.071621221	-0.151301022	-0.469238281	0.814453125	-0.167480469	891.62	-54.99340543	-69.31312879	-36.76906849	-52
42197	0	0.370117188	-0.115234375	0.077270508	0.999991417	-0.00320816	0.000714302	-0.002285004	9.252929688	-2.880859375	1.931762695	-0.160408448	0.035715199	-0.114250488	-0.473876953	0.810302734	-0.163818359	891.48	-54.75584856	-69.489408	-37.40243242	-51
42198	0	0.366121292	-0.110011101	0.074152946	0.999996185	-0.001772881	1.62125E-05	-0.001771927	9.153032303	-2.750277519	1.853823662	-0.088644121	0.000810624	-0.088596437	-0.480957031	0.808349609	-0.160400391	891.62	-54.61371635	-69.66325108	-37.76104048	-51
42199	0	0.367919922	-0.104309082	0.068054199	0.999996185	-0.001799583	-0.000282288	-0.001716614	9.197998047	-2.607727051	1.70135498	-0.089979266	-0.014114395	-0.085830778	-0.481201172	0.810546875	-0.154785156	891.62	-54.55686835	-69.85194603	-38.03571663	-51
42200	0	0.367115021	-0.109881401	0.066166878	0.999995232	-0.002017021	-0.000450134	-0.002160072	9.177875519	-2.747035027	1.654171944	-0.100851209	-0.022506747	-0.108003777	-0.483154297	0.806152344	-0.154296875	891.58	-54.48488764	-70.09324542	-38.34553572	-51
42201	0	0.368286133	-0.11126709	0.065185547	0.999996185	2.38419E-05	-0.00075531	-0.002464294	9.20715332	-2.781677246	1.629638672	0.001192094	-0.037765545	-0.123214858	-0.488037109	0.804199219	-0.145263672	891.58	-54.19683969	-70.38298764	-38.65378837	-50
42202	0	0.36942482	-0.123727798	0.064206123	0.999996185	0.001791954	-0.00127697	-0.001432419	9.235620499	-3.093194962	1.605153084	0.089597805	-0.063848569	-0.071621023	-0.495117188	0.800048828	-0.14453125	891.62	-54.03447613	-70.61111002	-38.62020202	-50
42203	0	0.370483398	-0.129333496	0.060974121	0.999988556	0.004124641	-0.002113342	0.000534058	9.262084961	-3.233337402	1.524353027	0.206232819	-0.105667498	0.026702978	-0.494873047	0.797851563	-0.153076172	891.68	-54.20701891	-70.71219206	-37.94018254	-51
42204	0	0.373423576	-0.113614082	0.074310303	0.999978065	0.005990028	-0.002267838	0.001262665	9.335589409	-2.840352058	1.857757568	0.299503546	-0.113392682	0.063133688	-0.494873047	0.802246094	-0.15625	891.56	-54.35078179	-70.75482981	-37.07368052	-50
42205	0	0.373718262	-0.102172852	0.089782715	0.999987602	0.004646301	-0.001410484	0.000587463	9.342956543	-2.554321289	2.244567871	0.23231599	-0.070524497	0.029373286	-0.497070313	0.797851563	-0.164550781	891.58	-54.29033906	-70.80244217	-36.58240934	-50
42206	0	0.372220039	-0.101661682	0.095538139	0.999996185	0.002484322	-0.00090313	0.000427246	9.305500984	-2.541542053	2.388453484	0.124216228	-0.045156533	0.02136233	-0.494628906	0.797607422	-0.167480469	891.62	-54.30930818	-70.83057016	-36.26837845	-49
42207	0	0.374755859	-0.101928711	0.090881348	0.999997139	0.002025604	-0.000193596	0.00038147	9.368896484	-2.548217773	2.272033691	0.101280285	-0.009679801	0.0190735	-0.491943359	0.797607422	-0.176269531	891.62	-54.18019307	-70.81519076	-36.15364667	-49
42208	0	0.371171951	-0.100343704	0.084672928	0.999995232	0.002770424	0.000204086	0.000201225	9.279298782	-2.508592606	2.116823196	0.138521374	0.010204328	0.010061277	-0.4921875	0.797607422	-0.170410156	891.48	-53.82363136	-70.78972099	-36.21119791	-50
42209	0	0.372680664	-0.100280762	0.076721191	0.999998093	0.001648903	0.000713348	0.000286102	9.317016602	-2.507019043	1.918029785	0.08244519	0.035667439	0.014305123	-0.491943359	0.795166016	-0.178955078	891.56	-53.47774223	-70.72184111	-36.38240032	-50
42210	0	0.373196602	-0.102468491	0.068252563	0.999999046	0.000818253	0.000774384	0.000510216	9.329915047	-2.561712265	1.706314087	0.040912639	0.038719187	0.025510794	-0.491699219	0.795166016	-0.184814453	891.56	-53.25748093	-70.62919075	-36.51390011	-49
42211	0	0.372802734	-0.104064941	0.065368652	0.999999046	0.001121521	0.000386238	0.000576019	9.320068359	-2.601623535	1.634216309	0.056076066	0.019311911	0.028800973	-0.489501953	0.797363281	-0.182128906	891.58	-53.11940515	-70.55733874	-36.53139702	-49
42212	0	0.370193481	-0.101841927	0.065942764	0.999999046	0.000819206	4.57764E-05	0.000602722	9.254837036	-2.546048164	1.648569107	0.040960319	0.002288819	0.030136114	-0.489501953	0.797363281	-0.185058594	891.58	-53.11108995	-70.50681675	-36.44506142	-49
42213	0	0.370117188	-0.100769043	0.067993164	0.999999046	0.000865936	-0.000361443	0.000686646	9.252929688	-2.519226074	1.699829102	0.043296824	-0.018072132	0.034332283	-0.487060547	0.797119141	-0.190917969	891.56	-53.21977078	-70.47690136	-36.21825207	-49
42214	0	0.371071815	-0.098588943	0.073020935	0.999999046	0.000402451	-0.000598907	0.000465393	9.276795387	-2.464723587	1.825523376	0.020122531	-0.029945377	0.023269656	-0.487060547	0.795166016	-0.185058594	891.52	-53.4001275	-70.48370251	-35.98390653	-49
42215	0	0.373168945	-0.099243164	0.078125	0.999999046	-0.000614166	-0.000384331	0.000190735	9.329223633	-2.481079102	1.953125	-0.030708316	-0.019216539	0.009536744	-0.487060547	0.795166016	-0.185058594	891.58	-53.58799539	-70.5010842	-35.86217415	-49
42216	0	0.37129879	-0.104489326	0.080334663	0.999998093	-0.001607895	-0.000288963	0.000125885	9.282469749	-2.612233162	2.008366585	-0.080394781	-0.014448172	0.006294253	-0.487060547	0.797363281	-0.182373047	891.62	-53.85229559	-70.51768878	-35.7798624	-49
42217	0	0.37286377	-0.106567383	0.081481934	0.999999046	-0.000785828	-0.000136375	-0.000114441	9.321594238	-2.66418457	2.03704834	-0.039291386	-0.006818772	-0.005722047	-0.489746094	0.799560547	-0.179443359	891.56	-53.93629299	-70.54592772	-35.7930558	-49
42218	0	0.375595093	-0.102705956	0.082620621	0.999998093	-0.001339912	0.000323296	0.000244141	9.389877319	-2.567648888	2.065515518	-0.066995643	0.016164785	0.012207035	-0.489501953	0.797363281	-0.182128906	891.56	-54.03077307	-70.50989195	-35.85269144	-49
42219	0	0.366882324	-0.104187012	0.081787109	0.999998093	-0.001662254	0.000549316	0.000598907	9.172058105	-2.604675293	2.044677734	-0.083112764	0.027465836	0.029945391	-0.489501953	0.799560547	-0.182373047	891.56	-54.16949888	-70.42554561	-35.90021766	-49
42220	0	0.370089531	-0.104704857	0.0772686	0.999998093	-0.001373291	0.000634193	0.000396729	9.252238274	-2.617621422	1.931715012	-0.068664579	0.031709684	0.019836434	-0.487304688	0.801757813	-0.1796875	891.58	-54.21460894	-70.35428766	-36.01393113	-49
42221	0	0.368835449	-0.106506348	0.07232666	0.999997139	-0.002182007	0.000710487	-0.000331879	9.22088623	-2.662658691	1.808166504	-0.10910044	0.0355244	-0.016593948	-0.487304688	0.797363281	-0.176513672	891.52	-54.19653808	-70.34568001	-36.29354615	-49
42222	0	0.365818024	-0.111883163	0.070770264	0.999997139	-0.001850128	0.000385284	-0.000699043	9.145450592	-2.797079086	1.769256592	-0.092506471	0.019264234	-0.034952187	-0.487548828	0.801757813	-0.174072266	891.56	-54.15705918	-70.39276837	-36.55539105	-49
42223	0	0.370849609	-0.113037109	0.069458008	0.999999046	-0.000720978	0.000180244	-0.000801086	9.271240234	-2.825927734	1.736450195	-0.036048896	0.009012224	-0.040054329	-0.487548828	0.801757813	-0.168212891	891.56	-54.02288454	-70.46285823	-36.79006666	-49
42224	0	0.372042656	-0.112786293	0.069671631	0.999999046	-0.000956535	-7.05719E-05	-0.000397682	9.301066399	-2.819657326	1.741790771	-0.047826776	-0.003528596	-0.019884113	-0.489990234	0.802001953	-0.168212891	891.52	-54.05851601	-70.51223206	-36.87058158	-49
42225	0	0.37097168	-0.112731934	0.07232666	0.999999046	-0.000362396	-0.000357628	0.000389099	9.274291992	-2.81829834	1.808166504	-0.018119813	-0.017881395	0.019454957	-0.489990234	0.799804688	-0.16796875	891.56	-54.25184309	-70.50762619	-36.71021481	-49
42226	0	0.36978054	-0.109596252	0.075460434	0.999999046	0.000434875	-0.000394821	0.000746727	9.244513512	-2.739906311	1.886510849	0.021743778	-0.019741061	0.037336355	-0.489990234	0.802001953	-0.168212891	891.58	-54.43114214	-70.47184164	-36.46839115	-49
42227	0	0.370605469	-0.106018066	0.077819824	0.999999046	0.000232697	-0.000323296	0.000946045	9.265136719	-2.65045166	1.945495605	0.011634829	-0.016164783	0.047302254	-0.489990234	0.804199219	-0.171142578	891.56	-54.65083708	-70.4123291	-36.20283581	-49
42228	0	0.370580673	-0.104364395	0.077627182	0.999999046	0.000517845	-0.000238419	0.000685692	9.26451683	-2.609109879	1.94067955	0.025892261	-0.011920931	0.034284596	-0.487548828	0.801757813	-0.168212891	891.48	-54.76550337	-70.37129917	-36.02042739	-50
42229	0	0.372253418	-0.102111816	0.078063965	0.999999046	0.00050354	-6.38962E-05	0.00037384	9.306335449	-2.55279541	1.951599121	0.025177004	-0.003194809	0.018692018	-0.487548828	0.801757813	-0.171142578	891.52	-54.77704815	-70.34797755	-35.94474215	-50
42230	0	0.372001648	-0.103657722	0.074762344	0.999999046	0.000274658	2.86102E-05	0.000121117	9.300041199	-2.591443062	1.869058609	0.01373291	0.001430511	0.006055832	-0.487792969	0.804199219	-0.165527344	891.56	-54.74351751	-70.34234907	-35.95751671	-49
42231	0	0.372009277	-0.10369873	0.07232666	0.999999046	0.000328064	5.81741E-05	0.000144958	9.300231934	-2.592468262	1.808166504	0.016403199	0.002908707	0.007247925	-0.487548828	0.803955078	-0.171386719	891.56	-54.70063303	-70.33274877	-35.96260966	-49
42232	0	0.368551254	-0.106200218	0.072255135	0.999999046	0.000212669	-5.34058E-05	0.000190735	9.213781357	-2.655005455	1.806378365	0.010633469	-0.002670288	0.009536743	-0.487792969	0.804199219	-0.168457031	891.56	-54.70897381	-70.32631325	-35.93412253	-49
42233	0	0.373596191	-0.107910156	0.073242188	0.999999046	0.000335693	4.673E-05	6.10352E-05	9.339904785	-2.697753906	1.831054688	0.016784668	0.002336502	0.003051758	-0.485351563	0.803955078	-0.171386719	891.58	-54.65333463	-70.32542775	-35.95268334	-49
42234	0	0.369363785	-0.10906601	0.073898315	0.999999046	-0.000520706	3.8147E-05	0.000109673	9.23409462	-2.726650238	1.847457886	-0.02603531	0.001907349	0.005483628	-0.485351563	0.803955078	-0.171386719	891.56	-54.70744667	-70.3204799	-35.95727573	-48
42235	0	0.368408203	-0.110351563	0.077453613	0.999999046	0.000232697	-0.000105858	0.000221252	9.210205078	-2.758789063	1.936340332	0.011634827	-0.005292893	0.011062622	-0.485351563	0.803955078	-0.168457031	891.48	-54.73352609	-70.31438311	-35.90654839	-48
42236	0	0.370696068	-0.107550621	0.078034401	0.999999046	0.0002985	-5.91278E-05	0.000247002	9.267401695	-2.688765526	1.950860023	0.014925003	-0.00295639	0.012350083	-0.485351563	0.803955078	-0.168457031	891.48	-54.74426479	-70.30267584	-35.86487265	-48
42237	0	0.368591309	-0.108642578	0.076293945	0.999999046	-3.43323E-05	-6.38962E-05	9.53674E-05	9.214782715	-2.716064453	1.907348633	-0.001716614	-0.003194809	0.004768372	-0.485351563	0.803955078	-0.171386719	891.56	-54.76635683	-70.30534331	-35.84526191	-49
42238	0	0.370044708	-0.109512329	0.074894905	0.999999046	0.000169754	-0.000192642	1.04904E-05	9.251117706	-2.737808228	1.872372627	0.008487702	-0.009632111	0.000524521	-0.487792969	0.804199219	-0.168457031	891.62	-54.78331534	-70.3243682	-35.81335112	-49
42239	0	0.369567871	-0.104797363	0.073303223	0.999999046	0.000743866	-0.000163078	-0.000244141	9.239196777	-2.619934082	1.832580566	0.037193302	-0.008153916	-0.012207033	-0.487792969	0.804199219	-0.168457031	891.52	-54.67960043	-70.36538805	-35.84147689	-49
42240	0	0.370437622	-0.108597755	0.073099136	0.999999046	-0.000170708	-0.000150681	-2.28882E-05	9.260940552	-2.714943886	1.827478409	-0.008535385	-0.007534027	-0.001144409	-0.487548828	0.803955078	-0.171386719	891.62	-54.71882803	-70.38486573	-35.82190267	-49
42241	0	0.372131348	-0.111328125	0.074035645	0.999999046	-0.000415802	-6.00815E-05	-4.57764E-05	9.303283691	-2.783203125	1.850891113	-0.020790101	-0.003004074	-0.002288818	-0.487792969	0.804199219	-0.168457031	891.56	-54.75864152	-70.40035375	-35.83602702	-50
42242	0	0.371173859	-0.112029076	0.075605392	0.999999046	-0.000312805	-4.00543E-05	0.000258446	9.279346466	-2.800726891	1.890134811	-0.015640259	-0.002002716	0.012922287	-0.487548828	0.803955078	-0.171386719	891.58	-54.83818038	-70.38581489	-35.78823108	-50
42243	0	0.36907959	-0.111633301	0.077697754	0.999999046	8.39233E-05	-4.48227E-05	0.000301361	9.226989746	-2.79083252	1.942443848	0.004196167	-0.002241135	0.015068054	-0.485351563	0.803955078	-0.168457031	891.56	-54.88137838	-70.36726361	-35.73614543	-49
42244	0	0.371094704	-0.111234665	0.077132225	0.999999046	-2.86102E-06	-3.8147E-05	0.000476837	9.277367592	-2.780866623	1.928305626	-0.000143051	-0.001907349	0.023841859	-0.485107422	0.801757813	-0.171142578	891.56	-54.9650255	-70.33158681	-35.64595859	-49
42245	0	0.369445801	-0.108947754	0.075561523	0.999999046	-0.000133514	0.000237465	0.000453949	9.23614502	-2.723693848	1.889038086	-0.006675721	0.011873246	0.02269745	-0.485351563	0.803955078	-0.168457031	891.52	-54.98689453	-70.2798171	-35.64327934	-50
42246	0	0.372303963	-0.107292175	0.074365616	0.999999046	0.000303268	-5.53131E-05	0.00037384	9.307599068	-2.682304382	1.859140396	0.015163422	-0.002765656	0.018692017	-0.482910156	0.803955078	-0.165771484	891.56	-55.02057157	-70.25488634	-35.58031159	-51
42247	0	0.370117188	-0.106018066	0.075012207	0.999999046	-3.8147E-05	0.000153542	0.000328064	9.252929688	-2.65045166	1.875305176	-0.001907349	0.007677078	0.016403199	-0.485107422	0.801757813	-0.168457031	891.52	-55.03007568	-70.22060609	-35.57991339	-51
42248	0	0.371062279	-0.105840683	0.073652267	0.999999046	6.00815E-05	2.86102E-05	0.000259399	9.276556969	-2.646017075	1.841306686	0.003004074	0.001430511	0.012969971	-0.485351563	0.803955078	-0.165771484	891.58	-55.04832126	-70.2011269	-35.5642221	-51
42249	0	0.37097168	-0.107910156	0.075195313	0.999999046	-0.000522614	0.000119209	0.000213623	9.274291992	-2.697753906	1.879882813	-0.026130678	0.005960465	0.010681153	-0.482666016	0.801757813	-0.171386719	891.62	-55.10123627	-70.18002962	-35.56830528	-50
42250	0	0.369746208	-0.110100746	0.075228691	0.999999046	-0.000190735	0.000131607	0.000175476	9.243655205	-2.752518654	1.880717278	-0.009536743	0.006580353	0.008773804	-0.482910156	0.806152344	-0.168945313	891.52	-55.10603033	-70.16163407	-35.58827532	-50
42251	0	0.369873047	-0.110595703	0.072937012	0.999999046	-0.000358582	0.000100136	9.15527E-05	9.246826172	-2.764892578	1.823425293	-0.017929078	0.00500679	0.004577637	-0.482910156	0.806152344	-0.171630859	891.58	-55.12342944	-70.15317318	-35.60883433	-50
42252	0	0.368067741	-0.110655785	0.07451725	0.999999046	0.00014019	-3.24249E-05	8.01086E-05	9.201693535	-2.766394615	1.862931252	0.007009506	-0.001621246	0.004005432	-0.483154297	0.806152344	-0.166015625	891.62	-55.11633039	-70.15438295	-35.6066932	-51
42253	0	0.370422363	-0.107910156	0.074829102	0.999999046	0.000217438	0.000149727	0.00019455	9.260559082	-2.697753906	1.870727539	0.010871887	0.007486344	0.009727478	-0.482910156	0.806152344	-0.168945313	891.58	-55.07368801	-70.1329436	-35.62777166	-50
42254	0	0.370479584	-0.107168198	0.074680328	0.999999046	-0.000196457	4.95911E-05	0.000254631	9.261989594	-2.679204941	1.867008209	-0.009822846	0.002479553	0.012731552	-0.485351563	0.806152344	-0.168701172	891.56	-55.11532702	-70.11251321	-35.61060378	-50
42255	0	0.369995117	-0.10736084	0.077331543	0.999999046	-0.000270844	1.23978E-05	0.000148773	9.24987793	-2.684020996	1.933288574	-0.013542176	0.000619888	0.00743866	-0.483154297	0.806152344	-0.166015625	891.58	-55.15551968	-70.1044743	-35.60764814	-50
42256	0	0.371669769	-0.107878685	0.075266838	0.999999046	-0.000510216	0.000232697	-3.05176E-05	9.291744232	-2.696967125	1.881670952	-0.025510789	0.011634827	-0.001525879	-0.483154297	0.806152344	-0.166015625	891.56	-55.13333792	-70.09894146	-35.69874912	-50
42257	0	0.369628906	-0.108886719	0.075805664	0.999999046	-0.000862122	0.000157356	2.28882E-05	9.240722656	-2.722167969	1.895141602	-0.043106085	0.007867814	0.001144409	-0.480712891	0.806152344	-0.166015625	891.58	-55.18062941	-70.09331106	-35.75516998	-50
42258	0	0.370026588	-0.110316277	0.075426102	0.999999046	-0.000581741	0.000185013	9.53674E-05	9.250664711	-2.757906914	1.885652542	-0.029087069	0.009250641	0.004768372	-0.480712891	0.806152344	-0.163085938	891.58	-55.20176852	-70.0790133	-35.80961204	-50
42259	0	0.37322998	-0.111328125	0.074829102	0.999999046	-0.000480652	0.000161171	5.72205E-05	9.330749512	-2.783203125	1.870727539	-0.024032594	0.008058548	0.002861023	-0.480712891	0.806152344	-0.168945313	891.56	-55.21085962	-70.06985718	-35.8512452	-50
42260	0	0.369713783	-0.11156559	0.075388908	0.999999046	-0.000611305	0.000204086	0.000225067	9.242844582	-2.789139748	1.88472271	-0.030565264	0.010204316	0.011253358	-0.480712891	0.808349609	-0.169189453	891.52	-55.25420567	-70.04201037	-35.87065118	-50
42261	0	0.367004395	-0.11114502	0.074707031	0.999999046	0.00038147	0.000123024	0.000263214	9.175109863	-2.778625488	1.867675781	0.019073487	0.0061512	0.013160706	-0.483154297	0.806152344	-0.166015625	891.48	-55.21186969	-70.01577409	-35.86929062	-50
42262	0	0.366989136	-0.110122681	0.073658943	0.999999046	-0.000291824	9.91821E-05	0.000372887	9.174728394	-2.753067017	1.841473579	-0.014591218	0.004959107	0.018644334	-0.478271484	0.805908203	-0.166259766	891.48	-55.27276741	-69.98075467	-35.8371137	-51
42263	0	0.367675781	-0.108459473	0.072387695	0.999999046	0.000556946	-6.77109E-05	0.000324249	9.191894531	-2.711486816	1.809692383	0.027847292	-0.003385544	0.016212465	-0.480712891	0.806152344	-0.166015625	891.68	-55.27094926	-69.96131388	-35.77156144	-50
42264	0	0.373475075	-0.106789589	0.073186874	0.999999046	-0.000254631	-2.67029E-05	0.000301361	9.336876869	-2.669739723	1.82967186	-0.012731552	-0.001335144	0.015068055	-0.480712891	0.806152344	-0.166015625	891.56	-55.34733752	-69.94159728	-35.72094475	-51
42265	0	0.373718262	-0.110473633	0.072570801	0.999999046	-0.000293732	3.14713E-05	0.000389099	9.342956543	-2.76184082	1.81427002	-0.014686585	0.001573563	0.019454957	-0.478271484	0.808105469	-0.169189453	891.62	-55.42902381	-69.90993183	-35.6614275	-51
42266	0	0.369418144	-0.107999802	0.0772295	0.999999046	-2.09808E-05	-0.000246048	0.000231743	9.235453606	-2.699995041	1.930737495	-0.001049042	-0.012302399	0.011587143	-0.478271484	0.805908203	-0.169189453	891.52	-55.52250685	-69.91115868	-35.55552361	-50
42267	0	0.37121582	-0.108398438	0.077514648	0.999999046	6.48499E-05	-0.000323296	-9.15527E-05	9.280395508	-2.709960938	1.937866211	0.003242493	-0.01616478	-0.004577637	-0.480712891	0.808349609	-0.163330078	891.58	-55.56836811	-69.9479449	-35.50243794	-51
42268	0	0.370554924	-0.108992577	0.079545975	0.999999046	-0.000229836	-0.000104904	-0.00018692	9.2638731	-2.724814415	1.988649368	-0.011491776	-0.005245209	-0.009346008	-0.480957031	0.810546875	-0.160644531	891.56	-55.57389502	-69.97952747	-35.53258581	-51
42269	0	0.370361328	-0.108520508	0.078918457	0.999999046	-0.000148773	0.000180244	-7.24792E-05	9.259033203	-2.713012695	1.972961426	-0.00743866	0.009012222	-0.003623962	-0.478515625	0.808105469	-0.166259766	891.58	-55.5158383	-69.98177014	-35.60749909	-51
42270	0	0.372423172	-0.105805397	0.079629898	0.999999046	-0.001066208	0.000429153	-0.000119209	9.3105793	-2.645134926	1.990747452	-0.053310406	0.021457677	-0.005960466	-0.478515625	0.808349609	-0.163574219	891.48	-55.48916386	-69.97233662	-35.7635929	-51
42271	0	0.371276855	-0.102539063	0.08026123	0.999990463	-0.004183769	0.001148224	-0.000171661	9.281921387	-2.563476563	2.006530762	-0.209189119	0.057411374	-0.008583096	-0.480957031	0.808349609	-0.157470703	891.58	-55.62319929	-69.92148638	-36.13063527	-50
42272	0	0.370648384	-0.113438606	0.077662468	0.999984741	-0.005130768	0.001534462	-0.000484467	9.266209602	-2.835965157	1.941561699	-0.256539627	0.076723468	-0.024223444	-0.478759766	0.808349609	-0.151855469	891.56	-55.71119194	-69.87534442	-36.65880334	-51
42273	0	0.371398926	-0.11706543	0.076721191	0.999996185	-0.002367973	0.001026154	-0.000556946	9.284973145	-2.926635742	1.918029785	-0.118398804	0.051307738	-0.027847322	-0.483642578	0.810791016	-0.145996094	891.48	-55.60207463	-69.86862747	-37.06777739	-50
42274	0	0.370079994	-0.114591599	0.080111504	0.999999046	-0.000318527	0.000751495	-0.000182152	9.251999855	-2.864789963	2.00278759	-0.015926363	0.037574772	-0.009107591	-0.481201172	0.810546875	-0.149169922	891.56	-55.39527853	-69.84368829	-37.32343172	-50
42275	0	0.36706543	-0.106872559	0.069274902	0.999999046	-0.001056671	0.000466347	0.000114441	9.176635742	-2.671813965	1.731872559	-0.052833569	0.023317342	0.005722047	-0.483642578	0.810791016	-0.143066406	891.64	-55.39983305	-69.80946028	-37.45513409	-50
42276	0	0.368883133	-0.107680321	0.053277016	0.999998093	-0.001489639	-0.000166893	0.00014019	9.222078323	-2.692008018	1.331925392	-0.074481992	-0.008344653	0.007009509	-0.481201172	0.810791016	-0.146240234	891.58	-55.6236163	-69.81470482	-37.39359684	-51
42277	0	0.368469238	-0.115661621	0.061218262	0.999997139	-0.001689911	-0.000464439	0.001548767	9.211730957	-2.891540527	1.530456543	-0.084495621	-0.023221991	0.077438425	-0.481201172	0.810791016	-0.146240234	891.62	-56.19430918	-69.70543177	-36.98159398	-50
42278	0	0.367700577	-0.094353676	0.075695992	0.999992371	-0.003439903	-0.000252724	0.001225471	9.19251442	-2.358841896	1.892399788	-0.171995547	-0.012636213	0.061273712	-0.479003906	0.812988281	-0.137939453	891.56	-56.84893681	-69.61286113	-36.69849789	-50
42279	0	0.373657227	-0.107788086	0.098205566	0.999936104	-0.011047363	0.002083778	0.000938416	9.341430664	-2.694702148	2.45513916	-0.552379881	0.104191129	0.046921772	-0.477050781	0.815185547	-0.129394531	891.56	-57.71602174	-69.40165552	-37.10357494	-49
42280	0	0.370149612	-0.121659279	0.098495483	0.999959946	-0.008323669	0.003201485	0.000730515	9.253740311	-3.041481972	2.462387085	-0.416189026	0.16007637	0.036526214	-0.475097656	0.819580078	-0.115478516	891.64	-57.94777947	-69.14298995	-37.86153835	-49
42281	0	0.379150391	-0.119995117	0.102111816	0.99996376	-0.006640434	0.005096436	0.001304626	9.478759766	-2.99987793	2.55279541	-0.332025685	0.254824826	0.065232104	-0.475341797	0.819580078	-0.104003906	891.62	-57.61121362	-68.71197349	-39.03630654	-49
42282	0	0.363314629	-0.124368668	0.09789753	0.99996376	-0.006117821	0.005204201	0.002707481	9.082865715	-3.10921669	2.44743824	-0.3058947	0.260213153	0.13537569	-0.468505859	0.823974609	-0.095947266	891.46	-57.43760392	-68.13598007	-39.98030181	-49
42283	0	0.360900879	-0.119873047	0.077331543	0.999978065	-0.004058838	0.004677773	0.00227356	9.022521973	-2.996826172	1.933288574	-0.202943367	0.233890323	0.113678803	-0.463867188	0.828125	-0.09375	891.52	-57.1165675	-67.63297516	-40.83168886	-49
42284	0	0.363976479	-0.12555027	0.075153351	0.999986649	0.000415802	0.004860878	0.001256943	9.099411964	-3.138756752	1.878833771	0.020790188	0.243044928	0.062847403	-0.459228516	0.830322266	-0.096923828	891.48	-56.11914007	-67.21216007	-41.86609876	-49
42285	0	0.361328125	-0.11730957	0.066833496	0.999979973	-0.00510025	0.003361702	0.001010895	9.033203125	-2.932739258	1.670837402	-0.255014142	0.168086172	0.050545062	-0.461669922	0.830322266	-0.099853516	891.58	-56.08075843	-66.90776345	-42.53451118	-49
42286	0	0.363248825	-0.12720871	0.067193031	0.99998951	-0.004005432	0.002008438	0.000297546	9.081220627	-3.180217743	1.679825783	-0.20027228	0.100422243	0.014877369	-0.45703125	0.832519531	-0.094482422	891.56	-56.12003078	-66.75818818	-42.98239873	-49
42287	0	0.359558105	-0.120910645	0.066589355	0.999996185	-0.002108574	0.001087189	-0.000740051	8.988952637	-3.022766113	1.664733887	-0.105428804	0.054359492	-0.037002602	-0.454589844	0.832275391	-0.091552734	891.52	-55.99456152	-66.76677223	-43.37249983	-48
42288	0	0.357507706	-0.124659538	0.073615074	0.999998093	-0.000667572	-0.000187874	-0.001497269	8.937692642	-3.116488457	1.840376854	-0.033378616	-0.009393696	-0.074863468	-0.45703125	0.830322266	-0.085693359	891.48	-55.87290694	-66.92906381	-43.58812487	-49
42289	0	0.359191895	-0.12713623	0.083679199	0.999998093	0.00073719	-0.001098633	-0.001426697	8.979797363	-3.178405762	2.09197998	0.036859536	-0.054931675	-0.071334884	-0.459472656	0.830322266	-0.085449219	891.48	-55.80258416	-67.14306093	-43.57332783	-49
42290	0	0.358251572	-0.107945442	0.069929123	0.999987602	-0.004299164	-0.001468658	-0.001893997	8.956289291	-2.698636055	1.748228073	-0.214959059	-0.073433219	-0.094700242	-0.464111328	0.830566406	-0.085205078	891.52	-56.3244956	-67.42608567	-43.52600184	-49
42291	0	0.363525391	-0.110473633	0.051391602	0.999973297	-0.00524044	-0.00220108	-0.004543304	9.088134766	-2.76184082	1.284790039	-0.262024331	-0.110054987	-0.227167227	-0.466796875	0.828613281	-0.070556641	891.58	-56.72492455	-68.00985858	-43.73183473	-48
42292	0	0.366496086	-0.121042252	0.060338974	0.99998188	0.001645088	-0.002717972	-0.005019188	9.162402153	-3.02605629	1.50847435	0.082254894	-0.135899389	-0.250960872	-0.476074219	0.824462891	-0.066650391	891.58	-56.38137299	-68.67231331	-43.89675874	-49
42293	0	0.370239258	-0.115661621	0.084594727	0.999990463	-0.000605583	-0.002700806	-0.003242493	9.255981445	-2.891540527	2.114868164	-0.030279251	-0.135040692	-0.162125125	-0.485351563	0.818115234	-0.068603516	891.52	-56.5750774	-69.16375658	-43.75295746	-49
42294	0	0.371321678	-0.120459557	0.098679543	0.999990463	-0.003230095	-0.001919746	-0.001759529	9.283041954	-3.011488914	2.466988564	-0.161505209	-0.095987595	-0.087976708	-0.490234375	0.816162109	-0.056640625	891.56	-57.12567744	-69.46285969	-43.55986582	-49
42295	0	0.368286133	-0.118713379	0.09967041	0.99998951	-0.004203796	-0.000704765	-0.001552582	9.20715332	-2.967834473	2.491760254	-0.21019054	-0.035238387	-0.077629356	-0.492675781	0.814208984	-0.053466797	891.52	-57.51370522	-69.66537161	-43.65058982	-49
42296	0	0.363621712	-0.126364708	0.092355728	0.999995232	-0.002461433	7.43866E-05	-0.001802444	9.090542793	-3.159117699	2.308893204	-0.123071862	0.003719336	-0.090122363	-0.495117188	0.814453125	-0.044677734	891.56	-57.45529436	-69.84299087	-44.01298447	-48
42297	0	0.366760254	-0.125549316	0.080932617	0.999995232	0.002258301	4.673E-05	-0.001777649	9.169006348	-3.13873291	2.02331543	0.112915195	0.002336505	-0.088882569	-0.497558594	0.812255859	-0.041503906	891.64	-56.86146793	-70.01842196	-44.38264611	-49
42298	0	0.368575096	-0.116897583	0.071975708	0.999992371	0.0035429	0.000117302	-0.001275063	9.214377403	-2.922439575	1.7993927	0.177145423	0.005865111	-0.063753279	-0.501953125	0.807861328	-0.046630859	891.56	-56.18203966	-70.13975131	-44.68957621	-49
42299	0	0.374145508	-0.11126709	0.068481445	0.999996185	0.002354622	0.000335693	-0.000736237	9.353637695	-2.781677246	1.712036133	0.117731216	0.016784685	-0.036811867	-0.504150391	0.807861328	-0.058105469	891.64	-55.67324376	-70.19502613	-44.94498282	-49
42300	0	0.3683424	-0.112216949	0.072554588	0.999999046	-4.29153E-05	0.00069809	4.00543E-05	9.20855999	-2.805423737	1.813864708	-0.002145767	0.034904483	0.002002716	-0.504150391	0.805664063	-0.054931641	891.58	-55.48317902	-70.1527991	-45.161848	-49
42301	0	0.367126465	-0.116699219	0.074890137	0.999999046	-0.000209808	0.000748634	0.000957489	9.178161621	-2.917480469	1.872253418	-0.01049042	0.037431726	0.047874463	-0.506591797	0.807861328	-0.060791016	891.64	-55.46537912	-70.0201893	-45.20655826	-49
42302	0	0.368865967	-0.115729332	0.076491356	0.999998093	0.000132561	0.000613213	0.001419067	9.22164917	-2.893233299	1.912283897	0.006628039	0.030660642	0.070953398	-0.504150391	0.807861328	-0.061035156	891.56	-55.52601507	-69.8525118	-45.12753759	-49
42303	0	0.36706543	-0.115905762	0.075195313	0.999998093	0.000393867	0.000442505	0.001422882	9.176635742	-2.897644043	1.879882813	0.019693382	0.022125253	0.071144132	-0.501953125	0.810058594	-0.055419922	891.7	-55.60052651	-69.69529098	-45.0149031	-49
42304	0	0.368084908	-0.113909721	0.068957329	0.999997139	0.001616478	8.58307E-05	0.001529694	9.202122688	-2.847743034	1.72393322	0.080823965	0.004291538	0.076484743	-0.499755859	0.812255859	-0.055664063	891.58	-55.64406515	-69.55111126	-44.7903054	-49
42305	0	0.368225098	-0.11138916	0.069213867	0.999997139	0.001331329	-0.000159264	0.001735687	9.205627441	-2.784729004	1.73034668	0.066566521	-0.007963187	0.086784432	-0.494873047	0.812011719	-0.058837891	891.58	-55.81611257	-69.40333015	-44.45985418	-49
42306	0	0.368656158	-0.111384392	0.070366859	0.999998093	0.000418663	-0.000250816	0.00176239	9.216403961	-2.784609795	1.759171486	0.020933163	-0.012540824	0.088119556	-0.494873047	0.814208984	-0.062011719	891.56	-56.11680443	-69.25865981	-44.09881939	-49
42307	0	0.368835449	-0.112548828	0.071411133	0.999998093	0.000477791	-0.000499725	0.001735687	9.22088623	-2.813720703	1.78527832	0.023889556	-0.024986282	0.086784413	-0.492675781	0.81640625	-0.059326172	891.56	-56.46450059	-69.13187215	-43.68573213	-48
42308	0	0.369134903	-0.111562729	0.074748039	0.999998093	0.000619888	-0.000664711	0.001602173	9.228372574	-2.789068222	1.868700981	0.030994433	-0.033235569	0.080108688	-0.487792969	0.816162109	-0.068359375	891.7	-56.81060788	-69.02758057	-43.23798003	-48
42309	0	0.368103027	-0.111877441	0.076782227	0.999998093	0.000405312	-0.000759125	0.001152039	9.202575684	-2.796936035	1.919555664	0.020265586	-0.037956251	0.057601949	-0.485351563	0.816162109	-0.062744141	891.6	-57.12787723	-68.97170132	-42.85811989	-48
42310	0	0.367476463	-0.111319542	0.077411652	0.999999046	0.000455856	-0.000638962	0.000952721	9.186911583	-2.782988548	1.93529129	0.022792822	-0.031948098	0.047636044	-0.483154297	0.818115234	-0.065917969	891.58	-57.37478604	-68.9270969	-42.54016518	-48
42311	0	0.3671875	-0.112670898	0.079406738	0.999999046	0.000854492	-0.0007658	0.000656128	9.1796875	-2.816772461	1.985168457	0.042724622	-0.038290035	0.032806406	-0.483154297	0.818115234	-0.062988281	891.56	-57.55862804	-68.91863088	-42.24832857	-48
42312	0	0.368570328	-0.111549377	0.081960678	0.999999046	0.000845909	-0.000455856	0.000182152	9.214258194	-2.788734436	2.049016953	0.042295463	-0.02279282	0.009107591	-0.483154297	0.8203125	-0.065917969	891.6	-57.58875699	-68.93686684	-42.11740489	-49
42313	0	0.370849609	-0.111572266	0.078796387	0.999999046	-0.000347137	-1.04904E-05	-0.000270844	9.271240234	-2.789306641	1.969909668	-0.017356873	-0.000524521	-0.013542176	-0.480957031	0.822509766	-0.063476563	891.52	-57.57053957	-68.97176918	-42.18631654	-49
42314	0	0.366641045	-0.114725113	0.079195976	0.999999046	-0.000799179	0.000314713	-0.000404358	9.166026115	-2.868127823	1.979899406	-0.03995896	0.015735629	-0.020217899	-0.483398438	0.820556641	-0.063232422	891.62	-57.49997898	-68.99954186	-42.36617073	-48
42315	0	0.36895752	-0.114501953	0.076782227	0.999999046	-3.43323E-05	0.000432014	-0.000648499	9.223937988	-2.862548828	1.919555664	-0.001716614	0.021600725	-0.03242493	-0.485595703	0.820556641	-0.065917969	891.48	-57.27199088	-69.04355529	-42.61618967	-49
42316	0	0.367821693	-0.116106033	0.076358795	0.999998093	-0.000663757	0.000559807	-0.001114845	9.195542336	-2.902650833	1.908969879	-0.033187877	0.027990351	-0.055742282	-0.485595703	0.818359375	-0.065673828	891.56	-57.0066463	-69.12411776	-42.98196528	-48
42317	0	0.367370605	-0.120666504	0.073059082	0.999998093	0.000290871	0.00050354	-0.001655579	9.184265137	-3.016662598	1.826477051	0.014543541	0.025177015	-0.082778973	-0.487792969	0.818359375	-0.065673828	891.56	-56.5541857	-69.25908721	-43.4319073	-49
42318	0	0.373757362	-0.125370026	0.072104454	0.999995232	0.001663208	0.000452042	-0.002506256	9.343934059	-3.134250641	1.802611351	0.083160529	0.022602116	-0.125312998	-0.490234375	0.816162109	-0.065185547	891.52	-55.80705722	-69.47642063	-44.03456987	-48
42319	0	0.376708984	-0.135620117	0.078918457	0.999996185	0.000798225	0.000930786	-0.002338409	9.417724609	-3.39050293	1.972961426	0.039911317	0.046539361	-0.116920607	-0.492431641	0.811767578	-0.067626953	891.54	-55.05541983	-69.64319596	-44.74626116	-49
42320	0	0.365976334	-0.159625053	0.103475571	0.999985695	-0.004538536	0.002605438	0.000115395	9.14940834	-3.990626335	2.586889267	-0.22692784	0.130272507	0.005769756	-0.499267578	0.809814453	-0.067138672	891.46	-54.92416924	-69.46501017	-45.44421494	-48
42321	0	0.37097168	-0.198303223	0.108215332	0.99996376	-0.005415916	0.004962921	0.004112244	9.274291992	-4.957580566	2.705383301	-0.270799021	0.248148988	0.205614611	-0.497070313	0.809814453	-0.064453125	891.54	-55.02160129	-68.75259695	-46.00910014	-48
42322	0	0.370615005	-0.213311195	0.095152855	0.999928474	-0.001495361	0.00623703	0.010082245	9.265375137	-5.332779884	2.378821373	-0.074769846	0.311858923	0.504124241	-0.485351563	0.816162109	-0.065429688	891.58	-55.36840492	-67.39198821	-45.83517975	-49
42323	0	0.358276367	-0.20526123	0.080566406	0.999822617	0.004242897	0.007064819	0.016887665	8.95690918	-5.131530762	2.014160156	0.212157339	0.353261759	0.844432941	-0.462158203	0.828613281	-0.070800781	891.58	-55.85483778	-65.3307419	-44.81036718	-49
42324	0	0.349173546	-0.19069767	0.066918373	0.999724388	0.004439354	0.008768082	0.021291733	8.729338646	-4.76744175	1.672959328	0.221988046	0.438444275	1.064684237	-0.431640625	0.845214844	-0.085449219	891.58	-56.43144897	-62.73625203	-43.64685983	-49
42325	0	0.363037109	-0.190002441	0.050292969	0.999680519	0.00094223	0.010613441	0.022903442	9.075927734	-4.750061035	1.257324219	0.047116523	0.530728527	1.145293943	-0.391845703	0.861328125	-0.103271484	891.6	-57.10582245	-59.86607953	-42.7863859	-49
42326	0	0.396526337	-0.183537483	0.031420708	0.99967289	-0.000356674	0.012083054	0.022524834	9.913158417	-4.58843708	0.785517693	-0.017835653	0.604218501	1.126364386	-0.344726563	0.877441406	-0.110107422	891.52	-57.5368326	-56.94046081	-42.36109203	-47
42327	0	0.415161133	-0.16583252	0.023132324	0.999675751	-0.002947807	0.012916565	0.021701813	10.37902832	-4.145812988	0.578308105	-0.147406251	0.645897855	1.085207589	-0.304931641	0.889404297	-0.119140625	891.58	-58.00637519	-54.04725463	-42.22618926	-49
42328	0	0.388286591	-0.150919914	0.026003838	0.999676704	-0.007245064	0.012126923	0.021103859	9.707164764	-3.772997856	0.65009594	-0.362292138	0.606411324	1.055306401	-0.262695313	0.901367188	-0.116699219	891.64	-58.96777655	-51.26499525	-42.08018099	-51
42329	0	0.345947266	-0.151489258	0.042114258	0.999725342	-0.004523277	0.010307312	0.020545959	8.648681641	-3.787231445	1.052856445	-0.226184557	0.515412754	1.027391967	-0.223144531	0.913330078	-0.10546875	891.56	-59.73385439	-48.64816673	-41.79438106	-53
42330	0	0.31682682	-0.155738831	0.055369377	0.999793053	0.00268364	0.009477615	0.017764091	7.920670509	-3.893470764	1.384234428	0.134191205	0.47391336	0.888265663	-0.185546875	0.925292969	-0.10546875	891.52	-59.55533931	-46.35785214	-41.67376918	-53
42331	0	0.315429688	-0.167541504	0.067138672	0.999834061	0.008786201	0.010063171	0.012363434	7.885742188	-4.188537598	1.678466797	0.439334336	0.503186358	0.618205832	-0.152099609	0.926269531	-0.122070313	891.58	-58.31682348	-44.56858382	-42.05157821	-52
42332	0	0.333456039	-0.176157951	0.088787079	0.9998703	0.007030487	0.01265049	0.007030487	8.336400986	-4.403948784	2.219676971	0.351539523	0.632551786	0.351539523	-0.1328125	0.927734375	-0.143310547	891.58	-56.77994631	-43.13497831	-43.14669744	-52
42333	0	0.319824219	-0.186828613	0.106628418	0.999880791	0.000751495	0.015263557	0.001834869	7.995605469	-4.670715332	2.665710449	0.037576252	0.763208009	0.091747092	-0.120605469	0.929443359	-0.158691406	891.52	-55.49463169	-42.01408233	-44.93104904	-51
42334	0	0.303082466	-0.209245682	0.130241394	0.999848366	0.001260757	0.017204285	-0.00236702	7.577061653	-5.231142044	3.256034851	0.063041058	0.860257706	-0.118356964	-0.115966797	0.929199219	-0.164550781	891.52	-53.81055228	-41.12604615	-47.25778112	-53
42335	0	0.314147949	-0.200561523	0.123718262	0.999747276	0.004756927	0.021008492	-0.006427765	7.85369873	-5.014038086	3.092956543	0.23786641	1.050513059	-0.321415317	-0.118164063	0.929199219	-0.170410156	891.52	-51.25988755	-40.28164483	-50.35004846	-54
42336	0	0.312960625	-0.192110062	0.118565559	0.999671936	0.004383087	0.022593498	-0.011217117	7.824015617	-4.802751541	2.964138985	0.219178308	1.129798365	-0.560917157	-0.124755859	0.924804688	-0.187011719	891.52	-48.42674388	-39.63447245	-53.97672241	-55
42337	0	0.314025879	-0.18548584	0.121704102	0.999583244	0.005577087	0.023049355	-0.016407013	7.850646973	-4.637145996	3.042602539	0.278893032	1.152627513	-0.820464386	-0.140869141	0.920898438	-0.211669922	891.54	-45.16423792	-39.24182728	-58.07249129	-55
42338	0	0.324098587	-0.193631172	0.116134644	0.999519348	0.008822441	0.021918297	-0.020053864	8.102464676	-4.840779305	2.903366089	0.441192695	1.096090337	-1.002853744	-0.168701172	0.915039063	-0.227050781	891.52	-41.40721051	-39.03969614	-62.40069829	-56
42339	0	0.33203125	-0.185852051	0.127746582	0.999501228	0.010654449	0.02064991	-0.021373749	8.30078125	-4.64630127	3.193664551	0.532811013	1.032667103	-1.068865058	-0.196044922	0.900146484	-0.261962891	891.54	-37.45877854	-38.82381573	-66.69202871	-58
42340	0	0.321269989	-0.182865143	0.131479263	0.999547958	0.008203506	0.020411491	-0.020465851	8.031749725	-4.571628571	3.286981583	0.410237065	1.020728191	-1.023446572	-0.225585938	0.885498047	-0.290771484	891.48	-33.92335109	-38.35323516	-70.7944364	-59
42341	0	0.283935547	-0.186767578	0.13861084	0.999669075	0.002250671	0.021550179	-0.013805389	7.098388672	-4.669189453	3.465270996	0.112545953	1.077627499	-0.69034543	-0.250976563	0.875	-0.314697266	891.62	-31.61240947	-37.19688041	-74.09570902	-56
42342	0	0.201469421	-0.188673019	0.146224022	0.999705315	-0.001583099	0.023983002	-0.003160477	5.036735535	-4.716825485	3.655600548	-0.079162723	1.199267569	-0.158039316	-0.255126953	0.870605469	-0.328369141	891.52	-30.54628962	-35.09406582	-76.18661658	-57
42343	0	0.160095215	-0.213989258	0.145812988	0.999526978	0.002968788	0.027671814	0.013069153	4.002380371	-5.349731445	3.645324707	0.148462805	1.383808786	0.653560643	-0.236083984	0.874267578	-0.347167969	891.48	-30.02437765	-31.66288031	-76.56235499	-60
42344	0	0.156529427	-0.226522446	0.122159958	0.998532295	0.002711296	0.0362854	0.040104866	3.913235664	-5.663061142	3.053998947	0.135631146	1.81515788	2.00622462	-0.181396484	0.881103516	-0.370849609	891.58	-30.76263923	-25.80937523	-74.57338107	-63
42345	0	0.203857422	-0.285888672	0.054199219	0.996130943	0.003501892	0.047337532	0.073947906	5.096435547	-7.147216797	1.354980469	0.17532072	2.369933167	3.702170111	-0.065429688	0.894775391	-0.384277344	891.54	-32.12444914	-16.8075712	-70.17204626	-67
42346	0	0.245270729	-0.308579445	-0.049383163	0.991951942	0.009473801	0.057992935	0.11214447	6.131768227	-7.714486122	-1.234579086	0.474964737	2.907449734	5.622312599	0.129638672	0.892333984	-0.400634766	891.64	-32.46737918	-4.340370592	-63.2557241	-69
42347	0	0.134887695	-0.25213623	-0.171020508	0.987906456	-0.003723145	0.058781624	0.143424988	3.372192383	-6.303405762	-4.275512695	-0.186911279	2.95098629	7.200297388	0.393066406	0.830322266	-0.381103516	891.58	-32.45450763	10.19968028	-53.48040491	-66
42348	0	-0.001644135	-0.139609337	-0.21723175	0.985034943	0.009496689	0.044228554	0.16631031	-0.041103363	-3.490233421	-5.430793762	0.477217298	2.222525268	8.357245165	0.673828125	0.677001953	-0.320068359	891.58	-27.05946205	24.16866293	-39.07938184	-63
42349	0	-0.027893066	0.029541016	-0.12878418	0.985746384	0.05020237	0.022644043	0.158966064	-0.69732666	0.738525391	-3.219604492	2.522112632	1.137612172	7.986282753	0.896240234	0.398925781	-0.280273438	891.48	-12.39223452	32.88011736	-20.64237605	-59
42350	0	-0.364742279	-0.103178024	0.268724442	0.995379448	0.029773712	-0.017869949	0.089510918	-9.118556976	-2.579450607	6.718111038	1.490982268	-0.894875905	4.482450503	0.983154297	0.094238281	-0.282958984	891.58	-2.406663955	32.20447796	-8.196495871	-63
42351	0	-0.812255859	-0.291320801	1.268127441	0.990087509	-0.03674221	-0.124923706	0.052631378	-20.30639648	-7.28302002	31.70318604	-1.843204573	-6.266905117	2.640298336	0.96875	-0.041259766	-0.351806641	891.68	-3.565079107	18.21390591	-0.671931866	-75
42352	0	-0.027117729	-0.101036072	1.043502808	0.978111267	0.13835907	-0.133734703	0.079172134	-0.67794323	-2.525901794	26.08757019	6.968872388	-6.735952191	3.987743644	0.821289063	-0.151123047	-0.606201172	891.68	13.82252299	2.100415969	7.003679176	-75
42353	0	0.600891113	1.15814209	0.8125	0.988473892	0.093071938	-0.073894501	0.093784332	15.02227783	28.95355225	20.3125	4.671558149	-3.708985395	4.707315365	0.611083984	-0.472900391	-0.686279297	891.68	24.05607758	-9.411611675	14.44014902	-79
42354	0	0.544070244	0.988923073	0.223005295	0.996851921	0.048768997	-0.046417236	0.041864395	13.6017561	24.72307682	5.57513237	2.441011633	-2.323300055	2.095418841	0.436279297	-0.668701172	-0.660400391	891.68	29.2201924	-16.31272915	16.41215948	-69
42355	0	0.364074707	0.40637207	0.012512207	0.998389244	-0.048179626	-0.029715538	-0.003623962	9.101867676	10.15930176	0.312805176	-2.410274982	-1.486574786	-0.181295426	0.340820313	-0.709960938	-0.666259766	891.74	24.32129124	-19.17177182	14.43075055	-79
42356	0	0.304546356	-0.106953621	0.079732895	0.999268532	-0.035817146	-0.003704071	-0.012878418	7.613658905	-2.673840523	1.993322372	-1.791294107	-0.185248724	-0.644077951	0.322021484	-0.623291016	-0.753417969	891.54	20.7543743	-19.01709485	12.81074412	-82
42357	0	0.146606445	-0.017211914	0.11706543	0.999585152	-0.027454376	-0.00139904	0.008571625	3.665161133	-0.430297852	2.926635742	-1.372908585	-0.069961682	0.428640488	0.330322266	-0.577392578	-0.792236328	891.68	17.30882418	-19.51282689	13.72956974	-75
42358	0	0.0376091	0.017298698	0.191825867	0.999505043	-0.020273209	-0.010519028	0.021602631	0.940227509	0.432467461	4.795646667	-1.013827476	-0.526038059	1.08030953	0.310302734	-0.536865234	-0.826416016	891.64	14.22315698	-21.36809454	15.911025	-75
42359	0	0.05255127	0.120422363	0.246887207	0.999200821	0.001786232	-0.013339996	0.03761673	1.313781738	3.010559082	6.172180176	0.089335376	-0.667177385	1.881337201	0.262939453	-0.533203125	-0.844238281	891.62	12.83518365	-23.88417667	20.05010985	-85
42360	0	0.122784615	0.221567154	0.253680229	0.99848175	-0.008865356	-0.00978756	0.053472519	3.069615364	5.539178848	6.34200573	-0.443492252	-0.489625752	2.674979625	0.195068359	-0.551025391	-0.853515625	891.52	9.117477858	-26.17543128	26.44084149	-76
42361	0	0.328491211	0.276977539	0.271606445	0.997940063	-0.013598442	-0.007392883	0.06224823	8.212280273	6.924438477	6.790161133	-0.680389216	-0.369898114	3.114549752	0.121582031	-0.546386719	-0.8671875	891.64	4.006331671	-27.86595281	34.27236385	-72
42362	0	0.347689629	0.273793221	0.320494652	0.998427391	-0.001893997	0.001443863	0.056005478	8.692240715	6.844830513	8.012366295	-0.094749526	0.072231008	2.801742516	0.047607422	-0.537109375	-0.872558594	891.58	0.411209247	-27.98825031	41.51724469	-72
42363	0	0.273925781	0.260681152	0.308532715	0.997344017	-0.060520172	-0.007159233	0.039878845	6.848144531	6.517028809	7.713317871	-3.028690138	-0.358278867	1.995709216	-0.002441406	-0.524414063	-0.888183594	891.64	-8.977846316	-28.51333274	46.75276558	-74
42364	0	0.242098808	0.053668022	0.342886925	0.993360519	-0.11469841	-0.008154869	0.003328323	6.052470207	1.341700554	8.572173119	-5.747645082	-0.408648151	0.166785411	-0.051269531	-0.359130859	-0.954101563	891.52	-22.45097281	-29.36205124	47.46902638	-74
42365	0	0.179260254	-0.153015137	0.277832031	0.99388504	-0.107340813	-0.008808136	-0.024311066	4.481506348	-3.825378418	6.945800781	-5.378005521	-0.441306552	-1.218036664	-0.059570313	-0.139648438	-1.009521484	891.68	-33.56840522	-31.61460383	45.16117323	-75
42366	0	0.151556015	-0.174413681	0.210014343	0.994506836	-0.100863457	-0.013215065	-0.024644852	3.788900375	-4.360342026	5.250358582	-5.052426897	-0.661965711	-1.23450371	-0.075439453	0.064941406	-1.008300781	891.58	-44.29615676	-34.61894686	43.65898009	-72
42367	0	0.192260742	-0.104431152	0.105834961	0.989549637	-0.141669273	-0.013584137	-0.023147583	4.806518555	-2.610778809	2.645874023	-7.108241005	-0.681582654	-1.161427561	-0.113525391	0.268554688	-0.968261719	891.64	-60.26062484	-37.72452396	43.18528913	-69
42368	0	0.203086853	-0.551122665	0.006531715	0.99582386	-0.086571693	-0.01480484	-0.024903297	5.077171326	-13.77806664	0.163292885	-4.334619747	-0.741274078	-1.246900927	-0.152832031	0.523925781	-0.837158203	891.54	-70.46096593	-41.07477527	43.59679124	-75
42369	0	0.280273438	-0.355773926	0.030517578	0.999337196	0.018672943	-0.021739006	-0.022415161	7.006835938	-8.894348145	0.762939453	0.933853257	-1.087190245	-1.121005462	-0.2109375	0.581542969	-0.786621094	891.68	-69.65570388	-44.38771929	45.50614301	-88
42370	0	0.355051041	-0.374466896	0.046772003	0.999777794	-0.011522293	-0.015022278	-0.009253502	8.876276016	-9.361672401	1.169300079	-0.576157301	-0.751169493	-0.462709344	-0.263916016	0.547851563	-0.792480469	891.62	-72.25409605	-45.99862254	47.28589826	-76
42371	0	0.390014648	-0.379150391	0.121337891	0.998730659	-0.050045013	-0.005087852	0.002376556	9.750366211	-9.478759766	3.033447266	-2.503309514	-0.254500272	0.118878103	-0.289550781	0.575683594	-0.755859375	891.52	-78.63464002	-45.92671592	48.19419081	-72
42372	0	0.365719795	-0.419390678	0.115604401	0.999733925	-0.021454811	0.007728577	0.00339222	9.142994881	-10.48476696	2.890110016	-1.072835613	0.386463075	0.169626007	-0.286621094	0.651367188	-0.695800781	891.6	-80.26264663	-45.42410944	47.02285122	-72
42373	0	0.282897949	-0.313659668	-0.018005371	0.999448776	0.032288551	0.007106781	-0.002891541	7.07244873	-7.841491699	-0.450134277	1.614724073	0.355404312	-0.144603579	-0.270263672	0.657470703	-0.702880859	891.6	-75.6729441	-45.61815389	45.72871037	-73
42374	0	0.262767792	-0.217389107	0.019738197	0.999958992	0.00879097	-0.000812531	-0.001839638	6.569194794	-5.434727669	0.493454933	0.43955445	-0.040627077	-0.091983135	-0.269775391	0.608398438	-0.7421875	891.6	-74.6965209	-45.88566037	45.74969508	-75
42375	0	0.282348633	-0.225402832	0.089111328	0.999995232	-0.003025055	-0.000319481	-0.000144958	7.05871582	-5.635070801	2.227783203	-0.15125298	-0.015974069	-0.007247936	-0.271972656	0.604003906	-0.744628906	891.48	-75.06706642	-45.951391	45.77037022	-75
42376	0	0.297973633	-0.241625786	0.081905365	0.999957085	-0.009049416	0.001626968	-0.000305176	7.44934082	-6.040644646	2.047634125	-0.452477162	0.081349567	-0.015259004	-0.270019531	0.610595703	-0.736572266	891.64	-75.89899939	-45.97902789	45.47820987	-75
42377	0	0.296325684	-0.283996582	0.074829102	0.999987602	-0.004810333	0.000908852	-3.8147E-06	7.40814209	-7.099914551	1.870727539	-0.240517623	0.045442763	-0.000190736	-0.268554688	0.626220703	-0.723632813	891.68	-76.33601595	-45.99388771	45.30648614	-75
42378	0	0.290634155	-0.256287575	0.075396538	0.999994278	0.002200127	0.001740456	0.001550674	7.265853882	-6.407189369	1.884913445	0.110006521	0.08702293	0.077533855	-0.266113281	0.628417969	-0.726806641	891.6	-75.9177118	-45.81260532	45.06209584	-75
42379	0	0.279724121	-0.246398926	0.063903809	0.999990463	-0.002551079	0.002929688	0.00151062	6.993103027	-6.159973145	1.597595215	-0.127554309	0.146484799	0.075531225	-0.261230469	0.625976563	-0.726806641	891.62	-75.90889253	-45.60174241	44.63434251	-75
42380	0	0.273298264	-0.279066086	0.067749023	0.999983788	-0.005255699	0.001592636	0.000709534	6.832456589	-6.976652145	1.693725586	-0.262786301	0.079632212	0.035476866	-0.256835938	0.634765625	-0.724853516	891.58	-76.33996252	-45.51621788	44.38858169	-75
42381	0	0.26940918	-0.28894043	0.086791992	0.999999046	7.24792E-05	-0.000758171	0.000335693	6.735229492	-7.223510742	2.169799805	0.003623963	-0.037908558	0.01678467	-0.252685547	0.641357422	-0.719970703	891.52	-76.41557739	-45.53438764	44.49389402	-75
42382	0	0.270318985	-0.264087677	0.072930336	0.999992371	0.003735542	-0.000832558	0.000580788	6.757974625	-6.602191925	1.8232584	0.186777581	-0.041627988	0.029039455	-0.254882813	0.639160156	-0.722412109	891.58	-76.08637701	-45.52645444	44.61973488	-75
42383	0	0.285095215	-0.256591797	0.058898926	0.999999046	0.001167297	-9.05991E-05	0.000244141	7.127380371	-6.414794922	1.472473145	0.058364882	-0.004529954	0.012207034	-0.257080078	0.636962891	-0.728027344	891.64	-75.95864532	-45.53570017	44.61918614	-75
42384	0	0.285469055	-0.258588791	0.06762886	0.999999046	-0.000685692	0.000421524	-0.000252724	7.136726379	-6.464719772	1.690721512	-0.034284596	0.021076205	-0.012636186	-0.254394531	0.632324219	-0.724853516	891.68	-75.97109798	-45.58569721	44.51939224	-75
42385	0	0.285949707	-0.272644043	0.071716309	0.999999046	-0.00043869	0.000237465	-0.000221252	7.148742676	-6.816101074	1.792907715	-0.02193451	0.011873246	-0.011062623	-0.254638672	0.634765625	-0.722167969	891.6	-75.97685942	-45.63653707	44.44855526	-76
42386	0	0.284754753	-0.264638901	0.062829018	0.999999046	0.001218796	-2.67029E-05	8.39233E-05	7.118868828	-6.615972519	1.570725441	0.060939804	-0.001335144	0.004196168	-0.256835938	0.634765625	-0.727783203	891.6	-75.83174982	-45.66031608	44.43447768	-75
42387	0	0.285522461	-0.254638672	0.058776855	0.999999046	0.000869751	-0.00026989	0.000110626	7.138061523	-6.365966797	1.469421387	0.043487555	-0.013494493	0.005531312	-0.254394531	0.632324219	-0.727783203	891.74	-75.75567754	-45.68792928	44.46004301	-76
42388	0	0.28672123	-0.257275581	0.064928055	0.999999046	-0.001067162	-1.14441E-05	0.000377655	7.168030739	-6.431889534	1.62320137	-0.053358089	-0.000572205	0.018882755	-0.254394531	0.634521484	-0.728027344	891.64	-75.88006435	-45.67845484	44.45652316	-75
42389	0	0.280639648	-0.268859863	0.067810059	0.999999046	-0.00094223	0.000161171	0.000682831	7.015991211	-6.721496582	1.695251465	-0.047111522	0.00805855	0.034141548	-0.254638672	0.634521484	-0.725097656	891.64	-75.97928818	-45.62944267	44.43912569	-75
42390	0	0.280314445	-0.266628265	0.069472313	0.999999046	-0.000677109	-5.91278E-05	0.00064373	7.007861137	-6.665706635	1.736807823	-0.033855443	-0.002956391	0.032186513	-0.252197266	0.634521484	-0.728027344	891.58	-76.07190671	-45.59017758	44.45705329	-75
42391	0	0.27947998	-0.265136719	0.068603516	0.999999046	-0.000541687	-0.000132561	0.00056839	6.986999512	-6.628417969	1.715087891	-0.027084353	-0.006628037	0.028419498	-0.254638672	0.63671875	-0.728027344	891.58	-76.15509951	-45.56064617	44.48489295	-75
42392	0	0.278952599	-0.264978409	0.067082405	0.999999046	-0.000567436	0.000213623	0.000541687	6.973814964	-6.62446022	1.677060127	-0.028371814	0.010681154	0.027084354	-0.252197266	0.63671875	-0.725341797	891.6	-76.20122479	-45.52397341	44.45573803	-75
42393	0	0.279907227	-0.268249512	0.065612793	0.999999046	-5.34058E-05	-6.67572E-06	0.000370026	6.997680664	-6.706237793	1.640319824	-0.002670288	-0.000333786	0.018501282	-0.252441406	0.63671875	-0.719482422	891.62	-76.20883003	-45.51178441	44.45293808	-75
42394	0	0.282274246	-0.266757011	0.068081856	0.999999046	-0.000112534	-6.86646E-05	0.000132561	7.056856155	-6.668925285	1.702046394	-0.005626678	-0.003433228	0.006628037	-0.252441406	0.638916016	-0.72265625	891.68	-76.22362366	-45.52720062	44.45129184	-75
42395	0	0.279418945	-0.263366699	0.067382813	0.999999046	-0.000217438	-7.15256E-05	0.000118256	6.985473633	-6.58416748	1.684570313	-0.010871887	-0.003576279	0.005912781	-0.252441406	0.641113281	-0.725830078	891.58	-76.2503464	-45.54380279	44.45021961	-75
42396	0	0.281013489	-0.264927864	0.066677094	0.999999046	-0.000252724	-0.000314713	0.000216484	7.025337219	-6.623196602	1.666927338	-0.012636185	-0.015735627	0.010824204	-0.252441406	0.641113281	-0.725830078	891.68	-76.31148674	-45.55560927	44.49230973	-75
42397	0	0.279907227	-0.262207031	0.066467285	0.999999046	-0.000404358	-5.62668E-05	0.000591278	6.997680664	-6.555175781	1.661682129	-0.020217897	-0.002813339	0.029563906	-0.250244141	0.641113281	-0.719970703	891.48	-76.37101823	-45.51826048	44.50505501	-75
42398	0	0.279353142	-0.268021584	0.063715935	0.999999046	-0.001003265	-3.43323E-05	0.00063324	6.983828545	-6.700539589	1.592898369	-0.050163281	-0.001716614	0.031661995	-0.25	0.641113281	-0.725830078	891.6	-76.49797094	-45.47503425	44.52138962	-75
42399	0	0.282592773	-0.26348877	0.066711426	0.999999046	-0.00113678	-0.000102043	0.000637054	7.064819336	-6.587219238	1.667785645	-0.056839005	-0.005102159	0.031852731	-0.248046875	0.643310547	-0.717529297	891.64	-76.64778833	-45.43286187	44.54400376	-75
42400	0	0.28018856	-0.267524719	0.060613632	0.999997139	-0.002104759	-3.05176E-05	0.000236511	7.004714012	-6.688117981	1.515340805	-0.10523804	-0.00152588	0.01182557	-0.250488281	0.645507813	-0.720458984	891.54	-76.88988675	-45.43295629	44.54557575	-75
42401	0	0.279846191	-0.273376465	0.067871094	0.999998093	-0.001479149	-1.90735E-05	0.000167847	6.996154785	-6.834411621	1.696777344	-0.073957471	-0.000953675	0.008392337	-0.250732422	0.650146484	-0.712158203	891.58	-77.05702273	-45.43970102	44.53771329	-75
42402	0	0.278903008	-0.269081116	0.063035011	0.999999046	-0.000377655	0.000196457	0.000232697	6.972575188	-6.727027893	1.575875282	-0.018882752	0.009822846	0.011634827	-0.250488281	0.647949219	-0.717773438	891.68	-77.0752112	-45.43311935	44.503542	-75
42403	0	0.278869629	-0.267333984	0.061706543	0.999999046	-0.000663757	0.000100136	0.000331879	6.971740723	-6.683349609	1.542663574	-0.033187869	0.005006791	0.016593935	-0.248291016	0.649902344	-0.715087891	891.68	-77.13981651	-45.41748528	44.48572083	-75
42404	0	0.279594421	-0.267971992	0.064274788	0.999999046	-0.000393867	0.000162125	0.000556946	6.989860535	-6.699299812	1.606869698	-0.019693376	0.008106232	0.027847292	-0.250732422	0.650146484	-0.715087891	891.54	-77.17219194	-45.37467351	44.4688145	-75
42405	0	0.277160645	-0.265197754	0.06427002	0.999999046	-0.000694275	0.000393867	0.000541687	6.929016113	-6.629943848	1.606750488	-0.034713751	0.019693378	0.027084355	-0.248291016	0.650146484	-0.712158203	891.68	-77.21224972	-45.32726893	44.41330023	-75
42406	0	0.278528214	-0.269433022	0.063015938	0.999999046	-0.001111984	0.000225067	0.000758171	6.963205338	-6.735825539	1.575398445	-0.05559923	0.01125336	0.037908566	-0.24609375	0.654296875	-0.715576172	891.68	-77.32477779	-45.25949567	44.3927123	-75
42407	0	0.276428223	-0.27532959	0.062194824	0.999999046	-0.000526428	6.96182E-05	0.000564575	6.910705566	-6.883239746	1.554870605	-0.026321414	0.003480912	0.028228763	-0.243896484	0.656494141	-0.707275391	891.64	-77.38290537	-45.21657668	44.38388732	-75
42408	0	0.279349327	-0.270581245	0.059262276	0.999999046	3.33786E-05	-0.000146866	0.000472069	6.983733177	-6.764531136	1.481556892	0.00166893	-0.007343293	0.02360344	-0.243652344	0.654296875	-0.712890625	891.54	-77.39913624	-45.18901952	44.41145573	-75
42409	0	0.279174805	-0.270324707	0.063049316	0.999999046	-0.000175476	3.91006E-05	-2.67029E-05	6.979370117	-6.758117676	1.57623291	-0.008773804	0.001955032	-0.001335144	-0.246337891	0.658935547	-0.710205078	891.54	-77.40578036	-45.2121972	44.38870782	-75
42410	0	0.277658463	-0.270149231	0.061265945	0.999999046	0.000123978	0.000116348	0.000286102	6.941461563	-6.753730774	1.531648636	0.006198883	0.005817413	0.014305115	-0.243896484	0.656494141	-0.707275391	891.6	-77.37737382	-45.19803118	44.36384983	-75
42411	0	0.278686523	-0.266723633	0.060852051	0.999999046	-0.000259399	-7.53403E-05	0.000289917	6.967163086	-6.66809082	1.52130127	-0.012969971	-0.003767014	0.01449585	-0.243896484	0.656494141	-0.710205078	891.74	-77.41464612	-45.18797617	44.3721299	-74
42412	0	0.277013779	-0.268931389	0.062378883	0.999999046	-0.000346184	9.15527E-05	0.000217438	6.925344467	-6.723284721	1.559472084	-0.017309189	0.004577637	0.010871888	-0.244140625	0.658691406	-0.707519531	891.64	-77.4412361	-45.18147061	44.34925736	-75
42413	0	0.276489258	-0.276489258	0.061767578	0.999999046	-0.00025177	-0.000121117	0.000293732	6.912231445	-6.912231445	1.544189453	-0.012588501	-0.006055832	0.014686585	-0.244140625	0.658691406	-0.707519531	891.6	-77.48298073	-45.17106891	44.36374534	-74
42414	0	0.278664589	-0.270642281	0.061745644	0.999999046	0.000600815	-0.000291824	4.1008E-05	6.966614723	-6.766057014	1.54364109	0.030040743	-0.014591218	0.0020504	-0.243896484	0.658691406	-0.713134766	891.58	-77.4399564	-45.1928296	44.39828146	-74
42415	0	0.277893066	-0.268249512	0.059936523	0.999999046	-0.000278473	-0.000189781	5.34058E-05	6.94732666	-6.706237793	1.498413086	-0.013923645	-0.00948906	0.002670288	-0.243896484	0.656494141	-0.707275391	891.68	-77.48666958	-45.21038615	44.41598748	-74
42416	0	0.278741837	-0.271121979	0.062730789	0.999999046	-0.000369072	-6.29425E-05	0.000160217	6.968545914	-6.778049469	1.56826973	-0.018453599	-0.003147125	0.008010864	-0.243896484	0.656494141	-0.710205078	891.64	-77.53210717	-45.21246138	44.41982512	-74
42417	0	0.276672363	-0.271118164	0.060241699	0.999999046	-0.000167847	6.58035E-05	0.000167847	6.916809082	-6.777954102	1.50604248	-0.008392334	0.003290176	0.008392334	-0.241699219	0.658691406	-0.710449219	891.68	-77.54029332	-45.21008183	44.40107604	-74
42418	0	0.276206017	-0.271537781	0.062138557	0.999999046	-0.000261307	-0.000137329	9.82285E-05	6.905150414	-6.788444519	1.553463936	-0.013065338	-0.006866455	0.004911423	-0.244140625	0.658935547	-0.704589844	891.6	-77.58034448	-45.22006052	44.41068447	-74
42419	0	0.278015137	-0.269897461	0.06048584	0.999999046	7.24792E-05	4.673E-05	0.000164032	6.950378418	-6.747436523	1.512145996	0.003623962	0.002336502	0.008201599	-0.241699219	0.658691406	-0.710449219	891.6	-77.56309411	-45.21782331	44.39557627	-74
42420	0	0.277371407	-0.269370079	0.060183525	0.999999046	-0.000393867	3.43323E-05	0.000163078	6.934285164	-6.734251976	1.504588127	-0.019693375	0.001716614	0.008153916	-0.244140625	0.658691406	-0.707519531	891.74	-77.6007344	-45.2156964	44.38329109	-74
42421	0	0.276733398	-0.272766113	0.062072754	0.999999046	-0.000297546	-8.29697E-05	0.000228882	6.918334961	-6.819152832	1.551818848	-0.01487732	-0.004148483	0.011444092	-0.244140625	0.658691406	-0.707519531	891.68	-77.64217439	-45.20864	44.39266808	-74
42422	0	0.27692318	-0.273356438	0.05966568	0.999999046	6.48499E-05	7.05719E-05	0.00018692	6.923079491	-6.833910942	1.491641998	0.003242493	0.003528595	0.009346008	-0.241943359	0.660888672	-0.701904297	891.6	-77.62390519	-45.20208661	44.36993157	-74
42423	0	0.276977539	-0.271728516	0.060424805	0.999999046	0.00019455	-0.000247002	8.7738E-05	6.924438477	-6.793212891	1.510620117	0.009727478	-0.012350083	0.004386902	-0.244140625	0.658691406	-0.707519531	891.6	-77.62419036	-45.21406364	44.40046569	-74
42424	0	0.277447701	-0.271327019	0.060087204	0.999999046	0.000329018	-0.000230789	0.000117302	6.936192513	-6.783175468	1.502180099	0.016450882	-0.01153946	0.005865097	-0.243896484	0.658691406	-0.710205078	891.68	-77.60807848	-45.22201384	44.43023947	-74
42425	0	0.27911377	-0.268920898	0.058349609	0.999999046	0.000247955	-0.00014019	0.000141144	6.977844238	-6.723022461	1.458740234	0.012397766	-0.007009506	0.00705719	-0.241699219	0.658691406	-0.707519531	891.64	-77.59182799	-45.22491627	44.44308794	-73
42426	0	0.277833939	-0.268725395	0.061455727	0.999999046	-0.000301361	8.39233E-05	0.000270844	6.945848465	-6.71813488	1.536393166	-0.015068055	0.004196167	0.013542176	-0.241699219	0.658691406	-0.707519531	891.58	-77.61642242	-45.20756717	44.42583768	-73
42427	0	0.27532959	-0.274353027	0.060546875	0.999999046	-0.000469208	9.25064E-05	0.000144958	6.883239746	-6.858825684	1.513671875	-0.023460389	0.004625321	0.007247925	-0.243896484	0.658691406	-0.710205078	891.6	-77.65625366	-45.20360978	44.40707938	-73
42428	0	0.27633667	-0.276201248	0.061802864	0.999999046	0.000163078	-0.000204086	8.29697E-05	6.908416748	-6.905031204	1.545071602	0.008153916	-0.010204315	0.004148483	-0.244140625	0.661132813	-0.704589844	891.58	-77.65557881	-45.21335405	44.4276677	-74
42429	0	0.276916504	-0.270690918	0.060180664	0.999999046	0.000583649	-0.000380516	-0.000144958	6.922912598	-6.767272949	1.504516602	0.029182437	-0.019025804	-0.007247925	-0.243896484	0.656494141	-0.704345703	891.7	-77.62105414	-45.25266952	44.47039578	-73
42430	0	0.278688431	-0.268342018	0.061135292	0.999999046	0.00031662	-0.000137329	2.57492E-05	6.96721077	-6.708550453	1.528382301	0.015830994	-0.006866455	0.00128746	-0.244140625	0.658691406	-0.707519531	891.64	-77.59388351	-45.26677458	44.47992357	-73
42431	0	0.278564453	-0.268676758	0.058532715	0.999999046	-0.000137329	0.0001688	0.000263214	6.964111328	-6.716918945	1.463317871	-0.006866455	0.008440018	0.013160706	-0.243896484	0.658691406	-0.716064453	891.58	-77.59021366	-45.24662281	44.45480153	-73
42432	0	0.277058601	-0.269206047	0.061114311	0.999999046	-0.000681877	0.000209808	7.9155E-05	6.926465034	-6.730151176	1.52785778	-0.03409386	0.010490418	0.003957749	-0.244140625	0.658691406	-0.707519531	891.6	-77.63973395	-45.24584919	44.41319277	-73
42433	0	0.274963379	-0.274902344	0.062438965	0.999999046	-0.000312805	2.38419E-05	-1.52588E-05	6.874084473	-6.872558594	1.560974121	-0.015640259	0.001192093	-0.000762939	-0.239257813	0.658691406	-0.704833984	891.58	-77.66558722	-45.25971977	44.39343783	-73
42434	0	0.27594471	-0.271821022	0.062585831	0.999999046	-0.000118256	-0.00025177	-6.19888E-05	6.898617744	-6.795525551	1.564645767	-0.005912781	-0.012588501	-0.003099442	-0.243896484	0.658691406	-0.710205078	891.54	-77.69902896	-45.28520898	44.42226147	-73
42435	0	0.278015137	-0.2734375	0.06036377	0.999999046	0.000141144	-0.000319481	-6.86646E-05	6.950378418	-6.8359375	1.509094238	0.00705719	-0.015974045	-0.003433228	-0.244140625	0.658691406	-0.707519531	891.64	-77.71034563	-45.31277684	44.45953863	-73
42436	0	0.277967453	-0.270331383	0.059468269	0.999999046	0.000380516	-0.000249863	-0.000374794	6.949186325	-6.758284569	1.486706734	0.019025804	-0.012493134	-0.018739701	-0.243896484	0.656494141	-0.710205078	891.64	-77.67889621	-45.37272054	44.47697344	-73
42437	0	0.278320313	-0.270324707	0.059753418	0.999999046	0.000198364	-0.000319481	-0.000396729	6.958007813	-6.758117676	1.493835449	0.009918213	-0.015974046	-0.019836427	-0.246337891	0.656738281	-0.70703125	891.66	-77.67576089	-45.43662058	44.50309647	-73
42438	0	0.278204918	-0.267944336	0.060413361	0.999999046	-7.24792E-05	-0.000284195	-0.000263214	6.955122948	-6.698608398	1.510334015	-0.003623962	-0.014209748	-0.013160706	-0.246337891	0.656738281	-0.704101563	891.64	-77.70300224	-45.48455917	44.5260407	-73
42439	0	0.278381348	-0.272094727	0.061462402	0.999999046	-0.000270844	-0.000170708	-0.000297546	6.959533691	-6.802368164	1.536560059	-0.013542176	-0.008535385	-0.01487732	-0.246337891	0.658935547	-0.710205078	891.64	-77.73921036	-45.53325449	44.53151417	-73
42440	0	0.278196335	-0.270558357	0.059144974	0.999999046	0.00055027	-0.000362396	-0.000267982	6.954908371	-6.763958931	1.478624344	0.027513506	-0.018119814	-0.013399125	-0.248779297	0.656738281	-0.709960938	891.58	-77.70404635	-45.58305671	44.57040298	-73
42441	0	0.277954102	-0.264953613	0.059753418	0.999999046	6.10352E-05	-0.000151634	-8.7738E-05	6.948852539	-6.623840332	1.493835449	0.003051758	-0.007581711	-0.004386902	-0.248779297	0.656738281	-0.70703125	891.64	-77.70534265	-45.60746622	44.57962576	-73
42442	0	0.278079987	-0.271978378	0.05927372	0.999999046	-0.000457764	-0.000104904	5.72205E-05	6.951999664	-6.799459457	1.481842995	-0.022888184	-0.005245209	0.002861023	-0.248779297	0.656738281	-0.70703125	891.58	-77.76448003	-45.61417502	44.58740791	-73
42443	0	0.278442383	-0.273376465	0.061950684	0.999999046	2.28882E-05	-0.000117302	-0.000183105	6.96105957	-6.834411621	1.54876709	0.001144409	-0.005865097	-0.009155274	-0.251220703	0.656738281	-0.703857422	891.6	-77.76392158	-45.64771822	44.58813859	-73
42444	0	0.277090073	-0.270220757	0.059211731	0.999999046	0.000523567	-0.000297546	-0.000302315	6.927251816	-6.755518913	1.480293274	0.026178362	-0.01487732	-0.015115739	-0.248779297	0.654541016	-0.703857422	891.64	-77.72375094	-45.69870368	44.61212255	-73
42445	0	0.279968262	-0.268188477	0.058349609	0.999999046	0.0001297	-0.000250816	0.000144958	6.999206543	-6.704711914	1.458740234	0.006484985	-0.012540817	0.007247925	-0.251220703	0.656738281	-0.706787109	891.64	-77.73463467	-45.69835056	44.64565324	-73
42446	0	0.281323433	-0.266424179	0.058520317	0.999999046	-6.86646E-05	3.8147E-06	0.000133514	7.033085823	-6.660604477	1.463007927	-0.003433228	0.000190735	0.00667572	-0.250976563	0.654541016	-0.703857422	891.58	-77.73881532	-45.69306694	44.63828424	-73
42447	0	0.278991699	-0.269226074	0.059020996	0.999999046	-0.000518799	-6.38962E-05	0.000209808	6.97479248	-6.730651855	1.475524902	-0.025939943	-0.003194809	0.010490418	-0.253662109	0.659179688	-0.704101563	891.66	-77.80431223	-45.68069007	44.64371936	-73
42448	0	0.278701782	-0.27123642	0.059556961	0.999999046	-0.000300407	-4.3869E-05	0.00020504	6.967544556	-6.780910492	1.488924026	-0.015020371	-0.002193451	0.010251999	-0.251220703	0.656738281	-0.703857422	891.64	-77.84239295	-45.66808628	44.64691481	-73
42449	0	0.277832031	-0.269287109	0.059997559	0.999999046	-0.000385284	7.72476E-05	0.000213623	6.945800781	-6.732177734	1.499938965	-0.019264222	0.003862381	0.010681153	-0.251220703	0.659179688	-0.704101563	891.6	-77.87648285	-45.65137545	44.63004149	-73
42450	0	0.27917099	-0.272138596	0.059585571	0.999999046	-0.000261307	4.00543E-05	0.00020504	6.97927475	-6.80346489	1.489639282	-0.013065338	0.002002716	0.010251999	-0.251220703	0.659179688	-0.704101563	891.64	-77.90043916	-45.6362612	44.61969991	-73
42451	0	0.278564453	-0.269958496	0.05859375	0.999999046	3.43323E-05	1.62125E-05	0.000118256	6.964111328	-6.748962402	1.46484375	0.001716614	0.000810623	0.005912781	-0.248779297	0.656738281	-0.704101563	891.66	-77.89117189	-45.6312561	44.610725	-73
42452	0	0.279413223	-0.271303177	0.057582855	0.999999046	-0.00017643	7.62939E-06	0.000197411	6.985330582	-6.782579422	1.439571381	-0.008821488	0.00038147	0.009870529	-0.248779297	0.658935547	-0.707275391	891.54	-77.90913389	-45.61739752	44.60658328	-73
42453	0	0.279296875	-0.267944336	0.059020996	0.999999046	-0.000198364	6.58035E-05	0.000209808	6.982421875	-6.698608398	1.475524902	-0.009918213	0.003290176	0.010490418	-0.249023438	0.658935547	-0.701416016	891.64	-77.92323807	-45.60067847	44.59071301	-73
42454	0	0.277159691	-0.272356987	0.059925079	0.999999046	-0.000452042	0.000106812	0.00039959	6.928992271	-6.808924675	1.498126984	-0.022602083	0.005340577	0.019979478	-0.246582031	0.658935547	-0.704345703	891.48	-77.9663417	-45.56140529	44.57643565	-73
42455	0	0.278442383	-0.269470215	0.059448242	0.999999046	0.000244141	-0.000144005	0.000133514	6.96105957	-6.736755371	1.486206055	0.012207031	-0.007200241	0.00667572	-0.249023438	0.661132813	-0.707275391	891.54	-77.95180357	-45.55781403	44.59442167	-73
42456	0	0.278815269	-0.267929077	0.059741974	0.999999046	-0.000151634	-0.000148773	0.000259399	6.970381737	-6.698226929	1.493549347	-0.007581711	-0.00743866	0.012969971	-0.249023438	0.658935547	-0.701416016	891.58	-77.98614359	-45.54016256	44.61620789	-73
42457	0	0.276489258	-0.271179199	0.057128906	0.999999046	-0.000473022	-3.33786E-05	0.000431061	6.912231445	-6.77947998	1.428222656	-0.023651125	-0.00166893	0.021553041	-0.246337891	0.658935547	-0.710205078	891.64	-78.04841405	-45.50027354	44.63070853	-73
42458	0	0.277903557	-0.275322914	0.060998917	0.999999046	9.53674E-06	-0.000276566	0.000285149	6.947588921	-6.883072853	1.524972916	0.000476837	-0.013828278	0.014257431	-0.246582031	0.661132813	-0.704589844	891.64	-78.07947553	-45.4821641	44.67357431	-73
42459	0	0.278686523	-0.271057129	0.055969238	0.999999046	0.000629425	-0.000426292	-0.00018692	6.967163086	-6.776428223	1.399230957	0.031471256	-0.021314623	-0.009346009	-0.249023438	0.661132813	-0.707275391	891.64	-78.04540229	-45.52042305	44.72622661	-73
42460	0	0.278958321	-0.267827988	0.058753014	0.999999046	-2.57492E-05	-1.90735E-05	0.000102997	6.973958015	-6.695699692	1.46882534	-0.00128746	-0.000953674	0.005149841	-0.248779297	0.656738281	-0.70703125	891.64	-78.04689033	-45.51650967	44.72747002	-73
42461	0	0.278381348	-0.270080566	0.058166504	0.999999046	-0.000354767	0.000214577	0.000259399	6.959533691	-6.75201416	1.454162598	-0.017738343	0.010728836	0.012969971	-0.248779297	0.658935547	-0.704345703	891.64	-78.06322865	-45.48941118	44.69399556	-73
42462	0	0.277237892	-0.271305084	0.059923172	0.999999046	-0.000265121	-1.90735E-06	0.000193596	6.930947304	-6.782627106	1.4980793	-0.013256073	-9.53674E-05	0.009679794	-0.249023438	0.661132813	-0.701660156	891.54	-78.0923196	-45.47463064	44.68997126	-73
42463	0	0.277770996	-0.270996094	0.058654785	0.999999046	6.10352E-05	-1.43051E-05	0.000202179	6.944274902	-6.774902344	1.466369629	0.003051758	-0.000715256	0.010108948	-0.248779297	0.658935547	-0.707275391	891.58	-78.08564797	-45.45903441	44.69405034	-73
42464	0	0.277724266	-0.268904686	0.058434486	0.999999046	-0.000235558	0.000232697	0.000304222	6.943106651	-6.722617149	1.46086216	-0.011777878	0.011634827	0.015211106	-0.246582031	0.658935547	-0.704345703	891.7	-78.08727219	-45.42609238	44.65941512	-73
42465	0	0.276977539	-0.273925781	0.059875488	0.999999046	-0.000423431	6.19888E-05	0.000190735	6.924438477	-6.848144531	1.496887207	-0.021171571	0.003099442	0.009536744	-0.246582031	0.658935547	-0.704345703	891.6	-78.12709434	-45.40965152	44.64942652	-73
42466	0	0.277476311	-0.273105621	0.058945656	0.999999046	0.00021553	-2.09808E-05	3.8147E-06	6.936907768	-6.827640533	1.473641396	0.01077652	-0.001049042	0.000190735	-0.249023438	0.661132813	-0.701660156	891.64	-78.09865405	-45.41593373	44.64378785	-73
42467	0	0.278320313	-0.271240234	0.058349609	0.999999046	0.000156403	-0.000163078	-3.8147E-06	6.958007813	-6.781005859	1.458740234	0.007820129	-0.008153915	-0.000190735	-0.246582031	0.658935547	-0.704345703	891.58	-78.09299183	-45.42633578	44.66211092	-73
42468	0	0.277668953	-0.26896286	0.056938171	0.999999046	1.23978E-05	-2.67029E-05	0.000110626	6.941723824	-6.724071503	1.423454285	0.000619888	-0.001335144	0.005531311	-0.249023438	0.658935547	-0.701416016	891.54	-78.09114411	-45.42065562	44.66257611	-73
42469	0	0.276855469	-0.271789551	0.059692383	0.999999046	-0.000259399	0.000138283	0.000171661	6.921386719	-6.79473877	1.49230957	-0.012969971	0.006914139	0.008583069	-0.246582031	0.658935547	-0.704345703	891.6	-78.1030724	-45.4040583	44.6396599	-73
42470	0	0.277599335	-0.272099495	0.059626579	0.999999046	8.96454E-05	-0.000120163	7.9155E-05	6.939983368	-6.802487373	1.490664482	0.004482269	-0.006008148	0.003957748	-0.249023438	0.661132813	-0.704345703	891.64	-78.1021213	-45.40379384	44.65441299	-73
42471	0	0.277770996	-0.270874023	0.058227539	0.999999046	0.000167847	-0.00014019	5.34058E-05	6.944274902	-6.771850586	1.455688477	0.008392334	-0.007009506	0.002670288	-0.246582031	0.663330078	-0.704833984	891.58	-78.09389145	-45.40680968	44.66716524	-72
42472	0	0.277391434	-0.268870354	0.057628632	0.999999046	-0.000159264	7.62939E-05	0.000263214	6.934785843	-6.721758842	1.44071579	-0.007963181	0.003814697	0.013160706	-0.249023438	0.658935547	-0.698486328	891.54	-78.103593	-45.38116197	44.6552687	-72
42473	0	0.276184082	-0.275146484	0.057312012	0.999999046	-0.000427246	4.29153E-05	0.000171661	6.904602051	-6.878662109	1.432800293	-0.021362305	0.002145767	0.008583069	-0.246582031	0.661132813	-0.704589844	891.6	-78.145755	-45.36629818	44.64709789	-73
42474	0	0.277182579	-0.276085854	0.058320045	0.999999046	0.000337601	-0.000204086	-8.86917E-05	6.929564476	-6.902146339	1.458001137	0.016880036	-0.010204315	-0.004434586	-0.249023438	0.661132813	-0.704345703	891.7	-78.12219043	-45.3861865	44.67037061	-73
42475	0	0.277587891	-0.268615723	0.055969238	0.999999046	0.00069046	-0.000239372	-0.000217438	6.939697266	-6.715393066	1.399230957	0.034523014	-0.011968614	-0.010871888	-0.249023438	0.661132813	-0.707275391	891.64	-78.05924566	-45.42138738	44.69485572	-73
42476	0	0.279135704	-0.268964767	0.057365417	0.999999046	-0.000208855	7.62939E-06	7.24792E-05	6.978392601	-6.724119186	1.434135437	-0.010442734	0.00038147	0.003623962	-0.246582031	0.661132813	-0.704589844	891.58	-78.0782733	-45.4182889	44.68627321	-73
42477	0	0.277160645	-0.270874023	0.05871582	0.999999046	-0.00030899	0.000199318	0.000148773	6.929016113	-6.771850586	1.467895508	-0.015449524	0.009965897	0.00743866	-0.246582031	0.661132813	-0.701660156	891.6	-78.08878956	-45.40200204	44.64867968	-73
42478	0	0.276567459	-0.273434639	0.058716774	0.999999046	-0.000127792	-8.2016E-05	0.000113487	6.914186478	-6.835865974	1.46791935	-0.006389618	-0.0041008	0.005674362	-0.246582031	0.661132813	-0.707519531	891.72	-78.10971276	-45.39612306	44.65956742	-72
42479	0	0.278198242	-0.270202637	0.057189941	0.999999046	6.48499E-05	-0.000121117	0.000244141	6.954956055	-6.755065918	1.429748535	0.003242493	-0.006055832	0.012207031	-0.246582031	0.658935547	-0.698730469	891.58	-78.11619308	-45.3765047	44.67706861	-72
42480	0	0.277226448	-0.268744469	0.057461739	0.999999046	-0.000300407	0.000114441	0.00019455	6.930661201	-6.718611717	1.436543465	-0.015020371	0.005722046	0.009727478	-0.249023438	0.661132813	-0.701660156	891.7	-78.1366033	-45.35690038	44.65845071	-72
42481	0	0.277038574	-0.27532959	0.058044434	0.999999046	-0.000282288	7.34329E-05	0.000202179	6.925964355	-6.883239746	1.45111084	-0.01411438	0.003671646	0.010108948	-0.246582031	0.663330078	-0.704833984	891.7	-78.15985357	-45.33718484	44.64566886	-72
42482	0	0.278140068	-0.272301674	0.0575037	0.999999046	0.000307083	-2.09808E-05	7.62939E-06	6.953501701	-6.807541847	1.437592506	0.015354157	-0.001049042	0.00038147	-0.246582031	0.663330078	-0.704833984	891.58	-78.1217073	-45.34144611	44.6406999	-73
42483	0	0.277404785	-0.270507813	0.057617188	0.999999046	0.000125885	1.23978E-05	4.95911E-05	6.935119629	-6.762695313	1.440429688	0.006294251	0.000619888	0.002479553	-0.246582031	0.661132813	-0.707519531	891.68	-78.1015728	-45.34018466	44.6359516	-72
42484	0	0.278047562	-0.269788742	0.058545113	0.999999046	1.04904E-05	-3.05176E-05	9.91821E-05	6.951189041	-6.744718552	1.463627815	0.000524521	-0.001525879	0.004959106	-0.246826172	0.663330078	-0.701904297	891.64	-78.100677	-45.33439231	44.63338323	-73
42485	0	0.27722168	-0.271240234	0.057250977	0.999999046	-1.90735E-05	-5.62668E-05	0.000301361	6.930541992	-6.781005859	1.431274414	-0.000953674	-0.002813339	0.015068054	-0.246582031	0.663330078	-0.704833984	891.7	-78.11099797	-45.30648361	44.64432591	-73
42486	0	0.277978897	-0.273118973	0.056048393	0.999999046	-3.05176E-05	4.57764E-05	0.000183105	6.949472427	-6.827974319	1.401209831	-0.001525879	0.002288818	0.009155273	-0.249023438	0.663330078	-0.707519531	891.72	-78.1084282	-45.28935175	44.63978084	-73
42487	0	0.277404785	-0.270141602	0.057800293	0.999999046	7.62939E-06	1.23978E-05	4.19617E-05	6.935119629	-6.753540039	1.445007324	0.00038147	0.000619888	0.002098083	-0.244140625	0.661132813	-0.701904297	891.58	-78.10191371	-45.28884177	44.62955298	-72
42488	0	0.27762413	-0.268516541	0.058725357	0.999999046	-0.000540733	0.000156403	0.000273705	6.940603256	-6.712913513	1.468133926	-0.027036669	0.00782013	0.013685227	-0.246582031	0.661132813	-0.704589844	891.54	-78.14738593	-45.25901341	44.61034236	-72
42489	0	0.276489258	-0.274902344	0.05859375	0.999999046	-0.00062561	0.000195503	0.000354767	6.912231445	-6.872558594	1.46484375	-0.03128052	0.009775163	0.017738344	-0.246826172	0.663330078	-0.701904297	891.64	-78.20009653	-45.21899764	44.58564682	-72
42490	0	0.27675724	-0.27670002	0.060003281	0.999999046	-9.34601E-05	5.72205E-06	0.000163078	6.918931007	-6.917500496	1.500082016	-0.004673004	0.000286102	0.008153915	-0.244384766	0.663330078	-0.698974609	891.7	-78.20867181	-45.20470389	44.58072435	-72
42491	0	0.276733398	-0.272705078	0.05657959	0.999999046	0.000526428	-0.00014019	-0.00012207	6.918334961	-6.817626953	1.414489746	0.026321413	-0.007009507	-0.006103516	-0.246826172	0.663330078	-0.701904297	891.7	-78.15607127	-45.22575635	44.59246114	-72
42492	0	0.27846241	-0.268795013	0.055990219	0.999999046	0.000123024	-6.86646E-05	9.91821E-05	6.961560249	-6.719875336	1.399755478	0.006151199	-0.003433228	0.004959106	-0.244384766	0.663330078	-0.704833984	891.66	-78.14695297	-45.2204551	44.60010529	-73
42493	0	0.278503418	-0.270202637	0.058532715	0.999999046	-0.000331879	0.000206947	0.00019455	6.962585449	-6.755065918	1.463317871	-0.016593934	0.010347367	0.009727478	-0.244384766	0.663330078	-0.701904297	891.6	-78.1610308	-45.19804352	44.56608529	-72
42494	0	0.275565147	-0.272729874	0.059319496	0.999999046	-0.00041008	-2.67029E-05	0.000216484	6.889128685	-6.818246841	1.482987404	-0.020503999	-0.001335144	0.010824204	-0.244384766	0.663330078	-0.704833984	891.7	-78.21090501	-45.17854163	44.57367046	-73
42495	0	0.276367188	-0.274414063	0.059509277	0.999999046	-6.86646E-05	-0.000102043	0.000190735	6.909179688	-6.860351563	1.487731934	-0.003433228	-0.005102158	0.009536743	-0.244384766	0.663330078	-0.701904297	891.64	-78.22946018	-45.16354365	44.59033342	-73
42496	0	0.276947021	-0.270195007	0.057400703	1	7.62939E-06	4.48227E-05	5.34058E-05	6.923675537	-6.754875183	1.435017586	0.00038147	0.002241135	0.002670288	-0.244384766	0.663330078	-0.704833984	891.64	-78.21947557	-45.16056336	44.58149872	-73
42497	0	0.276489258	-0.274291992	0.059082031	0.999999046	-0.000331879	7.34329E-05	0.00018692	6.912231445	-6.857299805	1.477050781	-0.016593934	0.003671646	0.009346009	-0.241943359	0.663330078	-0.69921875	891.64	-78.24825482	-45.14181253	44.56691332	-72
42498	0	0.27735424	-0.273823738	0.057291985	0.999999046	0.000305176	8.96454E-05	5.72205E-05	6.93385601	-6.845593452	1.432299614	0.015258789	0.004482269	0.002861023	-0.244384766	0.663330078	-0.698974609	891.64	-78.19922544	-45.1371744	44.546989	-72
42499	0	0.277587891	-0.27154541	0.057128906	0.999999046	-9.53674E-05	6.19888E-05	7.62939E-06	6.939697266	-6.788635254	1.428222656	-0.004768372	0.003099442	0.00038147	-0.241943359	0.663330078	-0.702148438	891.54	-78.19810076	-45.13877796	44.53047577	-71
42500	0	0.277210236	-0.27015686	0.055951118	0.999999046	-0.000279427	0.000211716	4.95911E-05	6.93025589	-6.753921509	1.398777962	-0.013971329	0.010585785	0.002479553	-0.244384766	0.665527344	-0.702148438	891.58	-78.20229875	-45.13224535	44.49245921	-71
42501	0	0.276367188	-0.27355957	0.05871582	0.999999046	-0.000530243	0.000218391	0.000278473	6.909179688	-6.838989258	1.467895508	-0.026512148	0.010919572	0.013923646	-0.244384766	0.663330078	-0.701904297	891.54	-78.23985127	-45.0997994	44.46536732	-71
42502	0	0.276005745	-0.273715019	0.058178902	0.999999046	-0.000326157	6.67572E-05	0.000277519	6.900143623	-6.842875481	1.454472542	-0.016307831	0.00333786	0.013875962	-0.244628906	0.667724609	-0.702392578	891.72	-78.27105926	-45.07092085	44.45927746	-72
42503	0	0.276428223	-0.276123047	0.057861328	0.999999046	0.000164032	-9.82285E-05	6.86646E-05	6.910705566	-6.903076172	1.446533203	0.008201599	-0.004911423	0.003433228	-0.2421875	0.667724609	-0.696777344	891.6	-78.25980602	-45.06917679	44.46508142	-72
42504	0	0.277256012	-0.271077156	0.056246758	0.999999046	0.000315666	-0.000108719	-9.53674E-07	6.931400299	-6.776928902	1.406168938	0.01578331	-0.005435944	-4.76837E-05	-0.241943359	0.665527344	-0.705078125	891.64	-78.23081503	-45.07556807	44.47866708	-72
42505	0	0.27734375	-0.268615723	0.057189941	0.999999046	-0.000255585	-7.9155E-05	7.62939E-06	6.93359375	-6.715393066	1.429748535	-0.012779236	-0.003957748	0.00038147	-0.244384766	0.663330078	-0.698974609	891.54	-78.26414694	-45.08046201	44.48818148	-72
42506	0	0.275883675	-0.273104668	0.056395531	0.999999046	-0.000518799	0.000284195	0.000301361	6.897091866	-6.827616692	1.409888268	-0.025939943	0.014209748	0.015068055	-0.244384766	0.665527344	-0.69921875	891.58	-78.29373864	-45.04388421	44.44956051	-72
42507	0	0.276794434	-0.278320313	0.059204102	0.999999046	-0.000247955	9.25064E-05	6.10352E-05	6.91986084	-6.958007813	1.480102539	-0.012397766	0.00462532	0.003051758	-0.244628906	0.667724609	-0.699462891	891.64	-78.3082178	-45.03852812	44.43215021	-72
42508	0	0.276932716	-0.273804665	0.056676865	0.999999046	0.000613213	-0.000150681	-6.48499E-05	6.923317909	-6.845116615	1.416921616	0.030660631	-0.007534028	-0.003242493	-0.2421875	0.667724609	-0.699462891	891.66	-78.24847527	-45.05293162	44.44489188	-72
42509	0	0.277954102	-0.268859863	0.055786133	0.999999046	0.000141144	-0.000109673	-3.05176E-05	6.948852539	-6.721496582	1.39465332	0.00705719	-0.005483627	-0.001525879	-0.2421875	0.665527344	-0.699462891	891.66	-78.23909469	-45.06272305	44.45437874	-72
42510	0	0.277799606	-0.270902634	0.057326317	0.999999046	-0.000389099	0.000236511	0.000286102	6.944990158	-6.772565842	1.433157921	-0.019454957	0.011825562	0.014305115	-0.241943359	0.663085938	-0.705078125	891.66	-78.25898569	-45.02900631	44.42865372	-72
42511	0	0.276184082	-0.274230957	0.058288574	0.999999046	-0.000343323	9.25064E-05	0.000167847	6.904602051	-6.855773926	1.457214355	-0.017166138	0.004625321	0.008392334	-0.2421875	0.667724609	-0.702392578	891.66	-78.28702898	-45.01184397	44.41551069	-72
42512	0	0.275592804	-0.273875237	0.058089256	0.999999046	7.53403E-05	-0.000150681	0.000193596	6.889820099	-6.846880913	1.452231407	0.003767014	-0.007534027	0.009679794	-0.244628906	0.665527344	-0.696289063	891.58	-78.29496596	-44.99737347	44.44146582	-72
42513	0	0.277526855	-0.270141602	0.054138184	0.999999046	-0.000156403	7.72476E-05	0.000247955	6.938171387	-6.753540039	1.35345459	-0.00782013	0.003862381	0.012397766	-0.244384766	0.665527344	-0.702148438	891.72	-78.30534799	-44.97166317	44.4389709	-72
42514	0	0.27616024	-0.274874687	0.058121681	0.999999046	-0.000522614	0.000133514	0.000277519	6.904006004	-6.87186718	1.45304203	-0.026130678	0.006675721	0.013875962	-0.241943359	0.665527344	-0.702392578	891.7	-78.35205108	-44.9412542	44.42826111	-72
42515	0	0.277160645	-0.276000977	0.05682373	0.999999046	8.01086E-05	-3.33786E-05	0.000202179	6.929016113	-6.900024414	1.420593262	0.004005432	-0.00166893	0.010108948	-0.2421875	0.667724609	-0.705322266	891.52	-78.34670714	-44.92310605	44.44174512	-72
42516	0	0.276809692	-0.273541451	0.05611515	1	2.09808E-05	-4.29153E-05	3.43323E-05	6.92024231	-6.838536263	1.402878761	0.001049042	-0.002145767	0.001716614	-0.244628906	0.667724609	-0.696533203	891.6	-78.34541035	-44.92404061	44.4458011	-72
42517	0	0.276611328	-0.272949219	0.05682373	0.999999046	0.000205994	-2.86102E-06	0.0001297	6.915283203	-6.823730469	1.420593262	0.010299683	-0.000143051	0.006484985	-0.2421875	0.667724609	-0.699462891	891.6	-78.32065679	-44.91337701	44.44641122	-72
42518	0	0.277151108	-0.270861626	0.05717659	0.999999046	-0.000160217	0.00012207	0.000197411	6.928777695	-6.771540642	1.429414749	-0.008010864	0.006103516	0.009870529	-0.2421875	0.665527344	-0.699462891	891.54	-78.32544298	-44.8923413	44.43299526	-72
42519	0	0.274597168	-0.274475098	0.057434082	0.999999046	-0.000244141	2.00272E-05	7.24792E-05	6.864929199	-6.861877441	1.435852051	-0.012207031	0.001001358	0.003623962	-0.239746094	0.667480469	-0.702636719	891.6	-78.34838393	-44.88760262	44.43042906	-72
42520	0	0.276019096	-0.274360657	0.058286667	0.999999046	2.19345E-05	5.72205E-06	0.000179291	6.900477409	-6.859016418	1.457166672	0.001096725	0.000286102	0.008964539	-0.2421875	0.669921875	-0.702636719	891.6	-78.34483789	-44.87117028	44.43328025	-72
42521	0	0.276123047	-0.274536133	0.057861328	0.999999046	-0.000144958	-3.33786E-05	0.000118256	6.903076172	-6.86340332	1.446533203	-0.007247925	-0.00166893	0.005912781	-0.239746094	0.669677734	-0.702880859	891.68	-78.36335303	-44.86246223	44.4388946	-72
42522	0	0.276123047	-0.274374962	0.058311462	0.999999046	0.000120163	-2.09808E-05	-4.76837E-06	6.903076172	-6.859374046	1.45778656	0.006008148	-0.001049042	-0.000238419	-0.2421875	0.667724609	-0.699462891	891.64	-78.34720639	-44.86724953	44.43981076	-72
42523	0	0.27545166	-0.271911621	0.056091309	0.999999046	9.91821E-05	-0.000224113	4.57764E-05	6.886291504	-6.797790527	1.402282715	0.004959106	-0.011205673	0.002288818	-0.244628906	0.667724609	-0.699462891	891.66	-78.35738357	-44.8711163	44.47656649	-72
42524	0	0.276000977	-0.271437645	0.055715561	0.999999046	-0.000349998	1.90735E-05	0.000209808	6.900024414	-6.785941124	1.392889023	-0.017499924	0.000953674	0.010490418	-0.239746094	0.667480469	-0.702636719	891.6	-78.39571116	-44.85103844	44.47974683	-72
42525	0	0.276550293	-0.276611328	0.057983398	0.999999046	-0.000392914	-4.86374E-05	0.000263214	6.913757324	-6.915283203	1.449584961	-0.019645692	-0.00243187	0.013160706	-0.239990234	0.669921875	-0.697021484	891.72	-78.44769968	-44.82644059	44.48898531	-72
42526	0	0.275920868	-0.277046204	0.056517601	0.999999046	0.000204086	-0.000127792	2.95639E-05	6.898021698	-6.92615509	1.412940025	0.010204315	-0.006389618	0.001478195	-0.239746094	0.667480469	-0.699707031	891.66	-78.43483895	-44.82978907	44.50778279	-72
42527	0	0.277038574	-0.27130127	0.054931641	0.999999046	0.000431061	-0.000212669	-0.000118256	6.925964355	-6.782531738	1.373291016	0.02155304	-0.010633469	-0.005912781	-0.239990234	0.669921875	-0.699951172	891.66	-78.40215931	-44.85184228	44.53097311	-72
42528	0	0.277371407	-0.272346497	0.057305336	0.999999046	-0.000149727	5.72205E-06	-7.62939E-06	6.934285164	-6.808662415	1.4326334	-0.007486343	0.000286102	-0.00038147	-0.2421875	0.667724609	-0.696777344	891.64	-78.4141368	-44.85655082	44.525645	-72
42529	0	0.276184082	-0.274902344	0.057800293	0.999999046	-4.57764E-05	-3.33786E-05	3.8147E-05	6.904602051	-6.872558594	1.445007324	-0.002288818	-0.00166893	0.001907349	-0.2421875	0.667724609	-0.699462891	891.66	-78.41957651	-44.85698119	44.53058411	-72
42530	0	0.275495529	-0.273891449	0.057328224	0.999999046	0.000112534	-0.000150681	-2.00272E-05	6.887388229	-6.847286224	1.433205605	0.005626679	-0.007534027	-0.001001358	-0.2421875	0.665527344	-0.696533203	891.64	-78.41862121	-44.86661549	44.55159198	-72
42531	0	0.276184082	-0.274719238	0.056152344	0.999999046	0.000225067	-0.000185966	3.8147E-06	6.904602051	-6.867980957	1.403808594	0.011253357	-0.009298325	0.000190735	-0.2421875	0.667724609	-0.693847656	891.64	-78.4093269	-44.87436359	44.57284197	-72
