Counter	Temperature	VelInc_X	VelInc_Y	VelInc_Z	OriInc_w	OriInc_x	OriInc_y	OriInc_z	Acc_X	Acc_Y	Acc_Z	Gyr_X	Gyr_Y	Gyr_Z	Mag_X	Mag_Y	Mag_Z	Pressure	Roll	Pitch	Yaw	RSSI
35590	0	0.376836777	-0.079574585	0.07815361	0.999994278	-0.003090858	0.000330925	0.000151634	9.420919418	-1.989364624	1.953840256	-0.154543172	0.016546276	0.007581723	-0.71484375	-0.282958984	-0.627685547	896.12	-44.69104821	-73.71791292	89.7663045	-71
35591	0	0.375488281	-0.08001709	0.079040527	0.999996185	-0.002482414	-0.000305176	0.000415802	9.387207031	-2.000427246	1.976013184	-0.124120845	-0.015258805	0.020790122	-0.712646484	-0.280761719	-0.627929688	896.22	-45.14698748	-73.71331982	89.9530589	-71
35592	0	0.377361298	-0.081957817	0.081273079	0.999998093	-0.001764297	-0.000370979	0.000384331	9.43403244	-2.048945427	2.031826973	-0.088214924	-0.018548976	0.019216548	-0.717285156	-0.278564453	-0.633544922	896.22	-45.53021494	-73.71595421	90.1471451	-71
35593	0	0.374816895	-0.085571289	0.081237793	0.999999046	-0.000347137	-0.00032711	0.0001297	9.370422363	-2.139282227	2.030944824	-0.017356873	-0.016355515	0.006484986	-0.717529297	-0.274169922	-0.631103516	896.2	-45.6693389	-73.73525131	90.25391283	-70
35594	0	0.373626709	-0.086274147	0.080688477	0.999999046	0.001228333	-0.000207901	0.000117302	9.340667725	-2.156853676	2.017211914	0.061416642	-0.010395053	0.005865099	-0.717529297	-0.276367188	-0.627929688	896.16	-45.59162385	-73.74554881	90.32537249	-70
35595	0	0.376281738	-0.081848145	0.078552246	0.999997139	0.001991272	-0.000182152	0.000469208	9.407043457	-2.046203613	1.963806152	0.099563669	-0.009107596	0.023460405	-0.715087891	-0.276367188	-0.625244141	896.12	-45.51616855	-73.72484088	90.48826049	-70
35596	0	0.381968498	-0.081126213	0.072203636	0.999999046	0.000809669	0.000320435	0.000712395	9.549212456	-2.028155327	1.805090904	0.040483483	0.016021732	0.035619743	-0.715332031	-0.274169922	-0.628417969	896.12	-45.50297147	-73.64408758	90.56976706	-70
35597	0	0.378662109	-0.080444336	0.073303223	0.999999046	0.000190735	0.000172615	0.000160217	9.466552734	-2.011108398	1.832580566	0.009536743	0.008630753	0.008010864	-0.715087891	-0.276367188	-0.625244141	896.26	-45.4513262	-73.62045906	90.54246869	-70
35598	0	0.377450943	-0.078584671	0.074561119	0.999999046	4.00543E-05	-0.000881195	0.000164032	9.436273575	-1.964616776	1.864027977	0.002002716	-0.044059759	0.0082016	-0.717529297	-0.276367188	-0.627929688	896.16	-45.71211979	-73.68118505	90.81968317	-70
35599	0	0.37713623	-0.079711914	0.075683594	0.999999046	-0.000301361	-0.000975609	0.000183105	9.428405762	-1.992797852	1.892089844	-0.015068057	-0.04878045	0.009155275	-0.717529297	-0.276123047	-0.625244141	896.2	-46.04618323	-73.74749641	91.1335211	-71
35600	0	0.377625465	-0.080447197	0.07794857	0.999999046	-0.000681877	-0.000751495	0.000385284	9.440636635	-2.011179924	1.948714256	-0.034093864	-0.037574775	0.019264225	-0.717529297	-0.276367188	-0.627929688	896.22	-46.4174094	-73.7786822	91.43860267	-71
35601	0	0.37890625	-0.08404541	0.078491211	0.999999046	-0.00025177	-0.000872612	-4.57764E-05	9.47265625	-2.101135254	1.962280273	-0.012588503	-0.043630606	-0.002288819	-0.719970703	-0.273925781	-0.628173828	896.2	-46.65869003	-73.85458636	91.65652255	-71
35602	0	0.379599571	-0.083683968	0.077724457	0.999999046	0.000360489	-0.000617981	-0.000142097	9.489989281	-2.09209919	1.94311142	0.018024446	-0.030899051	-0.007104874	-0.722412109	-0.273925781	-0.625	896.12	-46.7318707	-73.91813987	91.77440179	-71
35603	0	0.378479004	-0.084838867	0.075622559	0.999999046	0.000854492	-0.000212669	-9.15527E-05	9.461975098	-2.12097168	1.890563965	0.042724615	-0.01063347	-0.004577637	-0.722167969	-0.276123047	-0.625	896.2	-46.64569584	-73.94541745	91.78540589	-71
35604	0	0.375901222	-0.082689285	0.075175285	0.999998093	0.001443863	-0.000231743	-0.000149727	9.397530556	-2.067232132	1.879382133	0.072193172	-0.011587147	-0.007486346	-0.719970703	-0.276123047	-0.622070313	896.16	-46.4816591	-73.97888939	91.78418525	-71
35605	0	0.377075195	-0.081420898	0.070983887	0.999998093	0.001412392	-0.00050354	-0.000175476	9.426879883	-2.035522461	1.774597168	0.07061961	-0.025177012	-0.008773807	-0.722167969	-0.280517578	-0.624511719	896.18	-46.39335216	-74.03600122	91.85737268	-71
35606	0	0.3758955	-0.080960274	0.073153496	0.999998093	0.001242638	-0.000763893	-0.00031662	9.397387505	-2.024006844	1.828837395	0.062131905	-0.038194671	-0.015831	-0.719726563	-0.280517578	-0.618896484	896.12	-46.36163144	-74.1253697	91.96936105	-71
35607	0	0.377807617	-0.08190918	0.072937012	0.999998093	0.001355171	-0.000827789	-0.000267029	9.44519043	-2.047729492	1.823425293	0.067758589	-0.041389483	-0.013351446	-0.722167969	-0.280517578	-0.618896484	896.12	-46.35062174	-74.21560604	92.11269345	-71
35608	0	0.377786636	-0.080290794	0.072345734	0.999998093	0.001377106	-0.000716209	-4.29153E-05	9.444665909	-2.007269859	1.808643341	0.068855313	-0.035810485	-0.002145768	-0.721923828	-0.284912109	-0.618408203	896.2	-46.36828465	-74.27839197	92.28949921	-71
35609	0	0.378479004	-0.078186035	0.072265625	0.999999046	0.00082016	-0.000472069	7.24792E-05	9.461975098	-1.954650879	1.806640625	0.041008002	-0.023603443	0.003623963	-0.721923828	-0.286865234	-0.615478516	896.16	-46.41098047	-74.31230843	92.42867775	-71
35610	0	0.38066864	-0.079958916	0.069533348	0.999999046	0.000556946	-0.000339508	0.000137329	9.516716003	-1.998972893	1.738333702	0.027847292	-0.016975404	0.006866456	-0.724365234	-0.2890625	-0.612304688	896.12	-46.46392333	-74.3304152	92.55217722	-71
35611	0	0.38092041	-0.078430176	0.070678711	0.999999046	0.000469208	-0.000174522	0.000141144	9.523010254	-1.960754395	1.766967773	0.023460389	-0.00872612	0.00705719	-0.7265625	-0.2890625	-0.609375	896.16	-46.47957944	-74.3352514	92.62923535	-71
35612	0	0.379641533	-0.07700634	0.071228027	0.999999046	-6.00815E-05	-0.000171661	0.000270844	9.491038322	-1.925158501	1.780700684	-0.003004074	-0.008583069	0.013542176	-0.7265625	-0.2890625	-0.612060547	896.06	-46.59157115	-74.32915208	92.74061617	-71
35613	0	0.379150391	-0.077636719	0.071838379	0.999999046	-0.000583649	-7.15256E-05	9.91821E-05	9.478759766	-1.940917969	1.795959473	-0.029182436	-0.003576279	0.004959107	-0.7265625	-0.2890625	-0.609375	896.16	-46.68564056	-74.32947371	92.77486941	-71
35614	0	0.379144669	-0.077920914	0.073644638	0.999999046	-0.000715256	-2.28882E-05	-0.000102997	9.478616714	-1.948022842	1.841115952	-0.03576279	-0.001144409	-0.005149842	-0.724365234	-0.2890625	-0.609375	896.2	-46.72346072	-74.34280697	92.73518017	-71
35615	0	0.379760742	-0.078735352	0.074157715	0.999999046	-0.000541687	3.52859E-05	-0.000236511	9.494018555	-1.968383789	1.853942871	-0.027084352	0.001764298	-0.011825562	-0.724365234	-0.286865234	-0.609619141	896.16	-46.68637094	-74.36264233	92.6363031	-72
35616	0	0.380036354	-0.077719688	0.073122025	0.999999046	-0.000622749	0.000299454	-9.53674E-05	9.500908852	-1.94299221	1.828050613	-0.031137469	0.014972688	-0.004768372	-0.724609375	-0.284667969	-0.609863281	896.16	-46.61935484	-74.34991822	92.49566556	-72
35617	0	0.378967285	-0.077148438	0.074157715	0.999999046	-0.000541687	6.58035E-05	-0.000217438	9.474182129	-1.928710938	1.853942871	-0.027084352	0.003290177	-0.010871888	-0.724365234	-0.286865234	-0.609619141	896.12	-46.57787794	-74.36569881	92.39468048	-72
35618	0	0.38008976	-0.077002525	0.07326889	0.999999046	-0.000289917	-7.62939E-06	-0.000687599	9.502243996	-1.925063133	1.83172226	-0.014495851	-0.00038147	-0.034379962	-0.724365234	-0.284667969	-0.615478516	896.12	-46.39597427	-74.42631452	92.16867753	-72
35619	0	0.379638672	-0.077697754	0.072814941	0.999999046	-0.000450134	0.0002985	-0.000827789	9.490966797	-1.942443848	1.820373535	-0.022506718	0.014925005	-0.041389472	-0.721923828	-0.286865234	-0.615478516	896.16	-46.09973822	-74.47401135	91.80682087	-72
35620	0	0.377829552	-0.07720089	0.074556351	0.999999046	-0.000304222	-0.0001297	-0.000985146	9.445738792	-1.93002224	1.863908768	-0.015211108	-0.006484987	-0.049257287	-0.721923828	-0.286865234	-0.618408203	896.22	-45.86628236	-74.56822827	91.52343036	-72
35621	0	0.377258301	-0.078430176	0.075195313	0.999999046	-0.000911713	-0.000403404	-0.00088501	9.43145752	-1.960754395	1.879882813	-0.045585646	-0.020170218	-0.044250501	-0.721923828	-0.286865234	-0.618408203	896.1	-45.81055626	-74.67567996	91.35211928	-72
35622	0	0.37861824	-0.078205109	0.075965881	0.999999046	-0.000173569	-0.000343323	-0.001046181	9.465456009	-1.955127716	1.899147034	-0.008678438	-0.017166141	-0.052309047	-0.721923828	-0.2890625	-0.612304688	896.22	-45.60263916	-74.79121283	91.11805814	-72
35623	0	0.378234863	-0.077880859	0.077209473	0.999999046	-0.000156403	-0.000517845	-0.000782013	9.455871582	-1.947021484	1.930236816	-0.007820131	-0.025892262	-0.039100653	-0.719482422	-0.291503906	-0.609619141	896.16	-45.52058556	-74.89867486	91.01931956	-72
35624	0	0.378316879	-0.07999897	0.075632095	0.999999046	0.000632286	-0.000431061	-0.000649452	9.457921982	-1.999974251	1.890802383	0.031614309	-0.021553043	-0.032472616	-0.724121094	-0.291259766	-0.617919922	896.12	-45.36014591	-74.98792765	90.9225869	-72
35625	0	0.378234863	-0.076477051	0.073730469	0.999999046	0.000793457	-0.000258446	-0.000530243	9.455871582	-1.91192627	1.843261719	0.039672858	-0.012922289	-0.02651215	-0.721679688	-0.293457031	-0.614990234	896.12	-45.16321361	-75.05329316	90.80903884	-72
35626	0	0.379512787	-0.0766325	0.071579933	0.999999046	0.000741959	-0.000192642	-0.000527382	9.487819672	-1.915812492	1.789498329	0.037097936	-0.009632112	-0.026369099	-0.721679688	-0.295654297	-0.614746094	896.12	-44.95213815	-75.11287931	90.67494402	-72
35627	0	0.377990723	-0.075195313	0.072814941	0.999999046	0.000980377	-0.000388145	-0.000465393	9.449768066	-1.879882813	1.820373535	0.049018871	-0.019407277	-0.023269658	-0.721679688	-0.295654297	-0.611816406	896.06	-44.79117177	-75.18307124	90.62065331	-72
35628	0	0.378421783	-0.074701309	0.072422981	0.999999046	0.001297951	-0.00019455	-0.000115395	9.460544586	-1.86753273	1.810574532	0.064897556	-0.009727481	-0.005769731	-0.721435547	-0.300048828	-0.608642578	896.2	-44.64188914	-75.20910981	90.62145596	-72
35629	0	0.379577637	-0.073547363	0.070373535	0.999999046	0.001110077	-8.67844E-05	-0.000179291	9.489440918	-1.838684082	1.759338379	0.055503857	-0.004339219	-0.00896454	-0.723876953	-0.300048828	-0.611328125	896.22	-44.46159042	-75.23146969	90.56313727	-72
35630	0	0.380836487	-0.072947502	0.071689606	0.999999046	0.000890732	4.95911E-05	2.57492E-05	9.52091217	-1.823687553	1.792240143	0.044536596	0.002479554	0.00128746	-0.718994141	-0.302246094	-0.608642578	896.12	-44.32851667	-75.22615686	90.52946432	-72
35631	0	0.379272461	-0.069946289	0.070800781	0.999999046	0.00062561	-1.81198E-05	0.000106812	9.481811523	-1.748657227	1.770019531	0.03128052	-0.000905991	0.005340577	-0.723632813	-0.304443359	-0.608154297	896.22	-44.27150822	-75.21998337	90.54703666	-71
35632	0	0.380236626	-0.069573402	0.070995331	0.999999046	0.000338554	-4.3869E-05	-9.53674E-05	9.505915642	-1.73933506	1.77488327	0.016927719	-0.002193451	-0.004768372	-0.726074219	-0.304199219	-0.608154297	896.22	-44.1921204	-75.23219646	90.50720022	-71
35633	0	0.381958008	-0.071777344	0.071899414	0.999999046	0.000274658	-4.86374E-05	-3.43323E-05	9.548950195	-1.794433594	1.797485352	0.01373291	-0.00243187	-0.001716614	-0.721435547	-0.304443359	-0.608398438	896.26	-44.14051415	-75.23993155	90.48572292	-71
35634	0	0.380321503	-0.071772575	0.072937965	0.999999046	0.00078392	-8.58307E-05	-0.00017643	9.508037567	-1.794314384	1.823449135	0.039196019	-0.004291535	-0.008821488	-0.721191406	-0.306640625	-0.605224609	896.2	-43.99722802	-75.26199933	90.43379364	-71
35635	0	0.377868652	-0.068725586	0.073364258	0.999999046	0.000583649	4.29153E-05	4.57764E-05	9.446716309	-1.718139648	1.834106445	0.029182436	0.002145767	0.002288818	-0.721191406	-0.306640625	-0.608154297	896.16	-43.90692552	-75.25574772	90.40845087	-71
35636	0	0.380907059	-0.071605682	0.072564125	0.999999046	0.00052166	0.0001297	0.000197411	9.522676468	-1.790142059	1.814103127	0.026082994	0.006484986	0.00987053	-0.723632813	-0.306640625	-0.610839844	896.2	-43.8452232	-75.23025197	90.40279025	-71
35637	0	0.380554199	-0.070251465	0.071044922	0.999999046	0.000492096	0.000405312	0.000278473	9.51385498	-1.756286621	1.776123047	0.024604799	0.020265581	0.013923646	-0.721191406	-0.308837891	-0.607910156	896.12	-43.72981175	-75.1756087	90.34330065	-71
35638	0	0.380458832	-0.068014145	0.070198059	0.999999046	0.000455856	0.000457764	0.000502586	9.511470795	-1.700353622	1.754951477	0.022792819	0.022888186	0.025129321	-0.723632813	-0.306640625	-0.607910156	896.12	-43.67337836	-75.0990554	90.33962987	-71
35639	0	0.38104248	-0.065734863	0.071228027	0.999999046	0.000106812	0.000393867	0.000312805	9.526062012	-1.643371582	1.780700684	0.005340576	0.019693376	0.015640259	-0.723388672	-0.308837891	-0.610595703	896.16	-43.61666709	-75.04308145	90.2948721	-71
35640	0	0.379053116	-0.065590858	0.071661949	0.999999046	-0.000248909	0.000141144	0.000315666	9.476327896	-1.639771461	1.791548729	-0.01244545	0.00705719	0.01578331	-0.721435547	-0.306640625	-0.602539063	896.12	-43.67592551	-75.00808744	90.33500194	-70
35641	0	0.37902832	-0.067504883	0.071044922	0.999999046	-0.000350952	-0.000235558	0.000217438	9.475708008	-1.68762207	1.776123047	-0.017547608	-0.011777878	0.010871888	-0.723632813	-0.306640625	-0.607910156	896.1	-43.82751877	-75.01225669	90.45380218	-70
35642	0	0.381290436	-0.070713043	0.073255539	0.999999046	-0.000368118	-0.00037384	0.000174522	9.532260895	-1.76782608	1.831388474	-0.018405915	-0.018692018	0.00872612	-0.721435547	-0.304443359	-0.60546875	896.2	-44.00895861	-75.03121469	90.60072652	-70
35643	0	0.381469727	-0.072570801	0.073181152	0.999999046	-0.000156403	-0.000208855	0.000240326	9.536743164	-1.81427002	1.829528809	-0.00782013	-0.010442734	0.012016297	-0.723632813	-0.304443359	-0.608154297	896.16	-44.13761109	-75.03122724	90.71614396	-70
35644	0	0.379940033	-0.069297791	0.071962357	0.999999046	0.000184059	-3.62396E-05	0.000330925	9.498500824	-1.732444763	1.799058914	0.009202957	-0.001811981	0.01654625	-0.721435547	-0.304443359	-0.60546875	896.12	-44.20325875	-75.00988504	90.80884416	-70
35645	0	0.378967285	-0.070129395	0.073486328	0.999999046	-0.000152588	-7.9155E-05	0.000396729	9.474182129	-1.753234863	1.837158203	-0.007629395	-0.003957749	0.019836426	-0.721435547	-0.304443359	-0.608398438	896.16	-44.33983129	-74.9867863	90.93231309	-70
35646	0	0.381667137	-0.072224617	0.071205139	0.999999046	8.39233E-05	4.76837E-05	0.000212669	9.541678429	-1.805615425	1.780128479	0.004196167	0.002384186	0.010633469	-0.721435547	-0.304443359	-0.608398438	896.22	-44.35518787	-74.96807282	90.95853737	-70
35647	0	0.381530762	-0.074462891	0.072509766	0.999999046	0.000408173	-0.000117302	-0.000190735	9.538269043	-1.861572266	1.812744141	0.020408631	-0.005865097	-0.009536744	-0.723876953	-0.302246094	-0.60546875	896.2	-44.2597208	-74.99514027	90.90876101	-70
35648	0	0.376997948	-0.072855949	0.073150635	0.999999046	0.001065254	-9.15527E-05	0.000155449	9.424948692	-1.821398735	1.828765869	0.053262721	-0.004577638	0.007772447	-0.721435547	-0.304443359	-0.608398438	896.22	-44.18719809	-74.99232584	90.95645435	-70
35649	0	0.377868652	-0.071655273	0.070251465	0.999999046	0.000926971	-0.000163078	0.000335693	9.446716309	-1.791381836	1.756286621	0.046348579	-0.008153917	0.016784671	-0.723632813	-0.304443359	-0.605224609	896.22	-44.20732957	-74.98107186	91.08652945	-70
35650	0	0.379857063	-0.071173668	0.068366051	0.999999046	0.000576019	-0.000160217	0.00050354	9.496426582	-1.779341698	1.709151268	0.028800967	-0.008010865	0.025177005	-0.723632813	-0.306640625	-0.605224609	896.1	-44.31839957	-74.95630853	91.27095538	-70
35651	0	0.38092041	-0.072021484	0.066955566	0.999999046	-0.000328064	-0.000308037	0.000495911	9.523010254	-1.800537109	1.67388916	-0.016403199	-0.015401841	0.024795534	-0.723876953	-0.304443359	-0.602539063	896.12	-44.57509278	-74.94432649	91.50015043	-70
35652	0	0.379610062	-0.07158947	0.068565369	0.999999046	-0.001009941	-0.000328064	0.000576019	9.490251541	-1.789736748	1.714134216	-0.050497067	-0.016403202	0.028800971	-0.723632813	-0.304443359	-0.611083984	896.2	-44.94004755	-74.92736221	91.75250902	-70
35653	0	0.376281738	-0.07434082	0.072387695	0.999998093	-0.001368523	-0.000606537	0.000427246	9.407043457	-1.858520508	1.809692383	-0.06842616	-0.030326856	0.021362313	-0.723632813	-0.304443359	-0.608154297	896.2	-45.38514535	-74.94441818	92.05124994	-71
35654	0	0.37959671	-0.078523636	0.071041107	0.999999046	-0.000524521	-0.000669479	0.000323296	9.489917755	-1.963090897	1.776027679	-0.026226047	-0.033473973	0.016164782	-0.726318359	-0.299804688	-0.60546875	896.2	-45.72323417	-74.97434196	92.33791407	-71
35655	0	0.380310059	-0.077392578	0.075256348	0.999999046	-0.000335693	-1.81198E-05	0.000537872	9.507751465	-1.934814453	1.881408691	-0.016784669	-0.000905991	0.026893618	-0.726318359	-0.299804688	-0.60546875	896.16	-45.90453527	-74.93401049	92.48619015	-71
35656	0	0.378945351	-0.078763962	0.07293129	0.999998093	0.000167847	-0.000496864	0.000411034	9.473633766	-1.969099045	1.823282242	0.008392335	-0.024843218	0.020551683	-0.726318359	-0.299804688	-0.60546875	896.16	-46.13687659	-74.94186604	92.74613364	-71
35657	0	0.381408691	-0.076416016	0.070739746	0.999999046	0.000179291	-0.000224113	0.000522614	9.535217285	-1.910400391	1.768493652	0.008964539	-0.011205674	0.026130678	-0.728759766	-0.297607422	-0.605712891	896.16	-46.31705889	-74.91858575	92.95133258	-71
35658	0	0.379528999	-0.0769701	0.072060585	0.999999046	0.000207901	-0.000226974	0.000357628	9.488224983	-1.92425251	1.801514626	0.01039505	-0.011348725	0.017881394	-0.728759766	-0.297607422	-0.605712891	896.24	-46.44597139	-74.90895576	93.10642306	-69
35659	0	0.379394531	-0.077087402	0.071105957	0.999999046	0.000171661	-0.000235558	0.000209808	9.484863281	-1.927185059	1.777648926	0.008583069	-0.011777878	0.010490418	-0.728759766	-0.297607422	-0.605712891	896.2	-46.53840567	-74.91212416	93.21884403	-70
35660	0	0.381775856	-0.076979637	0.071317673	0.999999046	0.000515938	-0.000108719	0.000185966	9.5443964	-1.924490929	1.782941818	0.025796892	-0.005435944	0.009298325	-0.728759766	-0.297607422	-0.608398438	896.16	-46.54529157	-74.90719539	93.27916158	-69
35661	0	0.381225586	-0.074768066	0.070861816	0.999999046	0.000377655	-4.48227E-05	4.19617E-05	9.530639648	-1.86920166	1.77154541	0.018882752	-0.002241135	0.002098084	-0.728759766	-0.297607422	-0.599853516	896.12	-46.50598147	-74.90924221	93.28487222	-69
35662	0	0.38079834	-0.075053215	0.070150375	0.999999046	0.000160217	0.000139236	-0.000100136	9.519958496	-1.876330376	1.753759384	0.008010864	0.006961823	-0.00500679	-0.731201172	-0.297607422	-0.602539063	896.22	-46.39320587	-74.90859917	93.18631901	-69
35663	0	0.380126953	-0.075683594	0.069946289	0.999999046	0.000312805	5.43594E-05	-0.000160217	9.503173828	-1.892089844	1.748657227	0.015640259	0.002717972	-0.008010864	-0.728515625	-0.299804688	-0.60546875	896.16	-46.27145808	-74.91961386	93.09367707	-69
35664	0	0.378312111	-0.075457573	0.070338249	0.999999046	0.000588417	7.62939E-06	-0.000152588	9.457802773	-1.886439323	1.75845623	0.029420854	0.00038147	-0.007629395	-0.728515625	-0.302001953	-0.602539063	896.18	-46.13458984	-74.93363162	93.02298467	-69
35665	0	0.379272461	-0.07421875	0.068908691	0.999999046	0.000537872	0.000218391	-7.62939E-05	9.481811523	-1.85546875	1.722717285	0.026893617	0.010919572	-0.003814697	-0.726074219	-0.302001953	-0.60546875	896.2	-45.96143219	-74.92462122	92.90302019	-69
35666	0	0.379558563	-0.071950912	0.069150925	0.999999046	0.0001297	9.53674E-06	-0.000114441	9.488964081	-1.798772812	1.728773117	0.006484985	0.000476837	-0.005722046	-0.730957031	-0.302001953	-0.602294922	896.2	-45.88750639	-74.93549216	92.843256	-69
35667	0	0.382629395	-0.074584961	0.067749023	0.999999046	-0.000640869	0.00011158	3.8147E-06	9.565734863	-1.864624023	1.693725586	-0.032043459	0.005578995	0.000190735	-0.728515625	-0.302001953	-0.602539063	896.16	-45.90611079	-74.92863471	92.78805001	-69
35668	0	0.377486229	-0.075348854	0.069566727	0.999999046	-3.71933E-05	0.000125885	-0.000148773	9.437155724	-1.883721352	1.739168167	-0.001859665	0.006294251	-0.00743866	-0.728515625	-0.302001953	-0.605224609	896.22	-45.8062109	-74.93316262	92.67849243	-69
35669	0	0.376464844	-0.073425293	0.070739746	0.999999046	-2.28882E-05	-0.000159264	-0.000148773	9.411621094	-1.835632324	1.768493652	-0.001144409	-0.007963181	-0.00743866	-0.726318359	-0.302001953	-0.602539063	896.16	-45.79148738	-74.96044505	92.66054232	-69
35670	0	0.380660057	-0.076550484	0.069759369	0.999999046	-0.000141144	1.90735E-06	2.67029E-05	9.516501427	-1.913762093	1.743984222	-0.00705719	9.53674E-05	0.001335144	-0.728515625	-0.302001953	-0.605224609	896.2	-45.79361537	-74.9604072	92.64404574	-69
35671	0	0.381164551	-0.075866699	0.069580078	0.999999046	-1.52588E-05	0.000180244	0.000144958	9.52911377	-1.89666748	1.739501953	-0.000762939	0.009012222	0.007247925	-0.726318359	-0.302001953	-0.602539063	896.18	-45.76235775	-74.93641381	92.61085622	-69
35672	0	0.379652977	-0.073354721	0.069469452	0.999999046	-0.000115395	8.7738E-05	0.000201225	9.491324425	-1.833868027	1.736736298	-0.00576973	0.004386902	0.010061264	-0.726318359	-0.299804688	-0.602783203	896.22	-45.78755072	-74.91528204	92.62179499	-69
35673	0	0.378234863	-0.073364258	0.071166992	0.999999046	-0.000427246	6.58035E-05	3.8147E-05	9.455871582	-1.834106445	1.779174805	-0.021362305	0.003290176	0.001907349	-0.726318359	-0.299804688	-0.602783203	896.12	-45.80656852	-74.90931663	92.59054097	-69
35674	0	0.378890991	-0.076749802	0.070783615	0.999999046	-0.000314713	-0.000162125	0.000109673	9.47227478	-1.918745041	1.769590378	-0.015735627	-0.008106232	0.005483627	-0.728515625	-0.299804688	-0.60546875	896.16	-45.90365075	-74.91559263	92.65168157	-69
35675	0	0.380126953	-0.076293945	0.070922852	0.999999046	5.72205E-05	-0.00026226	0.000160217	9.503173828	-1.907348633	1.773071289	0.002861023	-0.013113022	0.008010864	-0.726318359	-0.299804688	-0.602783203	896.16	-46.00390431	-74.9256052	92.76200359	-69
35676	0	0.380018234	-0.074455261	0.071463585	0.999999046	-2.95639E-05	-6.86646E-05	0.000171661	9.500455856	-1.861381531	1.786589622	-0.001478195	-0.003433228	0.008583069	-0.726318359	-0.299804688	-0.602783203	896.1	-46.05807461	-74.91922514	92.81445837	-70
35677	0	0.379455566	-0.075317383	0.071472168	0.999999046	-0.000118256	-0.000155449	6.10352E-05	9.48638916	-1.88293457	1.786804199	-0.005912781	-0.007772446	0.003051758	-0.726074219	-0.302001953	-0.60546875	896.2	-46.11624515	-74.92881802	92.85992027	-71
35678	0	0.380200386	-0.075930595	0.070053101	0.999999046	-3.24249E-05	-0.000192642	6.67572E-06	9.505009651	-1.898264885	1.751327515	-0.001621246	-0.009632111	0.000333786	-0.726318359	-0.297607422	-0.602783203	896.16	-46.16019408	-74.94583532	92.89808629	-70
35679	0	0.378967285	-0.075622559	0.069763184	0.999999046	4.95911E-05	-2.95639E-05	-6.48499E-05	9.474182129	-1.890563965	1.74407959	0.002479553	-0.001478195	-0.003242493	-0.726318359	-0.299804688	-0.608398438	896.2	-46.12368832	-74.95580243	92.8582567	-70
35680	0	0.379835129	-0.074467659	0.071028709	0.999999046	6.96182E-05	-0.00019455	7.62939E-06	9.49587822	-1.861691475	1.775717735	0.003480911	-0.009727478	0.00038147	-0.726318359	-0.299804688	-0.60546875	896.22	-46.15684582	-74.9728758	92.89612827	-70
35681	0	0.380065918	-0.075927734	0.071105957	0.999999046	0.000144958	-0.000166893	-0.000190735	9.501647949	-1.898193359	1.777648926	0.007247925	-0.00834465	-0.009536743	-0.726318359	-0.299804688	-0.602783203	896.22	-46.11416851	-75.00408043	92.86679742	-70
35682	0	0.379384995	-0.075030327	0.070511818	0.999999046	0.000230789	3.8147E-05	2.86102E-06	9.484624863	-1.875758171	1.762795448	0.011539459	0.001907349	0.000143051	-0.728515625	-0.299804688	-0.60546875	896.12	-46.05575139	-75.00297159	92.82860567	-70
35683	0	0.379638672	-0.074829102	0.069946289	0.999999046	0.000385284	-0.000117302	-0.000144958	9.490966797	-1.870727539	1.748657227	0.019264222	-0.005865097	-0.007247925	-0.726318359	-0.302001953	-0.599609375	896.2	-45.98359787	-75.02641307	92.80240492	-70
35684	0	0.379797935	-0.073871613	0.070523262	0.999999046	0.000407219	-4.3869E-05	-0.000252724	9.494948387	-1.846790314	1.763081551	0.020360947	-0.002193451	-0.012636185	-0.726074219	-0.302001953	-0.60546875	896.16	-45.85380503	-75.05286493	92.7100273	-69
35685	0	0.379089355	-0.074035645	0.070373535	0.999999046	0.000198364	4.76837E-06	-0.000247955	9.477233887	-1.850891113	1.759338379	0.009918213	0.000238419	-0.012397766	-0.728515625	-0.304199219	-0.602294922	896.12	-45.73398675	-75.07498044	92.61059399	-69
35686	0	0.379185677	-0.073759079	0.070282936	0.999999046	8.7738E-05	-0.000127792	-0.000175476	9.479641914	-1.843976974	1.757073402	0.004386902	-0.006389618	-0.008773804	-0.728515625	-0.302001953	-0.599609375	896.16	-45.68913631	-75.10171669	92.57525138	-69
35687	0	0.380371094	-0.07409668	0.068908691	0.999999046	6.10352E-05	-0.00014782	-5.72205E-05	9.509277344	-1.852416992	1.722717285	0.003051758	-0.007390976	-0.002861023	-0.728515625	-0.304199219	-0.602294922	896.22	-45.68925387	-75.12039434	92.58212175	-69
35688	0	0.379728317	-0.07178688	0.069536209	0.999999046	0.000117302	-0.000246048	-0.000153542	9.493207932	-1.794672012	1.738405228	0.005865097	-0.012302399	-0.007677078	-0.728515625	-0.306396484	-0.599121094	896.22	-45.68403799	-75.15491601	92.59598076	-69
35689	0	0.381286621	-0.073303223	0.069885254	0.999999046	-0.000183105	-0.000243187	-0.000175476	9.532165527	-1.832580566	1.747131348	-0.009155274	-0.012159348	-0.008773804	-0.728515625	-0.304199219	-0.599365234	896.16	-45.70574158	-75.19103041	92.59822262	-70
35690	0	0.379211426	-0.073852539	0.070129395	0.999999046	0.00031662	-0.000335693	-0.000286102	9.480285645	-1.846313477	1.753234863	0.015830994	-0.016784669	-0.014305115	-0.726074219	-0.306396484	-0.602294922	896.24	-45.66535066	-75.24357585	92.59134726	-70
35691	0	0.378504753	-0.072766304	0.07144928	0.999998093	0.00039196	-0.000284195	-0.000226021	9.462618828	-1.8191576	1.786231995	0.019598008	-0.014209748	-0.011301041	-0.726074219	-0.306396484	-0.599365234	896.28	-45.61809858	-75.28699293	92.5880859	-70
35692	0	0.38047123	-0.074234009	0.069487572	0.999999046	0.000638008	-0.000225067	-4.673E-05	9.511780739	-1.85585022	1.737189293	0.031900408	-0.011253358	-0.002336502	-0.728515625	-0.30859375	-0.596191406	896.16	-45.57905035	-75.31093885	92.62848433	-70
35693	0	0.380981445	-0.072265625	0.06817627	0.999999046	0.000701904	-0.000151634	0	9.524536133	-1.806640625	1.704406738	0.035095218	-0.007581711	0	-0.733154297	-0.308349609	-0.595947266	896.22	-45.52414459	-75.32523718	92.66009954	-70
35694	0	0.377949715	-0.068325043	0.068583488	0.999999046	0.000686646	-0.000205994	1.90735E-05	9.448742867	-1.708126068	1.714587212	0.034332278	-0.010299684	0.000953674	-0.728271484	-0.310791016	-0.595947266	896.22	-45.4933211	-75.34248518	92.71345475	-70
35695	0	0.37878418	-0.071228027	0.068664551	0.999999046	0.000675201	-0.000388145	-0.0001297	9.469604492	-1.780700684	1.71661377	0.033760074	-0.019407274	-0.006484986	-0.728271484	-0.310791016	-0.598876953	896.16	-45.47504075	-75.38656415	92.77169917	-70
35696	0	0.380310059	-0.073730469	0.068908691	0.999999046	0.000870705	-0.000499725	-4.95911E-05	9.507751465	-1.843261719	1.722717285	0.04353524	-0.024986271	-0.002479554	-0.728271484	-0.310791016	-0.595947266	896.18	-45.49455778	-75.4330047	92.89252513	-69
35697	0	0.38138485	-0.071601868	0.068682671	0.999998093	0.001196861	-0.000352859	-2.38419E-05	9.534621239	-1.790046692	1.717066765	0.059843079	-0.017642979	-0.001192093	-0.73046875	-0.312744141	-0.595703125	896.16	-45.43870622	-75.46557164	92.97428994	-69
35698	0	0.380447388	-0.069111824	0.068221092	0.999999046	0.000873566	-0.000392914	-3.14713E-05	9.511184692	-1.727795601	1.705527306	0.04367829	-0.019645694	-0.001573563	-0.73046875	-0.314941406	-0.595458984	896.2	-45.42999922	-75.50209597	93.06661518	-69
35699	0	0.380493164	-0.071655273	0.068603516	0.999999046	0.000865936	-0.000365257	0	9.512329102	-1.791381836	1.715087891	0.04329682	-0.018262866	0	-0.73046875	-0.314941406	-0.592773438	896.2	-45.42345583	-75.53381632	93.16077491	-69
35700	0	0.380054474	-0.071109772	0.068692207	0.999999046	0.000855446	-0.000148773	8.67844E-05	9.501361847	-1.777744293	1.717305183	0.042772299	-0.007438661	0.004339219	-0.73046875	-0.314941406	-0.592773438	896.22	-45.37671436	-75.54103386	93.20987237	-69
35701	0	0.38092041	-0.070068359	0.069885254	0.999999046	0.000965118	-0.000109673	0.000144958	9.523010254	-1.751708984	1.747131348	0.048255928	-0.005483628	0.007247926	-0.728271484	-0.315185547	-0.592773438	896.22	-45.3228363	-75.54036085	93.26153527	-69
35702	0	0.382196426	-0.069133759	0.067614555	0.999999046	0.000715256	-0.000143051	9.15527E-05	9.55491066	-1.728343964	1.690363884	0.03576279	-0.007152558	0.004577637	-0.73046875	-0.317138672	-0.589599609	896.22	-45.29131709	-75.54685757	93.31275578	-69
35703	0	0.381164551	-0.069641113	0.068054199	0.999999046	0.000617981	-0.000201225	-3.43323E-05	9.52911377	-1.741027832	1.70135498	0.03089905	-0.010061265	-0.001716614	-0.732666016	-0.319335938	-0.589355469	896.22	-45.24983462	-75.56836958	93.3444144	-69
35704	0	0.380586624	-0.069834709	0.069268227	0.999999046	0.00055027	-1.90735E-05	0.000132561	9.514665604	-1.745867729	1.731705666	0.027513505	-0.000953674	0.006628037	-0.73046875	-0.319335938	-0.589355469	896.26	-45.21057866	-75.56161131	93.36807436	-69
35705	0	0.380615234	-0.070373535	0.067993164	0.999999046	0.000400543	-8.67844E-05	0.000160217	9.515380859	-1.759338379	1.699829102	0.020027161	-0.004339218	0.008010865	-0.73046875	-0.319335938	-0.589355469	896.22	-45.21857386	-75.55810194	93.42185429	-69
35706	0	0.381275177	-0.070625305	0.067616463	0.999999046	0.000329971	-0.000108719	0.0001297	9.531879425	-1.765632629	1.690411568	0.016498566	-0.005435944	0.006484986	-0.732666016	-0.319335938	-0.589355469	896.12	-45.23213869	-75.55888718	93.47322318	-69
35707	0	0.380859375	-0.070007324	0.067138672	0.999999046	2.67029E-05	4.673E-05	0.000175476	9.521484375	-1.750183105	1.678466797	0.001335144	0.002336502	0.008773804	-0.73046875	-0.319335938	-0.589355469	896.22	-45.2457772	-75.54347796	93.4880353	-69
35708	0	0.380279541	-0.068917274	0.067237854	0.999999046	-0.000445366	0.000263214	0.000247002	9.506988525	-1.722931862	1.68094635	-0.022268297	0.013160706	0.012350083	-0.73046875	-0.319335938	-0.592285156	896.12	-45.26748728	-75.50489194	93.45356091	-69
35709	0	0.383361816	-0.076049805	0.068359375	0.999998093	-0.001315117	0.000480652	0.000488281	9.58404541	-1.901245117	1.708984375	-0.065755868	0.024032602	0.024414071	-0.73046875	-0.319335938	-0.592285156	896.22	-45.39619522	-75.4290114	93.43184256	-69
35710	0	0.379624367	-0.071961403	0.068107605	0.999998093	0.001536369	0.000128746	0.0001297	9.490609169	-1.799035072	1.702690125	0.076818497	0.006437304	0.006484988	-0.73046875	-0.317138672	-0.592529297	896.22	-45.19763198	-75.41070114	93.40305002	-69
35711	0	0.379638672	-0.065673828	0.065673828	0.999999046	0.000881195	-1.81198E-05	0.000141144	9.490966797	-1.641845703	1.641845703	0.044059759	-0.000905991	0.007057191	-0.73046875	-0.317138672	-0.592529297	896.18	-45.123399	-75.40362001	93.42328	-69
35712	0	0.381025314	-0.066764832	0.065776825	0.999999046	0.000107765	0.000116348	-4.76837E-06	9.525632858	-1.669120789	1.644420624	0.00538826	0.005817413	-0.000238419	-0.73046875	-0.319335938	-0.589355469	896.16	-45.05045248	-75.39779085	93.36055709	-69
35713	0	0.381713867	-0.072631836	0.065979004	0.999999046	-0.000652313	7.34329E-05	-5.34058E-05	9.54284668	-1.815795898	1.649475098	-0.032615664	0.003671646	-0.002670288	-0.73046875	-0.319335938	-0.589355469	896.22	-45.06356081	-75.39944978	93.29832807	-69
35714	0	0.378354073	-0.071277618	0.068809509	0.999999046	-0.00071907	0.000299454	0.000156403	9.458851814	-1.78194046	1.720237732	-0.035953526	0.014972688	0.00782013	-0.730224609	-0.319335938	-0.595214844	896.18	-45.07925712	-75.3657824	93.22556875	-69
35715	0	0.377807617	-0.070495605	0.071044922	0.999999046	-0.00056076	0.000134468	0.000404358	9.44519043	-1.762390137	1.776123047	-0.028038027	0.006723404	0.020217897	-0.73046875	-0.317138672	-0.595458984	896.22	-45.20436274	-75.32526874	93.28389983	-69
35716	0	0.379928589	-0.071125031	0.069234848	0.999999046	-0.000489235	-0.00019455	0.000113487	9.498214722	-1.778125763	1.730871201	-0.024461747	-0.009727478	0.005674362	-0.73046875	-0.317138672	-0.586669922	896.28	-45.33351853	-75.33495597	93.36754327	-69
35717	0	0.381286621	-0.072753906	0.069641113	0.999999046	-0.000576019	3.52859E-05	0.000244141	9.532165527	-1.818847656	1.741027832	-0.028800966	0.001764298	0.012207032	-0.732666016	-0.317138672	-0.595214844	896.22	-45.44130311	-75.31541196	93.4101494	-69
35718	0	0.380269051	-0.072590828	0.06781292	0.999999046	-0.00063324	0.000175476	0.000240326	9.506726265	-1.814770699	1.69532299	-0.03166199	0.008773804	0.012016297	-0.728271484	-0.315185547	-0.592773438	896.28	-45.510904	-75.28492572	93.40726596	-69
35719	0	0.379943848	-0.072570801	0.070800781	0.999999046	-0.000713348	0.000142097	0.000152588	9.498596191	-1.81427002	1.770019531	-0.035667423	0.007104874	0.007629395	-0.730712891	-0.312744141	-0.592773438	896.22	-45.57296833	-75.26422707	93.38731404	-69
35720	0	0.380755424	-0.072055817	0.070866585	0.999999046	-0.000662804	0.000276566	0.000228882	9.518885612	-1.801395416	1.771664619	-0.033140186	0.013828279	0.011444093	-0.730712891	-0.310546875	-0.595947266	896.22	-45.61036684	-75.2264711	93.34329145	-69
35721	0	0.379943848	-0.071716309	0.070922852	0.999999046	-0.00025177	0.000264168	0.000347137	9.498596191	-1.792907715	1.773071289	-0.012588502	0.01320839	0.017356873	-0.728271484	-0.312988281	-0.593017578	896.16	-45.64007772	-75.18000832	93.34789992	-69
35722	0	0.379675865	-0.069330215	0.069316864	0.999999046	-4.3869E-05	9.34601E-05	0.000148773	9.491896629	-1.733255386	1.7329216	-0.002193451	0.004673004	0.00743866	-0.73046875	-0.312988281	-0.601318359	896.06	-45.6382723	-75.16360228	93.33508976	-69
35723	0	0.379638672	-0.070800781	0.07043457	0.999999046	-0.000423431	-0.000136375	1.52588E-05	9.490966797	-1.770019531	1.760864258	-0.021171571	-0.006818772	0.000762939	-0.73046875	-0.312744141	-0.595703125	896.16	-45.7103175	-75.17658765	93.36160843	-69
35724	0	0.379211426	-0.073059082	0.06854248	0.999999046	-0.000536919	-4.95911E-05	7.24792E-05	9.480285645	-1.826477051	1.713562012	-0.026845933	-0.002479553	0.003623963	-0.728271484	-0.310791016	-0.595947266	896.16	-45.78599014	-75.17794592	93.37553692	-69
35725	0	0.380033493	-0.071866989	0.071024895	0.999998093	-0.00052166	-4.3869E-05	9.15527E-05	9.500837326	-1.796674728	1.775622368	-0.026082994	-0.002193451	0.004577637	-0.730712891	-0.308349609	-0.595947266	896.16	-45.86352784	-75.17725905	93.39240496	-69
35726	0	0.379278183	-0.071451187	0.070110321	0.999999046	-0.000610352	-5.34058E-05	5.72205E-05	9.481954575	-1.786279678	1.752758026	-0.03051758	-0.002670288	0.002861023	-0.730712891	-0.30859375	-0.601806641	896.22	-45.94353042	-75.18017255	93.39530306	-69
35727	0	0.379211426	-0.071472168	0.069763184	0.999999046	-0.000297546	-0.000144005	1.90735E-05	9.480285645	-1.786804199	1.74407959	-0.01487732	-0.007200241	0.000953674	-0.728271484	-0.310791016	-0.598876953	896.16	-46.00416087	-75.19347132	93.42138586	-69
35728	0	0.381364822	-0.070551872	0.069426537	0.999999046	-0.000620842	-0.000150681	0.000156403	9.53412056	-1.763796806	1.735663414	-0.031042101	-0.007534028	0.00782013	-0.728515625	-0.30859375	-0.596191406	896.22	-46.14495223	-75.19605039	93.4941393	-69
35729	0	0.379394531	-0.072753906	0.070373535	0.999999046	-0.000747681	-0.000349998	-0.000171661	9.484863281	-1.818847656	1.759338379	-0.037384038	-0.017499926	-0.00858307	-0.728271484	-0.30859375	-0.601806641	896.18	-46.2640452	-75.24148848	93.52244745	-69
35730	0	0.379103661	-0.074134827	0.071033478	0.999999046	-0.000465393	-0.000335693	-0.000149727	9.477591515	-1.853370667	1.775836945	-0.023269655	-0.016784669	-0.007486344	-0.730712891	-0.308349609	-0.593261719	896.22	-46.35310675	-75.28383005	93.56544522	-69
35731	0	0.379516602	-0.073608398	0.070068359	0.999999046	-0.000389099	-0.000250816	4.95911E-05	9.487915039	-1.840209961	1.751708984	-0.019454957	-0.012540818	0.002479553	-0.730957031	-0.306152344	-0.596191406	896.16	-46.46679733	-75.30281849	93.6364036	-69
35732	0	0.380887032	-0.073273659	0.070002556	0.999999046	-0.000203133	-0.000190735	-9.63211E-05	9.522175789	-1.831841469	1.750063896	-0.010156632	-0.009536743	-0.004816055	-0.730712891	-0.308349609	-0.595947266	896.18	-46.49616575	-75.32910854	93.64523184	-69
35733	0	0.380187988	-0.071411133	0.068115234	0.999999046	-0.00030899	-2.19345E-05	-7.62939E-05	9.504699707	-1.78527832	1.702880859	-0.015449524	-0.001096725	-0.003814697	-0.730957031	-0.306152344	-0.596191406	896.24	-46.48990959	-75.3404698	93.60195791	-69
35734	0	0.379224777	-0.072311401	0.068296432	0.999999046	-0.000814438	0.000116348	9.53674E-05	9.480619431	-1.807785034	1.707410812	-0.040721898	0.005817414	0.004768372	-0.728515625	-0.306396484	-0.596435547	896.16	-46.54927975	-75.32665711	93.56783824	-69
35735	0	0.380004883	-0.075378418	0.069396973	0.999999046	-0.000812531	-0.000144005	-0.000152588	9.50012207	-1.884460449	1.734924316	-0.040626531	-0.007200242	-0.007629395	-0.730957031	-0.304199219	-0.602050781	896.22	-46.61668775	-75.35386568	93.53431728	-69
35736	0	0.379803658	-0.074828148	0.070018768	0.999999046	-0.000554085	-0.000183105	-0.000210762	9.495091438	-1.870703697	1.750469208	-0.027704241	-0.009155274	-0.010538102	-0.730957031	-0.304199219	-0.602050781	896.22	-46.64940077	-75.38886064	93.49618091	-69
35737	0	0.379333496	-0.075256348	0.069213867	0.999999046	-0.000171661	-8.29697E-05	-0.000343323	9.483337402	-1.881408691	1.73034668	-0.008583069	-0.004148483	-0.017166138	-0.730957031	-0.303955078	-0.596435547	896.28	-46.56614583	-75.42686128	93.39025674	-69
35738	0	0.379638672	-0.0727005	0.069673538	0.999999046	0.00018692	-0.000171661	-0.000481606	9.490966797	-1.817512512	1.741838455	0.009346009	-0.008583069	-0.024080278	-0.728271484	-0.306396484	-0.604980469	896.18	-46.42725164	-75.48322142	93.25834047	-69
35739	0	0.379211426	-0.070739746	0.067871094	0.999999046	-5.34058E-05	-0.000235558	-0.000442505	9.480285645	-1.768493652	1.696777344	-0.002670288	-0.011777878	-0.022125245	-0.728515625	-0.306396484	-0.599121094	896.16	-46.34722908	-75.54135934	93.16563285	-69
35740	0	0.378204346	-0.067849159	0.066890717	0.999999046	-0.000811577	-0.0004673	-0.000453949	9.455108643	-1.696228981	1.672267914	-0.040578849	-0.023365025	-0.022697453	-0.730712891	-0.308349609	-0.595947266	896.24	-46.42444273	-75.61889794	93.15365335	-69
35741	0	0.378356934	-0.070129395	0.065856934	0.999998093	-0.001738548	-0.000457764	-0.000488281	9.45892334	-1.753234863	1.64642334	-0.086927464	-0.022888197	-0.024414077	-0.728515625	-0.304199219	-0.596435547	896.22	-46.59474409	-75.69860875	93.12280597	-69
35742	0	0.377083778	-0.071640968	0.066177368	0.999996185	-0.002165794	-0.000788689	-0.000645638	9.42709446	-1.791024208	1.654434204	-0.108289822	-0.039434471	-0.032281906	-0.730957031	-0.303955078	-0.593505859	896.22	-46.87523102	-75.81742355	93.16201822	-69
35743	0	0.374511719	-0.072265625	0.06829834	0.999995232	-0.002658844	-0.001105309	-0.001003265	9.362792969	-1.806640625	1.707458496	-0.132942406	-0.055265512	-0.050163347	-0.728515625	-0.304199219	-0.596435547	896.16	-47.20939521	-75.99070043	93.19551687	-69
35744	0	0.374584198	-0.077093124	0.072734833	0.999991417	-0.002943993	-0.002147675	-0.001471519	9.36460495	-1.92732811	1.818370819	-0.14720001	-0.107384004	-0.073576163	-0.730957031	-0.301757813	-0.596679688	896.3	-47.79196976	-76.28358853	93.4478734	-69
35745	0	0.373046875	-0.078308105	0.075256348	0.999992371	-0.001635551	-0.002567291	-0.002315521	9.326171875	-1.957702637	1.881408691	-0.081777772	-0.128364876	-0.115776344	-0.730957031	-0.299804688	-0.599609375	896.16	-48.1190572	-76.67919848	93.57837349	-68
35746	0	0.374849319	-0.074886322	0.079860687	0.999985695	-0.004470825	-0.002178192	-0.00170517	9.371232986	-1.872158051	1.996517181	-0.22354229	-0.108910109	-0.085258877	-0.733398438	-0.301757813	-0.596435547	896.16	-48.84373573	-76.99163031	93.794386	-68
35747	0	0.375976563	-0.091369629	0.078674316	0.999984741	-0.004645348	-0.00207901	-0.001941681	9.399414063	-2.284240723	1.96685791	-0.232268528	-0.103951015	-0.097084526	-0.733642578	-0.297363281	-0.593994141	896.28	-49.49511855	-77.31494861	93.91433063	-68
35748	0	0.372020721	-0.088969231	0.079716682	0.999991417	0.000609398	-0.00268364	-0.002985954	9.300518036	-2.224230766	1.992917061	0.030469978	-0.134182345	-0.149298125	-0.735839844	-0.299560547	-0.590820313	896.22	-49.44150426	-77.7724666	93.92358459	-69
35749	0	0.365600586	-0.080810547	0.082397461	0.999983788	0.001682281	-0.004157066	-0.003292084	9.140014648	-2.020263672	2.059936523	0.084114509	-0.207854389	-0.164605036	-0.738037109	-0.308105469	-0.590087891	896.12	-49.76915426	-78.36452191	94.44246822	-71
35750	0	0.365365982	-0.087278366	0.083751678	0.99998188	0.0008564	-0.00478363	-0.003307343	9.134149551	-2.181959152	2.093791962	0.042820223	-0.239182896	-0.165368079	-0.742675781	-0.312255859	-0.580810547	896.22	-50.5158375	-79.00085239	95.29153335	-75
35751	0	0.367797852	-0.087890625	0.089599609	0.99998188	0.0013237	-0.00467205	-0.003456116	9.194946289	-2.197265625	2.239990234	0.066185389	-0.233603907	-0.172806809	-0.744873047	-0.321044922	-0.574462891	896.16	-51.18889535	-79.63781342	96.11970117	-79
35752	0	0.369364738	-0.091996193	0.090551376	0.999983788	0.000798225	-0.004594803	-0.003000259	9.234118462	-2.299904823	2.263784409	0.039911475	-0.22974132	-0.150013739	-0.749511719	-0.327392578	-0.562255859	896.22	-52.16432225	-80.22331765	97.20088666	-73
35753	0	0.366760254	-0.087402344	0.085998535	0.999978065	0.004245758	-0.004038811	-0.003013611	9.169006348	-2.185058594	2.149963379	0.212289439	-0.201941998	-0.150681632	-0.751708984	-0.333740234	-0.552978516	896.24	-52.53888827	-80.76633044	98.06822996	-69
35754	0	0.361611366	-0.072658539	0.084503174	0.999983788	0.003326416	-0.003705978	-0.002592087	9.040284157	-1.81646347	2.112579346	0.166321674	-0.185299893	-0.12960502	-0.756103516	-0.342285156	-0.546142578	896.22	-53.08062709	-81.24462785	98.99820608	-74
35755	0	0.356140137	-0.075805664	0.081665039	0.99998951	-0.001010895	-0.003829002	-0.00213623	8.903503418	-1.895141602	2.041625977	-0.050544909	-0.191450765	-0.106811884	-0.758300781	-0.351074219	-0.542480469	896.16	-54.49918696	-81.68434804	100.3192412	-85
35756	0	0.349779129	-0.089375496	0.082102776	0.999985695	-0.002480507	-0.004196167	-0.001807213	8.744478226	-2.234387398	2.052569389	-0.124025904	-0.209809295	-0.090361049	-0.760742188	-0.353027344	-0.533691406	896.22	-56.64115874	-82.10759152	102.2081517	-73
35757	0	0.349304199	-0.094970703	0.083068848	0.999983788	-0.002883911	-0.004817009	-0.000812531	8.73260498	-2.374267578	2.076721191	-0.14419633	-0.24085174	-0.040626744	-0.765380859	-0.352783203	-0.533447266	896.22	-59.95362599	-82.4550295	105.2256728	-72
35758	0	0.353668213	-0.095090866	0.086502075	0.999973297	-0.005928993	-0.004118919	0.000668526	8.841705322	-2.377271652	2.16255188	-0.296452258	-0.205947773	0.033426578	-0.770263672	-0.352783203	-0.524658203	896.24	-63.93609676	-82.58529971	108.5865834	-74
35759	0	0.345214844	-0.091491699	0.104187012	0.999890327	-0.014064789	-0.002848625	0.003494263	8.630371094	-2.28729248	2.604675293	-0.703265011	-0.142436438	0.174719487	-0.775390625	-0.341552734	-0.522460938	896.18	-68.84545068	-82.32281557	111.9681143	-80
35760	0	0.341344833	-0.101549149	0.124980927	0.999465942	-0.030975342	0.000395775	0.010399818	8.533620834	-2.538728714	3.124523163	-1.549042847	0.019792265	0.520083505	-0.783203125	-0.317138672	-0.532470703	896.22	-74.49164296	-81.14845992	114.1993666	-86
35761	0	0.318359375	-0.153747559	0.143981934	0.998542786	-0.04946804	0.00446701	0.021072388	7.958984375	-3.843688965	3.59954834	-2.474603646	0.223459033	1.054131252	-0.790283203	-0.255859375	-0.554443359	896.18	-80.1561946	-78.64650379	114.3722055	-72
35762	0	0.308034897	-0.305169106	0.144788742	0.998707771	-0.035680771	0.011932373	0.034145355	7.700872421	-7.629227638	3.619718552	-1.784806991	0.596875637	1.70800314	-0.793701172	-0.161621094	-0.584716797	896.3	-81.11640171	-74.51484796	111.3487087	-78
35763	0	0.250854492	-0.395263672	0.182128906	0.998905182	-0.002455711	0.019172668	0.04258728	6.271362305	-9.881591797	4.553222656	-0.122830374	0.958983237	2.130141038	-0.785400391	-0.067871094	-0.618652344	896.12	-77.45773578	-69.24249449	107.3637429	-76
35764	0	0.19196701	-0.387680054	0.180269241	0.998173714	0.018528938	0.024951935	0.051796913	4.799175262	-9.692001343	4.506731033	0.927011251	1.248356703	2.591423238	-0.76171875	-0.005371094	-0.650878906	896.22	-72.5002612	-62.68265254	104.4379117	-73
35765	0	0.100891113	-0.40447998	0.165222168	0.99765873	0.01908493	0.028229713	0.059288025	2.522277832	-10.11199951	4.130554199	0.954991802	1.412588063	2.966716486	-0.728027344	0.052490234	-0.694580078	896.34	-68.90595105	-55.09859856	103.0096142	-87
35766	0	0.029383659	-0.40165329	0.108690262	0.996938705	0.038544655	0.02628994	0.062739372	0.734591484	-10.04133224	2.717256546	1.929201718	1.315839963	3.140173527	-0.680419922	0.111816406	-0.745117188	896.28	-64.52758578	-47.18679692	103.2262165	-73
35767	0	-0.062927246	-0.368103027	-0.033691406	0.995529175	0.068757057	0.023200989	0.060451508	-1.573181152	-9.202575684	-0.842285156	3.442984543	1.161781045	3.027087177	-0.626220703	0.125	-0.7890625	896.18	-57.5754867	-39.71030978	104.6771714	-73
35768	0	-0.225075722	-0.190935135	-0.186822891	0.991679192	0.115666389	0.021110535	0.052414894	-5.626893044	-4.773378372	-4.670572281	5.799413007	1.058464001	2.628037583	-0.580566406	0.066162109	-0.846679688	896.4	-45.62229221	-33.36568266	106.8907738	-75
35769	0	0.259521484	0.189575195	-0.360351563	0.997840881	0.048104286	0.025421143	0.036766052	6.488037109	4.739379883	-9.008789063	2.40694622	1.271972372	1.839626309	-0.550292969	-0.079833984	-0.879150391	896.28	-40.73995404	-28.25024457	108.1908386	-76
35770	0	0.590681076	0.285815239	-0.822039604	0.996437073	-0.071795464	0.019310951	0.039797783	14.7670269	7.145380974	-20.5509901	-3.594041549	0.966695633	1.992255196	-0.509033203	-0.046386719	-0.912841797	896.3	-49.78583811	-23.39378936	110.0510071	-75
35771	0	2.567016602	-1.603088379	1.6484375	0.994206429	0.019443512	0.055756569	0.089805603	64.17541504	-40.07720947	41.2109375	0.97405714	2.793223989	4.498970608	-0.590576172	-0.019287109	-0.864990234	895.96	-48.14898862	-11.43148097	112.8871776	-84
35772	0	0.556347847	-0.17283535	-0.182021141	0.971205711	-0.159373283	0.117380142	0.132593155	13.90869617	-4.320883751	-4.550528526	-8.046039295	5.925994726	6.69403122	-0.237792969	0.285888672	-0.989257813	896.24	-66.72116081	8.67836525	109.8097985	-84
35773	0	-0.21270752	-0.825256348	0.378845215	0.999734879	0.006783485	0.001499176	0.021949768	-5.317687988	-20.63140869	9.471130371	0.339204241	0.074965425	1.097585381	-0.033691406	0.483154297	-0.939453125	896.28	-65.80640397	11.00710746	110.5937312	-79
35774	0	-0.172783852	-0.310997009	0.233896255	0.999545097	-0.01930809	-0.0072155	-0.021998405	-4.319596291	-7.774925232	5.847406387	-0.965550796	-0.360829661	-1.100086941	-0.034179688	0.491943359	-0.937255859	896.34	-68.06496009	8.326391385	110.3158802	-82
35775	0	-0.03338623	-0.31036377	0.102661133	0.99963665	-0.009788513	-0.007300377	-0.024013519	-0.834655762	-7.759094238	2.56652832	-0.489484879	-0.365063012	-1.200821245	-0.078369141	0.531005859	-0.912353516	896.22	-69.22079794	5.421256029	110.0745126	-74
35776	0	-0.049953461	-0.274494171	0.095236778	0.999744415	-0.016807556	-2.95639E-05	-0.015102386	-1.248836517	-6.862354279	2.380919456	-0.840449337	-0.001478321	-0.755183596	-0.114257813	0.543212891	-0.902832031	896.18	-71.20053634	3.755956491	109.4820334	-72
35777	0	0.09185791	-0.336181641	0.084777832	0.999984741	-0.001856804	-2.28882E-05	-0.005168915	2.296447754	-8.404541016	2.119445801	-0.092840661	-0.001144415	-0.258447039	-0.125	0.567871094	-0.887207031	896.3	-71.43211924	3.153137997	109.290142	-76
35778	0	-0.004644394	-0.335798264	0.108188629	0.999992371	0.00150013	0.001879692	0.002875328	-0.116109848	-8.394956589	2.704715729	0.075006661	0.093984824	0.14376674	-0.129394531	0.565673828	-0.892333984	896.28	-71.27339683	3.493455274	109.1887539	-81
35779	0	-0.064025879	-0.393493652	0.161132813	0.999986649	0.002675056	0.00195694	0.003955841	-1.600646973	-9.837341309	4.028320313	0.133753417	0.097847419	0.197792931	-0.127197266	0.563476563	-0.889404297	896.18	-70.97710439	3.957042633	109.1215972	-81
35780	0	0.013414383	-0.39652729	0.106917381	0.999987602	5.24521E-05	0.002044678	0.004449844	0.335359573	-9.913182259	2.672934532	0.002622615	0.102234295	0.222493107	-0.119873047	0.558837891	-0.895263672	896.24	-70.9824879	4.476297874	109.0632126	-81
35781	0	0.030395508	-0.410583496	0.132080078	0.999976158	0.006088257	0.000504494	0.003124237	0.759887695	-10.2645874	3.302001953	0.304415231	0.025224884	0.156213079	-0.112792969	0.55859375	-0.895507813	896.18	-70.28726355	4.791694215	109.1241721	-81
35782	0	-0.043320656	-0.394680977	0.138991356	0.999993324	0.001079559	0.000757217	0.003382683	-1.083016396	-9.867024422	3.474783897	0.053978085	0.037860954	0.169134512	-0.107666016	0.551757813	-0.903808594	896.22	-70.16696653	5.145680556	109.1688417	-79
35783	0	-0.046020508	-0.377441406	0.136779785	0.999977112	0.00640583	-0.001087189	0.001483917	-1.150512695	-9.436035156	3.419494629	0.32029389	-0.054359838	0.074196411	-0.100341797	0.547119141	-0.906738281	896.12	-69.42462797	5.223541881	109.337825	-76
35784	0	-0.009534836	-0.355012894	0.145386696	0.999980927	0.005130768	-0.001599312	0.002967834	-0.238370895	-8.875322342	3.634667397	0.256540003	-0.079966094	0.148392656	-0.097412109	0.535888672	-0.911621094	896.24	-68.81648541	5.436956728	109.6227736	-77
35785	0	-0.02734375	-0.380737305	0.121337891	0.999957085	0.006530762	-0.00197506	0.006259918	-0.68359375	-9.518432617	3.033447266	0.326542752	-0.098754387	0.313000383	-0.096923828	0.527099609	-0.913818359	896.16	-68.02912468	5.982197086	110.0918601	-81
35786	0	-0.025198936	-0.369094849	0.142682076	0.999793053	0.013954163	-0.007226944	0.012895584	-0.629973412	-9.227371216	3.567051888	0.697756193	-0.361372091	0.644823622	-0.091552734	0.513916016	-0.921630859	896.28	-66.28713671	6.984328769	111.4285977	-76
35787	0	-0.054992676	-0.341491699	0.167236328	0.999835014	0.009365082	-0.008406639	0.013095856	-1.374816895	-8.53729248	4.180908203	0.468279838	-0.420355068	0.654828791	-0.092773438	0.491943359	-0.934082031	896.16	-65.02728204	7.91791886	112.9265188	-77
35788	0	-0.084899902	-0.376189232	0.088638306	0.999788284	0.019071579	-0.006449699	0.004247665	-2.122497559	-9.404730797	2.215957642	0.953646247	-0.322507729	0.212398259	-0.094482422	0.478759766	-0.94140625	896.28	-62.73263757	7.995671141	113.8022313	-74
35789	0	-0.068786621	-0.396789551	0.11907959	0.999145508	0.038193703	-0.007480621	-0.013870239	-1.719665527	-9.91973877	2.976989746	1.910228891	-0.374137567	-0.693709431	-0.103759766	0.430664063	-0.959960938	896.16	-58.37610195	6.157984159	113.7531061	-73
35790	0	-0.001049042	-0.427975655	0.120043755	0.997857094	0.062837601	-0.011108398	-0.014435768	-0.026226044	-10.69939137	3.001093864	3.144125756	-0.555816919	-0.722304319	-0.134521484	0.339355469	-0.996337891	896.28	-51.18473271	4.039382469	113.830336	-72
35791	0	0.211975098	-0.320373535	0.201965332	0.998071671	0.055699348	0.002819061	-0.027248383	5.299377441	-8.009338379	5.049133301	2.786758869	0.141043733	-1.363295512	-0.165283203	0.1953125	-1.031494141	896.22	-44.94013657	1.888231318	111.49883	-81
35792	0	0.137875557	-0.284781456	0.27512455	0.999476433	0.015864372	0.002889633	-0.028043747	3.446888924	-7.1195364	6.878113747	0.793357026	0.14450687	-1.402432023	-0.160888672	0.098632813	-1.052490234	896.24	-43.18068592	-0.159788239	108.9425832	-79
35793	0	0.183898926	-0.34161377	0.264831543	0.999943733	0.001140594	-0.004908562	-0.009254456	4.597473145	-8.540344238	6.620788574	0.05703078	-0.245432628	-0.462731342	-0.1640625	0.065917969	-1.052490234	896.22	-43.06723604	-1.354214632	108.5254047	-71
35794	0	0.218798637	-0.369948387	0.235134125	0.999627113	0.013902664	-0.017539978	-0.015617371	5.469965935	-9.248709679	5.878353119	0.695219532	-0.877107808	-0.780965499	-0.182617188	0.055664063	-1.044921875	896.34	-41.5019384	-4.113500562	108.5120664	-74
35795	0	0.304992676	-0.278808594	0.2265625	0.999635696	0.006173134	-0.025222778	-0.007328033	7.624816895	-6.970214844	5.6640625	0.308694155	-1.261291984	-0.366446143	-0.223632813	0.024169922	-1.037109375	896.28	-40.94710539	-6.921122218	109.7299973	-79
35796	0	0.135620117	-0.200561523	0.300476074	0.999648094	0.001839638	-0.026126862	-0.004146576	3.39050293	-5.014038086	7.511901855	0.091992671	-1.306496229	-0.207353103	-0.277099609	0.006347656	-1.024169922	896.3	-40.99722113	-9.575382831	111.2822083	-73
35797	0	0.072618484	-0.29350853	0.394497871	0.99946785	0.001084328	-0.031581879	-0.007913589	1.815462112	-7.337713242	9.862446785	0.054225979	-1.57937336	-0.395749491	-0.331054688	0.001708984	-1.003662109	896.22	-41.23915317	-12.97732547	112.9286855	-71
35798	0	0.157176971	-0.192777634	0.27238369	0.999284744	-0.0028162	-0.035805702	-0.01177597	3.929424286	-4.819440842	6.809592247	-0.140843562	-1.790711667	-0.588938811	-0.396972656	-0.006835938	-0.9765625	896.16	-42.05010713	-17.02100594	114.6137606	-73
35799	0	0.18951416	-0.261230469	0.362609863	0.999305725	-0.004309654	-0.032745361	-0.017189026	4.737854004	-6.530761719	9.065246582	-0.21553253	-1.637646592	-0.859649993	-0.460693359	-0.013183594	-0.938232422	896.22	-42.94546975	-21.19900481	115.6739196	-69
35800	0	0.352345467	-0.236512184	0.465328217	0.999376297	-0.010631561	-0.025547981	-0.021932602	8.808636665	-5.912804604	11.63320541	-0.531688585	-1.277664649	-1.096858098	-0.521484375	-0.026367188	-0.908203125	896.22	-44.26774139	-25.13797735	115.8239039	-69
35801	0	0.527893066	-0.108032227	0.442321777	0.999409676	-0.034172058	0.003239632	0.001152039	13.19732666	-2.700805664	11.05804443	-1.708938981	0.162013444	0.057613259	-0.55078125	-0.016357422	-0.878662109	896.16	-48.10599191	-24.88474337	115.6460274	-75
35802	0	0.437440872	-0.105732918	0.360384941	0.99786377	-0.051056862	0.037051201	-0.016935349	10.9360218	-2.643322945	9.009623528	-2.55466183	1.853879873	-0.847370693	-0.528076172	0.059570313	-0.886230469	896.28	-51.91628929	-23.75214127	110.8332935	-69
35803	0	0.329772949	-0.176452637	0.370544434	0.998328209	-0.018920898	0.043694496	-0.03276062	8.24432373	-4.411315918	9.26361084	-0.946572421	2.185942974	-1.638944344	-0.447753906	0.117919922	-0.924072266	896.24	-51.30031257	-23.69814933	104.079097	-73
35804	0	0.294372559	-0.329101563	0.354248047	0.998262405	0.028129578	0.023655891	-0.046039581	7.359313965	-8.227539063	8.856201172	1.40729369	1.183479793	-2.303312658	-0.383056641	0.100341797	-0.951904297	896.28	-45.45947596	-25.95478825	97.92209973	-73
35805	0	0.396911621	-0.507568359	0.394470215	0.996948242	0.049847603	0.003112793	-0.059986115	9.922790527	-12.68920898	9.861755371	2.494918039	0.15579813	-3.002359805	-0.34765625	-0.012695313	-0.958740234	896.16	-36.77440095	-30.31851463	91.57059651	-73
35806	0	0.451171875	-0.666731834	0.311439514	0.995981216	0.062083244	-0.02927494	-0.057490349	11.27929688	-16.66829586	7.785987854	3.108324664	-1.465709799	-2.878371953	-0.344482422	-0.153076172	-0.941650391	896.22	-27.05001929	-36.75650732	86.55961871	-85
35807	0	0.302429199	-0.565063477	0.173278809	0.993220329	0.075012207	-0.069045067	-0.055835724	7.56072998	-14.12658691	4.331970215	3.759108298	-3.460075286	-2.798111684	-0.383300781	-0.317871094	-0.871582031	896.22	-15.61587502	-46.56393584	81.7641097	-73
35808	0	0.139966965	-0.398179054	0.040705681	0.993340492	0.044260979	-0.088188171	-0.059472084	3.499174118	-9.954476357	1.017642021	2.217974086	-4.419221728	-2.980221972	-0.465332031	-0.482910156	-0.7421875	896.3	-3.998047701	-57.81366958	73.03026244	-73
35809	0	-0.034240723	-0.355041504	0.034729004	0.995886803	-0.026912689	-0.063681602	-0.058547974	-0.856018066	-8.876037598	0.868225098	-1.347482009	-3.188451848	-2.931417984	-0.519775391	-0.572265625	-0.625976563	896.22	5.553457976	-65.15664836	58.60091983	-71
35810	0	-0.158118248	-0.267002106	0.03998661	0.996935844	-0.0625	-0.024271011	-0.040273666	-3.9529562	-6.675052643	0.99966526	-3.128194897	-1.214791262	-2.015742042	-0.520019531	-0.574462891	-0.6171875	896.22	9.712067401	-67.37822394	46.42373173	-69
35811	0	-0.181762695	-0.150024414	0.046447754	0.997060776	-0.072985649	-0.001773834	-0.023193359	-4.544067383	-3.750610352	1.161193848	-3.652860901	-0.088778682	-1.160805126	-0.504638672	-0.524902344	-0.676513672	896.3	7.765040235	-67.23068823	39.74247451	-64
35812	0	-0.085458755	-0.107834816	0.07863903	0.994105339	-0.104815483	0.003046036	-0.027523041	-2.136468887	-2.695870399	1.965975761	-5.251094707	0.152601713	-1.378862067	-0.486083984	-0.4296875	-0.756835938	896.28	3.096196564	-66.63125926	32.12939979	-61
35813	0	0.215942383	-0.338500977	0.250305176	0.992509842	-0.116480827	0.001857758	-0.036773682	5.39855957	-8.462524414	6.257629395	-5.838625405	0.09312048	-1.843288349	-0.453125	-0.286865234	-0.836181641	896.12	-0.55753692	-66.36277827	21.89586186	-70
35814	0	0.593690872	-0.591531754	0.476139069	0.997002602	-0.076751709	-0.002923965	-0.009226799	14.8422718	-14.78829384	11.90347672	-3.841423471	-0.146344488	-0.461801343	-0.435546875	-0.129882813	-0.878662109	896.22	-7.001507528	-66.79379343	19.50715023	-66
35815	0	0.54486084	-0.449279785	0.543945313	0.998867989	-0.015266418	-0.020888329	0.039901733	13.621521	-11.23199463	13.59863281	-0.763608929	-1.044810493	1.995839429	-0.447021484	-0.024169922	-0.883789063	896.22	-20.91562203	-68.02822313	32.66275504	-72
35816	0	0.505286217	-0.243290901	0.462190628	0.996640205	0.038226128	-0.03291893	0.06452179	12.63215542	-6.08227253	11.5547657	1.913449683	-1.647792235	3.229707152	-0.491943359	0.027832031	-0.856933594	896.18	-37.1606222	-67.71323022	54.7316921	-74
35817	0	0.391296387	-0.010009766	0.29473877	0.995876312	0.056210518	-0.022647858	0.067501068	9.782409668	-0.250244141	7.368469238	2.814394847	-1.133951729	3.379699484	-0.546142578	0.019042969	-0.824707031	896.22	-47.61132029	-64.3426331	73.05634634	-75
35818	0	0.324684143	0.038341522	0.179986954	0.997291565	0.047335625	-0.000580788	0.056274414	8.117103577	0.958538055	4.499673843	2.368919626	-0.02906562	2.816262905	-0.57421875	0.011230469	-0.813964844	896.1	-50.2191282	-59.48239437	82.06851006	-77
35819	0	0.348937988	0.062072754	0.055236816	0.998666763	0.030415535	0.023189545	0.034641266	8.723449707	1.551818848	1.38092041	1.521452499	1.159992442	1.732832928	-0.564208984	0.004394531	-0.822509766	896.12	-47.64439329	-54.72606141	83.12995858	-86
35820	0	0.363586426	0.01965332	0.00579834	0.998940468	0.00584507	0.043968201	0.012203217	9.089660645	0.491333008	0.144958496	0.292356675	2.199186184	0.610376245	-0.516601563	-0.001953125	-0.850341797	896.24	-43.54071271	-50.19186298	78.85059399	-81
35821	0	0.310302734	-0.007263184	0.01574707	0.998502731	-0.016501427	0.051795959	-0.006015778	7.757568359	-0.18157959	0.393676758	-0.82548323	2.591090862	-0.30093904	-0.434082031	0.008056641	-0.904296875	896.12	-40.39479207	-46.2355988	72.16700808	-70
35822	0	0.243993759	-0.034769058	0.032391548	0.998287201	-0.036013603	0.042124748	-0.018726349	6.099843979	-0.869226456	0.809788704	-1.801708778	2.107440575	-0.936852304	-0.341064453	0.044189453	-0.946533203	896.18	-39.7424848	-43.92805161	65.47081964	-69
35823	0	0.186523438	-0.066345215	0.065490723	0.998360634	-0.044597626	0.017659187	-0.031227112	4.663085938	-1.658630371	1.637268066	-2.231100573	0.883442163	-1.562209331	-0.275146484	0.103271484	-0.960693359	896.16	-40.89634128	-44.71359531	59.81488083	-72
35824	0	0.142813683	-0.078798294	0.111694336	0.998229027	-0.041449547	-0.013776779	-0.040370941	3.570342064	-1.969957352	2.792358398	-2.07370125	-0.689245755	-2.019739118	-0.264160156	0.168701172	-0.946777344	896.22	-43.08917349	-48.99672052	56.25785772	-74
35825	0	0.194458008	-0.129394531	0.145446777	0.998084068	-0.021179199	-0.036604881	-0.045154572	4.861450195	-3.234863281	3.636169434	-1.05963664	-1.831413596	-2.259171272	-0.320068359	0.208007813	-0.924072266	896.16	-44.41262104	-55.619348	54.75917343	-74
35826	0	0.302185059	-0.211486816	0.167602539	0.99792099	0.008282661	-0.042185783	-0.04800415	7.554626465	-5.28717041	4.190063477	0.414420233	-2.110751758	-2.401871832	-0.404785156	0.19140625	-0.880859375	896.12	-42.28701001	-62.9233723	53.25653456	-67
35827	0	0.369113922	-0.202190399	0.149147987	0.997662544	0.022294998	-0.038468361	-0.051859856	9.227848053	-5.054759979	3.728699684	1.115618698	-1.924917078	-2.595013654	-0.491210938	0.117919922	-0.850097656	896.16	-35.3997918	-70.09830205	48.41151282	-66
35828	0	0.434788704	-0.151927948	0.153594971	0.998058319	0.016559601	-0.0324049	-0.050546646	10.8697176	-3.7981987	3.839874268	0.828516303	-1.621294372	-2.528969195	-0.558105469	0.021728516	-0.812744141	896.16	-22.66173911	-76.18758734	37.00886919	-67
35829	0	0.495117188	-0.159179688	0.151489258	0.998773575	0.008538246	-0.023403168	-0.042770386	12.37792969	-3.979492188	3.787231445	0.427086817	-1.170636712	-2.13939345	-0.604736328	-0.059814453	-0.775146484	896.18	-1.570035574	-79.89162937	16.41001306	-72
35830	0	0.581447601	-0.154857635	0.084085464	0.999485016	0.007651329	-0.007990837	-0.030064583	14.53619003	-3.871440887	2.102136612	0.382631919	-0.399610226	-1.503486381	-0.628173828	-0.124511719	-0.748535156	896.3	19.65463105	-80.25463078	-4.269810749	-72
35831	0	0.518432617	-0.071228027	0.086669922	0.999932289	-0.004871368	0.009457588	-0.004695892	12.96081543	-1.780700684	2.166748047	-0.24357391	0.472890068	-0.234799909	-0.624267578	-0.166259766	-0.742431641	896.18	19.80547691	-79.04990494	-4.960084062	-72
35832	0	0.345528603	-0.05413723	0.142798424	0.999453545	-0.01721859	0.011283875	0.025842667	8.638215065	-1.353430748	3.569960594	-0.861086205	0.564296426	1.29236854	-0.608398438	-0.145019531	-0.762207031	896.22	1.943407728	-78.32437579	11.30777193	-71
35833	0	0.313415527	-0.061340332	0.117553711	0.998849869	-0.023344994	0.008289337	0.041042328	7.835388184	-1.533508301	2.938842773	-1.167697233	0.414625775	2.052903228	-0.596923828	-0.077636719	-0.776855469	896.28	-21.03971412	-76.5648114	32.18143447	-69
35834	0	0.406143188	-0.095000267	0.053557396	0.998683929	-0.0334692	0.010113716	0.037511826	10.15357971	-2.375006676	1.338934898	-1.674194301	0.505907695	1.876414265	-0.586425781	0.016357422	-0.793701172	896.1	-36.89859065	-73.43426766	44.69852801	-68
35835	0	0.401855469	-0.132019043	0.064147949	0.999300957	-0.025520325	0.012803078	0.024116516	10.04638672	-3.300476074	1.60369873	-1.276313481	0.640303008	1.206106701	-0.562255859	0.111816406	-0.794433594	896.22	-43.44983057	-70.51135499	48.55355062	-66
35836	0	0.334928513	-0.144612312	0.097618103	0.999847412	0.001430511	0.005959511	0.016324997	8.373212814	-3.615307808	2.440452576	0.071529199	0.297990643	0.816291219	-0.536376953	0.16796875	-0.808837891	896.24	-45.62383527	-68.69223257	51.03718062	-66
35837	0	0.328613281	-0.093139648	0.097595215	0.999538422	0.026803017	-0.003162384	0.013938904	8.215332031	-2.328491211	2.439880371	1.340357011	-0.158143528	0.697052413	-0.529052734	0.167724609	-0.814941406	896.22	-46.0232782	-67.77820316	54.72979222	-67
35838	0	0.362719536	-0.086496353	0.088739395	0.999546051	0.027342796	-0.00603199	0.011037827	9.067988396	-2.162408829	2.218484879	1.367346304	-0.301645055	0.551974682	-0.532226563	0.134765625	-0.820800781	896.24	-46.2430603	-67.32525313	58.31387841	-69
35839	0	0.36151123	-0.089111328	0.089782715	0.999550819	0.028530121	-0.004290581	0.008014679	9.037780762	-2.227783203	2.244567871	1.426719299	-0.214561109	0.400793856	-0.540527344	0.104492188	-0.820556641	896.3	-45.35038998	-66.99058188	60.84434416	-73
35840	0	0.348115921	-0.046392441	0.112476349	0.999648094	0.025069237	-0.003614426	0.007763863	8.702898026	-1.15981102	2.811908722	1.253608499	-0.180742428	0.388238551	-0.545654297	0.062988281	-0.816894531	896.22	-44.64051102	-66.63698439	63.16326983	-79
35841	0	0.370361328	-0.037109375	0.135131836	0.999959946	0.005349159	-0.004051208	0.005874634	9.259033203	-0.927734375	3.378295898	0.267461508	-0.20256311	0.293735583	-0.551757813	0.0390625	-0.817382813	896.22	-45.87990233	-66.47025199	65.17352138	-74
35842	0	0.388643265	-0.076401711	0.118804932	0.99996376	-0.007838249	-0.002127647	0.001545906	9.716081619	-1.910042763	2.970123291	-0.391916925	-0.106383582	0.077296184	-0.556884766	0.043701172	-0.811767578	896.24	-47.45912881	-66.49545677	65.92097853	-83
35843	0	0.378845215	-0.087158203	0.119262695	0.999984741	-0.004900932	-0.000225067	-0.002258301	9.471130371	-2.178955078	2.981567383	-0.245047807	-0.011253412	-0.112915588	-0.559814453	0.059082031	-0.812988281	896.22	-47.65116528	-66.69204746	65.51322729	-82
35844	0	0.336364746	-0.085327148	0.103393555	0.999986649	-0.004055023	0.001431465	-0.002773285	8.409118652	-2.133178711	2.584838867	-0.202752044	0.07157357	-0.138664851	-0.559814453	0.061279297	-0.813232422	896.22	-47.32223383	-66.80468654	64.6475453	-70
35845	0	0.330450058	-0.090344429	0.077634811	0.999991417	-0.002408981	0.001542091	-0.002774239	8.26125145	-2.258610725	1.940870285	-0.120449385	0.077104773	-0.138712296	-0.557617188	0.065673828	-0.810791016	896.24	-46.77727887	-66.90760759	63.74981965	-77
35846	0	0.354675293	-0.109792709	0.073858261	0.999967575	-0.0011549	-0.001275063	-0.007759094	8.866882324	-2.744817734	1.846456528	-0.057745588	-0.063753799	-0.387958796	-0.555419922	0.065429688	-0.810791016	896.18	-45.68398416	-67.64266212	62.40618122	-74
35847	0	0.396057129	-0.102966309	0.115600586	0.999892235	-0.006206512	-0.007849693	-0.010734558	9.901428223	-2.574157715	2.890014648	-0.310336763	-0.392498754	-0.536747173	-0.561767578	0.052490234	-0.809570313	896.16	-45.84495419	-69.14414726	61.80746518	-71
35848	0	0.385552406	-0.126803398	0.101433754	0.999880791	-0.007018089	-0.008869171	-0.010450363	9.638810158	-3.170084953	2.535843849	-0.350918334	-0.443476085	-0.522538811	-0.576171875	0.055419922	-0.800292969	896.22	-46.37188693	-70.70406444	61.50071413	-70
35849	0	0.38885498	-0.133544922	0.094482422	0.999951363	-0.000705719	-0.007330894	-0.006538391	9.721374512	-3.338623047	2.362060547	-0.03528652	-0.366550649	-0.326924841	-0.592529297	0.047119141	-0.787353516	896.12	-46.7243594	-71.817137	61.78057989	-70
35850	0	0.395889282	-0.134456635	0.100714684	0.999962807	0.006877899	-0.003818512	-0.00331974	9.897232056	-3.361415863	2.517867088	0.343899137	-0.190927918	-0.165989032	-0.601806641	0.041015625	-0.777832031	896.06	-46.1001186	-72.38424829	61.93849722	-70
35851	0	0.376586914	-0.113647461	0.087036133	0.999918938	0.012569427	0.000458717	-0.001922607	9.414672852	-2.841186523	2.17590332	0.628488334	0.022936486	-0.096132965	-0.605712891	0.023681641	-0.779052734	896.16	-44.04709788	-72.4920822	61.27807446	-71
35852	0	0.372583389	-0.092933655	0.105571747	0.999891281	0.014730453	7.15256E-05	-0.000208855	9.314584732	-2.32334137	2.639293671	0.736549319	0.003576408	-0.010443112	-0.607177734	0.001708984	-0.780029297	896.22	-42.28072365	-72.49047007	61.17766042	-71
35853	0	0.369567871	-0.076477051	0.098266602	0.999980927	0.006108284	0.000148773	0.000511169	9.239196777	-1.91192627	2.456665039	0.305416114	0.007438706	0.025558632	-0.608398438	-0.020263672	-0.783691406	896.18	-41.67509298	-72.42650098	61.27330418	-72
35854	0	0.377253532	-0.094602585	0.097341537	0.999998093	0.001408577	0.000529289	0.000637054	9.43133831	-2.365064621	2.433538437	0.07042888	0.026464474	0.031852736	-0.605957031	-0.024658203	-0.780761719	896.16	-41.55180681	-72.32012374	61.31420256	-73
35855	0	0.380187988	-0.090148926	0.089111328	0.999985695	0.004348755	0.002438545	0.001464844	9.504699707	-2.253723145	2.227783203	0.217438723	0.12192781	0.073242517	-0.603759766	-0.024658203	-0.778076172	896.3	-40.86796314	-71.98685429	61.11671561	-74
35856	0	0.374023438	-0.079956055	0.094116211	0.999975204	0.005126953	0.00249958	0.003902435	9.350585938	-1.998901367	2.352905273	0.256349697	0.124980014	0.195123318	-0.603271484	-0.03125	-0.783203125	896.22	-40.73229397	-71.46560722	61.5941948	-76
35857	0	0.364562988	-0.076171875	0.089599609	0.999975204	0.004311562	0.001934052	0.005065918	9.114074707	-1.904296875	2.239990234	0.215579804	0.096703349	0.253297925	-0.596191406	-0.031494141	-0.783447266	896.12	-41.09248352	-70.90627477	62.49700758	-79
35858	0	0.358330727	-0.078162193	0.08578968	0.999985695	0.002859116	0.00129509	0.004135132	8.958268166	-1.954054832	2.144742012	0.142956422	0.064754777	0.206757521	-0.593994141	-0.031738281	-0.786621094	896.18	-41.49368115	-70.47115713	63.26966335	-82
35859	0	0.363098145	-0.081970215	0.084777832	0.999995232	0.002094269	0.001072884	0.001522064	9.077453613	-2.049255371	2.119445801	0.104713577	0.053644251	0.07610331	-0.593994141	-0.031738281	-0.786621094	896.24	-41.38464876	-70.25352318	63.40839642	-87
35860	0	0.368390083	-0.086336136	0.085744858	0.999996185	0.002098083	2.95639E-05	-0.000546455	9.209752083	-2.158403397	2.143621445	0.104904257	0.001478196	-0.027322791	-0.59375	-0.036132813	-0.7890625	896.28	-40.99999192	-70.28299833	63.25429805	-86
35861	0	0.377380371	-0.08380127	0.088500977	0.999992371	0.003647804	-0.000965118	-0.00082016	9.434509277	-2.095031738	2.212524414	0.182390666	-0.04825604	-0.041008098	-0.591064453	-0.038330078	-0.791748047	896.22	-40.57859092	-70.41980401	63.24123532	-87
35862	0	0.37541008	-0.075180054	0.085094452	0.999999046	0.000312805	-0.000282288	0.00019455	9.385251999	-1.879501343	2.127361298	0.015640259	-0.01411438	0.009727478	-0.595458984	-0.046875	-0.788085938	896.24	-40.64295813	-70.42276308	63.35123615	-87
35863	0	0.378479004	-0.086914063	0.094726563	0.999996185	-0.001795769	-0.000858307	0.001457214	9.461975098	-2.172851563	2.368164063	-0.089788528	-0.042915388	0.072860792	-0.593261719	-0.044921875	-0.788330078	896.18	-41.37743864	-70.38090207	63.91730665	-87
35864	0	0.376200676	-0.082665443	0.09158802	0.999998093	-0.000543594	-0.000927925	0.000993729	9.405016899	-2.066636086	2.289700508	-0.027179728	-0.046396272	0.04968645	-0.595947266	-0.038085938	-0.785888672	896.18	-41.86975989	-70.37904127	64.37386094	-85
35865	0	0.368835449	-0.086303711	0.101074219	0.999999046	3.8147E-06	-0.001299858	7.62939E-06	9.22088623	-2.157592773	2.526855469	0.000190735	-0.064992923	0.00038147	-0.598388672	-0.038085938	-0.782958984	896.16	-42.14362694	-70.48361792	64.6658713	-79
35866	0	0.366538048	-0.08856678	0.10274601	0.99998951	0.00343132	-0.002174377	-0.001304626	9.163451195	-2.214169502	2.568650246	0.17156653	-0.108719202	-0.065231521	-0.598144531	-0.040283203	-0.785644531	896.24	-41.89971268	-70.76319904	64.81565324	-82
35867	0	0.368469238	-0.084472656	0.102783203	0.999978065	0.00573349	-0.00190258	-0.002567291	9.211730957	-2.111816406	2.569580078	0.286676558	-0.095129696	-0.128365485	-0.602539063	-0.048828125	-0.787597656	896.18	-41.01149932	-71.11569338	64.55721899	-81
35868	0	0.372924805	-0.08215332	0.104675293	0.999975204	0.005996704	-0.001727104	-0.003047943	9.323120117	-2.053833008	2.616882324	0.299837615	-0.086355904	-0.152398381	-0.604492188	-0.062011719	-0.777832031	896.18	-39.90612202	-71.48709939	64.10546826	-79
35869	0	0.376403809	-0.080627441	0.099914551	0.999982834	0.00496769	-0.000854492	-0.002944946	9.410095215	-2.015686035	2.49786377	0.248385887	-0.042724852	-0.147248151	-0.608642578	-0.074951172	-0.782226563	896.16	-38.72414415	-71.77082467	63.45036558	-79
35870	0	0.376153946	-0.082737923	0.099437714	0.999990463	0.003733635	-0.000418663	-0.001989365	9.403848648	-2.068448067	2.485942841	0.18668231	-0.020933214	-0.099468531	-0.605957031	-0.083740234	-0.770019531	896.22	-37.82751502	-71.94369499	62.95260839	-79
35871	0	0.371643066	-0.085693359	0.098022461	0.999987602	0.004684448	-0.000803947	-0.001338959	9.29107666	-2.142333984	2.450561523	0.234223364	-0.040197536	-0.066948209	-0.610351563	-0.092529297	-0.774902344	896.18	-37.07542665	-72.10381612	62.71978949	-79
35872	0	0.370610237	-0.080882072	0.095019341	0.999987602	0.004487038	-0.000400543	-0.001179695	9.265255928	-2.022051811	2.375483513	0.224352694	-0.020027233	-0.05898497	-0.607421875	-0.101318359	-0.777099609	896.22	-36.2978016	-72.21495712	62.43414399	-78
35873	0	0.370910645	-0.078857422	0.093688965	0.999997139	0.002086639	0.000267982	-0.000946045	9.272766113	-1.971435547	2.342224121	0.104332063	0.013399136	-0.047302288	-0.609619141	-0.109863281	-0.770751953	896.1	-35.71792393	-72.2474229	62.07700562	-78
35874	0	0.372606277	-0.082777023	0.091427803	0.999999046	-0.000143051	0.000562668	-0.00041008	9.315156937	-2.069425583	2.285695076	-0.007152558	0.028133395	-0.020504	-0.609619141	-0.112060547	-0.770507813	896.24	-35.48916582	-72.21596302	61.82339565	-79
35875	0	0.372375488	-0.086608887	0.091552734	0.999999046	0.00062561	0.000138283	0.00063324	9.309387207	-2.165222168	2.288818359	0.031280522	0.00691414	0.031661992	-0.607177734	-0.112304688	-0.7734375	896.22	-35.56622245	-72.15445561	61.98086752	-79
35876	0	0.374444008	-0.08135128	0.093893051	0.999996185	0.002012253	-0.000401497	0.001605988	9.361100197	-2.033782005	2.347326279	0.100612754	-0.020074867	0.080299468	-0.607177734	-0.114501953	-0.770507813	896.18	-35.87680542	-72.07797715	62.55264758	-81
35877	0	0.375244141	-0.07598877	0.094482422	0.999996185	0.001458168	7.24792E-05	0.00220871	9.381103516	-1.899719238	2.362060547	0.072908487	0.003623967	0.110435615	-0.609375	-0.112304688	-0.7734375	896.22	-36.31908267	-71.91598194	63.19322995	-88
35878	0	0.374779701	-0.074791908	0.099146843	0.999994278	0.000819206	-2.86102E-06	0.002754211	9.369492531	-1.869797707	2.478671074	0.040960368	-0.000143051	0.137710761	-0.609375	-0.112304688	-0.7734375	896.22	-36.99141458	-71.72179666	64.00199312	-85
35879	0	0.373474121	-0.071899414	0.098937988	0.999996185	0.000607491	-0.000133514	0.00245285	9.336853027	-1.797485352	2.473449707	0.030374559	-0.006675727	0.122642648	-0.607177734	-0.112304688	-0.767822266	896.18	-37.61701914	-71.55788395	64.7412277	-88
35880	0	0.37021637	-0.073045731	0.100147247	0.999998093	6.10352E-05	0.0004282	0.001746178	9.255409241	-1.826143265	2.503681183	0.003051759	0.02141	0.087308931	-0.609863281	-0.10546875	-0.770996094	896.1	-37.98454288	-71.39093639	65.13646912	-91
35881	0	0.373474121	-0.073242188	0.09967041	0.999999046	0.000431061	0.00024128	0.00087738	9.336853027	-1.831054688	2.491760254	0.021553043	0.012063982	0.043869026	-0.612304688	-0.10546875	-0.768066406	896.24	-38.11060983	-71.30199017	65.32539911	-92
35882	0	0.375499725	-0.070948601	0.097653389	0.999999046	-0.000102997	0.000434875	0.000437737	9.387493134	-1.773715019	2.441334724	-0.005149842	0.021743776	0.021886827	-0.609619141	-0.107910156	-0.773681641	896.24	-38.13833146	-71.22712529	65.34653353	-92
35883	0	0.374633789	-0.068054199	0.100158691	0.999998093	-0.00159359	0.000751495	-3.8147E-06	9.365844727	-1.70135498	2.503967285	-0.07967953	0.037574788	-0.000190735	-0.607421875	-0.107910156	-0.770996094	896.28	-38.15244777	-71.15549064	65.17794938	-91
35884	0	0.37204361	-0.07514286	0.099196434	0.999993324	-0.003394127	0.001190186	-0.000599861	9.30109024	-1.87857151	2.479910851	-0.169706721	0.059509409	-0.029993124	-0.607666016	-0.101318359	-0.771484375	896.16	-38.12510129	-71.08680789	64.7463585	-91
35885	0	0.369689941	-0.082702637	0.098754883	0.999997139	-0.001739502	0.000695229	-0.000995636	9.242248535	-2.067565918	2.46887207	-0.086975163	0.034761455	-0.049781837	-0.605224609	-0.099121094	-0.777587891	896.16	-37.90738777	-71.09052023	64.3096185	-90
35886	0	0.375203133	-0.080535889	0.100764275	0.999999046	-3.8147E-05	6.29425E-05	-0.001312256	9.380078316	-2.013397217	2.519106865	-0.001907349	0.003147126	-0.065612812	-0.605224609	-0.096923828	-0.780517578	896.24	-37.5392706	-71.17315036	63.91360349	-89
35887	0	0.372497559	-0.080688477	0.098876953	0.999998093	-0.000864983	0.000370026	-0.001262665	9.312438965	-2.017211914	2.471923828	-0.043249148	0.018501289	-0.063133266	-0.605224609	-0.099121094	-0.780273438	896.16	-37.21380249	-71.22373132	63.46630866	-89
35888	0	0.37135601	-0.085054398	0.10162735	0.999999046	-0.000159264	0.000167847	-0.001029968	9.283900261	-2.12635994	2.540683746	-0.007963182	0.008392336	-0.051498423	-0.605224609	-0.101318359	-0.77734375	896.22	-36.90987407	-71.27580034	63.13073968	-88
35889	0	0.371520996	-0.080566406	0.100341797	0.999999046	-0.000255585	0.000378609	-0.000423431	9.288024902	-2.014160156	2.508544922	-0.012779237	0.018930436	-0.021171571	-0.602783203	-0.103759766	-0.774414063	896.22	-36.73765181	-71.26645483	62.92681614	-86
35890	0	0.37194252	-0.083844185	0.101555824	0.999999046	-0.00028801	0.000566483	0.000125885	9.298563004	-2.096104622	2.538895607	-0.014400483	0.028324129	0.006294251	-0.602783203	-0.1015625	-0.77734375	896.18	-36.68088842	-71.20198069	62.83761266	-85
35891	0	0.374328613	-0.082580566	0.101379395	0.999999046	0.000389099	0.00049305	0.000576019	9.358215332	-2.06451416	2.534484863	0.019454958	0.024652484	0.028800968	-0.603027344	-0.099365234	-0.777587891	896.18	-36.68343297	-71.11342614	62.89045326	-83
35892	0	0.373708725	-0.080246925	0.101687431	0.999998093	0.001104355	0.000418663	0.001060486	9.342718124	-2.006173134	2.542185783	0.055217766	0.02093316	0.053024314	-0.600585938	-0.099365234	-0.780517578	896.24	-36.7482014	-70.99857293	63.09279753	-80
35893	0	0.370239258	-0.076965332	0.101318359	0.999998093	0.000329018	0.000743866	0.001438141	9.255981445	-1.924133301	2.532958984	0.016450889	0.037193315	0.071907076	-0.600585938	-0.1015625	-0.777587891	896.22	-36.93482665	-70.82797182	63.33750982	-79
35894	0	0.372976303	-0.078582764	0.101801872	0.999998093	0.000573158	0.000823021	0.001316071	9.324407578	-1.964569092	2.545046806	0.028657926	0.041151066	0.065803558	-0.603027344	-0.097167969	-0.780517578	896.34	-37.04230144	-70.65853826	63.52334781	-77
35895	0	0.374145508	-0.072570801	0.100036621	0.999998093	-0.000132561	0.000972748	0.001060486	9.353637695	-1.81427002	2.500915527	-0.006628039	0.048637407	0.05302431	-0.598144531	-0.099365234	-0.780761719	896.22	-37.13188637	-70.49349548	63.60881973	-76
35896	0	0.369700432	-0.076861382	0.099453926	0.999998093	-0.000989914	0.00099659	0.001143456	9.242510796	-1.921534538	2.486348152	-0.049495724	0.04982951	0.057172807	-0.598144531	-0.097412109	-0.786621094	896.18	-37.33430853	-70.32084992	63.70931891	-75
35897	0	0.369384766	-0.077636719	0.100585938	0.999999046	0.000782013	0.000306129	0.000759125	9.234619141	-1.940917969	2.514648438	0.039100655	0.015306476	0.037956246	-0.595947266	-0.093017578	-0.787109375	896.24	-37.36803627	-70.23811378	63.83852513	-75
35898	0	0.371530533	-0.074201584	0.099219322	0.999999046	0.000524521	-6.67572E-05	0.00019455	9.288263321	-1.855039597	2.480483055	0.026226045	-0.00333786	0.009727479	-0.595947266	-0.095214844	-0.778320313	896.18	-37.35944658	-70.22916192	63.89849818	-74
35899	0	0.370544434	-0.076538086	0.101867676	0.999999046	-0.000667572	-0.000159264	-0.00030899	9.26361084	-1.913452148	2.546691895	-0.033378604	-0.007963181	-0.015449525	-0.595947266	-0.095214844	-0.786865234	896.3	-37.3771977	-70.26402609	63.83742214	-75
35900	0	0.370932579	-0.080659866	0.103776932	0.999999046	0.000344276	-0.000480652	-0.000470161	9.273314476	-2.016496658	2.594423294	0.017213823	-0.024032595	-0.023508074	-0.598144531	-0.095214844	-0.786865234	896.24	-37.29996551	-70.3395295	63.79738229	-74
35901	0	0.371337891	-0.077087402	0.102111816	0.999999046	4.95911E-05	-0.000174522	-0.00056839	9.283447266	-1.927185059	2.55279541	0.002479553	-0.008726121	-0.028419496	-0.598388672	-0.094970703	-0.781005859	896.24	-37.17093489	-70.39419866	63.66823124	-75
35902	0	0.370429039	-0.081600189	0.103820801	0.999999046	-0.000658035	8.58307E-05	-0.000320435	9.260725975	-2.04000473	2.59552002	-0.032901767	0.004291535	-0.01602173	-0.598388672	-0.094970703	-0.781005859	896.16	-37.13556332	-70.40794031	63.55354703	-74
35903	0	0.372009277	-0.08026123	0.10333252	0.999999046	-6.86646E-05	-9.05991E-05	0.000205994	9.300231934	-2.006530762	2.583312988	-0.003433228	-0.004529953	0.010299683	-0.598144531	-0.097167969	-0.780761719	896.24	-37.20191839	-70.40151208	63.62209298	-74
35904	0	0.372483253	-0.080123901	0.1028862	0.999999046	-0.000540733	0.000114441	0.000476837	9.312081337	-2.003097534	2.572154999	-0.027036669	0.005722046	0.02384186	-0.595947266	-0.095214844	-0.78125	896.24	-37.35153126	-70.3577288	63.7195176	-75
35905	0	0.369750977	-0.079589844	0.102539063	0.999999046	-0.000461578	-7.15256E-05	0.000457764	9.243774414	-1.989746094	2.563476563	-0.02307892	-0.003576279	0.022888185	-0.596191406	-0.093017578	-0.78125	896.22	-37.52281869	-70.33228097	63.8481463	-75
35906	0	0.368593216	-0.080450058	0.103265762	0.999999046	0.000318527	-0.000505447	0.000136375	9.214830399	-2.01125145	2.581644058	0.015926362	-0.025272371	0.006818772	-0.598388672	-0.090820313	-0.784179688	896.3	-37.60753901	-70.36870524	63.97458327	-75
35907	0	0.370422363	-0.079406738	0.101135254	0.999999046	0.000659943	-0.000388145	-0.000167847	9.260559082	-1.985168457	2.528381348	0.032997135	-0.019407274	-0.008392335	-0.598388672	-0.094970703	-0.781005859	896.22	-37.55274577	-70.41595446	63.99997511	-75
35908	0	0.373334885	-0.08049202	0.100095749	0.999999046	0.000788689	-0.000463486	-0.000206947	9.333372116	-2.012300491	2.502393723	0.039434439	-0.023174289	-0.010347368	-0.598388672	-0.094970703	-0.781005859	896.22	-37.48801167	-70.47304226	64.02739353	-75
35909	0	0.372558594	-0.078552246	0.100585938	0.999999046	0.000148773	-0.000731468	-0.000263214	9.313964844	-1.963806152	2.514648438	0.00743866	-0.036573414	-0.013160707	-0.600585938	-0.097167969	-0.780761719	896.22	-37.53492625	-70.55867541	64.09805894	-76
35910	0	0.374276161	-0.080034256	0.102075577	0.999999046	0.000265121	-0.00088501	-0.000405312	9.35690403	-2.0008564	2.55188942	0.013256075	-0.044250496	-0.020265583	-0.600585938	-0.097167969	-0.780761719	896.16	-37.56266281	-70.66831765	64.15976227	-76
35911	0	0.372192383	-0.079101563	0.104064941	0.999999046	0.000400543	-0.000819206	-0.000671387	9.30480957	-1.977539063	2.601623535	0.020027165	-0.040960321	-0.033569343	-0.600585938	-0.097167969	-0.777832031	896.22	-37.49239823	-70.79058448	64.13238523	-79
35912	0	0.372406006	-0.08016777	0.101626396	0.999998093	0.000720978	-0.000681877	-0.000812531	9.310150146	-2.00419426	2.540659904	0.036048899	-0.034093866	-0.040626537	-0.600585938	-0.099365234	-0.780517578	896.22	-37.3199226	-70.91020115	64.03327667	-78
35913	0	0.374633789	-0.079284668	0.101806641	0.999999046	0.00100708	-0.000494957	-0.000732422	9.365844727	-1.982116699	2.545166016	0.050354019	-0.024747856	-0.036621105	-0.602783203	-0.1015625	-0.77734375	896.22	-37.09645811	-71.00715425	63.91676186	-79
35914	0	0.373746872	-0.077807426	0.098297119	0.999999046	0.000368118	-0.000276566	-0.000614166	9.343671799	-1.945185661	2.457427979	0.018405916	-0.013828279	-0.030708316	-0.604980469	-0.105712891	-0.776855469	896.28	-36.93251723	-71.07602567	63.79109741	-79
35915	0	0.373046875	-0.078308105	0.097106934	0.999999046	0.000339508	-0.000178337	-0.00037384	9.326171875	-1.957702637	2.42767334	0.016975404	-0.008916855	-0.018692017	-0.602783203	-0.103515625	-0.771484375	896.28	-36.81592919	-71.11943922	63.70887694	-80
35916	0	0.371671677	-0.074730873	0.096474648	0.999999046	0.000699043	-0.000457764	-0.000289917	9.291791916	-1.868271828	2.411866188	0.034952168	-0.022888187	-0.014495851	-0.602539063	-0.105957031	-0.780029297	896.16	-36.73639282	-71.18295513	63.70491614	-81
35917	0	0.373840332	-0.074401855	0.096130371	0.999999046	-0.000579834	-0.000239372	-0.000514984	9.346008301	-1.860046387	2.403259277	-0.028991702	-0.011968614	-0.025749209	-0.602539063	-0.108154297	-0.776855469	896.18	-36.69847785	-71.2421266	63.59565741	-82
35918	0	0.374330521	-0.075778008	0.097265244	0.999999046	-0.000484467	-0.000553131	-0.000653267	9.358263016	-1.894450188	2.431631088	-0.024223332	-0.02765656	-0.032663351	-0.604980469	-0.107910156	-0.776855469	896.16	-36.67506443	-71.339773	63.51323934	-83
35919	0	0.370666504	-0.075622559	0.099243164	0.999999046	-0.000167847	-0.000761986	-0.000797272	9.266662598	-1.890563965	2.481079102	-0.008392336	-0.038099297	-0.039863595	-0.607177734	-0.107910156	-0.776611328	896.24	-36.61763874	-71.46647461	63.43225942	-84
35920	0	0.371244431	-0.074942589	0.100176811	0.999999046	9.44138E-05	-0.000595093	-0.001080513	9.281110764	-1.87356472	2.50442028	0.004720689	-0.029754646	-0.054025664	-0.604980469	-0.110107422	-0.773681641	896.24	-36.41627737	-71.59703021	63.23233881	-85
35921	0	0.373046875	-0.076782227	0.099304199	0.999999046	-0.000701904	-0.000128746	-0.000984192	9.326171875	-1.919555664	2.48260498	-0.035095223	-0.006437303	-0.049209607	-0.607177734	-0.110107422	-0.770751953	896.22	-36.23522883	-71.67771669	62.96032306	-85
35922	0	0.374388695	-0.079539299	0.097202301	0.999999046	-0.000535965	4.3869E-05	-0.000621796	9.359717369	-1.988482475	2.430057526	-0.026798251	0.002193451	-0.031089786	-0.604736328	-0.112304688	-0.773681641	896.24	-36.10038732	-71.71762458	62.75774717	-85
35923	0	0.373779297	-0.078552246	0.095581055	0.999999046	-0.001270294	0.000248909	-0.00012207	9.344482422	-1.963806152	2.389526367	-0.063514727	0.012445453	-0.006103517	-0.607177734	-0.110107422	-0.770751953	896.24	-36.14830185	-71.70475559	62.66164104	-86
35924	0	0.370210648	-0.081147194	0.096108437	0.999998093	-0.000682831	4.1008E-05	0.000361443	9.25526619	-2.028679848	2.402710915	-0.034141544	0.0020504	0.01807213	-0.607177734	-0.107910156	-0.776611328	896.28	-36.30763377	-71.67828024	62.7489355	-85
35925	0	0.374084473	-0.077270508	0.09588623	0.999999046	-0.000450134	-9.44138E-05	0.000457764	9.352111816	-1.931762695	2.397155762	-0.022506715	-0.004720688	0.022888185	-0.604980469	-0.105712891	-0.774169922	896.12	-36.49505152	-71.6577179	62.8925338	-85
35926	0	0.37378788	-0.078190804	0.099528313	0.999999046	-7.05719E-05	-0.000219345	0.000590324	9.344696999	-1.954770088	2.488207817	-0.003528595	-0.010967255	0.029516222	-0.607421875	-0.105712891	-0.776855469	896.22	-36.70129254	-71.63932379	63.10219369	-86
35927	0	0.375	-0.074829102	0.100891113	0.999999046	0.00043869	-0.000174522	0.000598907	9.375	-1.870727539	2.522277832	0.021934511	-0.008726121	0.029945376	-0.607421875	-0.105712891	-0.773925781	896.1	-36.84142929	-71.61598224	63.30513139	-85
35928	0	0.374397278	-0.074029922	0.100885391	0.999999046	-9.44138E-05	0.000221252	0.00057888	9.359931946	-1.850748062	2.522134781	-0.004720688	0.011062623	0.028944017	-0.607666016	-0.103515625	-0.768310547	896.1	-36.95415611	-71.55758763	63.41640363	-85
35929	0	0.372070313	-0.076843262	0.099609375	0.999999046	0.000389099	0.000275612	0.000343323	9.301757813	-1.921081543	2.490234375	0.019454957	0.013780595	0.017166139	-0.607421875	-0.103515625	-0.777099609	896.24	-36.93508092	-71.51033715	63.44160215	-86
35930	0	0.374955177	-0.076048851	0.097737312	0.999999046	0.000652313	0.000173569	0.00018692	9.373879433	-1.901221275	2.443432808	0.032615664	0.008678437	0.009346009	-0.607421875	-0.105712891	-0.773925781	896.18	-36.86401253	-71.48329074	63.44811788	-85
35931	0	0.375671387	-0.076477051	0.096557617	0.999999046	0.000350952	0.000351906	0.00030899	9.391784668	-1.91192627	2.41394043	0.017547608	0.017595292	0.015449525	-0.604980469	-0.105712891	-0.771240234	896.16	-36.82454024	-71.43163898	63.4520124	-85
35932	0	0.370855331	-0.077310562	0.096749306	0.999999046	0.000529289	-3.24249E-05	0.000366211	9.271383286	-1.932764053	2.418732643	0.026464464	-0.001621246	0.018310548	-0.604980469	-0.103515625	-0.780029297	896.16	-36.8590651	-71.41133982	63.5456193	-85
35933	0	0.37298584	-0.078125	0.096069336	0.999999046	0.000587463	-1.04904E-05	0.00018692	9.324645996	-1.953125	2.401733398	0.029373171	-0.000524521	0.009346009	-0.605224609	-0.103515625	-0.774169922	896.22	-36.83388063	-71.40143209	63.58578969	-85
35934	0	0.374484062	-0.078761101	0.097496033	0.999999046	0.000993729	-0.000146866	0.00031662	9.362101555	-1.969027519	2.437400818	0.049686441	-0.007343294	0.015830997	-0.604980469	-0.105712891	-0.774169922	896.3	-36.82564873	-71.39516213	63.69412627	-85
35935	0	0.375366211	-0.075622559	0.096923828	0.999999046	0.000389099	-2.57492E-05	0.000713348	9.384155273	-1.890563965	2.423095703	0.019454958	-0.00128746	0.035667423	-0.607177734	-0.107910156	-0.776611328	896.12	-36.9696582	-71.35062059	63.8934126	-85
35936	0	0.372942924	-0.076629639	0.096718788	0.999999046	-8.67844E-05	0.000205994	0.000834465	9.323573112	-1.915740967	2.417969704	-0.004339219	0.010299684	0.041723257	-0.604980469	-0.105712891	-0.776855469	896.24	-37.15270327	-71.27646091	64.07356485	-85
35937	0	0.372619629	-0.075927734	0.099365234	0.999999046	0.000274658	-4.1008E-05	0.000717163	9.315490723	-1.898193359	2.484130859	0.013732912	-0.0020504	0.035858158	-0.604980469	-0.105712891	-0.774169922	896.22	-37.31171156	-71.23285331	64.27436152	-85
35938	0	0.373865128	-0.073359489	0.097115517	0.999999046	8.01086E-05	4.95911E-05	0.000498772	9.346628189	-1.833987236	2.427887917	0.004005432	0.002479553	0.024938584	-0.604980469	-0.105712891	-0.779785156	896.22	-37.41482035	-71.19628367	64.38983336	-85
35939	0	0.374328613	-0.075134277	0.09979248	0.999999046	6.86646E-05	-6.38962E-05	0.000213623	9.358215332	-1.878356934	2.494812012	0.003433228	-0.003194809	0.010681152	-0.604980469	-0.105712891	-0.771240234	896.12	-37.46546926	-71.18996633	64.45405492	-85
35940	0	0.374674797	-0.075098038	0.098105431	0.999999046	6.38962E-05	-8.96454E-05	6.86646E-05	9.366869926	-1.877450943	2.452635765	0.003194809	-0.004482269	0.003433228	-0.607421875	-0.105712891	-0.773925781	896.18	-37.48284289	-71.19626635	64.48180697	-85
35941	0	0.372802734	-0.075561523	0.09979248	0.999999046	-9.91821E-05	-0.000124931	-5.72205E-05	9.320068359	-1.889038086	2.494812012	-0.004959106	-0.006246567	-0.002861023	-0.607421875	-0.107910156	-0.770996094	896.36	-37.49204653	-71.21462051	64.48655133	-85
35942	0	0.37322998	-0.077148438	0.09942627	0.999999046	0	-3.8147E-06	-0.000320435	9.330749512	-1.928710938	2.485656738	0	-0.000190735	-0.016021729	-0.607421875	-0.105712891	-0.773925781	896.3	-37.39432631	-71.24032338	64.38403394	-86
35943	0	0.373529434	-0.076984406	0.099508286	0.999998093	0.000197411	-2.47955E-05	-0.000226021	9.338235855	-1.924610138	2.487707138	0.009870529	-0.001239777	-0.011301041	-0.604980469	-0.105712891	-0.771240234	896.18	-37.3031413	-71.26134703	64.31168373	-86
35944	0	0.375124931	-0.077347755	0.100667	0.999999046	-0.000317574	0.000181198	-0.000190735	9.378123283	-1.933693886	2.516674995	-0.015878678	0.009059906	-0.009536743	-0.607177734	-0.107910156	-0.776611328	896.3	-37.2379415	-71.261099	64.20650892	-86
35945	0	0.372619629	-0.078918457	0.101135254	0.999999046	-7.24792E-05	0.000161171	0	9.315490723	-1.972961426	2.528381348	-0.003623962	0.008058548	0	-0.607421875	-0.105712891	-0.773925781	896.18	-37.2000068	-71.24931642	64.15826794	-86
35946	0	0.371915817	-0.077346802	0.09971714	0.999999046	0.000211716	0.000295639	3.8147E-06	9.297895432	-1.933670044	2.492928505	0.010585785	0.014781952	0.000190735	-0.607177734	-0.107910156	-0.776611328	896.3	-37.10311664	-71.22495326	64.08375884	-86
35947	0	0.372619629	-0.077148438	0.099365234	0.999999046	-2.28882E-05	0.00042057	3.8147E-05	9.315490723	-1.928710938	2.484130859	-0.001144409	0.021028519	0.001907349	-0.604980469	-0.107910156	-0.773925781	896.22	-37.01716491	-71.18677771	63.99362926	-85
35948	0	0.372836113	-0.077181816	0.098392487	0.999999046	0.00026226	0.000299454	0.000156403	9.320902824	-1.929545403	2.459812164	0.013113022	0.014972687	0.00782013	-0.604736328	-0.107910156	-0.779541016	896.22	-36.95516117	-71.15157021	63.95943911	-85
35949	0	0.373168945	-0.076660156	0.09777832	0.999999046	-0.000198364	0.000248909	0.000156403	9.329223633	-1.916503906	2.444458008	-0.009918213	0.01244545	0.00782013	-0.602783203	-0.105957031	-0.774169922	896.28	-36.95632446	-71.12111505	63.93650112	-85
35950	0	0.371995926	-0.079013824	0.099395752	0.999999046	0.000228882	7.05719E-05	-7.24792E-05	9.299898148	-1.975345612	2.484893799	0.011444092	0.003528595	-0.003623962	-0.602539063	-0.108154297	-0.776855469	896.24	-36.88339574	-71.12273689	63.88804373	-86
35951	0	0.372436523	-0.077392578	0.101074219	0.999999046	0.000488281	-0.000170708	-7.62939E-06	9.310913086	-1.934814453	2.526855469	0.024414064	-0.008535386	-0.00038147	-0.602539063	-0.108154297	-0.779785156	896.24	-36.84651842	-71.14197895	63.90546125	-85
35952	0	0.37259388	-0.077472687	0.10047245	0.999999046	0.000313759	3.05176E-05	0.000121117	9.314846992	-1.936817169	2.511811256	0.015687943	0.001525879	0.006055832	-0.602539063	-0.108154297	-0.776855469	896.24	-36.82367082	-71.13391619	63.91783046	-85
35953	0	0.371826172	-0.077819824	0.101013184	0.999999046	0.000396729	7.72476E-05	0.000202179	9.295654297	-1.945495605	2.52532959	0.019836426	0.003862381	0.010108948	-0.602539063	-0.108154297	-0.773925781	896.18	-36.80364114	-71.11595392	63.94447146	-84
35954	0	0.370253563	-0.076853752	0.099787712	0.999999046	0.000385284	5.14984E-05	9.15527E-05	9.256339073	-1.921343803	2.494692802	0.019264222	0.002574921	0.004577637	-0.604736328	-0.110107422	-0.779541016	896.16	-36.7603847	-71.10795824	63.94505329	-84
35955	0	0.372680664	-0.076049805	0.098327637	0.999999046	0.000160217	6.58035E-05	0.000324249	9.317016602	-1.901245117	2.458190918	0.008010864	0.003290176	0.016212464	-0.602539063	-0.108154297	-0.776855469	896.12	-36.8024299	-71.0828134	64.00602054	-83
35956	0	0.372069359	-0.075161934	0.097239494	0.999999046	-2.95639E-05	0.000133514	0.000422478	9.301733971	-1.879048347	2.430987358	-0.001478195	0.00667572	0.021123887	-0.602539063	-0.108154297	-0.773925781	896.18	-36.87872541	-71.04488433	64.08318889	-83
35957	0	0.374389648	-0.074707031	0.097229004	0.999999046	-0.000396729	2.00272E-05	0.000335693	9.359741211	-1.867675781	2.430725098	-0.019836427	0.001001358	0.016784669	-0.604980469	-0.107910156	-0.773925781	896.1	-36.99630382	-71.02354165	64.16207878	-83
35958	0	0.371710777	-0.074670792	0.10005188	0.999999046	-0.000207901	-0.000270844	0.000128746	9.292769432	-1.866769791	2.501296997	-0.01039505	-0.013542176	0.006437302	-0.602539063	-0.108154297	-0.776855469	896.22	-37.09507716	-71.04314975	64.24141346	-83
35959	0	0.372375488	-0.074401855	0.099487305	0.999999046	-0.000324249	-0.000243187	-6.10352E-05	9.309387207	-1.860046387	2.487182617	-0.016212464	-0.012159348	-0.003051758	-0.602539063	-0.108154297	-0.776855469	896.22	-37.15085672	-71.07345928	64.26149168	-83
35960	0	0.374631882	-0.076010704	0.103649139	0.999999046	-0.000527382	-0.00018692	-0.000331879	9.365797043	-1.900267601	2.591228485	-0.026369097	-0.009346009	-0.016593934	-0.607421875	-0.105712891	-0.776855469	896.22	-37.14577265	-71.11732468	64.19151419	-83
35961	0	0.37487793	-0.078125	0.101074219	0.999999046	-0.00019455	4.673E-05	-6.48499E-05	9.371948242	-1.953125	2.526855469	-0.009727478	0.002336502	-0.003242493	-0.604980469	-0.105712891	-0.774169922	896.24	-37.12640699	-71.12135006	64.1476092	-83
35962	0	0.37121582	-0.075920105	0.10162735	0.999999046	9.53674E-06	6.67572E-05	1.14441E-05	9.280395508	-1.898002625	2.540683746	0.000476837	0.00333786	0.000572205	-0.604980469	-0.105712891	-0.774169922	896.22	-37.09958508	-71.11822631	64.12055493	-82
35963	0	0.372314453	-0.076660156	0.097595215	0.999999046	-0.000278473	0.000237465	-0.000202179	9.307861328	-1.916503906	2.439880371	-0.013923645	0.011873246	-0.010108948	-0.604980469	-0.105712891	-0.776855469	896.14	-37.01429937	-71.1143493	63.99568777	-82
35964	0	0.373397827	-0.077479362	0.098155022	0.999999046	4.29153E-05	-3.05176E-05	-0.00024128	9.334945679	-1.936984062	2.453875542	0.002145767	-0.001525879	-0.01206398	-0.602539063	-0.105957031	-0.780029297	896.18	-36.93586174	-71.1377281	63.91324946	-82
35965	0	0.373046875	-0.07598877	0.097167969	0.999999046	-8.39233E-05	-0.000121117	9.91821E-05	9.326171875	-1.899719238	2.429199219	-0.004196167	-0.006055832	0.004959106	-0.602539063	-0.105957031	-0.780029297	896.22	-36.98151552	-71.14608918	63.94677445	-82
35966	0	0.37201786	-0.076628685	0.098162651	0.999999046	-6.86646E-05	-6.67572E-05	0.000137329	9.30044651	-1.915717125	2.454066277	-0.003433228	-0.00333786	0.006866455	-0.602783203	-0.105957031	-0.774169922	896.24	-37.02475554	-71.14690664	63.98387756	-82
35967	0	0.373718262	-0.076049805	0.100280762	0.999999046	8.7738E-05	-0.000315666	-4.95911E-05	9.342956543	-1.901245117	2.507019043	0.004386902	-0.01578331	-0.002479553	-0.605224609	-0.103515625	-0.774169922	896.14	-37.05013275	-71.18341741	64.01717722	-82
35968	0	0.37244606	-0.076178551	0.099935532	0.999999046	-0.000260353	-0.000246048	-0.000118256	9.311151505	-1.904463768	2.49838829	-0.013017655	-0.012302399	-0.005912781	-0.607421875	-0.107910156	-0.773681641	896.34	-37.08276609	-71.21830779	64.02512167	-82
35969	0	0.373474121	-0.077209473	0.099609375	0.999999046	4.57764E-05	-0.000250816	-0.000167847	9.336853027	-1.930236816	2.490234375	0.002288818	-0.012540817	-0.008392334	-0.604980469	-0.105712891	-0.774169922	896.3	-37.06794022	-71.2570529	64.01346812	-82
35970	0	0.374709129	-0.07536602	0.10022068	0.999999046	-0.000337601	0.000123978	1.14441E-05	9.367728233	-1.884150505	2.505517006	-0.016880036	0.006198883	0.000572205	-0.607421875	-0.105712891	-0.776855469	896.24	-37.0687371	-71.24917566	63.9725434	-82
35971	0	0.375671387	-0.075927734	0.100830078	0.999999046	-0.000946045	0.000344276	0.000137329	9.391784668	-1.898193359	2.520751953	-0.047302254	0.017213824	0.006866456	-0.602783203	-0.105957031	-0.774169922	896.18	-37.12804788	-71.21248194	63.92290098	-82
35972	0	0.371555328	-0.075543404	0.097462654	0.999998093	-0.001298904	0.000449181	0.000254631	9.288883209	-1.888585091	2.436566353	-0.064945242	0.022459037	0.012731556	-0.602783203	-0.103759766	-0.77734375	896.18	-37.23783602	-71.15821282	63.88267386	-82
35973	0	0.369262695	-0.077026367	0.097290039	0.999999046	-0.000854492	0.000409126	0.000240326	9.231567383	-1.92565918	2.432250977	-0.042724616	0.020456317	0.012016298	-0.602783203	-0.1015625	-0.77734375	896.16	-37.30102111	-71.10865222	63.84655859	-83
35974	0	0.371832848	-0.078466415	0.094712257	0.999999046	-3.8147E-06	-0.000102997	-0.000222206	9.29582119	-1.961660385	2.367806435	-0.000190735	-0.005149841	-0.011110306	-0.602783203	-0.1015625	-0.780273438	896.14	-37.24786256	-71.13804386	63.78777701	-83
35975	0	0.374572754	-0.076782227	0.096313477	0.999999046	-3.8147E-05	-0.000403404	-0.000156403	9.364318848	-1.919555664	2.407836914	-0.001907349	-0.020170212	-0.00782013	-0.603027344	-0.099365234	-0.774658203	896.16	-37.27736194	-71.19043199	63.81117297	-83
35976	0	0.371684074	-0.077283859	0.097105026	0.999999046	-0.000540733	-0.000551224	0.000183105	9.29210186	-1.932096481	2.427625656	-0.02703667	-0.027561191	0.009155274	-0.603027344	-0.099365234	-0.777587891	896.18	-37.48608405	-71.23269921	63.96202776	-84
35977	0	0.37310791	-0.079040527	0.100646973	0.999999046	-0.000473022	-0.000449181	9.15527E-05	9.327697754	-1.976013184	2.516174316	-0.023651125	-0.022459032	0.004577637	-0.602783203	-0.099365234	-0.780517578	896.22	-37.64222669	-71.27181437	64.06421229	-84
35978	0	0.374649048	-0.077740669	0.101395607	0.999999046	-0.000259399	-0.000486374	0.000155449	9.366226196	-1.943516731	2.534890175	-0.012969971	-0.024318696	0.007772446	-0.60546875	-0.096923828	-0.774902344	896.22	-37.79888908	-71.30962994	64.19385817	-84
35979	0	0.374755859	-0.076782227	0.101135254	0.999999046	-0.000423431	-0.000235558	0.000278473	9.368896484	-1.919555664	2.528381348	-0.021171571	-0.011777878	0.013923646	-0.60546875	-0.099121094	-0.771728516	896.18	-37.95505452	-71.3159194	64.31039609	-84
35980	0	0.373661995	-0.076709747	0.100221634	1	2.47955E-05	-6.58035E-05	2.86102E-06	9.341549873	-1.917743683	2.505540848	0.001239777	-0.003290176	0.000143051	-0.607666016	-0.099121094	-0.77734375	896.22	-37.95044461	-71.32619527	64.3086149	-85
35981	0	0.373474121	-0.075805664	0.098815918	0.999999046	0.000263214	-5.24521E-05	-0.000190735	9.336853027	-1.895141602	2.470397949	0.013160706	-0.002622604	-0.009536743	-0.60546875	-0.096923828	-0.774902344	896.24	-37.86348391	-71.34891369	64.24398469	-85
35982	0	0.373879433	-0.076588631	0.097351074	0.999999046	-5.53131E-05	0.000173569	-7.34329E-05	9.346985817	-1.914715767	2.433776855	-0.002765656	0.008678436	-0.003671646	-0.603027344	-0.099365234	-0.774658203	896.18	-37.79717712	-71.34295766	64.16600869	-85
35983	0	0.372741699	-0.076904297	0.094238281	0.999999046	-0.000469208	0.000134468	2.67029E-05	9.31854248	-1.922607422	2.355957031	-0.023460389	0.006723404	0.001335144	-0.60546875	-0.099121094	-0.771728516	896.24	-37.81355583	-71.33364281	64.1294932	-85
35984	0	0.372834206	-0.077196121	0.094203949	0.999999046	-0.000439644	-0.000108719	2.95639E-05	9.320855141	-1.92990303	2.355098724	-0.021982194	-0.005435944	0.001478195	-0.60546875	-0.096923828	-0.771972656	896.18	-37.87819143	-71.34628147	64.14434919	-85
35985	0	0.37487793	-0.077026367	0.094604492	0.999999046	-0.000453949	-0.00014019	-9.15527E-05	9.371948242	-1.92565918	2.365112305	-0.02269745	-0.007009506	-0.004577637	-0.60546875	-0.096923828	-0.777587891	896.24	-37.91879779	-71.37044208	64.12915804	-85
35986	0	0.372172356	-0.079000473	0.097173691	0.999999046	-0.000137329	-0.000343323	-0.000107765	9.304308891	-1.975011826	2.42934227	-0.006866455	-0.017166138	-0.00538826	-0.60546875	-0.096923828	-0.774902344	896.1	-37.96146304	-71.4140481	64.15567632	-85
35987	0	0.373657227	-0.077148438	0.098449707	0.999999046	5.72205E-05	-0.000170708	-6.48499E-05	9.341430664	-1.928710938	2.461242676	0.002861023	-0.008535385	-0.003242493	-0.607666016	-0.096923828	-0.777587891	896.24	-37.95704739	-71.43898792	64.15479624	-85
35988	0	0.374494553	-0.078371048	0.099000931	0.999999046	-4.673E-05	-5.53131E-05	-9.91821E-05	9.362363815	-1.959276199	2.47502327	-0.002336502	-0.002765656	-0.004959106	-0.607666016	-0.096923828	-0.777587891	896.18	-37.93094867	-71.45582492	64.11823624	-86
35989	0	0.374450684	-0.079467773	0.099182129	0.999999046	0.000255585	-5.62668E-05	-5.72205E-05	9.36126709	-1.986694336	2.479553223	0.012779236	-0.002813339	-0.002861023	-0.607666016	-0.096923828	-0.777587891	896.24	-37.88168904	-71.46964878	64.09275555	-86
35990	0	0.373188972	-0.079375267	0.09814167	0.999999046	0.000482559	1.90735E-05	-8.58307E-06	9.329724312	-1.984381676	2.453541756	0.024127961	0.000953674	-0.000429153	-0.607910156	-0.096923828	-0.771728516	896.18	-37.80382988	-71.47310891	64.06706785	-85
35991	0	0.372741699	-0.078918457	0.097900391	0.999999046	0.000431061	8.58307E-06	0.000133514	9.31854248	-1.972961426	2.447509766	0.02155304	0.000429153	0.00667572	-0.607910156	-0.094726563	-0.771972656	896.12	-37.77258979	-71.46743161	64.07920696	-85
35992	0	0.373023033	-0.078446388	0.096570015	0.999998093	0.000480652	0.000304222	0.00045681	9.325575829	-1.961159706	2.414250374	0.024032595	0.015211107	0.022840502	-0.609863281	-0.099121094	-0.77734375	896.14	-37.76127587	-71.41225854	64.12366855	-85
35993	0	0.374511719	-0.078308105	0.098205566	0.999999046	0.000255585	0.000180244	0.000682831	9.362792969	-1.957702637	2.45513916	0.012779237	0.009012223	0.034141544	-0.607666016	-0.099121094	-0.774414063	896.34	-37.86210883	-71.35237763	64.26085378	-85
35994	0	0.374066353	-0.076633453	0.098256111	0.999999046	0.000352859	0.000143051	0.000656128	9.351658821	-1.915836334	2.456402779	0.017642977	0.007152558	0.0328064	-0.60546875	-0.096923828	-0.774902344	896.24	-37.95146703	-71.29768781	64.39276543	-85
35995	0	0.373291016	-0.075134277	0.096496582	0.999999046	0.000507355	0.0001688	0.000362396	9.332275391	-1.878356934	2.412414551	0.025367739	0.008440018	0.018119813	-0.605224609	-0.099121094	-0.774658203	896.22	-37.93873552	-71.26147642	64.43906928	-85
35996	0	0.374180794	-0.074881554	0.096392632	0.999999046	0.000412941	0.000177383	0.000193596	9.354519844	-1.872038841	2.409815788	0.02064705	0.008869171	0.009679795	-0.607666016	-0.099121094	-0.771728516	896.24	-37.88979929	-71.23655449	64.43842631	-85
35997	0	0.373474121	-0.075561523	0.09552002	0.999999046	7.62939E-06	7.72476E-05	6.10352E-05	9.336853027	-1.889038086	2.388000488	0.00038147	0.003862381	0.003051758	-0.605224609	-0.099121094	-0.780273438	896.24	-37.8727285	-71.23019444	64.41539169	-85
35998	0	0.373327255	-0.077803612	0.096126556	0.999999046	0.00012207	-0.000181198	-0.000205994	9.333181381	-1.945090294	2.40316391	0.006103516	-0.009059906	-0.010299683	-0.60546875	-0.096923828	-0.774902344	896.22	-37.8250389	-71.26607712	64.3725799	-85
35999	0	0.374023438	-0.078552246	0.097229004	0.999999046	0.000534058	-0.000437737	-0.000556946	9.350585938	-1.963806152	2.430725098	0.026702884	-0.021886828	-0.027847294	-0.602783203	-0.1015625	-0.77734375	896.22	-37.68921755	-71.34982478	64.28827443	-85
36000	0	0.373282433	-0.078579903	0.099365234	0.999999046	0.000954628	-0.000434875	-0.000500679	9.332060814	-1.964497566	2.484130859	0.04773141	-0.021743779	-0.025033956	-0.607421875	-0.101318359	-0.777099609	896.24	-37.51874856	-71.42919999	64.21601716	-85
36001	0	0.37310791	-0.077941895	0.099975586	0.999999046	0.000244141	-5.24521E-05	-8.7738E-05	9.327697754	-1.948547363	2.499389648	0.012207031	-0.002622604	-0.004386902	-0.607421875	-0.103515625	-0.777099609	896.24	-37.46134595	-71.44482192	64.18010217	-85
36002	0	0.373681068	-0.079660416	0.097654343	0.999999046	0.000425339	0.000244141	0.000105858	9.342026711	-1.991510391	2.441358566	0.021266938	0.012207032	0.005292893	-0.607421875	-0.103515625	-0.774169922	896.18	-37.37447701	-71.41986462	64.13629054	-85
36003	0	0.374267578	-0.077148438	0.097717285	0.999999046	0.000347137	0.000386238	0.00056839	9.356689453	-1.928710938	2.442932129	0.017356874	0.019311907	0.028419497	-0.604980469	-0.103515625	-0.777099609	896.18	-37.3924807	-71.34977879	64.19106181	-84
36004	0	0.372273445	-0.076832771	0.098423004	0.999999046	0.000151634	0.000312805	0.000617027	9.306836128	-1.920819283	2.460575104	0.007581711	0.01564026	0.030851367	-0.604980469	-0.103515625	-0.777099609	896.24	-37.46067868	-71.28294746	64.27650657	-84
36005	0	0.371887207	-0.076049805	0.097717285	0.999999046	0.000667572	4.76837E-06	0.000442505	9.297180176	-1.901245117	2.442932129	0.033378605	0.000238419	0.022125247	-0.605224609	-0.103515625	-0.774169922	896.28	-37.48580098	-71.25631397	64.3799844	-84
36006	0	0.374201775	-0.073505402	0.09732914	0.999999046	0.000318527	-3.43323E-05	0.000232697	9.355044365	-1.83763504	2.433228493	0.015926362	-0.001716614	0.011634827	-0.604980469	-0.105712891	-0.774169922	896.18	-37.50224351	-71.24803157	64.43528188	-84
36007	0	0.374511719	-0.074645996	0.09753418	0.999999046	1.14441E-05	-5.62668E-05	0.0001297	9.362792969	-1.866149902	2.438354492	0.000572205	-0.002813339	0.006484985	-0.607421875	-0.103515625	-0.777099609	896.12	-37.53053329	-71.2490619	64.46139028	-84
36008	0	0.373465538	-0.074924469	0.096942902	0.999999046	2.86102E-06	-0.000230789	-0.0001297	9.336638451	-1.873111725	2.42357254	0.000143051	-0.011539459	-0.006484985	-0.607421875	-0.103515625	-0.774169922	896.14	-37.52607307	-71.28419021	64.45318403	-84
36009	0	0.372680664	-0.076416016	0.098388672	0.999999046	0.000102997	-0.000296593	-0.000427246	9.317016602	-1.910400391	2.459716797	0.005149842	-0.014829636	-0.021362306	-0.604980469	-0.105712891	-0.776855469	896.22	-37.44348899	-71.34605554	64.37359427	-84
36010	0	0.372560501	-0.077177048	0.098121643	0.999999046	8.7738E-05	-0.000349045	-0.000461578	9.314012527	-1.929426193	2.453041077	0.004386902	-0.017452241	-0.02307892	-0.607421875	-0.105712891	-0.773925781	896.18	-37.36371201	-71.41502021	64.29665536	-85
36011	0	0.373840332	-0.077880859	0.097290039	0.999999046	-3.43323E-05	-0.000411034	-0.000267029	9.346008301	-1.947021484	2.432250977	-0.001716614	-0.020551682	-0.013351441	-0.604980469	-0.105712891	-0.776855469	896.1	-37.36337561	-71.47606318	64.28418884	-85
36012	0	0.372923851	-0.077506065	0.09740448	0.999999046	2.38419E-05	-0.000354767	-6.96182E-05	9.323096275	-1.937651634	2.435112	0.001192093	-0.017738343	-0.003480911	-0.607421875	-0.107910156	-0.770996094	896.22	-37.39858699	-71.51819967	64.3246814	-85
36013	0	0.375427246	-0.076599121	0.098327637	0.999999046	-0.000137329	-0.000254631	-7.24792E-05	9.385681152	-1.914978027	2.458190918	-0.006866455	-0.012731552	-0.003623962	-0.607421875	-0.107910156	-0.770996094	896.24	-37.4307065	-71.55138246	64.34208706	-85
36014	0	0.372680664	-0.076451302	0.099580765	0.999999046	3.05176E-05	-0.000190735	-2.00272E-05	9.317016602	-1.911282539	2.489519119	0.001525879	-0.009536743	-0.001001358	-0.605224609	-0.105712891	-0.768310547	896.24	-37.44441693	-71.57496533	64.35652386	-85
36015	0	0.372375488	-0.077087402	0.100097656	0.999999046	0.00012207	-0.000105858	-0.000156403	9.309387207	-1.927185059	2.502441406	0.006103516	-0.005292893	-0.007820129	-0.609619141	-0.107910156	-0.773681641	896.24	-37.39242223	-71.60014263	64.31442965	-85
36016	0	0.374312401	-0.07786274	0.097229004	0.999999046	0.000344276	-0.000167847	-5.81741E-05	9.35781002	-1.946568489	2.430725098	0.017213822	-0.008392334	-0.002908707	-0.607421875	-0.107910156	-0.770996094	896.18	-37.35495932	-71.62405629	64.31361961	-85
36017	0	0.374511719	-0.077087402	0.097167969	0.999999046	0.000328064	-0.000109673	0.000244141	9.362792969	-1.927185059	2.429199219	0.016403199	-0.005483627	0.012207032	-0.609619141	-0.110107422	-0.7734375	896.36	-37.39018783	-71.62159969	64.39010571	-85
36018	0	0.371931076	-0.077206612	0.095182419	0.999999046	0.000406265	-0.000177383	0.000255585	9.298276901	-1.930165291	2.379560471	0.020313264	-0.008869172	0.012779236	-0.609619141	-0.107666016	-0.770751953	896.28	-37.43411907	-71.62448069	64.48159182	-84
36019	0	0.373962402	-0.076965332	0.098632813	0.999999046	0.000423431	-0.000292778	0.000270844	9.349060059	-1.924133301	2.465820313	0.021171571	-0.014638902	0.013542176	-0.609619141	-0.107666016	-0.770751953	896.18	-37.50448403	-71.63665837	64.60176839	-82
36020	0	0.374526024	-0.07690239	0.097257614	0.999997139	0.000706673	-0.000297546	0.000292778	9.363150597	-1.922559738	2.431440353	0.035333637	-0.014877321	0.014638902	-0.609375	-0.112304688	-0.7734375	896.14	-37.54956853	-71.64765522	64.73372476	-82
36021	0	0.374328613	-0.075134277	0.098449707	0.999999046	0.000598907	-0.00014782	0.000347137	9.358215332	-1.878356934	2.461242676	0.029945376	-0.007390977	0.017356874	-0.609619141	-0.109863281	-0.770751953	896.22	-37.59009164	-71.64117943	64.84416689	-82
36022	0	0.374487877	-0.075034142	0.09757328	0.999999046	0.000621796	-1.33514E-05	0.000357628	9.362196922	-1.875853539	2.439332008	0.031089785	-0.000667572	0.017881395	-0.609375	-0.112304688	-0.7734375	896.22	-37.60221897	-71.62174371	64.92864225	-81
36023	0	0.374206543	-0.074035645	0.096069336	0.999999046	0.000717163	-3.33786E-05	0.00018692	9.355163574	-1.850891113	2.401733398	0.035858158	-0.00166893	0.009346009	-0.612060547	-0.109863281	-0.770507813	896.22	-37.56071882	-71.61615111	64.9655277	-81
36024	0	0.374429703	-0.073244095	0.096514702	0.999999046	0.000418663	-0.000150681	8.01086E-05	9.360742569	-1.831102371	2.412867546	0.020933152	-0.007534027	0.004005432	-0.609375	-0.114257813	-0.770263672	896.12	-37.54854944	-71.62877893	65.00247755	-81
36025	0	0.374084473	-0.074401855	0.095825195	0.999999046	0.000343323	-8.67844E-05	-0.000118256	9.352111816	-1.860046387	2.395629883	0.017166138	-0.004339218	-0.005912781	-0.611816406	-0.114257813	-0.770263672	896.18	-37.47714341	-71.64952705	64.96773337	-80
36026	0	0.373446465	-0.07400322	0.09581089	0.999998093	0.000477791	-0.000311852	-7.53403E-05	9.336161613	-1.85008049	2.395272255	0.023889543	-0.015592576	-0.003767014	-0.611816406	-0.114257813	-0.770263672	896.18	-37.44920759	-71.68781638	64.9928274	-80
36027	0	0.375915527	-0.073791504	0.096191406	0.999999046	-8.7738E-05	-0.000220299	-0.000102997	9.397888184	-1.844787598	2.404785156	-0.004386902	-0.011014938	-0.005149841	-0.611816406	-0.114257813	-0.770263672	896.18	-37.45901329	-71.71979373	64.98900397	-80
36028	0	0.374509811	-0.075624466	0.098758698	0.999999046	0.000102043	-0.000377655	-0.000184059	9.362745285	-1.890611649	2.468967438	0.005102158	-0.018882752	-0.009202957	-0.611816406	-0.114257813	-0.770263672	896.2	-37.45775681	-71.77163532	64.99505042	-80
36029	0	0.373535156	-0.073974609	0.098327637	0.999999046	0.00025177	-0.000151634	-0.000236511	9.338378906	-1.849365234	2.458190918	0.012588501	-0.007581711	-0.011825562	-0.611816406	-0.116455078	-0.767089844	896.18	-37.37653158	-71.80649474	64.9396533	-80
36030	0	0.371768951	-0.075276375	0.097091675	0.999999046	-1.52588E-05	5.72205E-05	9.44138E-05	9.294223785	-1.88190937	2.42729187	-0.000762939	0.002861023	0.004720688	-0.611816406	-0.116455078	-0.767089844	896.12	-37.37321548	-71.79920804	64.93424631	-80
36031	0	0.375183105	-0.077331543	0.094848633	0.999999046	0.000293732	-3.33786E-05	-4.95911E-05	9.379577637	-1.933288574	2.37121582	0.014686585	-0.00166893	-0.002479553	-0.611572266	-0.118652344	-0.766845703	896.18	-37.31419125	-71.81017389	64.91020145	-79
36032	0	0.373730659	-0.07613945	0.094806671	0.999998093	0.000102997	-9.44138E-05	0.000247955	9.343266487	-1.903486252	2.370166779	0.005149841	-0.004720688	0.012397766	-0.611816406	-0.116455078	-0.767089844	896.12	-37.3727198	-71.80601693	64.98274729	-79
36033	0	0.37310791	-0.07623291	0.096435547	0.999999046	0.000293732	-0.000208855	0.000389099	9.327697754	-1.905822754	2.410888672	0.014686585	-0.010442734	0.019454957	-0.611816406	-0.116455078	-0.770019531	896.18	-37.47280876	-71.80234078	65.11938898	-79
36034	0	0.372174263	-0.074513435	0.096261978	0.999999046	0.000429153	-0.000566483	0.000335693	9.304356575	-1.862835884	2.406549454	0.021457674	-0.02832413	0.01678467	-0.614013672	-0.116455078	-0.767089844	896.14	-37.61861999	-71.83476399	65.32219878	-79
