Counter	Temperature	VelInc_X	VelInc_Y	VelInc_Z	OriInc_w	OriInc_x	OriInc_y	OriInc_z	Acc_X	Acc_Y	Acc_Z	Gyr_X	Gyr_Y	Gyr_Z	Mag_X	Mag_Y	Mag_Z	Pressure	Roll	Pitch	Yaw	RSSI
17461	0	0.373474121	-0.101074219	0.075927734	0.999999046	-0.000305176	-7.53403E-05	0.00031662	9.336853027	-2.526855469	1.898193359	-0.01525879	-0.003767014	0.015830994	-0.833740234	0.297119141	0.501708984	878.88	-53.34971971	-71.89968265	-111.7636644	-68
17462	0	0.376289368	-0.101970673	0.077028275	0.999999046	0.000102997	-2.47955E-05	0.000445366	9.407234192	-2.549266815	1.925706863	0.005149841	-0.001239777	0.022268296	-0.833740234	0.301513672	0.498535156	878.82	-53.41646289	-71.86556868	-111.6819477	-68
17463	0	0.375	-0.098876953	0.075317383	0.999999046	-3.8147E-05	0.000245094	0.000495911	9.375	-2.471923828	1.88293457	-0.001907349	0.012254716	0.024795533	-0.833740234	0.299316406	0.492919922	878.92	-53.4335541	-71.80833069	-111.6734418	-67
17464	0	0.369493484	-0.099432945	0.075184822	0.999999046	-0.000142097	0.00018692	0.00083828	9.237337112	-2.485823631	1.879620552	-0.007104875	0.009346009	0.041913992	-0.831298828	0.301513672	0.495605469	878.84	-53.54914536	-71.72341224	-111.5712076	-67
17465	0	0.374206543	-0.100158691	0.072143555	0.999999046	0.000156403	0.000271797	0.000591278	9.355163574	-2.503967285	1.803588867	0.00782013	0.01358986	0.029563906	-0.831542969	0.303710938	0.495361328	878.88	-53.55551782	-71.65550635	-111.545819	-67
17466	0	0.374417305	-0.098504066	0.071643829	0.999999046	-0.000177383	0.000171661	0.00058651	9.360432625	-2.462601662	1.791095734	-0.008869172	0.008583069	0.029325487	-0.831542969	0.303710938	0.498291016	878.92	-53.62679515	-71.59500691	-111.4949368	-66
17467	0	0.373901367	-0.100708008	0.070861816	0.999999046	-0.000160217	5.81741E-05	0.000640869	9.34753418	-2.517700195	1.77154541	-0.008010865	0.002908707	0.032043459	-0.833984375	0.303710938	0.495361328	878.76	-53.73849027	-71.53727048	-111.4016153	-66
17468	0	0.372301102	-0.099011421	0.071726799	0.999999046	-7.72476E-05	-3.8147E-06	0.000254631	9.307527542	-2.47528553	1.793169975	-0.003862381	-0.000190735	0.012731552	-0.831542969	0.305908203	0.495117188	878.84	-53.77908728	-71.519529	-111.3675658	-66
17469	0	0.372253418	-0.09979248	0.071472168	0.999999046	-0.000152588	-0.000254631	0.000221252	9.306335449	-2.494812012	1.786804199	-0.007629395	-0.012731552	0.011062622	-0.833984375	0.303710938	0.501220703	878.92	-53.89102381	-71.52194085	-111.2758149	-66
17470	0	0.373039246	-0.10016346	0.072165489	0.999999046	-4.3869E-05	-0.000299454	9.05991E-05	9.32598114	-2.504086494	1.80413723	-0.002193451	-0.014972687	0.004529953	-0.831787109	0.305908203	0.500976563	878.92	-53.9766256	-71.5395175	-111.192617	-66
17471	0	0.375610352	-0.101379395	0.072692871	0.999999046	-0.000392914	-0.000247002	4.95911E-05	9.390258789	-2.534484863	1.817321777	-0.019645692	-0.012350083	0.002479553	-0.831542969	0.303710938	0.495361328	878.88	-54.07957294	-71.55738568	-111.1346747	-66
17472	0	0.37405014	-0.101963997	0.074624062	0.999999046	0.000231743	-0.000423431	-0.000115395	9.35125351	-2.549099922	1.86560154	0.011587143	-0.021171571	-0.00576973	-0.831787109	0.305908203	0.500976563	878.92	-54.12680518	-71.60235166	-111.0574287	-66
17473	0	0.373535156	-0.101379395	0.073669434	0.999999046	0.000118256	-0.00032711	-0.000160217	9.338378906	-2.534484863	1.84173584	0.005912781	-0.016355515	-0.008010864	-0.831787109	0.305908203	0.500976563	878.88	-54.15118123	-71.64497835	-111.0173851	-66
17474	0	0.37209034	-0.1017313	0.074791908	0.999999046	-5.72205E-06	-0.000230789	-0.000179291	9.302258492	-2.543282509	1.869797707	-0.000286102	-0.011539459	-0.008964539	-0.831542969	0.303710938	0.501220703	878.88	-54.1587648	-71.68280668	-111.0134573	-66
17475	0	0.375	-0.101806641	0.074584961	0.999999046	8.01086E-05	-0.000151634	0.000217438	9.375	-2.545166016	1.864624023	0.004005432	-0.007581711	0.010871887	-0.829101563	0.303466797	0.495117188	878.84	-54.21448553	-71.67839539	-110.945935	-66
17476	0	0.374123573	-0.101836205	0.074059486	0.999999046	-6.19888E-05	-0.000141144	8.7738E-05	9.353089333	-2.545905113	1.85148716	-0.003099442	-0.00705719	0.004386902	-0.831542969	0.303710938	0.498291016	878.92	-54.25713322	-71.68526242	-110.9113722	-66
17477	0	0.37286377	-0.102233887	0.072937012	0.999999046	0.000114441	4.76837E-06	0.000183105	9.321594238	-2.555847168	1.823425293	0.005722046	0.000238419	0.009155274	-0.829101563	0.303710938	0.498046875	878.92	-54.25786757	-71.67342201	-110.8986965	-66
17478	0	0.371116638	-0.101438522	0.07259655	0.999999046	8.58307E-05	-1.52588E-05	0.000278473	9.277915955	-2.535963058	1.81491375	0.004291534	-0.000762939	0.013923645	-0.831542969	0.305908203	0.498046875	878.78	-54.28671205	-71.65400152	-110.8578245	-66
17479	0	0.374511719	-0.102355957	0.069702148	0.999999046	-4.19617E-05	6.96182E-05	0.000312805	9.362792969	-2.558898926	1.742553711	-0.002098084	0.003480911	0.015640259	-0.831787109	0.305908203	0.50390625	878.84	-54.313671	-71.62576508	-110.837489	-66
17480	0	0.372363091	-0.101191521	0.06986618	0.999999046	-8.86917E-05	5.34058E-05	0.000437737	9.309077263	-2.529788017	1.74665451	-0.004434586	0.002670288	0.021886826	-0.831542969	0.303710938	0.501220703	878.84	-54.37579275	-71.58704861	-110.7902781	-66
17481	0	0.371582031	-0.102539063	0.07019043	0.999999046	0.000118256	-0.00026226	0.000434875	9.289550781	-2.563476563	1.754760742	0.005912781	-0.013113022	0.021743775	-0.831787109	0.305908203	0.500976563	878.78	-54.50203533	-71.56961988	-110.647598	-66
17482	0	0.373421669	-0.102237701	0.070506096	0.999999046	0.000600815	-0.000356674	0.000281334	9.335541725	-2.555942535	1.762652397	0.030040744	-0.017833711	0.014066697	-0.829345703	0.308105469	0.503662109	878.88	-54.56885348	-71.57277006	-110.5063361	-66
17483	0	0.372070313	-0.101379395	0.069335938	0.999999046	0.000247955	-0.000365257	0.000514984	9.301757813	-2.534484863	1.733398438	0.012397767	-0.018262865	0.025749209	-0.831787109	0.308105469	0.503662109	878.84	-54.72519771	-71.55465563	-110.317099	-66
17484	0	0.37323761	-0.102034569	0.070577621	0.999999046	0.000548363	-0.000501633	0.00058651	9.330940247	-2.55086422	1.764440536	0.027418141	-0.025081638	0.02932549	-0.827148438	0.310302734	0.503173828	878.78	-54.8992993	-71.53872459	-110.0684006	-66
17485	0	0.374145508	-0.10168457	0.07043457	0.999999046	6.48499E-05	-0.000288963	0.000400543	9.353637695	-2.542114258	1.760864258	0.003242493	-0.014448166	0.020027161	-0.827148438	0.310302734	0.500244141	878.84	-55.03211817	-71.52613127	-109.9219358	-66
17486	0	0.373495102	-0.102401733	0.072916031	0.999999046	-3.62396E-05	-0.000301361	0.000232697	9.337377548	-2.560043335	1.822900772	-0.001811981	-0.015068055	0.011634827	-0.827148438	0.3125	0.503173828	878.82	-55.14665378	-71.53000938	-109.8040484	-66
17487	0	0.374450684	-0.102478027	0.07409668	0.999999046	4.95911E-05	-0.000292778	0.000228882	9.36126709	-2.561950684	1.852416992	0.002479553	-0.014638901	0.011444092	-0.824707031	0.3125	0.5	878.84	-55.24776536	-71.53358097	-109.6879574	-66
17488	0	0.372127533	-0.103007317	0.074009895	0.999999046	-9.82285E-05	-0.000137329	0.000236511	9.303188324	-2.575182915	1.850247383	-0.004911423	-0.006866455	0.011825562	-0.827148438	0.310302734	0.503173828	878.84	-55.32304279	-71.52614476	-109.6245682	-66
17489	0	0.372558594	-0.105529785	0.073242188	0.999999046	0.000362396	-7.15256E-05	4.57764E-05	9.313964844	-2.638244629	1.831054688	0.018119812	-0.003576279	0.002288818	-0.829589844	0.310302734	0.503417969	878.84	-55.28960493	-71.53222189	-109.6224113	-66
17490	0	0.374694824	-0.104963303	0.071310043	0.999999046	0.000579834	-6.86646E-05	0.000159264	9.367370605	-2.624082565	1.782751083	0.028991701	-0.003433228	0.007963181	-0.827148438	0.3125	0.500244141	878.88	-55.25271159	-71.52737838	-109.5919887	-66
17491	0	0.371765137	-0.102661133	0.070129395	0.999999046	8.39233E-05	0.000184059	0.000282288	9.294128418	-2.56652832	1.753234863	0.004196167	0.009202957	0.01411438	-0.827148438	0.3125	0.500244141	878.88	-55.22556429	-71.49447942	-109.6121931	-66
17492	0	0.37180233	-0.104019165	0.069123268	0.999999046	-0.000256538	5.72205E-05	0.000494957	9.29505825	-2.600479126	1.728081703	-0.01282692	0.002861023	0.02474785	-0.827392578	0.3125	0.506103516	878.88	-55.314814	-71.44985477	-109.554135	-66
17493	0	0.374267578	-0.104003906	0.068725586	0.999999046	-9.53674E-05	0.000138283	0.000350952	9.356689453	-2.600097656	1.718139648	-0.004768372	0.006914139	0.017547608	-0.824707031	0.310058594	0.500244141	878.88	-55.3349743	-71.41358164	-109.5513415	-66
17494	0	0.37399292	-0.102449417	0.069418907	0.999999046	-0.000452042	0.0001297	0.000403404	9.349822998	-2.561235428	1.735472679	-0.022602083	0.006484986	0.020170213	-0.829589844	0.3125	0.500244141	878.88	-55.40853759	-71.37305289	-109.5335492	-66
17495	0	0.371704102	-0.102111816	0.072570801	0.999999046	-0.000286102	0.000100136	0.000511169	9.292602539	-2.55279541	1.81427002	-0.014305116	0.00500679	0.025558473	-0.827392578	0.314697266	0.5	878.82	-55.49150317	-71.32429956	-109.480665	-66
17496	0	0.37317276	-0.101862907	0.070266724	0.999999046	-0.00026226	7.62939E-05	0.000338554	9.329319	-2.546572685	1.756668091	-0.013113022	0.003814697	0.01692772	-0.827392578	0.314697266	0.502929688	878.84	-55.54488749	-71.29352538	-109.4575943	-66
17497	0	0.370422363	-0.102844238	0.072692871	0.999999046	-0.000461578	0.000206947	0.00012207	9.260559082	-2.571105957	1.817321777	-0.023078919	0.010347367	0.006103516	-0.827392578	0.314697266	0.502929688	878.84	-55.54280867	-71.27473668	-109.5162649	-66
17498	0	0.373846054	-0.103795052	0.070981026	0.999999046	-0.000360489	-4.76837E-05	0.000151634	9.346151352	-2.594876289	1.774525642	-0.018024445	-0.002384186	0.007581711	-0.827148438	0.3125	0.500244141	878.84	-55.60575047	-71.26973452	-109.496867	-66
17499	0	0.374694824	-0.10534668	0.069152832	0.999999046	-0.000591278	0.000344276	8.39233E-05	9.367370605	-2.633666992	1.728820801	-0.029563906	0.017213823	0.004196167	-0.827392578	0.3125	0.508789063	878.84	-55.57329556	-71.24582751	-109.6080173	-66
17500	0	0.369683266	-0.105798721	0.071661949	0.999999046	-9.63211E-05	-0.000143051	3.71933E-05	9.242081642	-2.644968033	1.791548729	-0.004816055	-0.007152557	0.001859665	-0.824707031	0.3125	0.5	878.88	-55.61100372	-71.257811	-109.5798626	-66
17501	0	0.371459961	-0.104553223	0.070068359	0.999999046	0.000198364	-0.000159264	-0.000114441	9.286499023	-2.613830566	1.751708984	0.009918213	-0.007963181	-0.005722046	-0.824951172	0.314697266	0.499755859	878.82	-55.59065014	-71.28521434	-109.5727275	-66
17502	0	0.372786522	-0.103890419	0.070234299	0.999998093	-9.44138E-05	-0.0001688	-0.000128746	9.319663048	-2.597260475	1.755857468	-0.004720688	-0.008440018	-0.006437302	-0.827392578	0.314697266	0.5	878.84	-55.60380029	-71.31465502	-109.5664305	-66
17503	0	0.373474121	-0.10559082	0.069885254	0.999999046	-0.000354767	-6.77109E-05	3.8147E-06	9.336853027	-2.639770508	1.747131348	-0.017738343	-0.003385544	0.000190735	-0.827392578	0.3125	0.506103516	878.84	-55.64414022	-71.32502736	-109.5686522	-66
17504	0	0.373726845	-0.106987953	0.071222305	0.999999046	-0.00014782	-0.000154495	0.000151634	9.34317112	-2.67469883	1.780557632	-0.007390976	-0.007724762	0.007581711	-0.824951172	0.3125	0.502929688	878.84	-55.71350669	-71.32693512	-109.5124663	-67
17505	0	0.370605469	-0.105224609	0.071350098	0.999999046	0.000396729	-0.000121117	1.52588E-05	9.265136719	-2.630615234	1.783752441	0.019836426	-0.006055832	0.000762939	-0.827148438	0.3125	0.500244141	878.78	-55.6850233	-71.33952505	-109.4948455	-67
17506	0	0.373182297	-0.10505867	0.070181847	0.999999046	0.00025177	-0.000228882	9.15527E-05	9.329557419	-2.626466751	1.754546165	0.012588501	-0.011444092	0.004577637	-0.824707031	0.310302734	0.506103516	878.84	-55.71807386	-71.35186282	-109.4355172	-67
17507	0	0.374694824	-0.103820801	0.069519043	0.999999046	0	-0.000121117	0.000278473	9.367370605	-2.59552002	1.737976074	0	-0.006055832	0.013923645	-0.824951172	0.3125	0.502929688	878.72	-55.78553753	-71.33962543	-109.3655223	-67
17508	0	0.371785164	-0.105615616	0.073516846	0.999999046	0.000315666	-0.000143051	0.000224113	9.294629097	-2.640390396	1.837921143	0.01578331	-0.007152558	0.011205674	-0.824707031	0.3125	0.5	878.82	-55.81222358	-71.33380804	-109.3004025	-67
17509	0	0.373352051	-0.104003906	0.07019043	0.999999046	0.000160217	-7.15256E-05	0.000118256	9.33380127	-2.600097656	1.754760742	0.008010864	-0.003576279	0.005912781	-0.827392578	0.314697266	0.502929688	878.84	-55.8164258	-71.33347277	-109.2766377	-67
17510	0	0.373031616	-0.102483749	0.068886757	0.999999046	-0.000106812	0.000102997	0.000185966	9.325790405	-2.562093735	1.722168922	-0.005340576	0.005149841	0.009298325	-0.827148438	0.3125	0.503173828	878.84	-55.81516812	-71.31562995	-109.2955373	-67
17511	0	0.373413086	-0.102783203	0.071533203	0.999999046	1.52588E-05	3.91006E-05	0.000114441	9.335327148	-2.569580078	1.788330078	0.000762939	0.001955032	0.005722046	-0.824707031	0.3125	0.5	878.84	-55.80390753	-71.30875348	-109.3075736	-68
17512	0	0.37466526	-0.103477478	0.069794655	0.999999046	-4.1008E-05	-3.8147E-05	-0.000244141	9.366631508	-2.586936951	1.744866371	-0.0020504	-0.001907349	-0.012207031	-0.827392578	0.314697266	0.502929688	878.76	-55.7523647	-71.34094295	-109.3659067	-68
17513	0	0.37310791	-0.105651855	0.070922852	0.999999046	-0.000102997	-4.1008E-05	-0.000255585	9.327697754	-2.641296387	1.773071289	-0.005149841	-0.0020504	-0.012779236	-0.827148438	0.3125	0.503173828	878.82	-55.70639614	-71.37434124	-109.4288145	-69
17514	0	0.372922897	-0.104316711	0.071907043	0.999999046	0.000411987	-0.000209808	-0.000535011	9.323072433	-2.607917786	1.797676086	0.020599367	-0.010490418	-0.026750567	-0.827392578	0.3125	0.506103516	878.82	-55.5946785	-71.44503192	-109.4986329	-69
17515	0	0.372741699	-0.104553223	0.071289063	0.999999046	-2.67029E-05	-0.000124931	-0.000350952	9.31854248	-2.613830566	1.782226563	-0.001335144	-0.006246567	-0.017547608	-0.829589844	0.3125	0.500244141	878.84	-55.54430793	-71.49274463	-109.5542944	-69
17516	0	0.373750687	-0.107225418	0.073264122	0.999999046	1.23978E-05	-0.0001297	-0.000134468	9.343767166	-2.680635452	1.83160305	0.000619888	-0.006484985	-0.006723404	-0.827148438	0.310302734	0.503173828	878.92	-55.53253532	-71.5200948	-109.5677935	-70
17517	0	0.372802734	-0.105407715	0.072265625	0.999999046	0.000305176	-0.000197411	-0.000102997	9.320068359	-2.635192871	1.806640625	0.015258789	-0.009870529	-0.005149841	-0.827148438	0.310302734	0.506103516	878.88	-55.51236995	-71.5487348	-109.5558286	-69
17518	0	0.373890877	-0.107179642	0.07212162	0.999999046	0.000377655	-0.000102997	7.9155E-05	9.347271919	-2.679491043	1.803040504	0.018882752	-0.005149841	0.003957749	-0.827148438	0.310302734	0.503173828	878.84	-55.49270832	-71.5538614	-109.5343353	-69
17519	0	0.370788574	-0.103637695	0.070861816	0.999999046	0.000247955	1.62125E-05	3.8147E-05	9.269714355	-2.590942383	1.77154541	0.012397766	0.000810623	0.001907349	-0.827148438	0.310302734	0.503173828	878.78	-55.4461443	-71.55506374	-109.5572429	-70
17520	0	0.372914314	-0.104669571	0.070619583	0.999999046	6.77109E-05	0.000125885	0.000296593	9.322857857	-2.616739273	1.765489578	0.003385544	0.006294251	0.014829636	-0.824951172	0.3125	0.502929688	878.84	-55.43967736	-71.52468854	-109.5546358	-70
17521	0	0.373291016	-0.103393555	0.069885254	0.999999046	0.000518799	0.000264168	0.000232697	9.332275391	-2.584838867	1.747131348	0.025939943	0.01320839	0.011634827	-0.827148438	0.3125	0.503173828	878.92	-55.3302706	-71.49137093	-109.6093895	-69
17522	0	0.372289658	-0.102456093	0.071529388	0.999999046	5.91278E-05	6.10352E-05	0.000182152	9.30724144	-2.561402321	1.788234711	0.00295639	0.003051758	0.00910759	-0.824951172	0.3125	0.505859375	878.78	-55.32085866	-71.47606167	-109.614365	-70
17523	0	0.372070313	-0.103759766	0.070922852	0.999999046	0.000205994	-2.95639E-05	-5.34058E-05	9.301757813	-2.593994141	1.773071289	0.010299683	-0.001478195	-0.002670288	-0.824951172	0.314697266	0.499755859	878.92	-55.2742703	-71.48883941	-109.6340147	-70
17524	0	0.374587059	-0.102226257	0.069904327	0.999999046	0.000142097	-0.000173569	-3.43323E-05	9.364676476	-2.555656433	1.747608185	0.007104874	-0.008678436	-0.001716614	-0.827148438	0.3125	0.503173828	878.84	-55.27926195	-71.50932896	-109.614186	-70
17525	0	0.371276855	-0.102539063	0.072265625	0.999999046	8.01086E-05	-0.000102043	-0.000152588	9.281921387	-2.563476563	1.806640625	0.004005432	-0.005102158	-0.007629395	-0.824707031	0.312255859	0.497070313	878.78	-55.24786056	-71.53625615	-109.636153	-71
17526	0	0.372970581	-0.10192585	0.07208252	0.999999046	6.86646E-05	-0.000257492	-0.000144958	9.324264526	-2.548146248	1.802062988	0.003433228	-0.012874603	-0.007247925	-0.824951172	0.314697266	0.499755859	878.92	-55.26283569	-71.57263488	-109.6061359	-71
17527	0	0.374206543	-0.104125977	0.071960449	0.999999046	0.000408173	-0.000247002	-0.000267029	9.355163574	-2.603149414	1.79901123	0.020408631	-0.012350083	-0.013351441	-0.827148438	0.3125	0.503173828	878.82	-55.21194504	-71.61976429	-109.6114941	-72
17528	0	0.373502731	-0.101976395	0.072163582	0.999999046	0.000161171	-0.00022316	-0.000209808	9.337568283	-2.549409866	1.804089546	0.008058548	-0.01115799	-0.010490418	-0.827148438	0.3125	0.503173828	878.78	-55.19352722	-71.6599438	-109.6117323	-72
17529	0	0.371154785	-0.102905273	0.071716309	0.999999046	-0.000320435	8.4877E-05	-8.01086E-05	9.278869629	-2.572631836	1.792907715	-0.016021729	0.004243851	-0.004005432	-0.827392578	0.314697266	0.505859375	878.84	-55.16833172	-71.66768651	-109.6726249	-72
17530	0	0.372928619	-0.103319168	0.071163177	0.999999046	-0.000238419	6.29425E-05	0.000102043	9.323215485	-2.582979202	1.779079437	-0.011920929	0.003147125	0.005102158	-0.827392578	0.3125	0.506103516	878.84	-55.17596687	-71.659674	-109.6932917	-72
17531	0	0.37286377	-0.103942871	0.07232666	0.999999046	-6.10352E-05	-1.43051E-05	6.86646E-05	9.321594238	-2.598571777	1.808166504	-0.003051758	-0.000715256	0.003433228	-0.827148438	0.310302734	0.503173828	878.82	-55.17854587	-71.65974959	-109.7009601	-73
17532	0	0.37211895	-0.104674339	0.071081161	0.999999046	0.000138283	0.000108719	-2.67029E-05	9.302973747	-2.616858482	1.777029037	0.006914139	0.005435944	-0.001335144	-0.824707031	0.310058594	0.500244141	878.78	-55.10471194	-71.66062264	-109.7628477	-73
17533	0	0.370788574	-0.101989746	0.07019043	0.999999046	-0.000152588	0.000115395	0.000144958	9.269714355	-2.549743652	1.754760742	-0.007629395	0.00576973	0.007247925	-0.827148438	0.310302734	0.503173828	878.78	-55.09633889	-71.64491194	-109.7929518	-73
17534	0	0.373305321	-0.104439735	0.070671082	0.999999046	-0.000171661	0.000190735	0.000137329	9.332633018	-2.610993385	1.766777039	-0.008583069	0.009536743	0.006866455	-0.827148438	0.3125	0.500244141	878.78	-55.06758778	-71.6249099	-109.8410852	-73
17535	0	0.373352051	-0.103820801	0.07019043	0.999999046	-8.39233E-05	-7.15256E-05	0.000183105	9.33380127	-2.59552002	1.754760742	-0.004196167	-0.003576279	0.009155274	-0.827148438	0.3125	0.500244141	878.84	-55.11226099	-71.61779122	-109.8015948	-73
17536	0	0.3730793	-0.103542328	0.069812775	0.999999046	-0.000159264	-2.47955E-05	0.00043869	9.326982498	-2.588558197	1.745319366	-0.007963181	-0.001239777	0.02193451	-0.827148438	0.3125	0.500244141	878.78	-55.20282811	-71.58356615	-109.7239561	-73
17537	0	0.372619629	-0.102294922	0.069946289	0.999999046	8.39233E-05	-7.15256E-05	0.00030899	9.315490723	-2.557373047	1.748657227	0.004196167	-0.003576279	0.015449524	-0.827148438	0.310302734	0.506103516	878.84	-55.25311947	-71.5646286	-109.6672128	-74
17538	0	0.373055458	-0.101415634	0.071068764	0.999999046	-0.000175476	-2.28882E-05	0.000293732	9.326386452	-2.535390854	1.776719093	-0.008773804	-0.001144409	0.014686585	-0.827148438	0.3125	0.500244141	878.88	-55.31610896	-71.54400377	-109.622042	-74
17539	0	0.374511719	-0.101379395	0.0703125	0.999999046	-9.91821E-05	-3.33786E-05	0.000160217	9.362792969	-2.534484863	1.7578125	-0.004959106	-0.00166893	0.008010864	-0.829589844	0.3125	0.503173828	878.88	-55.34706224	-71.53675558	-109.6041777	-74
17540	0	0.374788284	-0.101819992	0.072463036	0.999999046	-0.000342369	0.000148773	5.34058E-05	9.369707108	-2.545499802	1.81157589	-0.017118454	0.00743866	0.002670288	-0.827148438	0.3125	0.503173828	878.84	-55.33326893	-71.52775179	-109.6603949	-75
17541	0	0.372558594	-0.102722168	0.073242188	0.999999046	-0.000217438	0.000100136	-3.43323E-05	9.313964844	-2.568054199	1.831054688	-0.010871887	0.00500679	-0.001716614	-0.827148438	0.3125	0.500244141	878.78	-55.30141739	-71.53013704	-109.7185425	-75
17542	0	0.371086121	-0.103460312	0.070279121	0.999999046	-0.000398636	0.000173569	2.19345E-05	9.277153015	-2.586507797	1.756978035	-0.019931794	0.008678437	0.001096725	-0.827148438	0.310302734	0.500244141	878.76	-55.28074069	-71.52240776	-109.7902531	-75
17543	0	0.37121582	-0.10534668	0.071472168	0.999999046	-0.000164032	8.10623E-05	0.000110626	9.280395508	-2.633666992	1.786804199	-0.008201599	0.004053116	0.005531311	-0.827148438	0.310302734	0.500244141	878.78	-55.27674547	-71.51224195	-109.8157923	-75
17544	0	0.373438835	-0.104232788	0.071313858	0.999999046	0.00020504	-2.86102E-05	6.48499E-05	9.335970879	-2.605819702	1.782846451	0.010251999	-0.001430511	0.003242493	-0.827148438	0.3125	0.500244141	878.84	-55.2524762	-71.51351983	-109.8140494	-75
17545	0	0.374572754	-0.105529785	0.069946289	0.999999046	-7.62939E-06	2.38419E-05	9.53674E-05	9.364318848	-2.638244629	1.748657227	-0.00038147	0.001192093	0.004768372	-0.827148438	0.3125	0.503173828	878.84	-55.24412739	-71.50847711	-109.8224854	-75
17546	0	0.369360924	-0.103710175	0.070326805	0.999999046	6.29425E-05	2.47955E-05	0.00012207	9.234023094	-2.592754364	1.758170128	0.003147125	0.001239777	0.006103516	-0.827148438	0.310302734	0.500244141	878.88	-55.23278109	-71.50081638	-109.8293679	-76
17547	0	0.369506836	-0.105163574	0.070495605	0.999999046	9.15527E-05	-0.000285149	0.000198364	9.237670898	-2.629089355	1.762390137	0.004577637	-0.014257431	0.009918213	-0.827148438	0.310302734	0.503173828	878.88	-55.32053727	-71.50610521	-109.7300617	-77
17548	0	0.375607491	-0.107192039	0.070239067	0.999999046	0.000247002	-0.000246048	-3.91006E-05	9.390187263	-2.679800987	1.755976677	0.012350083	-0.012302399	-0.001955032	-0.829589844	0.310302734	0.503417969	878.92	-55.33366465	-71.53112381	-109.6924349	-76
17549	0	0.374633789	-0.104614258	0.071533203	0.999999046	-7.62939E-06	6.58035E-05	0.000411987	9.365844727	-2.615356445	1.788330078	-0.00038147	0.003290176	0.020599366	-0.829589844	0.310302734	0.500488281	878.84	-55.37595788	-71.49326699	-109.6549019	-76
17550	0	0.370512009	-0.101930618	0.072616577	0.999999046	-5.72205E-05	8.7738E-05	0.00039196	9.262800217	-2.548265457	1.815414429	-0.002861023	0.004386902	0.019598008	-0.827148438	0.3125	0.503173828	878.84	-55.41331329	-71.4558592	-109.6244508	-76
17551	0	0.372375488	-0.101501465	0.072509766	0.999999046	2.28882E-05	0.000123024	0.000335693	9.309387207	-2.537536621	1.812744141	0.001144409	0.006151199	0.016784668	-0.827392578	0.3125	0.506103516	878.82	-55.42015392	-71.42152099	-109.618733	-77
17552	0	0.373754501	-0.100955963	0.073032379	0.999999046	-0.000376701	0.00031662	0.00039959	9.343862534	-2.523899078	1.825809479	-0.018835069	0.015830995	0.019979478	-0.827148438	0.3125	0.497314453	878.84	-55.43030279	-71.36866339	-109.6546753	-77
17553	0	0.374206543	-0.102905273	0.070129395	0.999999046	-0.000808716	0.000294685	0.000270844	9.355163574	-2.572631836	1.753234863	-0.040435797	0.01473427	0.013542177	-0.829589844	0.3125	0.500244141	878.84	-55.47136898	-71.32951376	-109.7117916	-77
17554	0	0.372274399	-0.106582642	0.073043823	0.999999046	-8.7738E-05	0.000293732	-9.15527E-05	9.30685997	-2.66456604	1.826095581	-0.004386902	0.014686585	-0.004577637	-0.827148438	0.3125	0.500244141	878.88	-55.36045243	-71.3244845	-109.8397027	-77
17555	0	0.370178223	-0.103088379	0.071838379	0.999999046	-0.000240326	0.000275612	0.000160217	9.254455566	-2.577209473	1.795959473	-0.012016297	0.013780594	0.008010864	-0.824951172	0.3125	0.502929688	878.84	-55.32056719	-71.29687204	-109.9104562	-78
17556	0	0.37224102	-0.10568428	0.071259499	0.999999046	-0.000584602	0.000354767	0.000311852	9.306025505	-2.64210701	1.781487465	-0.029230121	0.017738344	0.015592577	-0.827148438	0.310302734	0.503173828	878.82	-55.32764803	-71.24978027	-109.9788825	-78
17557	0	0.373291016	-0.107116699	0.07244873	0.999999046	-0.000473022	0.000321388	0.000415802	9.332275391	-2.67791748	1.811218262	-0.023651125	0.016069414	0.020790102	-0.827148438	0.310302734	0.503173828	878.82	-55.35141731	-71.19499415	-110.016329	-78
17558	0	0.372241974	-0.105236053	0.07124424	0.999999046	-0.000513077	0.000183105	0.000304222	9.306049347	-2.630901337	1.781105995	-0.025653841	0.009155274	0.015211106	-0.829345703	0.310302734	0.494628906	878.84	-55.39682726	-71.15977291	-110.0337564	-78
17559	0	0.371948242	-0.105712891	0.071289063	0.999999046	-0.000595093	0.00048542	0.000511169	9.298706055	-2.642822266	1.782226563	-0.029754643	0.024271015	0.025558475	-0.829589844	0.3125	0.500244141	878.84	-55.40776188	-71.08538368	-110.0954849	-77
17560	0	0.369817734	-0.105200768	0.071826935	0.999999046	-0.000309944	0.000242233	0.000330925	9.245443344	-2.630019188	1.79567337	-0.015497208	0.012111664	0.01654625	-0.827392578	0.314697266	0.5	878.88	-55.4188931	-71.04383727	-110.11676	-78
17561	0	0.371948242	-0.104980469	0.069580078	0.999999046	-0.000118256	-2.95639E-05	0.000236511	9.298706055	-2.624511719	1.739501953	-0.005912781	-0.001478195	0.011825562	-0.829589844	0.3125	0.500244141	878.84	-55.46511086	-71.02900692	-110.0842227	-78
17562	0	0.372879028	-0.104746819	0.06983757	0.999999046	-0.000366211	0.000106812	0.000148773	9.321975708	-2.618670464	1.745939255	-0.018310547	0.005340576	0.00743866	-0.829589844	0.3125	0.500244141	878.94	-55.48589109	-71.01375017	-110.1080905	-78
17563	0	0.369750977	-0.10546875	0.072387695	0.999999046	-0.000217438	-0.000163078	0.00031662	9.243774414	-2.63671875	1.809692383	-0.010871888	-0.008153916	0.015830994	-0.827148438	0.310302734	0.500244141	878.88	-55.59522853	-71.00014834	-110.0236041	-78
17564	0	0.371600151	-0.1046381	0.0728302	0.999999046	4.48227E-05	-0.000234604	0.000124931	9.290003777	-2.615952492	1.820755005	0.002241135	-0.011730194	0.006246567	-0.829589844	0.3125	0.500244141	878.84	-55.65783282	-71.00932226	-109.95406	-78
17565	0	0.370849609	-0.10559082	0.074035645	0.999999046	-0.000217438	-6.38962E-05	0.000225067	9.271240234	-2.639770508	1.850891113	-0.010871887	-0.003194809	0.011253357	-0.829589844	0.3125	0.500244141	878.82	-55.72204494	-70.99794018	-109.9146254	-78
17566	0	0.372764587	-0.104691505	0.072232246	0.999999046	-0.000419617	7.62939E-05	0.000305176	9.319114685	-2.617287636	1.80580616	-0.020980836	0.003814697	0.01525879	-0.827148438	0.3125	0.497314453	878.84	-55.7856217	-70.97000927	-109.8976336	-78
17567	0	0.37121582	-0.108032227	0.073608398	0.999999046	-0.00031662	-2.57492E-05	0.000144958	9.280395508	-2.700805664	1.840209961	-0.015830994	-0.00128746	0.007247925	-0.83203125	0.312744141	0.500488281	878.92	-55.83535253	-70.96373866	-109.8861559	-77
17568	0	0.371249199	-0.105682373	0.070652962	1	-2.86102E-05	-6.00815E-05	-2.38419E-05	9.281229973	-2.642059326	1.766324043	-0.001430511	-0.003004074	-0.001192093	-0.829589844	0.3125	0.503173828	878.88	-55.83009305	-70.97576522	-109.8973197	-76
17569	0	0.370666504	-0.108032227	0.070495605	0.999999046	-0.000217438	-0.000109673	3.43323E-05	9.266662598	-2.700805664	1.762390137	-0.010871887	-0.005483627	0.001716614	-0.829589844	0.310302734	0.503417969	878.78	-55.87127591	-70.98544578	-109.8861855	-75
17570	0	0.372688293	-0.109370232	0.070120811	0.999999046	0.000371933	-0.000257492	-2.38419E-05	9.317207336	-2.734255791	1.753020287	0.01859665	-0.012874604	-0.001192093	-0.829589844	0.3125	0.503173828	878.88	-55.87524632	-71.01011244	-109.8388527	-75
17571	0	0.371765137	-0.105407715	0.069091797	0.999999046	-0.000270844	-0.000380516	-1.90735E-05	9.294128418	-2.635192871	1.727294922	-0.013542176	-0.019025803	-0.000953674	-0.829589844	0.310302734	0.503417969	878.84	-55.98809133	-71.04233632	-109.7579179	-73
17572	0	0.372556686	-0.110255241	0.072592735	0.999999046	-0.000462532	-8.7738E-05	-8.39233E-05	9.31391716	-2.756381035	1.814818382	-0.023126603	-0.004386902	-0.004196167	-0.827148438	0.310302734	0.503173828	878.84	-56.03016479	-71.06176921	-109.7716653	-73
17573	0	0.369812012	-0.105834961	0.07244873	0.999999046	0.00012207	-0.000380516	-0.000362396	9.245300293	-2.645874023	1.811218262	0.006103516	-0.019025804	-0.018119813	-0.829589844	0.310302734	0.500488281	878.84	-56.03418217	-71.12638693	-109.7540762	-72
17574	0	0.373179436	-0.107500076	0.072617531	0.999999046	-0.000244141	-0.00021553	8.01086E-05	9.329485893	-2.687501907	1.815438271	-0.012207031	-0.01077652	0.004005432	-0.827148438	0.310302734	0.500244141	878.84	-56.11713316	-71.13830856	-109.695229	-72
17575	0	0.373840332	-0.107055664	0.073547363	0.999999046	-0.000102997	6.96182E-05	-0.000164032	9.346008301	-2.676391602	1.838684082	-0.005149841	0.003480911	-0.008201599	-0.829589844	0.308105469	0.506591797	878.78	-56.05853894	-71.15515101	-109.7759847	-71
17576	0	0.373253822	-0.106216431	0.073087692	0.999999046	-0.000611305	0.000127792	0.000136375	9.331345558	-2.655410767	1.827192307	-0.030565264	0.006389618	0.006818772	-0.827148438	0.310302734	0.506103516	878.84	-56.09796028	-71.13967294	-109.8072013	-70
17577	0	0.369873047	-0.106506348	0.071350098	0.999999046	-2.28882E-05	0.000203133	0.000217438	9.246826172	-2.662658691	1.783752441	-0.001144409	0.010156632	0.010871887	-0.829589844	0.308105469	0.506591797	878.88	-56.06416005	-71.11162451	-109.8512798	-69
17578	0	0.37046814	-0.106366158	0.074362755	0.999999046	7.43866E-05	-1.90735E-06	-3.8147E-06	9.261703491	-2.659153938	1.859068871	0.00371933	-9.53674E-05	-0.000190735	-0.829345703	0.308105469	0.500732422	878.9	-56.03443154	-71.11762165	-109.8768463	-69
17579	0	0.375488281	-0.108154297	0.067565918	0.999999046	-2.67029E-05	-5.24521E-05	-0.000190735	9.387207031	-2.703857422	1.689147949	-0.001335144	-0.002622604	-0.009536743	-0.829589844	0.310302734	0.503417969	878.82	-55.99590543	-71.14470636	-109.919529	-69
17580	0	0.371202469	-0.107406616	0.069412231	0.999999046	8.67844E-05	6.48499E-05	5.62668E-05	9.280061722	-2.685165405	1.735305786	0.004339218	0.003242493	0.002813339	-0.827148438	0.310302734	0.503173828	878.78	-55.95836392	-71.14079302	-109.9459961	-68
17581	0	0.369384766	-0.106872559	0.070617676	0.999999046	0.000156403	-0.000288963	-0.000202179	9.234619141	-2.671813965	1.765441895	0.00782013	-0.014448166	-0.010108948	-0.829589844	0.310302734	0.500488281	878.78	-55.96282148	-71.18406512	-109.91973	-66
17582	0	0.371055603	-0.108592033	0.070375443	0.999998093	0.000330925	-0.000212669	-0.000190735	9.276390076	-2.714800835	1.759386063	0.01654625	-0.010633469	-0.009536743	-0.829589844	0.310302734	0.506347656	878.82	-55.92847198	-71.22126121	-109.915253	-67
17583	0	0.371459961	-0.108154297	0.071716309	0.999999046	0.000637054	-0.00033474	-3.8147E-05	9.286499023	-2.703857422	1.792907715	0.031852725	-0.016736986	-0.001907349	-0.829589844	0.308105469	0.506591797	878.88	-55.92203768	-71.25169252	-109.8499173	-66
17584	0	0.370355606	-0.108159065	0.070261955	0.999999046	0.000468254	-0.000440598	-0.000137329	9.258890152	-2.703976631	1.756548882	0.023412706	-0.022029878	-0.006866456	-0.829589844	0.310302734	0.506347656	878.82	-55.94624321	-71.29822424	-109.7683875	-66
17585	0	0.371887207	-0.10949707	0.069824219	0.999999046	0.000839233	-0.000407219	6.10352E-05	9.297180176	-2.737426758	1.745605469	0.041961676	-0.02036095	0.003051758	-0.829589844	0.310302734	0.506347656	878.88	-55.9568257	-71.32363621	-109.6583463	-66
17586	0	0.371137619	-0.108081818	0.0703125	0.999999046	0.000928879	-0.000253677	-1.23978E-05	9.278440475	-2.702045441	1.7578125	0.046443946	-0.01268387	-0.000619888	-0.829589844	0.310302734	0.500488281	878.84	-55.90037521	-71.34606408	-109.6079501	-66
17587	0	0.373840332	-0.108093262	0.067138672	0.999999046	0.00044632	-0.000212669	0.000289917	9.346008301	-2.702331543	1.678466797	0.02231598	-0.010633469	0.01449585	-0.827148438	0.310302734	0.503173828	878.72	-55.9458517	-71.33717963	-109.5096584	-66
17588	0	0.37234211	-0.107697487	0.069943428	0.999999046	0.000412941	-4.3869E-05	0.000224113	9.308552742	-2.692437172	1.748585701	0.02064705	-0.002193451	0.011205674	-0.827148438	0.310302734	0.506103516	878.78	-55.93538674	-71.32363192	-109.4770143	-66
17589	0	0.372436523	-0.105285645	0.067932129	0.999999046	-6.48499E-05	-0.000109673	0.000514984	9.310913086	-2.632141113	1.698303223	-0.003242493	-0.005483628	0.025749208	-0.829589844	0.3125	0.503173828	878.84	-56.05342408	-71.28674995	-109.3640166	-66
17590	0	0.372404099	-0.105190277	0.067103386	0.999999046	-5.34058E-05	-8.96454E-05	0.000553131	9.310102463	-2.629756927	1.677584648	-0.002670288	-0.00448227	0.027656557	-0.827392578	0.314697266	0.5	878.82	-56.17158006	-71.24501069	-109.2441661	-66
17591	0	0.372436523	-0.104248047	0.068115234	0.999999046	-0.000167847	-0.000109673	0.000534058	9.310913086	-2.606201172	1.702880859	-0.008392334	-0.005483628	0.026702882	-0.827392578	0.314697266	0.505859375	878.92	-56.30443648	-71.206432	-109.1261985	-66
17592	0	0.371608734	-0.103203773	0.068181038	0.999999046	-0.000161171	-0.000301361	0.000330925	9.290218353	-2.580094337	1.704525948	-0.008058548	-0.015068055	0.01654625	-0.827392578	0.314697266	0.5	878.94	-56.45189697	-71.19949133	-108.9904711	-66
17593	0	0.374145508	-0.104980469	0.068908691	0.999999046	-0.000167847	-0.000258446	0.000152588	9.353637695	-2.624511719	1.722717285	-0.008392334	-0.012922287	0.007629395	-0.827392578	0.314697266	0.505859375	878.84	-56.55483008	-71.20691862	-108.9046704	-66
17594	0	0.371282578	-0.103348732	0.072220802	0.999999046	6.67572E-05	-0.000343323	-0.000248909	9.282064438	-2.5837183	1.805520058	0.00333786	-0.017166138	-0.01244545	-0.824951172	0.314697266	0.502685547	878.92	-56.57965057	-71.25812761	-108.8691356	-65
17595	0	0.37097168	-0.104064941	0.069396973	0.999999046	-0.000591278	-0.000346184	-3.05176E-05	9.274291992	-2.601623535	1.734924316	-0.029563906	-0.01730919	-0.001525879	-0.824951172	0.314697266	0.505615234	878.88	-56.72132729	-71.28867818	-108.7892216	-65
17596	0	0.373347282	-0.107423782	0.072183609	0.999999046	-0.000359535	-0.0001297	-0.000133514	9.33368206	-2.685594559	1.804590225	-0.017976761	-0.006484986	-0.00667572	-0.824951172	0.3125	0.505859375	878.84	-56.75593765	-71.31535413	-108.7973163	-64
17597	0	0.371337891	-0.105651855	0.070983887	0.999999046	-0.000553131	4.673E-05	-0.000205994	9.283447266	-2.641296387	1.774597168	-0.027656557	0.002336502	-0.010299683	-0.824951172	0.3125	0.508789063	878.94	-56.74888989	-71.33785611	-108.8715102	-64
17598	0	0.373390198	-0.109664917	0.069858551	0.999999046	-0.000471115	4.00543E-05	-6.10352E-05	9.334754944	-2.741622925	1.746463776	-0.023555757	0.002002716	-0.003051758	-0.827148438	0.310302734	0.506103516	878.88	-56.76140628	-71.34674451	-108.9185169	-64
17599	0	0.36920166	-0.107116699	0.070800781	0.999999046	-0.000385284	0.000256538	-0.000270844	9.230041504	-2.67791748	1.770019531	-0.019264222	0.01282692	-0.013542176	-0.827392578	0.3125	0.506103516	878.84	-56.6632812	-71.36197322	-109.0653554	-63
17600	0	0.371117592	-0.111060143	0.070477486	0.999999046	-0.00058651	5.72205E-06	-0.000206947	9.277939796	-2.776503563	1.761937141	-0.029325487	0.000286102	-0.010347367	-0.827148438	0.310302734	0.506103516	878.84	-56.67143366	-71.38658812	-109.1264211	-63
17601	0	0.374328613	-0.109375	0.068115234	0.999999046	-0.000320435	0.000245094	-9.91821E-05	9.358215332	-2.734375	1.702880859	-0.016021729	0.012254715	-0.004959107	-0.829589844	0.310302734	0.509277344	878.78	-56.60155152	-71.38572172	-109.2390478	-63
17602	0	0.371081352	-0.109772682	0.068653107	0.999999046	-0.000703812	0.000349045	0.000227928	9.277033806	-2.744317055	1.716327667	-0.035190586	0.017452242	0.011396409	-0.826904297	0.305908203	0.506591797	878.78	-56.60778811	-71.34683142	-109.3230629	-63
17603	0	0.370727539	-0.109008789	0.070617676	0.999999046	-0.000148773	2.38419E-05	0.000118256	9.268188477	-2.725219727	1.765441895	-0.00743866	0.001192093	0.005912781	-0.827148438	0.308105469	0.503417969	878.82	-56.62220721	-71.33878371	-109.3256763	-63
17604	0	0.373139381	-0.107470512	0.069747925	0.999999046	-8.58307E-06	-0.000185013	1.43051E-05	9.328484535	-2.68676281	1.74369812	-0.000429153	-0.009250641	0.000715256	-0.827148438	0.308105469	0.503417969	878.82	-56.66036062	-71.35381411	-109.2861167	-63
17605	0	0.372741699	-0.108154297	0.072875977	0.999999046	0.000171661	-0.000117302	5.72205E-05	9.31854248	-2.703857422	1.821899414	0.008583069	-0.005865097	0.002861023	-0.829345703	0.305908203	0.509521484	878.84	-56.66632575	-71.36031434	-109.2670985	-63
17606	0	0.377017975	-0.106221199	0.069648743	0.999999046	-0.000274658	0.00012207	0.000255585	9.425449371	-2.655529976	1.741218567	-0.013732911	0.006103516	0.012779236	-0.827148438	0.308105469	0.506347656	878.82	-56.69241354	-71.33283083	-109.2737737	-63
17607	0	0.374328613	-0.105651855	0.072937012	0.999999046	-0.000205994	0.000409126	0.000102997	9.358215332	-2.641296387	1.823425293	-0.010299683	0.020456315	0.005149841	-0.827148438	0.308105469	0.506347656	878.94	-56.60041631	-71.30184741	-109.3963896	-63
17608	0	0.374372482	-0.096969604	0.071371078	0.999999046	-0.001032829	0.000549316	0.000113487	9.359312057	-2.424240112	1.784276962	-0.051641476	0.027465827	0.005674363	-0.829589844	0.308105469	0.506591797	878.78	-56.56480857	-71.26135236	-109.5588721	-63
17609	0	0.388244629	-0.094360352	0.077209473	0.999992371	-0.003489494	0.001079559	0.000286102	9.706115723	-2.359008789	1.930236816	-0.174475107	0.053978087	0.014305147	-0.829345703	0.305908203	0.506591797	878.92	-56.69198044	-71.17152161	-109.8437631	-62
17610	0	0.392282486	-0.091450691	0.084378242	0.999986649	-0.004443169	0.002532005	0.000480652	9.807062149	-2.286267281	2.109456062	-0.222159409	0.126600822	0.024032698	-0.829345703	0.303710938	0.509765625	878.88	-56.55799116	-70.97207564	-110.5168923	-61
17611	0	0.38494873	-0.071289063	0.088439941	0.999956131	-0.007899284	0.004905701	0.000694275	9.623718262	-1.782226563	2.210998535	-0.394969942	0.245288589	0.034714248	-0.831542969	0.299316406	0.504394531	878.84	-56.21630433	-70.60190757	-111.8227096	-60
17612	0	0.38965416	-0.063732147	0.091459274	0.999875069	-0.014182091	0.006917953	0.000400543	9.741353989	-1.59330368	2.286481857	-0.709133987	0.34591204	0.020027992	-0.838134766	0.290527344	0.499755859	878.92	-56.03295881	-70.1306338	-113.717351	-58
17613	0	0.389465332	-0.067687988	0.102722168	0.999835014	-0.015346527	0.009373665	-0.00239563	9.736633301	-1.692199707	2.568054199	-0.767368452	0.468708955	-0.119788066	-0.846923828	0.275146484	0.495605469	878.98	-54.89956808	-69.75739686	-116.7609871	-57
17614	0	0.386240005	-0.070036888	0.107666016	0.999844551	-0.013820648	0.010017395	-0.004314423	9.656000137	-1.750922203	2.691650391	-0.691068115	0.500895631	-0.215732277	-0.860107422	0.253417969	0.489501953	878.88	-53.15116249	-69.49309949	-120.282322	-57
17615	0	0.391845703	-0.073913574	0.108764648	0.99990654	-0.005888939	0.010532379	-0.006313324	9.796142578	-1.847839355	2.719116211	-0.294456048	0.526635237	-0.315675957	-0.87109375	0.235839844	0.477050781	878.84	-50.05715025	-69.32035369	-124.2751157	-57
17616	0	0.389843941	-0.051733971	0.099085808	0.999898911	-0.004274368	0.011282921	-0.007430077	9.746098518	-1.293349266	2.477145195	-0.213725567	0.564164922	-0.371516263	-0.889160156	0.218505859	0.456298828	878.82	-46.45004618	-69.10510079	-128.6261469	-59
17617	0	0.373535156	-0.052734375	0.097351074	0.9998703	-0.007380486	0.01215744	-0.007526398	9.338378906	-1.318359375	2.433776855	-0.369040203	0.607898244	-0.376336127	-0.90234375	0.198730469	0.441162109	878.76	-43.09478632	-68.7337508	-133.0952693	-58
17618	0	0.372633934	-0.062944412	0.09643364	0.999887466	-0.002636909	0.011809349	-0.008835793	9.315848351	-1.573610306	2.410840988	-0.131850408	0.590489547	-0.441806158	-0.917724609	0.178955078	0.423339844	878.78	-39.11831635	-68.38952444	-137.6618611	-56
17619	0	0.354736328	-0.047729492	0.08416748	0.999895096	-0.000227928	0.011035919	-0.009307861	8.868408203	-1.193237305	2.104187012	-0.011396804	0.551815134	-0.465409239	-0.930908203	0.161376953	0.399414063	878.84	-35.03664349	-68.03338575	-142.0561795	-55
17620	0	0.346961975	-0.045632362	0.081985474	0.999897003	-0.001304626	0.010504723	-0.009680748	8.674049377	-1.140809059	2.049636841	-0.065233561	0.525254144	-0.484054001	-0.946533203	0.144042969	0.381591797	878.84	-31.21803024	-67.64132367	-146.3087279	-58
17621	0	0.318237305	-0.044555664	0.080810547	0.999886513	-0.000297546	0.010247231	-0.010990143	7.955932617	-1.113891602	2.020263672	-0.014877879	0.512380817	-0.54952783	-0.959472656	0.124267578	0.354980469	878.9	-27.15477871	-67.23964328	-150.7117228	-57
17622	0	0.283222198	-0.034404755	0.092767715	0.999885559	0.002303123	0.009057045	-0.011844635	7.080554962	-0.860118866	2.319192886	0.115160543	0.452869431	-0.592254221	-0.967773438	0.102050781	0.33984375	878.92	-22.87464848	-66.88108212	-155.0399049	-52
17623	0	0.233032227	-0.028137207	0.101501465	0.999849319	0.004448891	0.010498047	-0.013019562	5.825805664	-0.703430176	2.537536621	0.22245564	0.52492855	-0.651010589	-0.976074219	0.079833984	0.321777344	878.82	-18.09233594	-66.28130438	-159.661237	-55
17624	0	0.138008118	-0.007031441	0.114453316	0.999725342	0.007774353	0.016543388	-0.014642715	3.450202942	-0.175786018	2.861332893	0.388753198	0.827245059	-0.732202723	-0.989013672	0.057861328	0.298095703	878.88	-12.46000981	-64.89362064	-164.8266998	-57
17625	0	0.082946777	0.014160156	0.14465332	0.999736786	0.007428169	0.016040802	-0.014621735	2.073669434	0.354003906	3.616333008	0.371441048	0.802110466	-0.731150872	-0.999023438	0.03125	0.260253906	878.88	-7.476323609	-63.36509622	-169.3805399	-56
17626	0	0.153263092	0.021046638	0.17461586	0.99977684	0.010457039	0.013756752	-0.012091637	3.831577301	0.526165962	4.3653965	0.522890713	0.687888603	-0.604626662	-1.009521484	0.006835938	0.230957031	878.88	-3.256902671	-61.91115112	-172.7553375	-57
17627	0	0.168212891	0.039123535	0.197631836	0.999433517	0.016171455	0.026096344	-0.013786316	4.205322266	0.978088379	4.940795898	0.808725478	1.305063631	-0.689445982	-1.015380859	-0.008789063	0.197753906	878.84	1.526871133	-58.92333517	-176.082887	-60
17628	0	0.214938164	0.066171646	0.24405098	0.999368668	0.019702911	0.02679348	-0.012466431	5.373454094	1.654291153	6.10127449	0.985352815	1.339955824	-0.623452662	-1.027587891	-0.033203125	0.145263672	878.9	5.767603694	-55.74073252	-178.4100318	-55
17629	0	0.304016113	0.08392334	0.220947266	0.999168396	0.019490242	0.033351898	-0.013046265	7.600402832	2.098083496	5.523681641	0.974782311	1.668057297	-0.652494105	-1.033203125	-0.049072266	0.091796875	878.88	9.394392294	-51.72534129	179.9067285	-55
17630	0	0.303607941	0.098173141	0.206170082	0.999027252	0.006245613	0.041394234	-0.013810158	7.590198517	2.454328537	5.154252052	0.312381881	2.070382586	-0.690731718	-1.037841797	-0.073974609	0.015869141	878.84	10.99889972	-46.74671843	178.7858944	-57
17631	0	0.252319336	0.083374023	0.219848633	0.998802185	-0.004908562	0.046981812	-0.012710571	6.307983398	2.084350586	5.49621582	-0.245526073	2.35002846	-0.635782302	-1.03515625	-0.099365234	-0.072265625	878.92	10.87973958	-41.1542522	178.1991637	-59
17632	0	0.259090424	0.080791473	0.216383934	0.998823166	-0.015953064	0.045229912	-0.007116318	6.47726059	2.019786835	5.409598351	-0.797966061	2.262382616	-0.355955449	-1.022949219	-0.120605469	-0.172607422	878.94	9.022269271	-35.88152953	178.2684578	-63
17633	0	0.471618652	0.034179688	0.203857422	0.999231339	-0.034350395	0.015651703	0.010494232	11.79046631	0.854492188	5.096435547	-1.717959478	0.782785501	0.524845945	-1.009521484	-0.1171875	-0.263671875	878.82	4.144897454	-34.22724472	179.8365545	-63
17634	0	1.139801025	-0.151374817	0.411581993	0.999809265	0.00042057	-0.010167122	0.016639709	28.49502563	-3.784370422	10.28954983	0.021029852	-0.508388332	0.832038234	-1.014404297	-0.059082031	-0.256591797	878.92	2.946743946	-35.53600116	-177.9771423	-63
17635	0	0.475646973	-0.071899414	0.614685059	0.99829483	0.047600746	-0.014995575	-0.030261993	11.89117432	-1.797485352	15.36712646	2.381390644	-0.750205087	-1.513960049	-1.014404297	-0.063476563	-0.259277344	878.82	11.10506257	-36.84626746	177.7406073	-62
17636	0	0.495149612	0.132133484	0.477461815	0.998699188	-0.012086868	-0.046769142	-0.016299248	12.37874031	3.303337097	11.93654537	-0.604605514	-2.339471279	-0.81531583	-1.019042969	-0.151855469	-0.181884766	878.9	12.13342346	-41.75383709	174.0145565	-62
17637	0	0.282043457	-0.028808594	0.420776367	0.998962402	-0.043250084	-0.013641357	-0.004013062	7.051086426	-0.720214844	10.51940918	-2.163251953	-0.682303718	-0.200722459	-1.026855469	-0.164550781	-0.113769531	878.92	7.865472467	-43.2391784	172.9966885	-61
17638	0	0.037846565	-0.065799713	0.331002235	0.999084473	-0.041146278	-0.009724617	0.006422043	0.946164131	-1.644992828	8.275055885	-2.057941514	-0.486379178	0.321200096	-1.031982422	-0.162109375	-0.104980469	878.88	2.561811775	-44.43180989	173.7778919	-63
17639	0	0.06854248	-0.086425781	0.187194824	0.999351501	-0.030146599	-0.008541107	0.01770401	1.713562012	-2.160644531	4.679870605	-1.507655513	-0.4271476	0.885391697	-1.035644531	-0.1328125	-0.098388672	878.92	-2.908196035	-45.41723282	176.5178274	-62
17640	0	0.23584938	-0.040097237	0.323349953	0.997739792	-0.06244278	-0.006604195	0.023918152	5.896234512	-1.002430916	8.083748817	-3.124493065	-0.33045871	1.196809305	-1.042480469	-0.088134766	-0.087158203	878.88	-12.94093078	-45.79938936	-179.618839	-63
17641	0	0.390686035	-0.452697754	0.441040039	0.993968964	-0.10195446	0.034648895	0.02072525	9.767150879	-11.31744385	11.02600098	-5.107995201	1.735935735	1.038350638	-1.043701172	-0.005615234	-0.088378906	878.9	-25.55647095	-41.27296865	-178.3314395	-64
17642	0	0.321588516	-0.265076637	0.187525749	0.999177933	0.020882607	0.033751488	0.008252144	8.039712906	-6.626915932	4.68814373	1.044416515	1.68803694	0.412720286	-1.033447266	0.015625	-0.180664063	878.94	-22.60098324	-37.36525311	-179.2508935	-64
17643	0	0.113952637	-0.151367188	0.325622559	0.999135971	0.03741169	0.011177063	0.014228821	2.848815918	-3.784179688	8.140563965	1.87112333	0.559014133	0.711645978	-1.017333984	0.056884766	-0.251708984	878.92	-19.12593195	-35.59030326	-177.8895796	-64
17644	0	0.290291786	-0.164419174	0.361599922	0.999205589	0.039719582	-0.002735138	-0.00117588	7.257294655	-4.110479355	9.039998055	1.986504584	-0.136793084	-0.058809579	-1.018798828	0.039306641	-0.250244141	878.82	-14.57144783	-35.93129575	-177.8912587	-65
17645	0	0.203063965	0.008422852	0.327941895	0.999505043	0.031257629	-0.001112938	0.003143311	5.076599121	0.210571289	8.198547363	1.56313898	-0.055656065	0.157191423	-1.015625	0.0234375	-0.254882813	878.98	-11.28351862	-35.97503492	-177.4045172	-66
17646	0	0.217554092	0.057834625	0.28015995	0.999954224	-0.006379128	-0.005017281	0.004880905	5.43885231	1.445865631	7.003998756	-0.318961143	-0.250867779	0.244048906	-1.018066406	0.019042969	-0.251464844	878.84	-12.51341202	-36.42295368	-176.6205771	-65
17647	0	0.2421875	-0.064819336	0.287780762	0.999594688	-0.02766037	-0.002490044	0.006252289	6.0546875	-1.620483398	7.194519043	-1.383205359	-0.124519004	0.312656679	-1.019042969	0.037109375	-0.23828125	878.92	-16.26011473	-36.52317319	-175.7279936	-65
17648	0	0.260135651	-0.141372681	0.290064812	0.999788284	-0.019062042	0.004824638	0.006028175	6.503391266	-3.534317017	7.251620293	-0.953169315	0.241248928	0.30143002	-1.020019531	0.063964844	-0.240478516	878.92	-18.81836508	-35.7910395	-175.1551889	-65
17649	0	0.248901367	-0.150512695	0.287780762	0.999912262	-0.003920555	0.011302948	0.005516052	6.22253418	-3.762817383	7.194519043	-0.196033426	0.565163748	0.275810591	-1.015869141	0.081542969	-0.248046875	878.92	-19.40598731	-34.36427781	-174.9550271	-64
17650	0	0.225313187	-0.127970695	0.31469059	0.999858856	0.006287575	0.014391899	0.005843163	5.632829666	-3.199267387	7.867264748	0.314393453	0.719628637	0.292171802	-1.006347656	0.092041016	-0.278564453	878.84	-18.76434891	-32.59037991	-174.8496244	-64
17651	0	0.204345703	-0.099731445	0.33026123	0.999882698	0.007461548	0.011460304	0.006896973	5.108642578	-2.493286133	8.256530762	0.37309198	0.573037619	0.344862117	-0.999023438	0.100585938	-0.305664063	878.94	-18.13258928	-31.09714311	-174.4690655	-64
17652	0	0.189570427	-0.104968071	0.338736534	0.999905586	0.005419731	0.005578995	0.011294365	4.739260674	-2.624201775	8.468413353	0.270995051	0.278958482	0.564735948	-0.987304688	0.11328125	-0.327880859	878.88	-18.13604	-30.08794656	-173.3069078	-64
17653	0	0.181030273	-0.109985352	0.332641602	0.999961853	0.00389576	-0.000732422	0.007740021	4.525756836	-2.749633789	8.316040039	0.194790434	-0.036621555	0.387005915	-0.983154297	0.128662109	-0.335205078	878.98	-18.20557814	-29.89104567	-172.3363872	-64
17654	0	0.188163757	-0.114331245	0.327028275	0.99998951	0.001678467	-0.003973007	0.00101757	4.704093933	-2.858281136	8.175706863	0.083923615	-0.19865101	0.050878691	-0.986083984	0.142333984	-0.330322266	878.92	-18.1741203	-30.28651578	-172.0454147	-64
17655	0	0.194274902	-0.117004395	0.320678711	0.999979019	0.001023293	-0.005828857	-0.002521515	4.856872559	-2.925109863	8.016967773	0.05116498	-0.291444881	-0.126076614	-0.986083984	0.137939453	-0.323974609	878.92	-18.03154082	-31.01029467	-172.1234972	-64
17656	0	0.210526466	-0.116037369	0.31622982	0.999972343	0.002669334	-0.005271912	-0.004481316	5.263161659	-2.900934219	7.905745506	0.133467944	-0.263597997	-0.224067835	-0.990722656	0.131347656	-0.308837891	878.88	-17.55465496	-31.74197718	-172.4669151	-64
17657	0	0.220092773	-0.109313965	0.317138672	0.999973297	0.003781319	-0.003284454	-0.005203247	5.502319336	-2.732849121	7.928466797	0.189067577	-0.164224145	-0.260164615	-0.995361328	0.122802734	-0.304931641	878.84	-16.84941781	-32.27798861	-172.9860695	-64
17658	0	0.216452599	-0.097154617	0.319286346	0.999976158	0.00479126	-0.001062393	-0.004673958	5.411314964	-2.428865433	7.982158661	0.239564822	-0.053120066	-0.23369968	-0.997070313	0.109375	-0.303710938	878.88	-16.01007113	-32.54664153	-173.5367671	-64
17659	0	0.215209961	-0.082336426	0.321166992	0.999986649	0.004769325	3.05176E-05	-0.001438141	5.380249023	-2.058410645	8.029174805	0.238467249	0.001525885	-0.071907341	-0.999023438	0.096191406	-0.302490234	878.84	-15.37451206	-32.58833897	-173.7283767	-64
17660	0	0.213281631	-0.077519417	0.319617271	0.999998093	0.001695633	0.000412941	0.000466347	5.332040787	-1.93798542	7.990431786	0.084781693	0.02064706	0.02331735	-1.001220703	0.091796875	-0.302001953	878.84	-15.21695888	-32.52914746	-173.6955639	-64
17661	0	0.211303711	-0.08215332	0.317565918	0.999997139	-0.001716614	0.000382423	0.000946045	5.282592773	-2.053833008	7.939147949	-0.085830746	0.019121183	0.047302278	-0.998779297	0.093994141	-0.302246094	878.9	-15.48396259	-32.45880881	-173.6004681	-64
17662	0	0.212776184	-0.09263134	0.320952415	0.999994278	-0.002926826	0.000538826	0.001315117	5.319404602	-2.315783501	8.023810387	-0.146341582	0.026941347	0.06575596	-0.999023438	0.096191406	-0.302490234	878.98	-15.91171983	-32.35924227	-173.4689215	-64
17663	0	0.212097168	-0.097900391	0.319702148	0.999997139	-0.001918793	0.000809669	0.001152039	5.302429199	-2.447509766	7.992553711	-0.095939727	0.040483513	0.057601983	-0.999267578	0.102783203	-0.305908203	878.88	-16.2063867	-32.23425845	-173.3632441	-64
17664	0	0.210799217	-0.098954201	0.322657585	0.999998093	-0.000606537	0.000987053	0.00098896	5.269980431	-2.473855019	8.066439629	-0.030326855	0.049352665	0.049448032	-0.996826172	0.104980469	-0.306152344	878.94	-16.33506383	-32.09454603	-173.2852896	-64
17665	0	0.20880127	-0.096679688	0.323852539	0.999999046	-0.000350952	0.000790596	0.000610352	5.220031738	-2.416992188	8.096313477	-0.017547611	0.039529808	0.030517584	-0.997070313	0.107177734	-0.303466797	878.94	-16.41165682	-31.98839127	-173.2455195	-64
17666	0	0.206951141	-0.096427917	0.323928833	0.999999046	-0.000513077	0.000164032	0.000445366	5.173778534	-2.410697937	8.098220825	-0.025653841	0.0082016	0.022268297	-0.996826172	0.104980469	-0.306152344	878.92	-16.50767422	-31.95620113	-173.2130917	-64
17667	0	0.208862305	-0.098571777	0.324462891	0.999999046	-0.000408173	-0.000121117	0.000389099	5.221557617	-2.464294434	8.111572266	-0.020408632	-0.006055832	0.019454957	-0.997070313	0.109375	-0.309570313	878.88	-16.59329161	-31.95700036	-173.1710394	-64
17668	0	0.208070755	-0.097836494	0.320425987	0.999999046	-0.000247002	-6.67572E-05	0.00031662	5.201768875	-2.445912361	8.010649681	-0.012350083	-0.00333786	0.015830994	-0.997070313	0.107177734	-0.306396484	878.88	-16.65408606	-31.95411185	-173.1459171	-64
17669	0	0.207824707	-0.099365234	0.321716309	0.999999046	-0.000125885	-4.1008E-05	0.000144958	5.195617676	-2.484130859	8.042907715	-0.006294251	-0.0020504	0.007247925	-0.997070313	0.109375	-0.309570313	878.84	-16.68848978	-31.95392719	-173.1413531	-64
17670	0	0.209470749	-0.097432137	0.322588921	0.999999046	8.7738E-05	-1.90735E-06	9.05991E-05	5.236768723	-2.435803413	8.064723015	0.004386902	-9.53674E-05	0.004529953	-0.997070313	0.107177734	-0.306396484	878.82	-16.69353171	-31.95121073	-173.1490218	-64
17671	0	0.209411621	-0.097473145	0.323913574	0.999999046	-0.000289917	2.38419E-05	0.000160217	5.235290527	-2.436828613	8.097839355	-0.01449585	0.001192093	0.008010864	-0.994628906	0.111572266	-0.312744141	878.82	-16.74571184	-31.94331869	-173.1424164	-64
17672	0	0.208693504	-0.098399162	0.323133469	0.999999046	-0.000239372	0.000146866	0.000221252	5.217337608	-2.459979057	8.078336716	-0.011968613	0.007343292	0.011062622	-0.994628906	0.111572266	-0.309814453	878.82	-16.79341682	-31.91983235	-173.1324276	-64
17673	0	0.208679199	-0.098205566	0.323425293	0.999999046	-0.000236511	0.000103951	0.000217438	5.21697998	-2.45513916	8.085632324	-0.011825562	0.005197525	0.010871887	-0.997070313	0.111572266	-0.309570313	878.92	-16.84106262	-31.90110125	-173.1230533	-64
17674	0	0.209057808	-0.099060059	0.323177338	0.999999046	-0.000320435	0.000133514	0.000254631	5.226445198	-2.476501465	8.079433441	-0.016021729	0.00667572	0.012731553	-0.994628906	0.111572266	-0.306884766	878.88	-16.89994051	-31.87783595	-173.109546	-64
17675	0	0.208862305	-0.099365234	0.323303223	0.999999046	-1.90735E-05	0.000184059	0.000221252	5.221557617	-2.484130859	8.082580566	-0.000953674	0.009202957	0.011062622	-0.994628906	0.111572266	-0.306884766	878.92	-16.92065203	-31.8500812	-173.1032161	-64
17676	0	0.207600594	-0.099103928	0.323313713	0.999999046	-8.10623E-05	0.000102997	0.00020504	5.190014839	-2.47759819	8.082842827	-0.004053116	0.005149841	0.010251999	-0.997070313	0.113769531	-0.309814453	878.92	-16.94872451	-31.83166089	-173.0938851	-64
17677	0	0.207397461	-0.100708008	0.323730469	0.999999046	-0.000133514	-0.000170708	0.000164032	5.184936523	-2.517700195	8.093261719	-0.00667572	-0.008535385	0.008201599	-0.994873047	0.113769531	-0.310058594	878.88	-16.98547039	-31.84448882	-173.0797996	-64
17678	0	0.20808506	-0.099580765	0.322716713	0.999999046	0.000143051	-0.000181198	3.71933E-05	5.202126503	-2.489519119	8.067917824	0.007152557	-0.009059906	0.001859665	-0.994628906	0.113769531	-0.312988281	878.94	-16.98183884	-31.86265417	-173.0832834	-64
17679	0	0.208007813	-0.100891113	0.323059082	0.999999046	0.000110626	-0.000185966	0.000102997	5.200195313	-2.522277832	8.076477051	0.005531311	-0.009298325	0.005149841	-0.994628906	0.113769531	-0.312988281	878.88	-16.98630943	-31.8790608	-173.0784356	-64
17680	0	0.207618713	-0.099946976	0.32294178	0.999999046	0.000575066	-0.000143051	-0.000119209	5.190467834	-2.498674393	8.073544502	0.028753282	-0.007152558	-0.005960465	-0.994873047	0.113769531	-0.310058594	878.82	-16.92126619	-31.89810866	-173.1010501	-64
17681	0	0.207702637	-0.099121094	0.322814941	0.999999046	0.000499725	-0.000277519	-3.05176E-05	5.192565918	-2.478027344	8.070373535	0.024986268	-0.013875962	-0.001525879	-0.994628906	0.113769531	-0.315673828	878.78	-16.87341874	-31.9288469	-173.1092457	-64
17682	0	0.207950592	-0.098723412	0.324995041	0.999999046	0.000528336	-0.000169754	-0.000157356	5.198764801	-2.468085289	8.124876022	0.02641678	-0.008487702	-0.007867814	-0.997314453	0.113769531	-0.306884766	878.92	-16.81107255	-31.95185311	-173.1325809	-64
17683	0	0.208129883	-0.097961426	0.322631836	0.999999046	0.000461578	-0.00020504	-0.000171661	5.20324707	-2.449035645	8.065795898	0.02307892	-0.010251999	-0.008583069	-0.994628906	0.111572266	-0.306884766	878.88	-16.75582782	-31.97912072	-173.1595328	-64
17684	0	0.208784103	-0.098142624	0.322025299	0.999999046	0.000447273	-0.000183105	-0.000134468	5.219602585	-2.453565598	8.050632477	0.022363664	-0.009155274	-0.006723404	-0.994628906	0.109375	-0.306640625	878.9	-16.70406854	-32.00270829	-173.1861759	-64
17685	0	0.209472656	-0.096496582	0.32220459	0.999999046	0.00038147	-5.24521E-05	-0.000198364	5.236816406	-2.412414551	8.055114746	0.019073487	-0.002622604	-0.009918213	-0.994628906	0.109375	-0.306640625	878.84	-16.65246264	-32.01404757	-173.2246632	-64
17686	0	0.207653046	-0.097328186	0.323415756	0.999999046	0.000209808	-2.28882E-05	-6.19888E-05	5.191326141	-2.433204651	8.085393906	0.010490418	-0.001144409	-0.003099442	-0.997070313	0.109375	-0.309570313	878.84	-16.62902908	-32.01753347	-173.2480249	-64
17687	0	0.208496094	-0.097167969	0.324645996	0.999999046	0.000457764	-0.000330925	-7.24792E-05	5.212402344	-2.429199219	8.116149902	0.022888185	-0.01654625	-0.003623963	-0.994628906	0.109375	-0.306640625	878.84	-16.58250518	-32.05507415	-173.2579675	-64
17688	0	0.208539963	-0.095622063	0.322397232	0.999999046	0.000338554	-0.000268936	-0.000156403	5.213499069	-2.390551567	8.059930801	0.01692772	-0.013446808	-0.00782013	-0.996826172	0.107177734	-0.312255859	878.76	-16.5422884	-32.08849186	-173.2884113	-64
17689	0	0.210693359	-0.095581055	0.322143555	0.999999046	0.000144958	-0.000288963	-6.10352E-05	5.267333984	-2.389526367	8.053588867	0.007247925	-0.014448166	-0.003051758	-0.997070313	0.109375	-0.309570313	878.9	-16.53095402	-32.12103956	-173.2990823	-64
17690	0	0.209182739	-0.09515667	0.323147774	0.999999046	-0.000110626	0.000164032	0.0001297	5.229568481	-2.37891674	8.078694344	-0.005531311	0.008201599	0.006484985	-0.997070313	0.109375	-0.309570313	878.84	-16.55248855	-32.09754664	-173.30298	-64
17691	0	0.207336426	-0.096740723	0.321533203	0.999999046	-0.0001297	-0.000102043	0.00012207	5.183410645	-2.418518066	8.038330078	-0.006484985	-0.005102158	0.006103516	-0.996826172	0.107177734	-0.309326172	878.84	-16.58095459	-32.10342711	-173.3029075	-64
17692	0	0.210553169	-0.095777512	0.323112488	0.999999046	-0.000144005	-5.14984E-05	0.000198364	5.263829231	-2.39443779	8.077812195	-0.007200241	-0.002574921	0.009918213	-0.997070313	0.109375	-0.303710938	878.78	-16.61501821	-32.1012678	-173.288146	-64
17693	0	0.208740234	-0.096984863	0.322937012	0.999999046	-0.000148773	2.76566E-05	0.000213623	5.218505859	-2.424621582	8.073425293	-0.00743866	0.001382828	0.010681152	-0.994628906	0.107177734	-0.306640625	878.88	-16.64885096	-32.08982764	-173.2812534	-64
17694	0	0.209779739	-0.097109795	0.323285103	0.999999046	8.2016E-05	-0.000116348	0.000174522	5.244493484	-2.427744865	8.082127571	0.0041008	-0.005817413	0.00872612	-0.999267578	0.109375	-0.309326172	878.84	-16.65630603	-32.09544392	-173.27188	-64
17695	0	0.20892334	-0.096130371	0.32232666	0.999999046	-0.0001297	-1.81198E-05	0.000144958	5.223083496	-2.403259277	8.058166504	-0.006484985	-0.000905991	0.007247925	-0.997070313	0.109375	-0.303710938	878.92	-16.68372481	-32.09120657	-173.2674327	-64
17696	0	0.208662987	-0.09651947	0.32381916	0.999999046	-0.00017643	-7.05719E-05	0.000185966	5.216574669	-2.412986755	8.095479012	-0.008821488	-0.003528595	0.009298325	-0.997070313	0.109375	-0.303710938	878.92	-16.72015743	-32.09128138	-173.2566075	-64
17697	0	0.209289551	-0.096740723	0.323181152	0.999999046	-0.000347137	0.000134468	0.000267029	5.23223877	-2.418518066	8.079528809	-0.017356873	0.006723404	0.013351441	-0.997070313	0.109375	-0.309570313	878.88	-16.77725082	-32.06612003	-173.2476132	-64
17698	0	0.20945549	-0.097932816	0.323840141	0.999999046	-0.000152588	0.00028801	0.000198364	5.236387253	-2.448320389	8.096003532	-0.007629395	0.014400483	0.009918213	-0.994628906	0.111572266	-0.312744141	878.84	-16.80394319	-32.02632092	-173.2504326	-64
17699	0	0.208984375	-0.097167969	0.323181152	0.999999046	-0.000202179	0.000344276	0.000286102	5.224609375	-2.429199219	8.079528809	-0.010108948	0.017213822	0.014305115	-0.994628906	0.111572266	-0.312744141	878.84	-16.84092667	-31.97740286	-173.245127	-64
17700	0	0.207240105	-0.098272324	0.324137688	0.999999046	-0.000220299	0.000255585	0.00014782	5.181002617	-2.45680809	8.103442192	-0.011014939	0.012779236	0.007390976	-0.994628906	0.109375	-0.309570313	878.84	-16.87215228	-31.94267505	-173.2577765	-64
17701	0	0.207214355	-0.098083496	0.322631836	0.999999046	4.19617E-05	-3.71933E-05	8.7738E-05	5.180358887	-2.452087402	8.065795898	0.002098083	-0.001859665	0.004386902	-0.992431641	0.111572266	-0.307128906	878.84	-16.87510982	-31.94198229	-173.2603113	-64
17702	0	0.20874691	-0.097971916	0.322134972	0.999999046	-3.8147E-06	1.52588E-05	0.000121117	5.218672752	-2.449297905	8.05337429	-0.000190735	0.000762939	0.006055832	-0.997070313	0.111572266	-0.3125	878.88	-16.88433983	-31.93443658	-173.2645842	-64
17703	0	0.208496094	-0.097290039	0.322387695	0.999999046	6.48499E-05	0.000161171	7.62939E-05	5.212402344	-2.432250977	8.059692383	0.003242493	0.008058548	0.003814697	-0.994628906	0.111572266	-0.309814453	878.92	-16.87940354	-31.91238374	-173.2782892	-64
17704	0	0.208132744	-0.098134995	0.323870659	0.999999046	0.000157356	0.000326157	9.53674E-05	5.203318596	-2.453374863	8.096766472	0.007867813	0.016307831	0.004768372	-0.994628906	0.109375	-0.306640625	878.84	-16.86158246	-31.87155245	-173.2986515	-64
17705	0	0.206481934	-0.09777832	0.323974609	0.999999046	2.28882E-05	0.000138283	7.62939E-05	5.16204834	-2.444458008	8.099365234	0.001144409	0.006914139	0.003814697	-0.994873047	0.113769531	-0.310058594	878.88	-16.86157087	-31.85185081	-173.3064592	-64
17706	0	0.208086967	-0.097490311	0.322998047	0.999999046	-2.47955E-05	5.34058E-05	7.53403E-05	5.202174187	-2.437257767	8.074951172	-0.001239777	0.002670288	0.003767014	-0.994628906	0.111572266	-0.315673828	878.84	-16.86852728	-31.84148479	-173.3186882	-64
17707	0	0.207702637	-0.09777832	0.32409668	0.999999046	-1.90735E-05	0.000218391	8.01086E-05	5.192565918	-2.444458008	8.102416992	-0.000953674	0.010919571	0.004005432	-0.994628906	0.111572266	-0.309814453	878.88	-16.87156395	-31.81282716	-173.3336172	-64
17708	0	0.20742321	-0.097579956	0.32406044	0.999999046	0.00017643	6.29425E-05	7.62939E-06	5.185580254	-2.439498901	8.101511002	0.008821487	0.003147125	0.00038147	-0.997070313	0.111572266	-0.3125	878.78	-16.85028716	-31.8035827	-173.3531371	-64
17709	0	0.207702637	-0.097473145	0.324951172	0.999999046	0.000144958	5.43594E-05	5.72205E-05	5.192565918	-2.436828613	8.123779297	0.007247925	0.002717972	0.002861023	-0.9921875	0.111328125	-0.315673828	878.88	-16.83596767	-31.79357806	-173.3667781	-64
17710	0	0.206253052	-0.097220421	0.323535919	0.999999046	-4.19617E-05	9.91821E-05	3.71933E-05	5.156326294	-2.430510521	8.08839798	-0.002098084	0.004959106	0.001859665	-0.994628906	0.111572266	-0.309814453	878.88	-16.8406076	-31.77925795	-173.3815647	-64
17711	0	0.208068848	-0.097290039	0.324462891	0.999999046	0.000114441	0.000107765	4.57764E-05	5.201721191	-2.432250977	8.111572266	0.005722046	0.00538826	0.002288818	-0.997070313	0.111572266	-0.3125	878.92	-16.82754697	-31.7637046	-173.3971157	-64
17712	0	0.206769943	-0.09735775	0.323857307	0.999999046	0.000149727	0.000120163	0	5.169248581	-2.433943748	8.096432686	0.007486343	0.006008148	0	-0.994384766	0.109130859	-0.315429688	878.88	-16.80692053	-31.74826197	-173.4244941	-64
17713	0	0.207458496	-0.098022461	0.322937012	0.999999046	0.000160217	-1.43051E-05	4.95911E-05	5.186462402	-2.450561523	8.073425293	0.008010864	-0.000715256	0.002479553	-0.994628906	0.111572266	-0.312744141	878.82	-16.79112018	-31.74593767	-173.4333681	-64
17714	0	0.20715332	-0.096413612	0.323998451	0.999999046	0.000118256	1.71661E-05	4.1008E-05	5.178833008	-2.410340309	8.099961281	0.005912781	0.000858307	0.0020504	-0.994628906	0.111572266	-0.315673828	878.88	-16.77870012	-31.74042737	-173.4458005	-64
17715	0	0.207336426	-0.095703125	0.323791504	0.999999046	-2.67029E-05	0.000100136	3.05176E-05	5.183410645	-2.392578125	8.094787598	-0.001335144	0.00500679	0.001525879	-0.994628906	0.109375	-0.3125	878.92	-16.78025588	-31.72616784	-173.4656026	-64
17716	0	0.20580101	-0.097076416	0.325047493	0.999999046	-0.000245094	0.000148773	0.000144005	5.145025253	-2.4269104	8.126187325	-0.012254715	0.00743866	0.007200241	-0.991943359	0.109130859	-0.321289063	878.9	-16.81336974	-31.70271604	-173.4775381	-64
17717	0	0.207336426	-0.096801758	0.324829102	0.999999046	-0.000339508	5.43594E-05	0.000255585	5.183410645	-2.420043945	8.120727539	-0.016975403	0.002717972	0.012779236	-0.9921875	0.111328125	-0.318603516	878.88	-16.86659848	-31.68590248	-173.4665897	-64
17718	0	0.207129478	-0.098226547	0.323624611	0.999999046	-0.000247955	4.00543E-05	0.00018692	5.178236961	-2.455663681	8.090615273	-0.012397766	0.002002716	0.009346008	-0.9921875	0.111328125	-0.312744141	878.92	-16.90487321	-31.67293514	-173.4616757	-64
17719	0	0.206604004	-0.098815918	0.324951172	0.999999046	-0.000179291	0.00042057	0.000255585	5.165100098	-2.470397949	8.123779297	-0.008964539	0.02102852	0.012779236	-0.992431641	0.115966797	-0.313232422	878.92	-16.93198829	-31.61590273	-173.4541406	-64
17720	0	0.203777313	-0.099220276	0.325696945	0.999999046	-1.62125E-05	7.05719E-05	6.48499E-05	5.094432831	-2.480506897	8.14242363	-0.000810623	0.003528595	0.003242493	-0.994628906	0.113769531	-0.315673828	878.9	-16.93462985	-31.60342792	-173.4637511	-64
17721	0	0.206359863	-0.098449707	0.32409668	0.999999046	6.10352E-05	-0.000174522	5.34058E-05	5.158996582	-2.461242676	8.102416992	0.003051758	-0.00872612	0.002670288	-0.992431641	0.115966797	-0.316162109	878.88	-16.93257188	-31.61819258	-173.4605459	-64
17722	0	0.20646286	-0.097700119	0.32409668	0.999999046	-2.28882E-05	-9.53674E-05	0.000152588	5.161571503	-2.442502975	8.102416992	-0.001144409	-0.004768372	0.007629395	-0.994628906	0.113769531	-0.318603516	878.84	-16.94505098	-31.62096549	-173.4544519	-64
17723	0	0.206542969	-0.098876953	0.323974609	0.999999046	5.34058E-05	8.4877E-05	3.8147E-05	5.163574219	-2.471923828	8.099365234	0.002670288	0.004243851	0.001907349	-0.9921875	0.113525391	-0.321777344	878.84	-16.93727911	-31.60779223	-173.4714682	-64
17724	0	0.205869675	-0.098431587	0.324690819	0.999999046	-8.4877E-05	1.52588E-05	6.00815E-05	5.146741867	-2.46078968	8.11727047	-0.004243851	0.000762939	0.003004074	-0.9921875	0.111328125	-0.318603516	878.84	-16.94815395	-31.60147398	-173.4858273	-64
17725	0	0.206115723	-0.098999023	0.324645996	0.999999046	-4.19617E-05	7.34329E-05	6.86646E-05	5.152893066	-2.474975586	8.116149902	-0.002098084	0.003671646	0.003433228	-0.994628906	0.113769531	-0.315673828	878.86	-16.95341594	-31.58845947	-173.4951354	-64
17726	0	0.204772949	-0.098200798	0.326742172	1	2.86102E-06	2.95639E-05	4.19617E-05	5.11932373	-2.455019951	8.168554306	0.000143051	0.001478195	0.002098083	-0.9921875	0.113525391	-0.315917969	878.84	-16.95248191	-31.58101046	-173.5062183	-64
17727	0	0.206054688	-0.099609375	0.325866699	0.999999046	-1.90735E-05	-6.67572E-06	7.24792E-05	5.151367188	-2.490234375	8.14666748	-0.000953674	-0.000333786	0.003623962	-0.9921875	0.115722656	-0.318847656	878.84	-16.95680044	-31.57645104	-173.5089541	-64
17728	0	0.205251694	-0.098248482	0.326835632	0.999999046	0.000208855	-2.09808E-05	2.95639E-05	5.131292343	-2.456212044	8.170890808	0.010442734	-0.001049042	0.001478195	-0.991943359	0.113525391	-0.318847656	878.84	-16.93224728	-31.57478572	-173.5207605	-64
17729	0	0.20489502	-0.098327637	0.325744629	0.999999046	0.00012207	-2.19345E-05	-3.43323E-05	5.122375488	-2.458190918	8.143615723	0.006103516	-0.001096725	-0.001716614	-0.991943359	0.115722656	-0.321777344	878.88	-16.91323305	-31.57526031	-173.5371306	-64
17730	0	0.205648422	-0.098356247	0.326552391	0.999999046	0.000263214	-7.24792E-05	3.43323E-05	5.141210556	-2.458906174	8.163809776	0.013160706	-0.003623962	0.001716614	-0.991943359	0.115722656	-0.321777344	878.84	-16.88358386	-31.57890563	-173.5422956	-64
17731	0	0.206054688	-0.098205566	0.325744629	0.999999046	0.000164032	-4.1008E-05	9.53674E-05	5.151367188	-2.45513916	8.143615723	0.008201599	-0.0020504	0.004768372	-0.994384766	0.113525391	-0.318603516	879	-16.86866722	-31.57703166	-173.5441347	-64
17732	0	0.205208778	-0.098016739	0.325942039	0.999999046	0.000115395	4.76837E-05	-6.58035E-05	5.13021946	-2.450418472	8.148550987	0.00576973	0.002384186	-0.003290176	-0.994384766	0.113525391	-0.321533203	878.88	-16.84654042	-31.5707102	-173.5708835	-64
17733	0	0.205566406	-0.097900391	0.325317383	0.999999046	0.000144958	-3.71933E-05	-4.57764E-05	5.139160156	-2.447509766	8.13293457	0.007247925	-0.001859665	-0.002288818	-0.994384766	0.111328125	-0.318359375	878.78	-16.82401624	-31.57298723	-173.5939431	-64
17734	0	0.205294609	-0.097055435	0.325634956	0.999999046	7.62939E-05	1.14441E-05	5.62668E-05	5.132365227	-2.42638588	8.140873909	0.003814697	0.000572205	0.002813339	-0.994140625	0.111328125	-0.321289063	878.92	-16.81510996	-31.56648811	-173.6069485	-64
17735	0	0.204833984	-0.098632813	0.324829102	0.999999046	-6.10352E-05	-9.82285E-05	-7.62939E-06	5.120849609	-2.465820313	8.120727539	-0.003051758	-0.004911423	-0.00038147	-0.994384766	0.113525391	-0.318603516	878.84	-16.81984153	-31.5740756	-173.6178094	-64
17736	0	0.206669807	-0.097815514	0.326850891	0.999999046	2.00272E-05	-3.24249E-05	5.62668E-05	5.166745186	-2.44538784	8.171272278	0.001001358	-0.001621246	0.002813339	-0.991943359	0.113525391	-0.321533203	878.92	-16.81813988	-31.57229725	-173.624038	-64
17737	0	0.203979492	-0.09777832	0.324279785	0.999999046	-0.000183105	9.53674E-07	0.000114441	5.099487305	-2.444458008	8.106994629	-0.009155274	4.76837E-05	0.005722046	-0.994384766	0.111328125	-0.318359375	878.92	-16.84289414	-31.56485359	-173.6277932	-64
17738	0	0.205993652	-0.098327637	0.325378418	0.999999046	6.10352E-05	-5.72205E-05	-3.05176E-05	5.149841309	-2.458190918	8.134460449	0.003051758	-0.002861023	-0.001525879	-0.994384766	0.113525391	-0.318603516	878.98	-16.83103118	-31.56858262	-173.643032	-64
17739	0	0.20538044	-0.097387314	0.32480526	0.999998093	0.000105858	-4.19617E-05	0.000116348	5.134510994	-2.434682846	8.120131493	0.005292892	-0.002098084	0.005817413	-0.991943359	0.113525391	-0.321533203	878.94	-16.8235202	-31.56573922	-173.6411278	-64
17740	0	0.206140518	-0.097078323	0.324235916	0.999999046	-6.67572E-06	-6.67572E-05	0.000189781	5.153512955	-2.426958084	8.105897903	-0.000333786	-0.00333786	0.00948906	-0.991943359	0.111328125	-0.318603516	878.88	-16.8342593	-31.56320832	-173.6323504	-64
17741	0	0.205749512	-0.096801758	0.325317383	0.999999046	-0.000202179	-6.38962E-05	0.000125885	5.143737793	-2.420043945	8.13293457	-0.010108948	-0.003194809	0.006294251	-0.994384766	0.113525391	-0.318603516	878.84	-16.86290331	-31.56246726	-173.6283514	-64
17742	0	0.206560135	-0.097779274	0.326044083	0.999999046	-0.000104904	-0.000123978	9.82285E-05	5.164003372	-2.44448185	8.151102066	-0.005245209	-0.006198883	0.004911423	-0.991943359	0.113525391	-0.318847656	878.88	-16.87966669	-31.56922684	-173.625644	-64
17743	0	0.205322266	-0.098266602	0.325195313	1	-6.67572E-06	-2.67029E-05	7.62939E-06	5.133056641	-2.456665039	8.129882813	-0.000333786	-0.001335144	0.00038147	-0.991943359	0.111328125	-0.318603516	878.86	-16.87702382	-31.56829218	-173.6424854	-64
17744	0	0.206436157	-0.098214149	0.324632645	1	-2.09808E-05	-6.58035E-05	4.57764E-05	5.160903931	-2.455353737	8.115816116	-0.001049042	-0.003290176	0.002288818	-0.994384766	0.113525391	-0.318603516	878.82	-16.87934136	-31.57039744	-173.6486919	-64
17745	0	0.205444336	-0.098449707	0.32598877	0.999999046	7.62939E-05	-1.04904E-05	7.62939E-06	5.136108398	-2.461242676	8.149719238	0.003814697	-0.000524521	0.00038147	-0.994384766	0.113525391	-0.321533203	878.84	-16.86675173	-31.56764669	-173.6630771	-64
17746	0	0.205633163	-0.097183228	0.32544899	0.999999046	0.000112534	-0.00019455	4.95911E-05	5.140829086	-2.429580688	8.136224747	0.005626679	-0.009727478	0.002479553	-0.991943359	0.113525391	-0.321533203	878.84	-16.8564797	-31.58365866	-173.6643808	-64
17747	0	0.205627441	-0.097045898	0.325561523	0.999999046	-7.24792E-05	-0.000128746	3.43323E-05	5.140686035	-2.426147461	8.139038086	-0.003623962	-0.006437302	0.001716614	-0.991943359	0.113525391	-0.318847656	878.88	-16.86491637	-31.59293001	-173.6689093	-64
17748	0	0.205094337	-0.098145485	0.32463932	0.999999046	-9.82285E-05	-0.000196457	0.000132561	5.127358437	-2.453637123	8.115983009	-0.004911423	-0.009822846	0.006628037	-0.991943359	0.113525391	-0.318847656	878.92	-16.88427626	-31.60631755	-173.6586891	-64
17749	0	0.206665039	-0.097900391	0.326416016	0.999999046	3.43323E-05	-7.9155E-05	8.01086E-05	5.166625977	-2.447509766	8.160400391	0.001716614	-0.003957748	0.004005432	-0.994384766	0.113525391	-0.318603516	878.88	-16.8824173	-31.60856636	-173.6601329	-64
17750	0	0.205479622	-0.098949432	0.324619293	0.999999046	0.000249863	-4.76837E-05	-0.000161171	5.136990547	-2.473735809	8.11548233	0.012493134	-0.002384186	-0.008058548	-0.994384766	0.113525391	-0.318603516	878.78	-16.83893326	-31.61534806	-173.6925593	-64
17751	0	0.205505371	-0.097412109	0.324951172	0.999999046	0.000301361	-0.000144005	1.52588E-05	5.137634277	-2.435302734	8.123779297	0.015068054	-0.007200241	0.000762939	-0.994384766	0.111328125	-0.318359375	878.84	-16.80334643	-31.62679518	-173.7023392	-64
17752	0	0.206206322	-0.095879555	0.325619698	0.999999046	-5.62668E-05	-0.00012207	0.0001297	5.155158043	-2.396988869	8.140492439	-0.002813339	-0.006103516	0.006484985	-0.994628906	0.113769531	-0.318603516	878.88	-16.81586238	-31.63203143	-173.6938351	-64
17753	0	0.205932617	-0.097351074	0.323852539	0.999999046	-0.000152588	3.52859E-05	0.000198364	5.14831543	-2.433776855	8.096313477	-0.007629395	0.001764298	0.009918213	-0.994628906	0.113769531	-0.318603516	878.78	-16.84079417	-31.61773806	-173.6833184	-65
17754	0	0.205748558	-0.098630905	0.324385643	0.999999046	-0.000219345	-0.000164032	0.000159264	5.143713951	-2.465772629	8.109641075	-0.010967255	-0.008201599	0.007963181	-0.9921875	0.111328125	-0.312744141	879.04	-16.87482042	-31.62658213	-173.672398	-64
17755	0	0.207397461	-0.099060059	0.323608398	0.999999046	-9.15527E-05	-8.67844E-05	0.00012207	5.184936523	-2.476501465	8.090209961	-0.004577637	-0.004339218	0.006103516	-0.989746094	0.113525391	-0.321777344	878.92	-16.89014565	-31.62825438	-173.6693542	-64
17756	0	0.205598831	-0.098682404	0.324591637	0.999999046	5.05447E-05	-3.24249E-05	8.67844E-05	5.139970779	-2.467060089	8.114790916	0.002527237	-0.001621246	0.004339218	-0.9921875	0.111328125	-0.312744141	878.92	-16.88568531	-31.62510882	-173.6731277	-64
17757	0	0.20526123	-0.098693848	0.324584961	0.999999046	0.000125885	-0.000411034	5.34058E-05	5.131530762	-2.467346191	8.114624023	0.006294251	-0.020551682	0.002670288	-0.9921875	0.111328125	-0.315673828	878.84	-16.87809353	-31.66454327	-173.6679311	-64
17758	0	0.207165718	-0.097291946	0.323949814	0.999999046	0.000261307	-0.000398636	-7.72476E-05	5.179142952	-2.43229866	8.098745346	0.013065339	-0.019931794	-0.003862381	-0.994628906	0.113769531	-0.312988281	878.82	-16.84581292	-31.70701305	-173.6734525	-64
17759	0	0.20690918	-0.098083496	0.32421875	0.999999046	0.000270844	-3.71933E-05	1.52588E-05	5.172729492	-2.452087402	8.10546875	0.013542175	-0.001859665	0.000762939	-0.994628906	0.113769531	-0.315673828	878.84	-16.81126202	-31.70677557	-173.6820072	-64
17760	0	0.205892563	-0.097365379	0.325048447	0.999999046	0.00020504	-9.15527E-05	4.95911E-05	5.147314072	-2.434134483	8.126211166	0.010251999	-0.004577637	0.002479553	-0.9921875	0.113525391	-0.318847656	878.92	-16.78762735	-31.71131005	-173.6854846	-65
17761	0	0.206359863	-0.09777832	0.324768066	0.999999046	5.72205E-05	-0.000281334	6.86646E-05	5.158996582	-2.444458008	8.11920166	0.002861023	-0.014066696	0.003433228	-0.994628906	0.113769531	-0.318603516	878.88	-16.78608395	-31.73600807	-173.6790275	-64
17762	0	0.206894875	-0.097586632	0.324051857	0.999999046	0.000104904	-0.000162125	-1.23978E-05	5.172371864	-2.439665794	8.101296425	0.005245209	-0.008106232	-0.000619888	-0.994628906	0.111328125	-0.318603516	878.98	-16.77111572	-31.75032005	-173.6922438	-64
17763	0	0.207214355	-0.097351074	0.322692871	0.999999046	9.53674E-05	-0.00014782	0.000160217	5.180358887	-2.433776855	8.067321777	0.004768372	-0.007390976	0.008010864	-0.994628906	0.111328125	-0.318603516	878.92	-16.76866156	-31.75740832	-173.6839681	-65
17764	0	0.2070961	-0.096135139	0.324785233	0.999999046	-2.38419E-05	-6.48499E-05	7.24792E-05	5.177402496	-2.403378487	8.119630814	-0.001192093	-0.003242493	0.003623962	-0.9921875	0.111328125	-0.315673828	878.92	-16.7721027	-31.75829454	-173.6883738	-64
17765	0	0.206726074	-0.097167969	0.325195313	0.999999046	-8.7738E-05	5.05447E-05	7.24792E-05	5.168151855	-2.429199219	8.129882813	-0.004386902	0.002527237	0.003623962	-0.994628906	0.111572266	-0.312744141	878.84	-16.78045102	-31.74648719	-173.6956647	-64
17766	0	0.206557274	-0.097194672	0.324465752	0.999999046	1.90735E-06	-0.000196457	0.000117302	5.163931847	-2.429866791	8.111643791	9.53674E-05	-0.009822846	0.005865097	-0.994628906	0.111572266	-0.312744141	878.88	-16.78658508	-31.76027842	-173.687882	-64
17767	0	0.206726074	-0.097839355	0.324768066	0.999999046	-0.000106812	-4.48227E-05	8.39233E-05	5.168151855	-2.445983887	8.11920166	-0.005340576	-0.002241135	0.004196167	-0.9921875	0.109130859	-0.315429688	878.84	-16.79979307	-31.75851199	-173.6963965	-64
17768	0	0.207288742	-0.097028732	0.325521469	0.999999046	-4.29153E-05	-0.000108719	2.57492E-05	5.182218552	-2.425718307	8.138036728	-0.002145767	-0.005435944	0.00128746	-0.994628906	0.111572266	-0.312744141	878.78	-16.80296441	-31.76566619	-173.7037989	-64
17769	0	0.206970215	-0.097351074	0.32623291	0.999999046	-2.28882E-05	-2.19345E-05	0.000183105	5.174255371	-2.433776855	8.155822754	-0.001144409	-0.001096725	0.009155273	-0.994628906	0.111572266	-0.315673828	878.82	-16.81267877	-31.75803592	-173.6962405	-64
17770	0	0.20749855	-0.097625732	0.324997902	0.999999046	-7.82013E-05	-6.86646E-05	4.86374E-05	5.18746376	-2.440643311	8.124947548	-0.003910065	-0.003433228	0.00243187	-0.994628906	0.113769531	-0.312988281	878.84	-16.82052522	-31.75999148	-173.6983852	-64
17771	0	0.20690918	-0.098083496	0.32598877	0.999999046	6.10352E-05	-0.000182152	1.52588E-05	5.172729492	-2.452087402	8.149719238	0.003051758	-0.00910759	0.000762939	-0.994873047	0.113769531	-0.310058594	878.78	-16.81245269	-31.77545197	-173.6988469	-64
17772	0	0.207146645	-0.097074509	0.323787689	0.999999046	0.000237465	-0.000127792	5.62668E-05	5.178666115	-2.426862717	8.09469223	0.011873245	-0.006389618	0.002813339	-0.994628906	0.111572266	-0.315673828	878.78	-16.78578734	-31.78361142	-173.7032028	-64
17773	0	0.208984375	-0.096496582	0.325927734	0.999999046	0.000118256	0.000279427	7.24792E-05	5.224609375	-2.412414551	8.148193359	0.005912781	0.013971329	0.003623962	-0.997070313	0.111572266	-0.315429688	878.88	-16.7654422	-31.74660248	-173.7210818	-64
17774	0	0.20549202	-0.096755028	0.326248169	0.999999046	-0.000112534	0.000148773	0.000121117	5.137300491	-2.418875694	8.156204224	-0.005626679	0.00743866	0.006055832	-0.994628906	0.113769531	-0.312988281	878.88	-16.77744349	-31.72221428	-173.7217211	-65
17775	0	0.206237793	-0.097229004	0.324523926	0.999999046	-7.62939E-05	-5.24521E-05	0.000114441	5.155944824	-2.430725098	8.113098145	-0.003814697	-0.002622604	0.005722046	-0.994628906	0.113769531	-0.315673828	878.88	-16.78892494	-31.72010481	-173.7171424	-64
17776	0	0.20759201	-0.097265244	0.325158119	0.999999046	-0.000212669	3.43323E-05	7.62939E-06	5.189800262	-2.431631088	8.12895298	-0.010633469	0.001716614	0.00038147	-0.9921875	0.113525391	-0.315917969	878.88	-16.80697595	-31.71203467	-173.7299837	-64
17777	0	0.206787109	-0.098144531	0.325378418	0.999999046	-0.000114441	0.000107765	0.000240326	5.169677734	-2.453613281	8.134460449	-0.005722046	0.00538826	0.012016297	-0.994384766	0.113525391	-0.315673828	878.84	-16.82803749	-31.68817815	-173.7166093	-64
17778	0	0.204899788	-0.097707748	0.325826645	0.999999046	1.90735E-05	5.53131E-05	3.43323E-05	5.122494698	-2.44269371	8.145666122	0.000953674	0.002765656	0.001716614	-0.994384766	0.113769531	-0.312744141	878.84	-16.82088268	-31.67680385	-173.7255109	-64
17779	0	0.206665039	-0.098449707	0.326416016	0.999999046	0.000267029	-0.000166893	-6.86646E-05	5.166625977	-2.461242676	8.160400391	0.013351441	-0.00834465	-0.003433228	-0.994384766	0.113525391	-0.318603516	878.92	-16.78288115	-31.69317416	-173.741767	-64
17780	0	0.206542015	-0.096051216	0.324322701	0.999999046	4.86374E-05	0.000167847	2.86102E-06	5.163550377	-2.401280403	8.108067513	0.00243187	0.008392334	0.000143051	-0.991943359	0.113525391	-0.315917969	878.82	-16.76782167	-31.67046829	-173.7595853	-64
17781	0	0.207275391	-0.096618652	0.32421875	0.999999046	-8.01086E-05	0.000130653	0.000209808	5.181884766	-2.415466309	8.10546875	-0.004005432	0.006532669	0.010490418	-0.991943359	0.113525391	-0.318847656	878.88	-16.78223505	-31.64505848	-173.7513547	-64
17782	0	0.2069664	-0.096757889	0.325965881	0.999999046	-0.000295639	6.86646E-05	0.000258446	5.174160004	-2.41894722	8.149147034	-0.014781952	0.003433228	0.012922287	-0.9921875	0.115722656	-0.315917969	878.82	-16.82581206	-31.62484065	-173.7296579	-64
17783	0	0.20489502	-0.099304199	0.323974609	0.999999046	-2.67029E-05	-9.05991E-05	8.7738E-05	5.122375488	-2.48260498	8.099365234	-0.001335144	-0.004529953	0.004386902	-0.994384766	0.111328125	-0.315429688	878.92	-16.83037997	-31.62770786	-173.7328718	-64
17784	0	0.206279755	-0.097283363	0.324907303	0.999999046	0.00011158	-5.72205E-06	8.29697E-05	5.156993866	-2.432084084	8.122682571	0.005578995	-0.000286102	0.004148483	-0.991943359	0.113525391	-0.318847656	878.88	-16.81699999	-31.62143018	-173.7367615	-64
17785	0	0.206298828	-0.09765625	0.32635498	0.999999046	-7.24792E-05	2.38419E-05	8.01086E-05	5.157470703	-2.44140625	8.158874512	-0.003623962	0.001192093	0.004005432	-0.994384766	0.113525391	-0.321533203	878.88	-16.82387493	-31.61197642	-173.7439689	-64
17786	0	0.206572533	-0.098225594	0.325433731	0.999999046	-0.000101089	1.71661E-05	0.000132561	5.164313316	-2.455639839	8.135843277	-0.005054474	0.000858307	0.006628037	-0.994140625	0.111328125	-0.321289063	878.84	-16.83771184	-31.60152258	-173.7486772	-64
17787	0	0.205322266	-0.098022461	0.325256348	0.999999046	-3.8147E-06	0.000115395	-1.90735E-05	5.133056641	-2.450561523	8.131408691	-0.000190735	0.00576973	-0.000953674	-0.9921875	0.113525391	-0.312988281	878.88	-16.82815939	-31.58528617	-173.7670564	-64
17788	0	0.205861092	-0.098444939	0.325119019	0.999999046	-5.43594E-05	6.67572E-05	0.000109673	5.14652729	-2.461123466	8.127975464	-0.002717972	0.00333786	0.005483627	-0.991943359	0.113525391	-0.321533203	878.88	-16.83409895	-31.57010474	-173.7715074	-64
17789	0	0.205688477	-0.098144531	0.325866699	0.999999046	5.72205E-05	1.62125E-05	8.39233E-05	5.142211914	-2.453613281	8.14666748	0.002861023	0.000810623	0.004196167	-0.994384766	0.113525391	-0.318603516	878.92	-16.82653908	-31.56129519	-173.775994	-64
17790	0	0.207065582	-0.097837448	0.325151443	0.999999046	0.000200272	-2.86102E-05	-6.48499E-05	5.176639557	-2.445936203	8.128786087	0.01001358	-0.001430511	-0.003242493	-0.994384766	0.113525391	-0.318603516	878.88	-16.79346338	-31.56238889	-173.797022	-64
17791	0	0.206115723	-0.098327637	0.325927734	0.999999046	0.000305176	3.52859E-05	-6.48499E-05	5.152893066	-2.458190918	8.148193359	0.015258789	0.001764298	-0.003242493	-0.991943359	0.113525391	-0.315917969	878.92	-16.7470821	-31.55645008	-173.8177382	-64
17792	0	0.204884529	-0.098042488	0.324414253	0.999999046	0.000275612	-0.000106812	-1.90735E-05	5.122113228	-2.451062202	8.110356331	0.013780594	-0.005340576	-0.000953674	-0.994384766	0.111328125	-0.318359375	878.88	-16.71009554	-31.56456341	-173.8324293	-64
17793	0	0.206115723	-0.096801758	0.325012207	0.999999046	0.000148773	-0.000216484	-1.14441E-05	5.152893066	-2.420043945	8.125305176	0.00743866	-0.010824204	-0.000572205	-0.994384766	0.111328125	-0.315429688	878.94	-16.69034207	-31.58448359	-173.8399675	-64
17794	0	0.205709457	-0.096700668	0.325439453	0.999999046	0.000102997	2.28882E-05	6.77109E-05	5.142736435	-2.417516708	8.135986328	0.005149841	0.001144409	0.003385544	-0.991943359	0.113525391	-0.318847656	878.88	-16.67629228	-31.57551215	-173.8433282	-64
17795	0	0.20526123	-0.097106934	0.32623291	0.999999046	9.15527E-05	2.76566E-05	9.15527E-05	5.131530762	-2.42767334	8.155822754	0.004577637	0.001382828	0.004577637	-0.991943359	0.113525391	-0.315917969	878.88	-16.66504844	-31.56518366	-173.8422421	-64
17796	0	0.204737663	-0.097574234	0.324491501	0.999999046	-4.673E-05	-7.24792E-05	0.000167847	5.118441582	-2.43935585	8.112287521	-0.002336502	-0.003623962	0.008392334	-0.991943359	0.113525391	-0.315917969	878.98	-16.67685904	-31.56331405	-173.8280118	-64
17797	0	0.206054688	-0.098144531	0.324645996	0.999999046	0.0001297	-2.95639E-05	1.90735E-05	5.151367188	-2.453613281	8.116149902	0.006484985	-0.001478195	0.000953674	-0.994384766	0.113525391	-0.315673828	878.92	-16.65761906	-31.56164795	-173.8344567	-64
17798	0	0.204849243	-0.096542358	0.32520771	1	-8.58307E-06	-1.23978E-05	-8.58307E-06	5.121231079	-2.41355896	8.130192757	-0.000429153	-0.000619888	-0.000429153	-0.991943359	0.111328125	-0.315673828	878.94	-16.6519846	-31.55897456	-173.8489718	-64
17799	0	0.20526123	-0.097473145	0.32421875	0.999999046	1.52588E-05	4.673E-05	6.10352E-05	5.131530762	-2.436828613	8.10546875	0.000762939	0.002336502	0.003051758	-0.994140625	0.111328125	-0.32421875	878.94	-16.64716482	-31.54753116	-173.8613086	-64
17800	0	0.20570755	-0.097610474	0.325399399	0.999999046	-2.19345E-05	0.000171661	1.04904E-05	5.142688751	-2.440261841	8.13498497	-0.001096725	0.008583069	0.000524521	-0.994140625	0.111328125	-0.321289063	879	-16.64072112	-31.52402906	-173.8829032	-64
17801	0	0.204956055	-0.097229004	0.325378418	0.999999046	0	3.91006E-05	0.000137329	5.123901367	-2.430725098	8.134460449	0	0.001955032	0.006866455	-0.994384766	0.113525391	-0.315673828	878.88	-16.64299012	-31.51089543	-173.8758916	-64
17802	0	0.205086708	-0.09746933	0.325576782	0.999999046	7.82013E-05	-1.71661E-05	5.34058E-05	5.127167702	-2.436733246	8.139419556	0.003910065	-0.000858307	0.002670288	-0.991943359	0.111328125	-0.315673828	878.82	-16.63180085	-31.50667679	-173.8814993	-64
17803	0	0.205688477	-0.097473145	0.324707031	0.999999046	-3.43323E-05	-2.19345E-05	8.39233E-05	5.142211914	-2.436828613	8.117675781	-0.001716614	-0.001096725	0.004196167	-0.991943359	0.113525391	-0.315917969	878.92	-16.63569472	-31.50201225	-173.8787695	-64
17804	0	0.205381393	-0.0975914	0.325606346	0.999999046	8.58307E-06	0.000108719	2.67029E-05	5.134534836	-2.439785004	8.140158653	0.000429153	0.005435944	0.001335144	-0.991943359	0.113525391	-0.321533203	878.88	-16.62822408	-31.48487595	-173.8910839	-64
17805	0	0.205078125	-0.09765625	0.324951172	0.999999046	0	-7.15256E-05	4.95911E-05	5.126953125	-2.44140625	8.123779297	0	-0.003576279	0.002479553	-0.991943359	0.111328125	-0.315673828	878.82	-16.62694553	-31.48678521	-173.8948738	-64
17806	0	0.205481529	-0.097249985	0.324859619	0.999999046	1.14441E-05	6.67572E-05	0.000121117	5.137038231	-2.431249619	8.121490479	0.000572205	0.00333786	0.006055832	-0.994140625	0.109130859	-0.318359375	878.92	-16.6264125	-31.47119454	-173.9009405	-64
17807	0	0.205383301	-0.096984863	0.324157715	0.999999046	-8.01086E-05	1.62125E-05	0.000106812	5.13458252	-2.424621582	8.103942871	-0.004005432	0.000810623	0.005340576	-0.994384766	0.113525391	-0.315673828	878.84	-16.63644041	-31.46166888	-173.8967913	-64
17808	0	0.20535183	-0.096653938	0.325429916	0.999999046	-6.19888E-05	-9.53674E-05	6.38962E-05	5.133795738	-2.416348457	8.13574791	-0.003099442	-0.004768372	0.003194809	-0.991699219	0.111328125	-0.324462891	878.92	-16.64372123	-31.46582231	-173.9026883	-64
17809	0	0.205932617	-0.097595215	0.325073242	0.999999046	7.62939E-06	-5.62668E-05	9.53674E-05	5.14831543	-2.439880371	8.126831055	0.00038147	-0.002813339	0.004768372	-0.994384766	0.113525391	-0.315673828	878.92	-16.64438693	-31.46469277	-173.8974247	-64
17810	0	0.206133842	-0.09750843	0.325721741	0.999999046	1.52588E-05	0.000135422	-1.23978E-05	5.153346062	-2.437710762	8.143043518	0.000762939	0.006771088	-0.000619888	-0.991943359	0.113525391	-0.321533203	878.92	-16.63310577	-31.44608944	-173.9156774	-64
17811	0	0.203857422	-0.097229004	0.325073242	0.999999046	7.62939E-05	4.29153E-05	-3.05176E-05	5.096435547	-2.430725098	8.126831055	0.003814697	0.002145767	-0.001525879	-0.989501953	0.113525391	-0.318847656	878.98	-16.61548993	-31.43819476	-173.9304384	-64
17812	0	0.206643105	-0.096739769	0.324494362	0.999999046	9.25064E-05	-0.000213623	9.91821E-05	5.166077614	-2.418494225	8.112359047	0.00462532	-0.010681152	0.004959106	-0.991943359	0.113525391	-0.318847656	878.9	-16.60986627	-31.45432237	-173.9192106	-64
17813	0	0.205871582	-0.097106934	0.325256348	0.999999046	-7.62939E-05	-2.86102E-06	7.62939E-05	5.146789551	-2.42767334	8.131408691	-0.003814697	-0.000143051	0.003814697	-0.989501953	0.113525391	-0.321777344	878.98	-16.61783525	-31.44809712	-173.9203894	-64
17814	0	0.204637527	-0.097005844	0.326704025	0.999999046	-6.48499E-05	7.62939E-06	1.90735E-05	5.115938187	-2.425146103	8.167600632	-0.003242493	0.00038147	0.000953674	-0.991943359	0.113525391	-0.318847656	878.92	-16.62042028	-31.44254797	-173.92803	-64
17815	0	0.204467773	-0.097351074	0.324768066	0.999999046	-0.000106812	-0.000155449	5.34058E-05	5.111694336	-2.433776855	8.11920166	-0.005340576	-0.007772446	0.002670288	-0.991943359	0.111328125	-0.315673828	878.88	-16.63342008	-31.4537756	-173.9280016	-64
17816	0	0.206084251	-0.098237038	0.325414658	0.999999046	0.000103951	-0.000108719	7.53403E-05	5.152106285	-2.455925941	8.13536644	0.005197525	-0.005435944	0.003767014	-0.989501953	0.113525391	-0.321777344	878.92	-16.62286517	-31.45919036	-173.9253031	-64
17817	0	0.205322266	-0.09765625	0.324279785	0.999999046	0.000133514	8.58307E-06	1.14441E-05	5.133056641	-2.44140625	8.106994629	0.00667572	0.000429153	0.000572205	-0.991943359	0.113525391	-0.321533203	878.82	-16.60233105	-31.45385298	-173.9350663	-64
17818	0	0.205497742	-0.097208023	0.325040817	0.999999046	0.000146866	-4.19617E-05	1.90735E-05	5.137443542	-2.430200577	8.126020432	0.007343292	-0.002098084	0.000953674	-0.991943359	0.113525391	-0.318847656	878.92	-16.58181248	-31.45384069	-173.9401499	-64
17819	0	0.205444336	-0.097595215	0.325317383	0.999999046	0.000213623	-7.9155E-05	-1.14441E-05	5.136108398	-2.439880371	8.13293457	0.010681152	-0.003957748	-0.000572205	-0.994384766	0.113525391	-0.315673828	878.98	-16.55238074	-31.45892194	-173.9458948	-64
17820	0	0.205375671	-0.096658707	0.324836731	0.999999046	0.00017643	-0.000106812	4.95911E-05	5.134391785	-2.416467667	8.120918274	0.008821487	-0.005340576	0.002479553	-0.994140625	0.111328125	-0.321289063	878.84	-16.53187004	-31.46507521	-173.9498685	-64
17821	0	0.205444336	-0.097290039	0.32623291	0.999999046	-3.05176E-05	-0.000182152	5.72205E-05	5.136108398	-2.432250977	8.155822754	-0.001525879	-0.00910759	0.002861023	-0.991943359	0.113525391	-0.321533203	878.88	-16.53711418	-31.47924394	-173.9455103	-64
17822	0	0.20518589	-0.09806633	0.326395035	0.999999046	3.62396E-05	-8.58307E-05	3.71933E-05	5.129647255	-2.451658249	8.15987587	0.001811981	-0.004291534	0.001859665	-0.991943359	0.111328125	-0.318603516	878.82	-16.53150522	-31.48344786	-173.9502069	-64
17823	0	0.204589844	-0.097839355	0.324829102	0.999999046	1.52588E-05	-6.38962E-05	-8.39233E-05	5.114746094	-2.445983887	8.120727539	0.000762939	-0.003194809	-0.004196167	-0.994384766	0.113525391	-0.315673828	878.92	-16.51979253	-31.4891668	-173.9650896	-64
17824	0	0.204953194	-0.097002029	0.325232506	0.999999046	0.000107765	-4.95911E-05	0.000128746	5.123829842	-2.425050735	8.130812645	0.00538826	-0.002479553	0.006437302	-0.991943359	0.113525391	-0.321533203	878.84	-16.51152903	-31.48637178	-173.9560847	-64
17825	0	0.206054688	-0.096557617	0.325439453	0.999999046	-3.8147E-05	-0.000151634	3.05176E-05	5.151367188	-2.41394043	8.135986328	-0.001907349	-0.007581711	0.001525879	-0.991943359	0.111328125	-0.315673828	878.92	-16.51541309	-31.49802294	-173.9573032	-64
17826	0	0.206269264	-0.095802307	0.325613022	0.999999046	-9.53674E-05	-8.58307E-05	6.86646E-05	5.156731606	-2.395057678	8.140325546	-0.004768372	-0.004291534	0.003433228	-0.991943359	0.111328125	-0.318603516	878.88	-16.52706198	-31.5012432	-173.9578791	-64
17827	0	0.205200195	-0.097717285	0.32434082	0.999999046	-0.000179291	-5.62668E-05	0.000141144	5.130004883	-2.442932129	8.108520508	-0.008964539	-0.002813339	0.00705719	-0.994384766	0.111328125	-0.315429688	878.92	-16.55269924	-31.49886198	-173.9494187	-64
17828	0	0.205698013	-0.096182823	0.32397747	0.999999046	-0.000145912	-0.000375748	0.000144005	5.142450333	-2.40457058	8.09943676	-0.007295609	-0.018787385	0.007200241	-0.994384766	0.111328125	-0.315429688	878.84	-16.58109497	-31.53152758	-173.9291992	-64
