Counter	Temperature	VelInc_X	VelInc_Y	VelInc_Z	OriInc_w	OriInc_x	OriInc_y	OriInc_z	Acc_X	Acc_Y	Acc_Z	Gyr_X	Gyr_Y	Gyr_Z	Mag_X	Mag_Y	Mag_Z	Pressure	Roll	Pitch	Yaw	RSSI
15832	0	0.371721268	-0.097382545	0.086548805	0.999999046	0.000933647	-3.24249E-05	0.000171661	9.293031693	-2.434563637	2.163720131	0.046682365	-0.001621247	0.00858307	-0.573730469	0.197753906	-0.777099609	878.4	-49.04042985	-70.99792137	44.31607169	-78
15833	0	0.371948242	-0.095947266	0.082885742	0.999999046	0.000419617	-2.19345E-05	0.000495911	9.298706055	-2.398681641	2.072143555	0.020980836	-0.001096726	0.024795534	-0.573730469	0.197753906	-0.777099609	878.38	-49.07441648	-70.96021757	44.40260769	-78
15834	0	0.372831345	-0.097773552	0.08343792	0.999999046	-0.000720978	9.15527E-05	0.000735283	9.320783615	-2.444338799	2.08594799	-0.036048896	0.004577638	0.036764151	-0.573730469	0.197753906	-0.774169922	878.38	-49.26237115	-70.893274	44.51396025	-77
15835	0	0.368835449	-0.100402832	0.086730957	0.999999046	0.000888824	-0.000170708	0.000652313	9.22088623	-2.510070801	2.168273926	0.044441232	-0.008535387	0.032615668	-0.573730469	0.195556641	-0.774169922	878.34	-49.3130465	-70.85289427	44.6754054	-77
15836	0	0.371486664	-0.095367432	0.084208488	0.999999046	0.001048088	-0.000265121	0.000705719	9.287166595	-2.384185791	2.105212212	0.052404418	-0.013256077	0.03528596	-0.571289063	0.197753906	-0.77734375	878.28	-49.3799646	-70.81502331	44.87295827	-76
15837	0	0.373535156	-0.096618652	0.083618164	0.999999046	-0.000694275	5.05447E-05	0.000331879	9.338378906	-2.415466309	2.090454102	-0.034713749	0.002527237	0.016593935	-0.571289063	0.1953125	-0.777099609	878.38	-49.4871645	-70.78624222	44.90227501	-76
15838	0	0.371445656	-0.100221634	0.086750031	0.999999046	0.00047493	-0.000234604	0.000525475	9.286141396	-2.505540848	2.168750763	0.023746493	-0.011730195	0.02627373	-0.571289063	0.197753906	-0.77734375	878.4	-49.57277778	-70.76168875	45.05023851	-76
15839	0	0.372009277	-0.096984863	0.083435059	0.999998093	0.001408577	-0.000213623	0.00069809	9.300231934	-2.424621582	2.085876465	0.070428878	-0.010681157	0.034904495	-0.571289063	0.197753906	-0.77734375	878.32	-49.58258861	-70.72063375	45.23110552	-75
15840	0	0.370869637	-0.098490715	0.082820892	0.999999046	0.000216484	-0.000259399	0.000423431	9.271740913	-2.462267876	2.070522308	0.010824204	-0.012969971	0.021171571	-0.573730469	0.197753906	-0.774169922	878.34	-49.6820463	-70.70701017	45.36233815	-75
15841	0	0.369567871	-0.103393555	0.084289551	0.999997139	0.001876831	-0.00057888	0.000362396	9.239196777	-2.584838867	2.10723877	0.093841615	-0.028944035	0.018119824	-0.571289063	0.1953125	-0.777099609	878.38	-49.65856713	-70.72225056	45.56478049	-75
15842	0	0.370506287	-0.099689484	0.082890511	0.999993324	0.003423691	-0.001001358	0.000330925	9.262657166	-2.492237091	2.072262764	0.171184906	-0.050068009	0.016546285	-0.575927734	0.191162109	-0.776367188	878.32	-49.55729824	-70.77174643	45.87253993	-75
15843	0	0.372131348	-0.098449707	0.083129883	0.999993324	0.003204346	-0.00109005	0.000324249	9.303283691	-2.461242676	2.07824707	0.160217594	-0.054502592	0.016212495	-0.573242188	0.188720703	-0.776367188	878.44	-49.50277666	-70.82867056	46.20267039	-74
15844	0	0.371331215	-0.097981453	0.082032204	0.999996185	0.002281189	-0.00083065	0.000484467	9.283280373	-2.449536324	2.050805092	0.114059565	-0.041532559	0.024223352	-0.575439453	0.184326172	-0.778808594	878.38	-49.52421065	-70.8524873	46.50147348	-74
15845	0	0.372009277	-0.097717285	0.082702637	0.999997139	0.002109528	-0.00052166	0.000553131	9.300231934	-2.442932129	2.067565918	0.105476468	-0.026083014	0.027656578	-0.577636719	0.179931641	-0.78125	878.38	-49.50278253	-70.84744164	46.73438672	-73
15846	0	0.371136665	-0.095028877	0.083691597	0.999999046	-7.24792E-05	4.95911E-05	0.000555992	9.278416634	-2.375721931	2.092289925	-0.003623963	0.002479553	0.027799608	-0.577636719	0.177978516	-0.772460938	878.28	-49.58823379	-70.79978983	46.816077	-73
15847	0	0.37121582	-0.099609375	0.083435059	0.999999046	-0.000926971	0.000203133	0.000488281	9.280395508	-2.490234375	2.085876465	-0.046348581	0.010156633	0.024414067	-0.577636719	0.180175781	-0.775390625	878.34	-49.71854263	-70.74662163	46.84146138	-73
15848	0	0.37230587	-0.099151611	0.08352375	0.999999046	0.000613213	0.000116348	0.000469208	9.307646751	-2.478790283	2.088093758	0.030660632	0.005817414	0.023460391	-0.577636719	0.180175781	-0.775390625	878.28	-49.6899613	-70.70160686	46.88534021	-73
15849	0	0.372680664	-0.09552002	0.08215332	0.999999046	-0.000644684	0.000283241	0.000694275	9.317016602	-2.388000488	2.053833008	-0.032234197	0.014162066	0.034713751	-0.575439453	0.182128906	-0.778564453	878.32	-49.81113157	-70.62479671	46.93506722	-73
15850	0	0.370722771	-0.101210594	0.084490776	0.999999046	3.24249E-05	9.72748E-05	0.000366211	9.268069267	-2.530264854	2.112269402	0.001621246	0.004863739	0.018310547	-0.575439453	0.182128906	-0.778564453	878.34	-49.83185785	-70.59040185	46.96059399	-73
15851	0	0.373046875	-0.09564209	0.082092285	0.999999046	-0.000736237	0.000336647	0.000411987	9.326171875	-2.391052246	2.052307129	-0.036811834	0.016832354	0.020599368	-0.577880859	0.182373047	-0.775634766	878.34	-49.89062829	-70.53460142	46.93334428	-73
15852	0	0.372174263	-0.100529671	0.08494091	0.999997139	-0.002112389	0.000400543	0.000281334	9.304356575	-2.513241768	2.123522758	-0.105619513	0.020027176	0.014066707	-0.573242188	0.184326172	-0.776123047	878.38	-50.06386981	-70.48559791	46.86023342	-73
15853	0	0.370361328	-0.100158691	0.084533691	0.999999046	-0.000320435	0.000245094	0.000209808	9.259033203	-2.503967285	2.113342285	-0.016021729	0.012254715	0.010490418	-0.573242188	0.186523438	-0.779052734	878.28	-50.05540647	-70.4543839	46.81189767	-73
15854	0	0.370889664	-0.097316742	0.083553314	0.999999046	-0.000968933	0.000350952	0.00020504	9.272241592	-2.432918549	2.088832855	-0.048446664	0.017547611	0.010252001	-0.573242188	0.188720703	-0.776367188	878.32	-50.09400847	-70.41599609	46.73454228	-73
15855	0	0.370239258	-0.102416992	0.085266113	0.999999046	-0.001022339	0.00011158	-0.000144958	9.255981445	-2.560424805	2.131652832	-0.051116953	0.005578996	-0.007247926	-0.573486328	0.190917969	-0.779541016	878.32	-50.12571667	-70.42593413	46.64325899	-74
15856	0	0.370615959	-0.101322174	0.08398056	0.999999046	0.000454903	-3.43323E-05	-1.14441E-05	9.265398979	-2.533054352	2.099514008	0.022745133	-0.001716614	-0.000572205	-0.573486328	0.191162109	-0.776611328	878.34	-50.05194536	-70.43488418	46.61947826	-74
15857	0	0.370727539	-0.099060059	0.083251953	0.999999046	-0.00043869	0.000134468	4.57764E-05	9.268188477	-2.476501465	2.081298828	-0.02193451	0.006723404	0.002288818	-0.571044922	0.190917969	-0.779541016	878.38	-50.0507328	-70.42651664	46.56416338	-74
15858	0	0.37069416	-0.101978302	0.086678505	0.999999046	-0.000646591	0.000116348	6.38962E-05	9.267354012	-2.54945755	2.166962624	-0.032329562	0.005817414	0.003194809	-0.575927734	0.191162109	-0.776367188	878.34	-50.08152305	-70.41781492	46.51789478	-74
15859	0	0.369995117	-0.099914551	0.085388184	0.999999046	-0.00012207	-0.000113487	4.19617E-05	9.24987793	-2.49786377	2.13470459	-0.006103516	-0.005674362	0.002098084	-0.573486328	0.190917969	-0.779541016	878.38	-50.10434389	-70.4279743	46.52692343	-74
15860	0	0.372385979	-0.100821495	0.085338593	0.999999046	-0.000592232	3.43323E-05	-9.53674E-05	9.309649467	-2.520537376	2.133464813	-0.029611589	0.001716614	-0.004768372	-0.573486328	0.190917969	-0.779541016	878.32	-50.11605702	-70.4393779	46.46709742	-75
15861	0	0.370849609	-0.103393555	0.085388184	0.999999046	-0.000946045	2.38419E-05	-0.000362396	9.271240234	-2.584838867	2.13470459	-0.047302254	0.001192093	-0.018119815	-0.573486328	0.193359375	-0.776855469	878.34	-50.11577223	-70.47494087	46.35113858	-75
15862	0	0.369515419	-0.101822853	0.084967613	0.999999046	-0.000837326	7.82013E-05	-0.000274658	9.237885475	-2.545571327	2.124190331	-0.041866308	0.003910065	-0.013732912	-0.573486328	0.193359375	-0.773925781	878.34	-50.1076486	-70.49873575	46.24024545	-75
15863	0	0.36895752	-0.104675293	0.085449219	0.999999046	-0.000785828	0.000100136	-1.52588E-05	9.223937988	-2.616882324	2.136230469	-0.039291386	0.005006791	-0.00076294	-0.573730469	0.195556641	-0.774169922	878.34	-50.14225793	-70.49792428	46.18071528	-75
15864	0	0.371384621	-0.104856491	0.083526611	1	1.90735E-05	2.00272E-05	-7.62939E-06	9.284615517	-2.621412277	2.088165283	0.000953674	0.001001358	-0.00038147	-0.573730469	0.195556641	-0.774169922	878.34	-50.10664426	-70.5022353	46.14447276	-75
15865	0	0.369934082	-0.101928711	0.082946777	0.999999046	-0.000427246	6.19888E-05	0.000221252	9.248352051	-2.548217773	2.073669434	-0.021362306	0.003099442	0.011062623	-0.571289063	0.195556641	-0.774169922	878.38	-50.15954991	-70.48334511	46.14791745	-75
15866	0	0.370427132	-0.10289669	0.083209038	0.999999046	-0.000402451	2.09808E-05	0.000273705	9.260678291	-2.572417259	2.080225945	-0.020122529	0.001049042	0.013685227	-0.571289063	0.197753906	-0.77734375	878.34	-50.23093886	-70.46282548	46.17373842	-75
15867	0	0.371032715	-0.101318359	0.084655762	0.999999046	-0.000209808	-9.44138E-05	0.000175476	9.275817871	-2.532958984	2.116394043	-0.010490418	-0.004720688	0.008773804	-0.571533203	0.197753906	-0.771484375	878.5	-50.28854607	-70.45941789	46.20842926	-75
15868	0	0.36942482	-0.10343647	0.083503723	0.999999046	2.38419E-05	-7.05719E-05	0.000311852	9.235620499	-2.585911751	2.087593079	0.001192093	-0.003528595	0.015592575	-0.571533203	0.197753906	-0.771484375	878.32	-50.34185127	-70.44217177	46.26701804	-74
15869	0	0.369934082	-0.099243164	0.081787109	0.999999046	0.000350952	0.000145912	0.000484467	9.248352051	-2.481079102	2.044677734	0.017547609	0.007295609	0.024223329	-0.571289063	0.197753906	-0.774414063	878.34	-50.33943633	-70.39402303	46.3063058	-74
15870	0	0.370545387	-0.099787712	0.084649086	0.999999046	-0.001213074	6.10352E-05	1.43051E-05	9.263634682	-2.494692802	2.11622715	-0.060653701	0.003051759	0.000715256	-0.573730469	0.199951172	-0.780273438	878.34	-50.44049004	-70.39365207	46.2653654	-74
15871	0	0.370239258	-0.10369873	0.083984375	0.999999046	-0.000366211	-0.000216484	0.000209808	9.255981445	-2.592468262	2.099609375	-0.018310548	-0.010824204	0.010490418	-0.571533203	0.199951172	-0.771728516	878.32	-50.55362855	-70.39620068	46.34011877	-74
15872	0	0.369867325	-0.101169586	0.084420204	0.999999046	0.000395775	-0.000352859	-4.673E-05	9.246683121	-2.529239655	2.110505104	0.019788743	-0.017642976	-0.002336502	-0.571533203	0.199951172	-0.774658203	878.34	-50.56084771	-70.4313785	46.39499401	-74
15873	0	0.372070313	-0.102783203	0.084899902	0.999999046	-0.000102997	-0.000227928	-7.62939E-06	9.301757813	-2.569580078	2.122497559	-0.005149841	-0.011396408	-0.00038147	-0.571533203	0.199951172	-0.774658203	878.24	-50.60221007	-70.45397224	46.42546534	-74
15874	0	0.372293472	-0.106030464	0.084890366	0.999998093	0.001547813	-0.000517845	-0.000145912	9.307336807	-2.650761604	2.12225914	0.077390705	-0.025892269	-0.007295612	-0.571289063	0.197509766	-0.780273438	878.32	-50.49868043	-70.50976981	46.50286741	-73
15875	0	0.368286133	-0.103149414	0.08605957	0.999996185	0.002549171	-0.000679016	-0.000148773	9.20715332	-2.578735352	2.151489258	0.127458721	-0.033950845	-0.007438668	-0.575927734	0.195556641	-0.776855469	878.32	-50.31984922	-70.57749491	46.62174056	-73
15876	0	0.369281769	-0.099018097	0.082584381	0.999997139	0.002194405	-0.000415802	9.05991E-05	9.23204422	-2.475452423	2.064609528	0.109720321	-0.020790117	0.004529957	-0.575927734	0.193359375	-0.773681641	878.32	-50.16534446	-70.60505516	46.72297188	-73
15877	0	0.372497559	-0.09954834	0.081420898	0.999999046	0.000495911	-0.000315666	-4.57764E-05	9.312438965	-2.488708496	2.035522461	0.024795534	-0.015783311	-0.002288818	-0.575683594	0.188964844	-0.7734375	878.38	-50.15221381	-70.63746695	46.76860095	-72
15878	0	0.372190475	-0.099924088	0.079879761	0.999999046	0.000497818	-0.000299454	-0.000329018	9.304761887	-2.498102188	1.996994019	0.024890902	-0.014972688	-0.016450883	-0.575927734	0.191162109	-0.776367188	878.34	-50.07594595	-70.69377091	46.74664558	-72
15879	0	0.373413086	-0.095214844	0.080993652	0.999999046	-0.000427246	-0.000102043	-0.000232697	9.335327148	-2.380371094	2.024841309	-0.021362306	-0.005102158	-0.011634827	-0.575683594	0.186767578	-0.776123047	878.28	-50.07605114	-70.72738912	46.69457136	-72
15880	0	0.37231636	-0.100118637	0.083760262	0.999999046	-0.000874519	-5.91278E-05	-0.00038147	9.307909012	-2.502965927	2.094006538	-0.043725974	-0.002956391	-0.019073489	-0.575927734	0.191162109	-0.776367188	878.38	-50.08520222	-70.77092654	46.59682189	-72
15881	0	0.372436523	-0.096557617	0.083251953	0.999999046	-0.000740051	0.000123024	-0.000301361	9.310913086	-2.41394043	2.081298828	-0.037002568	0.0061512	-0.015068056	-0.575927734	0.188964844	-0.770507813	878.32	-50.04945399	-70.79415081	46.46863314	-72
15882	0	0.369607925	-0.102259636	0.084837914	0.999997139	-0.001939774	0.000165939	-0.000348091	9.240198135	-2.556490898	2.120947838	-0.096988741	0.008296972	-0.017404568	-0.578125	0.188964844	-0.773193359	878.38	-50.1304656	-70.81815868	46.31935742	-72
15883	0	0.369995117	-0.102783203	0.083984375	0.999999046	0.000965118	-0.000300407	-0.000164032	9.24987793	-2.569580078	2.099609375	0.048255929	-0.015020373	-0.008201601	-0.578125	0.191162109	-0.776367188	878.28	-50.0354745	-70.86009951	46.33494581	-72
15884	0	0.371175766	-0.10049057	0.081391335	0.999999046	-2.00272E-05	-6.67572E-05	-0.000102997	9.27939415	-2.512264252	2.034783363	-0.001001358	-0.00333786	-0.005149841	-0.575683594	0.188964844	-0.776367188	878.32	-50.00741849	-70.87948274	46.30224454	-72
15885	0	0.369812012	-0.102172852	0.082519531	0.999999046	0.000320435	-0.000121117	8.7738E-05	9.245300293	-2.554321289	2.062988281	0.016021729	-0.006055832	0.004386902	-0.578125	0.188964844	-0.776123047	878.28	-49.99498259	-70.88599565	46.32730985	-72
15886	0	0.371461868	-0.100172043	0.08121109	0.999999046	0.000484467	-0.000167847	0.000258446	9.286546707	-2.504301071	2.030277252	0.024223329	-0.008392334	0.012922288	-0.575927734	0.188964844	-0.770507813	878.32	-50.0121898	-70.88097913	46.40313756	-72
15887	0	0.374023438	-0.102294922	0.082824707	0.999999046	0.00025177	-0.000250816	0.000213623	9.350585938	-2.557373047	2.070617676	0.012588501	-0.012540818	0.010681153	-0.578369141	0.191162109	-0.770507813	878.28	-50.06789307	-70.88592123	46.49091348	-72
15888	0	0.371703148	-0.098872185	0.083601952	0.999999046	0.001177788	-0.000188828	0.000124931	9.292578697	-2.471804619	2.09004879	0.058889403	-0.009441378	0.006246568	-0.575927734	0.188964844	-0.770507813	878.34	-49.98282311	-70.89408994	46.54203175	-71
15889	0	0.371459961	-0.097290039	0.084228516	0.999999046	0.000526428	-0.000102043	8.7738E-05	9.286499023	-2.432250977	2.105712891	0.026321412	-0.005102158	0.004386902	-0.578125	0.186767578	-0.775878906	878.28	-49.94215696	-70.89916938	46.56195113	-71
15890	0	0.373779297	-0.096353531	0.082909584	0.999999046	0.000366211	4.19617E-05	0.000151634	9.344482422	-2.408838272	2.072739601	0.018310547	0.002098084	0.007581711	-0.578125	0.186767578	-0.773193359	878.4	-49.89675513	-70.88816392	46.55726127	-71
15891	0	0.372497559	-0.096008301	0.081542969	0.999999046	0.00056839	-1.43051E-05	0.000205994	9.312438965	-2.40020752	2.038574219	0.028419496	-0.000715256	0.010299683	-0.578125	0.186767578	-0.773193359	878.32	-49.85392569	-70.87672068	46.57961308	-71
15892	0	0.37184906	-0.098023415	0.080604553	0.999999046	-0.000555992	8.7738E-05	-6.58035E-05	9.296226501	-2.450585365	2.015113831	-0.027799608	0.004386902	-0.003290177	-0.578125	0.186767578	-0.773193359	878.4	-49.85648523	-70.88166472	46.51387914	-71
15893	0	0.371643066	-0.10168457	0.081970215	0.999999046	0.000804901	-0.000170708	-0.000305176	9.29107666	-2.542114258	2.049255371	0.040245061	-0.008535386	-0.015258791	-0.580566406	0.186767578	-0.772949219	878.28	-49.71760192	-70.92658178	46.46307858	-70
15894	0	0.372889519	-0.097419739	0.081754684	0.999999046	0.000995636	-0.000156403	-0.000184059	9.322237968	-2.435493469	2.043867111	0.049781808	-0.007820131	-0.009202959	-0.580322266	0.182373047	-0.775390625	878.38	-49.57890947	-70.95992064	46.43648516	-71
15895	0	0.372802734	-0.100036621	0.082763672	0.999999046	-0.000312805	6.19888E-05	-8.39233E-05	9.320068359	-2.500915527	2.069091797	-0.015640259	0.003099442	-0.004196167	-0.580322266	0.182373047	-0.772705078	878.34	-49.55660861	-70.96824035	46.37438965	-70
15896	0	0.37097168	-0.102050781	0.082763672	0.999999046	0.001290321	-0.000247955	-6.86646E-05	9.274291992	-2.551269531	2.069091797	0.064516086	-0.01239777	-0.003433229	-0.577880859	0.182373047	-0.775634766	878.38	-49.4326225	-70.99812559	46.39803611	-70
15897	0	0.372619629	-0.097045898	0.081665039	0.999999046	0.000881195	-0.000182152	-6.10352E-05	9.315490723	-2.426147461	2.041625977	0.044059759	-0.009107591	-0.003051758	-0.577880859	0.180175781	-0.772460938	878.28	-49.34052829	-71.02254241	46.406015	-70
15898	0	0.371623993	-0.100396156	0.08249855	0.999999046	0.00062561	-0.000167847	3.8147E-05	9.290599823	-2.509903908	2.06246376	0.03128052	-0.008392335	0.001907349	-0.577636719	0.177978516	-0.775390625	878.34	-49.2959727	-71.03718926	46.43369969	-69
15899	0	0.372009277	-0.096557617	0.08190918	0.999998093	0.001580238	-0.00018692	0.000156403	9.300231934	-2.41394043	2.047729492	0.079011951	-0.009346012	0.007820133	-0.582275391	0.17578125	-0.774902344	878.38	-49.17262563	-71.04308803	46.49403786	-69
15900	0	0.374754906	-0.097272873	0.081282616	0.999999046	0.001063347	-0.000318527	-4.95911E-05	9.368872643	-2.431821823	2.032065392	0.053167354	-0.015926364	-0.002479554	-0.579833984	0.17578125	-0.777832031	878.38	-49.09703331	-71.07684857	46.54130399	-69
15901	0	0.372436523	-0.094482422	0.081359863	0.999999046	0.000991821	-0.00020504	4.19617E-05	9.310913086	-2.362060547	2.033996582	0.049591073	-0.010252001	0.002098084	-0.58203125	0.171386719	-0.77734375	878.38	-49.02095421	-71.09433911	46.58062235	-69
15902	0	0.371301651	-0.094902039	0.081578255	0.999999046	0.000610352	-0.00037384	0.000110626	9.282541275	-2.372550964	2.039456367	0.030517581	-0.018692018	0.005531312	-0.58203125	0.171386719	-0.77734375	878.44	-49.04639006	-71.11868054	46.68057541	-69
15903	0	0.374145508	-0.096984863	0.082458496	0.999999046	0.000854492	-0.000304222	3.8147E-05	9.353637695	-2.424621582	2.061462402	0.042724615	-0.015211107	0.001907349	-0.582275391	0.171386719	-0.771484375	878.44	-49.0105506	-71.14410242	46.74465495	-69
15904	0	0.372296333	-0.097053528	0.08361721	0.999999046	0.000733376	-0.000179291	4.1008E-05	9.307408333	-2.426338196	2.09043026	0.036668781	-0.008964539	0.0020504	-0.58203125	0.169189453	-0.777099609	878.34	-48.95760277	-71.15985645	46.77644217	-69
15905	0	0.370605469	-0.096862793	0.083251953	0.999999046	0.000846863	-0.000109673	3.43323E-05	9.265136719	-2.421569824	2.081298828	0.042343145	-0.005483628	0.001716614	-0.58203125	0.166992188	-0.774169922	878.44	-48.87256893	-71.17090155	46.78832164	-69
15906	0	0.370861053	-0.097724915	0.083029747	0.999999046	0.000673294	-9.34601E-05	-6.48499E-05	9.271526337	-2.443122864	2.075743675	0.033664706	-0.004673005	-0.003242493	-0.58203125	0.169189453	-0.774414063	878.32	-48.78152394	-71.18920647	46.77140086	-69
15907	0	0.373657227	-0.096435547	0.081970215	0.999999046	0.000720978	-1.43051E-05	-4.57764E-05	9.341430664	-2.410888672	2.049255371	0.036048892	-0.000715256	-0.002288819	-0.584228516	0.166992188	-0.776855469	878.38	-48.66933799	-71.19992053	46.73861635	-69
15908	0	0.372691154	-0.095488548	0.083438873	0.999999046	0.00032711	6.48499E-05	0.000124931	9.317278862	-2.387213707	2.085971832	0.016355515	0.003242493	0.006246567	-0.581787109	0.164550781	-0.773925781	878.38	-48.62018008	-71.18995486	46.72531524	-69
15909	0	0.371582031	-0.095458984	0.083740234	0.999999046	0.000411987	4.29153E-05	0.00018692	9.289550781	-2.386474609	2.093505859	0.020599366	0.002145767	0.009346009	-0.581787109	0.164550781	-0.773925781	878.32	-48.58060295	-71.17630782	46.73219239	-69
15910	0	0.372271538	-0.095103264	0.082994461	0.999999046	0.000257492	-1.33514E-05	9.15527E-05	9.306788445	-2.377581596	2.074861526	0.012874603	-0.000667572	0.004577637	-0.581787109	0.162353516	-0.776611328	878.32	-48.55173968	-71.17516349	46.73249799	-69
15911	0	0.372314453	-0.094055176	0.084716797	0.999999046	5.72205E-05	9.53674E-07	0.000232697	9.307861328	-2.351379395	2.117919922	0.002861023	4.76837E-05	0.011634827	-0.581787109	0.162353516	-0.770751953	878.32	-48.57332911	-71.16083347	46.76179855	-69
15912	0	0.373612404	-0.094647408	0.083628654	0.999999046	-0.000445366	3.8147E-06	1.81198E-05	9.340310097	-2.366185188	2.090716362	-0.022268296	0.000190735	0.000905991	-0.581787109	0.164550781	-0.776855469	878.32	-48.60399884	-71.16478709	46.73918756	-69
15913	0	0.37298584	-0.095092773	0.084472656	0.999999046	0.000160217	0.000103951	-3.43323E-05	9.324645996	-2.377319336	2.111816406	0.008010864	0.005197525	-0.001716614	-0.581787109	0.164550781	-0.776855469	878.32	-48.52823468	-71.16565831	46.67729933	-69
15914	0	0.372425079	-0.09265995	0.085066795	0.999999046	-0.000707626	0.000207901	3.71933E-05	9.310626984	-2.316498756	2.126669884	-0.03538132	0.010395051	0.001859665	-0.584228516	0.164794922	-0.776611328	878.38	-48.54124035	-71.15255609	46.60485938	-69
15915	0	0.370727539	-0.096618652	0.084594727	0.999999046	-0.000301361	1.23978E-05	6.10352E-05	9.268188477	-2.415466309	2.114868164	-0.015068054	0.000619888	0.003051758	-0.58203125	0.166992188	-0.774169922	878.38	-48.56222925	-71.15215692	46.5889082	-69
15916	0	0.371689796	-0.094456673	0.083447456	0.999999046	0.000103951	0.000143051	0	9.292244911	-2.361416817	2.086186409	0.005197525	0.007152557	0	-0.58203125	0.166992188	-0.774169922	878.34	-48.49028442	-71.14712696	46.52378779	-69
15917	0	0.371826172	-0.097839355	0.083251953	0.999999046	-0.000541687	-1.04904E-05	-7.24792E-05	9.295654297	-2.445983887	2.081298828	-0.027084352	-0.000524521	-0.003623963	-0.579589844	0.166748047	-0.774169922	878.34	-48.51513718	-71.15990135	46.48292275	-69
15918	0	0.370376587	-0.09647274	0.083016396	0.999999046	-0.000162125	3.24249E-05	0.000164032	9.259414673	-2.411818504	2.075409889	-0.008106232	0.001621246	0.008201599	-0.58203125	0.166748047	-0.777099609	878.38	-48.53850419	-71.14908229	46.48697412	-70
15919	0	0.370361328	-0.097900391	0.085327148	0.999999046	-0.000621796	4.673E-05	0.000141144	9.259033203	-2.447509766	2.133178711	-0.031089785	0.002336502	0.00705719	-0.579589844	0.166748047	-0.780029297	878.28	-48.60590438	-71.13898855	46.48215742	-69
15920	0	0.372339249	-0.098295212	0.085421562	0.999999046	-0.000130653	-0.000127792	9.82285E-05	9.308481216	-2.457380295	2.135539055	-0.006532669	-0.006389618	0.004911423	-0.58203125	0.166748047	-0.777099609	878.38	-48.65149011	-71.14567209	46.5140692	-69
15921	0	0.375793457	-0.095031738	0.083862305	0.999999046	-0.000274658	-2.57492E-05	0.000312805	9.394836426	-2.375793457	2.096557617	-0.013732911	-0.00128746	0.015640259	-0.58203125	0.166748047	-0.777099609	878.34	-48.73528209	-71.1262464	46.56924801	-69
15922	0	0.36902523	-0.093417168	0.08427906	0.999998093	-0.001387596	0.000237465	0.000366211	9.22563076	-2.335429192	2.106976509	-0.069379831	0.011873249	0.018310553	-0.58203125	0.169189453	-0.780029297	878.38	-48.89151289	-71.08234728	46.56633528	-69
15923	0	0.369567871	-0.09588623	0.084777832	0.999999046	-0.000324249	-0.000151634	0.000198364	9.239196777	-2.397155762	2.119445801	-0.016212464	-0.007581711	0.009918213	-0.579833984	0.171142578	-0.774658203	878.44	-48.98665747	-71.08219054	46.6265235	-69
15924	0	0.372728348	-0.095967293	0.08386898	0.999999046	4.48227E-05	-0.000156403	-0.000126839	9.318208694	-2.39918232	2.09672451	0.002241135	-0.007820129	-0.006341934	-0.58203125	0.171386719	-0.77734375	878.38	-48.96922812	-71.11052194	46.61245914	-69
15925	0	0.373962402	-0.098022461	0.084533691	0.999999046	-0.000675201	-8.29697E-05	-4.57764E-05	9.349060059	-2.450561523	2.113342285	-0.033760073	-0.004148484	-0.002288819	-0.582275391	0.173583984	-0.774658203	878.32	-49.03361001	-71.12626595	46.5969245	-69
15926	0	0.372093201	-0.100423813	0.085250854	0.999999046	0.000102997	-0.000104904	5.62668E-05	9.302330017	-2.510595322	2.131271362	0.005149841	-0.005245209	0.002813339	-0.582275391	0.173583984	-0.771728516	878.38	-49.03699164	-71.13462881	46.61100248	-69
15927	0	0.372741699	-0.094909668	0.083557129	0.999999046	-0.000179291	-6.00815E-05	9.53674E-05	9.31854248	-2.372741699	2.088928223	-0.008964539	-0.003004074	0.004768372	-0.579833984	0.171386719	-0.771728516	878.4	-49.06977435	-71.13630369	46.62308383	-69
15928	0	0.373831749	-0.095072746	0.083660126	0.999999046	-0.000689507	0.000179291	0.000312805	9.345793724	-2.376818657	2.091503143	-0.03447533	0.008964539	0.01564026	-0.582275391	0.173583984	-0.777587891	878.32	-49.14788171	-71.1012533	46.62134903	-69
15929	0	0.374694824	-0.092956543	0.082275391	0.999999046	-0.000892639	0.000214577	0.000354767	9.367370605	-2.323913574	2.056884766	-0.044631965	0.010728838	0.017738345	-0.579833984	0.17578125	-0.777832031	878.32	-49.24907655	-71.06013747	46.61888077	-69
15930	0	0.371724129	-0.092698097	0.083428383	0.999998093	-0.00171566	0.000390053	0.00026226	9.293103218	-2.317452431	2.085709572	-0.08578305	0.01950265	0.013113029	-0.579833984	0.17578125	-0.780761719	878.26	-49.37939822	-71.01410261	46.54941658	-69
15931	0	0.369506836	-0.097961426	0.08404541	0.999999046	-0.001281738	8.86917E-05	0	9.237670898	-2.449035645	2.101135254	-0.064086932	0.004434587	0	-0.580078125	0.180175781	-0.778320313	878.22	-49.47921777	-71.0133164	46.49872616	-70
15932	0	0.372116089	-0.100494385	0.082937241	0.999999046	-0.000658989	-3.8147E-05	-8.10623E-05	9.302902222	-2.512359619	2.073431015	-0.03294945	-0.001907349	-0.004053116	-0.580078125	0.180175781	-0.772460938	878.44	-49.52257068	-71.02895553	46.4640619	-70
15933	0	0.37286377	-0.101623535	0.083312988	0.999999046	-0.000988007	8.10623E-05	-0.000247955	9.321594238	-2.540588379	2.082824707	-0.049400338	0.004053117	-0.012397768	-0.577880859	0.182373047	-0.778564453	878.38	-49.53760487	-71.05014142	46.35878813	-71
15934	0	0.372168541	-0.102582932	0.084328651	0.999999046	-0.000404358	-5.14984E-05	-1.23978E-05	9.304213524	-2.564573288	2.108216286	-0.020217896	-0.002574921	-0.000619888	-0.580078125	0.180175781	-0.772460938	878.34	-49.57072046	-71.06043108	46.34514519	-71
15935	0	0.370544434	-0.101074219	0.084655762	0.999999046	0.000171661	-6.38962E-05	0.000144958	9.26361084	-2.526855469	2.116394043	0.008583069	-0.003194809	0.007247925	-0.580322266	0.184570313	-0.772705078	878.4	-49.57517676	-71.05771301	46.36806382	-71
15936	0	0.372052193	-0.099445343	0.083664894	0.999999046	3.71933E-05	-8.39233E-05	0.000190735	9.301304817	-2.486133575	2.091622353	0.001859665	-0.004196167	0.009536743	-0.580322266	0.184570313	-0.769775391	878.38	-49.61009436	-71.05240304	46.40689806	-71
15937	0	0.371520996	-0.09765625	0.082580566	0.999999046	-9.53674E-05	-8.67844E-05	0.000286102	9.288024902	-2.44140625	2.06451416	-0.004768372	-0.004339218	0.014305115	-0.580322266	0.182373047	-0.769775391	878.32	-49.68149775	-71.03897756	46.470017	-71
15938	0	0.37379837	-0.098557472	0.082434654	0.999999046	-0.000392914	1.52588E-05	0.000205994	9.344959259	-2.463936806	2.060866356	-0.019645692	0.000762939	0.010299683	-0.580322266	0.184570313	-0.772705078	878.4	-49.74376617	-71.02499502	46.48658921	-71
15939	0	0.371765137	-0.101074219	0.083679199	0.999999046	0.000259399	-9.05991E-05	3.43323E-05	9.294128418	-2.526855469	2.09197998	0.012969971	-0.004529953	0.001716614	-0.580322266	0.182373047	-0.772705078	878.34	-49.72137141	-71.03372662	46.49384515	-71
15940	0	0.371163368	-0.098431587	0.084516525	0.999999046	-1.43051E-05	-0.000171661	7.24792E-05	9.279084206	-2.46078968	2.112913132	-0.000715256	-0.008583069	0.003623962	-0.580322266	0.184570313	-0.769775391	878.38	-49.75900298	-71.04505134	46.52978386	-71
15941	0	0.372558594	-0.098693848	0.083251953	0.999999046	0.000114441	6.19888E-05	0.000320435	9.313964844	-2.467346191	2.081298828	0.005722046	0.003099442	0.016021729	-0.578125	0.184570313	-0.770019531	878.38	-49.77577477	-71.01736241	46.55906582	-70
15942	0	0.373523712	-0.097145081	0.082526207	0.999999046	-0.000492096	8.01086E-05	0.000250816	9.338092804	-2.428627014	2.063155174	-0.024604799	0.004005432	0.012540818	-0.580322266	0.184570313	-0.772705078	878.38	-49.84228351	-70.99450362	46.56872398	-70
15943	0	0.371826172	-0.098815918	0.081481934	0.999999046	-0.000247955	-4.1008E-05	0.000171661	9.295654297	-2.470397949	2.03704834	-0.012397766	-0.0020504	0.008583069	-0.578125	0.186767578	-0.773193359	878.34	-49.89473978	-70.9875538	46.59153818	-70
15944	0	0.371921539	-0.09758091	0.081401825	0.999999046	-0.000510216	1.14441E-05	0.000141144	9.298038483	-2.439522743	2.035045624	-0.025510789	0.000572205	0.00705719	-0.578125	0.186767578	-0.770263672	878.32	-49.95737469	-70.97948562	46.59392278	-71
15945	0	0.372558594	-0.09942627	0.08416748	0.999999046	-0.000480652	-5.62668E-05	8.7738E-05	9.313964844	-2.485656738	2.104187012	-0.024032594	-0.002813339	0.004386902	-0.580566406	0.187011719	-0.770019531	878.4	-50.02228815	-70.98103362	46.60316495	-71
15946	0	0.372061729	-0.099999428	0.083051682	0.999999046	-0.000469208	6.48499E-05	4.57764E-05	9.301543236	-2.499985695	2.076292038	-0.023460389	0.003242493	0.002288818	-0.580566406	0.187011719	-0.770019531	878.32	-50.04611519	-70.97729726	46.57086713	-71
15947	0	0.372314453	-0.100402832	0.082702637	0.999999046	-0.000205994	6.58035E-05	0.000125885	9.307861328	-2.510070801	2.067565918	-0.010299683	0.003290176	0.006294251	-0.580566406	0.189208984	-0.773193359	878.4	-50.05674632	-70.96640626	46.55531931	-70
15948	0	0.372095108	-0.099431992	0.081671715	0.999999046	-0.000124931	5.91278E-05	9.91821E-05	9.302377701	-2.485799789	2.04179287	-0.006246567	0.00295639	0.004959106	-0.580566406	0.186767578	-0.772949219	878.32	-50.05422839	-70.95837179	46.5376981	-70
15949	0	0.372009277	-0.098693848	0.082275391	0.999999046	4.95911E-05	9.53674E-07	0.000164032	9.300231934	-2.467346191	2.056884766	0.002479553	4.76837E-05	0.008201599	-0.580566406	0.189208984	-0.773193359	878.44	-50.06032093	-70.94894735	46.54851115	-70
15950	0	0.372587204	-0.096977234	0.082162857	0.999999046	-1.90735E-05	5.34058E-05	0.000144005	9.314680099	-2.424430847	2.054071426	-0.000953674	0.002670288	0.007200241	-0.580566406	0.189208984	-0.770263672	878.32	-50.05648798	-70.93752987	46.5405244	-70
15951	0	0.37322998	-0.1015625	0.081970215	0.999999046	-0.000331879	3.52859E-05	-8.39233E-05	9.330749512	-2.5390625	2.049255371	-0.016593933	0.001764298	-0.004196167	-0.578125	0.188964844	-0.770263672	878.34	-50.04487029	-70.94742432	46.48634929	-70
15952	0	0.373179436	-0.100823402	0.082843781	0.999999046	0.000416756	-4.19617E-05	-0.000123024	9.329485893	-2.52058506	2.071094513	0.020837784	-0.002098084	-0.0061512	-0.578125	0.191162109	-0.776367188	878.44	-49.95882357	-70.96637837	46.44209856	-70
15953	0	0.369384766	-0.100646973	0.083068848	0.999999046	2.67029E-05	-0.000102043	9.91821E-05	9.234619141	-2.516174316	2.076721191	0.001335144	-0.005102158	0.004959106	-0.580566406	0.187011719	-0.767089844	878.5	-49.98028563	-70.97014081	46.46766047	-70
15954	0	0.37304306	-0.100351334	0.08159256	0.999999046	0.000688553	-0.000143051	-5.81741E-05	9.326076508	-2.50878334	2.039813995	0.034427646	-0.007152558	-0.002908707	-0.580566406	0.189208984	-0.770263672	878.4	-49.90292226	-70.99073435	46.46625948	-70
15955	0	0.372680664	-0.097900391	0.081359863	0.999999046	0.000507355	-6.00815E-05	1.90735E-05	9.317016602	-2.447509766	2.033996582	0.025367738	-0.003004074	0.000953674	-0.578125	0.186767578	-0.773193359	878.38	-49.84174927	-70.99851801	46.46100022	-71
15956	0	0.37213707	-0.097588539	0.081596375	0.999999046	0.0004282	-0.000179291	0.000259399	9.303426743	-2.439713478	2.039909363	0.021409989	-0.008964539	0.012969971	-0.578125	0.184570313	-0.770019531	878.34	-49.87151665	-70.99413243	46.54361148	-70
15957	0	0.370849609	-0.098632813	0.08190918	0.999999046	0.000106812	-9.44138E-05	3.05176E-05	9.271240234	-2.465820313	2.047729492	0.005340576	-0.004720688	0.001525879	-0.580322266	0.186767578	-0.775878906	878.34	-49.86749309	-71.00353174	46.55024245	-71
15958	0	0.372629166	-0.099065781	0.082346916	0.999999046	0.000415802	-0.000116348	7.9155E-05	9.315729141	-2.476644516	2.058672905	0.020790101	-0.005817414	0.003957749	-0.577880859	0.184570313	-0.772949219	878.4	-49.84413305	-71.01029512	46.57452308	-71
15959	0	0.37286377	-0.100158691	0.082519531	0.999999046	0.000415802	-0.000113487	9.91821E-05	9.321594238	-2.503967285	2.062988281	0.020790101	-0.005674362	0.004959107	-0.580322266	0.184570313	-0.775634766	878.4	-49.82449408	-71.01505532	46.6028298	-71
15960	0	0.371947289	-0.098882675	0.082332611	0.999999046	0.000336647	5.72205E-06	7.9155E-05	9.298682213	-2.472066879	2.058315277	0.016832352	0.000286102	0.003957748	-0.577880859	0.184570313	-0.772949219	878.38	-49.77933141	-71.0127525	46.59349375	-72
15961	0	0.372497559	-0.098876953	0.082824707	0.999999046	0.000171661	2.00272E-05	0.000152588	9.312438965	-2.471923828	2.070617676	0.008583069	0.001001358	0.007629395	-0.577880859	0.184570313	-0.772949219	878.38	-49.76523512	-71.00295626	46.5969361	-71
15962	0	0.372647285	-0.098779678	0.08275032	0.999999046	0.000524521	-4.76837E-05	3.8147E-06	9.316182137	-2.469491959	2.068758011	0.026226045	-0.002384186	0.000190735	-0.580322266	0.184570313	-0.775634766	878.4	-49.69591303	-71.01118739	46.58464675	-71
15963	0	0.372070313	-0.097900391	0.082702637	0.999999046	0.000766754	-6.38962E-05	-5.72205E-05	9.301757813	-2.447509766	2.067565918	0.038337711	-0.003194809	-0.002861023	-0.580322266	0.182373047	-0.769775391	878.4	-49.58968185	-71.02596936	46.56319968	-71
15964	0	0.37276268	-0.09815979	0.082133293	0.999999046	0.000136375	6.86646E-05	5.62668E-05	9.319067001	-2.453994751	2.053332329	0.006818771	0.003433228	0.002813339	-0.577880859	0.182373047	-0.775634766	878.34	-49.54660396	-71.02102977	46.53171257	-72
15965	0	0.373352051	-0.100952148	0.08215332	0.999999046	0.000457764	4.76837E-06	-0.000133514	9.33380127	-2.523803711	2.053833008	0.022888184	0.000238419	-0.00667572	-0.580322266	0.182373047	-0.775390625	878.34	-49.44218174	-71.03731489	46.47398247	-71
15966	0	0.371423721	-0.096505165	0.083037376	0.999999046	0.000343323	-7.43866E-05	-0.000133514	9.285593033	-2.412629128	2.07593441	0.017166138	-0.00371933	-0.00667572	-0.582763672	0.182617188	-0.772460938	878.38	-49.37064198	-71.05951827	46.43670564	-71
15967	0	0.37097168	-0.098632813	0.082824707	0.999999046	-6.86646E-05	0.000134468	-4.57764E-05	9.274291992	-2.465820313	2.070617676	-0.003433228	0.006723404	-0.002288818	-0.580078125	0.180175781	-0.775390625	878.4	-49.31251783	-71.05844652	46.36552032	-72
15968	0	0.372972488	-0.098183632	0.083398819	0.999999046	0.000554085	-2.28882E-05	-5.72205E-05	9.32431221	-2.454590797	2.084970474	0.02770424	-0.001144409	-0.002861023	-0.580078125	0.180175781	-0.772460938	878.38	-49.22036418	-71.07009491	46.33273955	-72
15969	0	0.372070313	-0.096923828	0.08380127	0.999999046	8.39233E-05	-1.81198E-05	-6.86646E-05	9.301757813	-2.423095703	2.095031738	0.004196167	-0.000905991	-0.003433228	-0.580078125	0.180175781	-0.772460938	878.32	-49.17819251	-71.08237165	46.29561949	-72
15970	0	0.371293068	-0.098873138	0.083681107	0.999999046	0.000597	0	-0.000107765	9.282326698	-2.471828461	2.092027664	0.029850008	0	-0.00538826	-0.580078125	0.177978516	-0.775146484	878.38	-49.06411375	-71.09658239	46.24579454	-72
15971	0	0.369995117	-0.096618652	0.083618164	0.999999046	0.000198364	0.00011158	-8.01086E-05	9.24987793	-2.415466309	2.090454102	0.009918213	0.005578995	-0.004005432	-0.577636719	0.175537109	-0.775146484	878.34	-48.97341505	-71.09996695	46.17375769	-72
15972	0	0.372067451	-0.099455833	0.083678246	0.999999046	9.63211E-05	-1.90735E-06	-0.0001297	9.301686287	-2.486395836	2.091956139	0.004816055	-9.53674E-05	-0.006484985	-0.582519531	0.177978516	-0.774902344	878.34	-48.91234148	-71.11605599	46.1190442	-71
15973	0	0.372314453	-0.096862793	0.083557129	0.999999046	0.000167847	0.000130653	3.43323E-05	9.307861328	-2.421569824	2.088928223	0.008392334	0.006532669	0.001716614	-0.579833984	0.173583984	-0.771972656	878.28	-48.84569343	-71.10798424	46.0704209	-72
15974	0	0.371492386	-0.096616745	0.083319664	0.999999046	-0.000196457	0.000133514	4.48227E-05	9.287309647	-2.415418625	2.0829916	-0.009822846	0.00667572	0.002241135	-0.579833984	0.17578125	-0.777832031	878.38	-48.8224493	-71.09879199	46.02188383	-72
15975	0	0.371459961	-0.09552002	0.083374023	0.999999046	-0.000137329	0.000130653	6.10352E-05	9.286499023	-2.388000488	2.084350586	-0.006866455	0.006532669	0.003051758	-0.582275391	0.17578125	-0.774902344	878.28	-48.79667542	-71.08846515	45.97855103	-72
15976	0	0.371487617	-0.096687317	0.083077431	0.999999046	-6.38962E-05	0.000118256	-6.86646E-05	9.287190437	-2.417182922	2.076935768	-0.003194809	0.005912781	-0.003433228	-0.580078125	0.17578125	-0.771972656	878.34	-48.73712341	-71.09026474	45.90763925	-72
15977	0	0.373168945	-0.096313477	0.082641602	0.999999046	-0.000717163	0.000164986	-6.48499E-05	9.329223633	-2.407836914	2.066040039	-0.035858158	0.008249284	-0.003242493	-0.580078125	0.177978516	-0.778076172	878.38	-48.74163317	-71.08827121	45.82437917	-72
15978	0	0.37260437	-0.099803925	0.083780289	0.999999046	-0.00053215	6.67572E-05	-3.14713E-05	9.315109253	-2.495098114	2.094507217	-0.026607515	0.00333786	-0.001573563	-0.579833984	0.17578125	-0.774902344	878.34	-48.75734362	-71.09073587	45.77816452	-72
15979	0	0.370727539	-0.096496582	0.08416748	0.999999046	-0.000278473	3.14713E-05	0	9.268188477	-2.412414551	2.104187012	-0.013923645	0.001573563	0	-0.580078125	0.177978516	-0.775146484	878.38	-48.75972976	-71.09314017	45.74669104	-72
15980	0	0.371759415	-0.09623909	0.084197044	0.999999046	-0.000573158	8.58307E-05	8.39233E-05	9.293985367	-2.405977249	2.104926109	-0.028657915	0.004291535	0.004196167	-0.582275391	0.177978516	-0.777832031	878.4	-48.80062047	-71.08421911	45.72196	-72
15981	0	0.372375488	-0.096740723	0.084106445	0.999999046	-0.000320435	-3.71933E-05	0.000118256	9.309387207	-2.418518066	2.102661133	-0.016021729	-0.001859665	0.005912781	-0.580078125	0.177978516	-0.778076172	878.32	-48.85101601	-71.08163133	45.73787629	-72
15982	0	0.372541428	-0.097126961	0.083526611	0.999999046	-0.000259399	-1.90735E-06	0.000148773	9.31353569	-2.428174019	2.088165283	-0.012969971	-9.53674E-05	0.00743866	-0.580078125	0.180175781	-0.775390625	878.5	-48.89227814	-71.07375972	45.7494841	-71
15983	0	0.372680664	-0.097106934	0.082763672	0.999999046	-0.000541687	0.000153542	0.000118256	9.317016602	-2.42767334	2.069091797	-0.027084352	0.007677079	0.005912781	-0.580078125	0.180175781	-0.775390625	878.34	-48.92015425	-71.05685686	45.71378589	-71
15984	0	0.3712883	-0.09771347	0.084357262	0.999999046	-0.000470161	3.62396E-05	0.000132561	9.282207489	-2.442836761	2.108931541	-0.023508073	0.001811981	0.006628037	-0.580078125	0.180175781	-0.772460938	878.34	-48.97247041	-71.04750829	45.71329722	-71
15985	0	0.373352051	-0.09765625	0.082824707	0.999999046	0.000236511	-5.62668E-05	1.52588E-05	9.33380127	-2.44140625	2.070617676	0.011825562	-0.002813339	0.000762939	-0.580078125	0.180175781	-0.772460938	878.28	-48.94151748	-71.05529956	45.70982515	-71
15986	0	0.372930527	-0.095858574	0.084047318	0.999999046	-0.00069809	1.90735E-05	5.72205E-05	9.323263168	-2.396464348	2.101182938	-0.034904483	0.000953674	0.002861023	-0.577636719	0.180175781	-0.778320313	878.38	-49.00770506	-71.05385434	45.69678271	-71
15987	0	0.372253418	-0.096679688	0.08416748	0.999999046	-0.000370026	3.91006E-05	0.000141144	9.306335449	-2.416992188	2.104187012	-0.018501282	0.001955032	0.00705719	-0.580078125	0.180175781	-0.772460938	878.34	-49.04948816	-71.04366092	45.69869905	-71
15988	0	0.371487617	-0.094771385	0.082782745	0.999999046	-0.000338554	9.15527E-05	4.95911E-05	9.287190437	-2.36928463	2.069568634	-0.016927719	0.004577637	0.002479553	-0.577880859	0.184570313	-0.772949219	878.28	-49.05424643	-71.03756659	45.66018854	-71
15989	0	0.371032715	-0.09765625	0.083374023	0.999999046	-0.000587463	-1.43051E-05	-3.05176E-05	9.275817871	-2.44140625	2.084350586	-0.029373171	-0.000715256	-0.001525879	-0.577880859	0.182373047	-0.769775391	878.4	-49.09675038	-71.0463444	45.63471834	-71
15990	0	0.37335968	-0.096997261	0.081050873	0.999999046	-0.000972748	2.47955E-05	0.000152588	9.333992004	-2.424931526	2.02627182	-0.048637398	0.001239777	0.007629396	-0.580322266	0.184570313	-0.772705078	878.28	-49.21376792	-71.03644878	45.64157167	-71
15991	0	0.373291016	-0.100280762	0.083862305	0.999999046	-0.000873566	0.00011158	2.28882E-05	9.332275391	-2.507019043	2.096557617	-0.043678289	0.005578995	0.001144409	-0.580322266	0.184570313	-0.775634766	878.32	-49.26942494	-71.03122637	45.59735003	-71
15992	0	0.371619225	-0.098490715	0.08334446	0.999999046	-0.00049305	-1.33514E-05	0.000128746	9.290480614	-2.462267876	2.083611488	-0.024652482	-0.000667572	0.006437302	-0.578125	0.188964844	-0.776123047	878.4	-49.33611047	-71.02612474	45.60596468	-71
15993	0	0.372314453	-0.098510742	0.084228516	0.999999046	-0.000389099	-6.38962E-05	-6.48499E-05	9.307861328	-2.462768555	2.105712891	-0.019454957	-0.003194809	-0.003242493	-0.578125	0.188964844	-0.773193359	878.28	-49.36153613	-71.04157724	45.58385464	-71
15994	0	0.373191833	-0.09901619	0.083370209	0.999999046	-0.000320435	2.09808E-05	3.8147E-05	9.329795837	-2.475404739	2.084255219	-0.016021729	0.001049042	0.001907349	-0.578125	0.188964844	-0.773193359	878.28	-49.38005897	-71.04171245	45.56336977	-71
15995	0	0.371887207	-0.09954834	0.083190918	0.999999046	4.19617E-05	-3.33786E-05	1.90735E-05	9.297180176	-2.488708496	2.079772949	0.002098083	-0.00166893	0.000953674	-0.578125	0.188964844	-0.776123047	878.34	-49.36681068	-71.04749829	45.5533019	-71
15996	0	0.372193336	-0.09778595	0.082562447	0.999999046	7.15256E-05	-0.000101089	-0.000240326	9.304833412	-2.444648743	2.064061165	0.003576279	-0.005054474	-0.012016297	-0.578125	0.186767578	-0.770263672	878.38	-49.31088885	-71.08091033	45.50326068	-71
15997	0	0.371154785	-0.098083496	0.082824707	0.999999046	-0.000106812	-0.00014782	-0.00019455	9.278869629	-2.452087402	2.070617676	-0.005340576	-0.007390976	-0.009727478	-0.580566406	0.186767578	-0.772949219	878.34	-49.29714804	-71.11380211	45.47692954	-71
15998	0	0.373109818	-0.099909782	0.082509041	0.999999046	0.000116348	-0.000133514	-0.000332832	9.327745438	-2.49774456	2.062726021	0.005817413	-0.00667572	-0.016641617	-0.580566406	0.187011719	-0.770019531	878.38	-49.2240794	-71.15756321	45.41337622	-70
15999	0	0.372253418	-0.097717285	0.083251953	0.999999046	0	-4.86374E-05	-0.000408173	9.306335449	-2.442932129	2.081298828	0	-0.00243187	-0.020408631	-0.578125	0.186767578	-0.773193359	878.32	-49.12582867	-71.20143604	45.30823663	-70
16000	0	0.368251801	-0.097538948	0.082055092	0.999999046	0.000226021	-0.000236511	-0.000393867	9.206295013	-2.438473701	2.051377296	0.011301041	-0.011825562	-0.019693375	-0.580322266	0.184570313	-0.772705078	878.38	-49.05237537	-71.25805132	45.25886254	-70
16001	0	0.369934082	-0.098693848	0.082458496	0.999999046	0.000354767	-0.000472069	-0.000785828	9.248352051	-2.467346191	2.061462402	0.017738345	-0.023603443	-0.039291388	-0.580322266	0.184570313	-0.775634766	878.4	-48.93699257	-71.3661323	45.17877067	-69
16002	0	0.363825798	-0.101847649	0.083407402	0.999997139	0.001150131	-0.000637054	-0.001919746	9.095644951	-2.546191216	2.085185051	0.057506613	-0.031852751	-0.095987407	-0.580322266	0.182373047	-0.775390625	878.38	-48.51532725	-71.58382916	44.86883679	-69
16003	0	0.375183105	-0.107727051	0.082824707	0.999993324	0.001525879	-0.001051903	-0.002986908	9.379577637	-2.69317627	2.070617676	0.076294102	-0.052595247	-0.149345706	-0.582519531	0.177978516	-0.774902344	878.34	-47.90152816	-71.92302709	44.40024094	-68
16004	0	0.38462925	-0.109937668	0.083453178	0.999983788	0.00347805	-0.001146317	-0.004351616	9.615731239	-2.748441696	2.08632946	0.173903449	-0.057316135	-0.217581968	-0.586914063	0.171630859	-0.774169922	878.34	-46.7343164	-72.38171005	43.58097946	-67
16005	0	0.37487793	-0.080993652	0.076721191	0.999990463	-0.001170158	0.00025177	-0.004108429	9.371948242	-2.024841309	1.918029785	-0.058508098	0.012588539	-0.205422075	-0.588867188	0.160400391	-0.767333984	878.32	-45.74703958	-72.70515488	42.40473225	-64
16006	0	0.378035545	-0.090900421	0.082553864	0.99997139	-0.006331444	0.001353264	-0.003574371	9.450888634	-2.272510529	2.063846588	-0.316575075	0.06766381	-0.178720196	-0.588867188	0.160400391	-0.770263672	878.28	-45.16794708	-72.89143073	41.04621337	-65
16007	0	0.381652832	-0.104125977	0.087585449	0.999980927	-0.002879143	0.001449585	-0.005203247	9.541320801	-2.603149414	2.18963623	-0.143958037	0.072479701	-0.260163978	-0.588867188	0.164794922	-0.776367188	878.34	-43.70193516	-73.19250935	39.16781331	-64
16008	0	0.370488167	-0.112962723	0.094161987	0.999944687	-0.003076553	0.001320839	-0.009969711	9.26220417	-2.824068069	2.354049683	-0.153830503	0.066043164	-0.498494755	-0.588867188	0.158203125	-0.772949219	878.34	-40.83560082	-73.84967145	35.80875878	-64
16009	0	0.359802246	-0.113464355	0.091430664	0.999890327	-0.003356934	0.001179695	-0.014343262	8.995056152	-2.836608887	2.285766602	-0.16785279	0.058986904	-0.717189192	-0.590820313	0.151611328	-0.775146484	878.4	-36.33217828	-74.7683999	30.72192576	-63
16010	0	0.357688904	-0.101221085	0.089727402	0.999860764	-0.001900673	0.000821114	-0.016532898	8.942222595	-2.530527115	2.243185043	-0.095038043	0.041057579	-0.826683152	-0.597412109	0.138427734	-0.770996094	878.38	-30.33082311	-75.72897099	24.27621395	-62
16011	0	0.368896484	-0.084777832	0.087585449	0.999860764	-0.00342083	0.001968384	-0.016170502	9.222412109	-2.119445801	2.18963623	-0.171049388	0.098423735	-0.808562425	-0.598876953	0.118408203	-0.774902344	878.38	-23.65910996	-76.36590498	16.99206865	-60
16012	0	0.375946045	-0.070532799	0.092140198	0.999821663	-0.011630058	0.00481987	-0.014015198	9.398651123	-1.763319969	2.303504944	-0.581537317	0.241007757	-0.700801346	-0.600830078	0.109619141	-0.779785156	878.4	-17.98220498	-76.41547133	9.789493418	-61
16013	0	0.36932373	-0.075866699	0.111572266	0.999770164	-0.016357422	0.007390022	-0.011646271	9.233093262	-1.89666748	2.789306641	-0.817933512	0.369529313	-0.582357979	-0.591552734	0.113769531	-0.777832031	878.38	-13.70755451	-75.95812319	3.475887282	-65
16014	0	0.360297203	-0.081479073	0.136505127	0.999763489	-0.016631126	0.010022163	-0.009760857	9.007430077	-2.036976814	3.412628174	-0.831621793	0.501147625	-0.488081258	-0.582275391	0.124511719	-0.78515625	878.34	-10.47537185	-75.06008005	-1.807070845	-72
16015	0	0.35925293	-0.094055176	0.157714844	0.99976635	-0.014896393	0.012345314	-0.00963974	8.981323242	-2.351379395	3.942871094	-0.744877654	0.617313779	-0.482024541	-0.570800781	0.137451172	-0.789550781	878.32	-7.506399806	-73.8234117	-6.640763928	-65
16016	0	0.358107567	-0.104574203	0.166303635	0.999806404	-0.008868217	0.013866425	-0.010741234	8.952689171	-2.614355087	4.157590866	-0.443439426	0.693365874	-0.537096275	-0.552001953	0.147949219	-0.803222656	878.32	-4.019954334	-72.35178879	-11.34154377	-62
16017	0	0.351867676	-0.112426758	0.169128418	0.999825478	-0.00094986	0.015347481	-0.01052475	8.796691895	-2.810668945	4.228210449	-0.04749573	0.767418453	-0.526267946	-0.532714844	0.144775391	-0.815673828	878.28	-0.39041281	-70.62527432	-15.29427536	-62
16018	0	0.354104996	-0.101750374	0.153833389	0.999815941	0.00520134	0.017726898	-0.00512886	8.852624893	-2.543759346	3.845834732	0.260082922	0.886399222	-0.256458738	-0.510498047	0.1328125	-0.833251953	878.38	1.652631669	-68.57269465	-16.85714066	-61
16019	0	0.35357666	-0.111877441	0.15435791	0.999786377	0.005669594	0.019794464	0.001205444	8.839416504	-2.796936035	3.858947754	0.283499794	0.989793393	0.060276491	-0.480712891	0.118408203	-0.856689453	878.38	1.728637304	-66.2945076	-16.24436033	-71
16020	0	0.358008385	-0.12700367	0.161010742	0.99973011	0.004714012	0.021333694	0.007813454	8.950209618	-3.175091743	4.025268555	0.235721763	1.066780463	0.390707748	-0.44921875	0.112548828	-0.878417969	878.34	0.168860823	-63.84886173	-13.92889698	-62
16021	0	0.347412109	-0.15057373	0.158630371	0.999583244	-0.002445221	0.023640633	0.016334534	8.685302734	-3.764343262	3.965759277	-0.122278001	1.182195537	0.816839936	-0.40625	0.117675781	-0.892822266	878.18	-3.635177136	-61.06576875	-9.923627034	-62
16022	0	0.315099716	-0.171291351	0.150000572	0.999409676	0.004781723	0.02381897	0.024280548	7.877492905	-4.282283783	3.750014305	0.239133187	1.191182782	1.21426624	-0.359130859	0.138183594	-0.917236328	878.38	-7.449570932	-58.05779737	-4.863363058	-67
16023	0	0.272888184	-0.17388916	0.130371094	0.999209404	0.007137299	0.023316383	0.03137207	6.82220459	-4.347229004	3.259277344	0.356958899	1.166126152	1.569016561	-0.306640625	0.142822266	-0.935058594	878.32	-11.4158443	-54.80554665	0.890366203	-72
16024	0	0.228383064	-0.201929092	0.115841866	0.999032974	0.009210587	0.021466255	0.037238121	5.709576607	-5.04822731	2.896046638	0.460677771	1.073658723	1.862506204	-0.251953125	0.147705078	-0.950195313	878.32	-15.23701356	-51.39532714	6.995881993	-79
16025	0	0.158569336	-0.249145508	0.076416016	0.998684883	0.019096375	0.017548561	0.044223785	3.964233398	-6.228637695	1.910400391	0.95523749	0.877812877	2.212159054	-0.204101563	0.150390625	-0.967529297	878.32	-18.19142941	-47.97124835	13.65587756	-80
16026	0	0.05947876	-0.247240067	0.022936821	0.997106552	0.045260429	0.017279625	0.058571815	1.486968994	-6.181001663	0.573420525	2.26520635	0.864815395	2.931418243	-0.155029297	0.121826172	-0.982177734	878.28	-19.02715092	-43.89762975	21.71968982	-74
16027	0	0.063598633	-0.237731934	-0.047180176	0.995340347	0.063233376	0.016635895	0.070869446	1.58996582	-5.94329834	-1.179504395	3.16658876	0.833089124	3.548986411	-0.105957031	0.037597656	-1.001220703	878.34	-18.18411971	-39.43079453	30.84954905	-70
16028	0	0.085551262	-0.25625515	-0.064255714	0.994235039	0.068854332	0.014316559	0.080935478	2.138781548	-6.406378746	-1.60639286	3.449347454	0.717206665	4.054568213	-0.076904297	-0.079101563	-1.013183594	878.38	-16.72867403	-35.002038	40.87261673	-76
16029	0	0.000305176	-0.227478027	-0.05065918	0.99468708	0.062591553	0.009957314	0.081119537	0.007629395	-5.686950684	-1.266479492	3.135131639	0.49874923	4.063174933	-0.069335938	-0.203857422	-0.997558594	878.38	-15.26542332	-31.25263261	50.68021669	-71
16030	0	0.069149971	-0.225869179	0.098982811	0.9960289	0.03831768	0.010861397	0.079624176	1.728749275	-5.646729469	2.474570274	1.918424042	0.543789826	3.986486975	-0.086914063	-0.303222656	-0.979492188	878.38	-15.71955265	-27.51410827	60.1346421	-66
16031	0	0.38861084	-0.061828613	-0.05871582	0.993881226	0.071587563	0.013271332	0.083053589	9.715270996	-1.545715332	-1.467895508	3.586695726	0.66492317	4.161169085	-0.117675781	-0.373291016	-0.954589844	878.38	-11.81886608	-23.67910293	69.41072577	-78
16032	0	0.419563293	0.25108242	-0.286352158	0.996043205	0.034256935	-0.032136917	0.075432777	10.48908234	6.277060509	-7.15880394	1.715109031	-1.608968128	3.776620334	-0.175292969	-0.493164063	-0.895019531	878.4	-12.1542165	-25.43516361	78.70297661	-72
16033	0	2.165405273	0.62298584	2.372314453	0.991415977	-0.03679657	0.107281685	0.065044403	54.13513184	15.574646	59.30786133	-1.845110936	5.379485396	3.261557803	-0.314208984	-0.485839844	-0.867675781	878.24	-17.71690543	-11.58763048	85.22433117	-67
16034	0	0.769659996	-0.491709709	0.809924126	0.985203743	-0.15804863	-0.056829453	0.034130096	19.2414999	-12.29274273	20.24810314	-7.941639424	-2.8555706	1.71497165	-0.212402344	-0.318847656	-0.968505859	878.38	-37.50280533	-15.58039988	91.90268555	-67
16035	0	0.160949707	-0.381958008	-0.033752441	0.998464584	0.012913704	-0.048603058	0.023204803	4.023742676	-9.548950195	-0.843811035	0.646015757	-2.43139702	1.160834163	-0.311767578	-0.055175781	-0.979248047	878.34	-37.71673877	-18.40619581	97.33503012	-72
16036	0	0.218050003	-0.203867912	0.084025383	0.99979496	-0.017237663	-0.006034851	0.008738518	5.451250076	-5.096697807	2.100634575	-0.861942058	-0.301763172	0.436955744	-0.385009766	-0.074707031	-0.953125	878.34	-40.10911559	-18.35534615	98.81829304	-72
16037	0	0.149108887	-0.318237305	0.242797852	0.999917984	0.003857613	0.010139465	0.006717682	3.727722168	-7.955932617	6.069946289	0.192885865	0.506987025	0.33589321	-0.38671875	-0.034667969	-0.953613281	878.38	-39.63555409	-17.01030635	98.94462284	-72
16038	0	0.100937843	-0.196953773	0.32910347	0.999894142	0.007333755	0.011045456	0.005979538	2.523446083	-4.923844337	8.227586746	0.366700704	0.55229227	0.29898744	-0.362304688	-0.048828125	-0.962402344	878.38	-38.73106663	-15.63454178	98.88329214	-71
16039	0	0.112670898	-0.273925781	0.309631348	0.999955177	-0.004497528	0.00609684	0.00560379	2.816772461	-6.848144531	7.740783691	-0.224879732	0.304846507	0.280193661	-0.345458984	-0.047363281	-0.969238281	878.38	-39.27838341	-14.72451609	99.09999406	-70
16040	0	0.109077454	-0.28373909	0.285333633	0.999957085	0.005843163	0.006225586	0.003481865	2.72693634	-7.093477249	7.133340836	0.292162267	0.311283708	0.174095714	-0.333984375	-0.038818359	-0.973388672	878.4	-38.5912156	-13.95513451	99.08800621	-69
16041	0	0.109680176	-0.239135742	0.294006348	0.999892235	0.011142731	0.008572578	0.004108429	2.742004395	-5.978393555	7.350158691	0.557156458	0.428644249	0.205428793	-0.323730469	-0.052734375	-0.981689453	878.44	-37.27600669	-12.92698062	98.98521118	-69
16042	0	0.10153389	-0.250299454	0.311160088	0.999897957	0.009828568	0.009321213	0.004383087	2.538347244	-6.257486343	7.77900219	0.491444979	0.466076385	0.219161762	-0.303955078	-0.068847656	-0.984130859	878.44	-36.11556053	-11.80587807	98.85635304	-68
16043	0	0.089599609	-0.234741211	0.316894531	0.999893188	0.011185646	0.008518219	0.003982544	2.239990234	-5.868530273	7.922363281	0.55930221	0.425926109	0.199134285	-0.283935547	-0.089599609	-0.986572266	878.38	-34.81225249	-10.7808488	98.73975543	-68
16044	0	0.06661129	-0.188908577	0.341317177	0.999946594	0.007282257	0.005476952	0.004761696	1.665282249	-4.722714424	8.53292942	0.364119269	0.273852405	0.238088988	-0.270996094	-0.107910156	-0.994384766	878.38	-34.01041167	-9.98805625	98.88919859	-69
16045	0	0.059448242	-0.213317871	0.316894531	0.999978065	0.000289917	0.004063606	0.005069733	1.486206055	-5.332946777	7.922363281	0.014495952	0.203181746	0.25348842	-0.261230469	-0.112792969	-0.997314453	878.44	-34.0298072	-9.309085357	99.14618952	-69
16046	0	0.065668106	-0.217300415	0.323554039	0.999984741	0.000332832	0.002532005	0.004711151	1.641702652	-5.432510376	8.088850975	0.016641696	0.126600871	0.235558684	-0.256591797	-0.112792969	-0.997558594	878.4	-34.05190427	-8.797721081	99.46076838	-69
16047	0	0.049377441	-0.236755371	0.310119629	0.999985695	0.002990723	0.002919197	0.003120422	1.234436035	-5.918884277	7.752990723	0.149536811	0.145960516	0.156021826	-0.251953125	-0.108642578	-0.992431641	878.32	-33.74153981	-8.350551809	99.60150436	-67
16048	0	0.053330421	-0.238467216	0.353742599	0.999980927	0.005655289	-0.000899315	-0.001387596	1.333260536	-5.961680412	8.843564987	0.282766071	-0.044966004	-0.069380208	-0.246826172	-0.117675781	-0.994873047	878.38	-33.09781752	-8.552741871	99.52144056	-68
16049	0	0.046386719	-0.194580078	0.321838379	0.999984741	0.003441811	-0.003158569	-0.002910614	1.159667969	-4.864501953	8.045959473	0.172091399	-0.157929264	-0.145531435	-0.248779297	-0.128662109	-0.996826172	878.38	-32.70503729	-9.065126833	99.41525485	-67
16050	0	0.065299988	-0.201992035	0.324116707	0.999993324	8.39233E-05	-0.002826691	-0.002024651	1.632499695	-5.049800873	8.102917671	0.004196175	-0.141334819	-0.101232733	-0.255615234	-0.135253906	-0.995849609	878.4	-32.70587145	-9.489935199	99.37895775	-67
16051	0	0.066589355	-0.230834961	0.325561523	0.999988556	0.002305031	-0.002750397	-0.003093719	1.664733887	-5.770874023	8.139038086	0.115251972	-0.137520351	-0.154686553	-0.260498047	-0.137207031	-0.989746094	878.4	-32.43377442	-9.97265378	99.23622611	-67
16052	0	0.06619072	-0.188871384	0.357818604	0.999979973	0.000882149	-0.005342484	-0.003240585	1.65476799	-4.721784592	8.945465088	0.04410773	-0.267125949	-0.162030342	-0.262451172	-0.143798828	-0.991943359	878.34	-32.34748483	-10.7138926	99.20705422	-67
16053	0	0.074768066	-0.236206055	0.365112305	0.999905586	-0.005245209	-0.011260033	-0.005775452	1.86920166	-5.905151367	9.127807617	-0.26226864	-0.563019243	-0.288781615	-0.276855469	-0.143310547	-0.985351563	878.46	-32.98881691	-12.18177072	99.28756566	-67
16054	0	0.130550385	-0.292686462	0.392150879	0.999463081	0.015045166	-0.019258499	-0.021790504	3.263759613	-7.31716156	9.803771973	0.752392778	-0.963097095	-1.089719992	-0.30078125	-0.142333984	-0.975341797	878.38	-31.04432347	-15.40238885	98.219268	-67
16055	0	0.30657959	-0.291992188	0.366149902	0.998106003	0.036248207	-0.027671814	-0.041267395	7.664489746	-7.299804688	9.153747559	1.813554926	-1.384464462	-2.064672808	-0.333984375	-0.209960938	-0.959228516	878.44	-26.04336958	-20.48375014	95.31502974	-68
16056	0	0.331481934	-0.238324165	0.294908524	0.998897552	0.006837845	-0.03249836	-0.033165932	8.28704834	-5.958104134	7.372713089	0.342017892	-1.625515159	-1.658906027	-0.364501953	-0.295410156	-0.915527344	878.4	-24.49036504	-25.51763968	93.18220874	-69
16057	0	0.283996582	-0.273010254	0.292907715	0.997642517	-0.002455711	-0.043838501	-0.052734375	7.099914551	-6.825256348	7.322692871	-0.122882134	-2.193648912	-2.638792426	-0.40625	-0.327148438	-0.890380859	878.34	-22.83298138	-32.59893343	89.00544412	-70
16058	0	0.285703659	-0.239264488	0.274082184	0.995628357	-0.008114815	-0.063559532	-0.067948341	7.142591476	-5.981612206	6.852054596	-0.40633292	-3.182614896	-3.402375632	-0.447998047	-0.374267578	-0.846435547	878.4	-20.27614146	-42.30651468	83.03661526	-69
16059	0	0.273254395	-0.150390625	0.240966797	0.993331909	-0.009554863	-0.08612442	-0.076034546	6.831359863	-3.759765625	6.024169922	-0.478807726	-4.31581676	-3.81019886	-0.50390625	-0.429931641	-0.780761719	878.38	-15.42376051	-54.47380672	74.80300071	-67
16060	0	0.193987846	0.017889977	0.259097099	0.993920326	0.003378868	-0.08898735	-0.064745903	4.849696159	0.447249413	6.477427483	0.169286608	-4.458406269	-3.243871611	-0.568847656	-0.506835938	-0.683837891	878.32	-5.436969767	-65.96347821	63.50054818	-69
16061	0	0.069213867	0.144714355	0.223937988	0.995650291	0.010879517	-0.081683159	-0.043460846	1.73034668	3.617858887	5.598449707	0.544765812	-4.090089109	-2.17619807	-0.614990234	-0.589111328	-0.572998047	878.34	11.50023679	-75.1862537	46.67705046	-72
16062	0	-0.090605736	0.176420212	0.217857361	0.997673988	0.010551453	-0.066530228	-0.010386467	-2.265143394	4.410505295	5.446434021	0.52798196	-3.329092324	-0.519726277	-0.655273438	-0.640136719	-0.453613281	878.38	32.62360929	-81.92261682	26.27446064	-72
16063	0	-0.126037598	-0.029541016	0.253540039	0.999368668	0.023434639	-0.019470215	0.018226624	-3.150939941	-0.738525391	6.338500977	1.171978246	-0.973715374	0.911522738	-0.694335938	-0.660400391	-0.354003906	878.32	30.17032702	-84.91034453	31.50224851	-71
16064	0	1.064994812	-0.111606598	0.032616615	0.998898506	0.009608269	-0.024467468	0.038844109	26.6248703	-2.790164948	0.815415382	0.48058975	-1.223822395	1.942918225	-0.736816406	-0.631835938	-0.304931641	878.34	-48.99985268	-87.59517667	111.9589951	-71
16065	0	0.499511719	-0.128051758	-0.013305664	0.999955177	0.00226593	-0.002047539	0.008953094	12.48779297	-3.201293945	-0.332641602	0.113298199	-0.102378465	0.447661401	-0.784667969	-0.587646484	-0.265380859	878.4	-64.5403739	-86.87565365	127.9164751	-72
16066	0	0.244559288	0.078591347	0.001930237	0.999874115	0.009819984	-0.00265789	0.012140274	6.113982201	1.964783669	0.04825592	0.491019755	-0.132900073	0.607039087	-0.792236328	-0.580566406	-0.256835938	878.44	-75.26146961	-85.68749729	139.9020079	-70
16067	0	0.401062012	-0.061096191	0.027648926	0.999840736	-0.004470825	-0.005198479	0.016475677	10.02655029	-1.527404785	0.691223145	-0.223553126	-0.259937733	0.823827605	-0.8125	-0.559814453	-0.242919922	878.34	-85.76105681	-83.93365674	150.0756086	-70
16068	0	0.477002144	-0.057715416	0.015398979	0.999886513	0.005721092	-0.004911423	0.012989998	11.9250536	-1.442885399	0.38497448	0.286065368	-0.245580371	0.649524316	-0.828125	-0.532470703	-0.238525391	878.44	-90.32605061	-82.47876458	155.4301321	-70
16069	0	0.353637695	-0.045654297	-0.00402832	0.999869347	0.005882263	-0.003592491	0.014602661	8.840942383	-1.141357422	-0.100708008	0.294125942	-0.179632364	0.73016479	-0.841064453	-0.514160156	-0.224853516	878.34	-92.26030638	-80.81048936	158.1640655	-70
16070	0	0.40899086	-0.078538895	0.021894455	0.999818802	0.009772301	-0.004120827	0.015786171	10.2247715	-1.963472366	0.547361374	0.488644495	-0.206053758	0.789356136	-0.858886719	-0.489013672	-0.211425781	878.32	-93.33876764	-78.99350442	160.4760785	-70
16071	0	0.38293457	-0.073608398	0.024230957	0.999746323	0.013215065	-0.006290436	0.017074585	9.573364258	-1.840209961	0.605773926	0.660808959	-0.314548307	0.853801227	-0.874511719	-0.466064453	-0.1953125	878.34	-94.60250552	-77.00389323	163.3709977	-71
16072	0	0.385745049	-0.112661362	0.00598526	0.999680519	0.017687798	-0.008789063	0.015756607	9.643626213	-2.816534042	0.1496315	0.884484	-0.439499895	0.787914199	-0.893066406	-0.436279297	-0.164794922	878.38	-95.97239959	-75.12353125	166.9119388	-72
16073	0	0.388305664	-0.138122559	-0.040527344	0.999881744	0.008263588	-0.007350922	0.010608673	9.707641602	-3.453063965	-1.013183594	0.413195573	-0.36756047	0.530454421	-0.90625	-0.415771484	-0.13671875	878.46	-97.54958536	-73.82583187	169.5871622	-73
16074	0	0.385905266	-0.158792496	-0.012239456	0.999946594	0.009123802	-0.003893852	0.0027771	9.647631645	-3.969812393	-0.305986404	0.456198178	-0.194696055	0.138857436	-0.914306641	-0.404052734	-0.114257813	878.44	-97.88918751	-73.45706719	171.0972343	-75
16075	0	0.382385254	-0.136291504	-0.006530762	0.999951363	0.00831604	-0.00467205	-0.002212524	9.559631348	-3.407287598	-0.163269043	0.415808647	-0.233606257	-0.110627989	-0.916992188	-0.403808594	-0.105224609	878.5	-98.87611913	-73.63518528	173.1627742	-78
16076	0	0.368504524	-0.138379097	-0.00381279	0.999931335	0.007843018	-0.006171227	-0.006074905	9.212613106	-3.459477425	-0.095319748	0.392159801	-0.308568345	-0.30375218	-0.914550781	-0.412841797	-0.087402344	878.4	-100.8256858	-74.20405109	176.165755	-78
16077	0	0.381164551	-0.132995605	-0.031311035	0.999914169	0.005665779	-0.005523682	-0.010353088	9.52911377	-3.324890137	-0.782775879	0.283296973	-0.276191899	-0.51766907	-0.911621094	-0.426025391	-0.074707031	878.38	-103.371577	-75.23414053	179.5050168	-76
16078	0	0.372588158	-0.121963501	-0.02428627	0.999885559	0.005459785	-0.003905296	-0.013533592	9.314703941	-3.049087524	-0.607156754	0.272999658	-0.195272244	-0.676705352	-0.899169922	-0.450927734	-0.056152344	878.34	-106.0640893	-76.62204218	-177.0316753	-75
16079	0	0.38671875	-0.101989746	-0.0390625	0.999869347	0.003307343	-0.001830101	-0.015659332	9.66796875	-2.549743652	-0.9765625	0.165374279	-0.091509009	-0.783000481	-0.888671875	-0.477783203	-0.039794922	878.38	-109.0359644	-78.27070371	-173.5341833	-75
16080	0	0.387878418	-0.095153809	-0.042297363	0.999830246	-0.000923157	0.001099586	-0.018333435	9.696960449	-2.378845215	-1.057434082	-0.046160439	0.054982424	-0.916723427	-0.870849609	-0.507324219	-0.041259766	878.4	-112.479155	-80.27987726	-170.0740226	-76
16081	0	0.387207031	-0.07824707	-0.026123047	0.999778748	-0.003390312	0.003242493	-0.020496368	9.680175781	-1.956176758	-0.653076172	-0.169528103	0.162136582	-1.024893949	-0.854980469	-0.541259766	-0.048095703	878.44	-117.2077709	-82.5674091	-165.6197187	-80
16082	0	0.389972687	-0.05683136	-0.033931732	0.999709129	-0.006456375	0.005342484	-0.022574425	9.749317169	-1.420783997	-0.848293304	-0.322849961	0.267149997	-1.128830344	-0.831787109	-0.580078125	-0.0546875	878.38	-125.6452764	-85.09730012	-157.7915932	-77
16083	0	0.386657715	-0.030334473	-0.021728516	0.99968338	-0.006777763	0.006771088	-0.023227692	9.666442871	-0.758361816	-0.543212891	-0.338923836	0.338590015	-1.161506816	-0.803466797	-0.616699219	-0.073486328	878.38	-148.7056093	-87.51798016	-135.3827633	-73
16084	0	0.385215759	0.019449234	-0.016613007	0.999711037	-0.009476662	0.008865356	-0.020204544	9.630393982	0.48623085	-0.415325165	-0.473878633	0.443310433	-1.010324316	-0.775390625	-0.653320313	-0.098144531	878.38	136.4213606	-88.46458278	-61.47438817	-73
16085	0	0.370361328	0.046691895	-0.035888672	0.999793053	-0.008720398	0.011845589	-0.014053345	9.259033203	1.167297363	-0.897216797	-0.436049978	0.592320295	-0.702715713	-0.747314453	-0.681396484	-0.129150391	878.32	84.23487672	-87.3057375	-10.16939967	-74
16086	0	0.385658264	0.03758049	-0.026865005	0.999714851	-0.013925552	0.017255783	-0.008859634	9.641456604	0.939512253	-0.671625137	-0.696343802	0.862871165	-0.443023827	-0.727050781	-0.695556641	-0.163818359	878.46	57.59396375	-85.65741944	15.03231302	-75
16087	0	0.36706543	0.035949707	0.019104004	0.999687195	-0.012606621	0.020317078	-0.007286072	9.176635742	0.898742676	0.477600098	-0.630396696	1.015959695	-0.364341536	-0.709228516	-0.703369141	-0.210693359	878.46	42.96122701	-83.51249569	28.38706033	-78
16088	0	0.385906219	0.061497688	-0.0044384	0.999624252	-0.011987686	0.024626732	-0.000538826	9.647655487	1.537442207	-0.110960007	-0.599459303	1.231490659	-0.02694467	-0.69140625	-0.7109375	-0.257324219	878.44	29.5913054	-81.18998922	40.61532401	-72
16089	0	0.369934082	-0.03918457	0.070373535	0.999620438	-0.005087852	0.026966095	-0.002288818	9.248352051	-0.979614258	1.759338379	-0.254424786	1.348475209	-0.114455386	-0.679199219	-0.700683594	-0.311035156	878.32	22.80805102	-78.30149917	47.00670508	-66
16090	0	0.423021317	-0.006511688	0.056383133	0.999486923	0.012202263	0.028542519	-0.007839203	10.57553291	-0.162792206	1.409578323	0.610217422	1.42736985	-0.392027136	-0.656738281	-0.706054688	-0.34375	878.32	22.43010012	-74.94264521	48.88596039	-65
16091	0	0.404052734	0.037658691	0.105163574	0.999367714	0.017288208	0.029683113	-0.009105682	10.10131836	0.941467285	2.629089355	0.864592445	1.484468218	-0.455380002	-0.624511719	-0.729492188	-0.366699219	878.38	23.24459059	-71.40824014	50.13618614	-69
16092	0	0.395542145	0.046907425	0.121157646	0.999253273	0.024037361	0.028720856	-0.009462357	9.888553619	1.172685623	3.028941154	1.202167166	1.436400174	-0.473235573	-0.58984375	-0.755371094	-0.372314453	878.38	25.04913502	-67.96653695	51.16342965	-89
16093	0	0.362487793	0.059814453	0.14654541	0.998844147	0.038060188	0.028549194	-0.006771088	9.062194824	1.495361328	3.663635254	1.903742671	1.428009737	-0.338684832	-0.548339844	-0.783447266	-0.363525391	878.44	27.69206982	-64.69441115	53.004476	-69
16094	0	0.371225357	0.022545815	0.204666138	0.998736382	0.041694641	0.025848389	-0.010839462	9.280633926	0.563645363	5.116653442	2.085610057	1.292963746	-0.54220137	-0.518554688	-0.822021484	-0.338623047	878.34	31.70444994	-61.50847154	53.79958239	-63
16095	0	0.401062012	0.026306152	0.134155273	0.998273849	0.050652504	0.024040222	-0.017436981	10.02655029	0.657653809	3.353881836	2.534082731	1.202702869	-0.872350812	-0.484619141	-0.862792969	-0.28515625	878.38	37.63648887	-58.11159547	53.58069393	-67
16096	0	0.405843735	0.158251762	0.160792351	0.998268127	0.050361633	0.02603817	-0.015668869	10.14609337	3.95629406	4.019808769	2.519535938	1.302660387	-0.783895915	-0.440917969	-0.906005859	-0.220214844	878.46	42.57949094	-54.67822909	54.5033946	-82
16097	0	0.4140625	0.067443848	0.118530273	0.999190331	0.026596069	0.026947975	-0.013584137	10.3515625	1.686096191	2.963256836	1.330162348	1.347762388	-0.679390149	-0.402587891	-0.937988281	-0.158691406	878.38	44.29912496	-51.37660021	56.1608053	-68
16098	0	0.348889351	0.125163078	0.117857933	0.999651909	0.003786087	0.024978638	-0.007574081	8.722233772	3.129076958	2.946448326	0.189326306	1.24907673	-0.378747991	-0.37109375	-0.956787109	-0.150146484	878.44	43.11048719	-48.72200722	58.30008198	-72
16099	0	0.40826416	0.212097168	-0.03503418	0.998872757	-0.0427351	0.020515442	0.00233078	10.206604	5.302429199	-0.875854492	-2.137558015	1.026157595	0.116582799	-0.353759766	-0.957763672	-0.188720703	878.38	36.32256376	-47.10739429	60.97096837	-85
16100	0	0.375513077	0.243727684	-0.051751137	0.998200417	-0.058690071	0.00985527	0.00736618	9.38782692	6.093192101	-1.293778419	-2.93626511	0.493059321	0.368530113	-0.355224609	-0.9296875	-0.301025391	878.4	28.20597918	-46.6356578	63.00775476	-89
16101	0	0.426025391	0.16418457	0.239257813	0.998961449	-0.045295715	-0.001864433	0.004394531	10.65063477	4.104614258	5.981445313	-2.265569544	-0.093253926	0.219802604	-0.362548828	-0.883544922	-0.406005859	878.4	22.64682908	-47.08174486	63.59088623	-71
16102	0	0.385972977	0.076459885	0.173278809	0.999826431	-0.015141487	-0.009314537	0.005514145	9.649324417	1.911497116	4.331970215	-0.757118075	-0.465753747	0.275723166	-0.372558594	-0.847900391	-0.463378906	878.5	20.72079245	-48.34978416	63.82864009	-77
16103	0	0.374572754	0.104858398	0.140380859	0.999735832	-0.013961792	-0.01703167	0.006557465	9.364318848	2.621459961	3.509521484	-0.698151047	-0.851658439	0.32790209	-0.392089844	-0.831787109	-0.475341797	878.44	19.09744264	-50.48874358	63.82586853	-69
16104	0	0.407018661	0.14566803	0.140838623	0.999629974	-0.012378693	-0.022324562	0.009329796	10.17546654	3.641700745	3.520965576	-0.619010854	-1.116365569	0.466547241	-0.418945313	-0.812988281	-0.478271484	878.4	17.44126647	-53.30623899	64.07905119	-70
16105	0	0.443908691	0.086242676	0.165222168	0.999490738	-0.018862724	-0.024158478	0.008838654	11.09771729	2.156066895	4.130554199	-0.943296238	-1.208128838	0.442007661	-0.458007813	-0.787353516	-0.481201172	878.34	15.03759536	-56.30533338	64.3406581	-69
16106	0	0.446754456	0.065922737	0.129096031	0.999629021	-0.003883362	-0.026201248	0.00633812	11.16886139	1.648068428	3.22740078	-0.194192103	-1.310224421	0.316945166	-0.489990234	-0.766113281	-0.478271484	878.4	14.75010323	-59.45673585	64.06316652	-88
16107	0	0.438781738	0.009765625	0.154602051	0.999428749	-0.018188477	-0.027392387	0.007732391	10.96954346	0.244140625	3.86505127	-0.909596852	-1.369879949	0.386693125	-0.524414063	-0.749267578	-0.460449219	878.38	12.49158389	-62.78230662	64.21633648	-69
16108	0	0.383466721	0.002950668	0.180598259	0.99941349	-0.016730309	-0.029323578	0.005681038	9.586668015	0.073766708	4.514956474	-0.836678919	-1.466465451	0.284107412	-0.561523438	-0.718994141	-0.455078125	878.44	10.70266462	-66.2705261	64.01272083	-72
16109	0	0.420593262	0.000305176	0.232788086	0.99937439	-0.018740654	-0.029712677	0.004055023	10.51483154	0.007629395	5.819702148	-0.937228103	-1.485943655	0.20279344	-0.593505859	-0.699951172	-0.440429688	878.4	8.908814678	-69.76683177	63.59045925	-70
16110	0	0.510547638	0.04468441	0.225171089	0.998714447	-0.03451252	-0.037112236	0.000896454	12.76369095	1.117110252	5.629277229	-1.726365771	-1.856407305	0.044841908	-0.623291016	-0.674560547	-0.429199219	878.46	6.447541504	-74.0545316	62.02252985	-66
16111	0	0.510131836	-0.050231934	0.181640625	0.999038696	-0.028124809	-0.033557892	0.001781464	12.7532959	-1.25579834	4.541015625	-1.406690922	-1.67843207	0.089101714	-0.655761719	-0.642089844	-0.427246094	878.4	3.873431367	-77.95873638	61.3336373	-69
16112	0	0.470318794	0.008450508	0.029157639	0.999100685	-0.003317833	-0.042039871	-0.004297256	11.75796986	0.211262703	0.728940964	-0.165941367	-2.102623556	-0.214927221	-0.685791016	-0.618652344	-0.401611328	878.26	9.923171084	-82.74732768	54.66348035	-77
16113	0	0.468811035	0.035827637	0.00189209	0.998913765	-0.010196686	-0.043971062	-0.011508942	11.72027588	0.895690918	0.047302246	-0.51001885	-2.199348963	-0.575655395	-0.703369141	-0.624267578	-0.339355469	878.24	50.02492479	-86.75488174	13.14799216	-65
16114	0	0.435823441	0.066637993	0.092734337	0.998083115	-0.039340019	-0.044997215	-0.015995979	10.89558601	1.665949821	2.318358421	-1.968258159	-2.25129875	-0.800310153	-0.718017578	-0.630126953	-0.294433594	878.4	123.1157254	-84.77453356	-64.58700798	-67
16115	0	0.52734375	0.231140137	0.040039063	0.984829903	-0.171520233	-0.008414268	-0.024864197	13.18359375	5.778503418	1.000976563	-8.61964013	-0.422853707	-1.249534381	-0.715820313	-0.621582031	-0.312744141	878.34	101.8876563	-81.71955618	-62.37463407	-66
16116	0	0.390324593	-0.264045715	0.037343025	0.969899178	-0.242775917	0.012058258	-0.014461517	9.758114815	-6.601142883	0.93357563	-12.26207547	0.609035987	-0.730419307	-0.689941406	-0.455078125	-0.553955078	878.32	66.5241576	-79.8929957	-54.25075613	-61
16117	0	0.199035645	-0.367004395	0.114562988	0.994644165	-0.102885246	0.008449554	-0.005073547	4.975891113	-9.175109863	2.864074707	-5.153465563	0.423233548	-0.254131205	-0.665283203	-0.192382813	-0.710693359	878.4	51.99083258	-78.88006435	-51.38673197	-70
16118	0	0.128076553	-0.214694977	0.100458145	0.999846458	0.016324997	-0.00195694	-0.005959511	3.201913834	-5.36737442	2.511453629	0.816291462	-0.097851973	-0.297990732	-0.656494141	-0.110595703	-0.7265625	878.32	56.82371046	-78.44314186	-54.56895325	-66
16119	0	0.114440918	-0.110412598	0.094665527	0.998594284	0.051556587	-0.011711121	-0.003761292	2.861022949	-2.760314941	2.366638184	2.579037906	-0.585830552	-0.188152744	-0.666503906	-0.163330078	-0.70703125	878.26	69.63774011	-78.65378288	-61.73972158	-64
16120	0	0.150512695	-0.093887329	0.111818314	0.99847126	0.052048683	-0.01770401	-0.005608559	3.762817383	-2.347183228	2.79545784	2.603760601	-0.885651681	-0.280570865	-0.685302734	-0.240234375	-0.664794922	878.38	86.06183383	-78.44635087	-72.49148468	-59
16121	0	0.196838379	-0.10546875	0.120483398	0.998911858	0.042751312	-0.015906334	-0.009700775	4.920959473	-2.63671875	3.012084961	2.138341165	-0.795605253	-0.485214739	-0.702148438	-0.314941406	-0.6171875	878.32	99.14029571	-77.25295524	-80.90919003	-63
16122	0	0.219527245	-0.067207336	0.128038406	0.999745369	0.018951416	-0.006429672	-0.010401726	5.488181114	-1.680183411	3.200960159	0.947651156	-0.321510874	-0.520130393	-0.712402344	-0.372070313	-0.565429688	878.38	103.299682	-75.95111253	-82.97028033	-69
16123	0	0.224853516	-0.043029785	0.13269043	0.999962807	-0.006641388	0.004281044	-0.003425598	5.621337891	-1.075744629	3.317260742	-0.332073502	0.214054846	-0.171282025	-0.706542969	-0.398925781	-0.560791016	878.38	100.2284823	-75.68351978	-80.57463456	-70
16124	0	0.323160172	-0.036447525	0.104329109	0.999833107	-0.011521339	0.011375427	0.008414268	8.079004288	-0.911188126	2.60822773	-0.576098942	0.568802928	0.420736774	-0.694824219	-0.388427734	-0.576660156	878.38	93.98769858	-76.82384305	-75.48290431	-70
16125	0	0.569824219	-0.042541504	0.068969727	0.999564171	0.006118774	0.017022133	0.023303986	14.24560547	-1.063537598	1.724243164	0.305983113	0.851230141	1.165368352	-0.686279297	-0.359863281	-0.599853516	878.38	85.09498837	-79.51378065	-65.66396624	-68
16126	0	0.748010635	0.039731979	0.025226593	0.998783112	0.016039848	0.027184486	0.037874222	18.70026588	0.993299484	0.630664825	0.802317677	1.359775574	1.894479114	-0.677001953	-0.340332031	-0.622314453	878.32	58.66007343	-82.78783577	-37.04101585	-69
16127	0	0.668334961	0.065979004	0.043945313	0.997864723	-0.001548767	0.037129402	0.053703308	16.70837402	1.649475098	1.098632813	-0.077493507	1.857792299	2.687077799	-0.6640625	-0.294433594	-0.661621094	878.34	-0.105251331	-81.96266078	22.04340392	-71
16128	0	0.594214439	-0.035824776	0.09691906	0.997357368	-0.011185646	0.038198471	0.060767174	14.85536098	-0.895619392	2.422976494	-0.559775353	1.911607298	3.041037235	-0.640625	-0.208740234	-0.716308594	878.34	-30.10355633	-75.67616224	51.3157721	-72
16129	0	0.439941406	-0.097229004	0.114685059	0.997828484	-0.005992889	0.033112526	0.056621552	10.99853516	-2.430725098	2.867126465	-0.299861555	1.656825756	2.833128619	-0.605712891	-0.112548828	-0.763916016	878.38	-40.51179828	-68.75372452	61.54815609	-86
16130	0	0.288791656	-0.086260796	0.106274605	0.998001099	-0.01718235	0.025897026	0.055013657	7.219791412	-2.15651989	2.65686512	-0.859690193	1.295714447	2.752516427	-0.563476563	-0.029785156	-0.802246094	878.24	-47.86577128	-62.17505685	67.49699984	-78
16131	0	0.208251953	-0.137207031	0.094604492	0.998984337	-0.013469696	0.017201424	0.039394379	5.206298828	-3.430175781	2.365112305	-0.673712787	0.86036233	1.970385714	-0.521728516	0.062011719	-0.829589844	878.38	-51.81978225	-57.40594222	70.28693919	-75
16132	0	0.206205368	-0.172424316	0.06662178	0.99962616	0.012088776	0.008917809	0.022810936	5.155134201	-4.31060791	1.66554451	0.604513959	0.445945885	1.140688655	-0.492675781	0.109863281	-0.84375	878.32	-51.64322851	-54.67488789	71.7069133	-73
16133	0	0.237487793	-0.164123535	0.051330566	0.999732018	0.022277832	-0.000384331	0.006210327	5.937194824	-4.103088379	1.28326416	1.113990951	-0.019218251	0.310544053	-0.477783203	0.102539063	-0.855712891	878.38	-49.76669367	-54.10806625	72.48328289	-73
16134	0	0.273771286	-0.173614502	0.061888695	0.999651909	0.022119522	-0.008470535	-0.011601448	6.84428215	-4.340362549	1.547217369	1.106104367	-0.423575881	-0.580139675	-0.483398438	0.064941406	-0.854980469	878.32	-47.01203668	-55.70474575	72.15514268	-79
16135	0	0.300537109	-0.145874023	0.065307617	0.999377251	0.020187378	-0.01280117	-0.025920868	7.513427734	-3.646850586	1.63269043	1.00957817	-0.640191222	-1.296312106	-0.500244141	0.010009766	-0.846679688	878.38	-43.05614558	-58.80508729	70.1457299	-86
16136	0	0.33237648	-0.102233887	0.065629005	0.999357224	0.009721756	-0.015275002	-0.030926704	8.309412003	-2.555847168	1.640725136	0.486191906	-0.763913651	-1.546666405	-0.526367188	-0.049072266	-0.834472656	878.34	-39.2626842	-62.42334559	67.02853646	-76
16137	0	0.355834961	-0.069641113	0.066833496	0.999479294	0.001503944	-0.01530838	-0.028339386	8.895874023	-1.741027832	1.670837402	0.075210257	-0.765551707	-1.417214958	-0.548583984	-0.094726563	-0.812011719	878.38	-36.02056684	-65.76911794	63.58911988	-76
16138	0	0.395874977	-0.031722069	0.067908287	0.999667168	-0.007299423	-0.012031555	-0.021585464	9.896874428	-0.79305172	1.697707176	-0.365011561	-0.601644351	-1.079392694	-0.566650391	-0.127441406	-0.793945313	878.34	-33.96456169	-68.29597182	60.44062263	-84
16139	0	0.447143555	-0.019897461	0.07232666	0.999493599	-0.026859283	-0.006140709	-0.015892029	11.17858887	-0.497436523	1.808166504	-1.343190719	-0.30708724	-0.794735483	-0.575927734	-0.135986328	-0.786865234	878.38	-34.15013349	-69.88375424	57.36414337	-73
16140	0	0.55085659	-0.050603867	0.071588516	0.998304367	-0.055074692	-0.003102303	-0.01854229	13.77141476	-1.265096664	1.789712906	-2.75529129	-0.155202815	-0.92763859	-0.579833984	-0.100341797	-0.786621094	878.32	-36.1308853	-71.39047077	52.81293703	-76
16141	0	0.490966797	-0.106018066	0.116943359	0.997271538	-0.070419312	-0.003138542	-0.021896362	12.27416992	-2.65045166	2.923583984	-3.524170583	-0.157069954	-1.095814688	-0.584960938	-0.028808594	-0.795166016	878.26	-38.68305525	-73.1974702	47.06272583	-68
16142	0	0.381569862	-0.159604073	0.157056808	0.998112679	-0.05629158	-0.000869751	-0.024518013	9.539246559	-3.990101814	3.926420212	-2.816350808	-0.043514925	-1.226672363	-0.591308594	0.053710938	-0.784423828	878.34	-37.63800479	-75.00834453	39.29396724	-65
16143	0	0.293884277	-0.137817383	0.142822266	0.999258041	-0.031695366	0.001861572	-0.021778107	7.347106934	-3.44543457	3.570556641	-1.585160086	0.093101624	-1.089174537	-0.595703125	0.098388672	-0.7734375	878.38	-32.88265762	-76.26800726	30.64561085	-66
16144	0	0.252999306	-0.101096153	0.116117477	0.999727249	-0.017789841	0.00275898	-0.014824867	6.324982643	-2.527403831	2.902936935	-0.889572682	0.137961497	-0.741310569	-0.598876953	0.116210938	-0.774658203	878.32	-28.19596552	-76.84800022	23.73374135	-69
16145	0	0.310546875	-0.109558105	0.097229004	0.999940872	-0.001486778	0.0001297	-0.010707855	7.763671875	-2.738952637	2.430725098	-0.074340361	0.006485112	-0.535403192	-0.594238281	0.120605469	-0.772460938	878.32	-23.60548474	-77.35824704	18.83847418	-72
16146	0	0.423370361	-0.09512043	0.094966888	0.999937057	0.008030891	-0.003237724	-0.007013321	10.58425903	-2.37801075	2.374172211	0.401552881	-0.161889565	-0.350673303	-0.603271484	0.10546875	-0.770751953	878.32	-20.00621367	-77.98877067	16.08020688	-72
16147	0	0.471252441	-0.066040039	0.104125977	0.999999046	0.000728607	-0.000884056	-0.000171661	11.78131104	-1.651000977	2.603149414	0.036430367	-0.044202814	-0.008583071	-0.609619141	0.085449219	-0.768798828	878.38	-20.11162714	-78.07789475	16.27549949	-64
16148	0	0.378526688	-0.048155785	0.120799065	0.999931335	-0.007209778	0.001854897	0.008961678	9.463167191	-1.203894615	3.019976616	-0.360497047	0.092746925	0.448094015	-0.612060547	0.090087891	-0.769042969	878.32	-25.04280084	-77.47137895	20.49553312	-61
16149	0	0.348754883	-0.040283203	0.11328125	0.99978447	-0.013659477	0.003383636	0.015235901	8.71887207	-1.007080078	2.83203125	-0.683022836	0.169193955	0.761849671	-0.603515625	0.116455078	-0.774414063	878.38	-32.4593776	-76.27128546	26.53710853	-62
16150	0	0.355326653	-0.091137886	0.120480537	0.999786377	-0.011902809	0.001566887	0.016810417	8.883166313	-2.278447151	3.012013435	-0.595182792	0.078349918	0.840580648	-0.595947266	0.160644531	-0.775634766	878.32	-39.56145299	-74.96884196	32.48822115	-66
16151	0	0.352600098	-0.11126709	0.125610352	0.999833107	0.006378174	0.000260353	0.017089844	8.815002441	-2.781677246	3.140258789	0.318926383	0.013018377	0.854539592	-0.587890625	0.191650391	-0.770019531	878.32	-44.00653056	-73.61287262	37.86850785	-70
16152	0	0.339730263	-0.10255909	0.139056206	0.99956131	0.023748398	-0.000590324	0.017663002	8.493256569	-2.563977242	3.476405144	1.187593386	-0.029520533	0.883279138	-0.580810547	0.195800781	-0.776611328	878.32	-46.12298185	-72.19506083	42.91105876	-65
16153	0	0.348876953	-0.099609375	0.146057129	0.998126984	0.059670448	-0.005142212	0.012451172	8.721923828	-2.490234375	3.651428223	2.985386297	-0.257271219	0.622947522	-0.577148438	0.168945313	-0.786132813	878.34	-43.65466778	-71.57023865	47.42940674	-64
16154	0	0.422506332	-0.043171883	0.103268623	0.996683121	0.080887794	-0.007508278	0.004720688	10.56265831	-1.079297066	2.581715584	4.048866394	-0.375829434	0.236295656	-0.584472656	0.071044922	-0.80078125	878.38	-37.3039794	-71.84007582	50.39996408	-68
16155	0	0.393249512	0.009033203	0.074829102	0.998642921	0.051849365	-0.003321648	0.003349304	9.831237793	0.225830078	1.870727539	2.593640887	-0.166157505	0.167540958	-0.596435547	-0.044189453	-0.793457031	878.34	-32.96767888	-71.90048486	52.0321512	-68
16156	0	0.389566422	-0.004058838	0.056782722	0.999230385	0.039177895	-0.00034523	0.001398087	9.739160538	-0.101470947	1.419568062	1.959396874	-0.01726593	0.069922247	-0.603027344	-0.112792969	-0.781494141	878.38	-28.93172066	-71.82586115	52.46881708	-66
16157	0	0.379821777	0.015075684	0.033569336	0.999891281	0.014676094	-0.000659943	-0.001163483	9.495544434	0.37689209	0.839233398	0.733831266	-0.032998326	-0.058176239	-0.603271484	-0.166015625	-0.774169922	878.34	-26.96648378	-71.9341876	52.16794614	-64
16158	0	0.377892494	-0.033620834	0.049654961	0.999968529	-0.0078125	0.000715256	-0.001066208	9.447312355	-0.840520859	1.241374016	-0.390629081	0.03576316	-0.053310951	-0.602783203	-0.177246094	-0.773193359	878.4	-27.38438536	-71.89969009	51.69308626	-63
16159	0	0.390991211	-0.068908691	0.059204102	0.999977112	-0.006419182	0.001579285	0.001049042	9.774780273	-1.722717285	1.480102539	-0.320961488	0.078964823	0.052452479	-0.601074219	-0.161621094	-0.774658203	878.38	-28.16295093	-71.66889039	51.76016441	-63
16160	0	0.387522697	-0.048478127	0.061769485	0.999987602	-0.003228188	0.001495361	0.003437042	9.688067436	-1.211953163	1.544237137	-0.161410036	0.074768371	0.171852813	-0.596679688	-0.153076172	-0.775634766	878.38	-29.29676487	-71.31770093	52.58711192	-63
16161	0	0.377624512	-0.028869629	0.069213867	0.99993515	-0.009745598	0.001277924	0.00560379	9.440612793	-0.721740723	1.73034668	-0.487290289	0.063897543	0.280195492	-0.596923828	-0.141845703	-0.78515625	878.38	-31.78730276	-70.85683952	54.07093026	-63
16162	0	0.3695364	-0.042564392	0.076646805	0.999685287	-0.024579048	0.001166344	0.004822731	9.238409996	-1.064109802	1.91617012	-1.229081228	0.058323297	0.241161827	-0.595703125	-0.115234375	-0.784667969	878.38	-35.67790679	-70.43319235	55.26493911	-63
16163	0	0.365539551	-0.091491699	0.090881348	0.999462128	-0.032534599	-0.001480103	0.003608704	9.13848877	-2.28729248	2.272033691	-1.627021213	-0.074018377	0.180467486	-0.597900391	-0.066162109	-0.788574219	878.32	-40.59275385	-70.30676455	56.58537673	-62
16164	0	0.370182991	-0.139631271	0.099005699	0.999767303	-0.02097702	-0.003344536	0.003659248	9.254574776	-3.490781784	2.475142479	-1.048932248	-0.167239743	0.182976588	-0.595458984	-0.010742188	-0.790527344	878.34	-44.57003789	-70.30007503	58.28764848	-62
16165	0	0.377319336	-0.108459473	0.149353027	0.999948502	0.009762764	-0.002399445	0.001167297	9.432983398	-2.711486816	3.733825684	0.488146533	-0.119974277	0.058365865	-0.603759766	0.013916016	-0.7890625	878.32	-44.23861894	-70.39597131	59.1062431	-62
16166	0	0.373350143	-0.0480299	0.16323185	0.999947548	0.010009766	-0.001886368	0.000722885	9.333753586	-1.20074749	4.080796242	0.50049698	-0.094320029	0.036144885	-0.607421875	-0.008056641	-0.787109375	878.32	-43.64989771	-70.48657444	59.69264996	-63
16167	0	0.377441406	-0.090881348	0.10760498	0.999954224	0.008473396	-0.00296402	0.00328064	9.436035156	-2.272033691	2.690124512	0.423676265	-0.148203245	0.16403448	-0.612060547	-0.016845703	-0.780273438	878.38	-44.07332516	-70.46345895	61.16681212	-63
16168	0	0.373739243	-0.083283424	0.074074745	0.999959946	0.008901596	0.000201225	-0.000635147	9.343481064	-2.082085609	1.851868629	0.445085715	0.010061398	-0.031757777	-0.611572266	-0.027832031	-0.782226563	878.38	-42.82669426	-70.4905772	60.91572813	-63
16169	0	0.366516113	-0.088989258	0.068725586	0.999997139	0.00176239	-0.000102043	-0.000900269	9.162902832	-2.224731445	1.718139648	0.088119565	-0.005102161	-0.045013457	-0.61328125	-0.041259766	-0.778320313	878.44	-42.40255137	-70.56389626	60.68354125	-64
16170	0	0.370540619	-0.090806007	0.074952126	0.999998093	-0.000670433	-0.001097679	-0.001382828	9.263515472	-2.270150185	1.873803139	-0.033521672	-0.05488399	-0.069141429	-0.61328125	-0.043457031	-0.775146484	878.38	-42.359997	-70.75939403	60.56214877	-64
16171	0	0.367370605	-0.092346191	0.078674316	0.999996185	-0.000689507	-0.001976013	-0.001266479	9.184265137	-2.308654785	1.96685791	-0.034475361	-0.098800758	-0.063324038	-0.615722656	-0.043212891	-0.777832031	878.34	-42.54561076	-71.0208293	60.67671298	-64
16172	0	0.370512009	-0.094761848	0.084586143	0.999994278	9.53674E-06	-0.003222466	-0.000700951	9.262800217	-2.369046211	2.114653587	0.000476838	-0.161123568	-0.035047595	-0.617919922	-0.045410156	-0.777587891	878.38	-43.08400603	-71.34303996	61.24743117	-64
16173	0	0.374389648	-0.097167969	0.090087891	0.999995232	0.000289917	-0.002818108	9.91821E-05	9.359741211	-2.429199219	2.252197266	0.014495869	-0.140905569	0.004959113	-0.622802734	-0.047363281	-0.765625	878.38	-43.71365417	-71.56664092	61.95266816	-63
16174	0	0.377083778	-0.08296299	0.100889206	0.999996185	-0.001545906	-0.001475334	0.001179695	9.42709446	-2.074074745	2.522230148	-0.07729538	-0.073766782	0.058984815	-0.627685547	-0.045166016	-0.768310547	878.32	-44.51040535	-71.59080044	62.61330609	-63
16175	0	0.37512207	-0.09375	0.117797852	0.99998951	-0.004329681	-0.000380516	0.000770569	9.378051758	-2.34375	2.944946289	-0.216484773	-0.019025864	0.038528568	-0.627929688	-0.040527344	-0.765869141	878.4	-45.25901664	-71.55540388	62.89162115	-63
16176	0	0.373348236	-0.094873428	0.104978561	0.999994278	0.002742767	-0.000107765	0.001676559	9.333705902	-2.371835709	2.624464035	0.137138603	-0.005388269	0.083828117	-0.630371094	-0.036132813	-0.769042969	878.38	-45.34562233	-71.42305938	63.31758745	-63
16177	0	0.373962402	-0.087097168	0.086486816	0.999991417	0.003864288	7.72476E-05	0.001274109	9.349060059	-2.177429199	2.16217041	0.19321495	0.003862392	0.06370562	-0.628173828	-0.038330078	-0.763183594	878.32	-45.16003054	-71.30906682	63.59069297	-63
16178	0	0.372876167	-0.086083412	0.080798149	0.999998093	0.001130104	0.000540733	0.001057625	9.321904182	-2.152085304	2.019953728	0.056505229	0.027036679	0.052881265	-0.627929688	-0.042724609	-0.765625	878.32	-45.12465448	-71.17600825	63.69639756	-63
16179	0	0.377990723	-0.088867188	0.080200195	0.999999046	-0.000164032	0.00049305	0.000961304	9.449768066	-2.221679688	2.005004883	-0.008201601	0.024652486	0.048065195	-0.627929688	-0.042724609	-0.765625	878.38	-45.22618007	-71.05529287	63.79232654	-63
16180	0	0.37555027	-0.085344315	0.080785751	0.999999046	-0.000271797	1.14441E-05	0.000906944	9.388756752	-2.133607864	2.019643784	-0.013589861	0.000572205	0.045347221	-0.627929688	-0.040527344	-0.765869141	878.38	-45.44041567	-70.97849128	63.99324396	-64
16181	0	0.374816895	-0.080200195	0.086547852	0.999999046	-0.000850677	-0.000304222	0.000926971	9.370422363	-2.005004883	2.163696289	-0.042533886	-0.01521111	0.046348585	-0.627929688	-0.040527344	-0.762939453	878.38	-45.79792468	-70.92577666	64.27957912	-63
16182	0	0.375575066	-0.083071709	0.094051361	0.999994278	-0.003142357	1.81198E-05	0.000462532	9.38937664	-2.076792717	2.351284027	-0.157118108	0.000905992	0.023126641	-0.625732422	-0.036132813	-0.763427734	878.32	-46.23136482	-70.88548861	64.36860533	-63
16183	0	0.374267578	-0.09362793	0.095214844	0.999997139	-0.002304077	0.000321388	0.00012207	9.356689453	-2.340698242	2.380371094	-0.115203962	0.016069427	0.006103521	-0.625976563	-0.029541016	-0.763916016	878.34	-46.41735408	-70.849266	64.29360983	-63
16184	0	0.371439934	-0.098031998	0.088166237	0.999995232	0.002873421	0.000213623	-0.000460625	9.285998344	-2.450799942	2.204155922	0.14367124	0.010681168	-0.023031267	-0.625976563	-0.02734375	-0.767089844	878.38	-45.90335648	-70.86971622	64.09479237	-63
16185	0	0.371643066	-0.083068848	0.082702637	0.999999046	0.000782013	0.000252724	0.000270844	9.29107666	-2.076721191	2.067565918	0.039100652	0.012636186	0.013542177	-0.623535156	-0.031738281	-0.763916016	878.4	-45.78745323	-70.82728046	64.06893149	-63
16186	0	0.374232292	-0.09448719	0.088287354	0.999999046	-0.001272202	0.000205994	0.000330925	9.355807304	-2.362179756	2.207183838	-0.063610096	0.010299686	0.016546254	-0.625976563	-0.033935547	-0.763671875	878.32	-45.93229627	-70.78382089	64.07731627	-63
16187	0	0.373901367	-0.088012695	0.090209961	0.999998093	-0.001456261	0.000644684	0.000133514	9.34753418	-2.200317383	2.255249023	-0.072813065	0.032234206	0.006675723	-0.625976563	-0.031738281	-0.763916016	878.28	-45.94907184	-70.72200757	63.9284476	-63
16188	0	0.372535706	-0.0925951	0.09322834	0.999997139	-0.001980782	0.000707626	0.000285149	9.313392639	-2.31487751	2.330708504	-0.099039152	0.035381344	0.014257442	-0.623779297	-0.029541016	-0.764160156	878.28	-46.04571559	-70.64281538	63.80162364	-63
16189	0	0.370605469	-0.090637207	0.089782715	0.999999046	-0.000797272	0.000603676	0.000331879	9.265136719	-2.265930176	2.244567871	-0.039863594	0.030183798	0.016593936	-0.623779297	-0.025146484	-0.770263672	878.38	-46.04184008	-70.56832838	63.70631132	-63
16190	0	0.370495796	-0.094809532	0.088979721	0.999999046	-0.000501633	0.000452042	0.00025177	9.262394905	-2.370238304	2.224493027	-0.025081637	0.022602083	0.012588502	-0.623779297	-0.025146484	-0.767333984	878.32	-46.0222003	-70.51266039	63.63305337	-63
16191	0	0.370544434	-0.09564209	0.088439941	0.999999046	0.000743866	0.000401497	0	9.26361084	-2.391052246	2.210998535	0.037193303	0.020074847	0	-0.621582031	-0.022949219	-0.767578125	878.32	-45.8158626	-70.4818566	63.5075873	-63
16192	0	0.375478745	-0.090385437	0.087837219	0.999999046	-0.000302315	0.000465393	0.000525475	9.386968613	-2.259635925	2.195930481	-0.015115739	0.023269656	0.02627373	-0.621337891	-0.025146484	-0.767578125	878.28	-45.83331432	-70.40314451	63.49724426	-63
16193	0	0.372558594	-0.094543457	0.094299316	0.999999046	-0.001224518	0.000447273	0.00019455	9.313964844	-2.363586426	2.35748291	-0.061225909	0.022363669	0.009727481	-0.619140625	-0.023193359	-0.770751953	878.4	-45.88625957	-70.35315657	63.4107765	-63
16194	0	0.372253418	-0.092664719	0.095685959	0.999999046	-0.000936508	0.000383377	0.000274658	9.306335449	-2.316617966	2.392148972	-0.046825418	0.019168857	0.013732913	-0.619140625	-0.023193359	-0.770751953	878.32	-45.93834502	-70.30178612	63.36124201	-63
16195	0	0.370727539	-0.094604492	0.092041016	0.999999046	-0.000232697	0.000412941	0.000389099	9.268188477	-2.365112305	2.301025391	-0.011634827	0.02064705	0.019454957	-0.616943359	-0.018798828	-0.771240234	878.32	-45.9285478	-70.23877862	63.3256461	-63
16196	0	0.370578766	-0.095240593	0.09077549	0.999999046	0.000271797	0.000337601	0.000247955	9.264469147	-2.381014824	2.269387245	0.01358986	0.016880036	0.012397767	-0.619140625	-0.020996094	-0.770996094	878.28	-45.84735276	-70.19355263	63.27987436	-63
16197	0	0.372253418	-0.095581055	0.091308594	0.999999046	0.000465393	0.000222206	0.000228882	9.306335449	-2.389526367	2.282714844	0.023269655	0.011110306	0.011444092	-0.619140625	-0.020996094	-0.773681641	878.32	-45.76653671	-70.1592679	63.25644304	-63
16198	0	0.369972229	-0.093773842	0.09168148	0.999999046	0.000200272	0.00019455	0.00052166	9.249305725	-2.344346046	2.29203701	0.010013581	0.009727479	0.026082994	-0.616699219	-0.020996094	-0.773925781	878.34	-45.78725619	-70.10334456	63.30793377	-63
16199	0	0.368530273	-0.097473145	0.092834473	0.999999046	0.000648499	0.000138283	0.00069809	9.213256836	-2.436828613	2.320861816	0.032424932	0.00691414	0.034904485	-0.619140625	-0.020996094	-0.770996094	878.28	-45.8082986	-70.03744131	63.4164096	-63
16200	0	0.37172699	-0.096529007	0.093061447	0.999999046	0.001101494	-9.34601E-05	0.000297546	9.293174744	-2.413225174	2.326536179	0.055074704	-0.004673005	0.014877323	-0.616699219	-0.020996094	-0.773925781	878.28	-45.74166429	-70.0230926	63.48228288	-63
16201	0	0.371826172	-0.096191406	0.096191406	0.999999046	0.000358582	-5.62668E-05	9.15527E-05	9.295654297	-2.404785156	2.404785156	0.017929078	-0.002813339	0.004577637	-0.616699219	-0.020996094	-0.773925781	878.34	-45.70621302	-70.02272572	63.48993943	-63
16202	0	0.371941566	-0.093932152	0.09706974	0.999999046	0.001003265	1.33514E-05	9.82285E-05	9.298539162	-2.348303795	2.426743507	0.050163278	0.000667572	0.004911424	-0.616699219	-0.020996094	-0.776855469	878.34	-45.58212289	-70.01632323	63.47860495	-63
16203	0	0.372253418	-0.091308594	0.098632813	0.999999046	0.001125336	0.00023365	3.05176E-05	9.306335449	-2.282714844	2.465820313	0.056266797	0.011682513	0.001525879	-0.616699219	-0.023193359	-0.773681641	878.38	-45.37875935	-69.99787061	63.40010373	-63
16204	0	0.37098217	-0.08806324	0.09650135	0.999999046	0.000781059	0.000255585	0.00014019	9.274554253	-2.201581001	2.41253376	0.039052968	0.012779237	0.007009507	-0.616455078	-0.025390625	-0.7734375	878.24	-45.23352022	-69.96892274	63.3434592	-63
16205	0	0.375427246	-0.092224121	0.095153809	0.999999046	-0.000282288	0.000287056	-0.000240326	9.385681152	-2.305603027	2.378845215	-0.01411438	0.014352799	-0.012016297	-0.616455078	-0.025390625	-0.7734375	878.32	-45.11875265	-69.96858567	63.19001103	-63
16206	0	0.370044708	-0.091734886	0.096899986	0.999999046	0.000152588	0.000247955	-0.000484467	9.251117706	-2.293372154	2.422499657	0.007629395	0.012397767	-0.024223329	-0.616455078	-0.025390625	-0.776367188	878.38	-44.90801682	-69.99117874	62.98526406	-63
16207	0	0.368530273	-0.091125488	0.097595215	0.999999046	-0.000213623	7.34329E-05	-0.000648499	9.213256836	-2.278137207	2.439880371	-0.010681153	0.003671646	-0.032424929	-0.616455078	-0.027587891	-0.7734375	878.34	-44.74025786	-70.04106028	62.78546066	-63
16208	0	0.371016502	-0.092945099	0.09895134	0.999999046	0.000153542	8.01086E-05	-0.000858307	9.27541256	-2.323627472	2.473783493	0.007677079	0.004005433	-0.04291535	-0.616210938	-0.030029297	-0.779052734	878.38	-44.48021067	-70.10702321	62.5315701	-63
16209	0	0.371704102	-0.092468262	0.097839355	0.999999046	0.000453949	0.000145912	-0.00062561	9.292602539	-2.311706543	2.445983887	0.022697451	0.007295609	-0.031280521	-0.616210938	-0.032226563	-0.778808594	878.38	-44.22214277	-70.14860162	62.31768341	-63
16210	0	0.369654655	-0.091370583	0.095282555	0.999999046	0.000541687	9.91821E-05	-0.000587463	9.241366386	-2.284264565	2.382063866	0.027084354	0.004959107	-0.029373172	-0.616455078	-0.027832031	-0.776367188	878.32	-43.97207921	-70.19077437	62.11514065	-64
16211	0	0.367126465	-0.089416504	0.095825195	0.999999046	0.000171661	0.000164986	-0.000347137	9.178161621	-2.235412598	2.395629883	0.008583069	0.008249283	-0.017356873	-0.616210938	-0.032226563	-0.772949219	878.32	-43.80413008	-70.20827626	61.96192738	-64
16212	0	0.370452881	-0.090896606	0.097259521	0.999999046	-0.00083065	0.000181198	-0.00049305	9.261322021	-2.272415161	2.431488037	-0.041532523	0.009059907	-0.024652485	-0.616210938	-0.032226563	-0.781738281	878.38	-43.71349065	-70.23593199	61.76625565	-64
16213	0	0.369567871	-0.091796875	0.098022461	0.999999046	-0.000652313	0.0002985	-0.000377655	9.239196777	-2.294921875	2.450561523	-0.032615665	0.014925005	-0.018882754	-0.613769531	-0.032226563	-0.776123047	878.38	-43.60286387	-70.24458437	61.57335808	-64
16214	0	0.370067596	-0.091887474	0.095986366	0.999999046	-0.000524521	0.000284195	-0.000213623	9.251689911	-2.297186852	2.399659157	-0.026226045	0.014209748	-0.010681153	-0.613769531	-0.032226563	-0.776123047	878.32	-43.51881647	-70.24140062	61.42527394	-64
16215	0	0.367858887	-0.091918945	0.096557617	0.999999046	-0.000377655	4.29153E-05	-0.000144958	9.196472168	-2.297973633	2.41394043	-0.018882752	0.002145767	-0.007247925	-0.614013672	-0.030029297	-0.776123047	878.38	-43.48700029	-70.2527881	61.34777114	-64
16216	0	0.368486404	-0.090847969	0.096702576	0.999999046	-9.05991E-05	-3.62396E-05	9.05991E-05	9.21216011	-2.271199226	2.417564392	-0.004529953	-0.001811981	0.004529953	-0.613769531	-0.032226563	-0.778808594	878.44	-43.49426267	-70.25219562	61.34906118	-65
16217	0	0.36895752	-0.090881348	0.096374512	0.999999046	-0.000469208	-0.000109673	0.000404358	9.223937988	-2.272033691	2.409362793	-0.02346039	-0.005483628	0.020217897	-0.614013672	-0.030029297	-0.776123047	878.38	-43.6336831	-70.23296526	61.44406898	-65
16218	0	0.37293148	-0.093594551	0.097851753	0.999999046	-0.000543594	-0.00019455	0.000319481	9.32328701	-2.339863777	2.446293831	-0.02717972	-0.009727479	0.015974046	-0.614013672	-0.030029297	-0.776123047	878.38	-43.78075899	-70.2273835	61.53962631	-65
16219	0	0.369262695	-0.092773438	0.097839355	0.999999046	3.43323E-05	-0.000178337	0.00025177	9.231567383	-2.319335938	2.445983887	0.001716614	-0.008916855	0.012588501	-0.614013672	-0.027832031	-0.782226563	878.34	-43.84244852	-70.22572068	61.60873198	-64
16220	0	0.368274689	-0.091732025	0.096920013	0.999999046	-2.19345E-05	-0.000179291	0.000293732	9.206867218	-2.293300629	2.423000336	-0.001096725	-0.008964539	0.014686585	-0.616455078	-0.027832031	-0.779052734	878.24	-43.92041867	-70.22076844	61.69113949	-64
16221	0	0.372192383	-0.093811035	0.095275879	0.999999046	0.000591278	-0.000277519	0.000350952	9.30480957	-2.345275879	2.381896973	0.029563907	-0.013875963	0.017547609	-0.614013672	-0.027832031	-0.779296875	878.38	-43.96330303	-70.21939511	61.80823908	-64
16222	0	0.369740486	-0.089747429	0.095114708	0.999999046	0.000389099	3.8147E-05	0.00039959	9.243512154	-2.243685722	2.377867699	0.019454957	0.001907349	0.019979478	-0.614013672	-0.027832031	-0.779296875	878.38	-43.97054884	-70.18824949	61.86260012	-64
16223	0	0.372131348	-0.091552734	0.094543457	0.999999046	-0.000404358	0.000226021	0.000492096	9.303283691	-2.288818359	2.363586426	-0.020217897	0.011301042	0.024604799	-0.616455078	-0.030029297	-0.773193359	878.44	-44.04838387	-70.13439457	61.90486316	-64
16224	0	0.371328354	-0.090652466	0.09396553	0.999999046	-0.000769615	0.00030899	0.000563622	9.283208847	-2.266311646	2.34913826	-0.038480765	0.015449527	0.028181081	-0.614257813	-0.025634766	-0.773681641	878.26	-44.16580484	-70.06819425	61.93949844	-64
16225	0	0.371337891	-0.092224121	0.096069336	0.999999046	-0.000873566	0.000153542	0.000328064	9.283447266	-2.305603027	2.401733398	-0.04367829	0.007677079	0.016403201	-0.614257813	-0.025634766	-0.773681641	878.4	-44.27564496	-70.0336611	61.95623462	-64
16226	0	0.371429443	-0.094222069	0.095529556	0.999999046	-0.000749588	0.00015831	0.000347137	9.285736084	-2.35555172	2.388238907	-0.037479405	0.007915498	0.017356875	-0.614257813	-0.0234375	-0.776855469	878.32	-44.37458307	-69.99726437	61.97407538	-64
16227	0	0.371459961	-0.093933105	0.094665527	0.999999046	-0.000572205	0.000355721	0.000530243	9.286499023	-2.348327637	2.366638184	-0.028610233	0.017786028	0.026512149	-0.611816406	-0.021240234	-0.777099609	878.4	-44.45095814	-69.9301294	61.98733021	-64
16228	0	0.370316505	-0.092787743	0.095615387	0.999999046	-0.000533104	0.000305176	0.000449181	9.257912636	-2.319693565	2.390384674	-0.0266552	0.015258791	0.022459032	-0.611816406	-0.021240234	-0.780029297	878.32	-44.51558067	-69.87374861	61.99405849	-64
16229	0	0.368408203	-0.091186523	0.094238281	0.999999046	-0.000774384	0.000229836	0.000583649	9.210205078	-2.279663086	2.355957031	-0.038719184	0.011491777	0.029182439	-0.611816406	-0.019042969	-0.782958984	878.38	-44.65393853	-69.8128994	62.04830137	-64
16230	0	0.369109154	-0.094085693	0.095603943	0.999998093	-0.001326561	0.000210762	0.00039196	9.227728844	-2.352142334	2.390098572	-0.06632807	0.010538105	0.019598014	-0.612060547	-0.016845703	-0.780273438	878.38	-44.81686685	-69.76910024	62.0632989	-64
16231	0	0.37286377	-0.099121094	0.093811035	0.999999046	-7.62939E-06	-2.86102E-06	-0.000171661	9.321594238	-2.478027344	2.345275879	-0.00038147	-0.000143051	-0.008583069	-0.609863281	-0.014648438	-0.777832031	878.38	-44.75164414	-69.78822721	61.9918714	-64
16232	0	0.370882034	-0.094905853	0.096796989	0.999999046	0.000573158	-0.00025177	-0.000245094	9.272050858	-2.372646332	2.419924736	0.028657915	-0.012588502	-0.012254716	-0.612060547	-0.016845703	-0.780273438	878.38	-44.65796421	-69.83356802	61.96235449	-64
16233	0	0.369506836	-0.09765625	0.097290039	0.999999046	5.34058E-05	-0.000315666	0.000164032	9.237670898	-2.44140625	2.432250977	0.002670288	-0.01578331	0.008201599	-0.612060547	-0.016845703	-0.77734375	878.38	-44.72884225	-69.85104534	62.04553469	-64
16234	0	0.371611595	-0.093679428	0.095721245	0.999999046	0.00088501	-0.000230789	0.000174522	9.290289879	-2.341985703	2.39303112	0.044250495	-0.011539461	0.008726121	-0.612060547	-0.016601563	-0.774414063	878.38	-44.68813939	-69.86088358	62.10982646	-64
16235	0	0.369445801	-0.093139648	0.094604492	0.999999046	0.000888824	-0.000292778	7.62939E-05	9.23614502	-2.328491211	2.365112305	0.04444123	-0.014638903	0.003814698	-0.612060547	-0.019042969	-0.77734375	878.34	-44.63885214	-69.8838421	62.16548547	-64
16236	0	0.371256828	-0.091989517	0.095342636	0.999999046	0.00036335	-0.000198364	0.000164032	9.281420708	-2.29973793	2.383565903	0.018167496	-0.009918213	0.008201599	-0.612060547	-0.019042969	-0.774414063	878.38	-44.64843747	-69.89221557	62.22000172	-64
16237	0	0.370849609	-0.091918945	0.095397949	0.999999046	-9.53674E-05	-9.05991E-05	0.000286102	9.271240234	-2.297973633	2.38494873	-0.004768372	-0.004529953	0.014305115	-0.614257813	-0.018798828	-0.777099609	878.38	-44.71389705	-69.88211622	62.27819417	-64
16238	0	0.369958878	-0.093980789	0.096960068	0.999999046	-0.000505447	-0.000133514	0.000183105	9.248971939	-2.34951973	2.424001694	-0.025272371	-0.006675721	0.009155274	-0.612060547	-0.016845703	-0.780273438	878.24	-44.81275895	-69.88380907	62.31737827	-64
16239	0	0.370056152	-0.095031738	0.096496582	0.999999046	-0.000423431	-4.86374E-05	0.000141144	9.251403809	-2.375793457	2.412414551	-0.021171571	-0.00243187	0.00705719	-0.614501953	-0.016601563	-0.77734375	878.38	-44.87420556	-69.88197287	62.33023286	-64
16240	0	0.371319771	-0.094486237	0.095768929	0.999999046	-0.000388145	0.000133514	4.57764E-05	9.28299427	-2.362155914	2.394223213	-0.019407273	0.00667572	0.002288818	-0.612060547	-0.016601563	-0.774414063	878.44	-44.8702789	-69.87311537	62.27890071	-64
16241	0	0.370117188	-0.092224121	0.094482422	0.999999046	-0.000331879	0.000199318	0.000465393	9.252929688	-2.305603027	2.362060547	-0.016593934	0.009965897	0.023269655	-0.612060547	-0.014648438	-0.780517578	878.32	-44.93817974	-69.82514669	62.30684351	-64
16242	0	0.368225098	-0.093566895	0.095947266	0.999999046	-0.000469208	7.62939E-06	0.00037384	9.205627441	-2.339172363	2.398681641	-0.02346039	0.00038147	0.018692018	-0.612060547	-0.014648438	-0.780517578	878.34	-45.0434923	-69.80016139	62.35983806	-64
16243	0	0.369914055	-0.095602989	0.0959692	0.999998093	-0.000164986	-1.90735E-05	0.000299454	9.247851372	-2.39007473	2.399230003	-0.008249283	-0.000953674	0.014972687	-0.612060547	-0.014648438	-0.783447266	878.38	-45.10336965	-69.78336122	62.40114237	-64
16244	0	0.37199688	-0.097103119	0.095350266	0.999999046	-0.000103951	-0.00018692	6.00815E-05	9.299921989	-2.427577972	2.383756638	-0.005197525	-0.009346008	0.003004074	-0.612304688	-0.012207031	-0.780761719	878.34	-45.14091032	-69.79958607	62.42327951	-64
16245	0	0.368347168	-0.094848633	0.096496582	0.999999046	0.000301361	-0.000231743	-7.62939E-06	9.208679199	-2.37121582	2.412414551	0.015068055	-0.011587143	-0.00038147	-0.612060547	-0.014404297	-0.777587891	878.32	-45.1269307	-69.82492754	62.44384981	-65
16246	0	0.369064331	-0.09454155	0.096259117	0.999999046	0.00037384	-0.000301361	0.000179291	9.226608276	-2.363538742	2.406477928	0.018692017	-0.015068055	0.008964539	-0.614501953	-0.016601563	-0.77734375	878.4	-45.16108674	-69.84072937	62.52859593	-65
16247	0	0.371582031	-0.09552002	0.095581055	0.999999046	0.000297546	-0.000311852	0.000247955	9.289550781	-2.388000488	2.389526367	0.01487732	-0.015592576	0.012397767	-0.614501953	-0.014404297	-0.777587891	878.34	-45.22155518	-69.85182049	62.62721567	-65
16248	0	0.370069504	-0.094609261	0.096565247	0.999999046	3.14713E-05	-0.000202179	0.000385284	9.251737595	-2.365231514	2.414131165	0.001573563	-0.010108948	0.019264222	-0.614501953	-0.016601563	-0.780273438	878.38	-45.31822873	-69.84285223	62.73476625	-65
16249	0	0.369018555	-0.096557617	0.096923828	0.999999046	-3.05176E-05	-8.67844E-05	0.000228882	9.225463867	-2.41394043	2.423095703	-0.001525879	-0.004339218	0.011444092	-0.614501953	-0.014404297	-0.774658203	878.34	-45.36196251	-69.83721174	62.77744353	-65
16250	0	0.369235039	-0.09752655	0.098134041	0.999999046	0.00028038	-0.000211716	0.00039959	9.230875969	-2.438163757	2.453351021	0.014019013	-0.010585785	0.019979478	-0.616943359	-0.014404297	-0.780273438	878.28	-45.43510477	-69.82753497	62.88779856	-65
16251	0	0.371337891	-0.096679688	0.09576416	0.999999046	0.000576019	-0.000208855	0.000392914	9.283447266	-2.416992188	2.394104004	0.028800967	-0.010442735	0.019645693	-0.614501953	-0.014404297	-0.774658203	878.32	-45.47224813	-69.81814305	62.99596281	-65
16252	0	0.372096062	-0.095823288	0.097243309	0.999999046	0.001038551	-0.000120163	0.000304222	9.302401543	-2.395582199	2.431082726	0.051927577	-0.006008149	0.015211108	-0.614501953	-0.016601563	-0.780273438	878.24	-45.41704679	-69.80887254	63.0609023	-65
16253	0	0.371765137	-0.091796875	0.095581055	0.999999046	0.000732422	7.34329E-05	0.00044632	9.294128418	-2.294921875	2.389526367	0.036621098	0.003671647	0.022315982	-0.616943359	-0.016601563	-0.771484375	878.32	-45.3845925	-69.77264151	63.11734319	-65
16254	0	0.370934486	-0.094065666	0.094245911	0.999999046	0.000185013	-3.43323E-05	0.000270844	9.27336216	-2.351641655	2.356147766	0.009250641	-0.001716614	0.013542176	-0.616943359	-0.016601563	-0.777099609	878.32	-45.40033303	-69.75955398	63.15541603	-66
16255	0	0.368286133	-0.094055176	0.096069336	0.999999046	3.43323E-05	-1.81198E-05	0.00030899	9.20715332	-2.351379395	2.401733398	0.001716614	-0.000905991	0.015449524	-0.614501953	-0.016601563	-0.77734375	878.24	-45.43780418	-69.74208799	63.19712135	-66
16256	0	0.373417854	-0.095867157	0.096487999	0.999999046	-0.000138283	-5.34058E-05	0.000156403	9.335446358	-2.396678925	2.412199974	-0.006914139	-0.002670288	0.007820129	-0.614501953	-0.016601563	-0.77734375	878.28	-45.46949439	-69.73997505	63.21208984	-66
16257	0	0.370605469	-0.097106934	0.095153809	0.999999046	0.000419617	6.58035E-05	-1.90735E-05	9.265136719	-2.42767334	2.378845215	0.020980836	0.003290176	-0.000953674	-0.614501953	-0.016601563	-0.771484375	878.38	-45.3728274	-69.74261689	63.15998285	-66
16258	0	0.36797142	-0.094511986	0.09424305	0.999999046	7.05719E-05	-3.43323E-05	5.72205E-05	9.199285507	-2.362799644	2.356076241	0.003528595	-0.001716614	0.002861023	-0.614501953	-0.018798828	-0.774169922	878.32	-45.35494079	-69.74716958	63.15145001	-66
16259	0	0.369873047	-0.097229004	0.095275879	0.999999046	-0.000289917	1.62125E-05	0.000141144	9.246826172	-2.430725098	2.381896973	-0.01449585	0.000810623	0.00705719	-0.614257813	-0.018798828	-0.777099609	878.38	-45.38570856	-69.74079993	63.15003687	-66
16260	0	0.370451927	-0.098366737	0.096327782	0.999999046	0.00024128	3.24249E-05	-7.62939E-06	9.26129818	-2.459168434	2.408194542	0.01206398	0.001621246	-0.00038147	-0.616943359	-0.016601563	-0.774169922	878.38	-45.31976672	-69.7451828	63.10871013	-66
16261	0	0.369262695	-0.09576416	0.096069336	0.999999046	-0.000144958	5.81741E-05	7.24792E-05	9.231567383	-2.394104004	2.401733398	-0.007247925	0.002908707	0.003623962	-0.614257813	-0.018798828	-0.780029297	878.34	-45.30985721	-69.74096032	63.07981014	-66
16262	0	0.369175911	-0.097738266	0.097852707	0.999999046	-0.000108719	9.34601E-05	0.000198364	9.229397774	-2.44345665	2.446317673	-0.005435944	0.004673004	0.009918213	-0.614501953	-0.016601563	-0.774414063	878.38	-45.31549407	-69.7235168	63.07163524	-67
16263	0	0.369812012	-0.100341797	0.097106934	0.999999046	0.000335693	-1.81198E-05	1.14441E-05	9.245300293	-2.508544922	2.42767334	0.016784668	-0.000905991	0.000572205	-0.614501953	-0.016601563	-0.77734375	878.34	-45.2543711	-69.7301262	63.0439911	-67
16264	0	0.370545387	-0.09894371	0.09642601	0.999999046	0.000851631	3.24249E-05	-8.58307E-06	9.263634682	-2.473592758	2.410650253	0.042581563	0.001621247	-0.000429153	-0.614257813	-0.018798828	-0.777099609	878.38	-45.11886114	-69.73418974	63.00147202	-67
16265	0	0.368835449	-0.096130371	0.095703125	0.999999046	0.000583649	9.63211E-05	0.0001297	9.22088623	-2.403259277	2.392578125	0.029182436	0.004816056	0.006484986	-0.614257813	-0.020996094	-0.776855469	878.38	-45.03041105	-69.7218483	62.97906634	-68
16266	0	0.369401932	-0.095930099	0.097167015	0.999999046	0.000684738	-1.90735E-06	0.000110626	9.235048294	-2.398252487	2.429175377	0.034236911	-9.53674E-05	0.005531311	-0.614257813	-0.018798828	-0.777099609	878.38	-44.94775621	-69.71898548	62.96930127	-68
16267	0	0.370422363	-0.095947266	0.096496582	0.999999046	0.000610352	-1.04904E-05	6.86646E-05	9.260559082	-2.398681641	2.412414551	0.03051758	-0.000524521	0.003433228	-0.614257813	-0.021240234	-0.779785156	878.38	-44.86636024	-69.72023689	62.95312539	-68
16268	0	0.370960236	-0.096187592	0.095567703	0.999999046	0.000145912	7.24792E-05	0.000178337	9.27400589	-2.404689789	2.389192581	0.007295609	0.003623962	0.008916855	-0.614257813	-0.020996094	-0.776855469	878.38	-44.84435419	-69.70593677	62.94455335	-68
16269	0	0.371765137	-0.096679688	0.095825195	0.999999046	-0.000114441	0.000290871	-4.95911E-05	9.294128418	-2.416992188	2.395629883	-0.005722046	0.014543534	-0.002479553	-0.611816406	-0.021240234	-0.780029297	878.34	-44.75469206	-69.69232908	62.82990039	-68
16270	0	0.36726284	-0.09556675	0.096504211	0.999999046	-0.000131607	0.000200272	1.04904E-05	9.181571007	-2.389168739	2.412605286	-0.006580353	0.01001358	0.000524521	-0.614257813	-0.020996094	-0.776855469	878.4	-44.70013292	-69.68119044	62.75384685	-69
16271	0	0.366943359	-0.095581055	0.095947266	0.999999046	-6.10352E-05	0.000103951	1.14441E-05	9.173583984	-2.389526367	2.398681641	-0.003051758	0.005197525	0.000572205	-0.611816406	-0.021240234	-0.780029297	878.46	-44.65885771	-69.6778053	62.69811775	-69
16272	0	0.370033264	-0.096029282	0.097781181	0.999999046	0.000136375	5.14984E-05	0.000205994	9.250831604	-2.40073204	2.444529533	0.006818771	0.002574921	0.010299683	-0.611816406	-0.021240234	-0.777099609	878.4	-44.64921203	-69.66300157	62.70179509	-69
16273	0	0.369689941	-0.09552002	0.097839355	0.999999046	-5.72205E-05	0.000203133	0.000289917	9.242248535	-2.388000488	2.445983887	-0.002861023	0.010156632	0.01449585	-0.612060547	-0.021240234	-0.774169922	878.38	-44.64723503	-69.6290748	62.69264035	-69
16274	0	0.369106293	-0.095685005	0.098770142	0.999999046	-0.000255585	0.000419617	0.000315666	9.227657318	-2.39212513	2.46925354	-0.012779237	0.020980836	0.015783311	-0.609375	-0.0234375	-0.777099609	878.4	-44.62668408	-69.57538329	62.64213834	-69
16275	0	0.366027832	-0.095153809	0.098388672	0.999999046	-0.000297546	0.000325203	0.000274658	9.150695801	-2.378845215	2.459716797	-0.01487732	0.016260148	0.013732911	-0.611816406	-0.019042969	-0.782958984	878.38	-44.6224029	-69.53264617	62.59613363	-69
16276	0	0.369084358	-0.096209526	0.098692894	0.999999046	-9.63211E-05	0.000265121	0.000289917	9.227108955	-2.405238152	2.46732235	-0.004816055	0.013256073	0.01449585	-0.614501953	-0.016601563	-0.780273438	878.28	-44.61139951	-69.49356136	62.56742861	-69
16277	0	0.370605469	-0.09564209	0.097351074	0.999999046	-0.000110626	0.000340462	0.000213623	9.265136719	-2.391052246	2.433776855	-0.005531311	0.017023087	0.010681153	-0.611816406	-0.019042969	-0.782958984	878.4	-44.56935555	-69.45454915	62.5064591	-70
16278	0	0.367202759	-0.093502045	0.098555565	0.999999046	-0.000535965	0.000507355	0.000430107	9.18006897	-2.337551117	2.463889122	-0.026798252	0.02536774	0.021505358	-0.612060547	-0.021240234	-0.774169922	878.38	-44.58725005	-69.38456615	62.46927427	-70
16279	0	0.367370605	-0.093566895	0.097900391	0.999999046	-0.000591278	0.000302315	0.000255585	9.184265137	-2.339172363	2.447509766	-0.029563906	0.015115739	0.012779237	-0.609619141	-0.019042969	-0.77734375	878.44	-44.61732577	-69.34547501	62.43356555	-70
16280	0	0.369091988	-0.097413063	0.099105835	0.999999046	-0.000992775	0.000236511	0.000376701	9.22729969	-2.435326576	2.477645874	-0.049638758	0.011825564	0.018835071	-0.609619141	-0.016845703	-0.783447266	878.34	-44.73361844	-69.30199127	62.43746404	-71
16281	0	0.370056152	-0.098937988	0.099487305	0.999999046	-0.000667572	0.000351906	0.000320435	9.251403809	-2.473449707	2.487182617	-0.033378605	0.017595293	0.01602173	-0.609619141	-0.016845703	-0.783447266	878.38	-44.77589699	-69.25360988	62.40502896	-71
16282	0	0.366991997	-0.098758698	0.100528717	0.999999046	-0.000831604	0.000350952	0.000117302	9.174799919	-2.468967438	2.513217926	-0.041580206	0.01754761	0.005865098	-0.607421875	-0.014648438	-0.780761719	878.34	-44.79359399	-69.22159879	62.32510586	-72
16283	0	0.365600586	-0.09942627	0.101074219	0.999999046	-0.000427246	0.000107765	0.00018692	9.140014648	-2.485656738	2.526855469	-0.021362306	0.00538826	0.009346009	-0.609863281	-0.012451172	-0.783691406	878.38	-44.83166267	-69.20358605	62.31412403	-72
16284	0	0.368225098	-0.099975586	0.100280762	0.999999046	-6.77109E-05	-3.8147E-06	0.000377655	9.205627441	-2.499389648	2.507019043	-0.003385544	-0.000190735	0.018882752	-0.607421875	-0.010253906	-0.781005859	878.4	-44.89312409	-69.17912625	62.36885246	-72
16285	0	0.367728233	-0.097844124	0.099276543	0.999998093	-0.000153542	0.000249863	0.000392914	9.193205833	-2.446103096	2.481913567	-0.007677079	0.012493134	0.019645692	-0.604980469	-0.010498047	-0.787109375	878.34	-44.91361692	-69.13283936	62.36667553	-72
16286	0	0.366201401	-0.096166611	0.098646164	0.999999046	-0.000572205	0.000255585	0.000506401	9.155035019	-2.404165268	2.466154099	-0.028610233	0.012779237	0.025320056	-0.604980469	-0.010253906	-0.784179688	878.32	-45.00471741	-69.07697464	62.39287837	-72
16287	0	0.366760254	-0.097717285	0.098754883	0.999999046	-0.000938416	0.000222206	0.000293732	9.169006348	-2.442932129	2.46887207	-0.046920784	0.011110308	0.014686587	-0.607666016	-0.008056641	-0.78125	878.38	-45.09955366	-69.04109175	62.38084192	-72
16288	0	0.36720562	-0.100196838	0.100071907	0.999999046	-0.000958443	9.34601E-05	0.000330925	9.180140495	-2.504920959	2.501797676	-0.047922143	0.004673005	0.016546252	-0.605224609	-0.008056641	-0.784423828	878.32	-45.23172179	-69.01253745	62.40663234	-73
16289	0	0.36529541	-0.105041504	0.099731445	0.999999046	0.000610352	0.000142097	-0.000205994	9.132385254	-2.626037598	2.493286133	0.03051758	0.007104874	-0.010299683	-0.605224609	-0.005859375	-0.784423828	878.34	-45.06122328	-69.02343844	62.29446177	-72
16290	0	0.367383003	-0.097753525	0.096596718	0.999998093	0.001793861	-0.000422478	0.000312805	9.184575081	-2.44383812	2.414917946	0.089693122	-0.021123898	0.015640268	-0.605224609	-0.008056641	-0.781494141	878.38	-44.98420633	-69.03808866	62.42789158	-73
16291	0	0.367431641	-0.099365234	0.101806641	0.999996185	-0.0023489	-0.000114441	0.000610352	9.185791016	-2.484130859	2.545166016	-0.117445108	-0.005722052	0.030517608	-0.605224609	-0.008056641	-0.787109375	878.24	-45.37916124	-69.00345563	62.56349018	-72
16292	0	0.367024422	-0.103475571	0.103496552	0.999999046	-0.000666618	6.29425E-05	0.000514984	9.175610542	-2.586889267	2.587413788	-0.033330921	0.003147126	0.02574921	-0.607666016	-0.005859375	-0.784423828	878.4	-45.52294392	-68.96185562	62.63840637	-72
16293	0	0.365661621	-0.104003906	0.101318359	0.999999046	-0.000522614	0.000180244	0.000202179	9.141540527	-2.600097656	2.532958984	-0.026130678	0.009012223	0.010108948	-0.60546875	-0.003662109	-0.781738281	878.32	-45.55994174	-68.93616793	62.61446596	-72
16294	0	0.36991787	-0.102729797	0.097009659	0.999999046	0.000787735	-0.000219345	6.10352E-05	9.247946739	-2.568244934	2.42524147	0.039386754	-0.010967256	0.003051758	-0.60546875	-0.003662109	-0.784667969	878.32	-45.50270472	-68.95415936	62.64625205	-72
16295	0	0.368652344	-0.102294922	0.099121094	0.999999046	-0.001213074	-0.000235558	3.05176E-05	9.216308594	-2.557373047	2.478027344	-0.060653702	-0.011777881	0.001525879	-0.60546875	-0.003662109	-0.784667969	878.4	-45.67211055	-68.97591195	62.67831498	-72
16296	0	0.367533684	-0.101955414	0.101812363	0.999999046	-0.00032711	-0.000143051	0.000208855	9.188342094	-2.548885345	2.545309067	-0.016355515	-0.007152558	0.010442734	-0.603271484	-0.001464844	-0.779296875	878.34	-45.75734978	-68.97547751	62.72718958	-71
16297	0	0.368347168	-0.102233887	0.099304199	0.999999046	-0.000297546	-1.43051E-05	0.000232697	9.208679199	-2.555847168	2.48260498	-0.01487732	-0.000715256	0.011634827	-0.60546875	0.000732422	-0.78515625	878.4	-45.81672589	-68.96273614	62.74766943	-71
16298	0	0.367326736	-0.099167824	0.098806381	0.999999046	-0.000267029	0.000185013	0.000225067	9.183168411	-2.479195595	2.470159531	-0.013351441	0.009250641	0.011253357	-0.60546875	-0.001464844	-0.784912109	878.4	-45.8282267	-68.93476826	62.72639394	-71
16299	0	0.366088867	-0.098937988	0.096740723	0.999999046	-0.000713348	0.000332832	0.000244141	9.15222168	-2.473449707	2.418518066	-0.035667423	0.016641619	0.012207033	-0.603271484	0.000732422	-0.78515625	878.34	-45.86331017	-68.89356581	62.67296866	-70
16300	0	0.369212151	-0.098948479	0.094891548	0.999999046	-0.001217842	0.000205994	0.000266075	9.230303764	-2.473711967	2.372288704	-0.060892121	0.010299685	0.01330376	-0.605712891	0.002929688	-0.782226563	878.38	-45.98787676	-68.86095076	62.65676623	-70
16301	0	0.370056152	-0.099731445	0.09552002	0.999999046	-0.001205444	0.000119209	-8.01086E-05	9.251403809	-2.493286133	2.388000488	-0.060272232	0.005960466	-0.004005433	-0.605712891	0.005126953	-0.788330078	878.38	-46.05829739	-68.86402832	62.58033174	-70
16302	0	0.367546082	-0.102900505	0.098044395	0.999998093	-0.001532555	6.58035E-05	-0.00024128	9.188652039	-2.572512627	2.451109886	-0.076627762	0.003290178	-0.012063985	-0.603271484	0.005126953	-0.785400391	878.56	-46.14460489	-68.88467969	62.48450251	-70
16303	0	0.366882324	-0.103637695	0.098022461	0.999999046	-0.000694275	-0.000117302	-0.00018692	9.172058105	-2.590942383	2.450561523	-0.034713748	-0.005865098	-0.009346009	-0.603515625	0.007324219	-0.782714844	878.24	-46.18540376	-68.91535151	62.44141231	-71
