Counter	Temperature	VelInc_X	VelInc_Y	VelInc_Z	OriInc_w	OriInc_x	OriInc_y	OriInc_z	Acc_X	Acc_Y	Acc_Z	Gyr_X	Gyr_Y	Gyr_Z	Mag_X	Mag_Y	Mag_Z	Pressure	Roll	Pitch	Yaw	RSSI
37042	0	-0.023142815	-0.216880798	0.331817627	0.999999046	-0.000234604	-7.24792E-05	-0.000115395	-0.578570366	-5.422019958	8.295440674	-0.011730194	-0.003623962	-0.00576973	-0.454833984	0.054199219	-1.0078125	881.38	-33.07132765	2.987835154	155.5781225	-71
37043	0	-0.022583008	-0.218811035	0.332580566	0.999999046	-0.000392914	-1.81198E-05	1.90735E-05	-0.564575195	-5.470275879	8.31451416	-0.019645691	-0.000905991	0.000953674	-0.455078125	0.056396484	-1.002197266	881.38	-33.11964222	2.986984411	155.5677451	-71
37044	0	-0.02349472	-0.218216896	0.331494331	0.999999046	-0.000119209	-4.00543E-05	2.19345E-05	-0.587368011	-5.455422401	8.287358284	-0.005960464	-0.002002716	0.001096725	-0.454833984	0.056396484	-1.005126953	881.38	-33.13658119	2.98432151	155.5555419	-71
37045	0	-0.022644043	-0.217895508	0.330810547	0.999999046	-0.000392914	-6.67572E-06	5.72205E-05	-0.566101074	-5.447387695	8.270263672	-0.019645691	-0.000333786	0.002861023	-0.455078125	0.056396484	-1.002197266	881.5	-33.18488202	2.987142349	155.5463662	-71
37046	0	-0.02241993	-0.218765259	0.332103729	0.999999046	-0.000400543	0.000110626	7.62939E-06	-0.560498238	-5.46913147	8.302593231	-0.020027161	0.005531311	0.00038147	-0.452636719	0.056396484	-0.999511719	881.42	-33.23474044	2.998148689	155.5237756	-70
37047	0	-0.023071289	-0.218078613	0.33013916	0.999999046	-0.000801086	9.63211E-05	-1.90735E-05	-0.576782227	-5.451965332	8.253479004	-0.040054326	0.004816056	-0.000953674	-0.455078125	0.058837891	-1.002441406	881.42	-33.3306445	3.006175291	155.501285	-71
37048	0	-0.024652481	-0.220196724	0.330574989	0.999999046	-0.000567436	0	-3.91006E-05	-0.616312027	-5.504918098	8.264374733	-0.028371812	0	-0.001955032	-0.452636719	0.05859375	-1.002685547	881.38	-33.39966194	3.003857408	155.4776822	-71
37049	0	-0.023742676	-0.221435547	0.330688477	0.999999046	-0.000167847	-2.95639E-05	-4.95911E-05	-0.593566895	-5.535888672	8.267211914	-0.008392334	-0.001478195	-0.002479553	-0.452636719	0.060791016	-1.005615234	881.34	-33.42296533	2.99814683	155.4551392	-71
37050	0	-0.023396492	-0.219473839	0.329639435	0.999999046	-0.000177383	-4.3869E-05	-2.00272E-05	-0.5849123	-5.48684597	8.24098587	-0.008869171	-0.002193451	-0.001001358	-0.452636719	0.05859375	-1.002685547	881.44	-33.44722317	2.993023839	155.4351479	-72
37051	0	-0.023071289	-0.220458984	0.330444336	0.999999046	-0.000205994	6.96182E-05	7.62939E-06	-0.576782227	-5.511474609	8.261108398	-0.010299683	0.003480911	0.00038147	-0.450439453	0.060791016	-1	881.38	-33.47505546	3.000565319	155.4137512	-72
37052	0	-0.023425102	-0.221083641	0.329739571	1	-1.71661E-05	-6.19888E-05	2.19345E-05	-0.585627556	-5.527091026	8.243489265	-0.000858307	-0.003099442	0.001096725	-0.452880859	0.063232422	-1.002929688	881.48	-33.48084033	2.99651523	155.4058052	-72
37053	0	-0.023376465	-0.220214844	0.330322266	0.999999046	-0.000152588	0.000149727	2.67029E-05	-0.584411621	-5.505371094	8.258056641	-0.007629395	0.007486343	0.001335144	-0.452880859	0.063232422	-1.002929688	881.44	-33.50286525	3.013082323	155.3848526	-70
37054	0	-0.02299881	-0.22068119	0.330125809	0.999999046	-0.000234604	0.000139236	0.000163078	-0.574970245	-5.517029762	8.253145218	-0.011730194	0.006961823	0.008153916	-0.450439453	0.062988281	-1.006103516	881.44	-33.53363766	3.037327367	155.3705701	-72
37055	0	-0.023681641	-0.22052002	0.330749512	0.999999046	-0.000106812	1.23978E-05	3.8147E-05	-0.592041016	-5.513000488	8.268737793	-0.005340576	0.000619888	0.001907349	-0.453125	0.065429688	-0.997314453	881.48	-33.54997522	3.041622422	155.368129	-71
37056	0	-0.02340126	-0.220528603	0.331189156	0.999999046	-0.000195503	-3.05176E-05	7.9155E-05	-0.585031509	-5.513215065	8.279728889	-0.009775162	-0.001525879	0.003957748	-0.452880859	0.063232422	-1.002929688	881.48	-33.57614308	3.044479822	155.3617259	-71
37057	0	-0.024108887	-0.220825195	0.329956055	0.999999046	-9.53674E-05	-2.57492E-05	2.67029E-05	-0.602722168	-5.520629883	8.248901367	-0.004768372	-0.00128746	0.001335144	-0.450439453	0.062988281	-1.006103516	881.38	-33.59116806	3.044566012	155.3429757	-72
37058	0	-0.024043083	-0.22107029	0.329182625	0.999999046	-0.000236511	-3.62396E-05	0.000110626	-0.60107708	-5.52675724	8.22956562	-0.011825562	-0.001811981	0.005531311	-0.452880859	0.063232422	-1.002929688	881.34	-33.62196681	3.049063033	155.3386381	-72
37059	0	-0.024230957	-0.221984863	0.33013916	0.999999046	-0.000125885	-8.67844E-05	0.000102997	-0.605773926	-5.549621582	8.253479004	-0.006294251	-0.004339218	0.005149841	-0.452880859	0.065429688	-1.003173828	881.48	-33.64001878	3.048348473	155.3393376	-72
37060	0	-0.02458477	-0.220415115	0.329965591	0.999999046	5.62668E-05	-6.67572E-05	6.77109E-05	-0.614619255	-5.510377884	8.249139786	0.002813339	-0.00333786	0.003385544	-0.450683594	0.065185547	-1.003173828	881.38	-33.63744334	3.047418205	155.3321211	-72
37061	0	-0.024353027	-0.221252441	0.330566406	0.999999046	4.19617E-05	-7.53403E-05	-3.8147E-05	-0.608825684	-5.531311035	8.264160156	0.002098083	-0.003767014	-0.001907349	-0.450439453	0.065185547	-1.006103516	881.42	-33.63703679	3.039045634	155.3119822	-72
37062	0	-0.022943497	-0.221531868	0.329672813	0.999999046	-0.00012207	-0.000257492	7.62939E-06	-0.573587418	-5.5382967	8.241820335	-0.006103516	-0.012874603	0.00038147	-0.450439453	0.065185547	-1.006103516	881.44	-33.65463705	3.016227958	155.3065917	-72
37063	0	-0.024108887	-0.22088623	0.33013916	0.999999046	-0.000396729	9.53674E-07	8.39233E-05	-0.602722168	-5.522155762	8.253479004	-0.019836426	4.76837E-05	0.004196167	-0.450683594	0.065185547	-1.003173828	881.38	-33.70419599	3.023000284	155.2940822	-72
37064	0	-0.023780823	-0.222547531	0.328985214	0.999999046	-7.72476E-05	-0.000139236	8.29697E-05	-0.594520569	-5.563688278	8.224630356	-0.003862381	-0.006961823	0.004148483	-0.453125	0.065429688	-1.000244141	881.36	-33.7167636	3.016418235	155.2962206	-71
37065	0	-0.023803711	-0.221435547	0.329162598	0.999999046	3.8147E-06	-0.000170708	0.000106812	-0.595092773	-5.535888672	8.229064941	0.000190735	-0.008535385	0.005340576	-0.453125	0.065429688	-1.000244141	881.42	-33.71984998	3.008428395	155.3018632	-70
37066	0	-0.024288177	-0.222343445	0.329721451	0.999999046	-2.09808E-05	-8.7738E-05	3.8147E-05	-0.607204437	-5.558586121	8.24303627	-0.001049042	-0.004386902	0.001907349	-0.452880859	0.065429688	-1.003173828	881.38	-33.72645784	3.004077067	155.2917127	-70
37067	0	-0.02355957	-0.221374512	0.33013916	0.999999046	-8.01086E-05	-0.000208855	8.01086E-05	-0.588989258	-5.534362793	8.253479004	-0.004005432	-0.010442734	0.004005432	-0.452880859	0.065429688	-1.003173828	881.44	-33.7392252	2.990913284	155.2921949	-70
37068	0	-0.023273468	-0.221851349	0.330905914	0.999999046	-0.000128746	9.53674E-06	0.000141144	-0.5818367	-5.546283722	8.272647858	-0.006437302	0.000476837	0.00705719	-0.450683594	0.065185547	-0.997558594	881.38	-33.75797142	3.002490972	155.2869871	-71
37069	0	-0.023254395	-0.221679688	0.330078125	0.999999046	0.000247955	-0.000136375	9.53674E-05	-0.581359863	-5.541992188	8.251953125	0.012397766	-0.006818771	0.004768372	-0.453125	0.067626953	-1.000488281	881.48	-33.733288	2.997291371	155.2912281	-72
37070	0	-0.024122238	-0.220779419	0.329827309	0.999999046	1.71661E-05	-0.000118256	8.39233E-05	-0.603055954	-5.519485474	8.245682716	0.000858307	-0.005912781	0.004196167	-0.453125	0.067626953	-0.997558594	881.44	-33.73514114	2.993174919	155.2959326	-72
37071	0	-0.023986816	-0.222167969	0.329956055	0.999999046	0.000205994	-0.00014019	4.19617E-05	-0.59967041	-5.554199219	8.248901367	0.010299683	-0.007009506	0.002098084	-0.450683594	0.065185547	-1.003173828	881.48	-33.71554437	2.984379061	155.2842334	-72
37072	0	-0.022996902	-0.220626831	0.329687119	0.999999046	0.00017643	-2.28882E-05	6.38962E-05	-0.574922562	-5.515670776	8.242177963	0.008821487	-0.001144409	0.003194809	-0.452880859	0.065429688	-1.003173828	881.5	-33.69959415	2.988188591	155.2710778	-72
37073	0	-0.023742676	-0.221496582	0.33026123	0.999999046	-6.10352E-05	-9.44138E-05	-4.19617E-05	-0.593566895	-5.537414551	8.256530762	-0.003051758	-0.004720688	-0.002098084	-0.453125	0.065429688	-1.000244141	881.34	-33.71114684	2.978511169	155.2555752	-72
37074	0	-0.024271965	-0.221661568	0.329750061	0.999999046	-8.01086E-05	5.14984E-05	9.15527E-05	-0.606799126	-5.541539192	8.243751526	-0.004005432	0.002574921	0.004577637	-0.450683594	0.065185547	-1.000488281	881.38	-33.72473405	2.991327636	155.2393669	-72
37075	0	-0.024169922	-0.221130371	0.329956055	0.999999046	0.000141144	-4.86374E-05	-3.8147E-06	-0.604248047	-5.528259277	8.248901367	0.00705719	-0.00243187	-0.000190735	-0.450439453	0.065185547	-1.006103516	881.44	-33.71311259	2.988617092	155.2140749	-72
37076	0	-0.023281097	-0.220427513	0.330447197	0.999999046	2.95639E-05	-0.000112534	-0.0001297	-0.582027435	-5.510687828	8.261179924	0.001478195	-0.005626678	-0.006484985	-0.453125	0.067626953	-1.003417969	881.48	-33.71462691	2.97184123	155.1921453	-72
37077	0	-0.023254395	-0.22052002	0.328857422	0.999999046	-8.7738E-05	2.00272E-05	-8.7738E-05	-0.581359863	-5.513000488	8.221435547	-0.004386902	0.001001358	-0.004386902	-0.450683594	0.065185547	-1.000488281	881.5	-33.72981683	2.970410476	155.1612829	-72
37078	0	-0.023228645	-0.22131443	0.329183578	0.999999046	-8.58307E-05	5.53131E-05	4.57764E-05	-0.580716133	-5.532860756	8.229589462	-0.004291534	0.002765656	0.002288818	-0.452880859	0.065429688	-1.003173828	881.38	-33.74427095	2.980873805	155.1409196	-72
37079	0	-0.023681641	-0.221313477	0.329589844	0.999999046	-0.00025177	-4.86374E-05	7.24792E-05	-0.592041016	-5.532836914	8.239746094	-0.012588501	-0.00243187	0.003623962	-0.453125	0.065429688	-1.000244141	881.48	-33.77726292	2.983186853	155.132306	-72
37080	0	-0.024414063	-0.221292496	0.328564644	0.999999046	-3.14713E-05	-1.14441E-05	-9.63211E-05	-0.610351563	-5.532312393	8.214116096	-0.001573563	-0.000572205	-0.004816055	-0.450683594	0.067382813	-1.003417969	881.42	-33.78599301	2.978381668	155.1019428	-72
37081	0	-0.022888184	-0.221862793	0.328857422	0.999999046	0.000175476	-0.000136375	-8.7738E-05	-0.57220459	-5.546569824	8.221435547	0.008773804	-0.006818771	-0.004386902	-0.450683594	0.065185547	-1.003173828	881.44	-33.77058952	2.962239108	155.0768346	-71
37082	0	-0.023736	-0.220896721	0.330833435	0.999999046	9.91821E-05	-9.15527E-05	-1.52588E-05	-0.593400002	-5.522418022	8.270835876	0.004959106	-0.004577637	-0.000762939	-0.453125	0.065429688	-1.000244141	881.38	-33.76364891	2.955040684	155.0632738	-71
37083	0	-0.02331543	-0.221313477	0.330078125	0.999999046	0.00012207	-1.43051E-05	2.67029E-05	-0.582885742	-5.532836914	8.251953125	0.006103516	-0.000715256	0.001335144	-0.450683594	0.065185547	-1.000488281	881.42	-33.75411817	2.957914454	155.0451845	-71
37084	0	-0.023988724	-0.22153759	0.329339027	0.999999046	4.1008E-05	-6.48499E-05	0.000156403	-0.599718094	-5.538439751	8.233475685	0.0020504	-0.003242493	0.007820129	-0.450683594	0.065185547	-1.003173828	881.44	-33.75309524	2.964305246	155.0391087	-71
37085	0	-0.02331543	-0.221313477	0.329956055	0.999999046	-5.34058E-05	-5.24521E-05	3.8147E-05	-0.582885742	-5.532836914	8.248901367	-0.002670288	-0.002622604	0.001907349	-0.450683594	0.065185547	-1.003173828	881.44	-33.7635058	2.964381749	155.0206199	-70
37086	0	-0.023724556	-0.221530914	0.33005619	1	6.67572E-06	1.04904E-05	-3.14713E-05	-0.593113899	-5.538272858	8.251404762	0.000333786	0.000524521	-0.001573563	-0.450683594	0.065185547	-1.003173828	881.42	-33.7675763	2.96607294	154.991737	-70
37087	0	-0.024169922	-0.221679688	0.329650879	0.999999046	-0.000133514	-3.33786E-05	-3.8147E-06	-0.604248047	-5.541992188	8.241271973	-0.00667572	-0.00166893	-0.000190735	-0.452880859	0.063232422	-1	881.5	-33.78744036	2.965418833	154.9707175	-70
37088	0	-0.023681641	-0.221435547	0.330078125	0.999999046	6.96182E-05	-8.39233E-05	4.95911E-05	-0.592041016	-5.535888672	8.251953125	0.003480911	-0.004196167	0.002479553	-0.452880859	0.065429688	-1.006103516	881.38	-33.7835844	2.963401305	154.9546505	-70
37089	0	-0.023193359	-0.221008301	0.330688477	0.999999046	-0.000171661	-5.62668E-05	2.67029E-05	-0.579833984	-5.52520752	8.267211914	-0.008583069	-0.002813339	0.001335144	-0.452880859	0.065429688	-1.006103516	881.32	-33.80752981	2.962580245	154.9337673	-70
37090	0	-0.02328968	-0.22130394	0.33116436	0.999999046	-9.72748E-05	-1.52588E-05	-2.67029E-05	-0.582242012	-5.532598495	8.279109001	-0.004863739	-0.000762939	-0.001335144	-0.450683594	0.065185547	-1.000488281	881.42	-33.82327581	2.962279739	154.9087452	-71
37091	0	-0.023681641	-0.221557617	0.331298828	0.999999046	-0.000102997	-7.53403E-05	-2.28882E-05	-0.592041016	-5.53894043	8.282470703	-0.005149841	-0.003767014	-0.001144409	-0.452880859	0.063232422	-1.002929688	881.44	-33.83941791	2.956545279	154.8830013	-70
37092	0	-0.023377419	-0.222542763	0.331011772	0.999999046	3.52859E-05	-2.09808E-05	3.71933E-05	-0.584435463	-5.563569069	8.275294304	0.001764297	-0.001049042	0.001859665	-0.450683594	0.065185547	-1.003173828	881.48	-33.83957825	2.959844976	154.8605116	-70
37093	0	-0.023254395	-0.221069336	0.330322266	0.999999046	6.10352E-05	9.53674E-07	4.57764E-05	-0.581359863	-5.526733398	8.258056641	0.003051758	4.76837E-05	0.002288818	-0.453125	0.065429688	-1.000244141	881.44	-33.83675288	2.965801144	154.8453608	-70
37094	0	-0.02309227	-0.221515656	0.330348969	0.999999046	-9.53674E-05	3.05176E-05	-2.76566E-05	-0.577306747	-5.537891388	8.258724213	-0.004768372	0.001525879	-0.001382828	-0.450683594	0.067382813	-1.003417969	881.42	-33.85227867	2.969896266	154.8177151	-70
37095	0	-0.022888184	-0.221313477	0.330749512	0.999999046	-8.39233E-05	-0.000109673	6.86646E-05	-0.57220459	-5.532836914	8.268737793	-0.004196167	-0.005483627	0.003433228	-0.450683594	0.067626953	-0.997558594	881.38	-33.86547764	2.966794321	154.8157217	-70
37096	0	-0.023334503	-0.221304893	0.32992363	0.999999046	-0.000115395	-9.15527E-05	3.05176E-05	-0.583362579	-5.532622337	8.248090744	-0.00576973	-0.004577637	0.001525879	-0.452880859	0.065429688	-1.006103516	881.38	-33.88252948	2.963009978	154.7946393	-70
37097	0	-0.023498535	-0.222290039	0.33013916	0.999999046	-5.34058E-05	-8.67844E-05	-7.24792E-05	-0.587463379	-5.557250977	8.253479004	-0.002670288	-0.004339218	-0.003623962	-0.453125	0.067626953	-1.003417969	881.36	-33.89297376	2.953128095	154.7718093	-70
37098	0	-0.022981644	-0.220742226	0.330729485	0.999999046	6.10352E-05	-0.000102997	2.86102E-06	-0.574541092	-5.518555641	8.268237114	0.003051758	-0.005149841	0.000143051	-0.450683594	0.065185547	-1.000488281	881.44	-33.88978919	2.946527265	154.7525809	-70
37099	0	-0.023864746	-0.221801758	0.33013916	0.999999046	-8.01086E-05	-0.000151634	3.05176E-05	-0.596618652	-5.545043945	8.253479004	-0.004005432	-0.007581711	0.001525879	-0.450683594	0.065185547	-1.003173828	881.5	-33.90246475	2.937124355	154.7345168	-70
37100	0	-0.02331543	-0.221557617	0.329650879	0.999999046	7.34329E-05	-6.86646E-05	8.39233E-05	-0.582885742	-5.53894043	8.241271973	0.003671646	-0.003433228	0.004196167	-0.450683594	0.067382813	-1.006347656	881.34	-33.89752783	2.939057478	154.7167491	-71
37101	0	-0.0234375	-0.221557617	0.32989502	0.999999046	-7.62939E-06	2.38419E-05	1.90735E-05	-0.5859375	-5.53894043	8.247375488	-0.00038147	0.001192093	0.000953674	-0.450683594	0.065185547	-1.000488281	881.42	-33.90245884	2.94567861	154.6904405	-70
37102	0	-0.023461342	-0.222355843	0.330378532	0.999999046	-9.53674E-06	-0.000106812	3.33786E-05	-0.586533546	-5.558896065	8.25946331	-0.000476837	-0.005340576	0.00166893	-0.452880859	0.065429688	-1.003173828	881.48	-33.90710358	2.940818682	154.6731147	-70
37103	0	-0.023376465	-0.221435547	0.329528809	0.999999046	6.86646E-05	-0.000113487	5.34058E-05	-0.584411621	-5.535888672	8.238220215	0.003433228	-0.005674362	0.002670288	-0.453125	0.067626953	-1.000488281	881.44	-33.90261615	2.936632759	154.667005	-71
37104	0	-0.023447037	-0.22193718	0.329686165	1	2.47955E-05	-2.76566E-05	2.19345E-05	-0.586175919	-5.548429489	8.242154121	0.001239777	-0.001382828	0.001096725	-0.450683594	0.067382813	-1.006347656	881.38	-33.90360235	2.93863507	154.6402142	-71
37105	0	-0.023254395	-0.221191406	0.329528809	0.999999046	8.7738E-05	-6.67572E-06	4.19617E-05	-0.581359863	-5.529785156	8.238220215	0.004386902	-0.000333786	0.002098083	-0.450683594	0.065185547	-1.003173828	881.5	-33.89730917	2.943936866	154.6140883	-70
37106	0	-0.02351284	-0.222047806	0.329262733	0.999999046	-7.82013E-05	-4.95911E-05	0.000102997	-0.587821007	-5.551195145	8.231568336	-0.003910065	-0.002479553	0.005149841	-0.450683594	0.065185547	-0.997558594	881.5	-33.90958136	2.949090574	154.6040364	-71
37107	0	-0.022766113	-0.22076416	0.329040527	0.999999046	5.34058E-05	3.91006E-05	6.10352E-05	-0.569152832	-5.519104004	8.226013184	0.002670288	0.001955032	0.003051758	-0.453125	0.067626953	-1.000488281	881.52	-33.90722347	2.959991879	154.5891833	-71
37108	0	-0.023917198	-0.222130775	0.328573227	0.999999046	-0.000138283	-9.91821E-05	2.19345E-05	-0.597929955	-5.553269386	8.214330673	-0.006914139	-0.004959106	0.001096725	-0.453125	0.067626953	-1.003417969	881.38	-33.92660973	2.955293436	154.5740219	-71
37109	0	-0.023620605	-0.221069336	0.32800293	0.999999046	0.000137329	-0.000132561	0.000110626	-0.590515137	-5.526733398	8.200073242	0.006866455	-0.006628037	0.005531311	-0.450683594	0.065185547	-1.003173828	881.44	-33.91387319	2.953131945	154.5609432	-71
37110	0	-0.023765564	-0.221767426	0.329839706	0.999999046	-8.2016E-05	-0.000125885	3.8147E-06	-0.594139099	-5.544185638	8.245992661	-0.0041008	-0.006294251	0.000190735	-0.452880859	0.065429688	-1.006103516	881.42	-33.92680437	2.944815086	154.5357462	-71
37111	0	-0.023193359	-0.221801758	0.33013916	0.999999046	0.000171661	-0.000243187	9.53674E-05	-0.579833984	-5.545043945	8.253479004	0.008583069	-0.012159348	0.004768372	-0.453125	0.067626953	-1.000488281	881.44	-33.90976238	2.931207031	154.5404053	-71
37112	0	-0.024051666	-0.220707893	0.329737663	0.999999046	-0.000128746	-3.8147E-06	9.53674E-05	-0.601291656	-5.517697334	8.243441582	-0.006437302	-0.000190735	0.004768372	-0.453125	0.065429688	-1.000244141	881.44	-33.92788011	2.940424889	154.5241281	-71
37113	0	-0.024291992	-0.222045898	0.329040527	0.999999046	-3.8147E-06	-5.62668E-05	0.000152588	-0.607299805	-5.551147461	8.226013184	-0.000190735	-0.002813339	0.007629395	-0.450683594	0.067626953	-1.000488281	881.44	-33.93122532	2.948385046	154.5177877	-71
37114	0	-0.024261475	-0.221552849	0.328431129	0.999999046	0.000265121	-0.000188828	0.000121117	-0.606536865	-5.53882122	8.210778236	0.013256073	-0.009441376	0.006055832	-0.453125	0.067626953	-1.000488281	881.5	-33.90347051	2.94178982	154.5205294	-71
37115	0	-0.02355957	-0.221008301	0.328369141	0.999999046	-3.05176E-05	-4.86374E-05	6.86646E-05	-0.588989258	-5.52520752	8.209228516	-0.001525879	-0.00243187	0.003433228	-0.452880859	0.065429688	-1.006103516	881.44	-33.91034067	2.945205378	154.4948543	-71
37116	0	-0.023862839	-0.221574783	0.328723907	0.999999046	3.33786E-05	-0.000165939	8.29697E-05	-0.596570969	-5.539369583	8.218097687	0.00166893	-0.008296967	0.004148483	-0.450439453	0.065185547	-1.006103516	881.48	-33.90943881	2.938423548	154.4739138	-71
37117	0	-0.022949219	-0.222167969	0.329711914	0.999999046	8.7738E-05	-6.38962E-05	8.7738E-05	-0.573730469	-5.554199219	8.242797852	0.004386902	-0.003194809	0.004386902	-0.453125	0.065429688	-1.000244141	881.42	-33.90259344	2.941643108	154.4602769	-71
37118	0	-0.023738861	-0.221800804	0.330241203	0.999999046	8.58307E-05	-3.24249E-05	2.86102E-06	-0.593471527	-5.545020103	8.256030083	0.004291534	-0.001621246	0.000143051	-0.450683594	0.065185547	-1.003173828	881.42	-33.89647056	2.942465225	154.4287143	-71
37119	0	-0.024841309	-0.222106934	0.329650879	0.999999046	8.39233E-05	-6.77109E-05	8.7738E-05	-0.621032715	-5.55267334	8.241271973	0.004196167	-0.003385544	0.004386902	-0.450683594	0.065185547	-1.000488281	881.42	-33.89002813	2.945443386	154.4118771	-71
37120	0	-0.023370743	-0.221376419	0.329507828	0.999999046	0.000121117	-0.000143051	-6.48499E-05	-0.58426857	-5.534410477	8.237695694	0.006055832	-0.007152557	-0.003242493	-0.453125	0.065429688	-1.000244141	881.44	-33.87979926	2.931516627	154.389796	-71
37121	0	-0.023742676	-0.221923828	0.330749512	0.999999046	1.14441E-05	-9.44138E-05	3.05176E-05	-0.593566895	-5.548095703	8.268737793	0.000572205	-0.004720688	0.001525879	-0.452880859	0.065429688	-1.003173828	881.36	-33.88181866	2.928342437	154.3685074	-71
37122	0	-0.023144722	-0.221304893	0.328743935	0.999999046	4.95911E-05	5.53131E-05	1.81198E-05	-0.57861805	-5.532622337	8.218598366	0.002479553	0.002765656	0.000905991	-0.452880859	0.065429688	-1.003173828	881.48	-33.88002054	2.938627591	154.337069	-72
37123	0	-0.023803711	-0.221618652	0.330200195	0.999999046	-8.39233E-05	7.34329E-05	1.90735E-05	-0.595092773	-5.540466309	8.255004883	-0.004196167	0.003671646	0.000953674	-0.448242188	0.065185547	-1.000488281	881.44	-33.89354452	2.95072986	154.3022253	-72
37124	0	-0.023677826	-0.222284317	0.331501961	1	-3.8147E-05	8.58307E-06	-5.05447E-05	-0.591945648	-5.557107925	8.287549019	-0.001907349	0.000429153	-0.002527237	-0.453125	0.067626953	-1.000488281	881.44	-33.90190068	2.952228528	154.2773597	-72
37125	0	-0.023132324	-0.221130371	0.331298828	0.999999046	-1.14441E-05	-2.95639E-05	-3.8147E-05	-0.578308105	-5.528259277	8.282470703	-0.000572205	-0.001478195	-0.001907349	-0.450683594	0.065185547	-1.000488281	881.42	-33.9069464	2.950882649	154.2467938	-71
37126	0	-0.023584366	-0.221811295	0.330623627	0.999999046	-0.000167847	-7.43866E-05	-5.34058E-05	-0.589609146	-5.545282364	8.265590668	-0.008392334	-0.00371933	-0.002670288	-0.453125	0.065429688	-1.000244141	881.44	-33.92980864	2.944311537	154.2208635	-72
37127	0	-0.022460938	-0.221252441	0.328674316	0.999999046	-9.15527E-05	-7.53403E-05	-3.8147E-06	-0.561523438	-5.531311035	8.21685791	-0.004577637	-0.003767014	-0.000190735	-0.450683594	0.067626953	-1.000488281	881.48	-33.94365944	2.940785096	154.2009848	-72
37128	0	-0.023935318	-0.220825195	0.32955265	0.999999046	-0.000170708	9.53674E-06	7.24792E-05	-0.59838295	-5.520629883	8.238816261	-0.008535385	0.000476837	0.003623962	-0.453125	0.065429688	-1.000244141	881.44	-33.96644981	2.950250115	154.1800146	-72
37129	0	-0.024169922	-0.221740723	0.328491211	0.999999046	-0.000247955	-8.67844E-05	0.000137329	-0.604248047	-5.543518066	8.212280273	-0.012397766	-0.004339218	0.006866455	-0.453125	0.067626953	-1.003417969	881.38	-33.99746632	2.954765789	154.1699467	-72
37130	0	-0.024539948	-0.222752571	0.329788208	0.999999046	0.000154495	-4.00543E-05	-3.52859E-05	-0.613498688	-5.568814278	8.2447052	0.007724762	-0.002002716	-0.001764297	-0.453125	0.067626953	-1.000488281	881.44	-33.9833483	2.952725392	154.1460481	-72
37131	0	-0.023681641	-0.221008301	0.329406738	0.999999046	0	-0.000105858	-7.62939E-06	-0.592041016	-5.52520752	8.235168457	0	-0.005292892	-0.00038147	-0.450683594	0.067382813	-1.003417969	881.38	-33.98654056	2.946226222	154.1201317	-72
37132	0	-0.023547173	-0.222290993	0.329350471	0.999999046	-3.52859E-05	-6.29425E-05	-0.000125885	-0.588679314	-5.557274818	8.233761787	-0.001764297	-0.003147125	-0.006294251	-0.453125	0.067626953	-1.003417969	881.44	-33.99449356	2.936241537	154.083981	-72
37133	0	-0.022644043	-0.22076416	0.329223633	0.999999046	-9.53674E-05	-7.53403E-05	6.10352E-05	-0.566101074	-5.519104004	8.23059082	-0.004768372	-0.003767014	0.003051758	-0.453125	0.067626953	-1.003417969	881.38	-34.00831669	2.937027406	154.0655956	-72
37134	0	-0.024452209	-0.222411156	0.330588341	0.999999046	-9.72748E-05	-0.000118256	2.57492E-05	-0.611305237	-5.560278893	8.264708519	-0.004863739	-0.005912781	0.00128746	-0.450683594	0.067626953	-1.000488281	881.48	-34.02233661	2.931535769	154.0474376	-72
37135	0	-0.023681641	-0.221557617	0.329711914	0.999999046	4.19617E-05	-7.53403E-05	-0.000102997	-0.592041016	-5.53894043	8.242797852	0.002098084	-0.003767014	-0.005149841	-0.450683594	0.065185547	-1.000488281	881.34	-34.02113409	2.92189118	154.0083305	-72
37136	0	-0.023769379	-0.22245121	0.329184532	0.999999046	-6.77109E-05	-0.000101089	-1.90735E-05	-0.594234467	-5.561280251	8.229613304	-0.003385544	-0.005054474	-0.000953674	-0.450683594	0.067382813	-1.003417969	881.42	-34.03200958	2.915213236	153.9791971	-72
37137	0	-0.023071289	-0.221862793	0.329040527	0.999999046	4.19617E-05	-5.24521E-05	-2.67029E-05	-0.576782227	-5.546569824	8.226013184	0.002098083	-0.002622604	-0.001335144	-0.450683594	0.065185547	-1.000488281	881.4	-34.03049222	2.912663653	153.9457738	-72
37138	0	-0.023573875	-0.220555305	0.330708504	0.999999046	-0.000110626	2.47955E-05	0	-0.589346886	-5.513882637	8.267712593	-0.005531311	0.001239777	0	-0.450683594	0.067626953	-1.000488281	881.38	-34.04644195	2.919183518	153.916058	-72
37139	0	-0.023742676	-0.222412109	0.329162598	0.999999046	-0.000247955	-1.43051E-05	-4.19617E-05	-0.593566895	-5.560302734	8.229064941	-0.012397766	-0.000715256	-0.002098084	-0.453125	0.065429688	-1.000244141	881.44	-34.07822419	2.919325283	153.8814554	-72
37140	0	-0.023775101	-0.221418381	0.329907417	0.999999046	-0.000144005	-5.91278E-05	2.86102E-06	-0.594377518	-5.535459518	8.247685432	-0.007200241	-0.00295639	0.000143051	-0.453125	0.067626953	-1.003417969	881.38	-34.09765575	2.918117758	153.8535348	-72
37141	0	-0.023376465	-0.222839355	0.328796387	0.999999046	-3.8147E-06	-7.53403E-05	-7.62939E-06	-0.584411621	-5.570983887	8.219909668	-0.000190735	-0.003767014	-0.00038147	-0.453125	0.065429688	-1.000244141	881.44	-34.10102985	2.914707917	153.8251811	-72
37142	0	-0.024726868	-0.222293854	0.329591751	0.999999046	7.82013E-05	-0.000144958	-1.62125E-05	-0.618171692	-5.557346344	8.239793777	0.003910065	-0.007247925	-0.000810623	-0.453125	0.067626953	-1.000488281	881.42	-34.09476206	2.904218754	153.8059284	-72
37143	0	-0.023681641	-0.222290039	0.329589844	0.999999046	-0.00018692	-6.00815E-05	-2.67029E-05	-0.592041016	-5.557250977	8.239746094	-0.009346008	-0.003004074	-0.001335144	-0.453125	0.067626953	-1.006347656	881.38	-34.11920552	2.901138145	153.7691209	-72
37144	0	-0.023263931	-0.223330498	0.329081535	0.999999046	-0.000149727	-0.000133514	-7.72476E-05	-0.581598282	-5.583262444	8.227038383	-0.007486343	-0.00667572	-0.003862381	-0.450683594	0.069824219	-1.003662109	881.44	-34.13937054	2.88784526	153.7387689	-72
37145	0	-0.023681641	-0.221496582	0.328552246	0.999999046	-6.86646E-05	-2.95639E-05	5.34058E-05	-0.592041016	-5.537414551	8.213806152	-0.003433228	-0.001478195	0.002670288	-0.450927734	0.069824219	-1.000732422	881.5	-34.14988787	2.892847567	153.7190953	-72
37146	0	-0.023564339	-0.222577095	0.328034401	0.999999046	-0.000188828	-8.7738E-05	-1.23978E-05	-0.589108467	-5.564427376	8.200860023	-0.009441376	-0.004386902	-0.000619888	-0.450683594	0.069824219	-1.003662109	881.5	-34.17432671	2.888127398	153.6903182	-72
37147	0	-0.023376465	-0.223083496	0.327575684	0.999999046	3.8147E-05	-0.000121117	-5.34058E-05	-0.584411621	-5.577087402	8.18939209	0.001907349	-0.006055832	-0.002670288	-0.453369141	0.069824219	-0.997802734	881.5	-34.17283836	2.877619315	153.673348	-72
37148	0	-0.023193359	-0.222045898	0.328308105	0.999999046	-6.77109E-05	1.14441E-05	9.15527E-05	-0.579833984	-5.551147461	8.207702637	-0.003385544	0.000572205	0.004577637	-0.448486328	0.069580078	-1.000976563	881.5	-34.1832026	2.889023204	153.6489052	-74
37149	0	-0.024108887	-0.223205566	0.327819824	0.999999046	6.86646E-05	-9.82285E-05	0.000114441	-0.602722168	-5.58013916	8.195495605	0.003433228	-0.004911423	0.005722046	-0.453125	0.067626953	-0.997558594	881.42	-34.17749845	2.891557319	153.6401063	-74
37150	0	-0.023301125	-0.221813202	0.327915192	0.999999046	-3.8147E-06	2.28882E-05	0.000105858	-0.582528114	-5.545330048	8.197879791	-0.000190735	0.001144409	0.005292892	-0.453125	0.069824219	-1.003417969	881.44	-34.18051667	2.905033687	153.6182777	-76
37151	0	-0.022949219	-0.22253418	0.328674316	0.999999046	-9.91821E-05	2.38419E-05	7.24792E-05	-0.573730469	-5.563354492	8.21685791	-0.004959106	0.001192093	0.003623962	-0.450683594	0.067626953	-0.997558594	881.48	-34.19458325	2.916437671	153.5941911	-73
37152	0	-0.023668289	-0.222657204	0.329177856	0.999999046	7.15256E-05	1.71661E-05	0.000114441	-0.59170723	-5.566430092	8.229446411	0.003576279	0.000858307	0.005722046	-0.450683594	0.067382813	-1.003417969	881.42	-34.18886373	2.92993118	153.563998	-75
37153	0	-0.023498535	-0.222595215	0.329223633	0.999999046	1.52588E-05	5.81741E-05	3.43323E-05	-0.587463379	-5.564880371	8.23059082	0.000762939	0.002908707	0.001716614	-0.450683594	0.069824219	-1.003662109	881.44	-34.19005368	2.942156594	153.5303852	-73
37154	0	-0.024162292	-0.222827911	0.330020905	0.999999046	9.53674E-06	-4.3869E-05	6.77109E-05	-0.604057312	-5.570697784	8.250522614	0.000476837	-0.002193451	0.003385544	-0.453125	0.067626953	-1.000488281	881.44	-34.19135038	2.946890373	153.5090857	-72
37155	0	-0.023193359	-0.221862793	0.330078125	0.999999046	-0.0001297	-6.67572E-06	6.48499E-05	-0.579833984	-5.546569824	8.251953125	-0.006484985	-0.000333786	0.003242493	-0.450927734	0.069824219	-1.000732422	881.38	-34.20862587	2.954945476	153.4873177	-72
37156	0	-0.023767471	-0.22286129	0.329165459	0.999999046	-0.000161171	-0.000110626	6.38962E-05	-0.594186783	-5.571532249	8.229136467	-0.008058548	-0.005531311	0.003194809	-0.448486328	0.069580078	-1.000976563	881.44	-34.2291419	2.95309824	153.4668371	-72
37157	0	-0.023864746	-0.222900391	0.328796387	0.999999046	-0.000118256	-4.1008E-05	0.000114441	-0.596618652	-5.572509766	8.219909668	-0.005912781	-0.0020504	0.005722046	-0.450683594	0.069824219	-1.003662109	881.46	-34.24472198	2.96112247	153.4443651	-72
37158	0	-0.023583412	-0.223278999	0.32923317	0.999999046	-9.34601E-05	-0.000175476	-5.43594E-05	-0.589585304	-5.581974983	8.230829239	-0.004673004	-0.008773804	-0.002717972	-0.450927734	0.072021484	-1.000976563	881.5	-34.25777454	2.945518554	153.4248925	-70
37159	0	-0.024047852	-0.223083496	0.327880859	0.999999046	0.000118256	-4.86374E-05	4.57764E-05	-0.601196289	-5.577087402	8.197021484	0.005912781	-0.00243187	0.002288818	-0.450927734	0.072021484	-0.998046875	881.34	-34.24647752	2.948414086	153.4124821	-70
37160	0	-0.024036407	-0.223126411	0.328850746	0.999999046	4.1008E-05	-0.000179291	2.28882E-05	-0.600910187	-5.578160286	8.221268654	0.0020504	-0.008964539	0.001144409	-0.450927734	0.069824219	-1.000732422	881.38	-34.24373069	2.937483588	153.3949384	-70
37161	0	-0.022766113	-0.223022461	0.327575684	0.999999046	-0.000125885	3.91006E-05	-1.14441E-05	-0.569152832	-5.575561523	8.18939209	-0.006294251	0.001955032	-0.000572205	-0.450927734	0.069824219	-1.000732422	881.48	-34.26101494	2.944990915	153.3597409	-72
37162	0	-0.024189949	-0.222496033	0.329348564	0.999999046	-0.000135422	-3.62396E-05	0.000151634	-0.604748726	-5.562400818	8.233714104	-0.006771088	-0.001811981	0.007581711	-0.450683594	0.069824219	-1.003662109	881.48	-34.27830556	2.955917197	153.3382812	-73
37163	0	-0.023986816	-0.223632813	0.329406738	0.999999046	3.8147E-05	-0.000155449	0.000125885	-0.59967041	-5.590820313	8.235168457	0.001907349	-0.007772446	0.006294251	-0.448486328	0.069580078	-1.003662109	881.42	-34.27540884	2.95391139	153.3185348	-73
37164	0	-0.024001122	-0.223236084	0.329674721	0.999999046	0.00020504	-9.72748E-05	2.95639E-05	-0.600028038	-5.5809021	8.241868019	0.010251999	-0.004863739	0.001478195	-0.453125	0.069824219	-1.000488281	881.42	-34.25398151	2.951212712	153.2989461	-73
37165	0	-0.023376465	-0.22265625	0.328979492	0.999999046	3.05176E-05	-0.000208855	1.14441E-05	-0.584411621	-5.56640625	8.224487305	0.001525879	-0.010442734	0.000572205	-0.450927734	0.072021484	-1.000976563	881.42	-34.25220497	2.936763673	153.2869971	-73
37166	0	-0.023915291	-0.22330761	0.329856873	0.999999046	-6.48499E-05	-0.00012207	3.8147E-05	-0.597882271	-5.582690239	8.246421814	-0.003242493	-0.006103516	0.001907349	-0.450927734	0.072021484	-0.998046875	881.42	-34.2614562	2.932274078	153.2765145	-73
37167	0	-0.023986816	-0.222595215	0.329162598	0.999999046	0.000110626	-0.000121117	0.000125885	-0.59967041	-5.564880371	8.229064941	0.005531311	-0.006055832	0.006294251	-0.450927734	0.069824219	-0.997802734	881.44	-34.25014564	2.933560765	153.2685287	-73
37168	0	-0.024085045	-0.222517014	0.328362465	0.999999046	-8.58307E-06	-6.86646E-05	4.19617E-05	-0.602126122	-5.562925339	8.209061623	-0.000429153	-0.003433228	0.002098083	-0.453125	0.069824219	-1.000488281	881.34	-34.25307325	2.934434744	153.2465847	-75
37169	0	-0.024536133	-0.222961426	0.328125	0.999999046	0.000118256	-1.81198E-05	6.86646E-05	-0.61340332	-5.574035645	8.203125	0.005912781	-0.000905991	0.003433228	-0.450927734	0.072021484	-0.998046875	881.38	-34.24145448	2.941868645	153.2326478	-76
37170	0	-0.024798393	-0.222942352	0.328239441	0.999999046	0.000120163	-5.53131E-05	3.8147E-06	-0.619959831	-5.573558807	8.205986023	0.006008148	-0.002765656	0.000190735	-0.450927734	0.069824219	-1.000732422	881.38	-34.22985029	2.941663248	153.2043971	-77
37171	0	-0.023681641	-0.222290039	0.328796387	0.999999046	0.00012207	-5.62668E-05	3.05176E-05	-0.592041016	-5.557250977	8.219909668	0.006103516	-0.002813339	0.001525879	-0.450927734	0.072021484	-1.00390625	881.48	-34.21785199	2.943092636	153.1797762	-77
37172	0	-0.023840904	-0.222270012	0.328974724	0.999999046	0.000166893	-0.000238419	-5.34058E-05	-0.596022606	-5.556750298	8.224368095	0.00834465	-0.011920929	-0.002670288	-0.453125	0.069824219	-1.006347656	881.34	-34.20052533	2.9218673	153.1512324	-76
37173	0	-0.0234375	-0.222106934	0.329284668	0.999999046	0	-0.000113487	-3.43323E-05	-0.5859375	-5.55267334	8.232116699	0	-0.005674362	-0.001716614	-0.453369141	0.07421875	-1.00390625	881.38	-34.20252543	2.913702713	153.1335901	-75
37174	0	-0.024689674	-0.222902298	0.329228401	0.999999046	-4.3869E-05	9.53674E-06	-4.57764E-05	-0.617241859	-5.572557449	8.23071003	-0.002193451	0.000476837	-0.002288818	-0.453369141	0.072021484	-1.000732422	881.52	-34.20999848	2.916522334	153.1064971	-74
37175	0	-0.024353027	-0.22277832	0.330322266	0.999999046	4.95911E-05	-0.000212669	0	-0.608825684	-5.569458008	8.258056641	0.002479553	-0.010633469	0	-0.453125	0.069824219	-1.003417969	881.36	-34.20580478	2.901276712	153.0861319	-73
37176	0	-0.024334908	-0.22268486	0.329622269	0.999999046	-9.25064E-05	-0.000101089	-6.10352E-05	-0.608372688	-5.567121506	8.240556717	-0.00462532	-0.005054474	-0.003051758	-0.453125	0.069824219	-1.003417969	881.5	-34.21852004	2.892718699	153.0522585	-72
37177	0	-0.0234375	-0.222961426	0.329833984	0.999999046	6.48499E-05	-6.00815E-05	-6.48499E-05	-0.5859375	-5.574035645	8.245849609	0.003242493	-0.003004074	-0.003242493	-0.453125	0.067626953	-0.997558594	881.44	-34.21330071	2.887799944	153.0206199	-72
37178	0	-0.02318573	-0.222495079	0.329377174	0.999999046	-1.90735E-05	-1.14441E-05	7.15256E-05	-0.57964325	-5.562376976	8.234429359	-0.000953674	-0.000572205	0.003576279	-0.450927734	0.072021484	-1.00390625	881.38	-34.21716626	2.896269314	152.9968213	-72
37179	0	-0.024414063	-0.22265625	0.328796387	0.999999046	-8.01086E-05	2.00272E-05	8.7738E-05	-0.610351563	-5.56640625	8.219909668	-0.004005432	0.001001358	0.004386902	-0.450683594	0.069824219	-1.003662109	881.42	-34.22806396	2.908820132	152.9661285	-72
37180	0	-0.024283409	-0.223437309	0.328881264	0.999999046	0.000136375	-0.000112534	2.95639E-05	-0.607085228	-5.585932732	8.222031593	0.006818771	-0.005626678	0.001478195	-0.450683594	0.067626953	-0.997558594	881.48	-34.21398872	2.905098363	152.9442911	-72
37181	0	-0.024047852	-0.222839355	0.328857422	0.999999046	0.00025177	-0.000174522	-2.28882E-05	-0.601196289	-5.570983887	8.221435547	0.012588501	-0.00872612	-0.001144409	-0.453369141	0.069824219	-0.997802734	881.44	-34.18671033	2.892148028	152.9314332	-72
37182	0	-0.023067474	-0.221575737	0.330014229	0.999999046	3.05176E-05	-0.000118256	7.62939E-06	-0.576686859	-5.539393425	8.250355721	0.001525879	-0.005912781	0.00038147	-0.453125	0.069824219	-1.003417969	881.28	-34.18478584	2.886480747	152.9068042	-72
37183	0	-0.023681641	-0.222961426	0.328857422	0.999999046	-0.000133514	-7.53403E-05	-0.000106812	-0.592041016	-5.574035645	8.221435547	-0.00667572	-0.003767014	-0.005340576	-0.453125	0.069824219	-1.000488281	881.42	-34.20233479	2.877525464	152.873456	-72
37184	0	-0.023706436	-0.222139359	0.32861805	0.999999046	-4.1008E-05	-0.000131607	5.24521E-05	-0.592660904	-5.553483963	8.215451241	-0.0020504	-0.006580353	0.002622604	-0.453125	0.067626953	-1.000488281	881.38	-34.2083479	2.873518585	152.8518548	-72
37185	0	-0.024169922	-0.223327637	0.32989502	0.999999046	-0.000148773	-5.24521E-05	7.62939E-05	-0.604248047	-5.583190918	8.247375488	-0.00743866	-0.002622604	0.003814697	-0.455566406	0.069824219	-0.997558594	881.44	-34.22680127	2.878587367	152.8409393	-72
37186	0	-0.024047852	-0.223788261	0.329097748	0.999999046	7.05719E-05	-5.53131E-05	6.77109E-05	-0.601196289	-5.594706535	8.227443695	0.003528595	-0.002765656	0.003385544	-0.450683594	0.069824219	-1.003662109	881.38	-34.22021605	2.882869654	152.8125164	-72
37187	0	-0.023864746	-0.222900391	0.329833984	0.999999046	-5.72205E-05	-9.44138E-05	3.05176E-05	-0.596618652	-5.572509766	8.245849609	-0.002861023	-0.004720688	0.001525879	-0.453125	0.067626953	-0.997558594	881.42	-34.22827714	2.881069728	152.7906158	-72
37188	0	-0.023694038	-0.222632408	0.330849648	0.999999046	4.48227E-05	-0.000139236	2.19345E-05	-0.59235096	-5.565810204	8.271241188	0.002241135	-0.006961823	0.001096725	-0.450683594	0.069824219	-1.003662109	881.38	-34.22448615	2.87448246	152.7627816	-72
37189	0	-0.023376465	-0.222473145	0.33026123	0.999999046	2.28882E-05	-2.86102E-06	5.34058E-05	-0.584411621	-5.561828613	8.256530762	0.001144409	-0.000143051	0.002670288	-0.453125	0.067626953	-1.003417969	881.34	-34.223471	2.882845967	152.7263913	-72
37190	0	-0.023703575	-0.222700119	0.328805923	0.999999046	-0.000156403	-3.05176E-05	-2.28882E-05	-0.592589378	-5.567502975	8.220148087	-0.007820129	-0.001525879	-0.001144409	-0.450927734	0.069824219	-1.000732422	881.42	-34.24321876	2.883681085	152.6929846	-72
37191	0	-0.023620605	-0.223144531	0.328857422	0.999999046	-0.000267029	-2.19345E-05	3.43323E-05	-0.590515137	-5.578613281	8.221435547	-0.013351441	-0.001096725	0.001716614	-0.450927734	0.069824219	-1.000732422	881.42	-34.27541034	2.889027082	152.6629659	-72
37192	0	-0.023560524	-0.223441124	0.32831192	1	-4.3869E-05	-1.43051E-05	-8.58307E-06	-0.5890131	-5.586028099	8.207798004	-0.002193451	-0.000715256	-0.000429153	-0.453369141	0.069824219	-0.997802734	881.44	-34.28226256	2.89232797	152.6366597	-72
37193	0	-0.02355957	-0.222595215	0.328063965	0.999999046	0.000110626	-6.00815E-05	-9.91821E-05	-0.588989258	-5.564880371	8.201599121	0.005531311	-0.003004074	-0.004959106	-0.450927734	0.072021484	-1.000976563	881.42	-34.27167548	2.88545218	152.6031661	-72
37194	0	-0.023902893	-0.222710609	0.328603745	0.999999046	-0.000162125	-4.76837E-05	-9.15527E-05	-0.597572327	-5.567765236	8.215093613	-0.008106232	-0.002384186	-0.004577637	-0.453125	0.069824219	-1.000488281	881.44	-34.29236149	2.880268686	152.5658119	-72
37195	0	-0.022766113	-0.222717285	0.329650879	0.999999046	7.62939E-06	-6.00815E-05	5.72205E-05	-0.569152832	-5.567932129	8.241271973	0.00038147	-0.003004074	0.002861023	-0.453369141	0.069824219	-0.994873047	881.38	-34.29274443	2.883474112	152.5542769	-72
37196	0	-0.02336216	-0.222160339	0.329961777	0.999999046	-0.000132561	-2.67029E-05	3.43323E-05	-0.584053993	-5.554008484	8.249044418	-0.006628037	-0.001335144	0.001716614	-0.453125	0.069824219	-1.003417969	881.44	-34.30940287	2.888364572	152.5208442	-72
37197	0	-0.023925781	-0.223571777	0.327880859	0.999999046	-9.15527E-05	-2.57492E-05	4.95911E-05	-0.598144531	-5.589294434	8.197021484	-0.004577637	-0.00128746	0.002479553	-0.450683594	0.069824219	-1.003662109	881.44	-34.3213222	2.894355623	152.4852712	-72
37198	0	-0.023564339	-0.223263741	0.328939438	0.999999046	0.000246048	-8.58307E-05	-2.38419E-05	-0.589108467	-5.581593513	8.223485947	0.012302399	-0.004291534	-0.001192093	-0.450683594	0.069824219	-1.003662109	881.42	-34.29468594	2.889918158	152.4483498	-72
37199	0	-0.023498535	-0.222290039	0.329345703	0.999999046	8.01086E-05	-7.9155E-05	-3.05176E-05	-0.587463379	-5.557250977	8.233642578	0.004005432	-0.003957748	-0.001525879	-0.450683594	0.067382813	-1.003417969	881.44	-34.2870848	2.885686527	152.4044572	-72
37200	0	-0.023127556	-0.223032951	0.328225136	0.999999046	-2.19345E-05	1.52588E-05	6.77109E-05	-0.578188896	-5.575823784	8.205628395	-0.001096725	0.000762939	0.003385544	-0.453125	0.069824219	-1.000488281	881.48	-34.29097244	2.896714285	152.3794822	-72
37201	0	-0.023193359	-0.222839355	0.329284668	0.999999046	0.000110626	-0.000124931	7.62939E-06	-0.579833984	-5.570983887	8.232116699	0.005531311	-0.006246567	0.00038147	-0.453125	0.067626953	-0.997558594	881.44	-34.27946633	2.890572858	152.3574945	-72
37202	0	-0.02329731	-0.222583771	0.328728676	1	3.14713E-05	-5.24521E-05	4.57764E-05	-0.582432747	-5.564594269	8.218216896	0.001573563	-0.002622604	0.002288818	-0.453369141	0.069824219	-0.997802734	881.44	-34.27703558	2.893744995	152.3407589	-72
37203	0	-0.023803711	-0.222595215	0.329223633	0.999999046	-4.19617E-05	-7.53403E-05	3.43323E-05	-0.595092773	-5.564880371	8.23059082	-0.002098083	-0.003767014	0.001716614	-0.453369141	0.069824219	-0.997802734	881.44	-34.28296602	2.894026945	152.3238841	-72
37204	0	-0.023403168	-0.22359848	0.328352928	0.999999046	0.000142097	-3.24249E-05	0.000136375	-0.585079193	-5.589962006	8.208823204	0.007104874	-0.001621246	0.006818771	-0.450683594	0.067382813	-1.003417969	881.44	-34.26755942	2.904962361	152.2936404	-72
37205	0	-0.0234375	-0.222290039	0.328552246	0.999999046	0.00012207	-0.000132561	1.52588E-05	-0.5859375	-5.557250977	8.213806152	0.006103516	-0.006628037	0.000762939	-0.450683594	0.067382813	-1.003417969	881.44	-34.25467232	2.898593387	152.2591757	-72
37206	0	-0.023234367	-0.222942352	0.32958889	0.999999046	-6.48499E-05	-6.48499E-05	2.67029E-05	-0.580859184	-5.573558807	8.239722252	-0.003242493	-0.003242493	0.001335144	-0.450927734	0.069824219	-1.000732422	881.38	-34.26329471	2.899352557	152.2338748	-72
37207	0	-0.023742676	-0.222839355	0.329223633	0.999999046	9.53674E-05	-7.15256E-05	4.95911E-05	-0.593566895	-5.570983887	8.23059082	0.004768372	-0.003576279	0.002479553	-0.453125	0.069824219	-1.000488281	881.44	-34.25340881	2.900966623	152.2144423	-72
37208	0	-0.02347374	-0.222286224	0.328230858	0.999999046	-0.000132561	3.8147E-06	8.39233E-05	-0.586843491	-5.557155609	8.205771446	-0.006628037	0.000190735	0.004196167	-0.453125	0.067626953	-1.000488281	881.44	-34.26974692	2.911934278	152.1861625	-72
37209	0	-0.024291992	-0.222900391	0.328674316	0.999999046	-6.86646E-05	-1.43051E-05	9.53674E-05	-0.607299805	-5.572509766	8.21685791	-0.003433228	-0.000715256	0.004768372	-0.450683594	0.067626953	-0.997558594	881.44	-34.27861496	2.921955832	152.162907	-72
37210	0	-0.02383709	-0.223002434	0.329315186	0.999999046	1.71661E-05	-9.72748E-05	8.67844E-05	-0.595927238	-5.575060844	8.232879639	0.000858307	-0.004863739	0.004339218	-0.450927734	0.069824219	-1.000732422	881.38	-34.27739724	2.923573239	152.1446189	-72
37211	0	-0.024108887	-0.222595215	0.328369141	0.999999046	0.000110626	-0.000144005	3.05176E-05	-0.602722168	-5.564880371	8.209228516	0.005531311	-0.007200241	0.001525879	-0.453369141	0.069824219	-0.997802734	881.34	-34.26555629	2.91715228	152.1325998	-72
37212	0	-0.023722649	-0.223620415	0.329035759	0.999999046	9.44138E-05	-0.000232697	4.19617E-05	-0.593066216	-5.590510368	8.225893974	0.004720688	-0.011634827	0.002098084	-0.453369141	0.069824219	-0.997802734	881.42	-34.25524603	2.90306938	152.1270777	-72
37213	0	-0.022949219	-0.222839355	0.33001709	0.999999046	-4.57764E-05	-0.000109673	4.95911E-05	-0.573730469	-5.570983887	8.250427246	-0.002288818	-0.005483627	0.002479553	-0.453369141	0.072021484	-1.000732422	881.44	-34.26132951	2.901095002	152.1144064	-72
37214	0	-0.023571014	-0.22244072	0.328170776	0.999999046	-0.000114441	2.67029E-05	0.000106812	-0.58927536	-5.56101799	8.204269409	-0.005722046	0.001335144	0.005340576	-0.453369141	0.072021484	-1.003662109	881.5	-34.27548139	2.915735711	152.0919459	-72
37215	0	-0.024047852	-0.223937988	0.32824707	0.999999046	0.000152588	-0.000105858	0.000183105	-0.601196289	-5.598449707	8.206176758	0.007629395	-0.005292893	0.009155274	-0.450927734	0.069824219	-0.997802734	881.38	-34.25824752	2.92276075	152.0879668	-72
37216	0	-0.023266792	-0.222548485	0.327831268	0.999999046	0.000159264	-0.000169754	1.52588E-05	-0.581669807	-5.56371212	8.195781708	0.007963181	-0.008487701	0.000762939	-0.455566406	0.069824219	-0.997558594	881.38	-34.24086683	2.912884573	152.0780006	-72
37217	0	-0.023681641	-0.223144531	0.329345703	0.999999046	-1.90735E-05	-5.62668E-05	5.72205E-05	-0.592041016	-5.578613281	8.233642578	-0.000953674	-0.002813339	0.002861023	-0.453125	0.069824219	-1.006347656	881.44	-34.24416751	2.916476289	152.0448145	-72
37218	0	-0.024097443	-0.222605705	0.330559731	0.999999046	0.000192642	-0.000120163	-8.58307E-06	-0.602436066	-5.565142632	8.263993263	0.009632111	-0.006008148	-0.000429153	-0.450927734	0.069824219	-1.000732422	881.38	-34.22319071	2.909781957	152.0193344	-72
37219	0	-0.024230957	-0.223022461	0.329101563	0.999999046	-4.19617E-05	-0.000155449	4.95911E-05	-0.605773926	-5.575561523	8.227539063	-0.002098084	-0.007772446	0.002479553	-0.453125	0.067626953	-1.003417969	881.4	-34.22877363	2.903533753	151.991687	-72
37220	0	-0.023479462	-0.222254753	0.329334259	0.999999046	0.000180244	-0.000116348	0.000212669	-0.586986542	-5.556368828	8.233356476	0.009012222	-0.005817413	0.010633469	-0.450927734	0.069824219	-0.997802734	881.38	-34.20811117	2.911478765	151.9926655	-73
37221	0	-0.023986816	-0.223815918	0.32800293	0.999999046	-3.8147E-06	-5.24521E-05	0.000118256	-0.59967041	-5.595397949	8.200073242	-0.000190735	-0.002622604	0.005912781	-0.450683594	0.069824219	-1.003662109	881.44	-34.20933725	2.919419826	151.9687165	-73
37222	0	-0.023943901	-0.223385811	0.329101563	0.999999046	0.000291824	-3.62396E-05	0.000105858	-0.598597527	-5.584645271	8.227539063	0.014591217	-0.001811981	0.005292893	-0.450683594	0.069824219	-1.003662109	881.44	-34.17681749	2.928107209	151.9444269	-73
37223	0	-0.02355957	-0.222595215	0.329345703	0.999999046	0.000144958	-5.24521E-05	5.34058E-05	-0.588989258	-5.564880371	8.233642578	0.007247925	-0.002622604	0.002670288	-0.450683594	0.069580078	-1.006591797	881.34	-34.16135313	2.931872637	151.9108586	-72
37224	0	-0.023365974	-0.222558975	0.32929039	0.999999046	8.67844E-05	-0.0001297	7.24792E-05	-0.584149361	-5.56397438	8.23225975	0.004339218	-0.006484985	0.003623962	-0.453125	0.069824219	-1.003417969	881.44	-34.15218358	2.929513644	151.8938031	-73
37225	0	-0.024230957	-0.22265625	0.328735352	0.999999046	8.7738E-05	-0.000117302	2.28882E-05	-0.605773926	-5.56640625	8.218383789	0.004386902	-0.005865097	0.001144409	-0.450683594	0.067626953	-1.000488281	881.44	-34.14320527	2.925162796	151.8683271	-72
37226	0	-0.023614883	-0.2222929	0.328107834	1	-3.91006E-05	-2.00272E-05	-2.28882E-05	-0.590372086	-5.557322502	8.202695847	-0.001955032	-0.001001358	-0.001144409	-0.453125	0.069824219	-1.003417969	881.38	-34.14934144	2.927089765	151.8356613	-72
37227	0	-0.023925781	-0.223144531	0.328552246	0.999999046	3.43323E-05	-0.000132561	2.28882E-05	-0.598144531	-5.578613281	8.213806152	0.001716614	-0.006628037	0.001144409	-0.453125	0.069824219	-1.000488281	881.44	-34.14649474	2.921293644	151.820183	-72
37228	0	-0.023543358	-0.222389221	0.330221176	0.999999046	8.58307E-06	-6.86646E-05	0.000109673	-0.588583946	-5.55973053	8.255529404	0.000429153	-0.003433228	0.005483627	-0.453125	0.067626953	-1.006347656	881.38	-34.14644686	2.927141858	151.7908512	-73
37229	0	-0.024047852	-0.222473145	0.330200195	0.999999046	3.8147E-06	-0.000117302	-3.43323E-05	-0.601196289	-5.561828613	8.255004883	0.000190735	-0.005865097	-0.001716614	-0.453125	0.069824219	-1.000488281	881.44	-34.14737286	2.919113137	151.7689111	-72
37230	0	-0.022612572	-0.222839355	0.328680992	0.999999046	-6.48499E-05	-6.67572E-05	1.52588E-05	-0.565314293	-5.570983887	8.217024803	-0.003242493	-0.00333786	0.000762939	-0.450683594	0.069824219	-1.003662109	881.28	-34.15615472	2.919017051	151.7393849	-73
37231	0	-0.023925781	-0.22277832	0.33013916	0.999999046	6.48499E-05	3.14713E-05	0.000133514	-0.598144531	-5.569458008	8.253479004	0.003242493	0.001573563	0.00667572	-0.453125	0.067626953	-1.000488281	881.48	-34.14981888	2.935854608	151.7174825	-73
37232	0	-0.024860382	-0.222058296	0.329311371	0.999999046	-0.000201225	1.52588E-05	-2.38419E-05	-0.621509552	-5.551457405	8.232784271	-0.010061264	0.000762939	-0.001192093	-0.453125	0.067626953	-1.000488281	881.38	-34.17467371	2.941084948	151.6809009	-72
37233	0	-0.024169922	-0.223205566	0.328552246	0.999999046	4.95911E-05	-6.67572E-06	-3.43323E-05	-0.604248047	-5.58013916	8.213806152	0.002479553	-0.000333786	-0.001716614	-0.453125	0.069824219	-1.006347656	881.38	-34.17083626	2.943578926	151.6406124	-72
37234	0	-0.022990227	-0.222320557	0.329001427	0.999999046	7.24792E-05	-8.7738E-05	-1.90735E-05	-0.574755669	-5.558013916	8.225035667	0.003623962	-0.004386902	-0.000953674	-0.450683594	0.067382813	-1.003417969	881.48	-34.16402517	2.939324663	151.6036816	-72
37235	0	-0.023681641	-0.222106934	0.329223633	0.999999046	-3.8147E-06	-9.05991E-05	0.000102997	-0.592041016	-5.55267334	8.23059082	-0.000190735	-0.004529953	0.005149841	-0.453125	0.069824219	-1.000488281	881.38	-34.1652822	2.942638008	151.5936033	-72
37236	0	-0.022873878	-0.222227097	0.329164505	0.999999046	0.000136375	1.90735E-06	-9.53674E-07	-0.571846962	-5.555677414	8.229112625	0.006818771	9.53674E-05	-4.76837E-05	-0.453125	0.067626953	-1.000488281	881.44	-34.15130338	2.947988974	151.5623196	-73
37237	0	-0.02331543	-0.222167969	0.329101563	0.999999046	4.19617E-05	-0.000220299	3.8147E-05	-0.582885742	-5.554199219	8.227539063	0.002098084	-0.011014938	0.001907349	-0.455566406	0.067626953	-1.000244141	881.44	-34.14721687	2.934757092	151.5515805	-72
37238	0	-0.02385807	-0.222322464	0.329801559	0.999999046	-0.000102997	-2.67029E-05	6.10352E-05	-0.596451759	-5.5580616	8.245038986	-0.005149841	-0.001335144	0.003051758	-0.453125	0.065429688	-1.000244141	881.38	-34.16027664	2.941365265	151.521126	-73
37239	0	-0.02355957	-0.222351074	0.330566406	0.999999046	-2.67029E-05	-9.82285E-05	-4.57764E-05	-0.588989258	-5.558776855	8.264160156	-0.001335144	-0.004911423	-0.002288818	-0.453125	0.067626953	-0.997558594	881.44	-34.16477872	2.93429288	151.496693	-73
37240	0	-0.023656845	-0.221821785	0.330863953	0.999999046	9.05991E-05	-4.19617E-05	-7.72476E-05	-0.591421127	-5.545544624	8.271598816	0.004529953	-0.002098084	-0.003862381	-0.453125	0.067626953	-0.997558594	881.48	-34.15610014	2.9305226	151.4664456	-72
37241	0	-0.023681641	-0.222473145	0.329833984	0.999999046	0.000125885	-0.000124931	7.24792E-05	-0.592041016	-5.561828613	8.245849609	0.006294251	-0.006246567	0.003623962	-0.453125	0.067626953	-0.997558594	881.32	-34.14236343	2.928513979	151.456068	-73
37242	0	-0.022959709	-0.221349716	0.329650879	0.999999046	2.28882E-05	-0.000118256	9.53674E-05	-0.573992729	-5.533742905	8.241271973	0.001144409	-0.005912781	0.004768372	-0.452880859	0.065429688	-1.003173828	881.38	-34.14037391	2.928586962	151.4298962	-73
37243	0	-0.022888184	-0.221252441	0.328552246	0.999999046	-6.10352E-05	-0.00014782	-3.8147E-06	-0.57220459	-5.531311035	8.213806152	-0.003051758	-0.007390976	-0.000190735	-0.450927734	0.069824219	-0.997802734	881.34	-34.14824859	2.919418971	151.4168554	-73
37244	0	-0.023582458	-0.222208977	0.329446793	0.999999046	7.9155E-05	-0.000106812	-1.23978E-05	-0.589561462	-5.555224419	8.236169815	0.003957748	-0.005340576	-0.000619888	-0.453125	0.067626953	-0.997558594	881.32	-34.14026054	2.913592806	151.3969203	-73
37245	0	-0.023742676	-0.221862793	0.329528809	0.999999046	-9.91821E-05	-8.67844E-05	-7.62939E-05	-0.593566895	-5.546569824	8.238220215	-0.004959106	-0.004339218	-0.003814697	-0.453125	0.067626953	-1.000488281	881.38	-34.15309056	2.905570933	151.3636046	-73
37246	0	-0.023895264	-0.222664833	0.329305649	0.999999046	-4.76837E-05	-3.8147E-05	-8.86917E-05	-0.597381592	-5.566620827	8.23264122	-0.002384186	-0.001907349	-0.004434586	-0.455566406	0.067626953	-1.000244141	881.42	-34.16025775	2.901382259	151.3290071	-73
37247	0	-0.022705078	-0.222290039	0.329162598	0.999999046	0.000141144	-4.48227E-05	4.95911E-05	-0.567626953	-5.557250977	8.229064941	0.00705719	-0.002241135	0.002479553	-0.453125	0.069824219	-1.003417969	881.42	-34.14508959	2.905416262	151.3067188	-73
37248	0	-0.0233078	-0.221645355	0.330203056	0.999999046	0.000187874	-9.15527E-05	0.00018692	-0.582695007	-5.541133881	8.255076408	0.009393692	-0.004577637	0.009346008	-0.453125	0.069824219	-1.003417969	881.38	-34.1236964	2.913836753	151.3011564	-73
37249	0	-0.023681641	-0.221008301	0.330871582	0.999999046	-0.000354767	6.58035E-05	0.000267029	-0.592041016	-5.52520752	8.271789551	-0.017738343	0.003290177	0.013351441	-0.453125	0.069824219	-1.003417969	881.32	-34.1645321	2.942342632	151.2908738	-73
37250	0	-0.025003433	-0.222693443	0.328573227	0.999999046	0.000139236	-2.86102E-05	0.000132561	-0.625085831	-5.567336082	8.214330673	0.006961823	-0.001430511	0.006628037	-0.453125	0.067626953	-1.000488281	881.44	-34.14913264	2.953311902	151.2739046	-73
37251	0	-0.021972656	-0.222961426	0.32989502	0.999999046	0.0001297	0.000123024	0.000263214	-0.549316406	-5.574035645	8.247375488	0.006484985	0.006151199	0.013160706	-0.455566406	0.069824219	-1.000488281	881.42	-34.13467746	2.986960803	151.2691461	-72
37252	0	-0.023817062	-0.218896866	0.329091072	0.999999046	-0.000126839	8.01086E-05	0.000224113	-0.595426559	-5.472421646	8.227276802	-0.006341934	0.004005432	0.011205673	-0.453125	0.067626953	-0.997558594	881.42	-34.14953414	3.014018069	151.2594119	-72
37253	0	-0.024291992	-0.221130371	0.32989502	0.999999046	-7.62939E-06	0.000149727	0.000476837	-0.607299805	-5.528259277	8.247375488	-0.00038147	0.007486344	0.023841859	-0.450683594	0.069824219	-1.003662109	881.48	-34.14965322	3.063943382	151.2613299	-72
37254	0	-0.023868561	-0.220991135	0.328845978	0.999999046	0.000581741	1.90735E-06	0.001056671	-0.59671402	-5.524778366	8.221149445	0.029087074	9.53675E-05	0.05283357	-0.450927734	0.069824219	-1.000732422	881.44	-34.07863859	3.137051191	151.3349225	-72
37255	0	-0.02532959	-0.215148926	0.330627441	0.999997139	-0.001132965	0.000542641	0.001594543	-0.633239746	-5.378723145	8.265686035	-0.056648293	0.027132053	0.079727228	-0.450927734	0.069824219	-1.000732422	881.42	-34.2027496	3.296104255	151.4165914	-71
37256	0	-0.027141571	-0.226312637	0.330513	0.999996185	-0.00060463	0.000185966	0.002459526	-0.678539276	-5.657815933	8.262825012	-0.030231508	0.009298335	0.122976435	-0.451171875	0.076416016	-1.004150391	881.44	-34.25990365	3.477328489	151.6073106	-70
37257	0	-0.026062012	-0.220703125	0.327087402	0.999993324	-0.000385284	0.00118351	0.003166199	-0.651550293	-5.517578125	8.177185059	-0.019264258	0.059175605	0.158310242	-0.448730469	0.078613281	-1.004394531	881.42	-34.29079041	3.798713455	151.7987214	-70
37258	0	-0.029123306	-0.215714455	0.329418182	0.999987602	0.001451492	0.000232697	0.004570961	-0.728082657	-5.392861366	8.235454559	0.072574894	0.011634871	0.228548928	-0.444091797	0.080566406	-1.004882813	881.5	-34.09612218	4.120100419	152.1849937	-69
37259	0	-0.033447266	-0.219665527	0.330200195	0.99998951	-0.00239563	0.000981331	0.003608704	-0.836181641	-5.491638184	8.255004883	-0.119781888	0.049066705	0.180435774	-0.444335938	0.085205078	-1.002441406	881.42	-34.35031193	4.450689011	152.4303937	-69
37260	0	-0.033587456	-0.244609833	0.324328423	0.99998951	0.003085136	-0.000339508	0.003129959	-0.839686394	-6.115245819	8.108210564	0.15425732	-0.016975458	0.156498462	-0.439697266	0.091552734	-1.009033203	881.44	-33.97299768	4.624850235	152.7279853	-69
37261	0	-0.034362793	-0.231201172	0.330749512	0.999972343	0.006847382	-0.000254631	0.002723694	-0.859069824	-5.780029297	8.268737793	0.342372182	-0.012731667	0.136185926	-0.439453125	0.084960938	-1.005615234	881.38	-33.1674192	4.778046759	153.0042932	-70
37262	0	-0.032347679	-0.218597412	0.329823494	0.999954224	0.008267403	-0.000115395	0.004724503	-0.808691978	-5.464935303	8.245587349	0.41337638	-0.005769817	0.236228699	-0.438964844	0.073730469	-1.007568359	881.38	-32.18212266	5.064032444	153.4698236	-71
37263	0	-0.041320801	-0.20880127	0.333862305	0.99996376	0.007599831	-0.000125885	0.003768921	-1.03302002	-5.220031738	8.346557617	0.37999609	-0.006294326	0.188448306	-0.438476563	0.0625	-1.003662109	881.34	-31.2791555	5.28401317	153.8567288	-72
37264	0	-0.040255547	-0.215200424	0.332117081	0.999950409	0.00951767	-0.001128197	0.002342224	-1.006388664	-5.380010605	8.302927017	0.475891205	-0.056410751	0.117113106	-0.440185547	0.049316406	-1.011230469	881.44	-30.16345224	5.315259221	154.1631601	-72
37265	0	-0.041259766	-0.211730957	0.332946777	0.999879837	0.015271187	-0.001296997	0.002044678	-1.031494141	-5.293273926	8.323669434	0.763589769	-0.064852438	0.102237961	-0.444091797	0.027099609	-1.006347656	881.38	-28.39084944	5.30570841	154.4773823	-73
37266	0	-0.046345711	-0.197621346	0.339017868	0.999762535	0.021648407	-0.001703262	0.001585007	-1.158642769	-4.940533638	8.475446701	1.082505891	-0.085169847	0.079256599	-0.445068359	-0.001953125	-1.012451172	881.44	-25.89049146	5.220982453	154.7901438	-75
37267	0	-0.04309082	-0.170837402	0.360351563	0.999687195	0.024777412	-0.003181458	0.000892639	-1.077270508	-4.270935059	9.008789063	1.238999673	-0.159089446	0.044636607	-0.447998047	-0.048583984	-1.005615234	881.38	-23.03256137	4.938117291	155.1015584	-79
37268	0	-0.032711029	-0.155823708	0.37729454	0.999770164	0.020939827	-0.002960205	0.003322601	-0.817775726	-3.89559269	9.43236351	1.047071334	-0.148021561	0.166142758	-0.455566406	-0.092773438	-1.004394531	881.38	-20.59527289	4.771380231	155.626706	-82
37269	0	-0.036621094	-0.152160645	0.371459961	0.999751091	0.02155304	-0.002547264	0.004989624	-0.915527344	-3.804016113	9.286499023	1.077741069	-0.127373734	0.249501826	-0.461425781	-0.130371094	-0.995117188	881.44	-18.07625768	4.692299052	156.3114089	-83
37270	0	-0.04053688	-0.116782188	0.365146637	0.999697685	0.023672104	-0.003829956	0.005399704	-1.013422012	-2.91955471	9.128665924	1.183724414	-0.191517092	0.270012394	-0.469482422	-0.170166016	-0.985351563	881.36	-15.30922962	4.457324372	157.081247	-81
37271	0	-0.044006348	-0.096313477	0.368591309	0.999709129	0.022544861	-0.006545067	0.005512238	-1.100158691	-2.407836914	9.214782715	1.127352318	-0.327285066	0.275638596	-0.479736328	-0.209716797	-0.972900391	881.42	-12.67054924	3.890850281	157.9162533	-81
37272	0	-0.04973793	-0.060016632	0.377192497	0.999732018	0.018754005	-0.013206482	0.002991676	-1.243448257	-1.500415802	9.429812431	0.937783915	-0.660382998	0.149597159	-0.497558594	-0.246826172	-0.951416016	881.38	-10.48716331	2.486991459	158.5730152	-81
37273	0	-0.020874023	-0.112915039	0.449035645	0.999786377	0.012681007	-0.016124725	0.002490997	-0.521850586	-2.822875977	11.22589111	0.634095503	-0.806293658	0.124558732	-0.525634766	-0.272460938	-0.930175781	881.44	-9.020050982	0.72423136	159.164182	-91
37274	0	-0.008340836	-0.099796295	0.501198769	0.999519348	0.021054268	-0.022740364	0.00026989	-0.208520889	-2.494907379	12.52996922	1.052881985	-1.137200296	0.013496653	-0.558105469	-0.300292969	-0.908691406	881.44	-6.613824203	-1.843308931	159.5631884	-88
37275	0	0.032958984	-0.27734375	0.590087891	0.997675896	0.064540863	-0.021716118	0.00233078	0.823974609	-6.93359375	14.75219727	3.229545332	-1.086647804	0.116629363	-0.600341797	-0.333984375	-0.860107422	881.48	0.755250434	-4.305524815	160.2335285	-82
37276	0	-0.047891617	-0.009514809	0.5166502	0.994703293	0.100940704	-0.019146919	0.003090858	-1.197290421	-0.237870216	12.916255	5.05596488	-0.959039784	0.154816354	-0.638427734	-0.492431641	-0.754882813	881.44	12.32168157	-6.510787942	160.6157643	-76
37277	0	-0.021911621	-0.101806641	0.560852051	0.997851372	0.063186646	-0.011725426	0.012691498	-0.547790527	-2.545166016	14.02130127	3.161596158	-0.58669139	0.635029607	-0.669677734	-0.579833984	-0.664550781	881.42	19.41156693	-8.180791102	161.8779143	-71
37278	0	0.012321472	0.065300941	0.411808968	0.998230934	0.056018829	-0.017757416	0.008986473	0.308036804	1.632523537	10.29522419	2.802593941	-0.888394606	0.449588742	-0.699462891	-0.649169922	-0.558349609	881.44	25.78071682	-10.43211185	162.1972769	-81
37279	0	0.067016602	0.056945801	0.387145996	0.999410629	0.028634071	-0.01865387	0.003154755	1.675415039	1.42364502	9.678649902	1.431984767	-0.932876671	0.157768713	-0.733154297	-0.676513672	-0.481689453	881.38	29.16509636	-12.47244398	161.6512777	-75
37280	0	0.152951241	0.128534317	0.310284615	0.998781204	0.045928955	-0.014584541	-0.010665894	3.823781013	3.213357925	7.757115364	2.297381112	-0.72952345	-0.533511428	-0.747558594	-0.699951172	-0.420898438	881.44	34.83614798	-13.22399301	160.0221441	-72
37281	0	0.159790039	0.129943848	0.397338867	0.999304771	0.036506653	0.003193855	-0.006774902	3.994750977	3.248596191	9.93347168	1.82575542	0.159729752	-0.338823576	-0.741943359	-0.748779297	-0.34765625	881.38	39.07235911	-12.45030134	159.8566525	-71
37282	0	0.128911018	0.210079193	0.370656967	0.998685837	0.046740532	0.01847744	0.009970665	3.222775459	5.251979828	9.266424179	2.338050453	0.924276745	0.498751657	-0.736816406	-0.775390625	-0.307861328	881.38	43.90791544	-11.60744904	162.3510122	-66
37283	0	0.125488281	0.250610352	0.287719727	0.997834206	0.061050415	0.023118019	0.008075714	3.137207031	6.265258789	7.192993164	3.05472633	1.156736144	0.404077458	-0.741943359	-0.779296875	-0.278320313	881.38	50.36762092	-10.47049733	165.3430905	-66
37284	0	0.014594078	0.204532623	0.064407349	0.983119011	0.182951927	-3.62396E-05	-0.001965523	0.364851952	5.113315582	1.610183716	9.199417221	-0.001822246	-0.09883287	-0.730224609	-0.816894531	-0.171386719	881.38	71.44119135	-10.26123044	166.4858437	-61
37285	0	0.164001465	0.630554199	-0.025695801	0.999782562	0.011532784	0.016841888	-0.004264832	4.100036621	15.76385498	-0.64239502	0.576680975	0.842155463	-0.213257035	-0.739746094	-0.825439453	0.108398438	881.34	72.4484371	-9.184645901	168.0594641	-63
37286	0	0.041922569	0.172385216	0.249687195	0.994727135	-0.092189789	0.044902802	-0.001536369	1.048064232	4.309630394	6.242179871	-4.617608036	2.249094393	-0.076953765	-0.734130859	-0.833496094	-0.047851563	881.32	61.16092292	-6.979337324	172.5073458	-64
37287	0	-0.033691406	0.11907959	0.270812988	0.999566078	0.01058197	0.026585579	0.006908417	-0.842285156	2.976989746	6.770324707	0.529174951	1.32947099	0.345470741	-0.722167969	-0.817382813	-0.215332031	881.34	61.98004008	-6.205433536	175.7039881	-63
37288	0	-0.008481979	0.221791267	0.169370651	0.999261856	0.028802872	0.023779869	0.008964539	-0.212049484	5.544781685	4.234266281	1.440497964	1.189286032	0.448337225	-0.722412109	-0.817382813	-0.212402344	881.44	64.93354063	-5.883415389	178.6494921	-63
37289	0	0.002441406	0.186157227	0.259399414	0.99916935	0.024215698	0.027962685	0.017063141	0.061035156	4.653930664	6.484985352	1.211120038	1.398521213	0.853393184	-0.727294922	-0.810546875	-0.221435547	881.38	67.26338187	-6.346560132	-177.5969221	-64
37290	0	0.063634872	0.160517693	0.325880051	0.998672485	0.020049095	0.037274361	0.0293293	1.590871811	4.012942314	8.147001266	1.002898297	1.864542641	1.467113839	-0.747070313	-0.790039063	-0.230712891	881.34	68.85588153	-7.84168274	-172.3398822	-67
37291	0	0.119140625	0.015563965	0.35949707	0.996956825	0.022972107	0.055836678	0.049293518	2.978515625	0.389099121	8.987426758	1.149771559	2.794668507	2.46717836	-0.771728516	-0.747314453	-0.291015625	881.32	70.10770549	-10.86781205	-164.247487	-66
37292	0	0.199501038	-0.048410416	0.257749557	0.993699074	0.03435421	0.065473557	0.084220886	4.98752594	-1.210260391	6.443738937	1.721326757	3.280569836	4.21990974	-0.809326172	-0.672851563	-0.358886719	881.32	71.37690793	-17.50589131	-153.6217004	-69
37293	0	0.280456543	-0.221801758	0.244934082	0.989338875	0.04542923	0.06923008	0.119792938	7.011413574	-5.545043945	6.123352051	2.279567553	3.473856902	6.011021905	-0.866210938	-0.53125	-0.445800781	881.44	71.49821886	-28.045478	-140.638448	-58
37294	0	0.349912643	-0.263677597	0.111322403	0.985814095	0.05745697	0.065126419	0.143622398	8.747816086	-6.591939926	2.783060074	2.886510511	3.271806579	7.215270157	-0.898925781	-0.345947266	-0.540771484	881.28	69.28185828	-41.1609591	-125.231613	-58
37295	0	0.46661377	-0.373779297	0.007385254	0.983317375	0.061988831	0.052987099	0.162590027	11.66534424	-9.344482422	0.184631348	3.116792352	2.664186152	8.175010685	-0.882080078	-0.140136719	-0.643066406	881.48	61.03983713	-55.76090931	-104.8381906	-63
37296	0	0.604515076	-0.481858253	-0.015532494	0.982417107	0.054610252	0.044176102	0.172979355	15.11287689	-12.04645634	-0.38831234	2.746629013	2.221842187	8.700016829	-0.812988281	0.064208984	-0.733642578	881.44	34.56511141	-67.64149863	-67.98254848	-73
37297	0	0.588684082	-0.49786377	-0.048950195	0.983042717	0.064598083	0.037777901	0.16740799	14.71710205	-12.44659424	-1.223754883	3.248284883	1.899644341	8.418033666	-0.682861328	0.239501953	-0.827880859	881.34	-8.330518442	-67.72366718	-14.04616054	-79
37298	0	0.564663887	-0.420269966	-0.032613754	0.988265991	-0.003970146	0.03826046	0.147818565	14.11659718	-10.50674915	-0.815343857	-0.199287388	1.920540646	7.41997257	-0.518798828	0.337890625	-0.917724609	881.38	-36.08522021	-56.77526499	16.63114648	-64
37299	0	0.606872559	-0.493713379	0.049560547	0.987678528	-0.079577446	0.035980225	0.12985611	15.17181396	-12.34283447	1.239013672	-3.995294195	1.806436243	6.519603067	-0.325927734	0.516113281	-0.934570313	881.5	-54.39753772	-43.11716177	28.56816859	-66
37300	0	0.728632927	-0.643730164	-0.08622551	0.985974312	-0.104615211	0.030639648	0.126373291	18.21582317	-16.09325409	-2.155637741	-5.255352431	1.539184872	6.348371071	-0.106201172	0.743164063	-0.832275391	881.42	-69.2715968	-28.57019433	33.28315974	-65
37301	0	0.662109375	-0.393493652	-0.12322998	0.984883308	-0.110580444	0.018395424	0.132053375	16.55273438	-9.837341309	-3.080749512	-5.557051621	0.924433979	6.636141023	0.145507813	0.911865234	-0.657226563	881.38	-82.74756006	-13.28138837	35.05492042	-67
37302	0	0.473628998	0.136916161	0.030960083	0.990813255	-0.100193024	0.002006531	0.090807915	11.84072495	3.422904015	0.774002075	-5.02504828	0.10063489	4.554350582	0.407714844	0.984863281	-0.437011719	881.44	-94.33593329	-2.836133461	35.07135257	-79
37303	0	0.635986328	-0.559020996	0.141906738	0.997923851	-0.027439117	-0.032969475	0.048034668	15.8996582	-13.9755249	3.547668457	-1.372905946	-1.649615302	2.403396591	0.553466797	1.005615234	-0.249511719	881.5	-97.50478863	3.024812957	38.20379341	-74
37304	0	0.028512955	-1.394985199	-0.442520142	0.995064735	-0.036896706	0.008218765	0.09173584	0.712823868	-34.87462997	-11.06300354	-1.847875646	0.411615506	4.594351214	0.650878906	0.959960938	-0.25390625	881.48	-102.1797745	13.22322495	35.45651493	-69
37305	0	-0.012207031	-0.351379395	0.214233398	0.999629974	0.010048866	0.02016449	0.015201569	-0.305175781	-8.784484863	5.355834961	0.502505191	1.008348653	0.760172036	0.788085938	0.866210938	-0.233398438	881.48	-101.6948712	14.43178231	32.74168485	-72
37306	0	-0.170313835	-0.361692429	-0.034335136	0.993972778	-0.104115486	0.004073143	0.034065247	-4.257845879	-9.042310715	-0.85837841	-5.216257452	0.204067266	1.706692279	0.833007813	0.840820313	-0.155273438	881.48	-114.1518165	17.98842342	31.02867844	-78
37307	0	-0.144348145	-0.406921387	-0.203186035	0.994156837	-0.103309631	0.008248329	0.030181885	-3.608703613	-10.17303467	-5.079650879	-5.175565778	0.41322159	1.512040338	0.879150391	0.800537109	0.03125	881.42	-126.9335686	20.47231444	28.30295012	-73
37308	0	-0.078467369	-0.36624527	-0.175629616	0.991757393	-0.118462563	0.016965866	0.04576683	-1.961684227	-9.156131744	-4.390740395	-5.939454526	0.850631524	2.294649063	0.925048828	0.713378906	0.209960938	881.38	-142.584771	22.81129965	22.84661791	-74
37309	0	-0.174499512	-0.336181641	-0.302124023	0.989524841	-0.127726555	0.026748657	0.061725616	-4.362487793	-8.404541016	-7.553100586	-6.40871981	1.342122236	3.097102097	0.974365234	0.541503906	0.395751953	881.44	-160.5896307	23.46387756	14.49632456	-84
37310	0	-0.29064846	-0.105754852	-0.363924026	0.991409302	-0.121716499	0.03977108	0.026642799	-7.26621151	-2.643871307	-9.098100662	-6.103311088	1.994267622	1.335967546	0.986328125	0.303955078	0.565917969	881.42	-176.1372784	19.60117414	10.29293533	-83
37311	0	-0.307373047	-0.30670166	-0.658081055	0.997550011	-0.049514771	0.00634861	0.048999786	-7.684326172	-7.667541504	-16.45202637	-2.477761947	0.317689932	2.451991696	0.944824219	0.116943359	0.673583984	881.44	176.2273923	18.87088742	4.34679797	-83
37312	0	-0.011726379	0.268938065	-0.541445732	0.999897957	-0.000441551	-0.002573013	0.014038086	-0.293159485	6.723451614	-13.5361433	-0.022078311	-0.128655037	0.70192815	0.944824219	0.009765625	0.665283203	881.42	175.6161207	19.03664824	2.613384007	-81
37313	0	0.127990723	0.15020752	-0.41809082	0.999839783	-0.009673119	-0.003288269	-0.014678955	3.199768066	3.755187988	-10.45227051	-0.483681716	-0.164422218	-0.733986886	0.939941406	-0.034667969	0.643066406	881.48	175.0747462	19.52199088	4.335718493	-79
37314	0	0.219872475	0.144117355	-0.317893028	0.998558998	-0.008928299	-0.015007019	-0.050736427	5.496811867	3.602933884	-7.947325706	-0.446629438	-0.750711477	-2.538040243	0.943359375	0.002929688	0.628173828	881.48	176.163931	21.6424147	10.36716115	-88
37315	0	0.176696777	0.075439453	-0.261779785	0.997038841	-0.024078369	-0.048056602	-0.054985046	4.417419434	1.885986328	-6.544494629	-1.205107998	-2.405204259	-2.75196874	0.96484375	0.075439453	0.586181641	881.38	176.0854312	27.5229986	16.86361891	-77
37316	0	0.080084801	0.030676842	-0.28532505	0.995325089	0.008523941	-0.078867912	-0.055082321	2.002120018	0.766921043	-7.133126259	0.426862362	-3.949551407	-2.75841534	1.010986328	0.157714844	0.475097656	881.34	-179.1390064	36.69551352	24.01257733	-79
37317	0	-0.025939941	0.072509766	-0.283813477	0.992966652	0.020061493	-0.106589317	-0.047458649	-0.648498535	1.812744141	-7.095336914	1.005432744	-5.341994745	-2.378510888	1.056640625	0.279541016	0.285400391	881.44	-170.8854748	48.38542841	32.7916131	-82
37318	0	-0.207767487	0.06555748	-0.279686928	0.990931511	0.02280426	-0.123590469	-0.047522545	-5.194187164	1.638936996	-6.992173195	1.143671903	-6.198269348	-2.383335339	1.068603516	0.381835938	0.038330078	881.38	-155.1378474	60.42622432	48.83535847	-75
37319	0	-0.274963379	0.039978027	-0.173278809	0.990151405	0.01947403	-0.132430077	-0.041015625	-6.874084473	0.999450684	-4.331970215	0.976910496	-6.643326262	-2.057539992	1.010009766	0.477539063	-0.2421875	881.44	-123.8909084	69.23775072	80.67654536	-71
37320	0	-0.275896072	-0.046573639	-0.036212921	0.989933968	0.023152351	-0.131364822	-0.047301292	-6.89740181	-1.164340973	-0.905323029	1.161517368	-6.590368304	-2.373032085	0.874023438	0.540283203	-0.512695313	881.5	-80.66418526	67.00830934	124.1037112	-69
37321	0	-0.016357422	-0.163818359	0.114807129	0.990379333	0.029515266	-0.123748779	-0.054439545	-0.408935547	-4.095458984	2.870178223	1.480514167	-6.207357859	-2.730739951	0.658935547	0.588378906	-0.734130859	881.42	-56.90520854	55.86729283	147.109715	-71
37322	0	0.071764946	-0.158417702	0.25510025	0.992297173	0.027050018	-0.112289429	-0.044787407	1.79412365	-3.960442543	6.377506256	1.355984392	-5.628931967	-2.245138028	0.399169922	0.600585938	-0.891845703	881.34	-45.65688514	43.78187128	157.6895987	-75
37323	0	-0.045043945	-0.111572266	0.249328613	0.994391441	0.025104523	-0.093649864	-0.042232513	-1.126098633	-2.789306641	6.233215332	1.257577756	-4.691265693	-2.115581726	0.153320313	0.583984375	-0.975585938	881.5	-39.82346696	32.62356928	162.4313734	-80
37324	0	-0.110489845	-0.186813354	0.423573494	0.993881226	-0.008504868	-0.092297554	-0.060070038	-2.762246132	-4.670333862	10.58933735	-0.426112791	-4.624312852	-3.009642574	-0.088378906	0.561035156	-0.989257813	881.38	-40.04831365	20.09565144	164.1013621	-86
37325	0	0.048034668	-0.281738281	0.50402832	0.995457649	0.007003784	-0.075163841	-0.057998657	1.200866699	-7.043457031	12.60070801	0.350720309	-3.763891773	-2.904330928	-0.332763672	0.567626953	-0.935546875	881.42	-39.13591555	9.220183884	164.4877612	-75
37326	0	-0.011526108	-0.810250282	0.986830711	0.995993614	0.048780441	-0.052377701	-0.053599358	-0.288152695	-20.25625706	24.67076778	2.442284156	-2.622387692	-2.683552227	-0.53125	0.501220703	-0.881347656	881.48	-33.63914837	0.740616851	163.1084704	-75
37327	0	-0.017822266	-0.125915527	0.418518066	0.999520302	-0.002662659	0.004979134	0.030426025	-0.445556641	-3.147888184	10.46295166	-0.133154192	0.248996432	1.52154418	-0.623779297	0.384033203	-0.881103516	881.44	-33.84018814	3.157277422	165.6832158	-75
37328	0	-0.00965786	-0.195300102	0.319314957	0.999616623	-0.018442154	0.008852959	0.018651962	-0.241446495	-4.882502556	7.982873917	-0.922225519	0.442704493	0.932717276	-0.578613281	0.442626953	-0.882568359	881.44	-35.85156965	5.214705398	166.8538919	-76
37329	0	0.02520752	-0.247436523	0.276550293	0.999939919	0.005443573	0.004868507	0.00812149	0.630187988	-6.185913086	6.913757324	0.272184062	0.243430209	0.406082598	-0.549316406	0.479492188	-0.878662109	881.44	-35.1704098	6.209389108	167.2866554	-76
37330	0	-0.012229919	-0.132043839	0.213205338	0.999988556	0.003260612	-0.002661705	-0.001988411	-0.305747986	-3.301095963	5.330133438	0.163031213	-0.133085732	-0.099420907	-0.539306641	0.474609375	-0.890380859	881.44	-34.78376499	5.828023523	167.2701589	-78
37331	0	-0.046936035	-0.157348633	0.332702637	0.999857903	-0.007610321	-0.006144524	-0.013706207	-1.173400879	-3.93371582	8.317565918	-0.380534036	-0.307240701	-0.685342753	-0.553466797	0.466308594	-0.888916016	881.44	-35.71701245	4.346245629	166.3848184	-78
37332	0	-0.045938492	-0.310055733	0.459679604	0.999897957	-0.013701439	0.001052856	-0.003759384	-1.148462296	-7.751393318	11.49199009	-0.685095122	0.052644603	-0.187975567	-0.575439453	0.476074219	-0.87109375	881.42	-37.30099633	4.186934378	165.9603014	-79
37333	0	-0.038879395	-0.215881348	0.308654785	0.999990463	-0.001372337	0.003791809	0.001415253	-0.971984863	-5.397033691	7.716369629	-0.068617076	0.189591031	0.07076285	-0.566650391	0.487060547	-0.863769531	881.5	-37.45110491	4.631212494	165.8209156	-79
37334	0	-0.044205666	-0.202493668	0.28030777	0.999959946	-0.008181572	0.002760887	-0.002194405	-1.10514164	-5.06234169	7.007694244	-0.40908401	0.138046184	-0.109721682	-0.562011719	0.491210938	-0.8671875	881.44	-38.40336656	4.727518394	165.421524	-79
37335	0	-0.058837891	-0.251220703	0.301391602	0.999958992	-0.007659912	0.001221657	-0.004535675	-1.470947266	-6.280517578	7.534790039	-0.383000759	0.061083662	-0.226786804	-0.562988281	0.506835938	-0.854003906	881.48	-39.30457034	4.513070151	164.9230241	-79
37336	0	-0.04152298	-0.272087097	0.306923866	0.999983788	-0.004839897	-0.000440598	-0.002759933	-1.038074493	-6.802177429	7.673096657	-0.241996118	-0.022029991	-0.137997392	-0.565429688	0.511474609	-0.851318359	881.5	-39.86040404	4.275585397	164.7058209	-79
37337	0	-0.02923584	-0.266662598	0.311523438	0.999997139	0.002037048	-0.000475883	-0.000854492	-0.730895996	-6.666564941	7.788085938	0.101852504	-0.023794194	-0.042724646	-0.568115234	0.516113281	-0.845703125	881.56	-39.61564381	4.173817816	164.6609653	-79
37338	0	-0.031410217	-0.234951019	0.307081223	0.999999046	0.000425339	-0.000341415	-0.000915527	-0.785255432	-5.873775482	7.677030563	0.021266941	-0.017070773	-0.045776376	-0.5703125	0.509521484	-0.850830078	881.5	-39.55632428	4.079645665	164.599619	-79
37339	0	-0.027648926	-0.246765137	0.312316895	0.999998093	-0.001288414	-1.90735E-05	-0.001274109	-0.691223145	-6.169128418	7.807922363	-0.064420735	-0.000953675	-0.063705479	-0.572753906	0.51171875	-0.851074219	881.5	-39.69720673	3.987533175	164.4830812	-80
37340	0	-0.024324417	-0.246598244	0.312964439	0.999999046	3.33786E-05	0.000205994	-0.001163483	-0.608110428	-6.164956093	7.824110985	0.00166893	0.010299685	-0.058174147	-0.572753906	0.51171875	-0.848144531	881.44	-39.68687464	3.922966264	164.3601359	-81
37341	0	-0.031433105	-0.244445801	0.308654785	0.999998093	-0.000567436	0.000320435	-0.001346588	-0.785827637	-6.11114502	7.716369629	-0.028371821	0.016021734	-0.067329432	-0.574951172	0.509521484	-0.853515625	881.48	-39.74693493	3.855171045	164.2122105	-79
37342	0	-0.036215782	-0.246664047	0.307312965	0.999998093	-0.001069069	0.000330925	-0.000855446	-0.905394554	-6.166601181	7.682824135	-0.053453463	0.016546255	-0.042772307	-0.574951172	0.507324219	-0.853515625	881.44	-39.86162446	3.82450456	164.1068658	-79
37343	0	-0.035766602	-0.257995605	0.30267334	0.999999046	-0.001331329	-0.000109673	-1.90735E-05	-0.894165039	-6.449890137	7.566833496	-0.066566487	-0.005483629	-0.000953675	-0.575195313	0.509765625	-0.844970703	881.48	-39.9999269	3.816747606	164.108161	-78
37344	0	-0.03208828	-0.252833366	0.306524277	0.999999046	0.001080513	-0.000549316	-6.96182E-05	-0.802206993	-6.32083416	7.663106918	0.054025663	-0.027465827	-0.003480912	-0.575195313	0.511962891	-0.847900391	881.48	-39.86027821	3.766775218	164.1373553	-77
37345	0	-0.027404785	-0.244506836	0.308166504	0.999999046	0.000278473	-0.000628471	-2.67029E-05	-0.685119629	-6.112670898	7.704162598	0.013923646	-0.031423571	-0.001335144	-0.574951172	0.509521484	-0.850585938	881.52	-39.81187748	3.712865126	164.1756817	-77
37346	0	-0.028102875	-0.245740891	0.3083992	0.999998093	-0.001460075	-6.58035E-05	0.00012207	-0.702571869	-6.143522263	7.709980011	-0.073003795	-0.003290178	0.006103518	-0.574951172	0.509521484	-0.850585938	881.52	-39.96454367	3.719371369	164.185628	-77
37347	0	-0.030029297	-0.254394531	0.305358887	0.999999046	-0.00056839	-0.000300407	0.000118256	-0.750732422	-6.359863281	7.633972168	-0.028419497	-0.015020372	0.005912781	-0.577636719	0.514160156	-0.848144531	881.5	-40.01430946	3.705077309	164.2129844	-77
37348	0	-0.027951241	-0.249731064	0.305397034	0.999999046	0.000565529	-0.000406265	0.000185966	-0.698781013	-6.243276596	7.634925842	0.028276446	-0.020313265	0.009298325	-0.577636719	0.511962891	-0.839111328	881.5	-39.93342444	3.686432946	164.254293	-78
37349	0	-0.02923584	-0.249267578	0.307312012	0.999999046	0.000171661	-0.000258446	0.000301361	-0.730895996	-6.231689453	7.682800293	0.008583069	-0.012922287	0.015068055	-0.575195313	0.511962891	-0.844970703	881.42	-39.89783907	3.689259074	164.2942894	-75
37350	0	-0.028747559	-0.249450684	0.307189941	0.999999046	9.15527E-05	-0.000228882	0.000289917	-0.718688965	-6.23626709	7.679748535	0.004577637	-0.011444092	0.01449585	-0.575195313	0.514160156	-0.845214844	881.56	-39.87176642	3.693832085	164.3312639	-75
37351	0	-0.027709961	-0.247192383	0.307678223	0.999999046	-0.000484467	-6.67572E-06	0.000190735	-0.692749023	-6.17980957	7.691955566	-0.024223329	-0.000333786	0.009536744	-0.577636719	0.511962891	-0.842041016	881.48	-39.91334862	3.710618902	164.3431109	-77
37352	0	-0.029632568	-0.25199604	0.307128906	0.999999046	-0.000775337	-0.00015831	0.000380516	-0.740814209	-6.299901009	7.678222656	-0.038766866	-0.007915498	0.019025805	-0.575439453	0.514160156	-0.842285156	881.5	-39.98667432	3.728103687	164.3827437	-79
37353	0	-0.028137207	-0.251281738	0.306091309	0.999999046	3.8147E-05	-0.00014782	0.000228882	-0.703430176	-6.282043457	7.652282715	0.001907349	-0.007390976	0.011444092	-0.577880859	0.516357422	-0.842529297	881.5	-39.96788857	3.735328093	164.4084098	-81
37354	0	-0.029625893	-0.249536514	0.306485176	0.999999046	6.10352E-05	-6.67572E-05	0.000319481	-0.740647316	-6.238412857	7.662129402	0.003051758	-0.00333786	0.015974045	-0.575439453	0.516357422	-0.842529297	881.5	-39.94646214	3.756374231	164.4359442	-79
37355	0	-0.029602051	-0.250488281	0.30682373	0.999999046	-0.000167847	-0.000304222	-7.62939E-06	-0.74005127	-6.262207031	7.670593262	-0.008392334	-0.015211106	-0.00038147	-0.577636719	0.514160156	-0.845214844	881.5	-39.95215102	3.732517909	164.4519357	-79
37356	0	-0.028495789	-0.249615669	0.306512833	0.999999046	-0.000159264	-0.000104904	0.00012207	-0.712394714	-6.240391731	7.662820816	-0.007963181	-0.005245209	0.006103516	-0.577636719	0.516357422	-0.848144531	881.48	-39.95719206	3.73570318	164.4647291	-79
37357	0	-0.02923584	-0.249755859	0.306945801	0.999999046	-0.000675201	-1.04904E-05	9.53674E-05	-0.730895996	-6.243896484	7.67364502	-0.033760073	-0.000524521	0.004768372	-0.575439453	0.516357422	-0.845458984	881.5	-40.02206834	3.745242407	164.4682621	-79
37358	0	-0.029154778	-0.251324654	0.306485176	0.999999046	-0.000699997	-2.47955E-05	0.000151634	-0.728869438	-6.283116341	7.662129402	-0.03499985	-0.001239777	0.007581711	-0.577880859	0.518554688	-0.845458984	881.48	-40.08955008	3.757692766	164.4778831	-79
37359	0	-0.030578613	-0.251586914	0.305053711	0.999999046	-0.00012207	-3.33786E-05	0.000198364	-0.764465332	-6.289672852	7.626342773	-0.006103516	-0.00166893	0.009918213	-0.575439453	0.518554688	-0.845703125	881.44	-40.09067979	3.772927041	164.4921223	-79
37360	0	-0.029070854	-0.251467705	0.306702614	0.999999046	-0.000134468	-0.000141144	4.48227E-05	-0.726771355	-6.286692619	7.667565346	-0.006723404	-0.00705719	0.002241135	-0.577880859	0.520996094	-0.842773438	881.5	-40.0937131	3.767379811	164.5011414	-79
37361	0	-0.029724121	-0.25177002	0.304443359	0.999999046	-6.48499E-05	-0.000239372	6.48499E-05	-0.743103027	-6.294250488	7.611083984	-0.003242493	-0.011968613	0.003242493	-0.575439453	0.518554688	-0.842773438	881.56	-40.08838244	3.754734288	164.5188099	-79
37362	0	-0.029174805	-0.251953125	0.305480957	0.999999046	0.000469208	-0.000259399	-3.8147E-06	-0.729370117	-6.298828125	7.637023926	0.023460389	-0.012969971	-0.000190735	-0.577880859	0.516601563	-0.839599609	881.44	-40.02232845	3.735266777	164.5320636	-79
37363	0	-0.028198242	-0.251220703	0.306518555	0.999999046	0.000400543	-0.000193596	9.15527E-05	-0.704956055	-6.280517578	7.662963867	0.020027161	-0.009679795	0.004577637	-0.575683594	0.518554688	-0.83984375	881.5	-39.96404609	3.728551914	164.5488479	-79
37364	0	-0.028614044	-0.250849724	0.305204391	0.999999046	0.000157356	-0.000144958	8.01086E-05	-0.715351105	-6.271243095	7.630109787	0.007867813	-0.007247925	0.004005432	-0.577880859	0.518798828	-0.842529297	881.52	-39.93410626	3.72524888	164.5608768	-79
37365	0	-0.028686523	-0.250366211	0.304321289	0.999999046	-6.86646E-05	-1.81198E-05	0.00025177	-0.717163086	-6.259155273	7.608032227	-0.003433228	-0.000905991	0.012588501	-0.575439453	0.518554688	-0.842773438	881.38	-39.92987978	3.745715362	164.5785622	-78
37366	0	-0.029230118	-0.252224922	0.305019379	0.999999046	7.43866E-05	-0.000150681	0.000132561	-0.730752945	-6.305623055	7.625484467	0.00371933	-0.007534027	0.006628037	-0.575439453	0.518554688	-0.845703125	881.5	-39.90954161	3.745777073	164.5954106	-77
37367	0	-0.029296875	-0.249694824	0.306152344	0.999999046	5.72205E-05	-0.000109673	0.000152588	-0.732421875	-6.242370605	7.653808594	0.002861023	-0.005483627	0.007629395	-0.577880859	0.516357422	-0.842529297	881.44	-39.89135323	3.75093204	164.6111374	-77
37368	0	-0.028207779	-0.251605034	0.305454254	0.999999046	-0.000178337	-4.95911E-05	0.000259399	-0.705194473	-6.290125847	7.636356354	-0.008916855	-0.002479553	0.012969971	-0.575439453	0.518554688	-0.845703125	881.5	-39.90003005	3.769179136	164.6317359	-78
37369	0	-0.031066895	-0.251037598	0.30670166	0.999999046	-2.28882E-05	-5.62668E-05	8.7738E-05	-0.776672363	-6.275939941	7.667541504	-0.001144409	-0.002813339	0.004386902	-0.575683594	0.518554688	-0.836914063	881.38	-39.89198306	3.774322267	164.6381054	-77
37370	0	-0.029733658	-0.252206802	0.30589962	0.999999046	0.000299454	-0.000234604	6.00815E-05	-0.743341446	-6.305170059	7.647490501	0.014972687	-0.011730194	0.003004074	-0.575683594	0.518554688	-0.836914063	881.42	-39.84649933	3.761774149	164.6549715	-76
37371	0	-0.029174805	-0.249572754	0.305847168	0.999999046	0.000198364	-0.000208855	2.67029E-05	-0.729370117	-6.239318848	7.646179199	0.009918213	-0.010442734	0.001335144	-0.575683594	0.518554688	-0.83984375	881.42	-39.81303327	3.749039766	164.6667666	-76
37372	0	-0.028633118	-0.251830101	0.30681324	0.999999046	-9.25064E-05	-0.000181198	-3.8147E-05	-0.715827942	-6.295752525	7.670331001	-0.00462532	-0.009059906	-0.001907349	-0.577880859	0.518554688	-0.845458984	881.62	-39.81358592	3.733957582	164.6705829	-76
37373	0	-0.028930664	-0.249450684	0.305358887	0.999999046	-0.000202179	-0.000121117	-4.57764E-05	-0.723266602	-6.23626709	7.633972168	-0.010108948	-0.006055832	-0.002288818	-0.577880859	0.518798828	-0.842529297	881.48	-39.82716542	3.723614164	164.6695264	-76
37374	0	-0.0291996	-0.252690315	0.304531097	0.999999046	-6.86646E-05	-0.000143051	1.43051E-05	-0.729990005	-6.317257881	7.613277435	-0.003433228	-0.007152557	0.000715256	-0.577880859	0.518554688	-0.845458984	881.48	-39.82527015	3.715771428	164.6751911	-76
37375	0	-0.028625488	-0.249694824	0.305419922	0.999999046	0.000343323	-0.000208855	-3.8147E-06	-0.715637207	-6.242370605	7.635498047	0.017166138	-0.010442734	-0.000190735	-0.575439453	0.520751953	-0.845703125	881.5	-39.77607648	3.700803011	164.6842444	-76
37376	0	-0.029105186	-0.250217438	0.307006836	0.999999046	-0.000170708	-0.000102997	1.14441E-05	-0.727629662	-6.255435944	7.675170898	-0.008535385	-0.005149841	0.000572205	-0.577880859	0.516357422	-0.842529297	881.38	-39.78630675	3.696296256	164.6867437	-77
37377	0	-0.028991699	-0.250915527	0.304931641	0.999999046	-0.000106812	-0.000155449	1.52588E-05	-0.72479248	-6.272888184	7.623291016	-0.005340576	-0.007772446	0.000762939	-0.577880859	0.518798828	-0.839599609	881.38	-39.78913666	3.687473174	164.6936609	-78
37378	0	-0.028232574	-0.251102448	0.305924416	0.999999046	-9.34601E-05	-0.000141144	-8.58307E-06	-0.705814362	-6.277561188	7.64811039	-0.004673004	-0.00705719	-0.000429153	-0.577880859	0.516357422	-0.842529297	881.44	-39.7908016	3.678144919	164.6970314	-79
37379	0	-0.028808594	-0.250854492	0.306213379	1	-2.86102E-06	-2.67029E-05	0	-0.720214844	-6.271362305	7.655334473	-0.000143051	-0.001335144	0	-0.575439453	0.516357422	-0.845458984	881.44	-39.78271338	3.679540585	164.6926737	-79
37380	0	-0.028548241	-0.24975872	0.306334496	0.999999046	-0.000161171	1.33514E-05	2.28882E-05	-0.713706017	-6.24396801	7.658362389	-0.008058548	0.000667572	0.001144409	-0.577880859	0.518798828	-0.839599609	881.44	-39.79291492	3.686147814	164.6878863	-80
37381	0	-0.02923584	-0.251647949	0.306091309	0.999999046	-0.000110626	-0.000174522	-1.14441E-05	-0.730895996	-6.29119873	7.652282715	-0.005531311	-0.00872612	-0.000572205	-0.575683594	0.520751953	-0.843017578	881.5	-39.79679841	3.673728836	164.6935932	-81
37382	0	-0.02845192	-0.250434875	0.305496216	0.999999046	-3.05176E-05	-8.58307E-05	9.05991E-05	-0.711297989	-6.260871887	7.637405396	-0.001525879	-0.004291534	0.004529953	-0.580322266	0.520996094	-0.83984375	881.48	-39.79147379	3.676603556	164.7019515	-81
37383	0	-0.028991699	-0.251708984	0.305297852	0.999999046	1.14441E-05	-0.000121117	5.34058E-05	-0.72479248	-6.292724609	7.632446289	0.000572205	-0.006055832	0.002670288	-0.577880859	0.518554688	-0.845458984	881.5	-39.78157149	3.673667493	164.7090872	-81
37384	0	-0.028333664	-0.249807358	0.306164742	0.999999046	-5.81741E-05	-9.53674E-05	3.05176E-05	-0.708341599	-6.245183945	7.654118538	-0.002908707	-0.004768372	0.001525879	-0.577880859	0.516601563	-0.839599609	881.52	-39.77997896	3.671314409	164.7125893	-82
37385	0	-0.028747559	-0.251525879	0.304626465	0.999999046	8.39233E-05	-0.000151634	4.57764E-05	-0.718688965	-6.288146973	7.615661621	0.004196167	-0.007581711	0.002288818	-0.577880859	0.518798828	-0.842529297	881.44	-39.76195022	3.665139803	164.7215332	-81
37386	0	-0.02935791	-0.249755859	0.305847168	0.999999046	0	-8.7738E-05	-4.95911E-05	-0.733947754	-6.243896484	7.646179199	0	-0.004386902	-0.002479553	-0.578125	0.518798828	-0.836669922	881.38	-39.75446638	3.657653278	164.7175801	-82
37387	0	-0.028564453	-0.250366211	0.307128906	0.999999046	-0.000217438	-0.000170708	-4.95911E-05	-0.714111328	-6.259155273	7.678222656	-0.010871887	-0.008535385	-0.002479553	-0.577880859	0.518798828	-0.842529297	881.52	-39.77158353	3.642865441	164.7193123	-81
37388	0	-0.029289246	-0.250807762	0.306480408	0.999999046	-0.000197411	-0.000162125	7.53403E-05	-0.73223114	-6.270194054	7.662010193	-0.009870529	-0.008106232	0.003767014	-0.580322266	0.518798828	-0.836669922	881.5	-39.7858473	3.638041907	164.7317493	-81
37389	0	-0.028259277	-0.250671387	0.305175781	0.999999046	-6.10352E-05	-6.77109E-05	-3.43323E-05	-0.706481934	-6.266784668	7.629394531	-0.003051758	-0.003385544	-0.001716614	-0.578125	0.520996094	-0.83984375	881.56	-39.78567018	3.633492205	164.7274022	-82
37390	0	-0.029359818	-0.250711441	0.306064606	0.999999046	-0.000125885	-8.96454E-05	-1.14441E-05	-0.733995438	-6.267786026	7.651615143	-0.006294251	-0.004482269	-0.000572205	-0.577880859	0.518798828	-0.839599609	881.44	-39.792796	3.628746317	164.7265457	-82
37391	0	-0.028320313	-0.251342773	0.305725098	0.999999046	-0.000137329	-2.19345E-05	-6.10352E-05	-0.708007813	-6.283569336	7.643127441	-0.006866455	-0.001096725	-0.003051758	-0.578125	0.520996094	-0.836914063	881.44	-39.80195674	3.626328709	164.7165818	-83
37392	0	-0.028581619	-0.250331879	0.306023598	1	-4.00543E-05	-1.04904E-05	-3.52859E-05	-0.714540482	-6.258296967	7.650589943	-0.002002716	-0.000524521	-0.001764297	-0.580566406	0.520996094	-0.836914063	881.44	-39.79995703	3.626827263	164.7079829	-82
37393	0	-0.028198242	-0.251220703	0.305847168	0.999999046	-4.57764E-05	-0.000102043	-6.48499E-05	-0.704956055	-6.280517578	7.646179199	-0.002288818	-0.005102158	-0.003242493	-0.580322266	0.518798828	-0.839599609	881.42	-39.79846824	3.617095972	164.7032113	-83
37394	0	-0.02828598	-0.250642776	0.3064394	0.999999046	-0.000133514	-7.43866E-05	0.00012207	-0.707149506	-6.266069412	7.660984993	-0.00667572	-0.00371933	0.006103516	-0.577880859	0.518798828	-0.842529297	881.44	-39.80619109	3.623515464	164.712813	-83
37395	0	-0.027526855	-0.251342773	0.306213379	0.999999046	-0.0001297	-5.62668E-05	6.86646E-05	-0.688171387	-6.283569336	7.655334473	-0.006484985	-0.002813339	0.003433228	-0.580322266	0.518798828	-0.839599609	881.44	-39.81395758	3.627575211	164.7166275	-82
37396	0	-0.027893066	-0.251602173	0.306394577	0.999999046	6.67572E-06	-0.000143051	6.38962E-05	-0.69732666	-6.290054321	7.659864426	0.000333786	-0.007152557	0.003194809	-0.577880859	0.518798828	-0.842529297	881.5	-39.80581895	3.623625436	164.726215	-82
37397	0	-0.028503418	-0.251220703	0.30657959	0.999999046	-1.90735E-05	-7.53403E-05	6.48499E-05	-0.712585449	-6.280517578	7.664489746	-0.000953674	-0.003767014	0.003242493	-0.577880859	0.518798828	-0.839599609	881.44	-39.80101843	3.62571813	164.7310816	-82
37398	0	-0.027893066	-0.250854492	0.305236816	0.999999046	-9.15527E-05	-5.34058E-05	2.67029E-05	-0.69732666	-6.271362305	7.63092041	-0.004577637	-0.002670288	0.001335144	-0.580322266	0.518798828	-0.836669922	881.42	-39.80494559	3.62692894	164.7310636	-83
37399	0	-0.028259277	-0.25177002	0.306091309	0.999999046	-3.8147E-05	7.72476E-05	0	-0.706481934	-6.294250488	7.652282715	-0.001907349	0.003862381	0	-0.578125	0.520996094	-0.836914063	881.44	-39.80362296	3.637684122	164.719046	-82
37400	0	-0.028428078	-0.250390053	0.305945396	0.999999046	-0.000252724	-9.34601E-05	8.67844E-05	-0.710701942	-6.25975132	7.648634911	-0.012636185	-0.004673004	0.004339218	-0.580322266	0.520996094	-0.842529297	881.48	-39.82566881	3.639787729	164.7269328	-83
37401	0	-0.028503418	-0.252685547	0.305480957	0.999999046	-8.01086E-05	-6.38962E-05	6.48499E-05	-0.712585449	-6.317138672	7.637023926	-0.004005432	-0.003194809	0.003242493	-0.578125	0.520996094	-0.83984375	881.5	-39.82834953	3.642891448	164.7308356	-82
37402	0	-0.028069496	-0.250717163	0.305687904	0.999999046	-8.96454E-05	-8.7738E-05	-3.14713E-05	-0.701737404	-6.267929077	7.642197609	-0.004482269	-0.004386902	-0.001573563	-0.577880859	0.520996094	-0.842773438	881.5	-39.83261788	3.636815485	164.7278689	-82
37403	0	-0.028686523	-0.252380371	0.304382324	0.999999046	9.91821E-05	-0.000117302	4.95911E-05	-0.717163086	-6.309509277	7.609558105	0.004959106	-0.005865097	0.002479553	-0.580566406	0.520996094	-0.836914063	881.44	-39.81482713	3.634108018	164.734532	-82
37404	0	-0.028212547	-0.251462936	0.304621696	0.999999046	6.67572E-06	-0.000198364	7.62939E-05	-0.705313683	-6.28657341	7.615542412	0.000333786	-0.009918213	0.003814697	-0.577880859	0.520996094	-0.842773438	881.5	-39.80723957	3.626220817	164.7490994	-82
37405	0	-0.028686523	-0.25201416	0.304321289	0.999999046	-0.000217438	-0.000132561	4.19617E-05	-0.717163086	-6.300354004	7.608032227	-0.010871887	-0.006628037	0.002098084	-0.578125	0.523193359	-0.837158203	881.56	-39.82599019	3.62163149	164.7561576	-82
37406	0	-0.028077126	-0.252022743	0.304462433	0.999999046	-4.95911E-05	3.62396E-05	0.000110626	-0.701928139	-6.300568581	7.611560822	-0.002479553	0.001811981	0.005531311	-0.578125	0.523193359	-0.837158203	881.48	-39.82605305	3.636932797	164.7567164	-82
37407	0	-0.029052734	-0.252380371	0.305541992	0.999999046	-0.000125885	-6.38962E-05	3.05176E-05	-0.726318359	-6.309509277	7.638549805	-0.006294251	-0.003194809	0.001525879	-0.578125	0.523193359	-0.843017578	881.5	-39.83495936	3.637578575	164.7572783	-82
37408	0	-0.028601646	-0.252211571	0.304261208	0.999999046	-1.81198E-05	-4.3869E-05	4.86374E-05	-0.715041161	-6.305289268	7.60653019	-0.000905991	-0.002193451	0.00243187	-0.580566406	0.523193359	-0.836914063	881.56	-39.8316565	3.641332032	164.7583071	-82
37409	0	-0.028564453	-0.251586914	0.304748535	0.999999046	-7.62939E-05	-4.48227E-05	8.01086E-05	-0.714111328	-6.289672852	7.618713379	-0.003814697	-0.002241135	0.004005432	-0.580566406	0.520996094	-0.836914063	881.52	-39.83494436	3.647323649	164.761956	-82
37410	0	-0.02863884	-0.252301216	0.304834366	0.999999046	-0.000108719	-9.15527E-05	-9.53674E-07	-0.715970993	-6.307530403	7.620859146	-0.005435944	-0.004577637	-4.76837E-05	-0.580566406	0.523193359	-0.83984375	881.5	-39.8423099	3.643264576	164.7618738	-82
37411	0	-0.028259277	-0.251586914	0.304992676	0.999999046	5.34058E-05	-0.000109673	-3.05176E-05	-0.706481934	-6.289672852	7.624816895	0.002670288	-0.005483627	-0.001525879	-0.578125	0.523193359	-0.837158203	881.48	-39.83126559	3.635435857	164.7605907	-82
37412	0	-0.028787613	-0.251434326	0.303804398	0.999999046	-0.000292778	-0.000114441	0.000213623	-0.719690323	-6.285858154	7.59510994	-0.014638901	-0.005722046	0.010681153	-0.580566406	0.525390625	-0.837158203	881.52	-39.85862276	3.645138634	164.78122	-81
37413	0	-0.028625488	-0.252563477	0.304443359	0.999999046	9.91821E-05	4.29153E-05	3.8147E-05	-0.715637207	-6.314086914	7.611083984	0.004959106	0.002145767	0.001907349	-0.578369141	0.525390625	-0.837402344	881.44	-39.84291467	3.655812335	164.7746975	-82
37414	0	-0.029037476	-0.251952171	0.305771828	0.999999046	-2.09808E-05	-6.10352E-05	6.48499E-05	-0.72593689	-6.298804283	7.644295692	-0.001049042	-0.003051758	0.003242493	-0.580566406	0.523193359	-0.834228516	881.5	-39.84040625	3.659327987	164.7781923	-82
37415	0	-0.028381348	-0.251708984	0.304626465	0.999999046	-2.67029E-05	-0.000151634	-3.8147E-05	-0.709533691	-6.292724609	7.615661621	-0.001335144	-0.007581711	-0.001907349	-0.580566406	0.523193359	-0.836914063	881.48	-39.83880164	3.64730509	164.7791225	-82
37416	0	-0.028635979	-0.252094269	0.303889275	0.999999046	-0.000231743	3.62396E-05	0.000183105	-0.715899467	-6.30235672	7.597231865	-0.011587143	0.001811981	0.009155274	-0.580566406	0.523193359	-0.836914063	881.44	-39.86046091	3.668068918	164.7857371	-83
37417	0	-0.028625488	-0.252746582	0.30456543	0.999999046	0	-7.15256E-05	7.24792E-05	-0.715637207	-6.318664551	7.614135742	0	-0.003576279	0.003623962	-0.580566406	0.523193359	-0.836914063	881.44	-39.85580253	3.671230699	164.7905422	-83
37418	0	-0.028617859	-0.252376556	0.305912018	0.999999046	-0.000125885	-1.52588E-05	5.34058E-05	-0.715446472	-6.30941391	7.647800446	-0.006294251	-0.000762939	0.002670288	-0.580566406	0.525390625	-0.837158203	881.5	-39.8660055	3.677938473	164.7896055	-84
37419	0	-0.028381348	-0.252929688	0.303588867	0.999999046	0.00030899	-0.000189781	-4.57764E-05	-0.709533691	-6.323242188	7.58972168	0.015449524	-0.00948906	-0.002288818	-0.578125	0.523193359	-0.837158203	881.52	-39.82626865	3.661998032	164.7926053	-85
37420	0	-0.029096603	-0.251217842	0.305646896	0.999999046	-9.53674E-07	-7.82013E-05	-6.48499E-05	-0.727415085	-6.280446053	7.641172409	-4.76837E-05	-0.003910065	-0.003242493	-0.580566406	0.520996094	-0.833984375	881.38	-39.82271246	3.654505517	164.7857915	-85
37421	0	-0.028076172	-0.252197266	0.303955078	0.999999046	1.14441E-05	-5.24521E-05	8.7738E-05	-0.701904297	-6.304931641	7.598876953	0.000572205	-0.002622604	0.004386902	-0.578125	0.520996094	-0.833984375	881.44	-39.81712328	3.660458173	164.7904779	-85
37422	0	-0.028698921	-0.252185822	0.305428505	0.999999046	0.000137329	3.62396E-05	9.44138E-05	-0.71747303	-6.304645538	7.635712624	0.006866455	0.001811981	0.004720688	-0.578125	0.523193359	-0.840087891	881.44	-39.79756265	3.674714331	164.7891359	-85
37423	0	-0.028686523	-0.251586914	0.304199219	0.999999046	-0.000106812	2.76566E-05	4.57764E-05	-0.717163086	-6.289672852	7.604980469	-0.005340576	0.001382828	0.002288818	-0.578125	0.523193359	-0.840087891	881.44	-39.80631086	3.684653376	164.7841766	-86
37424	0	-0.029092789	-0.253175735	0.304326057	0.999999046	2.86102E-06	-7.43866E-05	4.86374E-05	-0.727319717	-6.329393387	7.608151436	0.000143051	-0.00371933	0.00243187	-0.580566406	0.520996094	-0.836914063	881.44	-39.80214295	3.685837997	164.787024	-86
37425	0	-0.028381348	-0.250976563	0.305419922	0.999999046	0.000221252	-0.000124931	-4.57764E-05	-0.709533691	-6.274414063	7.635498047	0.011062622	-0.006246567	-0.002288818	-0.580566406	0.523193359	-0.836914063	881.48	-39.77327092	3.675631598	164.7853507	-86
37426	0	-0.028282166	-0.251638412	0.304439545	0.999999046	-3.05176E-05	-0.000102997	4.19617E-05	-0.707054138	-6.290960312	7.610988617	-0.001525879	-0.005149841	0.002098084	-0.578125	0.523193359	-0.837158203	881.48	-39.77294907	3.673773754	164.7896714	-86
37427	0	-0.028503418	-0.251708984	0.304077148	0.999999046	0.000156403	-4.1008E-05	0	-0.712585449	-6.292724609	7.601928711	0.007820129	-0.0020504	0	-0.580566406	0.520996094	-0.836914063	881.38	-39.75184158	3.674297208	164.7856792	-86
37428	0	-0.028173447	-0.25094223	0.305927277	0.999999046	-5.62668E-05	-5.72205E-05	0.000228882	-0.704336166	-6.273555756	7.648181915	-0.002813339	-0.002861023	0.011444092	-0.578125	0.523193359	-0.840087891	881.44	-39.75374911	3.690141942	164.8030387	-86
37429	0	-0.029296875	-0.252502441	0.304992676	0.999999046	-3.8147E-05	-6.77109E-05	-1.14441E-05	-0.732421875	-6.312561035	7.624816895	-0.001907349	-0.003385544	-0.000572205	-0.578125	0.523193359	-0.837158203	881.44	-39.75500224	3.687479152	164.8000733	-86
37430	0	-0.028273582	-0.25185585	0.304671288	0.999999046	0.000101089	-0.000106812	-3.14713E-05	-0.706839561	-6.296396255	7.616782188	0.005054474	-0.005340576	-0.001573563	-0.578125	0.525390625	-0.840332031	881.5	-39.74032041	3.679883529	164.7981526	-86
37431	0	-0.028808594	-0.252319336	0.305419922	0.999999046	-1.90735E-05	-5.62668E-05	-7.24792E-05	-0.720214844	-6.307983398	7.635498047	-0.000953674	-0.002813339	-0.003623962	-0.578125	0.523193359	-0.840087891	881.44	-39.73996667	3.673744793	164.7887886	-86
37432	0	-0.028188705	-0.251786232	0.305596352	0.999999046	8.4877E-05	-0.000236511	7.15256E-05	-0.704717636	-6.2946558	7.639908791	0.004243851	-0.011825562	0.003576279	-0.578125	0.525390625	-0.840332031	881.56	-39.72609818	3.662248597	164.8054825	-86
37433	0	-0.027893066	-0.251342773	0.305786133	0.999999046	3.8147E-06	9.53674E-07	6.48499E-05	-0.69732666	-6.283569336	7.64465332	0.000190735	4.76837E-05	0.003242493	-0.578125	0.523193359	-0.837158203	881.44	-39.72270932	3.671157241	164.8041418	-86
37434	0	-0.028536797	-0.252069473	0.303956985	1	-1.43051E-05	4.76837E-06	2.19345E-05	-0.713419914	-6.301736832	7.598924637	-0.000715256	0.000238419	0.001096725	-0.580566406	0.523193359	-0.836914063	881.52	-39.72178494	3.677260875	164.7987316	-86
37435	0	-0.029052734	-0.252258301	0.305114746	0.999999046	-0.000152588	-6.67572E-06	7.62939E-06	-0.726318359	-6.30645752	7.627868652	-0.007629395	-0.000333786	0.00038147	-0.580566406	0.523193359	-0.836914063	881.5	-39.73682841	3.681329938	164.7928372	-85
37436	0	-0.028442383	-0.251923561	0.302779198	0.999999046	6.00815E-05	-9.72748E-05	0.000144005	-0.71105957	-6.298089027	7.569479942	0.003004074	-0.004863739	0.007200241	-0.578125	0.523193359	-0.837158203	881.32	-39.72644927	3.68739878	164.8055688	-86
37437	0	-0.028503418	-0.251953125	0.303894043	0.999999046	3.43323E-05	-7.15256E-05	1.90735E-05	-0.712585449	-6.298828125	7.597351074	0.001716614	-0.003576279	0.000953674	-0.578125	0.523193359	-0.840087891	881.32	-39.71996379	3.686579373	164.8052856	-86
37438	0	-0.028408051	-0.251932144	0.303609848	0.999999046	-8.39233E-05	-1.52588E-05	5.34058E-05	-0.710201263	-6.298303604	7.590246201	-0.004196167	-0.000762939	0.002670288	-0.578125	0.520996094	-0.83984375	881.38	-39.72722096	3.693223628	164.8038617	-85
37439	0	-0.029174805	-0.25189209	0.304992676	0.999999046	1.14441E-05	-0.000105858	-2.67029E-05	-0.729370117	-6.297302246	7.624816895	0.000572205	-0.005292892	-0.001335144	-0.578125	0.520996094	-0.833984375	881.48	-39.72364587	3.686039546	164.8022705	-86
37440	0	-0.027997971	-0.25127697	0.304576874	0.999999046	-0.000117302	1.33514E-05	2.28882E-05	-0.699949265	-6.281924248	7.614421844	-0.005865097	0.000667572	0.001144409	-0.580566406	0.525390625	-0.837158203	881.44	-39.73516294	3.692961764	164.7963215	-85
37441	0	-0.02911377	-0.252807617	0.30480957	0.999999046	2.67029E-05	-0.000109673	-6.48499E-05	-0.727844238	-6.32019043	7.620239258	0.001335144	-0.005483627	-0.003242493	-0.578125	0.523193359	-0.840087891	881.48	-39.73020058	3.682635548	164.791336	-85
37442	0	-0.028891563	-0.251818657	0.30537796	0.999999046	0.000125885	-7.62939E-06	4.48227E-05	-0.722289085	-6.295466423	7.634449005	0.006294251	-0.00038147	0.002241135	-0.580566406	0.523193359	-0.83984375	881.48	-39.71377782	3.68934771	164.788675	-85
37443	0	-0.028930664	-0.252380371	0.304626465	0.999999046	6.86646E-05	-6.77109E-05	2.28882E-05	-0.723266602	-6.309509277	7.615661621	0.003433228	-0.003385544	0.001144409	-0.580566406	0.520996094	-0.836914063	881.44	-39.70385036	3.68917014	164.7884879	-85
37444	0	-0.02877903	-0.252398491	0.304908752	0.999999046	0.000180244	-8.2016E-05	6.77109E-05	-0.719475746	-6.309962273	7.622718811	0.009012222	-0.0041008	0.003385544	-0.578125	0.523193359	-0.834228516	881.5	-39.68090358	3.691014597	164.7934527	-85
37445	0	-0.028137207	-0.251525879	0.30480957	0.999999046	7.62939E-05	-3.71933E-05	7.62939E-05	-0.703430176	-6.288146973	7.620239258	0.003814697	-0.001859665	0.003814697	-0.578125	0.523193359	-0.837158203	881.38	-39.67009503	3.697410794	164.7956969	-85
37446	0	-0.029312134	-0.252085686	0.307107925	0.999999046	7.05719E-05	-9.72748E-05	1.90735E-05	-0.732803345	-6.302142143	7.677698135	0.003528595	-0.004863739	0.000953674	-0.580566406	0.523193359	-0.834228516	881.5	-39.65999753	3.694344282	164.7974231	-85
37447	0	-0.028869629	-0.251831055	0.305419922	0.999999046	-3.05176E-05	-7.9155E-05	-3.8147E-06	-0.721740723	-6.295776367	7.635498047	-0.001525879	-0.003957748	-0.000190735	-0.578125	0.523193359	-0.843017578	881.42	-39.66176175	3.691208459	164.795398	-85
37448	0	-0.028758049	-0.25246048	0.305164337	0.999999046	0.000145912	-0.000173569	6.00815E-05	-0.718951225	-6.311511993	7.629108429	0.007295609	-0.008678436	0.003004074	-0.580566406	0.520996094	-0.836914063	881.46	-39.64259186	3.68441534	164.806225	-85
37449	0	-0.028686523	-0.251220703	0.305480957	0.999999046	6.48499E-05	-0.000124931	6.48499E-05	-0.717163086	-6.280517578	7.637023926	0.003242493	-0.006246567	0.003242493	-0.582763672	0.521240234	-0.836669922	881.44	-39.63295061	3.682260656	164.813928	-85
37450	0	-0.028276443	-0.251543999	0.305275917	0.999999046	0.000240326	-2.86102E-05	6.77109E-05	-0.706911087	-6.288599968	7.631897926	0.012016297	-0.001430511	0.003385544	-0.580566406	0.523193359	-0.836914063	881.44	-39.60369723	3.688795512	164.8148563	-86
37451	0	-0.028503418	-0.250488281	0.305786133	0.999999046	-0.000202179	-4.1008E-05	8.39233E-05	-0.712585449	-6.262207031	7.64465332	-0.010108948	-0.0020504	0.004196167	-0.580566406	0.520996094	-0.836914063	881.38	-39.62501032	3.695412062	164.8179608	-85
37452	0	-0.028642654	-0.252011299	0.305441856	0.999999046	-4.673E-05	-5.53131E-05	7.53403E-05	-0.71606636	-6.300282478	7.63604641	-0.002336502	-0.002765656	0.003767014	-0.580566406	0.523193359	-0.836914063	881.5	-39.62856427	3.700133319	164.8214671	-85
37453	0	-0.028381348	-0.251708984	0.306152344	0.999999046	-9.91821E-05	-2.95639E-05	5.72205E-05	-0.709533691	-6.292724609	7.653808594	-0.004959106	-0.001478195	0.002861023	-0.578125	0.523193359	-0.843017578	881.44	-39.63838887	3.705781369	164.8212148	-85
37454	0	-0.028391838	-0.252194405	0.306042671	0.999999046	6.48499E-05	-1.90735E-06	7.15256E-05	-0.709795952	-6.304860115	7.65106678	0.003242493	-9.53674E-05	0.003576279	-0.580566406	0.523193359	-0.834228516	881.44	-39.62951929	3.714892182	164.8206418	-85
37455	0	-0.029541016	-0.251831055	0.3046875	0.999999046	-0.000106812	-8.29697E-05	2.28882E-05	-0.738525391	-6.295776367	7.6171875	-0.005340576	-0.004148483	0.001144409	-0.578125	0.525390625	-0.843017578	881.5	-39.64029973	3.713330907	164.8213205	-85
37456	0	-0.028708458	-0.252322197	0.303173065	0.999999046	0.000170708	-9.72748E-05	4.1008E-05	-0.717711449	-6.308054924	7.57932663	0.008535385	-0.004863739	0.0020504	-0.580566406	0.523193359	-0.842773438	881.44	-39.61925425	3.711828025	164.8246719	-85
37457	0	-0.028259277	-0.250976563	0.3046875	0.999999046	-8.7738E-05	-8.67844E-05	-1.14441E-05	-0.706481934	-6.274414063	7.6171875	-0.004386902	-0.004339218	-0.000572205	-0.578369141	0.525390625	-0.837402344	881.42	-39.62822329	3.707390917	164.8228902	-85
37458	0	-0.028383255	-0.251763344	0.30434227	0.999999046	3.8147E-06	-0.000108719	-4.76837E-06	-0.709581375	-6.294083595	7.608556747	0.000190735	-0.005435944	-0.000238419	-0.578125	0.520996094	-0.833984375	881.44	-39.62664554	3.701487257	164.823118	-85
37459	0	-0.027770996	-0.251647949	0.305053711	0.999999046	-0.000286102	-1.81198E-05	0.000102997	-0.694274902	-6.29119873	7.626342773	-0.014305115	-0.000905991	0.005149841	-0.578125	0.520996094	-0.836914063	881.44	-39.65815958	3.711408087	164.8261089	-85
37460	0	-0.028727531	-0.252427101	0.30448246	1	7.62939E-06	2.86102E-06	2.19345E-05	-0.718188286	-6.310677528	7.612061501	0.00038147	0.000143051	0.001096725	-0.580566406	0.523193359	-0.834228516	881.48	-39.65667158	3.717249773	164.8206561	-85
37461	0	-0.028930664	-0.251220703	0.305908203	0.999999046	-0.000240326	-2.57492E-05	0	-0.723266602	-6.280517578	7.647705078	-0.012016297	-0.00128746	0	-0.578125	0.523193359	-0.834228516	881.48	-39.6835859	3.718967316	164.8152236	-85
37462	0	-0.028487206	-0.252710342	0.305055618	0.999999046	0.000211716	-0.000234604	1.43051E-05	-0.712180138	-6.31775856	7.626390457	0.010585785	-0.011730194	0.000715256	-0.578125	0.523193359	-0.840087891	881.42	-39.65770092	3.703289939	164.8261723	-85
37463	0	-0.02911377	-0.25177002	0.305541992	0.999999046	7.62939E-06	-3.33786E-05	-8.7738E-05	-0.727844238	-6.294250488	7.638549805	0.00038147	-0.00166893	-0.004386902	-0.578369141	0.525390625	-0.837402344	881.48	-39.6567682	3.697918753	164.8136204	-85
37464	0	-0.028987885	-0.251282692	0.304876328	0.999999046	-0.000113487	-0.000112534	2.28882E-05	-0.724697113	-6.282067299	7.621908188	-0.005674362	-0.005626678	0.001144409	-0.578125	0.523193359	-0.837158203	881.48	-39.66874074	3.693672213	164.8164854	-85
37465	0	-0.028747559	-0.252075195	0.305786133	0.999999046	-3.8147E-05	-5.62668E-05	2.67029E-05	-0.718688965	-6.301879883	7.64465332	-0.001907349	-0.002813339	0.001335144	-0.578369141	0.525390625	-0.834472656	881.48	-39.67235147	3.694669645	164.8157608	-85
37466	0	-0.029153824	-0.252280235	0.305220604	0.999999046	5.53131E-05	-7.82013E-05	6.67572E-06	-0.728845596	-6.307005882	7.630515099	0.002765656	-0.003910065	0.000333786	-0.580566406	0.523193359	-0.836914063	881.5	-39.66531511	3.692290557	164.8146448	-85
37467	0	-0.028869629	-0.252441406	0.303955078	0.999999046	0.0001297	-0.000109673	-2.67029E-05	-0.721740723	-6.311035156	7.598876953	0.006484985	-0.005483627	-0.001335144	-0.578125	0.523193359	-0.834228516	881.44	-39.64989693	3.684705882	164.8129777	-85
37468	0	-0.02854538	-0.251997948	0.305003166	0.999999046	0.000100136	-0.000167847	1.52588E-05	-0.713634491	-6.299948692	7.625079155	0.00500679	-0.008392334	0.000762939	-0.580566406	0.523193359	-0.834228516	881.48	-39.63740648	3.675051997	164.8192823	-85
37469	0	-0.028503418	-0.251708984	0.306030273	0.999999046	3.8147E-05	-3.71933E-05	-7.62939E-06	-0.712585449	-6.292724609	7.650756836	0.001907349	-0.001859665	-0.00038147	-0.578125	0.520996094	-0.83984375	881.48	-39.63277353	3.675249764	164.8136745	-85
37470	0	-0.028842926	-0.251991272	0.306722641	1	1.43051E-05	-3.52859E-05	-6.19888E-05	-0.721073151	-6.299781799	7.668066025	0.000715256	-0.001764297	-0.003099442	-0.578125	0.523193359	-0.837158203	881.5	-39.63119046	3.671653282	164.8034506	-85
37471	0	-0.028930664	-0.251647949	0.305969238	0.999999046	-1.52588E-05	7.34329E-05	0.000171661	-0.723266602	-6.29119873	7.649230957	-0.000762939	0.003671646	0.008583069	-0.580566406	0.523193359	-0.834228516	881.5	-39.63219312	3.694748172	164.8060106	-84
37472	0	-0.02881813	-0.253479004	0.304186821	0.999999046	0.000201225	-2.09808E-05	-2.67029E-05	-0.720453262	-6.336975098	7.604670525	0.010061264	-0.001049042	-0.001335144	-0.575683594	0.523193359	-0.840087891	881.48	-39.60921405	3.695018404	164.7976176	-84
37473	0	-0.028991699	-0.250549316	0.305480957	0.999999046	0.000320435	-0.000113487	6.86646E-05	-0.72479248	-6.26373291	7.637023926	0.016021729	-0.005674362	0.003433228	-0.578125	0.520996094	-0.836914063	881.5	-39.57158288	3.694104608	164.8045911	-83
37474	0	-0.028529167	-0.25297451	0.30632019	0.999999046	-0.000150681	-0.000162125	-9.91821E-05	-0.713229179	-6.324362755	7.658004761	-0.007534027	-0.008106232	-0.004959106	-0.578125	0.523193359	-0.837158203	881.38	-39.58873439	3.676624211	164.8003193	-83
37475	0	-0.028503418	-0.251525879	0.305175781	0.999999046	0.000137329	-0.000124931	8.01086E-05	-0.712585449	-6.288146973	7.629394531	0.006866455	-0.006246567	0.004005432	-0.578125	0.523193359	-0.843017578	881.5	-39.57208061	3.675515861	164.8089736	-83
37476	0	-0.028711319	-0.251316071	0.305434227	0.999999046	-5.05447E-05	-0.000144958	-1.52588E-05	-0.717782974	-6.282901764	7.635855675	-0.002527237	-0.007247925	-0.000762939	-0.580566406	0.525390625	-0.840087891	881.56	-39.57743266	3.665682317	164.8109344	-82
37477	0	-0.028381348	-0.251525879	0.306091309	0.999999046	7.62939E-06	-1.43051E-05	4.19617E-05	-0.709533691	-6.288146973	7.652282715	0.00038147	-0.000715256	0.002098083	-0.578125	0.523193359	-0.837158203	881.44	-39.57642046	3.671558113	164.8083036	-82
37478	0	-0.028759956	-0.252556801	0.305606842	0.999999046	3.62396E-05	-0.000123978	9.05991E-05	-0.718998909	-6.313920021	7.640171051	0.001811981	-0.006198883	0.004529953	-0.578125	0.523193359	-0.843017578	881.44	-39.57141067	3.671305859	164.8177807	-82
37479	0	-0.028320313	-0.251037598	0.305236816	0.999999046	0.000114441	-3.33786E-05	0.0001297	-0.708007813	-6.275939941	7.63092041	0.005722046	-0.00166893	0.006484985	-0.580566406	0.523193359	-0.836914063	881.5	-39.55766373	3.681898702	164.8244218	-82
37480	0	-0.028670311	-0.252182007	0.304807663	0.999999046	-5.43594E-05	-8.2016E-05	-0.000144958	-0.716757774	-6.304550171	7.620191574	-0.002717972	-0.0041008	-0.007247925	-0.575927734	0.523193359	-0.834472656	881.56	-39.56467693	3.668151976	164.8102264	-82
37481	0	-0.027832031	-0.250915527	0.30645752	0.999999046	3.8147E-05	-0.000117302	0.000110626	-0.695800781	-6.272888184	7.661437988	0.001907349	-0.005865097	0.005531311	-0.578125	0.525390625	-0.840332031	881.42	-39.55945316	3.669905421	164.8211158	-82
37482	0	-0.028609276	-0.251923561	0.304896355	0.999999046	-0.000108719	-0.000125885	6.10352E-05	-0.715231895	-6.298089027	7.622408867	-0.005435944	-0.006294251	0.003051758	-0.578125	0.523193359	-0.837158203	881.48	-39.57136939	3.667286485	164.8282545	-82
37483	0	-0.028686523	-0.252258301	0.305114746	0.999999046	3.43323E-05	-3.33786E-05	7.62939E-06	-0.717163086	-6.30645752	7.627868652	0.001716614	-0.00166893	0.00038147	-0.578125	0.525390625	-0.840332031	881.5	-39.56769893	3.668949702	164.823893	-82
37484	0	-0.027815819	-0.251749039	0.30513382	0.999999046	1.62125E-05	-0.00019455	0.000137329	-0.69539547	-6.293725967	7.62834549	0.000810623	-0.009727478	0.006866455	-0.580566406	0.523193359	-0.836914063	881.44	-39.56466499	3.665807121	164.8428458	-82
37485	0	-0.028686523	-0.252563477	0.305297852	0.999999046	4.19617E-05	-4.1008E-05	1.14441E-05	-0.717163086	-6.314086914	7.632446289	0.002098083	-0.0020504	0.000572205	-0.580566406	0.523193359	-0.836914063	881.48	-39.5601865	3.667048333	164.8394019	-82
37486	0	-0.028301239	-0.250950813	0.306114197	0.999999046	0.000192642	-0.000127792	-1.62125E-05	-0.707530975	-6.273770332	7.652854919	0.009632111	-0.006389618	-0.000810623	-0.578125	0.523193359	-0.843017578	881.5	-39.53817798	3.658594417	164.8396413	-82
37487	0	-0.028137207	-0.25189209	0.305908203	0.999999046	-0.00018692	-0.000117302	9.91821E-05	-0.703430176	-6.297302246	7.647705078	-0.009346008	-0.005865097	0.004959106	-0.578125	0.523193359	-0.837158203	881.48	-39.5590979	3.659470203	164.8496023	-81
37488	0	-0.028847694	-0.252428055	0.304843903	0.999999046	-4.673E-05	-0.000112534	3.71933E-05	-0.72119236	-6.31070137	7.621097565	-0.002336502	-0.005626678	0.001859665	-0.578125	0.525390625	-0.840332031	881.56	-39.56440955	3.656266302	164.8536497	-82
37489	0	-0.028808594	-0.25201416	0.304626465	0.999999046	7.62939E-05	-0.000113487	0.000152588	-0.720214844	-6.300354004	7.615661621	0.003814697	-0.005674362	0.007629395	-0.580566406	0.523193359	-0.83984375	881.5	-39.5550376	3.661420589	164.8679229	-81
37490	0	-0.029121399	-0.251897812	0.305953026	1	-4.673E-05	-4.1008E-05	-1.52588E-05	-0.728034973	-6.297445297	7.648825645	-0.002336502	-0.0020504	-0.000762939	-0.578125	0.523193359	-0.840087891	881.44	-39.56107461	3.660760148	164.8620168	-81
37491	0	-0.028503418	-0.25213623	0.304260254	0.999999046	-6.48499E-05	-0.000105858	6.48499E-05	-0.712585449	-6.303405762	7.606506348	-0.003242493	-0.005292892	0.003242493	-0.578125	0.523193359	-0.837158203	881.44	-39.56851896	3.660220693	164.8680487	-81
