Counter	Temperature	VelInc_X	VelInc_Y	VelInc_Z	OriInc_w	OriInc_x	OriInc_y	OriInc_z	Acc_X	Acc_Y	Acc_Z	Gyr_X	Gyr_Y	Gyr_Z	Mag_X	Mag_Y	Mag_Z	Pressure	Roll	Pitch	Yaw	RSSI
34635	0	0.362915039	-0.098388672	0.118774414	0.999999046	0.000553131	-0.000330925	0.000717163	9.072875977	-2.459716797	2.969360352	0.027656559	-0.016546252	0.03585816	-0.586669922	-0.108886719	-0.776855469	883	-39.44196601	-67.60628735	61.25505388	-80
34636	0	0.366455078	-0.095978737	0.115889549	0.999997139	0.001961708	0.000112534	-0.000214577	9.161376953	-2.399468422	2.897238731	0.098085467	0.005626682	-0.010728843	-0.586425781	-0.111083984	-0.776611328	883	-39.11062211	-67.61553843	61.1369189	-81
34637	0	0.36529541	-0.0859375	0.12121582	0.999998093	0.001599312	-0.000434875	0.000328064	9.132385254	-2.1484375	3.030395508	0.079965629	-0.021743785	0.016403206	-0.583984375	-0.11328125	-0.773681641	882.96	-39.0331229	-67.63429042	61.24813571	-81
34638	0	0.367411613	-0.094222069	0.118755341	0.999998093	0.001589775	-0.000397682	-0.000561714	9.185290337	-2.35555172	2.968883514	0.079488794	-0.019884119	-0.028085723	-0.588623047	-0.115478516	-0.776123047	883	-38.75734898	-67.71390535	61.14271707	-81
34639	0	0.36315918	-0.090270996	0.115112305	0.999998093	0.001355171	0.000141144	-0.000869751	9.078979492	-2.256774902	2.877807617	0.06775859	0.007057193	-0.043487568	-0.586181641	-0.117675781	-0.776123047	882.94	-38.34578305	-67.76716053	60.85899811	-81
34640	0	0.358340263	-0.09018898	0.11594677	0.999999046	0.000296593	0.000577927	-0.001015663	8.958506584	-2.254724503	2.898669243	0.014829639	0.028896339	-0.05078317	-0.588378906	-0.124267578	-0.775390625	882.96	-37.94656498	-67.79063167	60.46733719	-82
34641	0	0.366027832	-0.093994141	0.117614746	0.999999046	-0.00094986	0.000290871	-0.00062561	9.150695801	-2.349853516	2.940368652	-0.047492992	0.014543537	-0.031280525	-0.583496094	-0.124511719	-0.778564453	882.94	-37.82618066	-67.8119019	60.21972705	-82
34642	0	0.368333817	-0.092965126	0.118078232	0.999999046	1.52588E-05	0.000106812	-0.000740051	9.208345413	-2.324128151	2.951955795	0.00076294	0.005340577	-0.037002567	-0.5859375	-0.124511719	-0.778320313	883.02	-37.60145935	-67.85760702	59.97928748	-82
34643	0	0.361328125	-0.088806152	0.12286377	0.999999046	0.000427246	0.000126839	-0.000591278	9.033203125	-2.220153809	3.071594238	0.021362307	0.006341935	-0.029563907	-0.5859375	-0.124267578	-0.772705078	882.92	-37.35828823	-67.8905542	59.77141841	-83
34644	0	0.36628437	-0.087659836	0.120894432	0.999997139	0.002007484	-0.000267029	0.000209808	9.157109261	-2.191495895	3.022360802	0.100374291	-0.01335145	0.010490425	-0.585693359	-0.126708984	-0.778320313	882.94	-37.18063559	-67.90356266	59.8244551	-82
34645	0	0.363098145	-0.084228516	0.112243652	0.999999046	0.000782013	0.000596046	-0.000656128	9.077453613	-2.105712891	2.806091309	0.039100656	0.029802329	-0.032806404	-0.583251953	-0.12890625	-0.778076172	882.94	-36.80185401	-67.897759	59.50881991	-82
34646	0	0.365513802	-0.085033417	0.115619659	0.999993324	-0.003261566	0.000644684	-0.000723839	9.137845039	-2.125835419	2.890491486	-0.163078623	0.032234254	-0.03619201	-0.585693359	-0.131103516	-0.777832031	883	-36.86331846	-67.89204068	59.18077021	-81
34647	0	0.362792969	-0.091491699	0.120422363	0.999995232	-0.002979279	0.000542641	-0.000370026	9.069824219	-2.28729248	3.010559082	-0.148964159	0.027132076	-0.01850131	-0.581054688	-0.122314453	-0.781738281	882.96	-36.99021586	-67.87132202	58.94745972	-81
34648	0	0.361074448	-0.090510368	0.125829697	0.999997139	-0.002236366	0.000402451	-0.000149727	9.026861191	-2.262759209	3.145742416	-0.11181841	0.020122545	-0.00748635	-0.581298828	-0.122314453	-0.778808594	882.92	-37.10537655	-67.84799804	58.80123334	-81
34649	0	0.362426758	-0.094360352	0.125671387	0.999999046	-0.000526428	3.91006E-05	-0.000213623	9.060668945	-2.359008789	3.141784668	-0.026321413	0.001955032	-0.010681153	-0.581298828	-0.117919922	-0.779296875	882.94	-37.07227596	-67.86190944	58.70041049	-81
34650	0	0.363005638	-0.093052864	0.122243881	0.999999046	0.000350952	-0.000114441	6.38962E-05	9.075140953	-2.326321602	3.056097031	0.017547608	-0.005722046	0.003194809	-0.581298828	-0.117919922	-0.781982422	882.88	-37.02750103	-67.87043703	58.69270184	-80
34651	0	0.363830566	-0.095214844	0.122070313	0.999998093	0.001378059	-0.000270844	-7.62939E-06	9.09576416	-2.380371094	3.051757813	0.068902992	-0.01354218	-0.00038147	-0.579101563	-0.118164063	-0.785400391	882.96	-36.8761039	-67.8979488	58.68981271	-80
34652	0	0.365362167	-0.090236664	0.121449471	0.999998093	0.00157547	-0.000353813	0.000255585	9.134054184	-2.255916595	3.036236763	0.078773534	-0.017690666	0.012779242	-0.581298828	-0.122314453	-0.779052734	882.96	-36.77572042	-67.91492176	58.77399216	-80
34653	0	0.360229492	-0.092041016	0.120544434	0.999994278	0.00325489	-0.000213623	0.000282288	9.005737305	-2.301025391	3.01361084	0.162744813	-0.010681171	0.014114405	-0.581054688	-0.124755859	-0.784667969	882.96	-36.46576124	-67.91711792	58.83128896	-80
34654	0	0.363465309	-0.083561897	0.115502357	0.999995232	0.002807617	-3.8147E-05	0.000803947	9.086632729	-2.089047432	2.887558937	0.140381059	-0.001907351	0.04019743	-0.581054688	-0.126953125	-0.781494141	882.96	-36.29619544	-67.86809341	58.98452538	-80
34655	0	0.368774414	-0.085571289	0.114135742	0.999999046	0.000408173	4.76837E-06	0.000320435	9.219360352	-2.139282227	2.853393555	0.020408631	0.000238419	0.016021729	-0.581054688	-0.131347656	-0.778320313	882.96	-36.285127	-67.84840349	59.02043127	-79
34656	0	0.360050201	-0.087719917	0.118847847	0.999999046	-0.00083065	0.0001297	0.000105858	9.001255035	-2.192997932	2.971196175	-0.041532521	0.006484986	0.005292893	-0.581054688	-0.129150391	-0.78125	882.96	-36.34688299	-67.83172201	58.9787845	-79
34657	0	0.361022949	-0.086364746	0.121276855	0.999999046	-0.00069046	-0.000311852	0.000362396	9.02557373	-2.159118652	3.031921387	-0.034523014	-0.015592577	0.018119814	-0.581054688	-0.129150391	-0.778564453	883	-36.52433424	-67.83826774	59.08309942	-79
34658	0	0.364142418	-0.093690872	0.119088173	0.999999046	0.000299454	-0.000936508	0.000666618	9.103560448	-2.342271805	2.977204323	0.01497269	-0.04682542	0.033330925	-0.583496094	-0.126708984	-0.778564453	882.94	-36.76318893	-67.88119173	59.37240877	-79
34659	0	0.367553711	-0.093078613	0.123046875	0.999998093	0.001320839	-0.00069809	0.000556946	9.188842773	-2.326965332	3.076171875	0.066041974	-0.034904495	0.027847302	-0.583496094	-0.12890625	-0.78125	882.94	-36.82110377	-67.90930066	59.5904488	-79
34660	0	0.368408203	-0.092468262	0.126342773	0.999998093	0.001731873	0.000172615	0.000133514	9.210205078	-2.311706543	3.158569336	0.086593672	0.008630757	0.006675724	-0.585693359	-0.131103516	-0.775146484	882.96	-36.58924126	-67.88627575	59.55170103	-79
34661	0	0.363708496	-0.09387207	0.121826172	0.999997139	0.001873016	0.000741005	0.000419617	9.092712402	-2.346801758	3.045654297	0.093650884	0.037050273	0.02098085	-0.583251953	-0.133300781	-0.778076172	883	-36.31193144	-67.79111002	59.47821459	-79
34662	0	0.361872673	-0.086774826	0.118902206	0.999999046	0.000156403	0.001167297	0.000611305	9.046816826	-2.169370651	2.972555161	0.007820132	0.058364885	0.030565271	-0.583251953	-0.135742188	-0.774902344	882.96	-36.205401	-67.64356861	59.3853985	-79
34663	0	0.359802246	-0.088684082	0.122924805	0.999999046	-0.00075531	0.000714302	0.00087738	8.995056152	-2.217102051	3.073120117	-0.037765515	0.035715114	0.043869032	-0.580810547	-0.133544922	-0.778076172	882.96	-36.3380131	-67.51973905	59.43553889	-78
34664	0	0.359526634	-0.09054184	0.12501049	0.999999046	0.000113487	0.00022316	0.000556946	8.988165855	-2.26354599	3.12526226	0.005674363	0.01115799	0.027847292	-0.581054688	-0.131347656	-0.778320313	882.94	-36.37967578	-67.46277512	59.49254978	-78
34665	0	0.366943359	-0.099975586	0.13482666	0.999997139	0.002212524	6.58035E-05	0.000522614	9.173583984	-2.499389648	3.370666504	0.110626316	0.003290179	0.026130699	-0.581054688	-0.131347656	-0.778320313	882.92	-36.1992035	-67.42204909	59.56464302	-78
34666	0	0.364501953	-0.099719048	0.130615234	0.999984741	0.005448341	0.000607491	0.000333786	9.112548828	-2.492976189	3.265380859	0.272418438	0.03037468	0.016689384	-0.578369141	-0.135742188	-0.778076172	882.96	-35.51969917	-67.34343295	59.49056436	-79
34667	0	0.366516113	-0.094299316	0.124572754	0.999982834	0.005539894	0.001285553	0.00062561	9.162902832	-2.35748291	3.114318848	0.276996216	0.064278	0.031280688	-0.578125	-0.142578125	-0.780517578	882.94	-34.79152515	-67.18173546	59.37261421	-79
34668	0	0.360425949	-0.08396244	0.120819092	0.999991417	0.003539085	0.001399994	0.001132965	9.010648727	-2.099061012	3.020477295	0.176954734	0.069999879	0.056648403	-0.577636719	-0.151367188	-0.776855469	883.06	-34.39293758	-66.97618785	59.37500496	-79
34669	0	0.360229492	-0.076171875	0.119873047	0.999996185	0.002079964	0.001014709	0.000644684	9.005737305	-1.904296875	2.996826172	0.103998284	0.050735522	0.032234223	-0.572753906	-0.153808594	-0.779785156	882.94	-34.11369136	-66.83927322	59.32130303	-79
34670	0	0.361948967	-0.076908112	0.126664162	0.999998093	-0.00167942	0.000597954	0.000778198	9.048724174	-1.922702789	3.166604042	-0.083971077	0.029897709	0.038909937	-0.572753906	-0.158203125	-0.779296875	883.06	-34.35697881	-66.73362358	59.38175538	-79
34671	0	0.359130859	-0.084472656	0.129577637	0.999997139	-0.002174377	0.00017643	0.000217438	8.978271484	-2.111816406	3.239440918	-0.108718959	0.008821494	0.010871896	-0.572753906	-0.151611328	-0.782714844	882.96	-34.59603311	-66.70412355	59.36932942	-79
34672	0	0.359899521	-0.093482971	0.126856804	0.999997139	-0.001999855	-8.39233E-05	0.000144005	8.997488022	-2.33707428	3.171420097	-0.099992819	-0.00419617	0.007200246	-0.572998047	-0.147216797	-0.786132813	882.96	-34.83909035	-66.70389226	59.37894038	-78
34673	0	0.360351563	-0.09375	0.131164551	0.999995232	-0.002979279	-0.000243187	0.000461578	9.008789063	-2.34375	3.27911377	-0.148964155	-0.012159366	0.023078954	-0.573242188	-0.145019531	-0.783447266	882.94	-35.2883798	-66.69742897	59.49798949	-77
34674	0	0.358129501	-0.098424911	0.134495735	0.999998093	-0.00183773	-9.25064E-05	0.000476837	8.953237534	-2.460622787	3.362393379	-0.091886576	-0.004625323	0.023841872	-0.573242188	-0.140380859	-0.783691406	883	-35.58731578	-66.67506572	59.59364267	-77
34675	0	0.362670898	-0.097045898	0.129882813	0.999999046	-0.000400543	-0.000155449	0.000358582	9.066772461	-2.426147461	3.247070313	-0.020027162	-0.007772446	0.017929078	-0.571044922	-0.136230469	-0.784179688	882.96	-35.70614121	-66.66613725	59.6653284	-77
34676	0	0.361846924	-0.097286224	0.128165245	0.999999046	0.000229836	0.000185013	8.01086E-05	9.046173096	-2.432155609	3.204131126	0.011491776	0.009250641	0.004005432	-0.571044922	-0.138427734	-0.78125	882.94	-35.64059399	-66.64397746	59.62052878	-77
34677	0	0.358886719	-0.089233398	0.127075195	0.999999046	-0.000602722	0.000123024	0.000209808	8.972167969	-2.230834961	3.176879883	-0.030136111	0.0061512	0.010490418	-0.573486328	-0.135986328	-0.784179688	882.96	-35.70797907	-66.61899973	59.61434256	-76
34678	0	0.361624718	-0.089175224	0.129497528	0.999997139	-0.002140045	3.05176E-05	-3.52859E-05	9.040617943	-2.229380608	3.237438202	-0.10700234	0.00152588	-0.001764299	-0.573486328	-0.133789063	-0.787109375	882.94	-35.91282193	-66.61910062	59.56617017	-76
34679	0	0.359802246	-0.096496582	0.130126953	0.999997139	-0.001960754	-6.67572E-06	-0.00062561	8.995056152	-2.412414551	3.253173828	-0.098037789	-0.000333786	-0.03128054	-0.571289063	-0.131591797	-0.787353516	883.02	-35.97649048	-66.66218357	59.38570519	-76
34680	0	0.36188221	-0.10022068	0.130887985	0.999998093	-0.001338959	-0.000237465	-0.000306129	9.047055244	-2.505517006	3.272199631	-0.066947959	-0.011873249	-0.015306478	-0.571289063	-0.129394531	-0.784667969	882.94	-36.07421072	-66.70490674	59.32111363	-76
34681	0	0.361572266	-0.09979248	0.129943848	0.999999046	0.000339508	-6.77109E-05	-0.000766754	9.039306641	-2.494812012	3.248596191	0.016975405	-0.003385544	-0.038337712	-0.571533203	-0.127197266	-0.784912109	882.92	-35.85408739	-66.76258076	59.11392042	-76
34682	0	0.359841347	-0.09329319	0.13032341	0.999999046	0.000980377	-0.000141144	-0.000805855	8.996033669	-2.33232975	3.258085251	0.049018873	-0.007057192	-0.040292751	-0.571533203	-0.129394531	-0.781738281	882.92	-35.5623572	-66.82919436	58.9106719	-76
34683	0	0.360229492	-0.093688965	0.128295898	0.999999046	0.000858307	-0.000136375	-0.000297546	9.005737305	-2.342224121	3.207397461	0.04291535	-0.006818772	-0.014877321	-0.573730469	-0.131591797	-0.781494141	882.94	-35.39402916	-66.86114376	58.82872906	-75
34684	0	0.361111641	-0.092040062	0.124631882	0.999999046	5.24521E-05	6.10352E-05	4.86374E-05	9.027791023	-2.301001549	3.115797043	0.002622604	0.003051758	0.00243187	-0.571289063	-0.133789063	-0.784423828	882.88	-35.36336261	-66.85171919	58.79586018	-75
34685	0	0.359436035	-0.091186523	0.126586914	0.999999046	-0.001316071	0.000142097	-0.000190735	8.985900879	-2.279663086	3.164672852	-0.065803547	0.007104876	-0.009536746	-0.571044922	-0.133789063	-0.787353516	883.02	-35.4248758	-66.85061824	58.69397571	-76
34686	0	0.360106468	-0.095113754	0.129306793	0.999999046	-0.001312256	-8.58307E-05	7.15256E-05	9.002661705	-2.377843857	3.23266983	-0.065612812	-0.004291536	0.00357628	-0.571289063	-0.131591797	-0.781738281	882.94	-35.57908546	-66.85320968	58.69791826	-75
34687	0	0.361877441	-0.099304199	0.130432129	0.999999046	0.000461578	-0.000281334	-0.000137329	9.046936035	-2.48260498	3.260803223	0.02307892	-0.014066697	-0.006866455	-0.571289063	-0.127197266	-0.790771484	882.96	-35.51564147	-66.88763103	58.6697281	-76
34688	0	0.361304283	-0.096340179	0.128119469	0.999996185	0.0025177	-0.00057888	5.24521E-05	9.032607079	-2.408504486	3.202986717	0.12588515	-0.028944048	0.002622607	-0.573730469	-0.131591797	-0.781494141	882.92	-35.3048227	-66.93707777	58.74580382	-76
34689	0	0.35736084	-0.087097168	0.122619629	0.999997139	0.002071381	-0.000750542	3.05176E-05	8.934020996	-2.177429199	3.065490723	0.103569115	-0.037527115	0.00152588	-0.573486328	-0.133789063	-0.784179688	882.94	-35.16688235	-67.00435474	58.83973575	-76
34690	0	0.361447334	-0.087583542	0.123722076	0.999999046	0.000211716	-0.000394821	-0.000228882	9.036183357	-2.189588547	3.09305191	0.010585785	-0.019741059	-0.011444092	-0.573486328	-0.138183594	-0.783935547	882.94	-35.12942795	-67.05569166	58.8173423	-76
34691	0	0.362304688	-0.092224121	0.121765137	0.999999046	-0.000823975	-0.000109673	-0.00043869	9.057617188	-2.305603027	3.044128418	-0.041198737	-0.005483628	-0.021934513	-0.575927734	-0.138183594	-0.781005859	882.92	-35.12036579	-67.09429016	58.70236093	-76
34692	0	0.363633156	-0.091688156	0.126965523	0.999999046	-0.000540733	-0.000276566	-0.000195503	9.090828896	-2.292203903	3.174138069	-0.027036669	-0.013828279	-0.009775162	-0.575683594	-0.140380859	-0.780761719	882.92	-35.15901526	-67.13248057	58.67880834	-76
34693	0	0.361816406	-0.092956543	0.132080078	0.999999046	0.000484467	-7.53403E-05	-0.001140594	9.045410156	-2.323913574	3.302001953	0.024223334	-0.003767015	-0.057029739	-0.575683594	-0.138183594	-0.783691406	882.94	-34.83769803	-67.21356904	58.38256662	-76
34694	0	0.361312866	-0.091703415	0.128756523	0.999998093	0.001450539	-0.00039959	-0.000202179	9.032821655	-2.292585373	3.218913078	0.07252696	-0.019979485	-0.010108952	-0.573242188	-0.140380859	-0.783691406	882.94	-34.66525949	-67.26323343	58.36483467	-77
34695	0	0.359741211	-0.088684082	0.124084473	0.999998093	0.001301765	-0.000888824	0.000312805	8.993530273	-2.217102051	3.102111816	0.0650883	-0.044441242	0.015640266	-0.575683594	-0.142578125	-0.780517578	882.92	-34.70219781	-67.32546235	58.55878312	-77
34696	0	0.366506577	-0.093700409	0.130756378	0.999998093	0.000799179	-0.000786781	-0.001052856	9.162664413	-2.342510223	3.268909454	0.03995897	-0.039339081	-0.052642843	-0.578125	-0.144775391	-0.774414063	883	-34.47231518	-67.46679847	58.40598199	-77
34697	0	0.359619141	-0.093688965	0.127502441	0.999993324	0.003475189	-0.00058651	-0.000659943	8.990478516	-2.342224121	3.187561035	0.173759833	-0.029325548	-0.032997202	-0.580322266	-0.146972656	-0.780029297	882.92	-33.99218924	-67.56317709	58.30253222	-78
34698	0	0.365668297	-0.082238197	0.12050724	0.999996185	0.002633095	-0.000466347	0.000255585	9.14170742	-2.055954933	3.012681007	0.131654898	-0.023317365	0.012779251	-0.577636719	-0.151367188	-0.779785156	882.94	-33.7993492	-67.58978998	58.40356205	-78
34699	0	0.360229492	-0.07244873	0.119934082	0.999999046	0.000164032	2.76566E-05	-0.000389099	9.005737305	-1.811218262	2.998352051	0.008201599	0.001382828	-0.019454957	-0.577392578	-0.157958984	-0.776123047	882.86	-33.66311727	-67.61101288	58.27330764	-77
34700	0	0.361076355	-0.076951981	0.116743088	0.999992371	-0.003715515	-0.000336647	-3.52859E-05	9.026908875	-1.923799515	2.918577194	-0.185776188	-0.016832391	-0.001764302	-0.577636719	-0.153564453	-0.776611328	882.94	-34.10968604	-67.64495866	58.29499625	-77
34701	0	0.360900879	-0.092773438	0.130371094	0.999992371	-0.003623009	-0.001113892	-0.000240326	9.022521973	-2.319335938	3.259277344	-0.181150872	-0.055694714	-0.012016325	-0.577636719	-0.149169922	-0.776855469	882.94	-34.62228111	-67.76518474	58.39957061	-77
34702	0	0.370349884	-0.109571457	0.135041237	0.999999046	0.0004673	-0.000610352	-0.00039959	9.258747101	-2.739286423	3.376030922	0.023365024	-0.030517582	-0.019979479	-0.580322266	-0.14453125	-0.774169922	882.94	-34.55247037	-67.84719623	58.3738352	-77
34703	0	0.362670898	-0.09173584	0.123168945	0.999995232	0.00295639	0.000248909	0.000205994	9.066772461	-2.293395996	3.079223633	0.147819737	0.012445468	0.010299698	-0.580078125	-0.149169922	-0.773681641	882.94	-34.20143923	-67.80859341	58.35301733	-78
34704	0	0.356843948	-0.074958801	0.116892815	0.999997139	0.001761436	0.0004673	0.000887871	8.921098709	-1.873970032	2.922320366	0.088071883	0.023365037	0.04439357	-0.580078125	-0.151367188	-0.776611328	882.94	-34.11085534	-67.70584301	58.46461167	-79
34705	0	0.361328125	-0.071899414	0.118469238	0.999997139	-0.002117157	7.34329E-05	0.000545502	9.033203125	-1.797485352	2.961730957	-0.105857934	0.003671649	0.027275107	-0.579833984	-0.153564453	-0.7734375	882.96	-34.44575955	-67.6629858	58.56975621	-79
34706	0	0.365180969	-0.088375092	0.120957375	0.99998951	-0.004545212	-2.47955E-05	0.000178337	9.129524231	-2.209377289	3.023934364	-0.227261373	-0.001239781	0.008916886	-0.582519531	-0.148925781	-0.776611328	882.86	-34.99004922	-67.65319855	58.60504911	-78
34707	0	0.368286133	-0.096374512	0.130737305	0.999993324	-0.003643036	7.34329E-05	0.000198364	9.20715332	-2.409362793	3.268432617	-0.182152199	0.003671654	0.009918235	-0.582763672	-0.137939453	-0.780273438	882.96	-35.42006725	-67.6324167	58.61759745	-79
34708	0	0.364685059	-0.096313477	0.130371094	0.999999046	4.673E-05	-0.00018692	0.00030899	9.117126465	-2.407836914	3.259277344	0.002336502	-0.009346009	0.015449524	-0.580566406	-0.135742188	-0.780761719	882.88	-35.49453466	-67.62812553	58.69718273	-79
34709	0	0.361938477	-0.090087891	0.123596191	0.999998093	0.001832008	-0.000320435	0.000232697	9.048461914	-2.252197266	3.089904785	0.091600472	-0.016021738	0.011634833	-0.583007813	-0.137939453	-0.77734375	882.96	-35.36879378	-67.64133123	58.78436746	-79
34710	0	0.363623619	-0.08834362	0.122771263	0.999998093	0.001925468	-0.000229836	1.81198E-05	9.090590477	-2.208590508	3.069281578	0.096273483	-0.011491783	0.000905991	-0.580566406	-0.137939453	-0.777587891	882.88	-35.16890095	-67.66040272	58.79506934	-79
34711	0	0.364074707	-0.084594727	0.120117188	0.999999046	0.000587463	9.63211E-05	-0.000225067	9.101867676	-2.114868164	3.002929688	0.029373171	0.004816056	-0.011253358	-0.580322266	-0.142333984	-0.777099609	882.92	-35.01429576	-67.66519814	58.69521207	-79
34712	0	0.364944458	-0.087276459	0.123279572	0.999999046	-0.00099659	0.000238419	-0.000264168	9.12361145	-2.181911469	3.081989288	-0.049829492	0.011920931	-0.013208392	-0.582763672	-0.142333984	-0.777099609	882.94	-35.00955404	-67.6592555	58.56590607	-79
34713	0	0.363647461	-0.086669922	0.124450684	0.999999046	-0.000804901	0.000157356	-0.000278473	9.091186523	-2.166748047	3.11126709	-0.040245061	0.007867814	-0.013923647	-0.582763672	-0.140136719	-0.774414063	882.94	-34.99244179	-67.66187743	58.44762115	-79
34714	0	0.364269257	-0.09161377	0.12582016	0.999999046	-0.000156403	0.000106812	-0.000392914	9.106731415	-2.290344238	3.145503998	-0.00782013	0.005340576	-0.019645692	-0.580322266	-0.140136719	-0.77734375	882.82	-34.88318393	-67.67655288	58.30583799	-79
34715	0	0.360534668	-0.088989258	0.124084473	0.999999046	0.000171661	2.38419E-05	-0.000537872	9.013366699	-2.224731445	3.102111816	0.008583069	0.001192093	-0.026893617	-0.578125	-0.140136719	-0.774658203	882.92	-34.71626242	-67.70829831	58.14173589	-79
34716	0	0.362392426	-0.086848259	0.124069214	0.999999046	-0.000214577	0.000139236	-0.000195503	9.059810638	-2.171206474	3.101730347	-0.010728836	0.006961823	-0.009775162	-0.577880859	-0.140380859	-0.780517578	882.94	-34.653673	-67.70671584	58.0386116	-79
34717	0	0.364379883	-0.089233398	0.124511719	0.999999046	-0.000595093	0.000294685	-0.00030899	9.10949707	-2.230834961	3.112792969	-0.029754641	0.01473427	-0.015449525	-0.577880859	-0.142578125	-0.783203125	882.92	-34.58420674	-67.69777774	57.88454884	-79
34718	0	0.364990234	-0.087219238	0.124755859	0.999999046	-0.000785828	0.000343323	0.000141144	9.124755859	-2.180480957	3.118896484	-0.039291387	0.01716614	0.007057191	-0.580322266	-0.140136719	-0.780273438	882.94	-34.63251429	-67.65496413	57.83743113	-79
34719	0	0.36315918	-0.092102051	0.124572754	0.999999046	0.000152588	0.000203133	-0.000137329	9.078979492	-2.30255127	3.114318848	0.007629395	0.010156632	-0.006866455	-0.577880859	-0.140380859	-0.780517578	882.96	-34.53224303	-67.64335162	57.74413785	-78
34720	0	0.361450195	-0.088317871	0.122558594	0.999999046	0.000527382	0.000362396	-0.000164032	9.036254883	-2.207946777	3.063964844	0.026369097	0.018119813	-0.0082016	-0.577880859	-0.140380859	-0.783203125	882.94	-34.3582658	-67.61835709	57.6142422	-78
34721	0	0.360534668	-0.081298828	0.122741699	0.999999046	-0.000389099	2.38419E-05	0.000289917	9.013366699	-2.032470703	3.06854248	-0.019454957	0.001192093	0.01449585	-0.577880859	-0.140380859	-0.780517578	882.96	-34.44644447	-67.59614204	57.65853198	-78
34722	0	0.363409042	-0.085330009	0.123911858	0.999998093	-0.001591682	-4.86374E-05	1.81198E-05	9.085226059	-2.133250237	3.09779644	-0.079584155	-0.002431871	0.000905991	-0.575439453	-0.142578125	-0.780273438	882.92	-34.62140792	-67.59849358	57.65487752	-78
34723	0	0.366333008	-0.093688965	0.127685547	0.999998093	-0.001696587	-0.000118256	-9.91821E-05	9.158325195	-2.342224121	3.192138672	-0.084829371	-0.005912784	-0.004959109	-0.575683594	-0.138183594	-0.783691406	882.94	-34.79313763	-67.61485579	57.62878118	-77
34724	0	0.361132622	-0.096000671	0.126358986	0.999999046	0.000699043	-0.000238419	8.67844E-05	9.028315544	-2.400016785	3.158974648	0.034952167	-0.01192093	0.004339219	-0.575683594	-0.135986328	-0.783691406	882.96	-34.75274327	-67.63005731	57.66374146	-77
34725	0	0.361083984	-0.087097168	0.127319336	0.999997139	0.00188446	-0.000567436	7.62939E-05	9.027099609	-2.177429199	3.182983398	0.094223083	-0.028371829	0.0038147	-0.578125	-0.137939453	-0.777587891	882.92	-34.62598521	-67.67683888	57.75600084	-77
34726	0	0.364933968	-0.086442947	0.12362957	0.999998093	0.001523018	-0.000407219	0.00014782	9.12334919	-2.161073685	3.09073925	0.076150926	-0.020360955	0.007390979	-0.578125	-0.140380859	-0.777587891	882.92	-34.53156412	-67.70401095	57.83777241	-77
34727	0	0.368713379	-0.088562012	0.122375488	0.999999046	0.000137329	-0.000277519	-0.000659943	9.217834473	-2.214050293	3.059387207	0.006866456	-0.013875963	-0.032997134	-0.580322266	-0.142333984	-0.780273438	882.92	-34.38931494	-67.77151734	57.6968876	-78
34728	0	0.36366272	-0.095126152	0.131720543	0.999998093	0.001272202	-0.000266075	-0.001267433	9.091567993	-2.378153801	3.293013573	0.063610112	-0.013303764	-0.063371693	-0.578125	-0.144775391	-0.77734375	882.96	-33.972955	-67.87627664	57.39910921	-78
34729	0	0.357177734	-0.086791992	0.127075195	0.999993324	0.003387451	-0.000510216	6.86646E-05	8.929443359	-2.169799805	3.176879883	0.16937289	-0.025510838	0.003433234	-0.577880859	-0.146972656	-0.777099609	882.96	-33.6630303	-67.91808789	57.47092198	-79
34730	0	0.361619949	-0.077135086	0.117586136	0.999992371	0.003312111	-0.001048088	0.001614571	9.040498734	-1.928377151	2.939653397	0.16560595	-0.052404532	0.080728728	-0.580078125	-0.153564453	-0.776367188	883	-33.80871356	-67.9132491	58.03017566	-78
34731	0	0.366455078	-0.075927734	0.118408203	0.999999046	6.86646E-05	-0.00064373	0.000385284	9.161376953	-1.898193359	2.960205078	0.003433228	-0.032186511	0.019264223	-0.582275391	-0.155761719	-0.773193359	883.02	-33.97370065	-67.94844421	58.21684602	-77
34732	0	0.362335205	-0.081439972	0.119843483	0.999995232	-0.002842903	-0.000171661	-0.000128746	9.058380127	-2.035999298	2.996087074	-0.142145349	-0.00858308	-0.00643731	-0.580078125	-0.153564453	-0.770751953	882.92	-34.27749554	-67.97185062	58.19802006	-77
34733	0	0.365661621	-0.092285156	0.127807617	0.999994278	-0.003188133	-0.000778198	8.01086E-05	9.141540527	-2.307128906	3.19519043	-0.159406948	-0.038909982	0.004005439	-0.582519531	-0.151123047	-0.770751953	882.96	-34.76804643	-68.03871367	58.34331402	-77
34734	0	0.36365509	-0.099052429	0.132594109	0.999998093	0.001486778	-0.000826836	-0.000270844	9.091377258	-2.47631073	3.314852715	0.07433895	-0.041341802	-0.013542182	-0.582763672	-0.146728516	-0.770996094	882.92	-34.65028537	-68.13214407	58.395316	-77
34735	0	0.363769531	-0.085144043	0.120239258	0.999993324	0.00328064	-0.000781059	0.000370026	9.094238281	-2.128601074	3.005981445	0.164032297	-0.039053038	0.018501317	-0.584960938	-0.151123047	-0.770507813	882.96	-34.46997131	-68.17972887	58.60049737	-77
34736	0	0.366336823	-0.08267498	0.120026588	0.999997139	0.001982689	-0.001037598	0.00036335	9.158420563	-2.066874504	3.000664711	0.09913453	-0.051879927	0.018167511	-0.587158203	-0.153320313	-0.773193359	882.92	-34.47864126	-68.25227967	58.84472276	-77
34737	0	0.363708496	-0.079467773	0.118225098	0.999997139	0.001796722	-0.000853539	-0.000499725	9.092712402	-1.986694336	2.955627441	0.089836184	-0.042676956	-0.024986285	-0.592041016	-0.155273438	-0.769775391	882.94	-34.27384388	-68.36368964	58.83816012	-78
34738	0	0.365569115	-0.076246262	0.115311623	0.999999046	-0.00038147	-0.000555038	-9.82285E-05	9.139227867	-1.90615654	2.882790565	-0.019073488	-0.027751925	-0.004911423	-0.592041016	-0.157470703	-0.763916016	882.94	-34.36517343	-68.42137178	58.8909009	-77
34739	0	0.372497559	-0.087280273	0.120117188	0.999997139	-0.00220871	-0.000113487	-0.000350952	9.312438965	-2.182006836	3.002929688	-0.110435578	-0.005674367	-0.017547622	-0.592041016	-0.157470703	-0.766845703	883	-34.53393844	-68.45375511	58.80485032	-77
34740	0	0.361477852	-0.087263107	0.12221241	0.999998093	-0.001661301	0.000382423	-0.000742912	9.036946297	-2.181577682	3.055310249	-0.083065081	0.019121181	-0.037145636	-0.592041016	-0.155273438	-0.772705078	882.94	-34.46489472	-68.46455836	58.52577821	-77
34741	0	0.362121582	-0.084838867	0.123291016	0.999999046	-0.000591278	-2.19345E-05	0.000370026	9.053039551	-2.12097168	3.082275391	-0.029563906	-0.001096726	0.018501283	-0.587158203	-0.155517578	-0.770019531	882.96	-34.60582452	-68.44111628	58.60622649	-76
34742	0	0.367738724	-0.086592674	0.117007256	0.999999046	-0.000671387	-9.53674E-06	0.000873566	9.193468094	-2.164816856	2.925181389	-0.033569343	-0.000476837	0.043678293	-0.589599609	-0.153076172	-0.770263672	882.94	-34.87388812	-68.38365703	58.8142435	-76
34743	0	0.365844727	-0.087524414	0.121398926	0.999998093	-0.001563072	0.000274658	-0.000301361	9.146118164	-2.188110352	3.034973145	-0.078153644	0.013732916	-0.015068061	-0.58984375	-0.148681641	-0.767578125	882.94	-34.91798229	-68.376227	58.67075178	-76
34744	0	0.362471581	-0.087696075	0.124375343	0.999999046	-9.53674E-07	-2.86102E-05	0.000117302	9.061789513	-2.192401886	3.109383583	-4.76837E-05	-0.001430511	0.005865097	-0.590087891	-0.148681641	-0.764648438	882.96	-34.93245159	-68.36959288	58.69084291	-75
34745	0	0.365844727	-0.086608887	0.117431641	0.999999046	0.000930786	-7.15256E-05	0.000740051	9.146118164	-2.165222168	2.935791016	0.046539318	-0.00357628	0.037002572	-0.58984375	-0.148681641	-0.767578125	882.96	-34.99487307	-68.32619264	58.8730232	-76
34746	0	0.366711617	-0.085163116	0.117536545	0.999999046	-0.000347137	0.000244141	0.000357628	9.167790413	-2.129077911	2.93841362	-0.017356873	0.012207032	0.017881394	-0.587646484	-0.148681641	-0.767822266	882.92	-35.06099635	-68.27841886	58.90217033	-76
34747	0	0.363647461	-0.080993652	0.117248535	0.999998093	-0.001479149	0.000434875	-0.000164032	9.091186523	-2.024841309	2.931213379	-0.073957473	0.021743783	-0.008201602	-0.587402344	-0.148681641	-0.770751953	882.94	-35.10217568	-68.24736127	58.76729475	-76
34748	0	0.364729881	-0.086724281	0.12042141	0.999997139	-0.002251625	0.00022316	0.000124931	9.118247032	-2.168107033	3.01053524	-0.112581349	0.011157999	0.006246572	-0.587402344	-0.146484375	-0.773681641	882.84	-35.33478288	-68.21715746	58.74423561	-76
34749	0	0.36529541	-0.090148926	0.121032715	0.999998093	-0.001486778	0.000202179	0.000305176	9.132385254	-2.253723145	3.025817871	-0.074338942	0.010108952	0.015258795	-0.587646484	-0.142089844	-0.771240234	883	-35.52542713	-68.17688872	58.77006139	-76
34750	0	0.364580154	-0.090427399	0.121033669	0.999999046	-0.001163483	-8.39233E-05	-0.000367165	9.11450386	-2.260684967	3.025841713	-0.058174148	-0.004196168	-0.018358235	-0.585449219	-0.139892578	-0.768554688	882.96	-35.57008207	-68.20797363	58.67783236	-76
34751	0	0.366333008	-0.096801758	0.122680664	0.999999046	0.001113892	-0.000338554	-0.000476837	9.158325195	-2.420043945	3.067016602	0.055694595	-0.016927724	-0.023841864	-0.585449219	-0.137695313	-0.771728516	882.92	-35.37104885	-68.26974205	58.59229136	-76
34752	0	0.36356926	-0.090456009	0.117936134	0.999991417	0.003907204	-0.000667572	-9.25064E-05	9.089231491	-2.261400223	2.948403358	0.195360696	-0.033378689	-0.004625333	-0.585205078	-0.142333984	-0.774169922	882.96	-34.99644454	-68.33675459	58.65513155	-77
34753	0	0.365478516	-0.073120117	0.115844727	0.999996185	0.002602577	-0.00043869	0.000160217	9.136962891	-1.82800293	2.896118164	0.130129012	-0.021934535	0.008010874	-0.58984375	-0.150878906	-0.770263672	882.96	-34.79148177	-68.36635188	58.75383977	-77
34754	0	0.364637375	-0.075275421	0.112865448	0.999998093	-0.001395226	0.00048542	-3.91006E-05	9.115934372	-1.881885529	2.8216362	-0.069761302	0.02427102	-0.001955033	-0.58984375	-0.150878906	-0.767578125	882.94	-34.84442517	-68.32265456	58.64489128	-77
34755	0	0.363464355	-0.076049805	0.109313965	0.99998188	-0.00586319	0.001019478	0.000293732	9.086608887	-1.901245117	2.732849121	-0.29316122	0.050974194	0.014686671	-0.587646484	-0.146484375	-0.768066406	882.96	-35.3990497	-68.20786185	58.53540632	-76
34756	0	0.364868164	-0.086638451	0.124614716	0.99996376	-0.008348465	0.001004219	0.000149727	9.121704102	-2.165961266	3.115367889	-0.417428169	0.050211545	0.007486432	-0.585693359	-0.135498047	-0.771972656	882.96	-36.20465184	-68.10457262	58.3922256	-75
34757	0	0.365966797	-0.09954834	0.126098633	0.999977112	-0.006648064	0.001037598	-0.000663757	9.149169922	-2.488708496	3.15246582	-0.332405716	0.051880278	-0.033188119	-0.583740234	-0.124511719	-0.778808594	883.02	-36.62198661	-68.05370567	58.03397142	-75
34758	0	0.364192963	-0.103426933	0.125730515	0.999993324	-0.003229141	0.00103569	-0.000107765	9.104824066	-2.585673332	3.143262863	-0.161457372	0.051784615	-0.00538827	-0.581542969	-0.115722656	-0.779541016	883.02	-36.77597189	-67.96503018	57.80691678	-75
34759	0	0.361755371	-0.096374512	0.125976563	0.999999046	-4.57764E-05	0.000927925	0.000289917	9.043884277	-2.409362793	3.149414063	-0.002288819	0.046396263	0.014495852	-0.581787109	-0.111328125	-0.779785156	882.96	-36.67442161	-67.85860987	57.69179059	-75
34760	0	0.361183167	-0.087805748	0.116505623	0.999999046	0.000624657	0.00034523	0.000869751	9.029579163	-2.1951437	2.912640572	0.03123284	0.017261509	0.043487558	-0.579345703	-0.111328125	-0.780029297	883.06	-36.72506891	-67.76619037	57.82255725	-75
34761	0	0.364807129	-0.089416504	0.114624023	0.999999046	-0.000453949	0.000393867	0.000675201	9.120178223	-2.235412598	2.865600586	-0.022697452	0.019693377	0.033760075	-0.579345703	-0.111328125	-0.782958984	882.92	-36.84692733	-67.6829009	57.89813099	-75
34762	0	0.363255501	-0.087632179	0.115440369	0.999999046	-0.001167297	0.000534058	0.000163078	9.08138752	-2.190804482	2.886009216	-0.058364884	0.026702888	0.008153918	-0.576904297	-0.111328125	-0.780273438	882.96	-36.91224821	-67.62226958	57.8296201	-75
34763	0	0.364379883	-0.090270996	0.119140625	0.999997139	-0.002040863	0.000439644	0.000244141	9.10949707	-2.256774902	2.978515625	-0.102043227	0.021982209	0.01220704	-0.574707031	-0.107177734	-0.783447266	882.92	-37.1112419	-67.56490894	57.79320848	-75
34764	0	0.36282444	-0.094902992	0.11925602	0.999997139	-0.001994133	0.000595093	0.000217438	9.070611	-2.372574806	2.98140049	-0.099706723	0.02975466	0.010871895	-0.577392578	-0.102539063	-0.786621094	882.94	-37.27297191	-67.49526685	57.72081984	-75
34765	0	0.362915039	-0.095031738	0.120422363	0.999998093	-0.001437187	0.000385284	0.000236511	9.072875977	-2.375793457	3.010559082	-0.071859387	0.019264228	0.011825566	-0.574951172	-0.102539063	-0.783935547	882.94	-37.4101768	-67.44347826	57.69690714	-75
34766	0	0.361980438	-0.096717834	0.123353004	0.999999046	-0.000581741	9.91821E-05	7.9155E-05	9.049510956	-2.417945862	3.083825111	-0.029087068	0.004959107	0.003957749	-0.572753906	-0.098144531	-0.787353516	882.96	-37.46276337	-67.42852584	57.67710642	-75
34767	0	0.36505127	-0.09375	0.119567871	0.999999046	0.000377655	-0.00020504	0.000320435	9.126281738	-2.34375	2.989196777	0.018882752	-0.010251999	0.016021729	-0.577392578	-0.098144531	-0.787109375	882.92	-37.50920354	-67.4245323	57.77242445	-75
34768	0	0.362844467	-0.091999054	0.121318817	0.999999046	0.000311852	-0.000246048	0.000183105	9.071111679	-2.299976349	3.032970428	0.015592576	-0.012302399	0.009155274	-0.574951172	-0.100341797	-0.786865234	883	-37.53970431	-67.43387972	57.84391332	-75
34769	0	0.362182617	-0.092956543	0.121337891	0.999999046	0.000164032	-0.000380516	-0.000110626	9.05456543	-2.323913574	3.033447266	0.008201599	-0.019025803	-0.005531311	-0.574951172	-0.100341797	-0.784179688	882.96	-37.54531666	-67.47595477	57.87065423	-74
34770	0	0.360404015	-0.091616631	0.122374535	0.999999046	-0.000240326	-0.000616074	-6.10352E-05	9.010100365	-2.290415764	3.059363365	-0.012016297	-0.030803683	-0.003051758	-0.574951172	-0.100341797	-0.789794922	882.92	-37.64759923	-67.53589963	57.9471924	-74
34771	0	0.36126709	-0.096557617	0.12298584	0.999999046	9.15527E-05	-0.000815392	-6.86646E-05	9.031677246	-2.41394043	3.074645996	0.004577637	-0.040769582	-0.003433228	-0.577392578	-0.100341797	-0.783935547	882.88	-37.74450119	-67.61419424	58.06317764	-73
34772	0	0.355254173	-0.094778061	0.122301102	0.999999046	0.000224113	-0.000894547	-0.000351906	8.881354332	-2.369451523	3.057527542	0.011205675	-0.044727333	-0.017595294	-0.577392578	-0.100341797	-0.781005859	882.94	-37.77777965	-67.71921612	58.12576228	-73
34773	0	0.356750488	-0.09576416	0.120727539	0.999998093	-0.001002312	-0.001037598	6.10352E-05	8.918762207	-2.394104004	3.018188477	-0.050115603	-0.051879901	0.003051759	-0.582275391	-0.100097656	-0.783691406	882.96	-38.06858792	-67.80778417	58.31698141	-75
34774	0	0.36839962	-0.102702141	0.119146347	0.999995232	-0.002592087	-0.001407623	-0.000182152	9.209990501	-2.56755352	2.978658676	-0.129604528	-0.070381267	-0.009107603	-0.580078125	-0.093505859	-0.781494141	883	-38.55575681	-67.9462398	58.51568188	-75
34775	0	0.370727539	-0.107971191	0.126098633	0.999994278	-0.002516747	-0.001205444	-0.001663208	9.268188477	-2.699279785	3.15246582	-0.125837547	-0.060272323	-0.083160547	-0.584960938	-0.093261719	-0.78125	882.96	-38.67338673	-68.17152819	58.33031108	-76
34776	0	0.360349655	-0.107545853	0.128288269	0.999991417	0.001948357	-0.001459122	-0.003252983	9.008741379	-2.688646317	3.207206726	0.097418099	-0.072956286	-0.162649602	-0.584960938	-0.091064453	-0.781494141	882.94	-37.95943008	-68.53128366	57.78095814	-75
34777	0	0.35144043	-0.094055176	0.122314453	0.999968529	0.006828308	-0.003409386	-0.001976013	8.786010742	-2.351379395	3.057861328	0.341418942	-0.17047105	-0.098801683	-0.589111328	-0.104248047	-0.782958984	882.96	-37.31352259	-68.97570231	57.90139327	-75
34778	0	0.366333008	-0.091572762	0.115597725	0.999956131	0.008135796	-0.004405022	-0.000951767	9.158325195	-2.289319038	2.889943123	0.406795645	-0.220254259	-0.047589034	-0.59375	-0.115234375	-0.773193359	883.02	-36.93821236	-69.4405334	58.46728252	-75
34779	0	0.369140625	-0.08026123	0.108093262	0.999960899	0.00730896	-0.004660606	-0.001586914	9.228515625	-2.006530762	2.702331543	0.365452728	-0.233033336	-0.07934673	-0.600341797	-0.130615234	-0.765625	883.02	-36.55314321	-69.97409771	58.92495057	-74
34780	0	0.401107788	-0.081288338	0.11295414	0.999984741	0.002681732	-0.004458427	-0.001392365	10.0276947	-2.032208443	2.823853493	0.134087257	-0.222922449	-0.069618562	-0.606933594	-0.141357422	-0.758544922	883.04	-36.71884636	-70.47658813	59.41390189	-73
34781	0	0.363708496	-0.084350586	0.104858398	0.999978065	0.004375458	-0.001559258	-0.004554749	9.092712402	-2.108764648	2.621459961	0.218774431	-0.077963425	-0.227739033	-0.614013672	-0.147705078	-0.749023438	883	-35.29270301	-70.9250981	58.41912333	-73
34782	0	0.332956314	-0.04328537	0.105559349	0.999992371	-0.003159523	-0.001999855	0.000597	8.323907852	-1.082134247	2.638983727	-0.157976528	-0.099992991	0.029850077	-0.613525391	-0.161132813	-0.745117188	883	-36.18111327	-71.06862998	58.99716098	-72
34783	0	0.321594238	-0.111328125	0.123718262	0.999984741	-0.003188133	-0.003520966	0.002765656	8.039855957	-2.783203125	3.092956543	-0.159407465	-0.176049165	0.138283472	-0.618896484	-0.145263672	-0.749023438	883.02	-37.9766946	-71.1946475	60.50803513	-71
34784	0	0.352733612	-0.101979256	0.131214142	0.999983788	0.001729012	-0.004907608	0.002121925	8.818340302	-2.549481392	3.280353546	0.086451032	-0.245381693	0.106096826	-0.624023438	-0.142822266	-0.743164063	883.02	-39.35837494	-71.47528825	62.16832523	-70
34785	0	0.394897461	-0.141357422	0.154724121	0.999988556	-0.000220299	-0.004703522	0.000507355	9.872436523	-3.533935547	3.868103027	-0.01101498	-0.235176966	0.025367832	-0.631103516	-0.144775391	-0.730957031	882.94	-40.54005025	-71.84138727	63.39082883	-71
34786	0	0.378669739	-0.149441719	0.157876968	0.999920845	0.012022018	-0.003391266	0.001036644	9.466743469	-3.736042976	3.94692421	0.601116662	-0.169567734	0.051833556	-0.640625	-0.146728516	-0.730224609	882.94	-40.19040002	-72.04669719	64.44549478	-75
34787	0	0.338256836	-0.121887207	0.158081055	0.999815941	0.018386841	-0.00290966	0.004608154	8.456420898	-3.047180176	3.952026367	0.919398403	-0.145491936	0.23042184	-0.642333984	-0.166503906	-0.716796875	882.96	-39.96180493	-71.94405112	66.39484473	-73
34788	0	0.330050468	-0.112558365	0.1665802	0.999846458	0.016034126	-0.001399994	0.006813049	8.251261711	-2.813959122	4.164505005	0.801747136	-0.070003259	0.340669811	-0.651367188	-0.181640625	-0.709228516	882.92	-40.21709026	-71.54227697	68.57950086	-66
34789	0	0.325744629	-0.117919922	0.166809082	0.999887466	0.012936592	0.001049042	0.007514954	8.143615723	-2.947998047	4.170227051	0.646853856	0.052454054	0.375761768	-0.655517578	-0.197021484	-0.704833984	883.02	-40.39999165	-70.86801235	70.33738892	-65
34790	0	0.338973999	-0.14715004	0.178952217	0.99988842	0.012535095	0.003318787	0.007383347	8.474349976	-3.678750992	4.473805428	0.626778022	0.16594549	0.369181029	-0.655517578	-0.201660156	-0.701660156	883.02	-40.05304932	-70.00115744	71.49205274	-74
34791	0	0.354248047	-0.163818359	0.201416016	0.999710083	0.02177906	0.007633209	0.006797791	8.856201172	-4.095458984	5.035400391	1.089058094	0.381697289	0.339922323	-0.652587891	-0.210449219	-0.701171875	882.94	-37.6738806	-68.79571749	71.59807274	-70
34792	0	0.355153084	-0.141435623	0.222234726	0.999453545	0.029334068	0.011453629	0.009983063	8.878827095	-3.535890579	5.555868149	1.466970323	0.572785643	0.499243972	-0.639648438	-0.237792969	-0.699462891	883.02	-34.64157376	-67.02012018	71.93950473	-72
34793	0	0.364318848	-0.159973145	0.232727051	0.999359131	0.0290308	0.016723633	0.012577057	9.107971191	-3.999328613	5.81817627	1.451849991	0.83636022	0.628987145	-0.631347656	-0.260253906	-0.706787109	882.96	-31.63313039	-64.58119763	72.28156113	-69
34794	0	0.35938549	-0.167904854	0.254616737	0.998754501	0.042160988	0.021199226	0.016194344	8.98463726	-4.197621346	6.365418434	2.108924938	1.060401557	0.810053482	-0.615722656	-0.289794922	-0.7109375	882.92	-27.58041133	-61.5002257	73.13905346	-85
34795	0	0.336181641	-0.13482666	0.260925293	0.99891758	0.034893036	0.024296761	0.018817902	8.404541016	-3.370666504	6.523132324	1.745281054	1.215276195	0.941234442	-0.594970703	-0.326171875	-0.717773438	882.96	-24.76299954	-57.99390933	74.51695485	-72
34796	0	0.30435276	-0.15297699	0.259451866	0.999023438	0.029020309	0.027478218	0.018823624	7.608819008	-3.824424744	6.486296654	1.451487845	1.374358175	0.941487581	-0.570068359	-0.347167969	-0.729003906	882.94	-22.47383434	-54.18458178	75.78931538	-82
34797	0	0.259765625	-0.161560059	0.26550293	0.99905777	0.026940346	0.028717041	0.018230438	6.494140625	-4.039001465	6.637573242	1.347440341	1.436303003	0.91180819	-0.54296875	-0.363769531	-0.743652344	882.88	-20.32590703	-50.29471088	77.00181905	-83
34798	0	0.221280098	-0.160933495	0.256174088	0.998949051	0.031184196	0.02752018	0.01922226	5.532002449	-4.023337364	6.404352188	1.559755884	1.376490888	0.961449573	-0.515869141	-0.384765625	-0.751953125	882.88	-17.91644937	-46.52668634	78.57275006	-76
34799	0	0.181762695	-0.13104248	0.232177734	0.999223709	0.023140907	0.026012421	0.018432617	4.544067383	-3.276062012	5.804443359	1.157344845	1.300957675	0.921869407	-0.490722656	-0.407958984	-0.763183594	883	-16.38146059	-42.98700718	80.17842757	-74
34800	0	0.142162323	-0.132676125	0.229969978	0.999319077	0.022043228	0.023396492	0.018052101	3.554058075	-3.316903114	5.749249458	1.102411233	1.170089762	0.902809649	-0.466308594	-0.422119141	-0.771972656	882.96	-14.96258582	-39.77626689	81.85187916	-79
34801	0	0.10949707	-0.108337402	0.216125488	0.999418259	0.020001411	0.021404266	0.017425537	2.737426758	-2.708435059	5.403137207	1.000264328	1.070420664	0.871445659	-0.446289063	-0.438476563	-0.777587891	883.02	-13.7112625	-36.83317855	83.52276353	-74
34802	0	0.068505287	-0.087325096	0.191887856	0.999591827	0.014704704	0.018202782	0.016346931	1.712632179	-2.183127403	4.797196388	0.735335095	0.910262725	0.817457608	-0.433837891	-0.452148438	-0.782714844	882.94	-12.97854765	-34.29735941	85.16475896	-71
34803	0	0.048583984	-0.081359863	0.181762695	0.999716759	0.006938934	0.015667915	0.016460419	1.214599609	-2.033996582	4.544067383	0.346979371	0.783469501	0.823098398	-0.421630859	-0.457275391	-0.788818359	882.94	-13.11376147	-32.04703305	86.87795609	-82
34804	0	-0.003993034	-0.047179222	0.156834602	0.999791145	0.005438805	0.009840012	0.016954422	-0.099825859	-1.179480553	3.920865059	0.271958992	0.492034523	0.847779584	-0.414550781	-0.453125	-0.798339844	882.92	-13.47280268	-30.42502444	88.75262517	-74
34805	0	-0.032348633	-0.041870117	0.178283691	0.999801636	0.009335518	0.006053925	0.016468048	-0.80871582	-1.04675293	4.457092285	0.466806629	0.302716159	0.823456622	-0.414306641	-0.450927734	-0.804199219	883	-13.35370847	-29.23062133	90.60869178	-82
34806	0	-0.067936897	-0.032284737	0.157500267	0.999645233	0.021723747	-0.000880241	0.015345573	-1.698422432	-0.807118416	3.937506676	1.086315607	-0.044017266	0.767369262	-0.423583984	-0.461669922	-0.800048828	882.96	-11.81736437	-28.85922033	92.45478946	-84
34807	0	-0.060668945	0.003601074	0.198608398	0.999526024	0.025917053	0.000206947	0.016555786	-1.516723633	0.090026855	4.965209961	1.296057024	0.010348998	0.827919854	-0.444335938	-0.487548828	-0.776367188	883.02	-9.843614924	-28.38764982	94.47108813	-79
34808	0	0.033571243	0.055210114	0.201557159	0.999218941	0.035050392	0.003128052	0.017948151	0.839281082	1.380252838	5.038928986	1.752975715	0.156443293	0.897641089	-0.462158203	-0.524414063	-0.749267578	883	-6.854599057	-27.64201698	96.64042465	-89
34809	0	0.309143066	0.097167969	0.122253418	0.999171257	0.022895813	0.025635719	0.02179718	7.72857666	2.429199219	3.056335449	1.145106948	1.282140114	1.09016013	-0.478027344	-0.557128906	-0.716552734	882.96	-5.253192608	-24.37934306	99.26055465	-79
34810	0	0.451165199	0.07281208	-0.28819561	0.998626709	-0.006707191	0.042765617	0.029497147	11.27912998	1.82030201	-7.204890251	-0.335513132	2.139259973	1.475532658	-0.465576172	-0.564208984	-0.731201172	883.08	-7.111923672	-19.09411254	102.6564989	-76
34811	0	1.567565918	-0.190124512	0.574645996	0.998087883	-0.061058044	-0.009150505	-0.002780914	39.18914795	-4.753112793	14.3661499	-3.054849022	-0.457817012	-0.139134383	-0.440673828	-0.510009766	-0.789306641	883	-14.03790222	-20.20496511	102.5964535	-78
34812	0	0.840085983	-0.965866089	1.865351677	0.967360497	-0.144284248	0.151899338	0.142551422	21.00214958	-24.14665222	46.63379192	-7.293739345	7.678691119	7.20614293	-0.407714844	-0.347167969	-0.900146484	883.02	-32.30826846	2.400669174	111.2843385	-71
34813	0	-0.251403809	-0.601318359	0.25	0.998113632	-0.04362011	-0.039676666	-0.017063141	-6.285095215	-15.03295898	6.25	-2.182377514	-1.985081312	-0.853693751	-0.260498047	-0.017089844	-1.002441406	883.02	-37.3380057	-2.46584572	112.0534652	-76
34814	0	0.184767723	-0.142112732	0.320104599	0.998774529	-0.027196884	-0.038059235	0.016143799	4.619193077	-3.552818298	8.002614975	-1.360399818	-1.90373925	0.807519746	-0.367919922	0.029052734	-0.971435547	883.1	-40.7388958	-4.715028718	116.1946054	-89
34815	0	0.209411621	-0.386535645	0.156616211	0.999540329	-0.029330254	0.005184174	0.00553894	5.235290527	-9.663391113	3.915405273	-1.466737105	0.259248347	0.276989404	-0.407470703	0.108398438	-0.947021484	883	-44.13321721	-3.882677322	116.3132617	-90
34816	0	-0.027587891	-0.293457031	0.294189453	0.999985695	0.003731728	0.000728607	0.003761292	-0.689697266	-7.336425781	7.354736328	0.18658727	0.036430533	0.188065472	-0.389892578	0.145751953	-0.947998047	883.06	-43.74963602	-3.554256109	116.588945	-81
34817	0	-0.00358963	-0.191474915	0.33452034	0.999819756	-0.018783569	0.000378609	0.002369881	-0.089740753	-4.786872864	8.363008499	-0.939234605	0.018931567	0.118501117	-0.387695313	0.145507813	-0.9453125	883.02	-45.93451798	-3.360649971	116.7509367	-87
34818	0	0.04240799	-0.363418579	0.245726585	0.999876976	-0.015523911	-0.000377655	0.001868248	1.060199738	-9.085464478	6.143164635	-0.776227176	-0.018883521	0.093416208	-0.389892578	0.192382813	-0.934570313	882.96	-47.74970614	-3.263308947	116.9335984	-81
34819	0	0.019348145	-0.29888916	0.258239746	0.999998093	-0.000700951	0.000385284	0.001186371	0.483703613	-7.472229004	6.455993652	-0.035047543	0.019264228	0.059318563	-0.388183594	0.210205078	-0.933349609	882.94	-47.85914014	-3.161500783	116.9967718	-79
34820	0	0.025239944	-0.312624931	0.262336731	0.999991417	0.003991127	-0.000135422	-0.000998497	0.630998611	-7.815623283	6.558418274	0.199556914	-0.006771107	-0.049924991	-0.388183594	0.212402344	-0.936279297	882.94	-47.42405171	-3.284581764	116.9341719	-79
34821	0	0.034240723	-0.339233398	0.233947754	0.999949455	0.009738922	-0.001879692	-0.001502991	0.856018066	-8.480834961	5.848693848	0.486954274	-0.09398618	-0.075150797	-0.385498047	0.201171875	-0.935546875	883.06	-46.3386118	-3.585430887	116.97301	-79
34822	0	0.057433128	-0.35574913	0.268610001	0.999834061	0.017455101	-0.004658699	-0.001976013	1.435828209	-8.893728256	6.715250015	0.872803101	-0.232947776	-0.098806099	-0.391357422	0.174560547	-0.941650391	883.02	-44.38330359	-4.150154233	117.1909929	-79
34823	0	0.083679199	-0.352661133	0.281860352	0.999611855	0.026016235	-0.004847527	0.008647919	2.09197998	-8.81652832	7.046508789	1.300979876	-0.242407651	0.432451815	-0.401611328	0.137207031	-0.943847656	883.1	-41.51169996	-3.911328212	118.2985829	-78
34824	0	0.169799805	-0.248474121	0.293029785	0.999243736	0.032719612	-0.011196136	0.017745972	4.244995117	-6.211853027	7.325744629	1.636392839	-0.559947883	0.887522165	-0.409179688	0.095214844	-0.942871094	883	-37.95002838	-3.632992765	120.6822916	-75
34825	0	0.200927734	-0.198791504	0.314331055	0.999874115	0.014286995	-0.006755829	-0.00043869	5.023193359	-4.969787598	7.858276367	0.714379509	-0.337805516	-0.021935423	-0.424072266	0.049072266	-0.938232422	882.94	-36.37251339	-4.32210945	121.1004792	-75
34826	0	0.203308105	-0.269470215	0.314453125	0.999602318	0.000286102	-0.006954193	-0.027313232	5.082702637	-6.736755371	7.861328125	0.01430701	-0.347755712	-1.365842512	-0.437744141	0.031738281	-0.930175781	883.02	-36.16848146	-6.866593574	119.0309693	-84
34827	0	0.135070801	-0.352844238	0.32043457	0.99798584	0.012524605	-0.012081146	-0.06098938	3.37677002	-8.821105957	8.010864258	0.626650839	-0.604463019	-3.051517131	-0.450195313	-0.010009766	-0.923095703	883.02	-33.93761077	-12.07468685	114.0281679	-79
34828	0	0.094239235	-0.394127846	0.36649704	0.994483948	0.045537949	-0.027823448	-0.090296745	2.355980873	-9.853196144	9.162425995	2.281093059	-1.393735916	-4.523156736	-0.467529297	-0.113769531	-0.901855469	883.1	-26.59910026	-20.122489	106.3711366	-76
34829	0	0.102416992	-0.208068848	0.440246582	0.990879059	0.061032295	-0.047969818	-0.110145569	2.560424805	-5.201721191	11.00616455	3.060926299	-2.405809536	-5.524083064	-0.486572266	-0.304199219	-0.844482422	883	-14.94423014	-29.84491443	95.42820699	-85
34830	0	0.085036278	-0.059376717	0.273573875	0.992090225	0.017670631	-0.064116478	-0.106454849	2.125906944	-1.484417915	6.839346886	0.885868302	-3.214302543	-5.336819855	-0.474609375	-0.517333984	-0.737548828	883	-5.461223599	-39.35654125	82.34064718	-79
34831	0	0.055603027	-0.170959473	0.185180664	0.992071152	-0.065512657	-0.080680847	-0.070663452	1.390075684	-4.273986816	4.629516602	-3.284317631	-4.044737922	-3.542540202	-0.465332031	-0.592773438	-0.679443359	882.94	-5.984414179	-49.45731805	72.33776247	-75
34832	0	-0.036594391	-0.146494865	0.119519234	0.995235443	-0.044698715	-0.082829475	-0.025434494	-0.914859772	-3.662371635	2.987980843	-2.238491731	-4.148063202	-1.273748121	-0.509521484	-0.562255859	-0.676757813	882.96	-8.790569326	-59.29610591	69.40590288	-72
34833	0	-0.000671387	0.075073242	0.350891113	0.997591972	0.000587463	-0.067793846	0.014598846	-0.016784668	1.876831055	8.772277832	0.029396765	-3.392415312	0.730528699	-0.599609375	-0.541015625	-0.612792969	882.96	-15.07876548	-66.59131318	76.44021311	-73
34834	0	0.038740158	0.254084587	0.127729416	0.998708725	-0.013264656	-0.037425041	0.031685829	0.968503952	6.352114677	3.193235397	-0.663518389	-1.872057814	1.584973648	-0.687988281	-0.512939453	-0.531982422	882.96	-28.84736833	-69.25036643	89.654337	-74
34835	0	0.496276855	-0.348510742	0.178161621	0.998434067	0.002293587	-0.0287323	0.047924042	12.40692139	-8.712768555	4.454040527	0.114739198	-1.437364886	2.397452877	-0.750976563	-0.452392578	-0.484130859	883	-45.17940274	-68.58284902	107.4264946	-76
34836	0	0.814126015	-0.244375229	0.18585968	0.999520302	-0.004422188	-0.018861771	0.024160385	20.35315037	-6.109380722	4.646492004	-0.221144748	-0.943239341	1.208212431	-0.811767578	-0.381103516	-0.440429688	882.96	-54.32155055	-67.88182074	116.741683	-76
34837	0	0.343017578	-0.109985352	0.064208984	0.999910355	-0.003027916	-0.008979797	0.009361267	8.575439453	-2.749633789	1.605224609	-0.151400275	-0.449003147	0.468077198	-0.834960938	-0.351318359	-0.415527344	883	-58.23125875	-67.57847569	120.6219507	-76
34838	0	0.33775425	-0.129929543	0.056386948	0.999907494	-0.000627518	0.000383377	0.013516426	8.443856239	-3.248238564	1.409673691	-0.031376843	0.019169439	0.675841945	-0.850341797	-0.328369141	-0.407958984	882.92	-60.09811753	-66.24301267	122.6144837	-78
34839	0	0.382263184	-0.161865234	0.078613281	0.999934196	0.001407623	0.004681587	0.010368347	9.55657959	-4.046630859	1.965332031	0.070382706	0.234084488	0.518428713	-0.856201172	-0.305908203	-0.409423828	883.02	-60.23541958	-64.96171868	122.9855042	-79
34840	0	0.394737244	-0.18384552	0.08368969	0.999960899	-0.000315666	0.0073452	0.004833221	9.868431091	-4.596138	2.092242241	-0.015783514	0.367264718	0.24166419	-0.854003906	-0.292724609	-0.422363281	883.06	-59.35192317	-64.07487087	122.0042581	-79
34841	0	0.36151123	-0.164611816	0.077392578	0.999956131	2.76566E-05	0.008983612	0.002471924	9.037780762	-4.11529541	1.934814453	0.001382848	0.449187103	0.12359798	-0.851806641	-0.284179688	-0.437744141	882.96	-57.89113779	-63.31198632	120.4127535	-79
34842	0	0.348898888	-0.175433159	0.096510887	0.999925613	-0.00156498	0.011979103	-0.001624107	8.722472191	-4.385828972	2.412772179	-0.078250916	0.598969988	-0.081207379	-0.842041016	-0.282226563	-0.455810547	882.94	-55.6352555	-62.72918486	117.715358	-79
34843	0	0.349060059	-0.157470703	0.119873047	0.999960899	-0.000389099	0.007779121	-0.004016876	8.726501465	-3.936767578	2.996826172	-0.019455205	0.388961049	-0.200846382	-0.83203125	-0.287353516	-0.476074219	883	-53.77527302	-62.6031952	115.5956508	-79
34844	0	0.342918396	-0.170362473	0.109390259	0.999934196	-0.001013756	0.006477356	-0.009314537	8.5729599	-4.259061813	2.73475647	-0.050688886	0.323874802	-0.465736924	-0.821777344	-0.296630859	-0.493408203	882.96	-51.49938184	-63.01360453	112.9200374	-84
34845	0	0.340759277	-0.156494141	0.112243652	0.999880791	-0.001907349	0.005608559	-0.014240265	8.518981934	-3.912353516	2.806091309	-0.095371213	0.280439052	-0.712041476	-0.808837891	-0.314941406	-0.504150391	883.02	-48.65309777	-63.86472008	109.505195	-86
34846	0	0.351691246	-0.143252373	0.104925156	0.999817848	0.000202179	0.006645203	-0.017882347	8.792281151	-3.581309319	2.623128891	0.010109561	0.332280291	-0.894171604	-0.795654297	-0.33984375	-0.511474609	883.1	-44.55982393	-64.84324967	105.0061839	-90
34847	0	0.345458984	-0.136169434	0.131103516	0.999739647	0.003643036	0.006363869	-0.021583557	8.636474609	-3.40423584	3.277587891	0.182167573	0.318220999	-1.079271339	-0.770263672	-0.372070313	-0.521728516	883.1	-39.06473989	-65.96087829	99.42901313	-84
34848	0	0.35787487	-0.120234489	0.11471653	0.999629974	0.007730484	0.007025719	-0.025103569	8.946871758	-3.005862236	2.867913246	0.386571843	0.351329234	-1.255333164	-0.749511719	-0.410644531	-0.528320313	883.1	-31.72950767	-66.9837	92.39900481	-79
34849	0	0.360961914	-0.07824707	0.119689941	0.999556541	0.006458282	0.00949192	-0.027446747	9.024047852	-1.956176758	2.992248535	0.322961779	0.474666065	-1.372539871	-0.71875	-0.460693359	-0.531738281	883.02	-23.1438711	-67.48042059	83.90540284	-76
34850	0	0.34997654	-0.052225113	0.139955521	0.999546051	0.005242348	0.010956764	-0.027565002	8.74941349	-1.305627823	3.498888016	0.262157041	0.547921093	-1.378458636	-0.680664063	-0.510986328	-0.544189453	883.02	-14.38043387	-67.31821753	75.08096479	-74
34851	0	0.360595703	-0.039978027	0.151428223	0.99962616	0.002430916	0.010982513	-0.024887085	9.014892578	-0.999450684	3.785705566	0.121560907	0.549193959	-1.244508992	-0.640625	-0.552490234	-0.557373047	883.06	-6.952869802	-66.61811277	67.33111085	-72
34852	0	0.358858109	0.017269135	0.173480034	0.999818802	0.000185013	0.008009911	-0.017255783	8.971452713	0.431728363	4.337000847	0.009251199	0.400519693	-0.862841211	-0.603271484	-0.584960938	-0.5625	883.02	-2.274273536	-65.87055972	62.26883881	-70
34853	0	0.348693848	0.02947998	0.174987793	0.999927521	0.000103951	0.0051651	-0.010822296	8.717346191	0.736999512	4.374694824	0.00519765	0.258261195	-0.541127778	-0.578369141	-0.603759766	-0.579589844	883.02	0.505319592	-65.30521296	59.24341241	-70
34854	0	0.350793839	-0.048225403	0.13199234	0.999911308	0.001243591	0.007528305	-0.010883331	8.769845963	-1.205635071	3.299808502	0.062181396	0.376426337	-0.544182589	-0.561279297	-0.615478516	-0.582519531	882.96	3.253617136	-64.41009277	56.38300099	-70
34855	0	0.367736816	0.047058105	0.177246094	0.999835014	-0.001831055	0.014935493	-0.010162354	9.19342041	1.176452637	4.431152344	-0.091557766	0.746815714	-0.508145601	-0.531982422	-0.629882813	-0.594482422	882.94	5.138478637	-62.62506995	54.07354627	-71
34856	0	0.369980812	0.012173653	0.147257805	0.999794006	-0.000360489	0.019463539	-0.005596161	9.249520302	0.304341316	3.681445122	-0.018025677	0.973243514	-0.279827181	-0.507568359	-0.637451172	-0.609619141	882.88	5.891379591	-60.35218136	53.210487	-73
34857	0	0.360107422	0.045227051	0.190612793	0.999706268	0.000279427	0.024139404	0.00194931	9.002685547	1.13067627	4.765319824	0.013972695	1.207088245	0.097475046	-0.471191406	-0.641113281	-0.631591797	882.94	5.126020509	-57.62901192	54.18026883	-76
34858	0	0.333249092	-0.031731606	0.195286751	0.999564171	0.008211136	0.028326035	0.000202179	8.331227303	-0.793290138	4.88216877	0.410616335	1.416507131	0.010110414	-0.444580078	-0.640136719	-0.656494141	883	5.591067947	-54.40863029	54.77788742	-77
34859	0	0.360046387	-0.039611816	0.212768555	0.999408722	0.016041756	0.030097961	-0.004245758	9.001159668	-0.99029541	5.319213867	0.802245779	1.505194506	-0.212329719	-0.405761719	-0.656982422	-0.665771484	883.02	7.548059781	-50.9372547	54.64344911	-74
34860	0	0.37166214	-0.029773712	0.288309097	0.998846054	0.03253746	0.034192085	-0.008841515	9.291553497	-0.744342804	7.207727432	1.627498916	1.710261992	-0.442245807	-0.356689453	-0.685302734	-0.669189453	883.02	11.67074321	-46.91518615	54.10301472	-68
34861	0	0.419250488	-0.032775879	0.305969238	0.997804642	0.048592567	0.042121887	-0.01581192	10.48126221	-0.819396973	7.649230957	2.431407745	2.107636788	-0.791175013	-0.297851563	-0.740722656	-0.64453125	883	17.75064156	-41.79828177	53.34150011	-70
34862	0	0.480581284	-0.05211544	0.131250381	0.995018005	0.0750494	0.061085701	-0.023952484	12.01453209	-1.302886009	3.281259537	3.758713064	3.059366515	-1.199616714	-0.209716797	-0.821044922	-0.584716797	883	26.296548	-34.30101304	53.40386382	-78
34863	0	0.576416016	0.107299805	0.197021484	0.998678207	0.03772831	0.034881592	0.001296997	14.41040039	2.682495117	4.925537109	1.88724707	1.744848432	0.064878441	-0.112548828	-0.910400391	-0.475585938	883	29.32849158	-30.8758185	55.74956551	-75
34864	0	0.367378235	0.338478088	-0.033847809	0.997677803	-0.06264019	0.026500702	0.003376007	9.184455872	8.461952209	-0.846195221	-3.134435343	1.326061375	0.168931095	-0.090820313	-0.919921875	-0.472900391	883.02	21.20637725	-28.34717476	57.77246421	-74
34865	0	0.307434082	0.240356445	0.026611328	0.996706009	-0.08009243	0.007698059	0.010070801	7.685852051	6.008911133	0.665283203	-4.00902326	0.385326027	0.504093514	-0.075439453	-0.832519531	-0.617431641	882.96	11.30338746	-27.88712666	59.39627814	-81
34866	0	0.225423813	0.25812912	0.28427124	0.996620178	-0.080019951	-0.004401207	0.018007278	5.635595322	6.453227997	7.106781006	-4.005510263	-0.220308554	0.901379441	-0.089599609	-0.724121094	-0.741455078	883.06	1.066086293	-28.67733947	61.72024473	-72
34867	0	0.278442383	0.078979492	0.373291016	0.99773407	-0.059958458	-0.014083862	0.027057648	6.96105957	1.974487305	9.332275391	-3.000188692	-0.704725336	1.353904878	-0.124267578	-0.596679688	-0.840087891	883	-7.592487078	-30.18314786	65.35333303	-69
34868	0	0.351870537	-0.040602684	0.346782684	0.999320984	-0.009054184	-0.021071434	0.028812408	8.79676342	-1.015067101	8.669567108	-0.452811583	-1.053809978	1.440946235	-0.182373047	-0.501708984	-0.882324219	882.96	-10.8222582	-32.11653467	69.4641579	-73
34869	0	0.401977539	-0.015869141	0.278747559	0.999119759	-0.001819611	-0.027945518	0.031227112	10.04943848	-0.396728516	6.968688965	-0.091007229	-1.397685976	1.561813794	-0.249755859	-0.490478516	-0.870849609	883	-13.77422492	-34.57123479	74.30075931	-78
34870	0	0.3559618	-0.078564644	0.231017113	0.999106407	-0.003923416	-0.034173965	0.024537086	8.899044991	-1.964116096	5.775427818	-0.196229225	-1.709207111	1.227219673	-0.325195313	-0.4609375	-0.851806641	883.02	-16.96482373	-37.69662436	78.76086004	-74
34871	0	0.363037109	-0.090270996	0.196655273	0.998901367	-0.005793571	-0.043895721	0.015296936	9.075927734	-2.256774902	4.916381836	-0.289784623	-2.19558957	0.765126808	-0.405273438	-0.435791016	-0.826416016	882.96	-20.37304428	-42.00208548	82.8187938	-78
34872	0	0.334179878	-0.154967308	0.241609573	0.998672485	-0.008308411	-0.050639153	0.004249573	8.354496956	-3.874182701	6.040239334	-0.415604327	-2.533077841	0.212572645	-0.490234375	-0.412597656	-0.782958984	882.96	-23.96106713	-47.29412291	86.33783766	-86
34873	0	0.246154785	-0.155822754	0.257080078	0.998474121	0.007122993	-0.05424118	-0.007396698	6.153869629	-3.895568848	6.427001953	0.35633082	-2.713438438	-0.370023007	-0.560302734	-0.409667969	-0.727294922	882.94	-25.38155616	-53.39214248	88.96135114	-71
34874	0	0.169426918	-0.135830879	0.295042992	0.996917725	-0.054184914	-0.053174019	-0.019783974	4.235672951	-3.39577198	7.376074791	-2.712032591	-2.661435859	-0.99021624	-0.635253906	-0.413330078	-0.658935547	882.94	-33.17201009	-59.90012874	90.80193325	-73
34875	0	0.107971191	-0.223693848	0.370239258	0.997834206	-0.007324219	-0.052401543	-0.039073944	2.699279785	-5.592346191	9.255981445	-0.366475512	-2.621970044	-1.95510868	-0.679931641	-0.380371094	-0.627441406	883	-33.11779392	-67.44445588	89.58393163	-81
34876	0	0.023826599	-0.044248581	0.560408592	0.998558998	-0.000781059	-0.044084549	-0.030579567	0.595664978	-1.106214523	14.01021481	-0.039071728	-2.205286544	-1.529712997	-0.707275391	-0.445556641	-0.539306641	882.96	-32.65894882	-73.63105773	88.92454395	-79
34877	0	0.059936523	-0.241821289	0.732421875	0.999425888	-0.01670742	-0.00213623	-0.02936554	1.498413086	-6.045532227	18.31054688	-0.835530661	-0.106831936	-1.468557572	-0.718505859	-0.478271484	-0.501220703	882.94	-24.25909777	-75.45950084	78.33910946	-83
34878	0	0.19586277	-0.261670113	0.621843338	0.999563217	0.007086754	0.026701927	-0.010417938	4.896569252	-6.541752815	15.54608345	0.354389195	1.335290413	-0.520972623	-0.685791016	-0.508300781	-0.523681641	882.96	-15.75539484	-72.9567112	70.49011469	-82
34879	0	0.445922852	-0.018432617	0.168640137	0.999643326	-0.002367973	0.026481628	-0.002334595	11.14807129	-0.46081543	4.216003418	-0.118412727	1.324238669	-0.116743599	-0.644042969	-0.527832031	-0.556396484	883	-12.99163692	-70.05119446	67.4532936	-79
34880	0	0.367406845	0.12609005	0.1723423	0.999854088	0.004576683	0.015855789	-0.004226685	9.185171127	3.152251244	4.30855751	0.228845222	0.792827811	-0.211344452	-0.617431641	-0.524658203	-0.58984375	882.96	-10.22970268	-68.33785604	65.14411755	-76
34881	0	0.355529785	-0.030822754	0.172546387	0.999832153	0.004059792	0.016246796	-0.007377625	8.888244629	-0.770568848	4.313659668	0.203000909	0.812385128	-0.368901817	-0.590087891	-0.543457031	-0.601318359	882.96	-7.055340445	-66.59168612	62.30575529	-75
34882	0	0.427746773	-0.016470909	0.158610344	0.999932289	0.003650665	0.01052475	0.003209114	10.69366932	-0.411772728	3.965258598	0.182537353	0.526249276	0.160459298	-0.565917969	-0.551025391	-0.616699219	883	-7.104459887	-65.31927383	62.88506574	-74
34883	0	0.387939453	-0.048706055	0.213684082	0.999957085	0.001102448	0.009175301	-0.000648499	9.698486328	-1.217651367	5.342102051	0.055123164	0.458771592	-0.032425391	-0.555908203	-0.553710938	-0.631347656	883.02	-6.542243923	-64.2528025	62.45789663	-72
34884	0	0.491776466	-0.121024132	0.27178669	0.999927521	0.001438141	0.01189518	-0.000946045	12.29441166	-3.025603294	6.794667244	0.071908775	0.594773308	-0.047303385	-0.541503906	-0.554199219	-0.635009766	882.94	-5.862211184	-62.87663322	61.94623434	-70
34885	0	0.537536621	-0.007568359	0.394714355	0.999866486	0.004418373	0.015457153	-0.002872467	13.43841553	-0.189208984	9.867858887	0.220928476	0.772892023	-0.143629737	-0.524414063	-0.554931641	-0.653320313	883	-4.43579965	-61.10458746	60.94813893	-70
34886	0	0.514928818	-0.005059242	0.409190178	0.999777794	-0.01492691	0.014846802	-0.000854492	12.87322044	-0.126481056	10.22975445	-0.746400757	0.742395028	-0.042727771	-0.500244141	-0.560302734	-0.668701172	882.96	-5.707320264	-59.37664305	60.55055705	-75
34887	0	0.494262695	-0.03112793	0.346801758	0.999866486	-0.004881859	0.015403748	-0.002227783	12.35656738	-0.778198242	8.670043945	-0.244103767	0.770221536	-0.1113941	-0.481689453	-0.534423828	-0.700927734	882.96	-5.564544563	-57.60194539	59.78481553	-80
34888	0	0.488633156	-0.105933189	0.191223145	0.999492645	0.022434235	0.021302223	0.007536888	12.2158289	-2.648329735	4.780578613	1.121901365	1.065291226	0.376908115	-0.457519531	-0.535400391	-0.716552734	882.96	-3.982952036	-55.05968041	60.95199418	-79
34889	0	0.494934082	0.027282715	0.073852539	0.999494553	0.017136574	0.024021149	0.011764526	12.37335205	0.682067871	1.846313477	0.856972857	1.20125952	0.588325291	-0.437744141	-0.556152344	-0.707275391	882.9	-3.597474558	-52.19769585	62.9309873	-78
34890	0	0.453056335	0.061100006	0.068635941	0.999620438	0.000884056	0.020607948	0.01823616	11.32640839	1.527500153	1.715898514	0.044208391	1.030527638	0.911923249	-0.420898438	-0.556884766	-0.725585938	882.96	-5.81676435	-49.65812876	65.94780025	-75
34891	0	0.410888672	0.067260742	0.072143555	0.999341965	-0.026263237	0.015014648	0.020000458	10.2722168	1.681518555	1.803588867	-1.313449869	0.750897082	1.000242226	-0.412353516	-0.526123047	-0.74609375	883	-11.10354765	-47.61673202	69.0696564	-80
34892	0	0.408358574	0.020789146	0.043626785	0.998094559	-0.060428619	0.008845329	0.008752823	10.20896435	0.519728661	1.090669632	-3.023351091	0.442547525	0.437919265	-0.409667969	-0.453125	-0.795654297	882.96	-18.77908847	-46.39093278	70.25247374	-74
34893	0	0.352355957	-0.073791504	0.053588867	0.996069908	-0.088527679	0.00180912	0.002017975	8.808898926	-1.844787598	1.33972168	-4.432191621	0.090574692	0.101031127	-0.402099609	-0.327148438	-0.855957031	882.94	-29.06189894	-46.13089346	70.61937985	-71
34894	0	0.305271149	-0.11383152	0.064108849	0.996544838	-0.082408905	-0.004415512	-0.009344101	7.631778717	-2.845788002	1.602721214	-4.125197181	-0.221030215	-0.467743855	-0.401367188	-0.162841797	-0.895751953	882.94	-37.86211905	-47.17470102	69.83759804	-69
34895	0	0.250305176	-0.164489746	0.058227539	0.998608589	-0.045383453	-0.005068779	-0.026344299	6.257629395	-4.112243652	1.455688477	-2.270225131	-0.253556497	-1.317825902	-0.406494141	-0.038085938	-0.905761719	882.96	-40.8541544	-49.57435145	66.84967529	-77
34896	0	0.176220894	-0.158945084	0.085532188	0.999201775	-0.009877205	-0.006307602	-0.038187027	4.405522346	-3.97362709	2.13830471	-0.493991673	-0.315464026	-1.909859472	-0.417724609	-0.004394531	-0.899414063	882.96	-38.35612109	-52.95835232	62.06943228	-72
34897	0	0.13067627	-0.112792969	0.14453125	0.998977661	0.00339222	-0.007003784	-0.044528961	3.266906738	-2.819824219	3.61328125	0.169668794	-0.350308581	-2.227207007	-0.428466797	-0.032714844	-0.890625	882.88	-32.73333539	-56.61390214	55.51991221	-75
34898	0	0.063904762	-0.045501709	0.181367874	0.999078751	-0.012602806	-0.003815651	-0.040822029	1.597619057	-1.137542725	4.534196854	-0.63033369	-0.190841097	-2.041727854	-0.436279297	-0.074707031	-0.883789063	882.92	-28.05027538	-59.38608758	48.24071877	-74
34899	0	0.086914063	-0.053161621	0.144836426	0.998113632	-0.04890728	-0.005764008	-0.036659241	2.172851563	-1.329040527	3.620910645	-2.446902724	-0.288381726	-1.834115413	-0.434082031	-0.0703125	-0.881347656	882.96	-27.56441599	-61.95204287	41.3126712	-65
34900	0	0.134852409	-0.160999298	0.237493515	0.997591972	-0.063204765	-0.005998611	-0.027917862	3.371310234	-4.024982452	5.937337875	-3.162777346	-0.30017155	-1.397014621	-0.441894531	-0.003417969	-0.880615234	883	-29.92432257	-64.10280585	35.92865037	-69
34901	0	0.258361816	-0.245788574	0.226196289	0.998486519	-0.050804138	-0.003767967	-0.020713806	6.45904541	-6.144714355	5.654907227	-2.541489055	-0.188493453	-1.036213062	-0.450195313	0.074951172	-0.866455078	882.92	-31.85838279	-65.69157577	31.70443897	-70
34902	0	0.387350082	-0.2906847	0.178995132	0.999263763	-0.033041954	-0.009091377	-0.017217636	9.68375206	-7.2671175	4.474878311	-1.652502974	-0.454680372	-0.861092986	-0.457763672	0.137451172	-0.856689453	883.02	-33.0878793	-67.62355008	28.92997812	-65
34903	0	0.530639648	-0.293029785	0.18572998	0.999746323	-0.006293297	-0.01448822	-0.016025543	13.26599121	-7.325744629	4.643249512	-0.314691401	-0.724472157	-0.801344795	-0.483154297	0.163085938	-0.837158203	882.96	-32.15054224	-70.00155561	27.09031836	-66
34904	0	0.405078888	-0.204104424	0.133358955	0.999891281	-0.002658844	-0.014388084	-0.001786232	10.1269722	-5.102610588	3.333973885	-0.132947014	-0.719430275	-0.089314834	-0.511474609	0.150878906	-0.822998047	882.96	-34.60157709	-71.47750966	29.33963515	-66
34905	0	0.323913574	-0.139831543	0.152709961	0.99944973	-0.028308868	-0.012690544	0.011672974	8.097839355	-3.495788574	3.817749023	-1.41570274	-0.634643456	0.58375561	-0.533935547	0.165039063	-0.799804688	883	-43.77299344	-71.7414588	35.65860204	-67
34906	0	0.274518967	-0.156576157	0.161929131	0.999281883	-0.036945343	-0.002233505	0.008043289	6.862974167	-3.914403915	4.048228264	-1.847709131	-0.111701982	0.402260682	-0.544677734	0.236816406	-0.770507813	883	-50.47482107	-71.21550179	38.31986102	-67
34907	0	0.256408691	-0.1640625	0.110473633	0.999987602	0.004486084	0.000451088	-0.001621246	6.410217285	-4.1015625	2.76184082	0.224305057	0.022554484	-0.081062627	-0.542236328	0.288085938	-0.760253906	882.92	-49.52606244	-71.2955369	37.78543457	-66
34908	0	0.340899467	-0.130387306	0.045977592	0.999712944	0.022162437	-0.001203537	-0.008927345	8.522486687	-3.259682655	1.149439812	1.108227599	-0.060182591	-0.446409852	-0.545898438	0.263671875	-0.766845703	882.92	-45.23995087	-72.11303199	35.83075213	-65
34909	0	0.438171387	-0.134094238	0.046691895	0.999405861	0.033248901	-0.00492382	-0.00756073	10.95428467	-3.352355957	1.167297363	1.662774103	-0.246239751	-0.378111321	-0.552978516	0.212646484	-0.779541016	882.92	-40.68619438	-73.08894828	34.92241783	-66
34910	0	0.458195686	-0.058462143	0.074913025	0.999185562	0.040070534	-0.004290581	-0.001893044	11.45489216	-1.461553574	1.872825623	2.00407059	-0.214587276	-0.094677871	-0.559814453	0.148193359	-0.776611328	882.92	-36.60438414	-73.58327363	35.33061954	-67
34911	0	0.386108398	0.001342773	0.098327637	0.999788284	0.020524025	-0.001205444	0.000484467	9.652709961	0.033569336	2.458190918	1.026273596	-0.060276466	0.024225035	-0.56640625	0.088378906	-0.791503906	882.92	-34.71809042	-73.63989728	35.76177304	-69
34912	0	0.334447861	-0.035459518	0.081154823	0.999980927	-0.000185013	-0.002459526	0.005647659	8.361196518	-0.886487961	2.028870583	-0.009250699	-0.122977082	0.282384753	-0.568115234	0.072753906	-0.790283203	882.92	-37.10689372	-73.46620278	38.22748127	-69
34913	0	0.335266113	-0.075195313	0.054382324	0.999955177	-0.00195694	-0.004527092	0.008068085	8.381652832	-1.879882813	1.359558105	-0.097848443	-0.226357973	0.403410248	-0.573486328	0.08203125	-0.781982422	882.94	-40.86044579	-73.26622211	41.91508874	-69
34914	0	0.374022484	-0.117146492	0.032779694	0.999938965	-0.004323006	-0.005070686	0.00871563	9.350562096	-2.9286623	0.81949234	-0.21615462	-0.253539403	0.435790221	-0.576660156	0.09765625	-0.77734375	882.94	-45.10755692	-72.98940471	45.84071978	-71
34915	0	0.397766113	-0.107177734	0.036376953	0.999952316	0.00382328	-0.005725861	0.006851196	9.944152832	-2.679443359	0.909423828	0.191167023	-0.286297532	0.342565201	-0.584228516	0.109130859	-0.771972656	882.94	-48.01490808	-72.85065492	49.32584501	-71
34916	0	0.422035217	-0.07592392	0.115847588	0.999821663	0.016228676	-0.007154465	0.006458282	10.55088043	-1.898097992	2.89618969	0.811481981	-0.35774448	0.3229333	-0.593994141	0.109619141	-0.762939453	882.92	-49.75448688	-72.81218077	53.04313312	-72
34917	0	0.376586914	0.021240234	0.136657715	0.999988556	0.004235268	0.002120972	-0.00063324	9.414672852	0.531005859	3.416442871	0.211764188	0.106048988	-0.031662108	-0.600097656	0.087402344	-0.763671875	882.92	-48.5251573	-72.69053382	52.25585583	-71
34918	0	0.371872902	-0.078830719	0.071280479	0.999943733	-0.010555267	0.000173569	-0.000607491	9.296822548	-1.970767975	1.782011986	-0.527773202	0.008678598	-0.030375093	-0.593017578	0.089355469	-0.770019531	882.84	-49.54087782	-72.71370275	52.06947455	-69
34919	0	0.377502441	-0.126647949	0.064331055	0.999938965	-0.010977745	3.43323E-05	0.000572205	9.437561035	-3.16619873	1.608276367	-0.548898308	0.001716648	0.028610806	-0.596191406	0.107421875	-0.762451172	882.94	-50.92994121	-72.6442266	52.22357155	-69
34920	0	0.369771957	-0.137763977	0.068493843	0.999996185	0.0020504	-8.4877E-05	0.001734734	9.244298935	-3.444099426	1.712346077	0.102520112	-0.004243856	0.086736783	-0.594482422	0.120605469	-0.766601563	882.88	-51.12764854	-72.47822567	52.66244307	-69
34921	0	0.375244141	-0.111755371	0.061523438	0.999958038	0.009110451	-0.000244141	0.00025177	9.381103516	-2.793884277	1.538085938	0.455528848	-0.0122072	0.012588675	-0.594238281	0.114013672	-0.763183594	882.96	-50.22265639	-72.45624369	52.7796076	-69
34922	0	0.377061844	-0.09805584	0.076441765	0.999949455	0.010025024	0.000617981	-7.72476E-05	9.426546097	-2.451395988	1.911044121	0.50125965	0.030899567	-0.003862446	-0.593505859	0.100585938	-0.762207031	883.02	-48.89740212	-72.39986879	52.56384846	-69
34923	0	0.373962402	-0.077514648	0.085876465	0.999957085	0.009155273	0.000729561	0.000335693	9.349060059	-1.937866211	2.146911621	0.457770116	0.036478556	0.016784904	-0.592773438	0.084960938	-0.76953125	882.92	-47.74079811	-72.29900417	52.42601412	-69
34924	0	0.378368378	-0.077685356	0.082245827	0.999985695	0.005223274	0.00103569	-0.000352859	9.459209442	-1.942133904	2.056145668	0.261164951	0.051784761	-0.017643059	-0.592285156	0.071533203	-0.768554688	882.94	-46.78994717	-72.23248748	52.04408028	-68
34925	0	0.373291016	-0.094482422	0.086853027	0.999998093	0.000657082	0.001174927	-0.000724792	9.332275391	-2.362060547	2.171325684	0.032854093	0.058746361	-0.036239638	-0.592041016	0.067138672	-0.773925781	882.92	-46.23790522	-72.18452237	51.53749854	-68
34926	0	0.369533539	-0.104524612	0.079618454	0.999999046	0.000421524	0.000961304	-0.000119209	9.23833847	-2.613115311	1.990461349	0.021076206	0.048065194	-0.005960466	-0.587158203	0.064697266	-0.770996094	883	-45.92158786	-72.10237676	51.25286677	-68
34927	0	0.367980957	-0.105834961	0.08404541	0.999998093	0.001294136	0.001125336	-0.000209808	9.199523926	-2.645874023	2.101135254	0.064706835	0.056266813	-0.010490423	-0.584716797	0.0625	-0.773925781	883	-45.44565559	-72.01371765	50.90503232	-68
34928	0	0.369897842	-0.097089767	0.088973999	0.999991417	0.003993034	0.000717163	-8.86917E-05	9.24744606	-2.427244186	2.224349976	0.199652266	0.035858253	-0.004434598	-0.584472656	0.060058594	-0.776611328	882.96	-44.7960801	-71.94712771	50.69233013	-68
34929	0	0.373901367	-0.091125488	0.093688965	0.999988556	0.004532814	0.000705719	-0.000648499	9.34753418	-2.278137207	2.342224121	0.226641512	0.035286076	-0.032425043	-0.581787109	0.053466797	-0.776367188	882.92	-43.9483309	-71.92555227	50.33401091	-68
34930	0	0.373651505	-0.092882156	0.090180397	0.99998951	0.004169464	0.001161575	-0.00096035	9.341287613	-2.322053909	2.254509926	0.208473889	0.058078956	-0.048017659	-0.583740234	0.044677734	-0.778320313	882.92	-42.95381466	-71.8890022	49.78261056	-68
34931	0	0.369384766	-0.08782959	0.086730957	0.999993324	0.003425598	0.000626564	-0.000587463	9.234619141	-2.195739746	2.168273926	0.171280263	0.031328266	-0.02937323	-0.581054688	0.037841797	-0.783691406	882.84	-42.26950453	-71.86650377	49.46813658	-68
34932	0	0.366194725	-0.085841179	0.094432831	0.999998093	0.000926971	-0.000962257	0.000900269	9.154868126	-2.146029472	2.36082077	0.046348592	-0.04811289	0.045013447	-0.578369141	0.031005859	-0.783203125	882.84	-42.63004191	-71.86313265	49.96369734	-68
34933	0	0.374511719	-0.090515137	0.085327148	0.999999046	0.000167847	-0.000300407	0.000362396	9.362792969	-2.262878418	2.133178711	0.008392334	-0.015020371	0.018119813	-0.583251953	0.033447266	-0.77734375	882.84	-42.78246844	-71.84560795	50.14801502	-69
34934	0	0.369744301	-0.08769989	0.094899178	0.999998093	0.001889229	2.86102E-06	1.81198E-05	9.243607521	-2.192497253	2.372479439	0.094461497	0.000143051	0.000905991	-0.585693359	0.035644531	-0.780273438	882.96	-42.5761131	-71.82941729	50.15259781	-68
34935	0	0.373962402	-0.08581543	0.09161377	0.999997139	0.002239227	-0.00052166	-0.000190735	9.349060059	-2.145385742	2.290344238	0.111961464	-0.026083016	-0.009536752	-0.583007813	0.03125	-0.782958984	882.88	-42.39886075	-71.87406496	50.22937997	-68
34936	0	0.375677109	-0.088015556	0.090150833	0.999999046	0.00108242	-2.86102E-05	-0.000283241	9.391927719	-2.200388908	2.253770828	0.054121029	-0.001430512	-0.014162067	-0.583007813	0.026611328	-0.782714844	882.84	-42.21333584	-71.88447889	50.16410652	-69
34937	0	0.37121582	-0.086669922	0.094055176	0.999998093	0.001515388	0	1.14441E-05	9.280395508	-2.166748047	2.351379395	0.075769453	0	0.000572205	-0.582763672	0.024414063	-0.782470703	882.96	-42.04703032	-71.86990702	50.17135647	-69
34938	0	0.36578083	-0.085243225	0.091322899	0.999998093	0.001519203	-0.000216484	0.000286102	9.14452076	-2.131080627	2.283072472	0.07596019	-0.010824208	0.014305121	-0.582763672	0.022216797	-0.779296875	882.84	-42.00174023	-71.8529139	50.30788765	-69
34939	0	0.37512207	-0.086120605	0.091308594	0.999998093	0.001568794	-0.000743866	0.000598907	9.378051758	-2.153015137	2.282714844	0.078439757	-0.037193319	0.02994539	-0.584960938	0.020019531	-0.784912109	882.92	-42.15485289	-71.85705148	50.65917781	-69
34940	0	0.379000664	-0.08695507	0.092786789	0.999999046	0.000102043	0.000261307	-0.00049305	9.475016594	-2.173876762	2.319669724	0.005102158	0.013065339	-0.024652482	-0.584960938	0.017822266	-0.781738281	882.82	-41.95651603	-71.85984981	50.4684494	-69
34941	0	0.368041992	-0.088012695	0.095275879	0.999999046	-0.00012207	0.000222206	0.00062561	9.201049805	-2.200317383	2.381896973	-0.006103516	0.011110307	0.03128052	-0.582519531	0.017822266	-0.784912109	882.88	-42.08287779	-71.78016234	50.59258903	-69
34942	0	0.365523338	-0.078422546	0.09108448	0.999998093	0.000983238	0.000144005	0.001117706	9.138083458	-1.96056366	2.277112007	0.049161929	0.007200244	0.055885336	-0.582519531	0.017822266	-0.784912109	882.94	-42.22488939	-71.66965968	50.86666028	-69
34943	0	0.374084473	-0.081237793	0.088317871	0.999999046	-0.000102997	-9.82285E-05	0.00088501	9.352111816	-2.030944824	2.207946777	-0.005149842	-0.004911423	0.044250494	-0.584960938	0.017822266	-0.778808594	882.92	-42.48518428	-71.59798551	51.1401099	-69
34944	0	0.377251625	-0.082901001	0.089140892	0.999998093	-0.001600266	-0.000128746	9.15527E-05	9.431290627	-2.072525024	2.228522301	-0.08001331	-0.006437304	0.004577639	-0.587402344	0.020263672	-0.779052734	882.84	-42.72103766	-71.59072017	51.20847521	-69
34945	0	0.373413086	-0.093688965	0.099304199	0.999999046	-0.001186371	-6.77109E-05	-0.000202179	9.335327148	-2.342224121	2.48260498	-0.059318557	-0.003385545	-0.01010895	-0.582763672	0.024414063	-0.779541016	882.88	-42.82047378	-71.6009904	51.17496478	-69
34946	0	0.371875763	-0.092238426	0.094577789	0.999999046	0.001237869	-9.53674E-05	-0.000374794	9.296894073	-2.305960655	2.364444733	0.06189348	-0.004768373	-0.018739706	-0.582763672	0.022216797	-0.782226563	882.92	-42.60460729	-71.62702132	51.10087266	-69
34947	0	0.361877441	-0.088317871	0.095458984	0.999997139	0.002067566	-0.000243187	0.000778198	9.046936035	-2.207946777	2.386474609	0.103378381	-0.012159358	0.038909944	-0.585205078	0.022460938	-0.779296875	882.84	-42.61956754	-71.57595021	51.36707443	-69
34948	0	0.374243736	-0.080195427	0.083277702	0.999997139	0.00090313	-0.000974655	0.00193882	9.356093407	-2.004885674	2.081942558	0.04515652	-0.048732802	0.096941084	-0.582763672	0.020019531	-0.776367188	883	-43.22841586	-71.49607444	52.1244636	-70
34949	0	0.379455566	-0.081298828	0.088806152	0.999998093	-0.001666069	-0.000434875	0.000263214	9.48638916	-2.032470703	2.220153809	-0.083303494	-0.021743785	0.013160712	-0.585205078	0.020263672	-0.776123047	882.92	-43.58331667	-71.50194957	52.31038282	-69
34950	0	0.374419212	-0.092664719	0.090796471	0.999997139	-0.002092361	7.24792E-05	-0.000624657	9.360480309	-2.316617966	2.269911766	-0.104618156	0.003623965	-0.031232859	-0.585205078	0.024658203	-0.776611328	882.92	-43.64717505	-71.53592966	52.13376124	-70
34951	0	0.372131348	-0.091003418	0.09375	0.999998093	-0.001486778	0.00030899	-0.000343323	9.303283691	-2.275085449	2.34375	-0.074338943	0.01544953	-0.017166145	-0.587646484	0.026855469	-0.779541016	882.94	-43.65510972	-71.52819159	51.97163471	-69
34952	0	0.365419388	-0.090918541	0.096512794	0.999999046	-0.000264168	2.86102E-05	0.000502586	9.135484695	-2.272963524	2.412819862	-0.01320839	0.001430512	0.02512932	-0.587646484	0.026855469	-0.782470703	882.9	-43.79828315	-71.47663324	52.10120539	-70
34953	0	0.37487793	-0.094299316	0.085998535	0.999998093	0.001206398	-0.00037384	0.000762939	9.371948242	-2.35748291	2.149963379	0.060319922	-0.018692023	0.038146986	-0.587890625	0.029052734	-0.779785156	882.92	-43.93237434	-71.4378588	52.3926845	-70
34954	0	0.369013786	-0.08586216	0.087698936	0.999999046	0.000362396	-9.53674E-05	0.000494957	9.225344658	-2.146553993	2.192473412	0.018119813	-0.004768372	0.02474785	-0.585449219	0.029052734	-0.782714844	882.92	-44.03014782	-71.39769023	52.54183703	-70
34955	0	0.373596191	-0.091308594	0.090515137	0.999999046	-0.000904083	-0.000292778	9.53674E-05	9.339904785	-2.282714844	2.262878418	-0.045204169	-0.014638903	0.004768372	-0.585449219	0.029052734	-0.776855469	882.88	-44.22161802	-71.40576491	52.64133861	-70
34956	0	0.37674427	-0.094293594	0.091526985	0.999999046	0.000124931	-1.90735E-05	-2.38419E-05	9.418606758	-2.357339859	2.288174629	0.006246567	-0.000953674	-0.001192093	-0.587890625	0.029052734	-0.779785156	882.92	-44.20114338	-71.40098926	52.64172675	-71
34957	0	0.367431641	-0.088317871	0.092712402	0.999999046	0.000984192	-3.33786E-05	0.000358582	9.185791016	-2.207946777	2.317810059	0.049209604	-0.00166893	0.01792908	-0.585449219	0.029052734	-0.779785156	882.96	-44.17803948	-71.3669838	52.73967216	-71
34958	0	0.373719215	-0.091827393	0.089876175	0.999999046	0.000928879	-0.000106812	0.000492096	9.342980385	-2.295684814	2.246904373	0.046443948	-0.005340577	0.024604802	-0.587646484	0.026855469	-0.779541016	882.94	-44.21082894	-71.32856946	52.89400138	-72
34959	0	0.375793457	-0.089477539	0.087219238	0.999999046	0.001049042	0.000634193	-3.8147E-05	9.394836426	-2.236938477	2.180480957	0.052452101	0.031709679	-0.001907349	-0.587646484	0.024658203	-0.779296875	882.94	-43.92614876	-71.27194338	52.72964684	-72
34960	0	0.37123394	-0.087924957	0.087202072	0.999999046	-0.000393867	0.000835419	0.000146866	9.280848503	-2.198123932	2.180051804	-0.019693378	0.041770941	0.007343293	-0.585205078	0.022216797	-0.782226563	882.92	-43.8059299	-71.18423286	52.5696957	-73
34961	0	0.370666504	-0.084838867	0.090209961	0.999998093	-0.001669884	0.000862122	-0.000270844	9.266662598	-2.12097168	2.255249023	-0.083494237	0.043106105	-0.013542183	-0.585205078	0.024658203	-0.782470703	882.92	-43.72492336	-71.1277801	52.29704232	-74
34962	0	0.371588707	-0.095702171	0.096572876	0.999999046	-0.001127243	0.000482559	0.000517845	9.289717674	-2.392554283	2.414321899	-0.056362169	0.024127967	0.025892265	-0.580566406	0.028808594	-0.780029297	882.94	-43.86093076	-71.04012932	52.31409501	-75
34963	0	0.373474121	-0.095336914	0.094543457	0.999998093	0.001244545	0.000465393	0.00056839	9.336853027	-2.383422852	2.363586426	0.062227271	0.023269661	0.028419505	-0.583007813	0.03125	-0.782958984	882.94	-43.74114598	-70.94992193	52.34144058	-75
34964	0	0.369490623	-0.097598076	0.094823837	0.999997139	0.001795769	0.000461578	0.001094818	9.237265587	-2.439951897	2.370595932	0.089788506	0.023078936	0.054740948	-0.580566406	0.026611328	-0.779785156	882.94	-43.6852876	-70.81824644	52.50986178	-76
34965	0	0.369812012	-0.090148926	0.088134766	0.999991417	0.003753662	0.000432014	0.001373291	9.245300293	-2.253723145	2.203369141	0.187683611	0.021600781	0.068664736	-0.580566406	0.026611328	-0.785644531	882.94	-43.47755491	-70.6675524	52.74525025	-78
34966	0	0.371536255	-0.077502251	0.089401245	0.999996185	0.002020836	8.67844E-05	0.001689911	9.288406372	-1.937556267	2.235031128	0.101041911	0.004339223	0.084495642	-0.580322266	0.022216797	-0.779541016	882.92	-43.61734307	-70.52142968	53.14746194	-80
34967	0	0.371398926	-0.084228516	0.088989258	0.999998093	-0.001269341	0.000492096	0.001083374	9.284973145	-2.105712891	2.224731445	-0.063467058	0.02460481	0.054168729	-0.580322266	0.020019531	-0.78515625	882.92	-43.89733743	-70.39005415	53.30878811	-80
34968	0	0.370985985	-0.09095192	0.095594406	0.999997139	-0.002074242	0.000530243	0.001055717	9.27464962	-2.273797989	2.389860153	-0.10371218	0.026512171	0.052785924	-0.580566406	0.028808594	-0.782958984	882.96	-44.25122482	-70.25778492	53.44300775	-81
34969	0	0.367858887	-0.092895508	0.096191406	0.999998093	-0.001139641	0.00018692	0.00151062	9.196472168	-2.322387695	2.404785156	-0.056982075	0.009346014	0.075531051	-0.580566406	0.031005859	-0.786132813	882.94	-44.67398478	-70.11700411	53.7663738	-81
34970	0	0.373587608	-0.092711449	0.092885971	0.999998093	-0.000756264	-0.000187874	0.001639366	9.339690208	-2.317786217	2.322149277	-0.037813207	-0.009393697	0.081968353	-0.578369141	0.033203125	-0.786376953	882.96	-45.15974012	-69.99584626	54.20379235	-81
34971	0	0.370849609	-0.083740234	0.095336914	0.999999046	-0.000751495	0.000309944	0.000576019	9.271240234	-2.093505859	2.383422852	-0.037574774	0.01549721	0.028800969	-0.575927734	0.035400391	-0.789550781	882.88	-45.29312578	-69.92088923	54.26429263	-80
34972	0	0.370623589	-0.093583107	0.092068672	0.999996185	-0.002277374	0.000451088	0.000758171	9.265589714	-2.339577675	2.301716805	-0.113868827	0.02255442	0.037908592	-0.573730469	0.039794922	-0.790039063	882.94	-45.60862569	-69.82008971	54.33161646	-80
34973	0	0.368041992	-0.093933105	0.093383789	0.999992371	-0.002745628	-5.34058E-05	0.002529144	9.201049805	-2.348327637	2.334594727	-0.137281737	-0.002670294	0.126457508	-0.57421875	0.044189453	-0.784667969	882.94	-46.46794986	-69.61352568	54.92875423	-79
34974	0	0.365592957	-0.089112282	0.096218109	0.99998951	-0.003355026	-6.48499E-05	0.002998352	9.139823914	-2.227807045	2.405452728	-0.167751878	-0.003242504	0.149918109	-0.576904297	0.053222656	-0.788085938	882.96	-47.48068302	-69.36577472	55.61601247	-77
34975	0	0.368225098	-0.09765625	0.096557617	0.999995232	-0.002716064	0.000676155	0.001026154	9.205627441	-2.44140625	2.41394043	-0.135803424	0.033807805	0.051307754	-0.574707031	0.059814453	-0.785888672	882.92	-47.83621236	-69.22539011	55.67719318	-76
34976	0	0.368610382	-0.107469559	0.093972206	0.99998188	-0.005805016	0.000955582	0.001089096	9.215259552	-2.686738968	2.349305153	-0.29025251	0.047779368	0.054455128	-0.572753906	0.068603516	-0.783691406	882.92	-48.49241113	-69.0582222	55.68444949	-75
34977	0	0.369750977	-0.106750488	0.102905273	0.999993324	-0.002925873	0.000481606	0.001667023	9.243774414	-2.668762207	2.572631836	-0.146293922	0.024080323	0.083351296	-0.573242188	0.077392578	-0.787353516	882.92	-49.03302371	-68.8770153	55.91675607	-74
34978	0	0.368247032	-0.112579346	0.097539902	0.999998093	-0.000878334	0.000308037	0.001144409	9.206175804	-2.814483643	2.438497543	-0.043916718	0.015401846	0.05722048	-0.568603516	0.081787109	-0.788085938	882.92	-49.2718579	-68.75348187	56.07098512	-74
34979	0	0.36529541	-0.108764648	0.098144531	0.999998093	0.001042366	-8.7738E-05	0.000911713	9.132385254	-2.719116211	2.453613281	0.052118318	-0.004386903	0.045585647	-0.571044922	0.083984375	-0.788085938	882.94	-49.33202485	-68.67958932	56.2656995	-74
34980	0	0.355651855	-0.110717773	0.102478027	0.999993324	0.003594398	-0.00031662	0.000289917	8.891296387	-2.767944336	2.561950684	0.179720317	-0.015831028	0.014495881	-0.570800781	0.081787109	-0.787841797	882.96	-49.03027614	-68.67653207	56.3793997	-75
34981	0	0.377426147	-0.112492561	0.091970444	0.999983788	0.005199432	-0.001019478	0.00078392	9.435653687	-2.812314034	2.299261093	0.259972862	-0.050974136	0.039196202	-0.570556641	0.075195313	-0.787353516	882.92	-48.79578022	-68.68422478	56.76035182	-75
34982	0	0.371723175	-0.108621597	0.095201492	0.999988556	0.004565239	9.63211E-05	-0.000892639	9.293079376	-2.715539932	2.380037308	0.228262771	0.004816073	-0.044632119	-0.572753906	0.068603516	-0.783691406	882.92	-48.06125804	-68.75219627	56.52601216	-75
34983	0	0.365661621	-0.099731445	0.095703125	0.999993324	0.003391266	0.000523567	-0.00112915	9.141540527	-2.493286133	2.392578125	0.169563662	0.026178417	-0.056457642	-0.572265625	0.059570313	-0.785888672	882.94	-47.31717293	-68.8065367	56.14212633	-75
34984	0	0.362559319	-0.102655411	0.096721649	0.999998093	0.000558853	0.000920296	-0.000887871	9.063982964	-2.566385269	2.418041229	0.027942667	0.046014801	-0.044393554	-0.569580078	0.050537109	-0.791259766	883	-46.85793405	-68.80836015	55.72803464	-75
34985	0	0.366394043	-0.102050781	0.092590332	0.999999046	-0.000591278	0.000557899	-0.000164032	9.159851074	-2.551269531	2.314758301	-0.029563907	0.027894977	-0.0082016	-0.569580078	0.052978516	-0.788574219	882.84	-46.75530182	-68.77776311	55.55271839	-75
34986	0	0.365462303	-0.107909203	0.100682259	0.999997139	-0.001930237	0.000612259	-0.000248909	9.136557579	-2.697730064	2.517056465	-0.096511908	0.030612967	-0.012445458	-0.567382813	0.054931641	-0.788818359	882.84	-46.77758353	-68.74984394	55.34742936	-74
34987	0	0.36541748	-0.112792969	0.103820801	0.999999046	0.001163483	2.38419E-05	-0.000362396	9.135437012	-2.819824219	2.59552002	0.058174148	0.001192093	-0.018119816	-0.569824219	0.055175781	-0.791503906	882.84	-46.54881903	-68.77716199	55.24891925	-75
34988	0	0.365245819	-0.107046127	0.100546837	0.999994278	0.003322601	-0.000357628	0.000377655	9.131145477	-2.676153183	2.513670921	0.166130379	-0.017881427	0.018882787	-0.567382813	0.052734375	-0.788574219	882.92	-46.30421164	-68.77294975	55.39293802	-75
34989	0	0.364929199	-0.101135254	0.091918945	0.999995232	0.0027771	-0.000113487	5.72205E-05	9.12322998	-2.528381348	2.297973633	0.138855159	-0.005674369	0.002861027	-0.569335938	0.048339844	-0.791015625	882.94	-46.00493557	-68.7764977	55.41191594	-77
34990	0	0.364816666	-0.09790802	0.094332695	0.999999046	-0.000411987	0.000492096	0.000265121	9.120416641	-2.4477005	2.358317375	-0.020599367	0.024604799	0.013256074	-0.566894531	0.043945313	-0.790771484	882.96	-45.98509149	-68.71515058	55.34830473	-76
34991	0	0.367858887	-0.102111816	0.095947266	0.999996185	-0.002337456	0.000404358	0.000598907	9.196472168	-2.55279541	2.398681641	-0.116872904	0.020217916	0.029945403	-0.567138672	0.048339844	-0.788330078	883	-46.27241117	-68.63357731	55.37848931	-76
34992	0	0.370580673	-0.106014252	0.099781036	0.999995232	-0.002860069	0.000606537	-3.8147E-05	9.26451683	-2.650356293	2.494525909	-0.143003668	0.030326886	-0.001907351	-0.567138672	0.050537109	-0.788330078	882.92	-46.44736784	-68.58895104	55.2285458	-76
34993	0	0.363342285	-0.108398438	0.102600098	0.999999046	-0.000549316	-0.000197411	-0.000514984	9.083557129	-2.709960938	2.565002441	-0.027465823	-0.00987053	-0.025749209	-0.564697266	0.052734375	-0.794433594	882.84	-46.43159843	-68.64732579	55.15081345	-76
34994	0	0.365689278	-0.106972694	0.100261688	0.999998093	0.001572609	-0.000552177	-0.000618935	9.142231941	-2.67431736	2.506542206	0.078630489	-0.027608886	-0.030946748	-0.567138672	0.052734375	-0.791503906	882.92	-46.22636739	-68.74230657	55.12582143	-77
34995	0	0.363342285	-0.108459473	0.098693848	0.999997139	0.00214386	-0.000498772	-0.000534058	9.083557129	-2.711486816	2.467346191	0.107193085	-0.024938605	-0.026702904	-0.567138672	0.050537109	-0.791259766	882.92	-45.96088645	-68.82588936	55.10225501	-77
34996	0	0.368247032	-0.104430199	0.093770027	0.999998093	0.001531601	-0.000126839	-0.00055027	9.206175804	-2.610754967	2.344250679	0.076580082	-0.006341937	-0.027513516	-0.569335938	0.046142578	-0.790771484	882.92	-45.68259367	-68.88132005	54.99361597	-77
34997	0	0.368896484	-0.100402832	0.095947266	0.999999046	0.000141144	-7.15256E-05	-0.000293732	9.222412109	-2.510070801	2.398681641	0.00705719	-0.003576279	-0.014686585	-0.566894531	0.043945313	-0.790771484	882.94	-45.60446872	-68.91148752	54.93031346	-78
34998	0	0.370557785	-0.102844238	0.096899033	0.999999046	-0.000204086	0.000143051	-0.000809669	9.263944626	-2.571105957	2.422475815	-0.010204316	0.007152558	-0.04048348	-0.569091797	0.043945313	-0.793457031	882.84	-45.4126348	-68.96675618	54.70225271	-78
34999	0	0.364624023	-0.101745605	0.099731445	0.999999046	9.91821E-05	-0.000292778	-0.000812531	9.115600586	-2.543640137	2.493286133	0.004959107	-0.014638903	-0.040626531	-0.566650391	0.041748047	-0.790527344	882.92	-45.27668966	-69.05714613	54.57234996	-78
35000	0	0.365401268	-0.10406208	0.100757599	0.999997139	0.00193882	-0.00069809	-0.000828743	9.1350317	-2.60155201	2.518939972	0.096941074	-0.034904509	-0.041437183	-0.566650391	0.041748047	-0.790527344	882.96	-45.01129768	-69.18133396	54.52084534	-78
35001	0	0.368469238	-0.101501465	0.095825195	0.999995232	0.002635956	-0.001059532	-0.00082016	9.211730957	-2.537536621	2.395629883	0.131797983	-0.052976685	-0.041008055	-0.568847656	0.034912109	-0.795654297	883	-44.74347608	-69.33424408	54.55422161	-78
35002	0	0.368829727	-0.095752716	0.095733643	0.999995232	0.002199173	-0.00129509	-0.001086235	9.220743179	-2.393817902	2.393341064	0.10995879	-0.064754569	-0.054311822	-0.568847656	0.032958984	-0.786865234	882.92	-44.51678365	-69.52813116	54.57357164	-78
35003	0	0.366516113	-0.094299316	0.099304199	0.999997139	0.001502991	-0.001273155	-0.001190186	9.162902832	-2.35748291	2.48260498	0.075149602	-0.063657817	-0.05950933	-0.573242188	0.028564453	-0.7890625	882.84	-44.34002023	-69.72869762	54.56287723	-78
35004	0	0.372918129	-0.097452164	0.097428322	0.999995232	0.00237751	-0.0014534	-0.00131321	9.322953224	-2.436304092	2.435708046	0.118875692	-0.072670098	-0.065660581	-0.573242188	0.024169922	-0.785888672	882.88	-44.07254815	-69.95399592	54.55988526	-78
35005	0	0.366638184	-0.093444824	0.097167969	0.999997139	0.001525879	-0.001273155	-0.00087738	9.16595459	-2.336120605	2.429199219	0.076294005	-0.063657811	-0.043869053	-0.577636719	0.017578125	-0.78515625	882.92	-43.95969427	-70.12979532	54.62504227	-79
35006	0	0.368080139	-0.091348648	0.095228195	0.999998093	0.000992775	-0.001191139	-0.000617981	9.202003479	-2.283716202	2.38070488	0.049638771	-0.059556989	-0.030899062	-0.580078125	0.015625	-0.779052734	882.88	-43.94899045	-70.27838063	54.7349776	-79
35007	0	0.371826172	-0.094055176	0.095153809	0.999998093	8.86917E-05	-0.001167297	-0.001045227	9.295654297	-2.351379395	2.378845215	0.004434587	-0.058364892	-0.052261374	-0.582275391	0.010986328	-0.784179688	882.92	-43.93862565	-70.45906272	54.73957277	-79
35008	0	0.369568825	-0.094731331	0.097847939	0.999999046	0.000329018	-0.000972748	-0.00073719	9.239220619	-2.368283272	2.446198463	0.016450886	-0.048637403	-0.036859522	-0.584716797	0.013427734	-0.778564453	882.88	-43.92862769	-70.59906803	54.76818244	-80
35009	0	0.37512207	-0.099609375	0.098510742	0.999998093	0.001149178	-0.000724792	-0.000766754	9.378051758	-2.490234375	2.462768555	0.057458901	-0.036239639	-0.038337723	-0.582275391	0.011230469	-0.781494141	882.92	-43.761499	-70.72067003	54.72562663	-81
35010	0	0.372161865	-0.09095192	0.092809677	0.999998093	0.001139641	-0.00024128	-0.000954628	9.304046631	-2.273797989	2.320241928	0.056982062	-0.012063985	-0.047731418	-0.584472656	0.004638672	-0.777832031	882.96	-43.43951927	-70.81706138	54.52725568	-82
35011	0	0.36328125	-0.085449219	0.093017578	0.999999046	0.000205994	-0.000323296	9.91821E-05	9.08203125	-2.136230469	2.325439453	0.010299683	-0.01616478	0.004959107	-0.584228516	0.004394531	-0.783691406	883	-43.49339286	-70.83715777	54.61109966	-84
35012	0	0.369487762	-0.08945179	0.09250927	0.999999046	-0.000144005	-0.000385284	0.000389099	9.237194061	-2.236294746	2.312731743	-0.007200241	-0.019264222	0.019454957	-0.586669922	0.002441406	-0.774658203	882.96	-43.67088575	-70.83954207	54.79219657	-86
35013	0	0.373840332	-0.092590332	0.094848633	0.999999046	-0.000431061	-0.000376701	0.000270844	9.346008301	-2.314758301	2.37121582	-0.021553041	-0.018835069	0.013542176	-0.586914063	0.004638672	-0.774902344	883	-43.85127472	-70.85040074	54.9384691	-85
35014	0	0.373840332	-0.098632813	0.09387207	0.999999046	0.001052856	8.01086E-05	0.000259399	9.346008301	-2.465820313	2.346801758	0.052642833	0.004005433	0.012969973	-0.586914063	0.004638672	-0.777587891	882.84	-43.75535341	-70.82416617	54.96856554	-85
35015	0	0.375732422	-0.086914063	0.091430664	0.999996185	0.002381325	0.000526428	-0.000320435	9.393310547	-2.172851563	2.285766602	0.119066358	0.026321438	-0.016021745	-0.584228516	0.002197266	-0.780517578	883	-43.26754701	-70.80694941	54.73982881	-85
35016	0	0.369567871	-0.085449219	0.09173584	0.999998093	0.001682281	0.000321388	-0.000366211	9.239196777	-2.136230469	2.293395996	0.084114118	0.01606942	-0.018310556	-0.584228516	-0.002197266	-0.77734375	882.92	-42.89506738	-70.81016264	54.55246834	-85
35017	0	0.369812012	-0.082092285	0.090270996	0.999999046	0.000740051	-1.43051E-05	-1.52588E-05	9.245300293	-2.052307129	2.256774902	0.037002567	-0.000715256	-0.00076294	-0.583984375	-0.004394531	-0.780029297	882.96	-42.78996844	-70.81438405	54.53468052	-81
35018	0	0.370414734	-0.087376595	0.093742371	0.999994278	-0.000288963	-0.00039959	-0.000340462	9.260368347	-2.184414864	2.343559265	-0.014448167	-0.019979478	-0.017023088	-0.586425781	-0.004394531	-0.777099609	882.92	-42.81026421	-70.87643641	54.52662671	-87
35019	0	0.372802734	-0.08770752	0.096069336	0.999999046	-0.000671387	-7.53403E-05	0.000232697	9.320068359	-2.192687988	2.401733398	-0.033569339	-0.003767014	0.011634828	-0.586669922	-0.001953125	-0.774169922	882.96	-42.94017044	-70.86662556	54.58694321	-85
35020	0	0.372714043	-0.088801384	0.093817711	0.999998093	-0.001365662	0.000462532	0.000118256	9.317851067	-2.220034599	2.345442772	-0.068283105	0.02312661	0.005912783	-0.586669922	0.000244141	-0.780273438	883.02	-43.00096789	-70.82071841	54.48828534	-85
35021	0	0.372680664	-0.088012695	0.09387207	0.999997139	-0.002231598	0.000821114	0.000133514	9.317016602	-2.200317383	2.346801758	-0.111580001	0.041055718	0.006675727	-0.586669922	0.000244141	-0.780273438	883	-43.08428724	-70.74376275	54.3162568	-85
35022	0	0.368408203	-0.089294434	0.096618652	0.999995232	-0.002792358	0.000785828	-3.05176E-05	9.210205078	-2.23236084	2.415466309	-0.139618116	0.039291437	-0.001525881	-0.584228516	0.004394531	-0.783691406	882.96	-43.20063082	-70.6826673	54.10961514	-79
35023	0	0.369345665	-0.091772079	0.101366997	0.999996185	-0.00206089	0.000444412	0.000290871	9.233641624	-2.294301987	2.534174919	-0.103044588	0.022220628	0.014543544	-0.582275391	0.009033203	-0.778320313	882.92	-43.3856564	-70.62472558	54.06339753	-82
35024	0	0.371956825	-0.099031448	0.097792625	0.999999046	-0.00017643	0.0004673	0.000208855	9.298920631	-2.475786209	2.444815636	-0.008821488	0.023365022	0.010442734	-0.580078125	0.015380859	-0.784667969	882.82	-43.33083798	-70.57104573	53.97760529	-81
35025	0	0.372070313	-0.089050293	0.098022461	0.999999046	0.000907898	8.86917E-05	6.48499E-05	9.301757813	-2.226257324	2.450561523	0.045394904	0.004434586	0.003242493	-0.582275391	0.011230469	-0.781494141	883.02	-43.20181954	-70.56026028	53.95274009	-79
35026	0	0.369477272	-0.090328217	0.096114159	0.999998093	0.001748085	0.000197411	2.95639E-05	9.236931801	-2.258205414	2.402853966	0.087404296	0.009870534	0.001478196	-0.58203125	0.008789063	-0.787109375	882.96	-42.94402627	-70.54311908	53.89111638	-79
35027	0	0.372619629	-0.087463379	0.094299316	0.999998093	0.001637459	0.000133514	-1.14441E-05	9.315490723	-2.186584473	2.35748291	0.081872977	0.006675723	-0.000572205	-0.58203125	0.008789063	-0.784179688	883.02	-42.70329893	-70.53468252	53.8302499	-77
35028	0	0.373352051	-0.090637207	0.093811035	0.999999046	0.000786781	0.000362396	-0.000247955	9.33380127	-2.265930176	2.345275879	0.039339071	0.018119814	-0.012397768	-0.58203125	0.006591797	-0.781005859	883.06	-42.4538335	-70.52534322	53.65951035	-76
35029	0	0.367858887	-0.091125488	0.099731445	0.999999046	0.00056076	0.000332832	0.00012207	9.196472168	-2.278137207	2.493286133	0.028038027	0.016641618	0.006103516	-0.579589844	0.004394531	-0.783935547	883	-42.32531633	-70.48957057	53.59046401	-75
35030	0	0.37057972	-0.091719627	0.095868111	0.999998093	0.001284599	0.000317574	0.000556946	9.264492989	-2.292990685	2.396702766	0.064229987	0.015878683	0.0278473	-0.579345703	0.002197266	-0.783691406	882.96	-42.22177122	-70.42154156	53.63775529	-75
35031	0	0.370849609	-0.086425781	0.095214844	0.999998093	0.001721382	-3.8147E-05	0.000301361	9.271240234	-2.160644531	2.380371094	0.086069151	-0.00190735	0.015068062	-0.579345703	0	-0.783447266	882.96	-42.08416625	-70.4036561	53.70169496	-74
35032	0	0.369277	-0.089053154	0.099642754	0.999998093	0.001497269	-0.000197411	0.000320435	9.231925011	-2.22632885	2.49106884	0.074863464	-0.009870533	0.016021735	-0.581787109	0	-0.786376953	882.96	-42.01091154	-70.39786596	53.80287837	-73
35033	0	0.369995117	-0.088317871	0.098266602	0.999997139	0.002025604	-0.000308037	0.000362396	9.24987793	-2.207946777	2.456665039	0.101280285	-0.015401851	0.018119825	-0.579101563	-0.004638672	-0.783203125	882.92	-41.91077278	-70.39839508	53.9426739	-73
35034	0	0.371759415	-0.089355469	0.096933365	0.999998093	0.001614571	-0.000231743	0.000842094	9.293985367	-2.233886719	2.423334122	0.080728576	-0.011587149	0.042104745	-0.579101563	-0.004638672	-0.786132813	882.92	-41.95599724	-70.35580695	54.1823381	-72
35035	0	0.374328613	-0.086120605	0.094177246	0.999999046	0.00043869	0.000245094	0.00062561	9.358215332	-2.153015137	2.354431152	0.021934512	0.012254716	0.031280521	-0.578857422	-0.009033203	-0.788574219	882.94	-41.98145148	-70.28948886	54.2657705	-72
35036	0	0.371979713	-0.083817482	0.095042229	0.999998093	-0.001487732	0.000649452	9.82285E-05	9.299492836	-2.09543705	2.376055717	-0.074386629	0.032472625	0.004911425	-0.581542969	-0.006835938	-0.785644531	882.84	-42.01543346	-70.2295391	54.12756961	-72
35037	0	0.367431641	-0.086120605	0.09777832	0.999996185	-0.002409935	0.000648499	0.000354767	9.185791016	-2.153015137	2.444458008	-0.120496877	0.032424961	0.017738361	-0.581542969	-0.002197266	-0.783203125	882.92	-42.21570332	-70.15020517	54.05439034	-72
35038	0	0.371448517	-0.092477798	0.099158287	0.999997139	-0.0020504	0.000318527	0.000594139	9.286212921	-2.311944962	2.478957176	-0.102520069	0.015926373	0.029706978	-0.576904297	-0.000244141	-0.789550781	882.9	-42.50082367	-70.08043803	54.11425564	-72
35039	0	0.370544434	-0.091552734	0.097717285	0.999999046	-0.001083374	0.000359535	0.000236511	9.26361084	-2.288818359	2.442932129	-0.054168713	0.017976765	0.011825564	-0.577148438	0.004150391	-0.786865234	882.92	-42.58251444	-70.03493857	54.07223811	-72
35040	0	0.369270325	-0.089501381	0.099313736	0.999999046	-0.001179695	0.000349045	0.00026226	9.231758118	-2.237534523	2.482843399	-0.058984772	0.017452245	0.013113025	-0.574707031	0.006347656	-0.790039063	882.88	-42.68306072	-69.98842685	54.03630826	-72
35041	0	0.370910645	-0.091552734	0.099304199	0.999999046	-0.000350952	2.00272E-05	0.000114441	9.272766113	-2.288818359	2.48260498	-0.017547608	0.001001358	0.005722046	-0.574951172	0.008544922	-0.784423828	882.96	-42.72445589	-69.98117916	54.03752079	-72
35042	0	0.369604111	-0.089142799	0.098034859	0.999999046	-7.43866E-05	2.86102E-05	0.000324249	9.240102768	-2.228569984	2.450871468	-0.00371933	0.001430512	0.016212464	-0.577392578	0.008789063	-0.787353516	882.96	-42.78047083	-69.95703947	54.0888602	-72
35043	0	0.370422363	-0.091308594	0.09564209	0.999999046	-0.000640869	0.000340462	-0.000301361	9.260559082	-2.282714844	2.391052246	-0.03204346	0.017023088	-0.015068056	-0.577148438	0.006591797	-0.784179688	882.88	-42.69078665	-69.95549073	53.92270872	-72
35044	0	0.368763924	-0.094753265	0.098456383	0.999999046	-0.000826836	0.000131607	-0.000218391	9.219098091	-2.368831635	2.461409569	-0.041341787	0.006580354	-0.010919572	-0.577392578	0.008789063	-0.784423828	882.9	-42.68635587	-69.96498055	53.8223009	-72
35045	0	0.368347168	-0.094482422	0.100463867	0.999999046	-1.52588E-05	-0.000285149	3.8147E-05	9.208679199	-2.362060547	2.51159668	-0.000762939	-0.014257431	0.001907349	-0.577392578	0.008789063	-0.787353516	882.96	-42.73709074	-69.98950561	53.87816154	-72
35046	0	0.36876297	-0.094025612	0.100554466	0.999999046	0.001169205	-0.000349045	-0.000264168	9.219074249	-2.350640297	2.513861656	0.058460251	-0.017452245	-0.013208393	-0.577148438	0.006347656	-0.790039063	882.92	-42.59573407	-70.04278711	53.87293029	-72
35047	0	0.369995117	-0.093811035	0.098449707	0.999997139	0.001907349	-0.000933647	-7.62939E-05	9.24987793	-2.345275879	2.461242676	0.095367503	-0.046682393	-0.0038147	-0.577148438	0.006591797	-0.784179688	883	-42.53859755	-70.13080273	54.04142643	-72
35048	0	0.367507935	-0.091853142	0.09854126	0.999997139	0.001969337	-0.001106262	0.000133514	9.187698364	-2.296328545	2.463531494	0.098466957	-0.055313158	0.006675726	-0.576904297	0.001953125	-0.786621094	882.92	-42.56127389	-70.2170993	54.30305326	-72
35049	0	0.36895752	-0.092529297	0.097412109	0.999998093	0.001454353	-0.000953674	0.00031662	9.223937988	-2.313232422	2.435302734	0.072717704	-0.047683741	0.015831002	-0.579345703	0.002197266	-0.783691406	882.88	-42.65442536	-70.27619807	54.57368574	-71
35050	0	0.371956825	-0.090890884	0.098553658	0.999999046	0.000940323	-0.00066185	-0.000198364	9.298920631	-2.27227211	2.463841438	0.047016154	-0.033092506	-0.009918215	-0.581787109	0	-0.783447266	883	-42.62272862	-70.35063175	54.65062674	-71
