Counter	Temperature	VelInc_X	VelInc_Y	VelInc_Z	OriInc_w	OriInc_x	OriInc_y	OriInc_z	Acc_X	Acc_Y	Acc_Z	Gyr_X	Gyr_Y	Gyr_Z	Mag_X	Mag_Y	Mag_Z	Pressure	Roll	Pitch	Yaw	RSSI
35507	0	0.35736084	-0.082702637	0.149353027	0.999999046	-0.000465393	-2.57492E-05	-0.000171661	8.934020996	-2.067565918	3.733825684	-0.023269654	-0.00128746	-0.008583069	-0.857666016	0.475585938	0.251953125	883.46	-29.01404153	-64.45781708	-113.7512989	-66
35508	0	0.356603622	-0.084062576	0.14974308	0.999999046	-0.000477791	0.000131607	-3.8147E-06	8.915090561	-2.101564407	3.743577003	-0.023889543	0.006580353	-0.000190735	-0.857666016	0.471191406	0.252197266	883.38	-29.03273481	-64.44464274	-113.800734	-66
35509	0	0.353759766	-0.082946777	0.148681641	0.999999046	0.000335693	-4.1008E-05	0.000270844	8.843994141	-2.073669434	3.717041016	0.016784668	-0.0020504	0.013542176	-0.857666016	0.473388672	0.255126953	883.34	-29.03591125	-64.43338845	-113.7641782	-66
35510	0	0.354460716	-0.080231667	0.149071693	0.999999046	0.000654221	-0.000143051	0.000144958	8.861517906	-2.005791664	3.726792336	0.032711032	-0.007152558	0.007247925	-0.85546875	0.475585938	0.249023438	883.32	-28.98785925	-64.43932694	-113.7333262	-66
35511	0	0.357788086	-0.081604004	0.147705078	0.999999046	0.000270844	-0.000216484	-9.53674E-05	8.944702148	-2.040100098	3.692626953	0.013542176	-0.010824204	-0.004768372	-0.85546875	0.475585938	0.251708984	883.44	-28.94188284	-64.46603478	-113.7512054	-66
35512	0	0.354327202	-0.081885338	0.146434784	0.999999046	0.000267982	-0.000125885	4.86374E-05	8.858180046	-2.047133446	3.660869598	0.013399124	-0.006294251	0.00243187	-0.857666016	0.473388672	0.249267578	883.4	-28.91604643	-64.47568765	-113.7508482	-66
35513	0	0.356262207	-0.079406738	0.146850586	0.999999046	0.000621796	-6.00815E-05	0.000320435	8.906555176	-1.985168457	3.671264648	0.031089785	-0.003004074	0.01602173	-0.85546875	0.475585938	0.251708984	883.4	-28.89897453	-64.46377953	-113.6944491	-66
35514	0	0.355679512	-0.078537941	0.145988464	0.999999046	0.000179291	-1.52588E-05	0.000197411	8.891987801	-1.963448524	3.649711609	0.008964539	-0.000762939	0.009870529	-0.85546875	0.475585938	0.251708984	883.46	-28.9013993	-64.45432961	-113.673414	-66
35515	0	0.35748291	-0.08026123	0.145629883	0.999999046	1.14441E-05	-2.57492E-05	0.000415802	8.937072754	-2.006530762	3.64074707	0.000572205	-0.00128746	0.020790101	-0.857910156	0.478027344	0.254638672	883.34	-28.97008209	-64.4339713	-113.6020901	-66
35516	0	0.356446266	-0.081409454	0.147747993	0.999999046	0.000315666	-0.000112534	0.000292778	8.911156654	-2.035236359	3.693699837	0.01578331	-0.005626679	0.014638901	-0.857666016	0.475585938	0.251953125	883.38	-28.98813562	-64.42914255	-113.5510431	-66
35517	0	0.35723877	-0.079833984	0.149108887	0.999999046	0.000331879	-5.62668E-05	0.000278473	8.930969238	-1.995849609	3.727722168	0.016593934	-0.002813339	0.013923645	-0.857910156	0.477783203	0.248779297	883.5	-28.99455086	-64.41948514	-113.5051121	-66
35518	0	0.355258942	-0.076517105	0.146738052	0.999999046	-0.000934601	0.00012207	1.14441E-05	8.881473541	-1.912927628	3.668451309	-0.046730048	0.006103517	0.000572205	-0.857910156	0.478027344	0.254638672	883.46	-29.06902241	-64.40694518	-113.5480832	-66
35519	0	0.356506348	-0.081298828	0.146850586	0.999999046	-0.000869751	-8.67844E-05	-0.000541687	8.912658691	-2.032470703	3.671264648	-0.043487556	-0.004339219	-0.027084355	-0.857910156	0.477783203	0.248779297	883.46	-29.04456105	-64.4461819	-113.682976	-66
35520	0	0.355401993	-0.083614349	0.148533821	0.999999046	-0.001145363	-6.29425E-05	-0.000434875	8.88504982	-2.090358734	3.713345528	-0.057268157	-0.003147126	-0.02174378	-0.857910156	0.475585938	0.254882813	883.44	-29.07126097	-64.47699371	-113.8020913	-66
35521	0	0.35559082	-0.085144043	0.148132324	0.999999046	-0.000301361	-0.000216484	3.8147E-06	8.889770508	-2.128601074	3.703308105	-0.015068055	-0.010824204	0.000190735	-0.860107422	0.475830078	0.251953125	883.5	-29.11146782	-64.49865357	-113.7965392	-66
35522	0	0.356874466	-0.082184792	0.147988319	0.999999046	0.00038147	-0.000299454	0.000247002	8.921861649	-2.054619789	3.699707985	0.019073487	-0.014972688	0.012350083	-0.860107422	0.473632813	0.255126953	883.4	-29.13423656	-64.51503861	-113.7317929	-66
35523	0	0.35760498	-0.079772949	0.149291992	0.999999046	7.62939E-06	-9.44138E-05	0.000156403	8.940124512	-1.99432373	3.732299805	0.00038147	-0.004720688	0.007820129	-0.857666016	0.473388672	0.252197266	883.46	-29.15654895	-64.5159409	-113.7106108	-66
35524	0	0.358705521	-0.082447052	0.148736	0.999999046	-0.000256538	-4.57764E-05	3.43323E-05	8.967638016	-2.0611763	3.718400002	-0.01282692	-0.002288818	0.001716614	-0.857666016	0.473388672	0.252197266	883.5	-29.17780742	-64.51877018	-113.7234281	-66
35526	0	0.351671219	-0.081083298	0.145827293	0.999999046	-0.000141144	8.39233E-05	0.000285149	8.791780472	-2.027082443	3.645682335	-0.00705719	0.004196167	0.014257431	-0.857910156	0.475830078	0.2578125	883.34	-29.22327515	-64.49457952	-113.6967156	-66
35527	0	0.355834961	-0.080810547	0.14630127	0.999999046	6.86646E-05	0.000157356	0.000293732	8.895874023	-2.020263672	3.657531738	0.003433228	0.007867813	0.014686585	-0.857910156	0.475585938	0.254882813	883.4	-29.23778241	-64.46261921	-113.676379	-66
35528	0	0.356474876	-0.080817223	0.143737793	0.999999046	-0.001223564	0.000152588	-2.00272E-05	8.91187191	-2.020430565	3.593444824	-0.061178223	0.007629396	-0.001001358	-0.857910156	0.475585938	0.254882813	883.38	-29.33531627	-64.44889984	-113.7257012	-66
35529	0	0.35760498	-0.08416748	0.143310547	0.999998093	-0.001559258	0.000144958	-0.0001297	8.940124512	-2.104187012	3.582763672	-0.077962907	0.007247928	-0.006484988	-0.857910156	0.473388672	0.2578125	883.4	-29.4496916	-64.44230197	-113.8024543	-66
35530	0	0.354532242	-0.085751534	0.145525932	0.999999046	-0.00100708	-0.00021553	0.00014019	8.863306046	-2.143788338	3.638148308	-0.050354013	-0.010776522	0.007009507	-0.857666016	0.471191406	0.260986328	883.34	-29.60001739	-64.45644079	-113.7742526	-66
35531	0	0.35369873	-0.081848145	0.148193359	0.999999046	-0.000640869	-0.000277519	0.000537872	8.842468262	-2.046203613	3.704833984	-0.032043461	-0.013875963	0.026893619	-0.857910156	0.475585938	0.254882813	883.44	-29.79845538	-64.45404279	-113.6326473	-66
35532	0	0.351921082	-0.08480072	0.150390625	0.999999046	-0.000237465	-0.000162125	0.000250816	8.798027039	-2.120018005	3.759765625	-0.011873246	-0.008106232	0.012540818	-0.857910156	0.475830078	0.260498047	883.44	-29.87708	-64.45612875	-113.5777441	-66
35533	0	0.35546875	-0.084716797	0.149414063	0.999999046	0.00037384	-0.000178337	-0.000213623	8.88671875	-2.117919922	3.735351563	0.018692017	-0.008916855	-0.010681153	-0.857910156	0.473632813	0.260742188	883.46	-29.79088146	-64.48615864	-113.6315003	-66
35534	0	0.355131149	-0.088178635	0.146971703	0.999999046	8.58307E-05	-0.000173569	-0.00031662	8.878278732	-2.204465866	3.674292564	0.004291535	-0.008678436	-0.015830994	-0.85546875	0.475585938	0.260498047	883.46	-29.71593368	-64.52139721	-113.7020193	-66
35535	0	0.356445313	-0.087524414	0.146240234	0.999999046	0.000881195	-0.000266075	0.0001297	8.911132813	-2.188110352	3.656005859	0.04405976	-0.013303759	0.006484986	-0.857666016	0.473388672	0.255126953	883.5	-29.6544301	-64.54040085	-113.6590781	-66
35536	0	0.352899551	-0.082111359	0.145036697	0.999998093	0.001533508	-0.000441551	0.000365257	8.822488785	-2.052783966	3.625917435	0.076675449	-0.02207757	0.018262871	-0.857910156	0.473632813	0.260742188	883.5	-29.58833832	-64.56357483	-113.5471553	-66
35537	0	0.359130859	-0.08215332	0.146484375	0.999999046	0.001232147	-0.000380516	-6.10352E-05	8.978271484	-2.053833008	3.662109375	0.061607378	-0.019025808	-0.003051759	-0.857910156	0.475585938	0.254882813	883.5	-29.46007316	-64.60490155	-113.5342689	-66
35538	0	0.358521461	-0.081742287	0.149097443	0.999999046	0.000291824	-2.86102E-05	-0.00017643	8.963036537	-2.043557167	3.727436066	0.014591217	-0.001430512	-0.008821488	-0.857910156	0.475830078	0.260498047	883.44	-29.37317258	-64.61756061	-113.599468	-66
35539	0	0.355224609	-0.08013916	0.149902344	0.999999046	0.000278473	-6.00815E-05	0.000404358	8.880615234	-2.003479004	3.747558594	0.013923646	-0.003004074	0.020217896	-0.85546875	0.475585938	0.260498047	883.46	-29.41328581	-64.60057026	-113.5258239	-66
35540	0	0.355300903	-0.078757286	0.149353027	0.999999046	0.000199318	0.000120163	0.000159264	8.882522583	-1.968932152	3.733825684	0.009965897	0.006008148	0.007963181	-0.857910156	0.475585938	0.254882813	883.4	-29.38903469	-64.57931682	-113.5307267	-66
35541	0	0.355773926	-0.080627441	0.14654541	0.999999046	-0.00094223	0.000512123	-0.000221252	8.894348145	-2.015686035	3.663635254	-0.047111521	0.025606161	-0.011062624	-0.857910156	0.475830078	0.2578125	883.4	-29.36927078	-64.54035097	-113.6756709	-66
35542	0	0.357495308	-0.086112976	0.144429207	0.999999046	-0.001047134	0.000547409	-0.000149727	8.937382698	-2.152824402	3.610730171	-0.052356732	0.027370459	-0.007486345	-0.857666016	0.473388672	0.255126953	883.56	-29.37316218	-64.49387958	-113.8074033	-66
35543	0	0.358215332	-0.084594727	0.14666748	0.999999046	-0.00050354	0.000412941	0.000324249	8.955383301	-2.114868164	3.666687012	-0.025177004	0.020647051	0.016212465	-0.860107422	0.471435547	0.258300781	883.44	-29.43011225	-64.43422209	-113.8206238	-66
35544	0	0.353770256	-0.080576897	0.145961761	0.999999046	-0.000344276	0.000219345	0.00039196	8.844256401	-2.014422417	3.649044037	-0.017213822	0.010967255	0.019598008	-0.857666016	0.471191406	0.255126953	883.46	-29.50542801	-64.39012908	-113.7892898	-66
35545	0	0.354736328	-0.080932617	0.150146484	0.999999046	-0.000137329	0.000119209	4.95911E-05	8.868408203	-2.02331543	3.753662109	-0.006866455	0.005960465	0.002479553	-0.857910156	0.475830078	0.2578125	883.46	-29.49712652	-64.37525755	-113.8183806	-66
35546	0	0.356279373	-0.084122658	0.149291992	0.999999046	-7.62939E-06	0.000156403	-0.0001297	8.906984329	-2.103066444	3.732299805	-0.00038147	0.007820129	-0.006484985	-0.857910156	0.473388672	0.2578125	883.46	-29.432352	-64.36670136	-113.8974918	-66
35547	0	0.358276367	-0.085510254	0.148681641	0.999999046	0.000133514	7.34329E-05	3.8147E-05	8.95690918	-2.137756348	3.717041016	0.00667572	0.003671646	0.001907349	-0.857666016	0.473388672	0.255126953	883.4	-29.39630207	-64.35692205	-113.9242278	-66
35548	0	0.354768753	-0.083240509	0.147717476	0.999999046	0.000899315	0.000185013	0.000236511	8.869218826	-2.081012726	3.692936897	0.044965751	0.009250642	0.011825563	-0.857666016	0.473388672	0.252197266	883.46	-29.3007922	-64.32483122	-113.9192971	-66
35549	0	0.353210449	-0.079589844	0.145751953	0.999999046	0.000495911	0.000164986	0.000141144	8.83026123	-1.989746094	3.643798828	0.024795533	0.008249283	0.00705719	-0.855224609	0.473388672	0.251953125	883.56	-29.23393191	-64.30021335	-113.9329642	-66
35550	0	0.356801033	-0.082902908	0.146499634	0.999999046	1.90735E-05	-8.58307E-05	-8.7738E-05	8.920025826	-2.072572708	3.662490845	0.000953674	-0.004291534	-0.004386902	-0.857666016	0.473388672	0.255126953	883.5	-29.20347988	-64.31358305	-113.9713335	-66
35551	0	0.356445313	-0.083496094	0.147644043	0.999999046	8.01086E-05	7.72476E-05	-0.000198364	8.911132813	-2.087402344	3.691101074	0.004005432	0.003862381	-0.009918213	-0.860107422	0.475830078	0.251953125	883.46	-29.12418757	-64.31682726	-114.0498242	-66
35552	0	0.35279274	-0.082722664	0.148870468	0.999999046	0.000115395	-9.15527E-05	-6.10352E-05	8.819818497	-2.068066597	3.721761703	0.00576973	-0.004577637	-0.003051758	-0.857666016	0.473388672	0.252197266	883.52	-29.08900525	-64.3291984	-114.077178	-66
35553	0	0.354492188	-0.081237793	0.152160645	0.999999046	0.000759125	-0.000128746	1.52588E-05	8.862304688	-2.030944824	3.804016113	0.037956242	-0.006437302	0.00076294	-0.857910156	0.475585938	0.254882813	883.4	-28.99991644	-64.3408911	-114.0822942	-66
35554	0	0.357702255	-0.079190254	0.150295258	0.999999046	0.000286102	0.000154495	-1.62125E-05	8.942556381	-1.979756355	3.757381439	0.014305115	0.007724762	-0.000810623	-0.860107422	0.475830078	0.249267578	883.5	-28.92535625	-64.32597264	-114.1277036	-66
35555	0	0.358032227	-0.080383301	0.147827148	0.999999046	-0.000324249	8.86917E-05	-8.39233E-05	8.950805664	-2.00958252	3.695678711	-0.016212464	0.004434586	-0.004196167	-0.860107422	0.473388672	0.249267578	883.54	-28.9141587	-64.32151805	-114.1838471	-66
35556	0	0.357103348	-0.080724716	0.148080826	0.999999046	0.000634193	-0.000320435	-9.53674E-07	8.927583694	-2.018117905	3.702020645	0.031709674	-0.01602173	-4.76837E-05	-0.857666016	0.473388672	0.252197266	883.46	-28.85751666	-64.35359307	-114.1698629	-66
35557	0	0.354675293	-0.079772949	0.148620605	0.999999046	0.000221252	-0.000235558	-3.8147E-06	8.866882324	-1.99432373	3.715515137	0.011062622	-0.011777878	-0.000190735	-0.860107422	0.473632813	0.252197266	883.5	-28.83763174	-64.37733172	-114.1689616	-66
35558	0	0.3548069	-0.081718445	0.149159431	0.999999046	9.72748E-05	-0.000314713	-3.05176E-05	8.870172501	-2.042961121	3.728985786	0.004863739	-0.015735627	-0.001525879	-0.857666016	0.473388672	0.252197266	883.44	-28.83550757	-64.4104414	-114.1619027	-66
35559	0	0.355834961	-0.08215332	0.148803711	0.999999046	0.000221252	-7.15256E-05	-0.000205994	8.895874023	-2.053833008	3.720092773	0.011062622	-0.003576279	-0.010299683	-0.857666016	0.473388672	0.252197266	883.5	-28.75436942	-64.42878358	-114.2259665	-66
35560	0	0.356622696	-0.083651543	0.146408081	0.999999046	9.63211E-05	-0.000143051	-0.000106812	8.915567398	-2.091288567	3.660202026	0.004816055	-0.007152557	-0.005340576	-0.860107422	0.473632813	0.252197266	883.5	-28.71693614	-64.44886077	-114.2584345	-66
35561	0	0.356750488	-0.081604004	0.146789551	0.999999046	0.000289917	-2.19345E-05	0.000156403	8.918762207	-2.040100098	3.66973877	0.01449585	-0.001096725	0.00782013	-0.860107422	0.473388672	0.249267578	883.4	-28.69885147	-64.44233607	-114.2433404	-66
35562	0	0.355938911	-0.078699112	0.149930954	0.999999046	0.000246048	-0.000104904	0.000118256	8.898472786	-1.967477798	3.748273849	0.012302399	-0.005245209	0.005912781	-0.860107422	0.473632813	0.252197266	883.46	-28.6870198	-64.44623838	-114.2297889	-66
35563	0	0.356201172	-0.078552246	0.150390625	0.999999046	-9.15527E-05	-0.000117302	-0.000202179	8.905029297	-1.963806152	3.759765625	-0.004577637	-0.005865097	-0.010108948	-0.860107422	0.473632813	0.252197266	883.4	-28.6475548	-64.46898042	-114.288278	-66
35564	0	0.35840416	-0.078495979	0.14876461	0.999999046	-0.000107765	-2.67029E-05	-0.000354767	8.960103989	-1.962399483	3.719115257	-0.00538826	-0.001335144	-0.017738343	-0.857421875	0.471191406	0.249511719	883.46	-28.5670549	-64.49103613	-114.3919619	-66
35565	0	0.352294922	-0.080505371	0.147155762	0.999999046	-0.000335693	-2.95639E-05	-9.53674E-05	8.807373047	-2.012634277	3.678894043	-0.016784668	-0.001478195	-0.004768372	-0.862304688	0.471435547	0.252441406	883.44	-28.56772692	-64.49909329	-114.4398348	-66
35566	0	0.355675697	-0.080354691	0.148239136	0.999999046	9.15527E-05	-0.000312805	1.43051E-05	8.891892433	-2.008867264	3.705978394	0.004577637	-0.015640259	0.000715256	-0.859863281	0.471191406	0.249511719	883.34	-28.57515858	-64.52963736	-114.4210629	-66
35567	0	0.355712891	-0.081787109	0.147827148	0.999999046	-0.000404358	1.62125E-05	2.28882E-05	8.892822266	-2.044677734	3.695678711	-0.020217896	0.000810623	0.001144409	-0.859863281	0.471191406	0.249511719	883.44	-28.60358382	-64.52657014	-114.4411682	-66
35568	0	0.356314659	-0.081618309	0.1477108	0.999999046	-0.000302315	-0.000101089	0.000113487	8.907866478	-2.040457726	3.692770004	-0.015115738	-0.005054474	0.005674362	-0.860107422	0.471435547	0.255371094	883.52	-28.65312358	-64.53032463	-114.4299767	-66
35569	0	0.358154297	-0.080200195	0.1484375	0.999999046	0.000270844	-0.000144005	9.91821E-05	8.953857422	-2.005004883	3.7109375	0.013542176	-0.007200241	0.004959107	-0.862304688	0.469238281	0.249755859	883.5	-28.63888451	-64.53921173	-114.4174115	-66
35570	0	0.354886055	-0.077870369	0.149963379	0.999999046	-6.10352E-05	-6.86646E-05	0.000141144	8.872151375	-1.946759224	3.749084473	-0.003051758	-0.003433228	0.00705719	-0.860107422	0.471435547	0.255371094	883.5	-28.66248546	-64.53816261	-114.4046632	-66
35571	0	0.35333252	-0.077453613	0.148071289	0.999999046	-0.000148773	-6.77109E-05	5.34058E-05	8.833312988	-1.936340332	3.701782227	-0.00743866	-0.003385544	0.002670288	-0.862304688	0.469238281	0.255615234	883.4	-28.67720354	-64.54183917	-114.4183934	-66
35572	0	0.357494354	-0.079367638	0.147875786	0.999999046	-0.000367165	1.52588E-05	-7.24792E-05	8.937358856	-1.984190941	3.696894646	-0.018358231	0.000762939	-0.003623962	-0.862304688	0.471435547	0.255371094	883.5	-28.6806957	-64.54415134	-114.4666398	-66
35573	0	0.355957031	-0.081787109	0.146118164	0.999999046	-0.00063324	0.000191689	-0.000110626	8.898925781	-2.044677734	3.652954102	-0.03166199	0.009584428	-0.005531311	-0.859863281	0.468994141	0.249755859	883.44	-28.68652705	-64.53086249	-114.5414442	-66
35574	0	0.356285095	-0.080489159	0.14517498	0.999999046	-0.000572205	6.48499E-05	-0.000123024	8.90712738	-2.012228966	3.629374504	-0.028610231	0.003242493	-0.0061512	-0.862304688	0.471435547	0.255371094	883.4	-28.69758202	-64.53112307	-114.6040669	-66
35575	0	0.356689453	-0.081054688	0.146179199	0.999999046	-0.000453949	-8.29697E-05	-0.000156403	8.917236328	-2.026367188	3.65447998	-0.02269745	-0.004148483	-0.00782013	-0.862304688	0.471435547	0.252441406	883.34	-28.70527376	-64.54814848	-114.6508158	-66
35576	0	0.357348442	-0.077842712	0.147695541	0.999999046	-0.000571251	-0.000230789	-9.25064E-05	8.933711052	-1.94606781	3.692388535	-0.028562548	-0.01153946	-0.004625321	-0.859863281	0.466796875	0.255615234	883.46	-28.75673116	-64.57660297	-114.6715906	-66
35577	0	0.358276367	-0.082702637	0.150634766	0.999999046	-0.000263214	-0.000361443	0.000137329	8.95690918	-2.067565918	3.765869141	-0.013160706	-0.018072129	0.006866455	-0.862060547	0.467041016	0.252929688	883.52	-28.83677631	-64.6053656	-114.6196998	-66
35578	0	0.355495453	-0.077630997	0.151250839	0.999999046	-0.000230789	-0.000270844	-7.24792E-05	8.887386322	-1.940774918	3.781270981	-0.011539459	-0.013542176	-0.003623962	-0.859863281	0.469238281	0.255371094	883.5	-28.8577497	-64.63649999	-114.6242022	-66
35579	0	0.352600098	-0.080383301	0.149536133	0.999999046	-0.00082016	0.000107765	8.7738E-05	8.815002441	-2.00958252	3.73840332	-0.041008	0.005388261	0.004386902	-0.859863281	0.467041016	0.258544922	883.48	-28.93585929	-64.62060514	-114.6460416	-66
35580	0	0.356216431	-0.081419945	0.147097588	0.999999046	-0.001217842	0.000295639	0.000434875	8.905410767	-2.035498619	3.67743969	-0.060892123	0.014781956	0.021743781	-0.862304688	0.467041016	0.258789063	883.5	-29.11082158	-64.56659087	-114.6128876	-66
35581	0	0.355957031	-0.086914063	0.143066406	0.999999046	-0.000797272	-2.86102E-06	0.000720978	8.898925781	-2.172851563	3.576660156	-0.039863594	-0.000143051	0.036048896	-0.862304688	0.467041016	0.258789063	883.46	-29.33314727	-64.52640867	-114.4750793	-66
35582	0	0.357302666	-0.083389282	0.14512825	0.999999046	0.000734329	-0.000505447	0.000864983	8.932566643	-2.084732056	3.628206253	0.036716471	-0.025272376	0.043249141	-0.859863281	0.469238281	0.258300781	883.56	-29.46936854	-64.52818811	-114.2355504	-66
35583	0	0.355895996	-0.078186035	0.14831543	0.999999046	0.000835419	-0.000452995	0.000530243	8.897399902	-1.954650879	3.707885742	0.041770943	-0.022649769	0.026512151	-0.857666016	0.468994141	0.258300781	883.46	-29.51725092	-64.54349125	-114.0823463	-66
35584	0	0.35576725	-0.077944756	0.151295662	0.999999046	3.52859E-05	-0.00019455	0.000465393	8.894181252	-1.948618889	3.782391548	0.001764298	-0.009727478	0.023269654	-0.857666016	0.471191406	0.258056641	883.54	-29.61189841	-64.53653114	-113.9758292	-66
35585	0	0.353881836	-0.081115723	0.151123047	0.999999046	-3.05176E-05	5.05447E-05	0.000328064	8.847045898	-2.027893066	3.778076172	-0.001525879	0.002527237	0.016403199	-0.857666016	0.471191406	0.260986328	883.5	-29.65573554	-64.51269642	-113.9376679	-66
35586	0	0.358268738	-0.08203125	0.144805908	0.999999046	-0.000362396	0.0001297	0.000422478	8.956718445	-2.05078125	3.620147705	-0.018119813	0.006484986	0.021123887	-0.857666016	0.471191406	0.260986328	883.38	-29.74782042	-64.47575259	-113.8889708	-66
35587	0	0.358276367	-0.087768555	0.142822266	0.999999046	-0.000198364	5.81741E-05	0.000328064	8.95690918	-2.194213867	3.570556641	-0.009918213	0.002908707	0.016403199	-0.857666016	0.471191406	0.258056641	883.44	-29.81052786	-64.45137394	-113.8499545	-66
35588	0	0.356433868	-0.084276199	0.144293785	0.999999046	0.0008955	-0.000307083	0.000182152	8.91084671	-2.106904984	3.607344627	0.044775016	-0.015354159	0.009107591	-0.857666016	0.471191406	0.260986328	883.38	-29.7612602	-64.47172151	-113.8006268	-66
35589	0	0.356933594	-0.07824707	0.144958496	0.999999046	0.000827789	-0.000411034	-4.19617E-05	8.923339844	-1.956176758	3.623962402	0.041389471	-0.020551684	-0.002098084	-0.857910156	0.473632813	0.260742188	883.52	-29.68501182	-64.51538175	-113.7857057	-66
35590	0	0.355719566	-0.078458786	0.149067879	0.999999046	-1.71661E-05	-0.000219345	-0.000247955	8.892989159	-1.96146965	3.726696968	-0.000858307	-0.010967255	-0.012397766	-0.857910156	0.471435547	0.263916016	883.52	-29.6390317	-64.55163658	-113.8498206	-67
35591	0	0.362121582	-0.080566406	0.150939941	0.999999046	3.05176E-05	-0.000239372	-0.00025177	9.053039551	-2.014160156	3.773498535	0.001525879	-0.011968613	-0.012588501	-0.857666016	0.471191406	0.258056641	883.52	-29.58857673	-64.59007731	-113.9056849	-68
35592	0	0.354545593	-0.083614349	0.152421951	0.999999046	-0.000706673	0.00022316	-4.19617E-05	8.863639832	-2.090358734	3.810548782	-0.035333637	0.011157991	-0.002098084	-0.857666016	0.471191406	0.258056641	883.46	-29.61125752	-64.5702384	-113.9725562	-68
35593	0	0.354309082	-0.082336426	0.148925781	0.999999046	3.43323E-05	0.000134468	0.000202179	8.857727051	-2.058410645	3.723144531	0.001716614	0.006723404	0.010108948	-0.857666016	0.471191406	0.260986328	883.44	-29.61062742	-64.54528387	-113.9747385	-67
35594	0	0.354539871	-0.0844841	0.147255898	0.999999046	-8.58307E-05	0.000156403	0.000258446	8.86349678	-2.112102509	3.681397438	-0.004291534	0.00782013	0.012922287	-0.860107422	0.473632813	0.258056641	883.5	-29.63311442	-64.51485922	-113.9620784	-67
35595	0	0.354614258	-0.087341309	0.14630127	0.999999046	-0.000141144	0.00024128	0.000164032	8.865356445	-2.183532715	3.657531738	-0.00705719	0.01206398	0.008201599	-0.857910156	0.473388672	0.2578125	883.56	-29.63265028	-64.48121907	-113.9808049	-67
35596	0	0.356040001	-0.086096764	0.148156166	0.999999046	0.000601768	9.53674E-06	0.000385284	8.901000023	-2.15241909	3.703904152	0.030088427	0.000476837	0.019264223	-0.857666016	0.471191406	0.260986328	883.44	-29.62099197	-64.45802086	-113.9268785	-67
35597	0	0.354125977	-0.083251953	0.14831543	0.999999046	0.000839233	5.05447E-05	0.00031662	8.853149414	-2.081298828	3.707885742	0.041961676	0.002527237	0.015830996	-0.857910156	0.473632813	0.260742188	883.4	-29.56291374	-64.43455723	-113.8922093	-67
35598	0	0.354852676	-0.081274033	0.148913383	0.999999046	0.000873566	4.3869E-05	0.000240326	8.87131691	-2.031850815	3.722834587	0.04367829	0.002193451	0.012016298	-0.857666016	0.473388672	0.252197266	883.44	-29.48559278	-64.4160548	-113.8687332	-66
35599	0	0.357116699	-0.081115723	0.149780273	0.999999046	0.00075531	0.000115395	8.01086E-05	8.92791748	-2.027893066	3.744506836	0.037765507	0.00576973	0.004005433	-0.857666016	0.473388672	0.255126953	883.46	-29.37980206	-64.39944453	-113.8962032	-66
35600	0	0.35688591	-0.082901955	0.148705482	0.999999046	-4.673E-05	0.000354767	0.000292778	8.922147751	-2.072548866	3.717637062	-0.002336502	0.017738343	0.014638901	-0.857666016	0.473388672	0.252197266	883.44	-29.38221984	-64.34696186	-113.903934	-66
35601	0	0.356323242	-0.082641602	0.146118164	0.999999046	-1.52588E-05	0.000332832	0.000228882	8.908081055	-2.066040039	3.652954102	-0.000762939	0.016641617	0.011444092	-0.857666016	0.473388672	0.252197266	883.44	-29.37048291	-64.30037084	-113.9243687	-66
35602	0	0.356431961	-0.080429077	0.147877693	0.999999046	0.000314713	-1.33514E-05	0.000202179	8.910799026	-2.010726929	3.696942329	0.015735627	-0.000667572	0.010108948	-0.857666016	0.475585938	0.249023438	883.46	-29.35566347	-64.28995671	-113.9002093	-66
35603	0	0.352722168	-0.079223633	0.148132324	0.999999046	4.57764E-05	0.00011158	4.57764E-05	8.818054199	-1.98059082	3.703308105	0.002288818	0.005578995	0.002288818	-0.860351563	0.475830078	0.2578125	883.4	-29.32432932	-64.27589022	-113.938982	-66
35604	0	0.353902817	-0.081684113	0.146142006	0.999999046	0.000170708	-0.000165939	6.10352E-05	8.847570419	-2.042102814	3.653550148	0.008535385	-0.008296967	0.003051758	-0.857666016	0.475585938	0.251953125	883.44	-29.31426512	-64.28878519	-113.9307655	-66
35605	0	0.358886719	-0.083740234	0.150512695	0.999999046	-0.000156403	-0.000109673	-0.000247955	8.972167969	-2.093505859	3.762817383	-0.00782013	-0.005483627	-0.012397766	-0.857910156	0.475585938	0.254882813	883.44	-29.27098164	-64.3133594	-114.002399	-66
35606	0	0.355421066	-0.08409977	0.149064064	0.999999046	-0.000494003	0.000131607	3.8147E-05	8.885526657	-2.10249424	3.726601601	-0.024700166	0.006580353	0.001907349	-0.857666016	0.475585938	0.251953125	883.44	-29.29785216	-64.29771853	-114.0352391	-66
35607	0	0.354003906	-0.081848145	0.149353027	0.999999046	3.8147E-05	-2.19345E-05	0.000366211	8.850097656	-2.046203613	3.733825684	0.001907349	-0.001096725	0.018310547	-0.857910156	0.475585938	0.254882813	883.38	-29.34960665	-64.27897461	-113.9770453	-66
35608	0	0.356027603	-0.079900742	0.151356697	0.999999046	-0.000182152	7.24792E-05	0.00020504	8.900690079	-1.997518539	3.783917427	-0.00910759	0.003623962	0.010251999	-0.85546875	0.475585938	0.249023438	883.5	-29.38170688	-64.25981294	-113.9611977	-66
35609	0	0.351928711	-0.083312988	0.148620605	0.999999046	-0.000301361	5.05447E-05	0.000152588	8.798217773	-2.082824707	3.715515137	-0.015068054	0.002527237	0.007629395	-0.860107422	0.473632813	0.252197266	883.46	-29.41920675	-64.2457127	-113.964933	-65
35610	0	0.357136726	-0.085223198	0.15141201	0.999999046	0.000547409	-0.000181198	0.000182152	8.928418159	-2.130579948	3.785300255	0.027370455	-0.009059907	0.00910759	-0.857666016	0.475585938	0.251953125	883.56	-29.39269393	-64.25297391	-113.9270973	-65
35611	0	0.355712891	-0.084350586	0.15234375	0.999999046	0.000453949	-6.38962E-05	0.000156403	8.892822266	-2.108764648	3.80859375	0.02269745	-0.003194809	0.00782013	-0.860107422	0.475830078	0.254882813	883.6	-29.35784373	-64.24982171	-113.9159099	-65
35612	0	0.353569984	-0.083044052	0.149808884	0.999999046	0.000687599	-0.000114441	0.000312805	8.839249611	-2.076101303	3.745222092	0.034379962	-0.005722046	0.01564026	-0.857910156	0.475585938	0.254882813	883.44	-29.33447828	-64.24287088	-113.8628211	-65
35613	0	0.356445313	-0.079833984	0.15020752	0.999999046	0.000675201	-0.000128746	0.00018692	8.911132813	-1.995849609	3.755187988	0.033760074	-0.006437302	0.009346009	-0.860351563	0.478027344	0.254882813	883.46	-29.28777795	-64.24448328	-113.8362053	-65
35614	0	0.354255676	-0.081659317	0.147540092	0.999999046	-0.000171661	9.53674E-05	-2.00272E-05	8.856391907	-2.041482925	3.688502312	-0.008583069	0.004768372	-0.001001358	-0.857666016	0.475585938	0.251953125	883.52	-29.26923787	-64.23537078	-113.8847704	-65
35615	0	0.355407715	-0.084411621	0.148132324	0.999999046	0.000190735	-8.67844E-05	0.000106812	8.885192871	-2.110290527	3.703308105	0.009536743	-0.004339218	0.005340576	-0.857666016	0.475585938	0.251953125	883.4	-29.25685787	-64.23736826	-113.8807536	-64
35616	0	0.356269836	-0.083515167	0.150420189	0.999999046	4.1008E-05	-9.15527E-05	9.53674E-05	8.906745911	-2.087879181	3.760504723	0.0020504	-0.004577637	0.004768372	-0.857910156	0.477783203	0.248779297	883.5	-29.25986387	-64.24044083	-113.8718849	-65
35617	0	0.354370117	-0.08380127	0.149353027	0.999999046	-0.000133514	3.91006E-05	0.0001297	8.85925293	-2.095031738	3.733825684	-0.00667572	0.001955032	0.006484985	-0.860107422	0.475830078	0.254882813	883.5	-29.27493021	-64.22848195	-113.8831951	-65
35618	0	0.35470295	-0.082102776	0.14917469	0.999999046	-7.82013E-05	-6.67572E-05	0.000128746	8.867573738	-2.052569389	3.729367256	-0.003910065	-0.00333786	0.006437302	-0.860107422	0.478027344	0.249023438	883.4	-29.2957078	-64.22716558	-113.8713552	-65
35619	0	0.356384277	-0.082824707	0.148620605	0.999999046	-9.53674E-05	-5.62668E-05	0.000205994	8.909606934	-2.070617676	3.715515137	-0.004768372	-0.002813339	0.010299683	-0.857666016	0.475585938	0.251953125	883.46	-29.33326406	-64.22051876	-113.8485882	-65
35620	0	0.354048729	-0.081352234	0.152104378	0.999999046	0.000395775	-0.000127792	7.53403E-05	8.851218224	-2.033805847	3.802609444	0.019788743	-0.006389618	0.003767014	-0.857910156	0.477783203	0.248779297	883.38	-29.29551266	-64.22824505	-113.8405837	-65
35621	0	0.355407715	-0.081481934	0.148864746	0.999999046	-0.000278473	0.000180244	5.34058E-05	8.885192871	-2.03704834	3.721618652	-0.013923645	0.009012222	0.002670288	-0.85546875	0.475585938	0.249023438	883.5	-29.29463364	-64.20647136	-113.8792817	-65
35622	0	0.354063988	-0.082700729	0.146869659	0.999999046	-0.000293732	0.000312805	-2.67029E-05	8.851599693	-2.067518234	3.671741486	-0.014686585	0.015640259	-0.001335144	-0.860107422	0.478027344	0.24609375	883.46	-29.2637902	-64.17601254	-113.9493816	-65
35623	0	0.356689453	-0.083007813	0.14666748	0.999999046	-0.000667572	0.000317574	1.14441E-05	8.917236328	-2.075195313	3.666687012	-0.033378604	0.015878679	0.000572205	-0.857910156	0.477783203	0.251708984	883.44	-29.28340073	-64.14308396	-114.0141462	-64
35624	0	0.356836319	-0.084497452	0.149343491	0.999999046	-0.000432014	7.05719E-05	3.71933E-05	8.920907974	-2.112436295	3.733587265	-0.021600724	0.003528595	0.001859665	-0.857910156	0.477783203	0.248779297	883.56	-29.31011572	-64.1334255	-114.0374668	-64
35626	0	0.351100922	-0.079441071	0.152542114	0.999999046	4.57764E-05	0.000146866	6.10352E-05	8.777523041	-1.986026764	3.813552856	0.002288818	0.007343292	0.003051758	-0.857910156	0.477783203	0.251708984	883.5	-29.27766135	-64.11468588	-114.0687426	-64
35627	0	0.354248047	-0.080444336	0.149963379	0.999999046	-0.000324249	0.000267982	-0.000148773	8.856201172	-2.011108398	3.749084473	-0.016212464	0.013399125	-0.00743866	-0.857666016	0.475585938	0.24609375	883.5	-29.230237	-64.09561724	-114.1610635	-65
35628	0	0.355780602	-0.083791733	0.147474289	0.999999046	-0.000460625	0.000116348	-9.63211E-05	8.894515038	-2.09479332	3.686857224	-0.023031236	0.005817414	-0.004816055	-0.857666016	0.475585938	0.251953125	883.52	-29.22701962	-64.08886229	-114.2260283	-65
35629	0	0.355529785	-0.08416748	0.149047852	0.999999046	0.0001297	-0.000155449	7.24792E-05	8.888244629	-2.104187012	3.726196289	0.006484985	-0.007772446	0.003623962	-0.857666016	0.475585938	0.249023438	883.52	-29.2224178	-64.09987032	-114.2146333	-65
35630	0	0.35495472	-0.082531929	0.152863503	0.999999046	9.91821E-05	-0.000144958	0.000164032	8.873867989	-2.063298225	3.821587563	0.004959106	-0.007247925	0.008201599	-0.860107422	0.475830078	0.254882813	883.44	-29.23876927	-64.10460197	-114.1914062	-65
35631	0	0.352416992	-0.08215332	0.152893066	0.999999046	0.000183105	-0.000239372	-7.62939E-06	8.810424805	-2.053833008	3.82232666	0.009155274	-0.011968613	-0.00038147	-0.860107422	0.475830078	0.251953125	883.5	-29.22080526	-64.12822853	-114.1924388	-65
35632	0	0.35487175	-0.084228516	0.153119087	0.999999046	0.000330925	-0.000131607	-8.4877E-05	8.871793747	-2.105712891	3.82797718	0.01654625	-0.006580353	-0.004243851	-0.860107422	0.475830078	0.251953125	883.44	-29.15748707	-64.14523433	-114.2248575	-65
35633	0	0.357116699	-0.083618164	0.15032959	0.999999046	0.000480652	-0.000197411	0.000125885	8.92791748	-2.090454102	3.758239746	0.024032594	-0.00987053	0.006294251	-0.860107422	0.473388672	0.249267578	883.46	-29.12818893	-64.15707122	-114.203072	-65
35634	0	0.358435631	-0.081613541	0.147763252	0.999999046	6.10352E-05	-8.39233E-05	0.000270844	8.96089077	-2.040338516	3.694081306	0.003051758	-0.004196167	0.013542175	-0.857910156	0.477783203	0.248779297	883.52	-29.16391097	-64.14964597	-114.1529932	-65
35635	0	0.355712891	-0.079162598	0.150390625	0.999999046	6.10352E-05	-0.00026989	0.000156403	8.892822266	-1.979064941	3.759765625	0.003051758	-0.013494492	0.00782013	-0.860107422	0.475830078	0.251953125	883.52	-29.19707573	-64.1672844	-114.114292	-65
35636	0	0.351861954	-0.080475807	0.149843216	0.999999046	-2.00272E-05	-0.000331879	9.91821E-05	8.796548843	-2.01189518	3.746080399	-0.001001358	-0.016593933	0.004959107	-0.860351563	0.478027344	0.251953125	883.46	-29.23473037	-64.19428462	-114.0767504	-65
35637	0	0.353210449	-0.082458496	0.152038574	0.999999046	0.000640869	-0.000472069	1.90735E-05	8.83026123	-2.061462402	3.800964355	0.03204346	-0.023603442	0.000953674	-0.860107422	0.475830078	0.249267578	883.44	-29.19622263	-64.23965142	-114.0412436	-65
35638	0	0.356585503	-0.08343792	0.15174675	0.999999046	0.000225067	-0.000205994	0.000133514	8.914637566	-2.08594799	3.793668747	0.011253357	-0.010299683	0.00667572	-0.857910156	0.477783203	0.248779297	883.52	-29.1982822	-64.2519256	-114.0082023	-65
35639	0	0.357299805	-0.082885742	0.149353027	0.999999046	0.00044632	-0.000254631	0.000205994	8.932495117	-2.072143555	3.733825684	0.02231598	-0.012731553	0.010299683	-0.857666016	0.475585938	0.251953125	883.5	-29.19575576	-64.26505265	-113.9600484	-65
35640	0	0.356793404	-0.080945969	0.150341034	0.999999046	0.000203133	-0.000175476	0.000343323	8.919835091	-2.023649216	3.758525848	0.010156632	-0.008773804	0.017166138	-0.857666016	0.475585938	0.251953125	883.52	-29.24025209	-64.26259873	-113.8917396	-65
35641	0	0.3515625	-0.079467773	0.148803711	0.999999046	-3.8147E-05	-0.000266075	0.000324249	8.7890625	-1.986694336	3.720092773	-0.001907349	-0.013303757	0.016212464	-0.857910156	0.477783203	0.248779297	883.46	-29.31873689	-64.27023841	-113.8100387	-65
35642	0	0.355312347	-0.079954147	0.147447586	0.999999046	8.58307E-05	-0.000318527	8.67844E-05	8.882808685	-1.998853683	3.686189651	0.004291535	-0.015926361	0.004339218	-0.857910156	0.477783203	0.248779297	883.46	-29.3397982	-64.29654389	-113.7761538	-65
35643	0	0.358398438	-0.08190918	0.148193359	0.999999046	-0.000606537	-0.00014019	-8.39233E-05	8.959960938	-2.047729492	3.704833984	-0.030326845	-0.007009507	-0.004196167	-0.85546875	0.477783203	0.251708984	883.46	-29.38400907	-64.31472876	-113.8036069	-65
35644	0	0.355951309	-0.084651947	0.145915031	0.999999046	-0.000288963	-0.000267029	-5.81741E-05	8.89878273	-2.116298676	3.647875786	-0.014448166	-0.013351441	-0.002908707	-0.857910156	0.477783203	0.248779297	883.46	-29.41242419	-64.34420884	-113.8061908	-65
35645	0	0.359313965	-0.081665039	0.149108887	0.999999046	0.000400543	-0.000433922	0.000125885	8.982849121	-2.041625977	3.727722168	0.020027162	-0.021696092	0.006294251	-0.857910156	0.475830078	0.2578125	883.4	-29.41957369	-64.38006686	-113.7574319	-65
35646	0	0.35874939	-0.079929352	0.146601677	0.999999046	0.000162125	-0.000364304	-7.24792E-05	8.968734741	-1.998233795	3.665041924	0.008106232	-0.01821518	-0.003623963	-0.857910156	0.478027344	0.254638672	883.5	-29.40449324	-64.42032795	-113.7557391	-65
35647	0	0.359558105	-0.077453613	0.145385742	0.999999046	0.000297546	-0.000376701	-0.000164032	8.988952637	-1.936340332	3.634643555	0.01487732	-0.018835069	-0.008201599	-0.857666016	0.475585938	0.251953125	883.46	-29.35588201	-64.46726661	-113.7747036	-65
35648	0	0.359200478	-0.072612762	0.141921997	0.999999046	0.00032711	-0.000608444	-0.000377655	8.98001194	-1.815319061	3.548049927	0.016355516	-0.030422214	-0.018882753	-0.857666016	0.475585938	0.251953125	883.44	-29.28566047	-64.54984496	-113.8118045	-64
35649	0	0.361633301	-0.070373535	0.139099121	0.999999046	6.48499E-05	-0.000750542	-0.000301361	9.04083252	-1.759338379	3.477478027	0.003242493	-0.037527088	-0.015068056	-0.860351563	0.475830078	0.260742188	883.4	-29.2774354	-64.64301916	-113.8214132	-64
35650	0	0.355779648	-0.069714546	0.138084412	0.999998093	-0.000729561	-0.000962257	-0.000717163	8.894491196	-1.742863655	3.452110291	-0.036478055	-0.048112885	-0.035858166	-0.857666016	0.473388672	0.255126953	883.38	-29.29680078	-64.78121674	-113.8920465	-63
35651	0	0.362731934	-0.068969727	0.137817383	0.999998093	-0.000857353	-0.001255035	-0.000801086	9.06829834	-1.724243164	3.44543457	-0.042867682	-0.062751801	-0.040054341	-0.860107422	0.471435547	0.260986328	883.46	-29.34698349	-64.95406252	-113.94923	-63
35652	0	0.366743088	-0.074178696	0.140004158	0.999998093	-0.000724792	-0.0014925	-0.000557899	9.168577194	-1.854467392	3.500103951	-0.036239643	-0.074625053	-0.027894988	-0.857910156	0.471435547	0.263916016	883.4	-29.46272703	-65.13743633	-113.912539	-63
35653	0	0.374206543	-0.073669434	0.145568848	0.999998093	-0.00014782	-0.001689911	-0.000499725	9.355163574	-1.84173584	3.639221191	-0.00739098	-0.084495588	-0.02498628	-0.860107422	0.469238281	0.267089844	883.52	-29.54937895	-65.33753452	-113.8391819	-63
35654	0	0.372574806	-0.067237854	0.146853447	0.999996185	0.001807213	-0.001704216	0.000926971	9.314370155	-1.68094635	3.671336174	0.090360747	-0.0852109	0.046348626	-0.860107422	0.467041016	0.267333984	883.44	-29.72419612	-65.45848067	-113.4308979	-63
35655	0	0.370483398	-0.055969238	0.146240234	0.999991417	0.003276825	-0.001955986	0.001083374	9.262084961	-1.399230957	3.656005859	0.163841677	-0.097799558	0.054168843	-0.857910156	0.471435547	0.266845703	883.5	-29.79654828	-65.59574579	-112.9472608	-63
35656	0	0.37681675	-0.0423069	0.159814835	0.999996185	0.002347946	-0.000899315	-1.90735E-06	9.420418739	-1.057672501	3.995370865	0.117397432	-0.044965791	-9.53675E-05	-0.857910156	0.473632813	0.26953125	883.44	-29.60146748	-65.69005022	-112.8751415	-63
35657	0	0.388793945	-0.026428223	0.179016113	0.999997139	-0.00063324	0.001946449	-0.000476837	9.719848633	-0.660705566	4.475402832	-0.031662011	0.097322536	-0.023841875	-0.855712891	0.475830078	0.271972656	883.46	-29.28136898	-65.52740224	-113.3096952	-62
35658	0	0.408334732	-0.002735138	0.202757835	0.99997139	-0.003098488	0.00675106	-0.001188278	10.2083683	-0.068378448	5.068945885	-0.154925854	0.337556208	-0.05941447	-0.860107422	0.473632813	0.258056641	883.46	-28.51178046	-64.92047338	-114.5410247	-61
35659	0	0.427062988	0.034179688	0.228881836	0.999895096	-0.005324364	0.012905121	-0.003723145	10.67657471	0.854492188	5.722045898	-0.266227449	0.645278494	-0.186163704	-0.864746094	0.469238281	0.252929688	883.46	-26.83267068	-63.81288627	-117.0679295	-60
35660	0	0.437876701	0.064230919	0.23783493	0.999675751	-0.010837555	0.021565437	-0.008019447	10.94691753	1.605772972	5.94587326	-0.541936181	1.078388143	-0.401015606	-0.875488281	0.458251953	0.225585938	883.46	-24.28605077	-61.9821761	-121.2853846	-63
35661	0	0.421020508	0.060058594	0.248535156	0.999412537	-0.01470089	0.02790451	-0.013343811	10.5255127	1.501464844	6.213378906	-0.735188236	1.395498397	-0.667321038	-0.902587891	0.436767578	0.194091797	883.46	-21.14129604	-59.62096311	-126.7645434	-76
35662	0	0.419727325	0.044519424	0.271098137	0.999228477	-0.00724411	0.033601761	-0.018990517	10.49318314	1.112985611	6.777453423	-0.362298669	1.68052018	-0.949770062	-0.928955078	0.404296875	0.155029297	883.42	-16.55244673	-56.67130375	-133.0864997	-69
35663	0	0.399475098	0.033935547	0.270629883	0.998865128	-0.001418114	0.039340973	-0.026802063	9.986877441	0.848388672	6.76574707	-0.070932516	1.967792974	-1.340610243	-0.956542969	0.362548828	0.08203125	883.52	-10.85945863	-53.00201602	-140.1605842	-63
35664	0	0.405603409	0.017252922	0.275889397	0.998418808	0.004991531	0.045361519	-0.032820702	10.14008522	0.431323051	6.897234917	0.24970819	2.269272082	-1.64190053	-0.98828125	0.307617188	-0.001220703	883.5	-4.778712743	-48.33897246	-147.1766506	-64
35665	0	0.412536621	0.022888184	0.324645996	0.997932434	0.009633064	0.050952911	-0.037971497	10.31341553	0.57220459	8.116149902	0.481985436	2.549402819	-1.89988438	-1.009765625	0.240966797	-0.098632813	883.5	1.030517478	-42.61433413	-153.6478965	-63
35666	0	0.39751339	0.053322792	0.316562653	0.997594833	0.003369331	0.055703163	-0.041103363	9.93783474	1.333069801	7.914066315	0.168601737	2.787392827	-2.056817114	-1.015625	0.153808594	-0.220947266	883.46	5.064060802	-35.95670898	-159.2804667	-62
35667	0	0.369995117	0.062988281	0.340270996	0.997454643	-0.010128021	0.057011604	-0.04158783	9.24987793	1.574707031	8.506774902	-0.506831006	2.853000409	-2.08115692	-1.002685547	0.066162109	-0.338623047	883.44	6.560370953	-28.94316987	-164.132102	-67
35668	0	0.339314461	0.051720619	0.368481636	0.997355461	-0.007657051	0.060810089	-0.039051056	8.482861519	1.29301548	9.212040901	-0.383190363	3.043187232	-1.954275622	-0.966552734	-0.007080078	-0.461425781	883.4	7.427834199	-21.45362542	-168.1263549	-73
35669	0	0.297119141	0.035583496	0.375305176	0.997403145	0.002799988	0.062272072	-0.036052704	7.427978516	0.889587402	9.382629395	0.140120666	3.116300796	-1.804196751	-0.904296875	-0.078857422	-0.588867188	883.4	8.777282397	-13.78394223	-171.3824392	-75
35670	0	0.255610466	0.036792755	0.384789467	0.997406006	0.009356499	0.063755989	-0.032025337	6.39026165	0.919818878	9.619736671	0.468229612	3.190556951	-1.602651982	-0.820800781	-0.151123047	-0.703125	883.5	10.31272296	-5.954606402	-173.8472586	-71
35671	0	0.241943359	0.010803223	0.319946289	0.997320175	0.005688667	0.066310883	-0.030380249	6.048583984	0.270080566	7.998657227	0.284687714	3.318508991	-1.520370799	-0.711669922	-0.219970703	-0.812988281	883.46	11.06872426	2.165311057	-175.87902	-75
35672	0	0.20480442	-0.006671906	0.19889164	0.997049332	-0.013462067	0.070654869	-0.026816368	5.120110512	-0.166797638	4.972290993	-0.67376613	3.536222108	-1.342138694	-0.577636719	-0.265136719	-0.90625	883.4	9.37444132	10.67709447	-177.4965761	-67
35673	0	0.188476563	-0.064819336	0.105895996	0.996693611	-0.031700134	0.073288918	-0.014995575	4.711914063	-1.620483398	2.647399902	-1.586755694	3.66848942	-0.750606093	-0.427001953	-0.255615234	-0.99609375	883.5	5.594818036	19.21607438	-178.1402334	-62
35674	0	0.168827057	-0.092892647	0.033752441	0.997094154	-0.027416229	0.071022034	0.002541542	4.220676422	-2.32231617	0.843811035	-1.372140565	3.554544738	0.127200313	-0.266845703	-0.199462891	-1.073242188	883.4	2.848953252	27.29015121	-177.1733185	-63
35675	0	0.145568848	-0.1015625	-0.01159668	0.997429848	-0.030185699	0.062745094	0.016895294	3.639221191	-2.5390625	-0.289916992	-1.510579303	3.139945157	0.845489161	-0.114746094	-0.134033203	-1.113037109	883.38	0.685848387	34.38920023	-174.6616742	-62
35677	0	0.119873047	0.09765625	-0.072021484	0.998394012	-0.018923759	0.051433563	0.014286041	2.996826172	2.44140625	-1.800537109	-0.946694538	2.573054974	0.714684482	0.126953125	-0.071289063	-1.114257813	883.5	-0.200157613	40.24252617	-172.5616327	-57
35678	0	0.032162666	0.070620537	-0.064939499	0.997688293	-0.045062065	0.050152779	0.008458138	0.804066658	1.76551342	-1.623487473	-2.254840794	2.50957276	0.423233011	0.235595703	-0.017333984	-1.093017578	883.34	-4.673355503	45.99235262	-171.5696997	-62
35679	0	-0.479431152	0.13873291	-0.229309082	0.995769501	-0.086131096	0.026790619	0.017505646	-11.98577881	3.468322754	-5.732727051	-4.312637795	1.34142303	0.876518622	0.329833984	0.094970703	-1.058349609	883.34	-12.87017989	49.32270626	-169.3280513	-61
35680	0	-1.091657639	-0.094349861	-0.267906189	0.994169235	-0.101875305	-0.024477959	0.025462151	-27.29144096	-2.358746529	-6.697654724	-5.103687335	-1.226281948	1.275587397	0.358154297	0.296142578	-1.004394531	883.5	-20.49552471	47.50350316	-163.8961606	-62
35681	0	-0.90814209	-0.210632324	0.298461914	0.996905327	-0.014522552	-0.076910973	-0.007270813	-22.70355225	-5.265808105	7.461547852	-0.72687751	-3.849519999	-0.363916085	0.289306641	0.447265625	-0.969970703	883.46	-20.01277631	38.9827364	-160.7456304	-63
35682	0	-0.38848877	-0.087306023	0.90436554	0.992507935	0.077469826	-0.078906059	-0.051956177	-9.712219238	-2.182650566	22.60913849	3.88319332	-3.955184865	-2.604315636	0.1015625	0.422363281	-1.012207031	883.56	-13.16363464	28.63199655	-164.4711783	-65
35683	0	-0.172363281	0.10345459	0.852172852	0.997850418	-0.024092674	-0.0366745	-0.048671722	-4.309082031	2.586364746	21.30432129	-1.205497582	-1.83503998	-2.435331299	-0.086181641	0.284179688	-1.065673828	883.42	-17.95473998	23.10524966	-169.2006362	-64
35684	0	-0.142942429	-0.240924835	0.519529343	0.997608185	-0.065391541	-0.005213737	-0.021752357	-3.573560715	-6.02312088	12.98823357	-3.272185439	-0.260894846	-1.088485557	-0.171875	0.387207031	-1.020263672	883.52	-26.28253695	21.63354997	-171.4626303	-69
35685	0	-0.080322266	-0.225463867	0.165710449	0.999961853	-0.004714012	-0.006427765	-0.003547668	-2.008056641	-5.63659668	4.14276123	-0.235703598	-0.321392322	-0.177385673	-0.190917969	0.477050781	-0.974853516	883.46	-26.81398242	20.81209658	-171.4950338	-63
35686	0	-0.038682938	-0.161615372	0.001667023	0.999918938	0.008710861	-0.00919342	-0.000504494	-0.967073441	-4.040384293	0.041675568	0.435554723	-0.459683329	-0.025225361	-0.20703125	0.46875	-0.979003906	883.4	-25.64869897	19.86072682	-171.0554278	-69
35687	0	-0.100341797	-0.12298584	-0.093383789	0.999792099	-0.006899834	-0.018695831	0.004154205	-2.508544922	-3.074645996	-2.334594727	-0.345015516	-0.93485614	0.207724615	-0.229980469	0.453857422	-0.982177734	883.42	-25.96495257	18.16299233	-169.6246761	-77
35688	0	-0.07276535	-0.210410118	-0.106872559	0.999037743	-0.031550407	-0.029380798	-0.007987976	-1.819133759	-5.260252953	-2.671813965	-1.578026263	-1.469511022	-0.399526886	-0.270019531	0.488769531	-0.948242188	883.46	-29.36664006	14.78200434	-168.8545821	-73
35689	0	-0.040283203	-0.289978027	0.024902344	0.998386383	-0.021723747	-0.048709869	-0.019454956	-1.007080078	-7.249450684	0.622558594	-1.086771686	-2.436803664	-0.973271101	-0.349121094	0.540771484	-0.890380859	883.46	-31.68575278	8.863900261	-167.9319674	-73
35690	0	0.033781052	-0.37421608	0.1995821	0.997704506	-0.00969696	-0.060462952	-0.028905869	0.844526291	-9.355401993	4.989552498	-0.485219322	-3.025462728	-1.446400241	-0.467041016	0.549560547	-0.815429688	883.46	-32.74706084	1.250267723	-167.0458658	-71
35691	0	0.109741211	-0.386169434	0.370300293	0.99784565	-0.002384186	-0.062090874	-0.021038055	2.743530273	-9.65423584	9.257507324	-0.11929496	-3.106774775	-1.052658724	-0.595703125	0.528076172	-0.734375	883.56	-33.12853252	-6.024020961	-165.2067711	-80
35692	0	0.145057678	-0.400094986	0.450080872	0.998016357	-0.000406265	-0.06248188	-0.00763607	3.626441956	-10.00237465	11.25202179	-0.020326702	-3.12616088	-0.38205611	-0.703369141	0.508056641	-0.637207031	883.56	-33.73273712	-12.47691152	-161.955701	-77
35693	0	0.142883301	-0.315246582	0.513427734	0.998360634	0.010910034	-0.056174278	0.000301361	3.57208252	-7.881164551	12.83569336	0.545799872	-2.810249111	0.01507629	-0.778076172	0.495849609	-0.539794922	883.38	-33.48408544	-17.81209197	-158.2369112	-73
35694	0	0.141798019	-0.291418076	0.531817436	0.998894691	0.008155823	-0.045749664	0.007014275	3.544950485	-7.285451889	13.29543591	0.407941405	-2.288326133	0.350842965	-0.829101563	0.491455078	-0.461425781	883.56	-33.85995611	-21.71683243	-154.4399568	-68
35695	0	0.137145996	-0.218933105	0.53692627	0.999251366	0.0129776	-0.03365612	0.01391983	3.428649902	-5.473327637	13.42315674	0.649041784	-1.683225572	0.696165041	-0.851806641	0.495117188	-0.388183594	883.46	-33.85422591	-24.01168931	-150.6749642	-68
35696	0	0.162559509	-0.193258286	0.471811295	0.999562263	0.003014565	-0.024608612	0.016104698	4.063987732	-4.831457138	11.79528236	0.150750191	-1.230609913	0.805352255	-0.855712891	0.515380859	-0.349365234	883.52	-34.94764609	-25.27278588	-147.2547575	-69
35697	0	0.154602051	-0.206481934	0.421325684	0.999743462	-0.010284424	-0.015799522	0.012485504	3.86505127	-5.16204834	10.53314209	-0.51426502	-0.790043452	0.624328417	-0.853027344	0.542236328	-0.305419922	883.56	-37.19323835	-25.86795088	-144.8015128	-69
35698	0	0.18820858	-0.235683441	0.349273682	0.99974823	-0.015200615	-0.010979652	0.012264252	4.7052145	-5.892086029	8.731842041	-0.760094353	-0.549028564	0.613263905	-0.845703125	0.573242188	-0.265136719	883.56	-39.85090359	-25.95131434	-142.7193446	-71
35699	0	0.170654297	-0.26171875	0.371154785	0.999786377	-0.007819176	-0.012290955	0.014644623	4.266357422	-6.54296875	9.278869629	-0.390986593	-0.61459144	0.732283221	-0.833251953	0.602050781	-0.227783203	883.56	-41.80934969	-25.89290065	-140.2961168	-73
35700	0	0.161661148	-0.281403542	0.339179039	0.999772072	0.009161949	-0.011810303	0.0151968	4.041528702	-7.035088539	8.479475975	0.458132156	-0.590559864	0.759897564	-0.818359375	0.628417969	-0.201904297	883.42	-41.81835957	-25.71221986	-137.8642818	-76
35701	0	0.177307129	-0.254089355	0.340393066	0.999713898	0.013600349	-0.011672974	0.01581955	4.432678223	-6.352233887	8.50982666	0.680082258	-0.583704287	0.791052836	-0.807373047	0.647949219	-0.198486328	883.52	-41.32644148	-25.48135239	-135.3909161	-78
35702	0	0.125878334	-0.258069038	0.356697083	0.999768257	0.004383087	-0.010221481	0.018391609	3.146958351	-6.45172596	8.917427063	0.219171234	-0.511113422	0.919651273	-0.787109375	0.669433594	-0.189697266	883.46	-41.92022627	-24.9255796	-132.807382	-78
35703	0	0.178710938	-0.221801758	0.420532227	0.99971962	0.015416145	-0.006153107	0.016880035	4.467773438	-5.545043945	10.51330566	0.770879285	-0.307684079	0.844080627	-0.764404297	0.6953125	-0.190185547	883.44	-41.00906098	-24.14134208	-130.7195893	-76
35704	0	0.168089867	-0.163332939	0.352464676	0.999887466	0.012966156	-0.003775597	0.006508827	4.202246666	-4.083323479	8.811616898	0.648332086	-0.188786903	0.325453552	-0.745849609	0.712158203	-0.20703125	883.5	-39.87640392	-23.95628846	-129.8082939	-78
35705	0	0.147277832	-0.06652832	0.365783691	0.999890327	0.014266968	-0.001273155	-0.003505707	3.681945801	-1.663208008	9.144592285	0.713374245	-0.063660068	-0.175291693	-0.738525391	0.711914063	-0.218994141	883.56	-38.1076529	-24.29276856	-130.0674357	-81
35706	0	0.137631416	-0.070884705	0.364322662	0.999869347	0.007766724	-0.003591537	-0.013689995	3.440785408	-1.772117615	9.108066559	0.388353053	-0.179584675	-0.684529478	-0.746826172	0.694335938	-0.237304688	883.52	-36.7111165	-25.54260922	-131.1858022	-79
35707	0	0.113769531	-0.067199707	0.303527832	0.999659538	-0.001163483	-0.011439323	-0.023387909	2.844238281	-1.679992676	7.588195801	-0.058180721	-0.572030938	-1.169527864	-0.774414063	0.666503906	-0.230712891	883.44	-36.09594588	-28.15712825	-132.7540141	-74
35708	0	0.142192841	-0.142419815	0.292521477	0.99937439	0.004364014	-0.018351555	-0.029892921	3.554821014	-3.560495377	7.313036919	0.218246146	-0.917768923	-1.494957485	-0.815673828	0.625976563	-0.207519531	883.5	-34.63192478	-31.82222582	-134.5973399	-72
35709	0	0.156005859	-0.21484375	0.27557373	0.999268532	0.004261017	-0.020339012	-0.032093048	3.900146484	-5.37109375	6.889343262	0.213102783	-1.017198533	-1.605043608	-0.858642578	0.567626953	-0.186035156	883.56	-32.91100905	-35.76842117	-136.7456126	-70
35710	0	0.187420845	-0.320947647	0.322889328	0.999504089	-0.009875298	-0.016295433	-0.025067329	4.685521126	-8.023691177	8.0722332	-0.493846503	-0.814906344	-1.253573668	-0.899414063	0.509521484	-0.150146484	883.52	-32.93186847	-38.85478146	-138.5434798	-70
35711	0	0.178527832	-0.354614258	0.283325195	0.999871254	-0.00087738	-0.008540154	-0.013496399	4.463195801	-8.865356445	7.083129883	-0.043870889	-0.427025886	-0.674848726	-0.924804688	0.473144531	-0.108154297	883.56	-32.35363914	-40.46376958	-139.5972552	-71
35712	0	0.253287315	-0.054832458	0.245070457	0.999714851	0.010577202	-0.00928688	-0.019281387	6.332182884	-1.370811462	6.126761436	0.528910338	-0.464388141	-0.96416096	-0.940429688	0.447021484	-0.102050781	883.52	-29.91448253	-42.47040981	-141.4272471	-71
35713	0	0.264709473	-0.084777832	0.306091309	0.999783516	-0.006797791	-0.004637718	-0.019088745	6.617736816	-2.119445801	7.652282715	-0.339914009	-0.231902613	-0.954506004	-0.960205078	0.405761719	-0.088867188	883.58	-29.10520804	-43.96292911	-143.7310182	-71
35714	0	0.245088577	-0.119485855	0.288334846	0.999816895	-0.008278847	-0.002610207	-0.017026901	6.127214432	-2.987146378	7.208371162	-0.413967541	-0.130518277	-0.851396899	-0.975341797	0.368652344	-0.073486328	883.56	-28.4671896	-45.1150695	-145.9855788	-71
35715	0	0.260009766	-0.147827148	0.273010254	0.999836922	-0.006004333	-0.001894951	-0.016910553	6.500244141	-3.695678711	6.825256348	-0.300232969	-0.094752686	-0.845573541	-0.986083984	0.3359375	-0.05859375	883.6	-27.46607455	-46.1642555	-148.3432172	-71
35716	0	0.279085159	-0.111660957	0.271986961	0.999849319	-0.004825592	-0.000927925	-0.016614914	6.977128983	-2.791523933	6.799674034	-0.241291676	-0.046398577	-0.830787268	-0.998779297	0.30078125	-0.057861328	883.52	-26.23043672	-47.06678769	-150.805915	-70
35717	0	0.272155762	-0.099060059	0.275268555	0.999860764	-0.007037163	-0.001060486	-0.015075684	6.803894043	-2.476501465	6.881713867	-0.351874439	-0.053026748	-0.7538191	-1.007080078	0.267822266	-0.048828125	883.64	-25.35742661	-47.87443451	-153.0922205	-69
35718	0	0.264335632	-0.094539642	0.262059212	0.99990654	-0.005446434	-0.001296043	-0.012450218	6.608390808	-2.363491058	6.551480293	-0.27233016	-0.064804183	-0.622530246	-1.015380859	0.239501953	-0.046142578	883.5	-24.56388183	-48.55651835	-155.0087032	-69
35719	0	0.284545898	-0.11126709	0.272094727	0.999941826	-0.001842499	-0.001559258	-0.010444641	7.113647461	-2.781677246	6.802368164	-0.092126704	-0.077964369	-0.522242058	-1.021728516	0.215332031	-0.03515625	883.62	-23.56909075	-49.15203312	-156.631441	-69
35720	0	0.290969849	-0.087450027	0.262680054	0.999969482	-0.001708984	-0.000912666	-0.007541656	7.274246216	-2.186250687	6.567001343	-0.085450082	-0.045633777	-0.377086635	-1.022949219	0.193115234	-0.0390625	883.62	-22.85002332	-49.53277121	-157.8711534	-69
35721	0	0.297363281	-0.081848145	0.25579834	0.999994278	-0.001322746	-0.000137329	-0.002948761	7.434082031	-2.046203613	6.394958496	-0.066137429	-0.006866467	-0.147438306	-1.02734375	0.180175781	-0.031738281	883.56	-22.6048141	-49.62227901	-158.4386243	-69
35722	0	0.281097412	-0.095734596	0.268221855	0.999996185	-0.002316475	-0.000864983	-0.000683784	7.027435303	-2.393364906	6.705546379	-0.115823873	-0.043249178	-0.034189262	-1.029541016	0.173583984	-0.03125	883.5	-22.79231165	-49.68786219	-158.5980421	-69
35723	0	0.280456543	-0.092346191	0.258666992	0.999997139	-0.00170517	-0.000720024	-0.000785828	7.011413574	-2.308654785	6.466674805	-0.085258541	-0.03600123	-0.039291408	-1.029541016	0.17578125	-0.028564453	883.5	-22.88940231	-49.7427603	-158.7757545	-69
35724	0	0.283107758	-0.094357491	0.254275322	0.999998093	-0.001340866	0.000687599	-0.001131058	7.077693939	-2.358937263	6.356883049	-0.067043344	0.034379979	-0.05655292	-1.029541016	0.173583984	-0.025390625	883.58	-22.82812819	-49.66452286	-159.1048775	-69
35725	0	0.282104492	-0.096618652	0.255737305	0.999995232	-0.002029419	0.001790047	-0.001091003	7.052612305	-2.415466309	6.393432617	-0.101471091	0.089502462	-0.054550248	-1.031738281	0.171386719	-0.033691406	883.52	-22.79476585	-49.46789066	-159.5036884	-69
35726	0	0.277770996	-0.092407227	0.268005371	0.999997139	-0.00169754	0.001464844	-0.000675201	6.944274902	-2.310180664	6.700134277	-0.084877092	0.073242254	-0.033760102	-1.029296875	0.168945313	-0.033691406	883.56	-22.79297624	-49.28662406	-159.8117864	-69
35727	0	0.282958984	-0.097473145	0.268005371	0.999999046	-0.00069809	0.000588417	-0.000164032	7.073974609	-2.436828613	6.700134277	-0.034904485	0.029420857	-0.0082016	-1.031494141	0.166992188	-0.030517578	883.58	-22.78544122	-49.17497042	-159.9804924	-69
35728	0	0.283536911	-0.099639893	0.263133049	0.999999046	-0.000611305	5.91278E-05	6.00815E-05	7.088422775	-2.490997314	6.578326225	-0.030565264	0.002956391	0.003004074	-1.031494141	0.166992188	-0.036376953	883.52	-22.82291273	-49.10926472	-160.0782606	-69
35729	0	0.276062012	-0.08795166	0.25970459	0.999999046	-3.8147E-05	2.76566E-05	8.39233E-05	6.901550293	-2.198791504	6.492614746	-0.001907349	0.001382828	0.004196167	-1.031494141	0.166748047	-0.039306641	883.56	-22.79865054	-49.04588587	-160.1717816	-69
35730	0	0.28158474	-0.101630211	0.26154232	0.999999046	-0.000364304	6.10352E-05	0.000220299	7.039618492	-2.540755272	6.538558006	-0.01821518	0.003051758	0.011014939	-1.031494141	0.166748047	-0.039306641	883.52	-22.82698313	-48.97292057	-160.2459746	-69
35731	0	0.279174805	-0.094177246	0.259887695	0.999999046	-0.000217438	0.000325203	-0.0001297	6.979370117	-2.354431152	6.497192383	-0.010871888	0.016260148	-0.006484986	-1.031494141	0.169189453	-0.036376953	883.56	-22.782337	-48.88774707	-160.3855067	-69
35732	0	0.282507896	-0.09910202	0.264238358	0.999999046	-0.000386238	0.000360489	-2.38419E-05	7.062697411	-2.477550507	6.605958939	-0.019311906	0.018024445	-0.001192093	-1.03125	0.164550781	-0.036132813	883.52	-22.76851103	-48.79408308	-160.5217193	-69
35733	0	0.277648926	-0.09197998	0.261352539	0.999999046	-0.000408173	0.000302315	2.67029E-05	6.941223145	-2.299499512	6.533813477	-0.020408631	0.015115739	0.001335144	-1.031494141	0.166992188	-0.036376953	883.56	-22.76597668	-48.70444894	-160.6386408	-69
35734	0	0.279010773	-0.102097511	0.262108803	0.999999046	-0.000534058	0.000320435	-9.25064E-05	6.975269318	-2.552437782	6.55272007	-0.026702883	0.01602173	-0.004625321	-1.03125	0.166748047	-0.041992188	883.44	-22.76314983	-48.61816944	-160.7764885	-69
35735	0	0.272705078	-0.095397949	0.261474609	0.999999046	-0.000492096	0.000336647	-0.001102448	6.817626953	-2.38494873	6.536865234	-0.024604804	0.016832356	-0.05512239	-1.029052734	0.166748047	-0.039306641	883.56	-22.63368004	-48.57474387	-161.0665315	-69
35736	0	0.275252342	-0.102074623	0.268455505	0.999997139	-0.000628471	0.000247955	-0.002076149	6.881308556	-2.551865578	6.711387634	-0.031423594	0.012397776	-0.103807532	-1.028808594	0.162353516	-0.041748047	883.5	-22.40806658	-48.58261219	-161.5062465	-69
35737	0	0.289123535	-0.099365234	0.263122559	0.999996185	0.000786781	0.000148773	-0.002475739	7.228088379	-2.484130859	6.578063965	0.03933911	0.007438668	-0.123787066	-1.033447266	0.160400391	-0.038574219	883.56	-21.97707142	-48.61723572	-161.9949295	-69
35738	0	0.282959938	-0.089068413	0.262981415	0.999999046	-7.82013E-05	0.000116348	-0.001286507	7.073998451	-2.22671032	6.57453537	-0.003910066	0.005817415	-0.064325351	-1.032958984	0.151367188	-0.043701172	883.56	-21.78998541	-48.60313464	-162.3114126	-69
35739	0	0.276428223	-0.091125488	0.263427734	0.999999046	0.000183105	-4.48227E-05	-0.000236511	6.910705566	-2.278137207	6.585693359	0.009155274	-0.002241135	-0.011825562	-1.033203125	0.151367188	-0.040771484	883.56	-21.70744288	-48.56127847	-162.444925	-69
35740	0	0.279180527	-0.092241287	0.261177063	0.999999046	-0.000149727	0.000211716	6.00815E-05	6.979513168	-2.306032181	6.529426575	-0.007486343	0.010585785	0.003004074	-1.032958984	0.149169922	-0.043457031	883.52	-21.68673324	-48.47969553	-162.5539814	-69
35741	0	0.277404785	-0.090881348	0.263793945	0.999999046	-0.000621796	0.000256538	0.000183105	6.935119629	-2.272033691	6.594848633	-0.031089785	0.012826921	0.009155274	-1.032958984	0.151367188	-0.043701172	883.52	-21.73255887	-48.38827777	-162.6391553	-69
35742	0	0.279737473	-0.094181061	0.26412487	0.999999046	-0.000246048	4.76837E-05	0.00014782	6.993436813	-2.35452652	6.603121758	-0.012302399	0.002384186	0.007390976	-1.032958984	0.151367188	-0.046386719	883.52	-21.74115038	-48.32075296	-162.7174737	-69
35743	0	0.27545166	-0.095275879	0.263671875	0.999999046	-0.000106812	-0.000109673	-0.00019455	6.886291504	-2.381896973	6.591796875	-0.005340576	-0.005483627	-0.009727478	-1.030761719	0.153564453	-0.049560547	883.5	-21.70034429	-48.28458957	-162.8304639	-69
35744	0	0.27793026	-0.100474358	0.268287659	0.999999046	7.72476E-05	-0.000675201	-0.000424385	6.948256493	-2.51185894	6.707191467	0.003862381	-0.033760074	-0.021219256	-1.032958984	0.149169922	-0.046386719	883.5	-21.63846372	-48.31817947	-162.9550926	-69
35745	0	0.281677246	-0.089660645	0.261108398	0.999999046	0.000320435	-0.000475883	-0.000911713	7.041931152	-2.241516113	6.527709961	0.016021732	-0.023794179	-0.045585641	-1.030517578	0.149169922	-0.040527344	883.58	-21.48040494	-48.35145451	-163.1588579	-69
35746	0	0.28424263	-0.097947121	0.262120247	0.999999046	0.000143051	6.67572E-05	-0.00111866	7.10606575	-2.448678017	6.553006172	0.007152559	0.003337861	-0.055933011	-1.032958984	0.146972656	-0.040283203	883.56	-21.29270011	-48.33549656	-163.429593	-68
35747	0	0.283447266	-0.087097168	0.264221191	0.999999046	-0.000118256	0.000103951	-0.000652313	7.086181641	-2.177429199	6.605529785	-0.005912781	0.005197525	-0.032615664	-1.03515625	0.142578125	-0.042724609	883.56	-21.18929783	-48.2961491	-163.6388727	-67
35748	0	0.279171944	-0.086734772	0.263708115	0.999999046	-0.000180244	0.000196457	0.000259399	6.979298592	-2.168369293	6.592702866	-0.009012222	0.009822846	0.012969971	-1.032714844	0.142578125	-0.04296875	883.5	-21.19780945	-48.20934017	-163.7056732	-68
35749	0	0.27911377	-0.092163086	0.262084961	0.999999046	-0.000667572	0.000180244	0.000709534	6.977844238	-2.304077148	6.552124023	-0.033378607	0.009012224	0.03547669	-1.03515625	0.142578125	-0.042724609	883.5	-21.3167393	-48.1058083	-163.7039851	-69
35750	0	0.278150558	-0.095842361	0.265230179	0.999999046	-0.000888824	0.000255585	0.000473022	6.953763962	-2.396059036	6.630754471	-0.044441231	0.012779238	0.023651127	-1.032714844	0.144775391	-0.040039063	883.52	-21.42911995	-48.00416545	-163.7358562	-69
35751	0	0.277526855	-0.090026855	0.264404297	0.999999046	-1.52588E-05	-8.67844E-05	-8.39233E-05	6.938171387	-2.250671387	6.610107422	-0.000762939	-0.004339218	-0.004196167	-1.032714844	0.146972656	-0.046142578	883.5	-21.39089382	-47.96259765	-163.8283831	-69
35752	0	0.279909134	-0.098167419	0.266915321	0.999999046	-8.58307E-06	-5.34058E-05	-0.000313759	6.997728348	-2.454185486	6.672883034	-0.000429153	-0.002670288	-0.015687943	-1.034912109	0.144775391	-0.048583984	883.5	-21.32372013	-47.927113	-163.9652455	-69
35753	0	0.281982422	-0.095397949	0.263793945	0.999999046	0.00012207	-0.000185966	-0.000587463	7.049560547	-2.38494873	6.594848633	0.006103516	-0.009298325	-0.029373171	-1.03515625	0.142578125	-0.042724609	883.52	-21.21566164	-47.91741916	-164.1357967	-69
35754	0	0.280535698	-0.087130547	0.264198303	0.999999046	3.43323E-05	-0.00021553	-0.000205994	7.013392448	-2.178263664	6.604957581	0.001716614	-0.01077652	-0.010299683	-1.034912109	0.142578125	-0.048583984	883.58	-21.16383878	-47.8953724	-164.2429692	-69
35755	0	0.276000977	-0.092712402	0.262695313	0.999999046	7.62939E-05	-0.000349998	0.000179291	6.900024414	-2.317810059	6.567382813	0.003814697	-0.017499924	0.008964539	-1.03515625	0.144775391	-0.04296875	883.56	-21.1588396	-47.87200185	-164.2702896	-69
35756	0	0.282011032	-0.093506813	0.262633324	0.999999046	-1.62125E-05	-1.33514E-05	-0.000125885	7.050275803	-2.337670326	6.565833092	-0.000810623	-0.000667572	-0.006294251	-1.037353516	0.142578125	-0.045410156	883.56	-21.11335573	-47.82563799	-164.373744	-69
35757	0	0.282409668	-0.088806152	0.263122559	0.999999046	-0.00044632	0.000229836	0.000286102	7.060241699	-2.220153809	6.578063965	-0.02231598	0.011491776	0.014305116	-1.034912109	0.140380859	-0.045410156	883.46	-21.15468833	-47.73670385	-164.4314968	-69
35758	0	0.280708313	-0.093294144	0.265852928	0.999999046	-0.000421524	8.96454E-05	0.000788689	7.017707825	-2.332353592	6.646323204	-0.021076205	0.00448227	0.039434438	-1.032714844	0.144775391	-0.045898438	883.52	-21.25821829	-47.64226026	-164.388628	-69
35759	0	0.281121254	-0.09517765	0.263199806	0.999999046	-0.000631332	9.25064E-05	0.000590324	7.028031349	-2.379441261	6.579995155	-0.031566624	0.004625321	0.029516224	-1.034912109	0.142578125	-0.045654297	883.52	-21.36255819	-47.55599642	-164.3875237	-69
35760	0	0.277244568	-0.09350872	0.262951851	0.999999046	-0.000243187	9.53674E-05	0.000217438	6.931114197	-2.33771801	6.573796272	-0.012159348	0.004768372	0.010871887	-1.03515625	0.144775391	-0.04296875	883.5	-21.37851694	-47.48530776	-164.4364709	-69
35761	0	0.281494141	-0.09954834	0.26550293	0.999999046	-8.01086E-05	2.76566E-05	-7.24792E-05	7.037353516	-2.488708496	6.637573242	-0.004005432	0.001382828	-0.003623962	-1.03515625	0.144775391	-0.040039063	883.6	-21.34551904	-47.4342557	-164.5226126	-69
35762	0	0.279417038	-0.089724541	0.264831543	0.999999046	6.10352E-05	-0.000156403	-0.000103951	6.985425949	-2.243113518	6.620788574	0.003051758	-0.007820129	-0.005197525	-1.03515625	0.144775391	-0.045898438	883.56	-21.3008649	-47.40453912	-164.6024701	-69
35763	0	0.278076172	-0.09362793	0.263244629	0.999999046	0.000125885	-0.000155449	0.000236511	6.951904297	-2.340698242	6.581115723	0.006294251	-0.007772446	0.011825562	-1.03515625	0.144775391	-0.04296875	883.56	-21.28832892	-47.36090003	-164.6267268	-69
35764	0	0.277808189	-0.094975471	0.262753487	0.999999046	-0.000184059	-0.000225067	9.91821E-05	6.945204735	-2.374386787	6.568837166	-0.009202957	-0.011253357	0.004959107	-1.03515625	0.144775391	-0.040039063	883.5	-21.29865259	-47.33076824	-164.6656991	-69
35765	0	0.281738281	-0.093688965	0.263305664	0.999999046	8.7738E-05	5.43594E-05	-0.000232697	7.043457031	-2.342224121	6.582641602	0.004386902	0.002717972	-0.011634827	-1.03515625	0.144775391	-0.045898438	883.5	-21.22689865	-47.28507231	-164.7730334	-69
35766	0	0.282608032	-0.095036507	0.267258644	0.999999046	-9.72748E-05	0.000196457	-9.25064E-05	7.065200806	-2.375912666	6.681466103	-0.004863739	0.009822846	-0.00462532	-1.032714844	0.142578125	-0.04296875	883.5	-21.18646189	-47.21868275	-164.8676035	-69
35767	0	0.278320313	-0.091247559	0.264587402	0.999999046	4.95911E-05	-0.000128746	-1.14441E-05	6.958007813	-2.281188965	6.614685059	0.002479553	-0.006437302	-0.000572205	-1.032714844	0.142578125	-0.04296875	883.56	-21.15307219	-47.18404105	-164.927482	-69
35768	0	0.279793739	-0.095426559	0.263730049	0.999999046	0.000260353	1.14441E-05	0.000166893	6.994843483	-2.385663986	6.593251228	0.013017655	0.000572205	0.00834465	-1.034912109	0.142578125	-0.048583984	883.52	-21.11015821	-47.12742253	-164.970044	-69
35769	0	0.280151367	-0.092224121	0.262634277	0.999999046	-0.000377655	-1.04904E-05	0.000198364	7.00378418	-2.305603027	6.565856934	-0.018882752	-0.000524521	0.009918213	-1.03515625	0.144775391	-0.04296875	883.58	-21.1448021	-47.07239257	-164.9972895	-69
35770	0	0.279448509	-0.093877792	0.264754295	0.999999046	4.76837E-05	-2.09808E-05	0.000384331	6.98621273	-2.346944809	6.618857384	0.002384186	-0.001049042	0.019216538	-1.032714844	0.144775391	-0.045898438	883.52	-21.15257758	-47.01118109	-164.9951935	-69
35771	0	0.278930664	-0.095275879	0.265197754	0.999999046	-9.53674E-05	-0.000102043	0.00037384	6.973266602	-2.381896973	6.629943848	-0.004768372	-0.005102158	0.018692017	-1.032714844	0.144775391	-0.048828125	883.56	-21.17925243	-46.9594018	-164.9914439	-69
35772	0	0.279708862	-0.091873169	0.262986183	0.999999046	-7.15256E-05	0.000135422	0.000427246	6.992721558	-2.296829224	6.574654579	-0.003576279	0.006771088	0.021362305	-1.032714844	0.146972656	-0.046142578	883.5	-21.19851682	-46.88056931	-164.9875408	-69
35773	0	0.276855469	-0.094665527	0.265686035	0.999999046	-0.000339508	2.00272E-05	0.000614166	6.921386719	-2.366638184	6.642150879	-0.016975404	0.001001358	0.030708316	-1.032958984	0.146972656	-0.043212891	883.56	-21.27487064	-46.8065725	-164.9483412	-69
35774	0	0.281062126	-0.094640732	0.263129234	0.999999046	-5.14984E-05	-9.34601E-05	0.000494957	7.026553154	-2.366018295	6.578230858	-0.002574921	-0.004673004	0.02474785	-1.032958984	0.149169922	-0.046386719	883.58	-21.3095492	-46.75017494	-164.9179048	-69
35775	0	0.276916504	-0.096008301	0.266906738	0.999999046	-0.000530243	-9.82285E-05	0.000759125	6.922912598	-2.40020752	6.672668457	-0.02651215	-0.004911423	0.037956243	-1.03515625	0.146972656	-0.045898438	883.52	-21.42937134	-46.68341823	-164.8548421	-69
35776	0	0.278167725	-0.094819069	0.263882637	0.999999046	-0.000210762	-8.2016E-05	0.000613213	6.954193115	-2.370476723	6.597065926	-0.010538102	-0.0041008	0.030660631	-1.032958984	0.151367188	-0.046386719	883.56	-21.49490689	-46.62144114	-164.8055728	-69
35777	0	0.279052734	-0.096618652	0.265014648	0.999999046	-0.000305176	-0.000170708	0.000232697	6.976318359	-2.415466309	6.625366211	-0.01525879	-0.008535385	0.011634827	-1.032958984	0.151367188	-0.046386719	883.52	-21.53227695	-46.58527999	-164.8099954	-69
35778	0	0.279524803	-0.096543312	0.262051582	0.999999046	-7.62939E-05	-7.05719E-05	0.000372887	6.988120079	-2.413582802	6.551289558	-0.003814697	-0.003528595	0.018644333	-1.032958984	0.151367188	-0.043701172	883.5	-21.55488757	-46.53307481	-164.7981673	-69
35779	0	0.27746582	-0.094238281	0.26361084	0.999999046	-0.000183105	-0.000182152	0.000595093	6.936645508	-2.355957031	6.590270996	-0.009155274	-0.00910759	0.029754641	-1.033203125	0.153564453	-0.043701172	883.52	-21.61944779	-46.48384042	-164.7421178	-69
35780	0	0.27836132	-0.09808445	0.263960838	0.999999046	3.14713E-05	-0.000131607	0.000479698	6.959033012	-2.452111244	6.599020958	0.001573563	-0.006580353	0.02398491	-1.033203125	0.153564453	-0.043701172	883.5	-21.64430789	-46.43447437	-164.7081419	-69
35781	0	0.281738281	-0.101623535	0.264770508	0.999999046	-4.57764E-05	2.76566E-05	0.00031662	7.043457031	-2.540588379	6.619262695	-0.002288818	0.001382828	0.015830994	-1.035400391	0.153564453	-0.043701172	883.64	-21.65303834	-46.37548928	-164.7099559	-69
35782	0	0.278610229	-0.097247124	0.267461777	0.999999046	-2.47955E-05	-0.000173569	0.000189781	6.965255737	-2.431178093	6.686544418	-0.001239777	-0.008678436	0.00948906	-1.033203125	0.153564453	-0.040771484	883.46	-21.65405365	-46.34364256	-164.7166888	-69
35783	0	0.277954102	-0.09564209	0.261413574	0.999999046	-2.67029E-05	-0.000105858	4.19617E-05	6.948852539	-2.391052246	6.535339355	-0.001335144	-0.005292892	0.002098084	-1.030761719	0.153564453	-0.043945313	883.58	-21.63584267	-46.31137704	-164.7495821	-69
35784	0	0.279039383	-0.097999573	0.264644623	0.999999046	0.000157356	-8.96454E-05	0.000128746	6.975984573	-2.449989319	6.61611557	0.007867813	-0.004482269	0.006437302	-1.030761719	0.153564453	-0.046875	883.5	-21.60567915	-46.27414439	-164.7704599	-69
35785	0	0.277648926	-0.094299316	0.263305664	0.999999046	5.34058E-05	-7.15256E-05	0.000114441	6.941223145	-2.35748291	6.582641602	0.002670288	-0.003576279	0.005722046	-1.030761719	0.153564453	-0.041015625	883.56	-21.58493959	-46.23607628	-164.7920546	-69
35786	0	0.279495239	-0.099645615	0.264862061	0.999999046	0.000181198	-6.67572E-05	3.71933E-05	6.987380981	-2.491140366	6.621551514	0.009059906	-0.00333786	0.001859665	-1.033203125	0.155761719	-0.043945313	883.52	-21.54097941	-46.20118532	-164.8226074	-69
35787	0	0.278747559	-0.096069336	0.261962891	0.999999046	-0.000152588	-3.33786E-05	-0.000106812	6.968688965	-2.401733398	6.549072266	-0.007629395	-0.00166893	-0.005340576	-1.033203125	0.153564453	-0.040771484	883.46	-21.51802043	-46.16931007	-164.8793014	-69
35788	0	0.277626991	-0.098898888	0.265880585	0.999999046	8.4877E-05	-0.00012207	1.04904E-05	6.940674782	-2.472472191	6.647014618	0.004243851	-0.006103516	0.000524521	-1.030761719	0.153564453	-0.046875	883.56	-21.48501098	-46.14227239	-164.9128003	-69
35789	0	0.27923584	-0.095275879	0.264221191	0.999999046	-3.8147E-06	-0.000216484	-4.57764E-05	6.980895996	-2.381896973	6.605529785	-0.000190735	-0.010824204	-0.002288818	-1.030761719	0.153564453	-0.046875	883.58	-21.4600579	-46.12814937	-164.9483181	-69
35790	0	0.279419899	-0.09702301	0.262755394	0.999999046	-5.72205E-06	-0.00015831	-9.25064E-05	6.985497475	-2.425575256	6.56888485	-0.000286102	-0.007915497	-0.00462532	-1.033203125	0.153564453	-0.043701172	883.46	-21.42778698	-46.11028624	-164.9931724	-69
35791	0	0.278564453	-0.097412109	0.261474609	0.999999046	-0.00019455	0.000157356	-0.000247955	6.964111328	-2.435302734	6.536865234	-0.009727478	0.007867813	-0.012397766	-1.033203125	0.153564453	-0.043701172	883.64	-21.38648374	-46.06574676	-165.0790912	-69
35792	0	0.279932022	-0.095362663	0.264636993	0.999999046	-0.000164986	0.000177383	-0.00012207	6.998300552	-2.384066582	6.615924835	-0.008249283	0.008869171	-0.006103516	-1.032958984	0.151367188	-0.043701172	883.46	-21.35509786	-46.01424139	-165.1493769	-69
35793	0	0.276672363	-0.095092773	0.264892578	0.999999046	0.000156403	-0.00020504	0.000141144	6.916809082	-2.377319336	6.622314453	0.00782013	-0.010251999	0.00705719	-1.033203125	0.153564453	-0.043701172	883.58	-21.3325038	-45.99294365	-165.152287	-69
35794	0	0.280090332	-0.096862793	0.262634277	0.999999046	4.95911E-05	-0.000213623	0.000274658	7.002258301	-2.421569824	6.565856934	0.002479553	-0.010681153	0.01373291	-1.032958984	0.151367188	-0.046386719	883.56	-21.33755376	-45.9675207	-165.1391579	-69
35795	0	0.278930664	-0.098876953	0.265197754	0.999999046	-0.000106812	-0.000117302	0.00012207	6.973266602	-2.471923828	6.629943848	-0.005340576	-0.005865097	0.006103516	-1.032958984	0.151367188	-0.043701172	883.58	-21.33974453	-45.93856618	-165.1538312	-69
35796	0	0.279519081	-0.09515667	0.264134407	0.999999046	0.000182152	-0.000101089	-2.76566E-05	6.987977028	-2.37891674	6.603360176	0.00910759	-0.005054474	-0.001382828	-1.035400391	0.153564453	-0.043701172	883.52	-21.29157585	-45.91462272	-165.1886303	-69
35797	0	0.276977539	-0.098571777	0.266235352	0.999999046	-6.48499E-05	-0.000277519	5.34058E-05	6.924438477	-2.464294434	6.655883789	-0.003242493	-0.013875961	0.002670288	-1.033203125	0.153564453	-0.040771484	883.5	-21.28842365	-45.90642019	-165.1986035	-69
35798	0	0.2802248	-0.093569756	0.259963036	0.999999046	0.000102997	-2.09808E-05	0.000113487	7.005620003	-2.339243889	6.49907589	0.005149841	-0.001049042	0.005674362	-1.032958984	0.153564453	-0.049560547	883.58	-21.26173729	-45.86898515	-165.217224	-69
35799	0	0.27935791	-0.09942627	0.265136719	0.999999046	-0.00012207	1.62125E-05	0.000198364	6.983947754	-2.485656738	6.628417969	-0.006103516	0.000810623	0.009918213	-1.032958984	0.151367188	-0.046386719	883.52	-21.26896802	-45.82441406	-165.2274616	-69
35800	0	0.279312134	-0.094596863	0.264266968	0.999999046	-0.000248909	-8.7738E-05	0.000285149	6.982803345	-2.36492157	6.606674194	-0.01244545	-0.004386902	0.014257431	-1.033203125	0.151367188	-0.040771484	883.52	-21.3046688	-45.78781168	-165.2168296	-69
35801	0	0.277954102	-0.096374512	0.264648438	0.999999046	-1.90735E-05	-0.000258446	0.00025177	6.948852539	-2.409362793	6.616210938	-0.000953674	-0.012922287	0.012588501	-1.035644531	0.153808594	-0.040771484	883.5	-21.31767556	-45.77122306	-165.1982174	-69
35802	0	0.282067299	-0.100067139	0.261445999	0.999999046	-3.43323E-05	1.14441E-05	0.000293732	7.051682472	-2.501678467	6.536149979	-0.001716614	0.000572205	0.014686585	-1.032958984	0.151367188	-0.043701172	883.52	-21.32595305	-45.72464993	-165.1933507	-69
35803	0	0.278625488	-0.09753418	0.265136719	0.999999046	-0.000450134	-2.86102E-06	0.000118256	6.965637207	-2.438354492	6.628417969	-0.022506715	-0.000143051	0.005912781	-1.033203125	0.153564453	-0.043701172	883.5	-21.36332929	-45.68731018	-165.2106981	-69
35804	0	0.277954102	-0.096557617	0.262084961	0.999999046	0.000206947	-0.0001297	3.43323E-05	6.948852539	-2.41394043	6.552124023	0.010347366	-0.006484985	0.001716614	-1.033203125	0.155761719	-0.041015625	883.52	-21.32171766	-45.66749895	-165.2286771	-69
35805	0	0.280229568	-0.099146843	0.261383057	0.999998093	1.23978E-05	-1.52588E-05	0.000124931	7.005739212	-2.478671074	6.534576416	0.000619888	-0.000762939	0.006246567	-1.030761719	0.155761719	-0.044189453	883.48	-21.30777209	-45.63223228	-165.2398628	-69
35806	0	0.277526855	-0.096557617	0.263427734	0.999999046	-4.19617E-05	-1.52588E-05	0	6.938171387	-2.41394043	6.585693359	-0.002098083	-0.000762939	0	-1.033203125	0.153564453	-0.040771484	883.56	-21.28660764	-45.60255647	-165.2727366	-69
35807	0	0.279846191	-0.097900391	0.263671875	0.999999046	-8.39233E-05	-3.33786E-05	6.86646E-05	6.996154785	-2.447509766	6.591796875	-0.004196167	-0.00166893	0.003433228	-1.033203125	0.155761719	-0.043945313	883.46	-21.27867947	-45.57242625	-165.2913412	-69
35808	0	0.27795887	-0.09584713	0.263453484	0.999999046	-0.000187874	-2.28882E-05	8.01086E-05	6.948971748	-2.396178246	6.58633709	-0.009393692	-0.001144409	0.004005432	-1.033203125	0.153564453	-0.043701172	883.52	-21.28359857	-45.5411133	-165.3118831	-69
35809	0	0.278259277	-0.096740723	0.262939453	0.999999046	0.000102997	-3.71933E-05	0.000225067	6.956481934	-2.418518066	6.573486328	0.005149841	-0.001859665	0.011253357	-1.033203125	0.153564453	-0.043701172	883.52	-21.27169759	-45.50574367	-165.3094929	-69
35810	0	0.281163216	-0.101940155	0.264281273	0.999999046	5.14984E-05	-4.19617E-05	0.000156403	7.029080391	-2.548503876	6.607031822	0.002574921	-0.002098084	0.007820129	-1.030761719	0.153564453	-0.043945313	883.56	-21.25886112	-45.47417785	-165.3163326	-69
35811	0	0.27734375	-0.093078613	0.264221191	0.999999046	-0.000141144	-0.000170708	0.000175476	6.93359375	-2.326965332	6.605529785	-0.00705719	-0.008535385	0.008773804	-1.030761719	0.153564453	-0.041015625	883.56	-21.27543431	-45.45598882	-165.3120681	-69
35812	0	0.279901505	-0.098012924	0.263975143	0.999999046	0.000191689	1.90735E-06	0.00052166	6.997537613	-2.450323105	6.599378586	0.009584427	9.53674E-05	0.026082994	-1.033203125	0.155761719	-0.041015625	883.46	-21.28423378	-45.40542614	-165.2638403	-69
35813	0	0.276062012	-0.094604492	0.265136719	0.999999046	-0.000160217	-0.000258446	0.000785828	6.901550293	-2.365112305	6.628417969	-0.008010865	-0.012922289	0.039291386	-1.030761719	0.155761719	-0.044189453	883.58	-21.37275741	-45.37193951	-165.1624983	-69
35814	0	0.27781105	-0.100253105	0.263922691	0.999999046	0.000173569	-0.000486374	0.000395775	6.94527626	-2.506327629	6.598067284	0.008678437	-0.024318697	0.019788743	-1.033203125	0.155761719	-0.041015625	883.5	-21.39072199	-45.37935953	-165.1072675	-69
35815	0	0.279907227	-0.097473145	0.261352539	0.999999046	4.95911E-05	-0.000323296	0.000267029	6.997680664	-2.436828613	6.533813477	0.002479553	-0.01616478	0.013351441	-1.031005859	0.157958984	-0.041259766	883.64	-21.40215643	-45.37531047	-165.0780969	-69
35816	0	0.279291153	-0.098817825	0.2619133	0.999999046	-5.24521E-05	-0.000286102	0.000312805	6.982278824	-2.470445633	6.547832489	-0.002622604	-0.014305115	0.015640259	-1.033447266	0.157958984	-0.041259766	883.52	-21.42888607	-45.36583766	-165.0453041	-69
35817	0	0.278381348	-0.098937988	0.264587402	0.999999046	-8.39233E-05	-0.000311852	0.000286102	6.959533691	-2.473449707	6.614685059	-0.004196167	-0.015592576	0.014305115	-1.033447266	0.16015625	-0.041503906	883.46	-21.45752122	-45.36056323	-165.0126373	-69
35818	0	0.27928257	-0.096212387	0.260428429	0.999999046	0.000120163	-0.000226974	0.000166893	6.982064247	-2.405309677	6.510710716	0.006008148	-0.011348725	0.00834465	-1.033203125	0.157958984	-0.044189453	883.58	-21.44639785	-45.35175602	-165.0068253	-69
