Counter	Temperature	VelInc_X	VelInc_Y	VelInc_Z	OriInc_w	OriInc_x	OriInc_y	OriInc_z	Acc_X	Acc_Y	Acc_Z	Gyr_X	Gyr_Y	Gyr_Z	Mag_X	Mag_Y	Mag_Z	Pressure	Roll	Pitch	Yaw	RSSI
10201	0	0.370361328	-0.064147949	0.06854248	0.999980927	-0.00587368	-0.00088501	-0.00151825	9.259033203	-1.60369873	1.713562012	-0.293685846	-0.044250766	-0.075912951	-0.64453125	0.693115234	-0.404052734	890.46	-37.8537593	-75.99146875	-34.12606131	-67
10202	0	0.37754631	-0.073719025	0.069752693	0.999968529	-0.007717133	-0.001127243	-0.001045227	9.438657761	-1.842975616	1.743817329	-0.38586061	-0.056362734	-0.052261892	-0.649658203	0.693603516	-0.392089844	890.36	-38.65737116	-76.17502417	-34.19194514	-66
10203	0	0.381469727	-0.078796387	0.070983887	0.999959946	-0.008765221	-0.001087189	-0.000518799	9.536743164	-1.969909668	1.774597168	-0.43826675	-0.054360145	-0.02594028	-0.650146484	0.697998047	-0.380615234	890.54	-39.77481456	-76.31659368	-34.05295766	-66
10204	0	0.38824749	-0.079730034	0.075097084	0.999955177	-0.009415627	-0.000659943	0.000152588	9.706187248	-1.993250847	1.877427101	-0.470788319	-0.032997621	0.007629508	-0.650634766	0.707275391	-0.363769531	890.42	-41.09247125	-76.36965153	-33.79228888	-66
10205	0	0.386230469	-0.08605957	0.080444336	0.999974251	-0.007118225	-0.000552177	0.000423431	9.655761719	-2.151489258	2.011108398	-0.355914289	-0.027609107	0.02117175	-0.651123047	0.711914063	-0.352539063	890.38	-42.21590556	-76.39044567	-33.46128652	-66
10206	0	0.384479523	-0.085241318	0.081684113	0.999998093	-0.001614571	-0.000224113	6.00815E-05	9.611988068	-2.131032944	2.042102814	-0.080728567	-0.011205678	0.003004075	-0.651367188	0.716308594	-0.347167969	890.46	-42.47950253	-76.40938083	-33.37417253	-66
10207	0	0.384460449	-0.078491211	0.078918457	0.999992371	0.003705025	2.67029E-05	-0.000270844	9.61151123	-1.962280273	1.972961426	0.185251662	0.001335147	-0.013542206	-0.651611328	0.71875	-0.341308594	890.38	-41.93770124	-76.43162005	-33.51500065	-66
10208	0	0.386021614	-0.07322216	0.073685646	0.999979973	0.006207466	0.000162125	-0.000622749	9.650540352	-1.830554008	1.842141151	0.310375321	0.008106284	-0.031137669	-0.653564453	0.714111328	-0.352539063	890.42	-40.94019579	-76.46795925	-33.82544396	-66
10209	0	0.386230469	-0.069458008	0.064147949	0.999964714	0.008358002	0.000374794	-0.000606537	9.655761719	-1.736450195	1.60369873	0.417904986	0.01873992	-0.030327199	-0.653320313	0.707275391	-0.357910156	890.46	-39.63474597	-76.4829958	-34.21273413	-67
10210	0	0.388025284	-0.059434891	0.0645895	0.999969482	0.007660866	0.000746727	-0.000572205	9.700632095	-1.485872269	1.614737511	0.383047093	0.03733672	-0.028610514	-0.655029297	0.698242188	-0.374511719	890.5	-38.30960008	-76.46069166	-34.69042733	-67
10211	0	0.388427734	-0.053161621	0.066833496	0.999990463	0.004166603	0.00094223	-0.000591278	9.710693359	-1.329040527	1.670837402	0.2083308	0.047111657	-0.029563995	-0.656982422	0.693847656	-0.385742188	890.36	-37.32325263	-76.4201928	-35.22285901	-67
10212	0	0.380854607	-0.050631523	0.067061424	0.999997139	0.001982689	0.001150131	-0.000587463	9.521365166	-1.265788078	1.676535606	0.099134538	0.057506615	-0.029373196	-0.656738281	0.69140625	-0.391357422	890.42	-36.53347038	-76.35883298	-35.80751858	-67
10213	0	0.381286621	-0.04510498	0.072570801	0.999998093	0.001267433	0.000728607	-0.000976563	9.532165527	-1.127624512	1.81427002	0.063371691	0.036430378	-0.04882815	-0.654296875	0.69140625	-0.391601563	890.54	-35.79740553	-76.36129095	-36.42685899	-67
10214	0	0.380037308	-0.04069519	0.074936867	0.999998093	0.001099586	0.000369072	-0.001239777	9.500932693	-1.017379761	1.873421669	0.054979351	0.018453607	-0.06198886	-0.656494141	0.684814453	-0.390869141	890.38	-35.07356953	-76.41330462	-37.05533909	-67
10215	0	0.388244629	-0.040100098	0.076721191	0.999998093	0.000882149	-1.52588E-05	-0.001255035	9.706115723	-1.002502441	1.918029785	0.044107454	-0.00076294	-0.062751795	-0.658691406	0.684814453	-0.396728516	890.5	-34.46439473	-76.50114435	-37.58350966	-67
10216	0	0.387568474	-0.045578003	0.080513	0.999999046	-1.23978E-05	0.000310898	-0.000958443	9.689211845	-1.139450073	2.012825012	-0.000619888	0.015544894	-0.047922143	-0.660888672	0.682617188	-0.402099609	890.38	-33.97926514	-76.53777766	-38.07875624	-66
10217	0	0.382263184	-0.046569824	0.077941895	0.999999046	8.01086E-05	0.000451088	-0.000473022	9.55657959	-1.164245605	1.948547363	0.004005432	0.022554399	-0.023651125	-0.660888672	0.680419922	-0.396240234	890.46	-33.63621008	-76.52925604	-38.42885269	-66
10218	0	0.377905846	-0.048947334	0.077374458	0.999999046	-0.000375748	0.000501633	0.00026226	9.447646141	-1.223683357	1.934361458	-0.018787385	0.025081636	0.013113023	-0.660888672	0.678222656	-0.398925781	890.6	-33.62451944	-76.46890347	-38.48462238	-66
10219	0	0.378112793	-0.052856445	0.07623291	0.999998093	-0.001746178	0.000217438	0.000591278	9.452819824	-1.321411133	1.905822754	-0.087308934	0.010871893	0.029563921	-0.660888672	0.680419922	-0.396240234	890.46	-33.97456443	-76.4145566	-38.33138029	-66
10220	0	0.379234314	-0.055768967	0.076264381	0.999998093	-0.001703262	0.000281334	0.000892639	9.480857849	-1.394224167	1.906609535	-0.08516317	0.014066705	0.044631986	-0.658691406	0.680419922	-0.393310547	890.42	-34.41876156	-76.3343338	-38.07592711	-66
10221	0	0.382446289	-0.051879883	0.077819824	0.999999046	-0.000659943	0.000157356	0.000999451	9.561157227	-1.29699707	1.945495605	-0.032997139	0.007867815	0.049972546	-0.658935547	0.684814453	-0.390869141	890.56	-34.8134202	-76.25836148	-37.75436363	-66
10222	0	0.382144928	-0.046709061	0.080868721	0.999999046	7.62939E-06	0.00015831	0.000759125	9.553623199	-1.167726517	2.021718025	0.00038147	0.007915498	0.037956242	-0.658935547	0.687011719	-0.390869141	890.36	-35.03400024	-76.19764277	-37.53468006	-66
10223	0	0.385192871	-0.044372559	0.079650879	0.999999046	8.39233E-05	0.000145912	0.000320435	9.629821777	-1.109313965	1.991271973	0.004196167	0.007295609	0.016021729	-0.654052734	0.684570313	-0.396972656	890.5	-35.07835548	-76.16700032	-37.47184342	-66
10224	0	0.389047623	-0.04460907	0.078489304	0.999999046	-0.000441551	0.000301361	0.000151634	9.726190567	-1.115226746	1.96223259	-0.022077562	0.015068055	0.007581711	-0.656494141	0.687011719	-0.396972656	890.54	-35.07507492	-76.13314625	-37.52208031	-66
10225	0	0.388061523	-0.046325684	0.076782227	0.999999046	-0.000988007	0.000378609	0.00018692	9.701538086	-1.15814209	1.919555664	-0.049400339	0.018930439	0.00934601	-0.654052734	0.686767578	-0.396972656	890.5	-35.12591656	-76.0900002	-37.57780687	-66
10226	0	0.385117531	-0.047657967	0.076185226	0.999997139	-0.002099991	0.000385284	0.000239372	9.627938271	-1.191449165	1.904630661	-0.104999623	0.019264236	0.011968622	-0.656738281	0.689208984	-0.391357422	890.46	-35.32094567	-76.0430261	-37.62441163	-66
10227	0	0.384094238	-0.053466797	0.079162598	0.999997139	-0.002178192	0.000279427	6.86646E-05	9.602355957	-1.336669922	1.979064941	-0.108909695	0.01397134	0.00343323	-0.654296875	0.689208984	-0.385498047	890.5	-35.48812179	-76.01725364	-37.71356907	-66
10228	0	0.381660461	-0.053936005	0.081643105	0.999999046	-0.001173973	0.000240326	1.90735E-05	9.541511536	-1.348400116	2.041077614	-0.058698668	0.012016299	0.000953675	-0.652099609	0.69140625	-0.385986328	890.5	-35.53130125	-75.99827825	-37.80848292	-66
10229	0	0.38104248	-0.054016113	0.082824707	0.999999046	-0.00062561	0.000145912	3.05176E-05	9.526062012	-1.350402832	2.070617676	-0.03128052	0.007295609	0.001525879	-0.656738281	0.689208984	-0.385498047	890.5	-35.5403275	-75.98711993	-37.87282611	-66
10230	0	0.382357597	-0.054692268	0.082195282	0.999999046	2.47955E-05	9.53674E-06	0.000179291	9.558939934	-1.367306709	2.05488205	0.001239777	0.000476837	0.008964539	-0.654541016	0.696044922	-0.385986328	890.5	-35.56616657	-75.97856387	-37.84657821	-66
10231	0	0.381774902	-0.055541992	0.079101563	0.999999046	0.000473022	0.000199318	0.000358582	9.544372559	-1.388549805	1.977539063	0.023651125	0.009965897	0.017929078	-0.654541016	0.69140625	-0.385742188	890.46	-35.55673551	-75.94026531	-37.80268971	-66
10232	0	0.380850792	-0.053238869	0.078631401	0.999999046	0.000567436	-7.62939E-06	0.000518799	9.521269798	-1.330971718	1.965785027	0.028371814	-0.00038147	0.025939944	-0.652099609	0.693603516	-0.391845703	890.36	-35.65045156	-75.91053855	-37.63119349	-66
10233	0	0.384887695	-0.052246094	0.077880859	0.999999046	0.000137329	-1.81198E-05	0.000549316	9.622192383	-1.306152344	1.947021484	0.006866455	-0.000905991	0.027465822	-0.652099609	0.693603516	-0.391845703	890.5	-35.80640556	-75.8797674	-37.44662116	-66
10234	0	0.380620956	-0.052704811	0.077025414	0.999999046	-0.00012207	3.43323E-05	0.000304222	9.515523911	-1.317620277	1.925635338	-0.006103516	0.001716614	0.015211106	-0.652099609	0.693603516	-0.391845703	890.32	-35.88670764	-75.86056703	-37.37038743	-66
10235	0	0.378173828	-0.052062988	0.079711914	0.999999046	-0.000179291	-3.33786E-05	0.000469208	9.454345703	-1.301574707	1.992797852	-0.008964539	-0.00166893	0.023460389	-0.652099609	0.693603516	-0.388916016	890.5	-36.05120989	-75.83647698	-37.21935122	-66
10236	0	0.381181717	-0.051960945	0.078507423	0.999999046	-0.000329018	-0.000236511	0.000571251	9.529542923	-1.299023628	1.962685585	-0.016450883	-0.011825562	0.028562548	-0.654541016	0.693847656	-0.383056641	890.36	-36.32336696	-75.82420234	-36.98604167	-66
10237	0	0.383178711	-0.054931641	0.078552246	0.999999046	-0.000797272	-9.44138E-05	0.000579834	9.579467773	-1.373291016	1.963806152	-0.039863593	-0.004720689	0.028991704	-0.649902344	0.695800781	-0.383544922	890.38	-36.61312817	-75.79796687	-36.78540503	-67
10238	0	0.38257885	-0.05635643	0.079304695	0.999999046	-0.000680923	-0.00021553	0.000617027	9.564471245	-1.408910751	1.982617378	-0.034046178	-0.010776521	0.030851369	-0.650146484	0.697998047	-0.380615234	890.38	-36.93468056	-75.77997009	-36.54268841	-67
10239	0	0.382568359	-0.058410645	0.080566406	0.999999046	-0.000450134	-0.000247002	0.00075531	9.564208984	-1.460266113	2.014160156	-0.022506717	-0.012350084	0.037765508	-0.650146484	0.697998047	-0.380615234	890.42	-37.28717426	-75.75476454	-36.23787943	-67
10240	0	0.380198479	-0.059607506	0.080141068	0.999999046	-0.000365257	-0.000234604	0.000754356	9.504961967	-1.490187645	2.003526688	-0.018262865	-0.011730196	0.037717824	-0.647705078	0.700195313	-0.386962891	890.5	-37.62496508	-75.7278405	-35.9232916	-67
10241	0	0.38079834	-0.060852051	0.080078125	0.999999046	-0.000144958	-0.000349998	0.000816345	9.519958496	-1.52130127	2.001953125	-0.007247926	-0.017499926	0.040817266	-0.647705078	0.700195313	-0.381103516	890.38	-37.99022583	-75.7063428	-35.56486857	-68
10242	0	0.379591942	-0.061922073	0.077778816	0.999999046	0.000150681	-0.000448227	0.001036644	9.489798546	-1.548051834	1.944470406	0.007534029	-0.022411351	0.05183221	-0.647949219	0.704833984	-0.381347656	890.54	-38.42579204	-75.67730445	-35.1006748	-68
10243	0	0.379089355	-0.06640625	0.075622559	0.999998093	0.000634193	-0.00069046	0.001045227	9.477233887	-1.66015625	1.890563965	0.031709681	-0.034523022	0.05226137	-0.647949219	0.702636719	-0.378173828	890.5	-38.8764918	-75.66824175	-34.56833973	-68
10244	0	0.383144379	-0.067781448	0.077253342	0.999998093	0.001155853	-0.000649452	0.000990868	9.578609467	-1.694536209	1.931333542	0.05779269	-0.032472625	0.049543403	-0.643066406	0.702392578	-0.378417969	890.46	-39.2372686	-75.65826479	-34.0665327	-69
10245	0	0.385925293	-0.068237305	0.076843262	0.999998093	0.001122475	-0.000606537	0.001110077	9.648132324	-1.705932617	1.921081543	0.05612376	-0.030326858	0.055503872	-0.643066406	0.704589844	-0.384521484	890.46	-39.63099677	-75.63478153	-33.52497769	-69
10246	0	0.382022858	-0.068241119	0.077019691	0.999996185	0.001988411	-0.000435829	0.001280785	9.550571442	-1.706027985	1.925492287	0.099420643	-0.021791479	0.064039292	-0.640625	0.704589844	-0.381835938	890.46	-39.93406137	-75.58269471	-32.98468518	-69
10247	0	0.382385254	-0.063110352	0.075134277	0.999994278	0.003048897	-0.000530243	0.001213074	9.559631348	-1.577758789	1.878356934	0.15244512	-0.026512195	0.060653798	-0.635742188	0.704345703	-0.385009766	890.38	-40.1170172	-75.54332253	-32.44308589	-69
10248	0	0.382435799	-0.061514854	0.073637009	0.999993324	0.003333092	-0.000570297	0.001166344	9.560894966	-1.537871361	1.840925217	0.166654942	-0.028514923	0.058317309	-0.638183594	0.704345703	-0.390625	890.42	-40.26118047	-75.51065761	-31.90616925	-69
10249	0	0.386535645	-0.057373047	0.070129395	0.999993324	0.003456116	-0.000506401	0.00069046	9.663391113	-1.434326172	1.753234863	0.172806151	-0.025320107	0.034523083	-0.640380859	0.702148438	-0.393310547	890.46	-40.21082784	-75.50797513	-31.55914443	-69
10250	0	0.384694099	-0.057312012	0.068120003	0.999995232	0.002702713	-0.000440598	0.000522614	9.617352486	-1.432800293	1.703000069	0.135135826	-0.022029905	0.02613071	-0.635498047	0.699707031	-0.393310547	890.46	-40.17117017	-75.51251452	-31.29481522	-69
10251	0	0.382324219	-0.056518555	0.066589355	0.999998093	0.001667976	-0.000553131	0.000209808	9.558105469	-1.412963867	1.664733887	0.083398863	-0.02765657	0.010490423	-0.635253906	0.699707031	-0.399169922	890.5	-40.17670577	-75.55058596	-31.09799664	-70
10252	0	0.380420685	-0.059504509	0.067647934	0.999999046	0.00036335	-0.000526428	0.000232697	9.51051712	-1.487612724	1.691198349	0.018167497	-0.026321413	0.011634828	-0.637695313	0.697509766	-0.398925781	890.46	-40.33297673	-75.58490634	-30.8987906	-70
10253	0	0.384155273	-0.062255859	0.068359375	0.999999046	-0.000259399	-0.000468254	0.000301361	9.603881836	-1.556396484	1.708984375	-0.012969972	-0.023412706	0.015068055	-0.635253906	0.697509766	-0.401855469	890.46	-40.56864925	-75.60913627	-30.68201062	-70
10254	0	0.382839203	-0.064048767	0.06949234	0.999999046	-0.000362396	-0.000442505	0.000343323	9.570980072	-1.601219177	1.737308502	-0.018119813	-0.022125246	0.017166139	-0.637695313	0.697509766	-0.395996094	890.54	-40.82426105	-75.62790129	-30.46711775	-70
10255	0	0.385009766	-0.065185547	0.068786621	0.999999046	0.000209808	-0.000529289	0.000328064	9.625244141	-1.629638672	1.719665527	0.010490418	-0.026464464	0.016403199	-0.640136719	0.697509766	-0.398681641	890.38	-41.0361328	-75.65523843	-30.22366382	-70
10256	0	0.384615898	-0.062234879	0.069930077	0.999999046	0.000601768	-0.000738144	0.000105858	9.615397453	-1.555871964	1.748251915	0.030088429	-0.036907202	0.005292893	-0.637695313	0.697509766	-0.395996094	890.46	-41.19086307	-75.71732939	-29.99789001	-70
10257	0	0.383728027	-0.061950684	0.069641113	0.999999046	0.000301361	-0.00051403	-7.62939E-06	9.593200684	-1.54876709	1.741027832	0.015068055	-0.025701524	-0.00038147	-0.635253906	0.697509766	-0.395996094	890.32	-41.27646367	-75.76871172	-29.87793107	-70
10258	0	0.383008003	-0.062757492	0.070505142	0.999999046	0.000192642	-0.00022316	-0.0001688	9.575200081	-1.568937302	1.762628555	0.009632111	-0.01115799	-0.008440018	-0.637695313	0.6953125	-0.395751953	890.5	-41.23347122	-75.80726582	-29.90286102	-70
10259	0	0.383972168	-0.063903809	0.069702148	0.999999046	-0.000774384	-1.04904E-05	-6.10352E-05	9.599304199	-1.597595215	1.742553711	-0.038719181	-0.000524521	-0.003051758	-0.640136719	0.697509766	-0.395751953	890.42	-41.27478555	-75.81940759	-29.95483986	-70
10260	0	0.383859634	-0.067014694	0.068123817	0.999999046	-0.001290321	0.000272751	9.91821E-05	9.59649086	-1.675367355	1.703095436	-0.064516086	0.013637547	0.004959108	-0.640136719	0.697753906	-0.392822266	890.38	-41.34613959	-75.7950664	-30.0392689	-70
10261	0	0.383239746	-0.067199707	0.068664551	0.999999046	-0.001045227	0.000359535	0.000209808	9.580993652	-1.679992676	1.71661377	-0.052261364	0.017976765	0.01049042	-0.635253906	0.697509766	-0.398925781	890.54	-41.40204194	-75.75488161	-30.09334965	-69
10262	0	0.38279438	-0.065618515	0.071548462	0.999999046	-0.000822067	0.000295639	0.00019455	9.569859505	-1.640462875	1.788711548	-0.041103369	0.014781954	0.009727479	-0.640380859	0.699951172	-0.390136719	890.46	-41.44656225	-75.72129515	-30.15283052	-69
10263	0	0.381835938	-0.065185547	0.072875977	0.999999046	-0.000740051	0.000252724	0.00012207	9.545898438	-1.629638672	1.821899414	-0.037002567	0.012636186	0.006103516	-0.640380859	0.699951172	-0.393066406	890.38	-41.4700683	-75.6967988	-30.21587877	-69
10264	0	0.380256653	-0.066972733	0.072357178	0.999999046	-0.000239372	0.000268936	9.91821E-05	9.506416321	-1.674318314	1.808929443	-0.011968613	0.013446808	0.004959107	-0.635498047	0.701904297	-0.390625	890.36	-41.42414852	-75.67249442	-30.29679634	-69
10265	0	0.384338379	-0.066345215	0.071411133	0.999999046	0.000526428	-7.9155E-05	0.000167847	9.608459473	-1.658630371	1.78527832	0.026321412	-0.003957749	0.008392334	-0.635498047	0.701904297	-0.396484375	890.5	-41.41741186	-75.67285296	-30.23575694	-70
10266	0	0.386464119	-0.063836098	0.071904182	0.999999046	0.001174927	1.33514E-05	0.000113487	9.661602974	-1.595902443	1.797604561	0.058746352	0.000667572	0.005674364	-0.637939453	0.702148438	-0.393310547	890.56	-41.29056627	-75.6694438	-30.23392664	-69
10267	0	0.381103516	-0.062255859	0.071411133	0.999999046	0.001354218	-8.29697E-05	-7.62939E-06	9.527587891	-1.556396484	1.78527832	0.067710897	-0.004148485	-0.00038147	-0.637939453	0.699951172	-0.390380859	890.46	-41.13061187	-75.68354394	-30.25395124	-69
10268	0	0.379223824	-0.062242508	0.070478439	0.999999046	0.001219749	-0.000108719	-9.91821E-05	9.480595589	-1.556062698	1.761960983	0.060987488	-0.005435945	-0.004959108	-0.637695313	0.697509766	-0.395996094	890.36	-40.96247785	-75.70681378	-30.28812533	-69
10269	0	0.381713867	-0.0625	0.071044922	0.999998093	0.001648903	-0.000331879	-9.91821E-05	9.54284668	-1.5625	1.776123047	0.082445184	-0.016593941	-0.004959109	-0.637695313	0.697509766	-0.395996094	890.42	-40.81066401	-75.74944871	-30.25972105	-69
10270	0	0.383176804	-0.062309265	0.071850777	0.999999046	0.001243591	-0.000225067	2.19345E-05	9.57942009	-1.557731628	1.796269417	0.062179582	-0.01125336	0.001096726	-0.640136719	0.697509766	-0.395751953	890.38	-40.71488805	-75.77380278	-30.22622486	-69
10271	0	0.382446289	-0.062316895	0.068664551	0.999999046	0.001075745	-0.000342369	0.000114441	9.561157227	-1.557922363	1.71661377	0.053787243	-0.017118458	0.005722047	-0.637451172	0.697509766	-0.404785156	890.42	-40.70510171	-75.80157306	-30.10664535	-69
10272	0	0.382906914	-0.062192917	0.070121765	0.999999046	0.000950813	-0.00030899	0.000156403	9.572672844	-1.554822922	1.753044128	0.047540673	-0.015449527	0.007820131	-0.639892578	0.693115234	-0.3984375	890.42	-40.71454864	-75.82338556	-29.9946559	-69
10273	0	0.382141113	-0.061889648	0.070861816	0.999999046	0.000774384	-0.000277519	0.000217438	9.553527832	-1.547241211	1.77154541	0.038719182	-0.013875963	0.010871889	-0.637451172	0.693115234	-0.3984375	890.46	-40.75609605	-75.83792768	-29.87141825	-69
10274	0	0.382397652	-0.062311172	0.071965218	0.999999046	0.001068115	-0.000177383	0.000163078	9.559941292	-1.557779312	1.79913044	0.053405772	-0.008869173	0.008153917	-0.639892578	0.693115234	-0.401367188	890.38	-40.715628	-75.84782098	-29.79550196	-69
10275	0	0.383239746	-0.061523438	0.071899414	0.999999046	0.000984192	-0.000281334	0.000102997	9.580993652	-1.538085938	1.797485352	0.049209603	-0.014066699	0.005149842	-0.637451172	0.692871094	-0.404296875	890.42	-40.69480375	-75.87126082	-29.70472471	-69
10276	0	0.385830879	-0.061340332	0.071802139	0.999999046	0.000386238	-0.000156403	0.000106812	9.64577198	-1.533508301	1.795053482	0.019311906	-0.00782013	0.005340576	-0.639648438	0.690673828	-0.406982422	890.42	-40.70664206	-75.88361364	-29.64461454	-69
10277	0	0.385070801	-0.061950684	0.072570801	0.999999046	7.24792E-05	-8.67844E-05	-4.19617E-05	9.62677002	-1.54876709	1.81427002	0.003623962	-0.004339218	-0.002098084	-0.639648438	0.690917969	-0.404052734	890.5	-40.68215249	-75.90102395	-29.66552647	-68
10278	0	0.383135796	-0.061664581	0.074464798	0.999999046	0.000289917	-0.000152588	5.24521E-05	9.57839489	-1.541614532	1.861619949	0.01449585	-0.007629395	0.002622604	-0.639648438	0.693115234	-0.407226563	890.42	-40.68448886	-75.91699537	-29.62883624	-69
10279	0	0.381774902	-0.061584473	0.072875977	0.999999046	0.000514984	-0.000182152	7.62939E-05	9.544372559	-1.539611816	1.821899414	0.025749208	-0.00910759	0.003814697	-0.639648438	0.690673828	-0.406982422	890.38	-40.67787063	-75.93369432	-29.5743794	-69
10280	0	0.380204201	-0.06132412	0.072311401	0.999999046	0.000819206	-0.000146866	-0.000115395	9.505105019	-1.533102989	1.807785034	0.040960317	-0.007343293	-0.00576973	-0.639648438	0.693115234	-0.407226563	890.38	-40.55904526	-75.96158206	-29.60402214	-69
10281	0	0.382019043	-0.060668945	0.068969727	0.999999046	0.000984192	-0.000506401	-0.00031662	9.550476074	-1.516723633	1.724243164	0.049209606	-0.025320059	-0.015830997	-0.642089844	0.690917969	-0.406738281	890.46	-40.45818465	-76.03586249	-29.597621	-70
10282	0	0.384448051	-0.060957909	0.070713997	0.999999046	0.000864029	-0.000375748	-0.0002985	9.611201286	-1.523947716	1.767849922	0.043201454	-0.018787387	-0.014925005	-0.642089844	0.688720703	-0.403808594	890.46	-40.33783393	-76.09743014	-29.63183327	-70
10283	0	0.381469727	-0.060668945	0.07043457	0.999999046	0.000530243	-0.000491142	-0.000240326	9.536743164	-1.516723633	1.760864258	0.026512149	-0.024557116	-0.012016298	-0.641845703	0.688720703	-0.406738281	890.42	-40.31058485	-76.16474852	-29.6037672	-70
10284	0	0.381446838	-0.061142921	0.07116127	0.999999046	4.76837E-06	-0.000247955	8.01086E-05	9.536170959	-1.528573036	1.779031754	0.000238419	-0.012397766	0.004005432	-0.644287109	0.686523438	-0.40625	890.5	-40.3841924	-76.18697968	-29.53257436	-70
10285	0	0.384033203	-0.06048584	0.071228027	0.999999046	-0.000370026	-3.71933E-05	0.000164032	9.600830078	-1.512145996	1.780700684	-0.018501282	-0.001859665	0.008201599	-0.644287109	0.686523438	-0.40625	890.46	-40.46687768	-76.18453728	-29.49457061	-70
10286	0	0.381088257	-0.061579704	0.071702003	0.999999046	-0.000404358	-2.28882E-05	0.000175476	9.527206421	-1.539492607	1.792550087	-0.020217896	-0.001144409	0.008773804	-0.646728516	0.686523438	-0.409179688	890.38	-40.55315637	-76.17986831	-29.44960591	-69
10287	0	0.384155273	-0.061279297	0.070495605	0.999999046	-0.000267029	-0.000224113	0.000118256	9.603881836	-1.531982422	1.762390137	-0.013351441	-0.011205673	0.005912781	-0.644042969	0.686523438	-0.412109375	890.5	-40.66453713	-76.19693844	-29.35413499	-69
10288	0	0.383012772	-0.0626297	0.072914124	0.999999046	-0.000100136	-0.000274658	-3.52859E-05	9.57531929	-1.565742493	1.822853088	-0.00500679	-0.01373291	-0.001764298	-0.644287109	0.688720703	-0.406494141	890.46	-40.71794117	-76.22967403	-29.31171164	-69
10289	0	0.385498047	-0.062255859	0.072631836	0.999999046	0.000537872	-0.000292778	-0.00019455	9.637451172	-1.556396484	1.815795898	0.026893618	-0.014638902	-0.009727479	-0.646728516	0.686523438	-0.40625	890.46	-40.64714889	-76.27575607	-29.32226214	-69
10290	0	0.380132675	-0.061480522	0.072901726	0.999999046	0.000764847	-1.52588E-05	-0.000275612	9.503316879	-1.537013054	1.822543144	0.038242344	-0.00076294	-0.013780595	-0.644287109	0.686523438	-0.40625	890.42	-40.43591585	-76.30351129	-29.45294532	-69
10291	0	0.380187988	-0.061828613	0.068603516	0.999999046	0.00025177	-0.000247002	-0.000240326	9.504699707	-1.545715332	1.715087891	0.012588501	-0.012350083	-0.012016297	-0.646728516	0.688720703	-0.409423828	890.44	-40.36671838	-76.34874845	-29.49423321	-69
10292	0	0.383060455	-0.062158585	0.070397377	0.999999046	0.000374794	-0.000244141	-0.000115395	9.576511383	-1.553964615	1.759934425	0.018739701	-0.012207032	-0.00576973	-0.644042969	0.684082031	-0.412109375	890.42	-40.32750722	-76.38435529	-29.48040295	-69
10293	0	0.385314941	-0.061035156	0.071533203	0.999999046	0.000152588	-7.53403E-05	3.8147E-06	9.632873535	-1.525878906	1.788330078	0.007629395	-0.003767014	0.000190735	-0.646484375	0.684326172	-0.406005859	890.38	-40.30494182	-76.39628517	-29.48987289	-69
10294	0	0.38215065	-0.059674263	0.070210457	0.999999046	0	4.57764E-05	0.000342369	9.553766251	-1.491856575	1.755261421	0	0.002288818	0.017118454	-0.646484375	0.684326172	-0.411865234	890.38	-40.38479318	-76.37248456	-29.39940344	-69
10295	0	0.382019043	-0.057189941	0.069641113	0.999999046	0.000137329	6.58035E-05	0.000511169	9.550476074	-1.429748535	1.741027832	0.006866455	0.003290177	0.025558473	-0.644042969	0.684082031	-0.412109375	890.46	-40.50262333	-76.33442912	-29.25276259	-69
10296	0	0.381160736	-0.054081917	0.068728447	0.999999046	-0.000447273	-6.86646E-05	0.000468254	9.529018402	-1.35204792	1.718211174	-0.022363664	-0.003433228	0.023412706	-0.646484375	0.686523438	-0.412109375	890.42	-40.71171911	-76.31138976	-29.08190975	-68
10297	0	0.386779785	-0.057128906	0.067260742	0.999999046	-0.000682831	-0.000132561	0.000179291	9.669494629	-1.428222656	1.681518555	-0.034141543	-0.006628037	0.008964539	-0.644287109	0.686523438	-0.409179688	890.38	-40.8638833	-76.31564213	-29.00024816	-68
10298	0	0.38329792	-0.059742928	0.069945335	0.999999046	-0.00129509	-6.48499E-05	4.95911E-05	9.582448006	-1.493573189	1.748633385	-0.064754504	-0.003242494	0.002479554	-0.646728516	0.686523438	-0.409179688	890.42	-41.01906492	-76.32372826	-28.98349849	-67
10299	0	0.382507324	-0.062194824	0.072265625	0.999999046	-0.001182556	-7.9155E-05	0.000152588	9.562683105	-1.554870605	1.806640625	-0.059127822	-0.003957749	0.007629396	-0.646728516	0.688720703	-0.406494141	890.54	-41.20222875	-76.32511133	-28.92788743	-67
10300	0	0.381949425	-0.063214302	0.071627617	0.999998093	-0.001403809	0.000136375	0.000480652	9.548735619	-1.580357552	1.790690422	-0.070190456	0.006818774	0.024032602	-0.641845703	0.688720703	-0.406738281	890.38	-41.45961044	-76.28289256	-28.81536484	-67
10301	0	0.382873535	-0.065734863	0.071960449	0.999998093	-0.001219749	0.000343323	0.000629425	9.571838379	-1.643371582	1.79901123	-0.060987493	0.017166143	0.031471263	-0.64453125	0.688720703	-0.400634766	890.42	-41.6828495	-76.21127532	-28.72625393	-68
10302	0	0.383353233	-0.064804077	0.071088791	0.999999046	-0.00079155	0.000337601	0.000713348	9.583830833	-1.620101929	1.777219772	-0.039577492	0.016880039	0.035667427	-0.642089844	0.693115234	-0.404052734	890.54	-41.88656347	-76.13351456	-28.60034075	-68
10303	0	0.38458252	-0.064758301	0.0703125	0.999999046	-0.000480652	0.000470161	0.000778198	9.614562988	-1.61895752	1.7578125	-0.024032597	0.023508076	0.038909919	-0.639892578	0.693115234	-0.401367188	890.5	-42.03447626	-76.03933174	-28.49960332	-68
10304	0	0.38325882	-0.062311172	0.071344376	0.999999046	-8.67844E-05	0.000444412	0.000679016	9.58147049	-1.557779312	1.78360939	-0.004339219	0.022220614	0.033950809	-0.642333984	0.6953125	-0.404296875	890.42	-42.10963989	-75.9548968	-28.4241664	-68
10305	0	0.382019043	-0.063232422	0.0703125	0.999999046	0.000598907	0.000302315	0.000488281	9.550476074	-1.580810547	1.7578125	0.029945377	0.01511574	0.024414065	-0.639892578	0.6953125	-0.401611328	890.5	-42.08449207	-75.89719683	-28.37911898	-68
10306	0	0.382221222	-0.061997414	0.06964016	0.999999046	0.001195908	0.000123978	0.000301361	9.555530548	-1.549935341	1.74100399	0.059795395	0.006198885	0.015068058	-0.639892578	0.6953125	-0.401611328	890.42	-41.98201697	-75.86912208	-28.34778566	-68
10307	0	0.3828125	-0.061767578	0.067321777	0.999999046	0.001140594	9.25064E-05	0.000247955	9.5703125	-1.544189453	1.683044434	0.057029737	0.004625321	0.012397769	-0.637451172	0.693115234	-0.401367188	890.46	-41.87765602	-75.84803383	-28.32711611	-69
10308	0	0.381854057	-0.061014175	0.065699577	0.999999046	0.001124382	2.28882E-05	0.000289917	9.546351433	-1.525354385	1.642489433	0.056219114	0.001144409	0.014495853	-0.637207031	0.692871094	-0.407226563	890.54	-41.81082426	-75.82996287	-28.26080286	-69
10309	0	0.381835938	-0.059020996	0.06427002	0.999999046	0.001216888	-0.000239372	0.000148773	9.545898438	-1.475524902	1.606750488	0.060844437	-0.011968616	0.007438662	-0.637207031	0.692871094	-0.413085938	890.5	-41.7652278	-75.84548177	-28.15297826	-69
10310	0	0.388258934	-0.053793907	0.063603401	0.999999046	9.53674E-06	-0.000341415	-2.67029E-05	9.706473351	-1.344847679	1.59008503	0.000476837	-0.017070771	-0.001335144	-0.637207031	0.692871094	-0.407226563	890.42	-41.829054	-75.88376748	-28.08670426	-69
10311	0	0.383117676	-0.056152344	0.066650391	0.999996185	-0.002676964	9.91821E-05	6.48499E-05	9.577941895	-1.403808594	1.666259766	-0.13384835	0.004959112	0.003242497	-0.637207031	0.690673828	-0.412841797	890.54	-42.09742789	-75.87781967	-28.10355489	-69
10312	0	0.381629944	-0.063042641	0.069013596	0.99998951	-0.004429817	0.000141144	-0.000123024	9.540748596	-1.576066017	1.72533989	-0.221491586	0.007057213	-0.006151219	-0.639892578	0.693115234	-0.401367188	890.42	-42.49030778	-75.88289751	-28.21119385	-69
10313	0	0.382263184	-0.070678711	0.071472168	0.99998951	-0.004425049	0.000267982	0.0001297	9.55657959	-1.766967773	1.786804199	-0.221253167	0.013399168	0.006485007	-0.635498047	0.699707031	-0.396240234	890.42	-42.92888038	-75.85756497	-28.27137355	-69
10314	0	0.380922318	-0.07497406	0.07388401	0.999995232	-0.003038406	0.000228882	2.28882E-05	9.523057938	-1.874351501	1.847100258	-0.151920554	0.01144411	0.001144411	-0.637939453	0.702148438	-0.393310547	890.42	-43.18550256	-75.84343982	-28.35407236	-69
10315	0	0.382507324	-0.07611084	0.073608398	0.999998093	-0.001551628	0.000221252	3.43323E-05	9.562683105	-1.902770996	1.840209961	-0.077581437	0.011062627	0.001716614	-0.638183594	0.704345703	-0.387695313	890.42	-43.27876213	-75.82860243	-28.43872861	-69
10316	0	0.38344574	-0.074350357	0.072998047	0.999999046	0.000224113	7.43866E-05	0.000114441	9.586143494	-1.858758926	1.824951172	0.011205673	0.00371933	0.005722046	-0.635742188	0.702148438	-0.387695313	890.5	-43.24143624	-75.81932504	-28.44687163	-69
10317	0	0.380859375	-0.068786621	0.07220459	0.999999046	0.001239777	-6.38962E-05	0.000267029	9.521484375	-1.719665527	1.805114746	0.061988847	-0.00319481	0.013351444	-0.638183594	0.704345703	-0.384765625	890.38	-43.18110819	-75.80940035	-28.37165772	-69
10318	0	0.383946419	-0.063268661	0.068283081	0.999999046	0.000837326	-5.72205E-05	0.000213623	9.598660469	-1.581716537	1.707077026	0.041866308	-0.002861023	0.010681154	-0.635742188	0.704345703	-0.390869141	890.46	-43.14693645	-75.80327081	-28.30582774	-69
10319	0	0.383544922	-0.064086914	0.068969727	0.999999046	0.000385284	8.58307E-06	0.000110626	9.588623047	-1.602172852	1.724243164	0.019264222	0.000429153	0.005531311	-0.635742188	0.702148438	-0.384765625	890.42	-43.10992258	-75.79980984	-28.30911117	-69
10320	0	0.382247925	-0.063631058	0.067803383	0.999999046	-0.000128746	9.53674E-06	-0.000172615	9.55619812	-1.590776443	1.695084572	-0.006437302	0.000476837	-0.008630753	-0.638183594	0.702148438	-0.387451172	890.5	-43.03768047	-75.81856994	-28.40379213	-69
10321	0	0.382324219	-0.066345215	0.06829834	0.999999046	-0.000530243	9.53674E-07	-0.000190735	9.558105469	-1.658630371	1.707458496	-0.026512147	4.76837E-05	-0.009536744	-0.637939453	0.702148438	-0.393310547	890.5	-43.00817459	-75.83946204	-28.48727615	-69
10322	0	0.382838249	-0.067863464	0.072071075	0.999999046	-0.000366211	-9.91821E-05	-0.0001688	9.57095623	-1.696586609	1.801776886	-0.018310547	-0.004959107	-0.008440018	-0.638183594	0.704345703	-0.390625	890.42	-42.9979806	-75.86685318	-28.53777095	-69
10323	0	0.383239746	-0.066955566	0.071777344	0.999999046	0.000160217	9.53674E-07	-0.000106812	9.580993652	-1.67388916	1.794433594	0.008010864	4.76837E-05	-0.005340576	-0.635498047	0.699707031	-0.387451172	890.36	-42.9167484	-75.88086473	-28.60243437	-69
10324	0	0.383375168	-0.066485405	0.070760727	0.999999046	0.000445366	7.62939E-05	-0.000157356	9.584379196	-1.662135124	1.769018173	0.022268296	0.003814697	-0.007867813	-0.638183594	0.702148438	-0.387451172	890.42	-42.7624113	-75.89237098	-28.71342584	-69
10325	0	0.383117676	-0.067932129	0.071166992	0.999999046	0.000873566	-2.19345E-05	-0.000232697	9.577941895	-1.698303223	1.779174805	0.04367829	-0.001096726	-0.011634828	-0.637939453	0.702148438	-0.390380859	890.46	-42.56403295	-75.9177748	-28.81606572	-69
10326	0	0.382235527	-0.065621376	0.06845665	0.999999046	0.001214981	0.000190735	-2.00272E-05	9.555888176	-1.640534401	1.711416245	0.060749069	0.009536746	-0.001001358	-0.640136719	0.697753906	-0.389892578	890.54	-42.33250632	-75.90866337	-28.91559907	-69
10327	0	0.380493164	-0.065490723	0.069335938	0.999999046	0.001342773	2.00272E-05	1.52588E-05	9.512329102	-1.637268066	1.733398438	0.067138692	0.001001358	0.00076294	-0.640136719	0.697753906	-0.389892578	890.5	-42.15104595	-75.91119314	-28.95330226	-69
10328	0	0.384638786	-0.064586639	0.068730354	0.999999046	0.001353264	-5.34058E-05	6.86646E-05	9.615969658	-1.614665985	1.718258858	0.067663213	-0.002670289	0.003433229	-0.640136719	0.697753906	-0.392822266	890.38	-42.00916734	-75.91591209	-28.94722093	-69
10329	0	0.381896973	-0.063659668	0.070068359	0.999998093	0.001385689	0.000102997	8.7738E-05	9.547424316	-1.591491699	1.751708984	0.069284461	0.005149843	0.004386903	-0.637695313	0.6953125	-0.395751953	890.46	-41.8222534	-75.90585257	-28.97991901	-69
10330	0	0.379185677	-0.062252998	0.069524765	0.999998093	0.001643181	6.38962E-05	8.01086E-05	9.479641914	-1.556324959	1.738119125	0.082159079	0.00319481	0.004005434	-0.642333984	0.695556641	-0.3984375	890.46	-41.61514564	-75.89973866	-29.00474093	-69
10331	0	0.381225586	-0.062133789	0.071655273	0.999998093	0.001736641	-5.34058E-05	0.000324249	9.530639648	-1.553344727	1.791381836	0.086832092	-0.002670289	0.016212472	-0.640136719	0.6953125	-0.395751953	890.38	-41.51581803	-75.88510347	-28.91822256	-69
10332	0	0.383511543	-0.062318802	0.071341515	0.999998093	0.001726151	-7.34329E-05	0.000255585	9.587788582	-1.557970047	1.783537865	0.08630757	-0.003671648	0.012779242	-0.639892578	0.693115234	-0.404296875	890.46	-41.40009901	-75.87747959	-28.83513682	-69
10333	0	0.381286621	-0.062744141	0.069702148	0.999998093	0.001690865	-9.91821E-05	0.000453949	9.532165527	-1.568603516	1.742553711	0.084543271	-0.004959109	0.02269746	-0.637207031	0.692871094	-0.407226563	890.46	-41.36397192	-75.85712673	-28.67252831	-70
10334	0	0.383684158	-0.062980652	0.069472313	0.999998093	0.001328468	5.81741E-05	0.000479698	9.592103958	-1.574516296	1.736807823	0.066423438	0.002908708	0.023984917	-0.637207031	0.692871094	-0.41015625	890.38	-41.3308516	-75.82140558	-28.5480917	-69
10335	0	0.382568359	-0.062805176	0.069458008	0.999999046	0.000961304	0.000107765	0.000591278	9.564208984	-1.570129395	1.736450195	0.048065196	0.005388261	0.02956391	-0.637207031	0.688476563	-0.406982422	890.46	-41.36268856	-75.77306995	-28.40640391	-70
10336	0	0.38199234	-0.061719894	0.069535255	0.999999046	0.001019478	0.000116348	0.000613213	9.549808502	-1.54299736	1.738381386	0.050973904	0.005817415	0.030660637	-0.637207031	0.690673828	-0.412841797	890.42	-41.39209497	-75.72245301	-28.25326733	-70
10337	0	0.385009766	-0.059082031	0.070739746	0.999999046	0.000774384	-2.86102E-06	0.000492096	9.625244141	-1.477050781	1.768493652	0.038719183	-0.000143051	0.024604801	-0.636962891	0.688476563	-0.412841797	890.5	-41.44302215	-75.69146686	-28.10735387	-70
10338	0	0.384281158	-0.058312416	0.071375847	0.999999046	0.00069809	0.000188828	2.57492E-05	9.607028961	-1.457810402	1.784396172	0.034904483	0.009441377	0.00128746	-0.632324219	0.690429688	-0.413085938	890.42	-41.28769415	-75.67957035	-28.18644413	-70
10339	0	0.382568359	-0.058044434	0.070983887	0.999999046	0.000556946	0.000222206	-0.000141144	9.564208984	-1.45111084	1.774597168	0.027847292	0.011110306	-0.00705719	-0.634765625	0.690429688	-0.416015625	890.46	-41.0817439	-75.67755255	-28.33161298	-70
10340	0	0.384262085	-0.057492256	0.070057869	0.999999046	-0.000172615	4.3869E-05	-8.58307E-06	9.606552124	-1.437306404	1.751446724	-0.008630753	0.002193451	-0.000429153	-0.632324219	0.688232422	-0.413085938	890.5	-41.0562267	-75.68118332	-28.38000954	-70
10341	0	0.38671875	-0.057189941	0.068359375	0.999999046	-0.001155853	9.63211E-05	-0.000244141	9.66796875	-1.429748535	1.708984375	-0.057792677	0.004816056	-0.012207034	-0.634765625	0.690673828	-0.413085938	890.46	-41.04762744	-75.69839628	-28.52620784	-69
10342	0	0.381118774	-0.060217857	0.070062637	0.999998093	-0.001469612	6.00815E-05	-0.000203133	9.52796936	-1.505446434	1.751565933	-0.073480633	0.003004075	-0.010156635	-0.634521484	0.688232422	-0.412841797	890.54	-41.09924064	-75.71581095	-28.64057597	-69
10343	0	0.382507324	-0.061340332	0.07220459	0.999999046	-0.001251221	-0.000189781	-0.000343323	9.562683105	-1.533508301	1.805114746	-0.062561053	-0.009489062	-0.017166143	-0.632324219	0.690429688	-0.413085938	890.54	-41.151753	-75.76542342	-28.72423936	-69
10344	0	0.380502701	-0.062664032	0.072085381	0.999998093	-0.001379013	-4.1008E-05	-0.000511169	9.51256752	-1.5666008	1.802134514	-0.068950678	-0.002050401	-0.025558481	-0.637207031	0.690673828	-0.412841797	890.46	-41.1169821	-75.81480693	-28.91046658	-69
10345	0	0.37878418	-0.065490723	0.071533203	0.999998093	-0.001681328	7.62939E-06	-0.000659943	9.469604492	-1.637268066	1.788330078	-0.084066437	0.00038147	-0.032997149	-0.639648438	0.690673828	-0.409912109	890.36	-41.05085813	-75.87099639	-29.16628741	-69
10346	0	0.380640984	-0.067123413	0.071922302	0.999998093	-0.001832008	1.43051E-05	-0.000228882	9.51602459	-1.678085327	1.798057556	-0.09160047	0.000715256	-0.011444098	-0.637451172	0.692871094	-0.404296875	890.42	-41.14790868	-75.89394428	-29.27873499	-69
10347	0	0.383483887	-0.068237305	0.073486328	0.999998093	-0.001509666	-7.62939E-06	3.05176E-05	9.587097168	-1.705932617	1.837158203	-0.075483351	-0.00038147	0.001525879	-0.642333984	0.693115234	-0.401123047	890.5	-41.30420799	-75.89898515	-29.29489873	-69
10348	0	0.381526947	-0.06672287	0.076696396	0.999999046	-0.000971794	0.000165939	6.86646E-05	9.538173676	-1.668071747	1.917409897	-0.048589714	0.008296968	0.003433228	-0.639892578	0.6953125	-0.401611328	890.5	-41.359517	-75.88585181	-29.34868133	-69
10349	0	0.38494873	-0.065551758	0.076049805	0.999999046	-0.000450134	0.000302315	1.14441E-05	9.623718262	-1.638793945	1.901245117	-0.022506715	0.015115739	0.000572205	-0.639892578	0.693115234	-0.3984375	890.54	-41.29424743	-75.86506771	-29.46951371	-69
10350	0	0.383437157	-0.063796043	0.073659897	0.999999046	0.00028038	0.000291824	3.43323E-05	9.585928917	-1.594901085	1.841497421	0.014019013	0.014591217	0.001716614	-0.639892578	0.693115234	-0.401367188	890.5	-41.15638048	-75.84330065	-29.57444904	-69
10351	0	0.38293457	-0.062316895	0.072998047	0.999999046	0.000663757	0.000184059	7.24792E-05	9.573364258	-1.557922363	1.824951172	0.033187869	0.009202958	0.003623963	-0.639892578	0.6953125	-0.401611328	890.5	-41.01987505	-75.82787315	-29.63701212	-69
10352	0	0.383630753	-0.060628891	0.072424889	0.999999046	0.000424385	0.000131607	-5.05447E-05	9.590768814	-1.515722275	1.810622215	0.021219254	0.006580353	-0.002527237	-0.639892578	0.693115234	-0.401367188	890.42	-40.88401587	-75.82624802	-29.72787757	-70
10353	0	0.381896973	-0.062683105	0.072814941	0.999999046	4.57764E-05	0.000180244	-0.000137329	9.547424316	-1.567077637	1.820373535	0.002288818	0.009012222	-0.006866455	-0.639648438	0.693115234	-0.407226563	890.46	-40.74726596	-75.82680846	-29.85251381	-69
10354	0	0.380422592	-0.064464569	0.07344532	0.999999046	-8.7738E-05	-6.67572E-05	-4.76837E-06	9.510564804	-1.611614227	1.836133003	-0.004386902	-0.00333786	-0.000238419	-0.642333984	0.695556641	-0.3984375	890.5	-40.74466295	-75.83871746	-29.87605281	-69
10355	0	0.381591797	-0.06628418	0.074951172	0.999999046	0.000507355	-7.9155E-05	0.000198364	9.539794922	-1.657104492	1.873779297	0.025367738	-0.003957749	0.009918213	-0.642333984	0.693115234	-0.401123047	890.54	-40.74766733	-75.83626975	-29.81695389	-69
10356	0	0.380234718	-0.064040184	0.074710846	0.999998093	0.001548767	6.67572E-06	0.000308037	9.505867958	-1.601004601	1.867771149	0.077438387	0.000333786	0.015401847	-0.639892578	0.693115234	-0.401367188	890.5	-40.6435577	-75.8180141	-29.7494701	-69
10357	0	0.381408691	-0.059692383	0.071899414	0.999997139	0.002204895	-0.00014782	0.000221252	9.535217285	-1.49230957	1.797485352	0.110244842	-0.007390982	0.011062631	-0.639648438	0.690673828	-0.406982422	890.54	-40.47972486	-75.81981545	-29.65913302	-69
10358	0	0.387263298	-0.056562424	0.070569038	0.999998093	0.001389503	0.000100136	0.000151634	9.681582451	-1.414060593	1.76422596	0.069475197	0.005006792	0.007581713	-0.637207031	0.690673828	-0.409912109	890.42	-40.31182045	-75.8055279	-29.66766765	-69
10359	0	0.38470459	-0.05670166	0.071228027	0.999999046	0.00037384	-1.81198E-05	9.15527E-05	9.617614746	-1.417541504	1.780700684	0.018692017	-0.000905991	0.004577637	-0.639648438	0.688476563	-0.406738281	890.5	-40.27369797	-75.80627796	-29.66925096	-69
10360	0	0.38213253	-0.056901932	0.070767403	0.999999046	-0.000433922	0.000247955	0.000285149	9.553313255	-1.422548294	1.769185066	-0.021696092	0.012397767	0.014257432	-0.634765625	0.690673828	-0.413085938	890.38	-40.31663046	-75.76965137	-29.6684311	-69
10361	0	0.381774902	-0.058776855	0.072692871	0.999999046	-0.001029968	0.000264168	0.000301361	9.544372559	-1.469421387	1.817321777	-0.051498424	0.013208392	0.015068057	-0.637207031	0.690673828	-0.406982422	890.38	-40.42806482	-75.73050705	-29.67815715	-69
10362	0	0.381332397	-0.061112404	0.074048996	0.999999046	-0.001266479	0.000297546	0.000178337	9.533309937	-1.527810097	1.851224899	-0.063323993	0.014877324	0.008916857	-0.637207031	0.690673828	-0.406982422	890.46	-40.51419652	-75.69758505	-29.7380373	-69
10363	0	0.383056641	-0.063049316	0.071411133	0.999999046	-0.000682831	0.000283241	9.15527E-05	9.576416016	-1.57623291	1.78527832	-0.034141544	0.014162065	0.004577637	-0.637207031	0.692871094	-0.41015625	890.46	-40.50837364	-75.67242839	-29.81718306	-69
10364	0	0.382881165	-0.062975883	0.073249817	0.999999046	-0.000313759	7.43866E-05	8.67844E-05	9.572029114	-1.574397087	1.831245422	-0.015687943	0.00371933	0.004339218	-0.637207031	0.692871094	-0.41015625	890.46	-40.51966724	-75.66581007	-29.83423379	-69
10365	0	0.379638672	-0.064331055	0.071105957	0.999999046	-0.000167847	-0.000166893	0.000144958	9.490966797	-1.608276367	1.777648926	-0.008392334	-0.00834465	0.007247925	-0.635009766	0.692871094	-0.407470703	890.46	-40.60499664	-75.67585408	-29.76182473	-69
10366	0	0.381169319	-0.06391716	0.072115898	0.999999046	-0.000133514	-8.96454E-05	0.00012207	9.529232979	-1.597929001	1.802897453	-0.00667572	-0.004482269	0.006103516	-0.639648438	0.693115234	-0.407226563	890.42	-40.65642856	-75.68084699	-29.7216652	-69
10367	0	0.381958008	-0.065063477	0.071716309	0.999999046	-0.000907898	3.14713E-05	0.000228882	9.548950195	-1.626586914	1.792907715	-0.045394904	0.001573563	0.011444093	-0.637207031	0.692871094	-0.407226563	890.42	-40.79801711	-75.66728698	-29.6758928	-69
10368	0	0.383081436	-0.067568779	0.072532654	0.999999046	-0.001158714	0.000125885	0.000286102	9.577035904	-1.689219475	1.813316345	-0.057935729	0.006294252	0.014305118	-0.635009766	0.695068359	-0.404785156	890.5	-40.96058986	-75.64110667	-29.6407576	-69
10369	0	0.381103516	-0.06652832	0.073059082	0.999999046	-0.000328064	8.10623E-05	0.00043869	9.527587891	-1.663208008	1.826477051	-0.016403199	0.004053116	0.02193451	-0.637451172	0.6953125	-0.407470703	890.46	-41.09271562	-75.60718161	-29.53276876	-69
10370	0	0.382803917	-0.065875053	0.073016167	0.999999046	0.000242233	-0.00015831	1.04904E-05	9.570097923	-1.646876335	1.825404167	0.012111664	-0.007915497	0.000524521	-0.637451172	0.6953125	-0.401611328	890.5	-41.08566198	-75.62608817	-29.51431564	-69
10371	0	0.381103516	-0.067260742	0.072692871	0.999999046	0.001083374	-0.000208855	-0.000171661	9.527587891	-1.681518555	1.817321777	0.054168712	-0.010442736	-0.008583071	-0.637451172	0.693115234	-0.401367188	890.5	-40.93601332	-75.66294238	-29.54572862	-69
10372	0	0.383231163	-0.06654644	0.071821213	0.999998093	0.001537323	-0.00036335	-0.000263214	9.580779076	-1.663661003	1.795530319	0.076866183	-0.018167503	-0.013160711	-0.635009766	0.692871094	-0.407470703	890.42	-40.74872311	-75.71997423	-29.55292077	-69
10373	0	0.38671875	-0.066772461	0.069763184	0.999998093	0.001591682	-0.000301361	-0.000282288	9.66796875	-1.669311523	1.74407959	0.079584158	-0.015068061	-0.014114386	-0.635009766	0.690673828	-0.401367188	890.46	-40.53056576	-75.77306634	-29.602143	-69
10374	0	0.381851196	-0.06377697	0.068088531	0.999997139	0.002073288	-0.000228882	-0.000313759	9.546279907	-1.594424248	1.702213287	0.103664475	-0.0114441	-0.015687954	-0.637207031	0.690673828	-0.404296875	890.46	-40.2247889	-75.82223875	-29.68601701	-69
10375	0	0.382263184	-0.059753418	0.067199707	0.999998093	0.001759529	-0.000274658	-0.000274658	9.55657959	-1.493835449	1.679992676	0.087976503	-0.013732918	-0.013732918	-0.639404297	0.684082031	-0.409423828	890.5	-39.98112714	-75.87271248	-29.73237995	-69
10376	0	0.382820129	-0.060415268	0.064578056	0.999999046	0.000689507	-0.000165939	-0.000263214	9.570503235	-1.510381699	1.614451408	0.03447533	-0.008296967	-0.013160707	-0.636962891	0.686035156	-0.415527344	890.42	-39.83233594	-75.91307374	-29.79743998	-68
10377	0	0.382751465	-0.059753418	0.06463623	0.999999046	-0.000179291	-2.95639E-05	-0.000328064	9.568786621	-1.493835449	1.615905762	-0.008964539	-0.001478195	-0.016403199	-0.639404297	0.686279297	-0.412353516	890.46	-39.72061774	-75.94646079	-29.93428336	-68
10378	0	0.384259224	-0.060745239	0.063858032	0.999999046	-0.001018524	-0.000123978	-0.000354767	9.606480598	-1.518630981	1.596450806	-0.050926218	-0.006198884	-0.017738346	-0.641845703	0.686279297	-0.412353516	890.46	-39.72383579	-75.99041623	-30.04862477	-67
10379	0	0.384643555	-0.06237793	0.065307617	0.999998093	-0.001391411	-0.00019455	-0.000526428	9.616088867	-1.559448242	1.63269043	-0.069570567	-0.009727482	-0.026321421	-0.646728516	0.686523438	-0.409179688	890.46	-39.73037123	-76.05336754	-30.2067392	-67
10380	0	0.383637428	-0.06459713	0.064855576	0.999999046	-0.000985146	-0.000293732	-0.000824928	9.590935707	-1.614928246	1.621389389	-0.049257293	-0.014686589	-0.041246426	-0.644287109	0.686523438	-0.409179688	890.46	-39.61357713	-76.14697604	-30.43935351	-66
10381	0	0.385498047	-0.065185547	0.065795898	0.999998093	-0.000159264	-0.000171661	-0.001392365	9.637451172	-1.629638672	1.644897461	-0.007963183	-0.008583072	-0.069618248	-0.646728516	0.686523438	-0.403320313	890.38	-39.15885785	-76.27078733	-30.9356503	-66
10382	0	0.387104988	-0.064435005	0.066984177	0.999997139	0.000276566	-0.00019455	-0.001961708	9.677624702	-1.61087513	1.674604416	0.013828287	-0.009727484	-0.098085468	-0.648925781	0.682128906	-0.402832031	890.5	-38.44240511	-76.43631875	-31.64915869	-65
10383	0	0.387878418	-0.063415527	0.063537598	0.999997139	-0.000213623	0.000149727	-0.002170563	9.696960449	-1.585388184	1.588439941	-0.010681161	0.007486349	-0.108528224	-0.653564453	0.679931641	-0.408203125	890.5	-37.58640018	-76.58331579	-32.55242098	-64
10384	0	0.386546135	-0.062253952	0.063137054	0.999997139	-0.000676155	0.000356674	-0.001851082	9.663653374	-1.556348801	1.578426361	-0.033807777	0.017833722	-0.092554154	-0.653564453	0.680175781	-0.405273438	890.5	-36.83049187	-76.68639279	-33.41330216	-64
10385	0	0.389648438	-0.057067871	0.062988281	0.999997139	-0.001132965	0.000531197	-0.00163269	9.741210938	-1.426696777	1.574707031	-0.056648294	0.026559848	-0.081634579	-0.658203125	0.67578125	-0.407714844	890.5	-36.1519772	-76.75628143	-34.23915338	-65
10386	0	0.388299942	-0.055698395	0.062844276	0.999994278	-0.002568245	0.00098896	-0.001629829	9.70749855	-1.392459869	1.571106911	-0.128412466	0.049448098	-0.081491609	-0.660644531	0.67578125	-0.404541016	890.46	-35.50322268	-76.78150347	-35.20579864	-65
10387	0	0.381103516	-0.056213379	0.063964844	0.999992371	-0.003241539	0.000930786	-0.00163269	9.527587891	-1.405334473	1.599121094	-0.162077329	0.046539416	-0.081634713	-0.663085938	0.673583984	-0.401367188	890.38	-34.94505045	-76.81014991	-36.15676094	-65
10388	0	0.386955261	-0.052124023	0.063183784	0.999985695	-0.005005836	0.00100708	-0.001398087	9.673881531	-1.303100586	1.579594612	-0.250292994	0.050354239	-0.069904654	-0.663330078	0.676025391	-0.395751953	890.46	-34.6605804	-76.81501286	-37.03457268	-65
10389	0	0.37890625	-0.057312012	0.061340332	0.999976158	-0.006507874	0.001362801	-0.00125885	9.47265625	-1.432800293	1.533508301	-0.32539616	0.06814055	-0.062942985	-0.665771484	0.678222656	-0.392822266	890.54	-34.5085573	-76.77668659	-37.94396801	-65
10390	0	0.376752853	-0.060466766	0.062127113	0.999979973	-0.006004333	0.001070023	-0.001619339	9.418821335	-1.511669159	1.553177834	-0.300218667	0.053501484	-0.080967487	-0.666015625	0.682861328	-0.384277344	890.38	-34.23817695	-76.78866771	-38.92105653	-65
10391	0	0.382751465	-0.063781738	0.062194824	0.999979973	-0.005664825	0.00086689	-0.002414703	9.568786621	-1.594543457	1.554870605	-0.283243098	0.043344777	-0.120735947	-0.668701172	0.683105469	-0.372558594	890.5	-33.660453	-76.86923652	-40.18448518	-65
10392	0	0.387418747	-0.064343452	0.058405876	0.999978065	-0.005795479	0.001449585	-0.00275898	9.685468674	-1.608586311	1.460146904	-0.289776032	0.072479771	-0.137949985	-0.671142578	0.683105469	-0.369384766	890.46	-32.79225481	-76.91215786	-41.75438674	-64
10393	0	0.381652832	-0.064819336	0.059509277	0.999979973	-0.00548172	0.001626015	-0.002620697	9.541320801	-1.620483398	1.487731934	-0.274087806	0.081301272	-0.131035715	-0.676269531	0.683349609	-0.36328125	890.54	-31.89698715	-76.92411452	-43.3175717	-63
10394	0	0.380425453	-0.05480957	0.054033279	0.999973297	-0.006634712	0.002608299	-0.001595497	9.51063633	-1.370239258	1.350831985	-0.331738562	0.130416123	-0.079775566	-0.681152344	0.685791016	-0.357421875	890.42	-31.32002996	-76.77466514	-44.69213794	-63
10395	0	0.379455566	-0.055358887	0.053039551	0.999970436	-0.007144928	0.002488136	-0.000919342	9.48638916	-1.383972168	1.32598877	-0.357249858	0.124408019	-0.045967547	-0.676513672	0.687988281	-0.354980469	890.38	-31.13600084	-76.59542758	-45.71214833	-63
10396	0	0.385027885	-0.047011375	0.051109314	0.999966621	-0.007533073	0.002939224	-0.000257492	9.625697136	-1.175284386	1.277732849	-0.37665778	0.146962815	-0.012874744	-0.677001953	0.692626953	-0.34375	890.44	-31.17439471	-76.33351032	-46.5616496	-62
10397	0	0.374572754	-0.048217773	0.04876709	0.999948502	-0.009383202	0.00365448	8.7738E-05	9.364318848	-1.205444336	1.219177246	-0.46916801	0.182727087	0.004386976	-0.677001953	0.697021484	-0.343994141	890.5	-31.40753091	-75.9826081	-47.41050663	-61
10398	0	0.372883797	-0.045732498	0.047103882	0.999934196	-0.010602951	0.004257202	0.00011158	9.322094917	-1.143312454	1.177597046	-0.530159089	0.212864739	0.005579116	-0.675048828	0.703857422	-0.3359375	890.38	-31.66582	-75.57366655	-48.37676219	-60
10399	0	0.374450684	-0.052856445	0.044128418	0.999901772	-0.012931824	0.005284309	-0.000156403	9.36126709	-1.321411133	1.103210449	-0.646612222	0.264224065	-0.007820384	-0.670898438	0.710449219	-0.322021484	890.42	-31.88106927	-75.08329753	-49.67059534	-59
10400	0	0.378025055	-0.06744957	0.046028137	0.999878883	-0.01412487	0.00642395	-0.000202179	9.450626373	-1.686239243	1.15070343	-0.706271864	0.321210403	-0.010109354	-0.671630859	0.719726563	-0.305419922	890.42	-32.0086351	-74.48710514	-51.21467421	-59
10401	0	0.378417969	-0.075927734	0.043151855	0.999868393	-0.014262199	0.007568359	0.00151825	9.460449219	-1.898193359	1.078796387	-0.713141231	0.378434558	0.075915803	-0.665039063	0.730712891	-0.297851563	890.5	-32.55303782	-73.6785227	-52.33956968	-59
10402	0	0.370272636	-0.076029778	0.044980049	0.999860764	-0.013895988	0.008290291	0.003984451	9.25681591	-1.900744438	1.124501228	-0.694831585	0.414533729	0.199231787	-0.660644531	0.739501953	-0.287109375	890.5	-33.71586345	-72.65237905	-52.78541157	-58
10403	0	0.361633301	-0.085876465	0.047241211	0.999891281	-0.010210991	0.008922577	0.005641937	9.04083252	-2.146911621	1.181030273	-0.510567902	0.446144886	0.282107006	-0.647216797	0.754882813	-0.280517578	890.38	-34.78722993	-71.46339239	-52.8940249	-58
10404	0	0.352343559	-0.084667206	0.046737671	0.999926567	-0.003773689	0.009714127	0.00615406	8.808588982	-2.116680145	1.168441772	-0.18868907	0.485718188	0.307710531	-0.630859375	0.767822266	-0.276611328	890.5	-35.08115932	-70.16821214	-53.07172363	-59
10405	0	0.342529297	-0.077087402	0.048706055	0.999925613	-0.001185417	0.010478973	0.006072998	8.563232422	-1.927185059	1.217651367	-0.059272322	0.523961603	0.303657398	-0.618896484	0.774169922	-0.286621094	890.38	-34.93309862	-68.80812357	-53.41081055	-60
10406	0	0.317288399	-0.105172157	0.073144913	0.999903679	0.002487183	0.011642456	0.007001877	7.932209969	-2.629303932	1.828622818	0.124363085	0.582141312	0.350104973	-0.604980469	0.787109375	-0.297119141	890.42	-34.43784323	-67.27682708	-53.69781616	-61
10407	0	0.27545166	-0.128356934	0.08996582	0.99976635	0.01260376	0.015557289	0.00812149	6.886291504	-3.20892334	2.249145508	0.630237032	0.777924992	0.406106126	-0.585449219	0.79296875	-0.324951172	890.42	-32.55952516	-65.29680681	-54.26458713	-59
10408	0	0.260398865	-0.134374619	0.076713562	0.999542236	0.021306992	0.019133568	0.00970459	6.509971619	-3.359365463	1.91783905	1.06551198	0.956824226	0.48530346	-0.562988281	0.793945313	-0.373046875	890.46	-29.78316704	-62.86393529	-54.75966322	-59
10409	0	0.273681641	-0.152832031	0.093505859	0.999529839	0.013492584	0.025086403	0.01134491	6.842041016	-3.820800781	2.337646484	0.674734958	1.254516756	0.567334397	-0.528320313	0.792480469	-0.424560547	890.5	-27.83409993	-59.73572073	-55.3392237	-60
10410	0	0.258879662	-0.188134193	0.07998085	0.99909687	0.024717331	0.031751633	0.013643265	6.471991539	-4.703354836	1.999521255	1.236238691	1.588059687	0.682368651	-0.486572266	0.790527344	-0.4765625	890.38	-24.72196903	-55.79699463	-55.86585181	-63
10411	0	0.267028809	-0.16986084	0.096679688	0.998661995	0.02935791	0.038144112	0.018859863	6.675720215	-4.246520996	2.416992188	1.468550134	1.908056123	0.943413703	-0.426757813	0.776611328	-0.557617188	890.5	-21.7627616	-50.94312697	-55.57965302	-63
10412	0	0.256697655	-0.111410141	0.11199379	0.998518944	0.013384819	0.044424057	0.028385162	6.417441368	-2.785253525	2.799844742	0.669571368	2.2222995	1.419958832	-0.347900391	0.762207031	-0.633789063	890.38	-21.55464308	-45.0258822	-53.97678497	-63
10413	0	0.241577148	-0.09576416	0.13482666	0.997736931	-0.015571594	0.052563667	0.038917542	6.039428711	-2.394104004	3.370666504	-0.779167437	2.630167296	1.947345955	-0.239746094	0.778320313	-0.670410156	890.38	-24.91682958	-37.74427973	-51.71420898	-63
10414	0	0.261562347	-0.143923759	0.123180389	0.996047974	-0.034205437	0.062493324	0.053030014	6.539058685	-3.598093987	3.079509735	-1.712528179	3.128788554	2.6549988	-0.098144531	0.827392578	-0.65625	890.56	-30.26183635	-28.59359287	-49.26546378	-64
10415	0	0.25982666	-0.297485352	0.037902832	0.994470596	-0.020998955	0.069084167	0.076244354	6.495666504	-7.437133789	0.947570801	-1.051886967	3.460588215	3.819258788	0.083984375	0.875244141	-0.608886719	890.46	-34.09645179	-17.24380245	-46.03299466	-70
10416	0	0.127101898	-0.345438957	0.135508537	0.99418354	0.000645638	0.050514221	0.095114708	3.177547455	-8.63597393	3.387713432	0.032344609	2.530619305	4.764977276	0.312011719	0.86328125	-0.559326172	890.54	-35.28190548	-6.274460315	-40.61933014	-76
10417	0	0.159545898	-0.563171387	0.178833008	0.996123314	0.06022644	0.006917	0.063739777	3.988647461	-14.07928467	4.470825195	3.015219122	0.346297572	3.19111327	0.512207031	0.786865234	-0.552246094	890.46	-28.85780664	-1.739233361	-35.30918964	-74
10418	0	0.056540489	-0.368768692	0.150883675	0.995210648	0.086485863	-0.039252281	0.023100853	1.41351223	-9.2192173	3.772091866	4.331208768	-1.965752773	1.156889852	0.583251953	0.641845703	-0.684326172	890.44	-19.27022571	-4.782414159	-31.19514194	-83
10419	0	0.007873535	-0.210876465	0.671020508	0.995462418	0.042042732	-0.085353851	-0.000106812	0.196838379	-5.271911621	16.7755127	2.105321336	-4.274158093	-0.005348667	0.519287109	0.523925781	-0.840332031	890.5	-15.01461962	-14.14740845	-28.14425652	-76
10420	0	0.361058235	-0.310107231	0.802627563	0.99100399	0.085465431	-0.102739334	-0.007164001	9.026455879	-7.752680779	20.06568909	4.286131939	-5.152426367	-0.359278074	0.346191406	0.466064453	-0.972167969	890.46	-5.743810683	-25.90222592	-26.79064479	-83
10421	0	0.740661621	0.460021973	0.623657227	0.989513397	0.128670692	-0.064651489	0.01127243	18.51654053	11.50054932	15.59143066	6.456117795	-3.243921536	0.565599961	0.125488281	0.241210938	-1.107421875	890.54	8.354014113	-33.36649139	-25.55694168	-74
10422	0	0.370627403	0.524086952	0.440092087	0.998873711	0.031190872	-0.011650085	0.033776283	9.265685081	13.10217381	11.00230217	1.560128884	-0.582722878	1.68944795	0.022216797	0.037841797	-1.151855469	890.5	9.40317558	-35.30356255	-21.1182522	-82
10423	0	0.265991211	0.292175293	0.234863281	0.998869896	0.040298462	-0.012454033	0.021900177	6.649780273	7.304382324	5.871582031	2.015682381	-0.622936298	1.095421483	0.002197266	0.002441406	-1.159423828	890.46	12.37344814	-37.19857918	-18.39327677	-73
10424	0	0.264334679	0.561628342	0.305089951	0.997784615	0.066117287	0.004772186	0.005477905	6.608366966	14.04070854	7.627248764	3.308306877	0.238785611	0.274097632	-0.030273438	-0.086181641	-1.147216797	890.46	19.37734316	-36.85919741	-17.47459346	-90
10425	0	0.187011719	0.487121582	0.211730957	0.999720573	0.014240265	0.01818943	0.004905701	4.675292969	12.17803955	5.293273926	0.712079444	0.909556069	0.245307839	-0.000976563	-0.215087891	-1.132324219	890.5	20.12781854	-35.09783198	-15.95642075	-84
10426	0	0.159057617	0.220031738	0.036254883	0.999576569	-0.021010399	0.017037392	0.010677338	3.97644043	5.500793457	0.90637207	-1.050668073	0.851989702	0.533942161	0.041748047	-0.198486328	-1.130126953	890.5	16.52931356	-33.64334125	-13.82024179	-75
10427	0	0.12556839	0.034449577	0.163854599	0.999604225	0.003196716	0.013169289	0.024605751	3.139209747	0.861239433	4.096364975	0.159856844	0.658551061	1.230449411	0.071044922	-0.150146484	-1.141601563	890.42	14.86445901	-32.96875322	-10.10811867	-81
10428	0	0.160510063	0.12295723	0.209885597	0.999336243	0.011404037	0.005690575	0.034124374	4.012751579	3.07393074	5.247139931	0.57032805	0.284591694	1.706596277	0.091064453	-0.173339844	-1.132080078	890.56	13.61366131	-33.31584331	-5.412693276	-75
10429	0	0.179626465	0.085571289	0.21282959	0.999191284	0.003869057	-0.001014709	0.039997101	4.490661621	2.139282227	5.320739746	0.193504969	-0.050749146	2.000393984	0.086914063	-0.188964844	-1.136474609	890.46	11.08813166	-34.43054724	-0.071403171	-76
10430	0	0.215079308	0.16509819	0.225597382	0.999233246	0.013661385	-0.004006386	0.036445618	5.376982689	4.127454758	5.63993454	0.683243642	-0.200370439	1.82274618	0.070800781	-0.204101563	-1.137207031	890.5	9.85733269	-35.66487466	4.816484173	-80
10431	0	0.241638184	0.197753906	0.282592773	0.999558449	0.012245178	0.003190041	0.026851654	6.04095459	4.943847656	7.064819336	0.61234886	0.159525462	1.342779946	0.050292969	-0.228027344	-1.134033203	890.46	9.065204317	-35.8346661	8.59948145	-81
10432	0	0.233772278	0.190171242	0.281833649	0.998773575	0.045120239	0.000834465	0.020347595	5.844306946	4.754281044	7.045841217	2.256934395	0.041740311	1.017795744	0.054443359	-0.273193359	-1.127441406	890.56	12.59928208	-36.20469741	11.41159357	-81
10433	0	0.275085449	0.189086914	0.291320801	0.999270439	0.033626556	-0.006331444	0.016921997	6.87713623	4.727172852	7.28302002	1.681736423	-0.316649124	0.846305476	0.031738281	-0.375244141	-1.094238281	890.54	15.22075103	-37.40252887	13.50745407	-83
10434	0	0.29724884	0.238976479	0.481567383	0.999871254	-0.004436493	-0.011621475	0.010064125	7.431221008	5.974411964	12.03918457	-0.221834113	-0.581098559	0.503227728	0.000732422	-0.437011719	-1.084472656	890.54	14.1505055	-39.00602451	14.46725927	-89
10435	0	0.257385254	0.079650879	0.490966797	0.999610901	-0.027819633	-0.001605988	0.001140594	6.434631348	1.991271973	12.27416992	-1.391162058	-0.080309791	0.05703712	-0.020019531	-0.395996094	-1.101318359	890.5	10.93816172	-39.23106758	14.54887266	-92
10436	0	0.198356628	0.094485283	0.269576073	0.999884605	-0.009261131	-0.011131287	-0.004481316	4.95891571	2.362132072	6.739401817	-0.463074298	-0.556585646	-0.224074362	-0.03125	-0.350830078	-1.11328125	890.54	10.54537638	-40.40385636	13.54032587	-92
10437	0	0.240905762	0.076782227	0.26965332	0.999812126	-0.01726532	-0.008421898	0.002357483	6.022644043	1.919555664	6.741333008	-0.863319894	-0.421121188	0.117881506	-0.056152344	-0.33203125	-1.116455078	890.56	8.525965753	-41.41506641	13.6408734	-88
10438	0	0.244050026	-0.027990341	0.327947617	0.999930382	-0.009019852	-0.003486633	0.006658554	6.101250648	-0.69975853	8.198690414	-0.451002946	-0.174335671	0.332935353	-0.074462891	-0.291015625	-1.127685547	890.5	6.912865973	-41.92677715	14.53966103	-87
10439	0	0.251708984	-0.020935059	0.336364746	0.999936104	-0.00478363	0.00067234	0.010166168	6.292724609	-0.523376465	8.409118652	-0.239186569	0.033617729	0.508319144	-0.084716797	-0.27734375	-1.131103516	890.46	5.356282408	-41.98655986	16.07107662	-84
10440	0	0.264857292	-0.042372704	0.311208725	0.999958992	-0.002303123	0.004753113	0.007292747	6.621432304	-1.059317589	7.780218124	-0.11515773	0.237658851	0.364642303	-0.085205078	-0.263671875	-1.132080078	890.54	4.341892644	-41.52627078	17.21589298	-82
10441	0	0.27355957	-0.017089844	0.265258789	0.999915123	0.010932922	0.006997108	0.000766754	6.838989258	-0.427246094	6.631469727	0.546661523	0.349865282	0.038338788	-0.077880859	-0.266357422	-1.132324219	890.42	5.488343539	-40.74808839	17.39148829	-81
10442	0	0.302826881	0.023252487	0.254845619	0.999934196	0.010578156	0.003736496	-0.002149582	7.570672035	0.58131218	6.37114048	0.528919278	0.186828862	-0.107481433	-0.060058594	-0.293701172	-1.122314453	890.56	6.899243613	-40.31146374	17.10073956	-80
10443	0	0.32611084	-0.009033203	0.284118652	0.999995232	-4.19617E-05	0.000115395	-0.002925873	8.152770996	-0.225830078	7.102966309	-0.002098086	0.005769738	-0.146293849	-0.052246094	-0.309814453	-1.118408203	890.56	7.200443241	-40.27539876	16.64142062	-79
10444	0	0.304530144	-0.005507469	0.313789368	0.999978065	0.004660606	-0.001962662	-0.004051208	7.613253593	-0.137686729	7.844734192	0.23303195	-0.098133774	-0.202561842	-0.054443359	-0.309814453	-1.124267578	890.54	8.173139323	-40.45515137	15.97301691	-80
10445	0	0.262329102	0.054626465	0.309936523	0.999964714	0.006847382	-0.001868248	-0.004318237	6.558227539	1.365661621	7.748413086	0.342373018	-0.093413474	-0.215914349	-0.053955078	-0.325439453	-1.116943359	890.56	9.426487508	-40.60879316	15.26160951	-80
10446	0	0.235336304	0.063747406	0.298583031	0.999974251	0.005805969	-0.001127243	-0.003829956	5.883407593	1.59368515	7.464575768	0.290300864	-0.056362618	-0.191499387	-0.055908203	-0.338867188	-1.115722656	890.42	10.50534633	-40.67589836	14.63732652	-81
10447	0	0.236206055	0.07611084	0.293334961	0.999987602	0.004005432	-0.000483513	-0.002838135	5.905151367	1.902770996	7.333374023	0.200272419	-0.024175742	-0.141907314	-0.053222656	-0.350097656	-1.106201172	890.5	11.27225136	-40.68297568	14.17711771	-81
10448	0	0.252179146	0.066109657	0.294406891	0.999995232	-0.000958443	-0.000148773	-0.002749443	6.304478645	1.652741432	7.360172272	-0.047922202	-0.00743867	-0.137472347	-0.052734375	-0.359130859	-1.111328125	890.46	11.45518454	-40.65074134	13.74086407	-81
10449	0	0.267883301	0.048217773	0.301940918	0.999994278	-0.000666618	-0.000221252	-0.003189087	6.69708252	1.205444336	7.548522949	-0.033330977	-0.011062642	-0.159454629	-0.050537109	-0.354736328	-1.108886719	890.5	11.7136126	-40.6149	13.23790096	-81
10450	0	0.271882057	0.054979324	0.303174019	0.99998951	0.002981186	-0.001049042	-0.003095627	6.79705143	1.374483109	7.579350471	0.149059782	-0.052452258	-0.154781846	-0.050292969	-0.356933594	-1.111572266	890.5	12.39695414	-40.67071025	12.72301177	-81
10451	0	0.266052246	0.065490723	0.298339844	0.99998951	0.003417969	-0.001502037	-0.002632141	6.651306152	1.637268066	7.458496094	0.170899032	-0.075102114	-0.131607513	-0.052490234	-0.363525391	-1.108154297	890.54	13.09666724	-40.78383002	12.26054276	-81
10452	0	0.257778168	0.068883896	0.288560867	0.999993324	0.002745628	-0.000896454	-0.001981735	6.444454193	1.722097397	7.214021683	0.137281699	-0.044822785	-0.099086964	-0.049804688	-0.370361328	-1.101806641	890.46	13.64443425	-40.84247934	11.91357427	-81
10453	0	0.24987793	0.072875977	0.287658691	0.999997139	0.001346588	0.0001688	-0.001564026	6.246948242	1.821899414	7.191467285	0.067329455	0.008440024	-0.07820135	-0.049560547	-0.374755859	-1.104248047	890.42	13.96669865	-40.79132378	11.66622928	-81
10454	0	0.250471115	0.071533203	0.298110962	0.999998093	-0.000134468	0.000401497	-0.001416206	6.261777878	1.788330078	7.452774048	-0.006723406	0.020074852	-0.070810344	-0.049560547	-0.379394531	-1.101074219	890.44	14.0983608	-40.71668906	11.45061937	-81
10455	0	0.252746582	0.072875977	0.304016113	0.999999046	0.000331879	-0.000361443	-0.00087738	6.318664551	1.821899414	7.600402832	0.016593936	-0.018072131	-0.043869026	-0.047119141	-0.377197266	-1.104248047	890.54	14.24940423	-40.74050212	11.285919	-81
10456	0	0.256612778	0.077614784	0.301093102	0.999999046	0.000447273	-0.001216888	7.62939E-06	6.415319443	1.940369606	7.527327538	0.022363669	-0.060844438	0.00038147	-0.047119141	-0.377197266	-1.104248047	890.5	14.34971216	-40.88328258	11.21904528	-81
10457	0	0.259155273	0.074829102	0.29284668	0.999998093	-0.000338554	-0.001602173	0.000865936	6.478881836	1.870727539	7.321166992	-0.016927729	-0.080108688	0.043296839	-0.049560547	-0.379394531	-1.104003906	890.46	14.28651304	-41.09271212	11.26432137	-81
10458	0	0.262213707	0.071372986	0.286990166	0.999998093	-0.000582695	-0.000849724	0.00094986	6.555342674	1.784324646	7.174754143	-0.02913476	-0.042486205	0.047492997	-0.054443359	-0.376953125	-1.101074219	890.54	14.16765021	-41.22070724	11.35095186	-81
10459	0	0.266174316	0.067871094	0.285522461	0.999999046	-0.00087738	0.000344276	0.000713348	6.65435791	1.696777344	7.138061523	-0.043869029	0.017213825	0.035667428	-0.056884766	-0.376708984	-1.097900391	890.54	14.00778956	-41.20925785	11.44802978	-81
10460	0	0.267038345	0.062214851	0.292956352	0.999999046	-0.000872612	0.000835419	0.000274658	6.675958633	1.555371284	7.323908806	-0.043630611	0.041770946	0.013732914	-0.056884766	-0.374511719	-1.104003906	890.54	13.87830542	-41.13074556	11.49859809	-81
10461	0	0.263061523	0.065124512	0.298583984	0.999999046	9.53674E-05	0.000691414	-7.62939E-05	6.576538086	1.628112793	7.464599609	0.004768372	0.034570697	-0.003814698	-0.0546875	-0.372558594	-1.104248047	890.54	13.89647654	-41.05809585	11.49242477	-81
10462	0	0.256355286	0.072605133	0.295505524	0.999999046	0.000440598	0.000572205	-3.8147E-06	6.408882141	1.815128326	7.387638092	0.022029879	0.028610232	-0.000190735	-0.052001953	-0.374755859	-1.104248047	890.54	13.94962617	-41.00006269	11.49310723	-81
10463	0	0.254577637	0.070251465	0.294067383	0.999999046	-0.000160217	0.000264168	0.000125885	6.364440918	1.756286621	7.35168457	-0.008010864	0.01320839	0.006294251	-0.052001953	-0.374755859	-1.104248047	890.54	13.92825118	-40.97926452	11.502068	-81
10464	0	0.260601997	0.065451622	0.29672718	0.999999046	-8.4877E-05	3.43323E-05	2.57492E-05	6.515049934	1.63629055	7.418179512	-0.004243851	0.001716614	0.00128746	-0.052246094	-0.374755859	-1.101318359	890.54	13.92985029	-40.9808625	11.48851684	-81
10465	0	0.261657715	0.065063477	0.296020508	0.999999046	0.000530243	0.000145912	-0.000297546	6.541442871	1.626586914	7.400512695	0.026512148	0.007295609	-0.01487732	-0.049804688	-0.374755859	-1.1015625	890.46	14.02963007	-40.96076993	11.43184518	-81
10466	0	0.25921154	0.068155289	0.295413017	0.999999046	0.000587463	2.47955E-05	-0.00038147	6.480288506	1.703882217	7.385325432	0.029373171	0.001239777	-0.019073488	-0.049560547	-0.375	-1.107177734	890.38	14.14629732	-40.95131267	11.35869113	-81
10467	0	0.257019043	0.072143555	0.29486084	0.999999046	0.000541687	-0.000384331	-7.62939E-06	6.425476074	1.803588867	7.371520996	0.027084353	-0.019216539	-0.00038147	-0.049804688	-0.374755859	-1.1015625	890.46	14.23124306	-40.99722331	11.32579128	-81
10468	0	0.258220673	0.076066017	0.293602943	0.999999046	0.00024128	-0.000343323	0.0001297	6.455516815	1.901650429	7.340073586	0.01206398	-0.017166138	0.006484986	-0.049804688	-0.374755859	-1.1015625	890.5	14.26741905	-41.04199148	11.31466983	-81
10469	0	0.261230469	0.071594238	0.292053223	0.999999046	-0.000335693	-9.82285E-05	0.000370026	6.530761719	1.789855957	7.301330566	-0.016784669	-0.004911423	0.018501283	-0.049560547	-0.374755859	-1.104248047	890.54	14.20779492	-41.06607059	11.34842475	-81
10470	0	0.262252808	0.066869736	0.292778015	0.999999046	-0.000137329	0.000242233	0.000213623	6.55632019	1.671743393	7.319450378	-0.006866455	0.012111664	0.010681153	-0.052246094	-0.374755859	-1.101318359	890.46	14.17697949	-41.04772165	11.37245967	-81
10471	0	0.26159668	0.067993164	0.292358398	0.999999046	9.91821E-05	0.000370979	2.28882E-05	6.539916992	1.699829102	7.308959961	0.004959107	0.018548966	0.001144409	-0.049560547	-0.377197266	-1.107177734	890.54	14.18798073	-41.00951297	11.37351773	-81
10472	0	0.258939743	0.069442749	0.295099258	0.999999046	0.000107765	0.000360489	-0.000137329	6.473493576	1.736068726	7.377481461	0.00538826	0.018024445	-0.006866455	-0.047119141	-0.377197266	-1.104248047	890.42	14.2151427	-40.96758479	11.35101603	-81
10473	0	0.258361816	0.070373535	0.293151855	0.999999046	0	0.000588417	-6.48499E-05	6.45904541	1.759338379	7.328796387	0	0.029420854	-0.003242493	-0.047363281	-0.375	-1.1015625	890.54	14.21693588	-40.90205013	11.34791373	-81
10474	0	0.259531021	0.06680584	0.295836449	0.999999046	0.000164032	0.000305176	-0.000160217	6.488275528	1.670145988	7.395911217	0.008201599	0.015258789	-0.008010864	-0.044677734	-0.377197266	-1.104492188	890.5	14.25288216	-40.86498338	11.32080281	-81
10475	0	0.258666992	0.069030762	0.297485352	0.999999046	0.000534058	3.52859E-05	-0.000320435	6.466674805	1.725769043	7.437133789	0.026702883	0.001764298	-0.01602173	-0.047363281	-0.375	-1.104492188	890.46	14.35259474	-40.8529393	11.26034559	-81
10476	0	0.256402969	0.071462631	0.295045853	0.999999046	0.000491142	5.53131E-05	-0.000367165	6.410074234	1.786565781	7.376146317	0.024557115	0.002765656	-0.018358232	-0.044921875	-0.377197266	-1.098632813	890.5	14.45094178	-40.83686199	11.19438514	-81
10477	0	0.257507324	0.072509766	0.295288086	0.999999046	0.000713348	-0.000132561	-0.00018692	6.437683105	1.812744141	7.382202148	0.035667423	-0.006628037	-0.009346009	-0.044677734	-0.379394531	-1.101318359	890.5	14.56173382	-40.84635373	11.14794136	-81
10478	0	0.258291245	0.072723389	0.296153069	0.999999046	0.000514984	-0.000225067	-9.15527E-05	6.457281113	1.818084717	7.403826714	0.025749208	-0.011253358	-0.004577637	-0.047119141	-0.381591797	-1.095214844	890.46	14.64259499	-40.86845092	11.11238688	-81
10479	0	0.258728027	0.074035645	0.293884277	0.999999046	0.000259399	-5.24521E-05	9.15527E-05	6.468200684	1.850891113	7.347106934	0.012969971	-0.002622604	0.004577637	-0.044677734	-0.381835938	-1.098144531	890.46	14.67201027	-40.87642631	11.1102489	-82
10480	0	0.259016037	0.073651314	0.292535782	0.999999046	-0.000304222	4.57764E-05	8.39233E-05	6.475400925	1.841282845	7.313394547	-0.015211106	0.002288818	0.004196167	-0.044433594	-0.384033203	-1.104003906	890.46	14.63481382	-40.87308228	11.11101257	-81
10481	0	0.258300781	0.07232666	0.295166016	0.999999046	-0.000549316	0.000260353	9.53674E-05	6.457519531	1.808166504	7.379150391	-0.027465822	0.013017655	0.004768372	-0.044677734	-0.381835938	-1.101074219	890.5	14.56267715	-40.84596976	11.12191515	-81
10482	0	0.25712204	0.071219444	0.296537399	0.999999046	-0.000713348	0.000547409	0.00012207	6.428050995	1.780486107	7.413434982	-0.035667424	0.027370457	0.006103516	-0.044677734	-0.381835938	-1.098144531	890.46	14.4616562	-40.78740034	11.14801737	-81
10483	0	0.257629395	0.068664551	0.295654297	0.999999046	-0.000228882	0.000226021	0.000217438	6.440734863	1.71661377	7.391357422	-0.011444092	0.011301041	0.010871887	-0.044677734	-0.377197266	-1.104492188	890.5	14.41447095	-40.76692907	11.17577505	-81
10484	0	0.257891655	0.070246696	0.297694206	0.999999046	0.000424385	0.000188828	0.000133514	6.447291374	1.756167412	7.442355156	0.021219254	0.009441376	0.00667572	-0.042480469	-0.379638672	-1.098632813	890.56	14.45063831	-40.74786654	11.19047756	-81
10485	0	0.258056641	0.070251465	0.296569824	0.999999046	0.000511169	-0.000178337	2.28882E-05	6.451416016	1.756286621	7.414245605	0.025558473	-0.008916855	0.001144409	-0.042236328	-0.379638672	-1.1015625	890.42	14.51593681	-40.76611884	11.17524003	-81
10486	0	0.258165359	0.073225975	0.294937134	0.999999046	0.000431061	-0.000148773	5.62668E-05	6.454133987	1.830649376	7.373428345	0.02155304	-0.00743866	0.002813339	-0.042236328	-0.379638672	-1.104492188	890.5	14.56791309	-40.78181148	11.16609293	-81
10487	0	0.256958008	0.072753906	0.293212891	0.999999046	0.000244141	0.000126839	-0.000137329	6.423950195	1.818847656	7.330322266	0.012207031	0.006341934	-0.006866455	-0.044677734	-0.381835938	-1.098144531	890.54	14.60988313	-40.76113019	11.13958288	-81
10488	0	0.2570467	0.072662354	0.293912888	0.999999046	-8.10623E-05	0.000234604	4.48227E-05	6.426167488	1.816558838	7.347822189	-0.004053116	0.011730194	0.002241135	-0.042236328	-0.381835938	-1.101318359	890.46	14.59420803	-40.73353505	11.1438902	-81
10489	0	0.258422852	0.07232666	0.297241211	0.999999046	-0.000404358	8.86917E-05	-3.05176E-05	6.460571289	1.808166504	7.431030273	-0.020217896	0.004434586	-0.001525879	-0.044677734	-0.381835938	-1.104003906	890.42	14.55197663	-40.71969161	11.1318457	-81
10490	0	0.256839752	0.070146561	0.29899025	0.999999046	-0.000450134	-3.8147E-05	-0.000248909	6.420993805	1.753664017	7.474756241	-0.022506715	-0.001907349	-0.01244545	-0.039794922	-0.379638672	-1.1015625	890.54	14.52800857	-40.71329606	11.08328988	-81
10491	0	0.254760742	0.0703125	0.295898438	0.999999046	3.8147E-05	-0.000422478	-0.000293732	6.369018555	1.7578125	7.397460938	0.001907349	-0.021123887	-0.014686585	-0.044921875	-0.377197266	-1.098632813	890.5	14.57341579	-40.74791748	11.01380327	-81
10492	0	0.2561903	0.07231617	0.297445297	0.999999046	0.000164986	-0.000766754	-0.000306129	6.4047575	1.807904243	7.436132431	0.008249284	-0.038337712	-0.015306475	-0.044677734	-0.381835938	-1.101074219	890.54	14.64293874	-40.81997483	10.9296679	-81
10493	0	0.257202148	0.071411133	0.29864502	0.999999046	0.000461578	-0.000803947	-0.000141144	6.430053711	1.78527832	7.466125488	0.023078922	-0.040197378	-0.007057191	-0.044677734	-0.381835938	-1.098144531	890.62	14.73139748	-40.90052267	10.86823656	-81
10494	0	0.258872986	0.072424889	0.292546272	0.999999046	0.000209808	-0.000715256	-6.48499E-05	6.471824646	1.810622215	7.313656807	0.010490418	-0.03576279	-0.003242493	-0.044677734	-0.381835938	-1.104003906	890.56	14.78136714	-40.97330673	10.82121997	-81
10495	0	0.259399414	0.073242188	0.292053223	0.999999046	0.000152588	-0.00033474	-3.43323E-05	6.484985352	1.831054688	7.301330566	0.007629395	-0.016736985	-0.001716614	-0.044433594	-0.381835938	-1.106933594	890.56	14.812063	-41.00470125	10.79346384	-80
10496	0	0.258369446	0.075363159	0.292772293	0.999999046	-0.000138283	3.24249E-05	-3.05176E-05	6.459236145	1.884078979	7.319307327	-0.006914139	0.001621246	-0.001525879	-0.047119141	-0.381591797	-1.101074219	890.5	14.79964169	-40.99533904	10.78077946	-81
10497	0	0.257751465	0.072753906	0.295776367	0.999999046	-0.000556946	6.58035E-05	0.000133514	6.443786621	1.818847656	7.39440918	-0.027847292	0.003290177	0.006675721	-0.047119141	-0.381591797	-1.098144531	890.5	14.72230943	-40.98679729	10.79374869	-81
10498	0	0.258158684	0.072170258	0.296988487	0.999999046	-0.000265121	-0.000268936	0.000216484	6.453967094	1.804256439	7.424712181	-0.013256073	-0.013446808	0.010824204	-0.044677734	-0.379638672	-1.104248047	890.56	14.67856967	-41.01747466	10.80591041	-81
10499	0	0.258239746	0.071533203	0.294799805	0.999999046	-1.14441E-05	-0.000430107	0.000217438	6.455993652	1.788330078	7.369995117	-0.000572205	-0.021505357	0.010871888	-0.044677734	-0.379394531	-1.098388672	890.5	14.66755491	-41.06583101	10.812418	-81
10500	0	0.259439468	0.072328568	0.293540001	0.999999046	0.000151634	-0.000570297	0.000128746	6.48598671	1.808214188	7.338500023	0.007581711	-0.028514864	0.006437302	-0.047119141	-0.381591797	-1.098144531	890.46	14.68713221	-41.12701004	10.8007262	-80
10501	0	0.259521484	0.07244873	0.29284668	0.999999046	0.000125885	-0.000491142	1.52588E-05	6.488037109	1.811218262	7.321166992	0.006294251	-0.024557115	0.000762939	-0.049560547	-0.377197266	-1.101318359	890.6	14.7125791	-41.17597537	10.77506054	-81
10502	0	0.260178566	0.070988655	0.293365479	0.999999046	8.58307E-05	-0.000455856	-1.90735E-05	6.504464149	1.774716377	7.334136963	0.004291535	-0.022792817	-0.000953674	-0.052001953	-0.379150391	-1.100830078	890.56	14.73560649	-41.21989357	10.74614232	-80
10503	0	0.260986328	0.071533203	0.291564941	0.999999046	0.000144958	-0.000227928	2.67029E-05	6.524658203	1.788330078	7.289123535	0.007247925	-0.011396408	0.001335144	-0.049560547	-0.379394531	-1.104003906	890.5	14.75493383	-41.23982356	10.73283665	-81
10504	0	0.260452271	0.072275162	0.292645454	0.999999046	9.44138E-05	-0.000196457	-7.62939E-06	6.511306763	1.806879044	7.31613636	0.004720688	-0.009822846	-0.00038147	-0.052001953	-0.379150391	-1.100830078	890.46	14.77079932	-41.25513711	10.71593795	-80
10505	0	0.25994873	0.074279785	0.291015625	0.999999046	0.000202179	-2.86102E-06	7.62939E-05	6.498718262	1.856994629	7.275390625	0.010108948	-0.000143051	0.003814697	-0.052001953	-0.379394531	-1.103759766	890.54	14.78584873	-41.25133985	10.71887464	-80
10506	0	0.260632515	0.073138237	0.295255661	0.999999046	-0.000322342	-5.34058E-05	2.67029E-05	6.515812874	1.828455925	7.381391525	-0.016117096	-0.002670288	0.001335144	-0.052001953	-0.379394531	-1.103759766	890.38	14.74670369	-41.2514887	10.71276869	-81
10507	0	0.259277344	0.069946289	0.294067383	0.999999046	-5.34058E-05	-0.000300407	-6.10352E-05	6.481933594	1.748657227	7.35168457	-0.002670288	-0.015020371	-0.003051758	-0.049560547	-0.381591797	-1.100830078	890.56	14.75285935	-41.27626541	10.68458762	-81
10508	0	0.258283615	0.072570801	0.290073395	0.999999046	0.000702858	-0.000465393	-3.52859E-05	6.457090378	1.81427002	7.251834869	0.035142903	-0.023269656	-0.001764298	-0.054199219	-0.379150391	-1.103759766	890.5	14.8473309	-41.31993279	10.65338288	-81
10509	0	0.261047363	0.074645996	0.291687012	0.999999046	0.00050354	-0.000529289	9.15527E-05	6.526184082	1.866149902	7.292175293	0.025177004	-0.026464465	0.004577637	-0.054443359	-0.379150391	-1.097900391	890.5	14.90829625	-41.37427661	10.63848422	-80
10510	0	0.262712479	0.073426247	0.291822433	0.999999046	5.14984E-05	-0.000198364	2.28882E-05	6.567811966	1.835656166	7.295560837	0.002574921	-0.009918213	0.001144409	-0.054199219	-0.381347656	-1.09765625	890.54	14.91545389	-41.38989866	10.62669172	-80
10511	0	0.262329102	0.073364258	0.289001465	0.999999046	3.05176E-05	0.000119209	3.8147E-05	6.558227539	1.834106445	7.225036621	0.001525879	0.005960464	0.001907349	-0.056640625	-0.381347656	-1.100585938	890.54	14.91036441	-41.37083202	10.6295814	-81
10512	0	0.259335518	0.074215889	0.290156364	0.999999046	-0.000105858	0.000278473	4.1008E-05	6.483387947	1.855397224	7.253909111	-0.005292893	0.013923645	0.0020504	-0.052001953	-0.379394531	-1.103759766	890.46	14.88518237	-41.33408672	10.63892122	-81
10513	0	0.259338379	0.073059082	0.292175293	0.999999046	-0.000160217	0.000412941	0.000221252	6.483459473	1.826477051	7.304382324	-0.008010865	0.02064705	0.011062623	-0.054199219	-0.383544922	-1.097412109	890.46	14.83262044	-41.28757637	10.68086862	-81
10514	0	0.260103226	0.071628571	0.294670105	0.999999046	-0.000368118	0.000148773	0.000113487	6.502580643	1.790714264	7.366752625	-0.018405915	0.00743866	0.005674362	-0.051757813	-0.381591797	-1.103759766	890.56	14.77330109	-41.26696386	10.69624625	-81
10515	0	0.259887695	0.071411133	0.294311523	0.999999046	-2.28882E-05	2.38419E-05	-8.39233E-05	6.497192383	1.78527832	7.357788086	-0.001144409	0.001192093	-0.004196167	-0.052001953	-0.379150391	-1.100830078	890.54	14.7756935	-41.25425499	10.67773916	-81
10516	0	0.260472298	0.072295189	0.292372704	0.999999046	0.000367165	-0.000335693	-4.57764E-05	6.511807442	1.807379723	7.309317589	0.018358231	-0.016784669	-0.002288818	-0.054199219	-0.381347656	-1.09765625	890.46	14.82814907	-41.28240995	10.65125356	-81
10517	0	0.260986328	0.073364258	0.291687012	0.999999046	0.000411987	-0.000121117	-6.48499E-05	6.524658203	1.834106445	7.292175293	0.020599366	-0.006055832	-0.003242493	-0.054199219	-0.381347656	-1.09765625	890.54	14.88200272	-41.28616296	10.63020646	-81
10518	0	0.261108398	0.074004173	0.29156208	0.999999046	0.000486374	9.15527E-05	4.1008E-05	6.527709961	1.850104332	7.28905201	0.024318696	0.004577637	0.0020504	-0.054199219	-0.383789063	-1.103271484	890.5	14.92852411	-41.26941859	10.63306233	-81
10519	0	0.261291504	0.07611084	0.29107666	0.999999046	0.000267029	0.000103951	-1.14441E-05	6.532287598	1.902770996	7.276916504	0.013351441	0.005197525	-0.000572205	-0.051757813	-0.383789063	-1.100585938	890.5	14.95474295	-41.2497118	10.62868823	-81
10520	0	0.259215355	0.074500084	0.288770676	0.999999046	-0.000220299	0.00034523	-7.34329E-05	6.480383873	1.862502098	7.219266891	-0.011014939	0.017261506	-0.003671646	-0.051757813	-0.383789063	-1.100585938	890.44	14.92487325	-41.201438	10.62475376	-81
10521	0	0.258850098	0.073852539	0.290588379	0.999999046	-0.000370026	0.000294685	0.000232697	6.471252441	1.846313477	7.264709473	-0.018501283	0.014734269	0.011634827	-0.051757813	-0.383789063	-1.100585938	890.5	14.84944635	-41.16770682	10.66396853	-81
10522	0	0.261394501	0.072473526	0.296532631	0.999999046	1.90735E-05	0.000219345	6.10352E-05	6.534862518	1.81183815	7.413315773	0.000953674	0.010967255	0.003051758	-0.052001953	-0.379150391	-1.100830078	890.42	14.83697443	-41.13711735	10.67455577	-81
10523	0	0.261352539	0.07434082	0.295227051	0.999999046	-4.95911E-05	0.00011158	-2.28882E-05	6.533813477	1.858520508	7.38067627	-0.002479553	0.005578995	-0.001144409	-0.049560547	-0.381591797	-1.097900391	890.42	14.82744076	-41.11590154	10.66917206	-81
10524	0	0.25823307	0.072370529	0.290530205	0.999999046	0.000164986	0.000106812	-0.000114441	6.455826759	1.809263229	7.263255119	0.008249283	0.005340576	-0.005722046	-0.049316406	-0.383789063	-1.097900391	890.54	14.85133686	-41.09248468	10.65039207	-81
10525	0	0.258544922	0.072875977	0.292724609	0.999999046	0.000427246	-0.000136375	-0.000102997	6.463623047	1.821899414	7.318115234	0.021362305	-0.006818772	-0.005149841	-0.049560547	-0.381591797	-1.100830078	890.54	14.91027128	-41.09622867	10.62330537	-81
10526	0	0.260074615	0.074523926	0.295152664	0.999999046	0.000534058	-0.000179291	-6.48499E-05	6.501865387	1.863098145	7.378816605	0.026702882	-0.008964539	-0.003242493	-0.051757813	-0.385986328	-1.100341797	890.46	14.97878972	-41.1056995	10.60072091	-81
10527	0	0.260192871	0.075317383	0.292541504	0.999999046	0.000270844	-3.71933E-05	-0.000144958	6.504821777	1.88293457	7.313537598	0.013542176	-0.001859665	-0.007247925	-0.049316406	-0.385986328	-1.09765625	890.46	15.02120318	-41.09700115	10.57189228	-81
10528	0	0.25970459	0.074207306	0.292176247	0.999999046	-5.43594E-05	3.05176E-05	0.000113487	6.492614746	1.855182648	7.304406166	-0.002717972	0.001525879	0.005674362	-0.051757813	-0.383789063	-1.100585938	890.5	14.9995533	-41.08843388	10.58333754	-81
10529	0	0.25970459	0.075866699	0.291503906	0.999999046	-3.43323E-05	0.000321388	0.000133514	6.492614746	1.89666748	7.287597656	-0.001716614	0.016069413	0.00667572	-0.049316406	-0.383789063	-1.100830078	890.54	14.97080468	-41.0482295	10.60918879	-81
10530	0	0.259902	0.075409889	0.294788361	0.999999046	-0.000244141	0.000484467	9.82285E-05	6.497550011	1.885247231	7.369709015	-0.012207032	0.024223329	0.004911423	-0.049316406	-0.383789063	-1.100830078	890.46	14.91723565	-40.9888055	10.6363865	-81
10531	0	0.258972168	0.073303223	0.295349121	0.999999046	-0.00012207	0.000237465	0.000179291	6.474304199	1.832580566	7.383728027	-0.006103516	0.011873245	0.008964539	-0.049316406	-0.381591797	-1.103759766	890.5	14.87608381	-40.95898548	10.66548137	-81
10532	0	0.25928688	0.073809624	0.293475151	1	-3.05176E-05	3.14713E-05	-1.23978E-05	6.482172012	1.845240593	7.336878777	-0.001525879	0.001573563	-0.000619888	-0.049316406	-0.383789063	-1.097900391	890.5	14.86904756	-40.94629637	10.65922752	-81
10533	0	0.258911133	0.072631836	0.291748047	0.999999046	3.8147E-05	-0.000166893	0.000141144	6.47277832	1.815795898	7.293701172	0.001907349	-0.00834465	0.00705719	-0.044433594	-0.384033203	-1.104003906	890.54	14.86006074	-40.96010953	10.66735493	-81
10534	0	0.260189056	0.072458267	0.293485641	0.999999046	0.000333786	-0.000108719	5.62668E-05	6.50472641	1.81145668	7.337141037	0.016689301	-0.005435944	0.002813339	-0.049560547	-0.383789063	-1.094970703	890.5	14.89146922	-40.96499161	10.66586797	-81
10535	0	0.260864258	0.075439453	0.291381836	0.999999046	0.000354767	0.000138283	1.52588E-05	6.521606445	1.885986328	7.284545898	0.017738343	0.006914139	0.000762939	-0.047119141	-0.383789063	-1.097900391	890.5	14.92297242	-40.94138306	10.66753764	-81
10536	0	0.259138107	0.075149536	0.292070389	0.999999046	2.76566E-05	0.00021553	-0.000172615	6.478452682	1.878738403	7.30175972	0.001382828	0.01077652	-0.008630753	-0.044433594	-0.386230469	-1.097900391	890.42	14.93306267	-40.90367079	10.6450573	-81
10537	0	0.257446289	0.074951172	0.293701172	0.999999046	5.34058E-05	0.000134468	-7.62939E-06	6.436157227	1.873779297	7.342529297	0.002670288	0.006723404	-0.00038147	-0.049560547	-0.383789063	-1.094970703	890.56	14.93231389	-40.87969715	10.64340175	-81
10538	0	0.259441376	0.07382679	0.293945313	0.999999046	0.000131607	8.01086E-05	3.43323E-05	6.486034393	1.845669746	7.348632813	0.006580353	0.004005432	0.001716614	-0.049316406	-0.385986328	-1.100585938	890.54	14.93779344	-40.86296309	10.64578826	-81
10539	0	0.259338379	0.075439453	0.293884277	0.999999046	0.00025177	0.000103951	4.57764E-05	6.483459473	1.885986328	7.347106934	0.012588501	0.005197525	0.002288818	-0.049560547	-0.383789063	-1.094970703	890.38	14.95534261	-40.84389913	10.65066605	-81
10540	0	0.259589195	0.075868607	0.293899536	0.999999046	-0.000130653	-7.62939E-06	0.000128746	6.489729881	1.896715164	7.347488403	-0.006532669	-0.00038147	0.006437302	-0.046875	-0.386230469	-1.09765625	890.5	14.92400775	-40.83962549	10.66360812	-81
10541	0	0.257263184	0.075927734	0.290893555	0.999999046	-7.62939E-05	9.63211E-05	0.000156403	6.43157959	1.898193359	7.272338867	-0.003814697	0.004816055	0.007820129	-0.046875	-0.386230469	-1.09765625	890.5	14.89370468	-40.82464551	10.68458553	-81
10542	0	0.259305954	0.075557709	0.291441917	0.999999046	-0.00038147	0.000320435	0.000224113	6.482648849	1.888942719	7.286047935	-0.019073487	0.016021729	0.011205674	-0.044433594	-0.386230469	-1.097900391	890.54	14.81636353	-40.78688082	10.72418986	-81
10543	0	0.260131836	0.073730469	0.296875	0.999999046	-0.000198364	0.000195503	0.0001297	6.503295898	1.843261719	7.421875	-0.009918213	0.009775162	0.006484985	-0.047119141	-0.383789063	-1.097900391	890.5	14.77212351	-40.76011188	10.74478593	-81
10544	0	0.257594109	0.073484421	0.296149254	0.999999046	-0.000136375	0.0001297	-1.23978E-05	6.439852715	1.837110519	7.403731346	-0.006818771	0.006484985	-0.000619888	-0.046875	-0.384033203	-1.100830078	890.46	14.75013054	-40.7363649	10.74203063	-81
10545	0	0.256103516	0.072937012	0.293579102	0.999999046	0.000442505	-0.00026989	-7.62939E-06	6.402587891	1.823425293	7.339477539	0.022125245	-0.013494492	-0.00038147	-0.044677734	-0.384033203	-1.095214844	890.5	14.80398953	-40.75696003	10.72480629	-81
10546	0	0.258886337	0.076008797	0.294530869	0.999999046	0.000524521	-0.000425339	-1.14441E-05	6.472158432	1.900219917	7.363271713	0.026226046	-0.021266939	-0.000572205	-0.046875	-0.384033203	-1.100830078	890.54	14.87166043	-40.79461807	10.70020336	-81
10547	0	0.25982666	0.075805664	0.293762207	0.999999046	0.00025177	-0.00026989	-0.000118256	6.495666504	1.895141602	7.344055176	0.012588501	-0.013494492	-0.005912781	-0.046875	-0.386230469	-1.09765625	890.5	14.91443704	-40.81192155	10.6666933	-81
10548	0	0.258318901	0.075342178	0.292302132	0.999999046	0.000290871	-0.000179291	-1.62125E-05	6.457972527	1.883554459	7.307553291	0.014543534	-0.008964539	-0.000810623	-0.046875	-0.386230469	-1.100585938	890.36	14.94968133	-40.8221973	10.65116733	-81
10549	0	0.257751465	0.075805664	0.29284668	0.999999046	0.000247955	-0.000132561	2.67029E-05	6.443786621	1.895141602	7.321166992	0.012397766	-0.006628037	0.001335144	-0.046875	-0.388427734	-1.100585938	890.42	14.97475803	-40.82852526	10.64415882	-81
10550	0	0.258016586	0.077646255	0.293349266	0.999999046	-6.86646E-05	2.67029E-05	8.39233E-05	6.450414658	1.941156387	7.333731651	-0.003433228	0.001335144	0.004196167	-0.049316406	-0.385986328	-1.103515625	890.38	14.95415222	-40.81885227	10.65092705	-81
10551	0	0.259277344	0.07611084	0.294494629	0.999999046	-0.000217438	-6.38962E-05	0.000125885	6.481933594	1.902770996	7.362365723	-0.010871887	-0.003194809	0.006294251	-0.044433594	-0.386230469	-1.100830078	890.5	14.91482599	-40.82041763	10.66071427	-81
10552	0	0.258785248	0.075366974	0.295531273	0.999999046	-7.72476E-05	-0.000116348	0.000132561	6.469631195	1.884174347	7.388281822	-0.003862381	-0.005817413	0.006628037	-0.044433594	-0.386230469	-1.097900391	890.54	14.89223173	-40.82790917	10.66981172	-81
10553	0	0.257141113	0.074951172	0.292663574	0.999999046	-0.000183105	-0.000349998	3.43323E-05	6.428527832	1.873779297	7.316589355	-0.009155274	-0.017499924	0.001716614	-0.046875	-0.386230469	-1.100585938	890.42	14.87285361	-40.85833988	10.65533483	-81
10554	0	0.259672165	0.072688103	0.295497894	0.999999046	0.000106812	-0.000425339	5.62668E-05	6.491804123	1.817202568	7.387447357	0.005340576	-0.021266938	0.002813339	-0.046875	-0.386230469	-1.100585938	890.46	14.8863393	-40.89773282	10.64116396	-81
10555	0	0.260131836	0.076721191	0.29296875	0.999999046	0.000637054	-0.000395775	3.05176E-05	6.503295898	1.918029785	7.32421875	0.031852725	-0.019788744	0.001525879	-0.046875	-0.388427734	-1.094726563	890.54	14.9624617	-40.93310581	10.62495023	-81
10556	0	0.259084702	0.077502251	0.290650368	0.999999046	1.04904E-05	-0.000267029	1.90735E-05	6.477117538	1.937556267	7.266259193	0.000524521	-0.013351441	0.000953674	-0.049316406	-0.385986328	-1.100585938	890.56	14.96479598	-40.95391175	10.61067675	-81
10557	0	0.258666992	0.075317383	0.293579102	0.999999046	-5.34058E-05	-0.000227928	6.10352E-05	6.466674805	1.88293457	7.339477539	-0.002670288	-0.011396408	0.003051758	-0.049316406	-0.385986328	-1.103515625	890.56	14.95475901	-40.97156902	10.60396242	-81
10558	0	0.260457993	0.075070381	0.293833733	0.999999046	8.7738E-05	-0.000360489	0.000124931	6.511449814	1.876759529	7.345843315	0.004386902	-0.018024445	0.006246567	-0.046875	-0.388427734	-1.09765625	890.56	14.95812367	-41.00578967	10.60269523	-81
10559	0	0.258972168	0.076660156	0.290649414	0.999999046	0.000221252	-0.000227928	1.52588E-05	6.474304199	1.916503906	7.266235352	0.011062622	-0.011396408	0.000762939	-0.049316406	-0.388427734	-1.097412109	890.54	14.98406889	-41.02210286	10.59030297	-81
10560	0	0.258923531	0.079403877	0.288480759	0.999999046	-4.86374E-05	-1.90735E-05	0.000167847	6.473088264	1.985096931	7.212018967	-0.00243187	-0.000953674	0.008392334	-0.049316406	-0.388427734	-1.097412109	890.5	14.95934479	-41.01986513	10.6082628	-81
10561	0	0.261352539	0.074584961	0.29510498	0.999999046	-0.00043869	6.19888E-05	0.000141144	6.533813477	1.864624023	7.377624512	-0.02193451	0.003099442	0.00705719	-0.049316406	-0.385986328	-1.100585938	890.5	14.89032009	-41.00782651	10.6247684	-81
10562	0	0.258834839	0.07339859	0.294834137	0.999999046	-0.000173569	-0.000146866	6.00815E-05	6.470870972	1.834964752	7.370853424	-0.008678436	-0.007343292	0.003004074	-0.049316406	-0.385986328	-1.100585938	890.38	14.86469039	-41.01642685	10.62152832	-81
10563	0	0.256469727	0.074279785	0.29119873	0.999999046	0.0001297	-0.000182152	0.000144958	6.411743164	1.856994629	7.279968262	0.006484985	-0.00910759	0.007247925	-0.046875	-0.386230469	-1.100585938	890.54	14.86652409	-41.03135111	10.62931636	-81
10564	0	0.259712219	0.076478004	0.29468441	0.999999046	0.000216484	-0.000314713	0.000189781	6.492805481	1.911950111	7.367110252	0.010824204	-0.015735627	0.00948906	-0.049316406	-0.385986328	-1.09765625	890.6	14.87744407	-41.06218458	10.6387024	-81
10565	0	0.261474609	0.076660156	0.293823242	0.999999046	0.000133514	-0.000311852	8.01086E-05	6.536865234	1.916503906	7.345581055	0.00667572	-0.015592575	0.004005432	-0.051757813	-0.385986328	-1.097412109	890.46	14.88946149	-41.08946836	10.63204594	-81
10566	0	0.260508537	0.075779915	0.29064846	0.999999046	-4.76837E-05	-0.000106812	-1.14441E-05	6.512713432	1.894497871	7.26621151	-0.002384186	-0.005340576	-0.000572205	-0.051757813	-0.385986328	-1.100341797	890.54	14.88437914	-41.09140736	10.61959286	-82
10567	0	0.258300781	0.075622559	0.291870117	0.999999046	-3.8147E-06	-8.29697E-05	0.000106812	6.457519531	1.890563965	7.29675293	-0.000190735	-0.004148483	0.005340576	-0.051757813	-0.385986328	-1.100341797	890.38	14.87234053	-41.094121	10.62549016	-81
10568	0	0.259708405	0.077334404	0.291948318	0.999999046	-5.24521E-05	0	0.0001297	6.492710114	1.9333601	7.298707962	-0.002622604	0	0.006484985	-0.051757813	-0.385986328	-1.097412109	890.46	14.85055385	-41.08828798	10.63836326	-81
10569	0	0.261047363	0.074523926	0.292907715	0.999999046	-0.000141144	0.000107765	0.000133514	6.526184082	1.863098145	7.322692871	-0.00705719	0.00538826	0.00667572	-0.051757813	-0.385986328	-1.100341797	890.5	14.81545363	-41.07064252	10.65575443	-81
10570	0	0.260577202	0.075531006	0.292678833	0.999999046	-0.00022316	-5.72205E-05	0.000132561	6.514430046	1.888275146	7.316970825	-0.01115799	-0.002861023	0.006628037	-0.049316406	-0.385986328	-1.09765625	890.42	14.77531727	-41.07124569	10.66702574	-81
10571	0	0.260742188	0.072692871	0.292541504	0.999999046	3.8147E-06	9.53674E-07	5.72205E-05	6.518554688	1.817321777	7.313537598	0.000190735	4.76837E-05	0.002861023	-0.049316406	-0.385986328	-1.09765625	890.54	14.76686484	-41.06323792	10.66952193	-81
10572	0	0.260322571	0.075350761	0.292906761	0.999999046	0.000267982	9.53674E-06	-5.05447E-05	6.50806427	1.883769035	7.322669029	0.013399124	0.000476837	-0.002527237	-0.051757813	-0.385986328	-1.100341797	890.54	14.79891962	-41.0511179	10.65594904	-81
10573	0	0.259643555	0.076416016	0.293151855	0.999999046	0.000175476	-2.57492E-05	2.67029E-05	6.491088867	1.910400391	7.328796387	0.008773804	-0.00128746	0.001335144	-0.051757813	-0.385986328	-1.097412109	890.6	14.81392128	-41.04511675	10.65258841	-81
10574	0	0.258625031	0.076137543	0.291279793	0.999999046	0.000282288	-9.53674E-06	4.48227E-05	6.465625763	1.903438568	7.28199482	0.01411438	-0.000476837	0.002241135	-0.051757813	-0.385986328	-1.094482422	890.38	14.83911221	-41.0378282	10.65261359	-81
10575	0	0.260314941	0.074279785	0.291931152	0.999999046	0.000209808	2.76566E-05	-4.19617E-05	6.507873535	1.856994629	7.298278809	0.010490418	0.001382828	-0.002098084	-0.049316406	-0.385986328	-1.100585938	890.5	14.86337995	-41.02391018	10.64012236	-82
10576	0	0.260108948	0.076682091	0.291851044	0.999999046	0.000369072	5.72205E-05	7.9155E-05	6.502723694	1.917052269	7.296276093	0.018453598	0.002861023	0.003957749	-0.049316406	-0.385986328	-1.094726563	890.56	14.8935836	-41.01029656	10.64717454	-82
10577	0	0.258972168	0.078186035	0.291381836	0.999999046	9.53674E-05	0.000256538	4.95911E-05	6.474304199	1.954650879	7.284545898	0.004768372	0.01282692	0.002479553	-0.049316406	-0.388427734	-1.097412109	890.54	14.89037943	-40.97372253	10.65812976	-82
10578	0	0.259562492	0.075957298	0.291682243	0.999999046	-0.000200272	0.000362396	0.000163078	6.489062309	1.898932457	7.292056084	-0.010013581	0.018119813	0.008153916	-0.046875	-0.388427734	-1.100585938	890.54	14.83977023	-40.92878395	10.689398	-82
10579	0	0.261047363	0.073608398	0.296630859	0.999999046	-0.000175476	0.000252724	2.28882E-05	6.526184082	1.840209961	7.415771484	-0.008773804	0.012636185	0.001144409	-0.046875	-0.388427734	-1.09765625	890.5	14.80813683	-40.89183015	10.69666019	-82
10580	0	0.258522987	0.075629234	0.292392731	0.999999046	3.14713E-05	0.000253677	-1.14441E-05	6.463074684	1.890730858	7.309818268	0.001573563	0.012683869	-0.000572205	-0.046875	-0.388427734	-1.094726563	890.5	14.80355392	-40.8537621	10.69932899	-82
10581	0	0.256835938	0.075866699	0.293395996	0.999999046	0.000217438	1.23978E-05	0.000125885	6.420898438	1.89666748	7.334899902	0.010871887	0.000619888	0.006294251	-0.051513672	-0.388183594	-1.100097656	890.46	14.81328953	-40.84635646	10.71162216	-82
10582	0	0.259716034	0.076112747	0.296481133	0.999999046	0.000127792	-7.62939E-06	0.0001297	6.492900848	1.90281868	7.412028313	0.006389618	-0.00038147	0.006484985	-0.046875	-0.388427734	-1.09765625	890.46	14.81290754	-40.84120735	10.72385624	-81
10583	0	0.260070801	0.07623291	0.29309082	0.999999046	0.000152588	0.000180244	-3.05176E-05	6.50177002	1.905822754	7.327270508	0.007629395	0.009012222	-0.001525879	-0.046875	-0.388427734	-1.09765625	890.46	14.82602547	-40.81060117	10.71972305	-82
10584	0	0.257884979	0.076887131	0.293464661	0.999999046	9.05991E-05	0.000171661	1.81198E-05	6.447124481	1.922178268	7.336616516	0.004529953	0.008583069	0.000905991	-0.044189453	-0.390625	-1.097412109	890.54	14.82770581	-40.78233167	10.72323337	-82
10585	0	0.257385254	0.077331543	0.293823242	0.999999046	-2.67029E-05	0.000134468	4.57764E-05	6.434631348	1.933288574	7.345581055	-0.001335144	0.006723404	0.002288818	-0.046875	-0.388427734	-1.09765625	890.46	14.81437197	-40.75892784	10.72827288	-82
10586	0	0.258472443	0.075826645	0.294017792	0.999999046	-7.62939E-06	0.000204086	4.57764E-05	6.461811066	1.895666122	7.350444794	-0.00038147	0.010204315	0.002288818	-0.046875	-0.388427734	-1.09765625	890.46	14.80150008	-40.72780491	10.73606736	-82
10587	0	0.260070801	0.07598877	0.295959473	0.999999046	3.43323E-05	0.000226021	8.39233E-05	6.50177002	1.899719238	7.398986816	0.001716614	0.011301041	0.004196167	-0.044433594	-0.388427734	-1.09765625	890.42	14.78926577	-40.69536985	10.75013921	-82
10588	0	0.259157181	0.077490807	0.294055939	0.999999046	1.43051E-05	4.19617E-05	0.000137329	6.47892952	1.937270164	7.351398468	0.000715256	0.002098084	0.006866455	-0.046875	-0.388427734	-1.09765625	890.46	14.77442981	-40.68491479	10.76501728	-82
10589	0	0.258178711	0.076538086	0.29510498	0.999999046	-0.000118256	-2.57492E-05	9.53674E-05	6.454467773	1.913452148	7.377624512	-0.005912781	-0.00128746	0.004768372	-0.044433594	-0.386230469	-1.097900391	890.46	14.75016823	-40.68070052	10.76987319	-82
10590	0	0.257903099	0.075564384	0.294010162	0.999999046	-2.67029E-05	0.000181198	9.53674E-05	6.447577477	1.889109612	7.350254059	-0.001335144	0.009059906	0.004768372	-0.046875	-0.388427734	-1.100585938	890.54	14.73124097	-40.65355451	10.78372919	-82
10591	0	0.258056641	0.077209473	0.294555664	0.999999046	-4.19617E-05	0.000103951	0.000144958	6.451416016	1.930236816	7.363891602	-0.002098084	0.005197525	0.007247925	-0.042236328	-0.386230469	-1.094970703	890.38	14.70792154	-40.63639638	10.80150722	-82
10592	0	0.257956505	0.077780724	0.294553757	0.999999046	-5.62668E-05	0.000219345	0.000175476	6.448912621	1.944518089	7.363843918	-0.002813339	0.010967255	0.008773804	-0.044433594	-0.386230469	-1.100830078	890.6	14.67737135	-40.60731162	10.82711156	-81
10593	0	0.258178711	0.074707031	0.29473877	0.999999046	-6.48499E-05	9.63211E-05	0.000164032	6.454467773	1.867675781	7.368469238	-0.003242493	0.004816055	0.008201599	-0.044433594	-0.388427734	-1.09765625	890.56	14.64998356	-40.59154811	10.8486276	-82
10594	0	0.259122849	0.074705124	0.295590401	0.999999046	0.000177383	-6.29425E-05	1.90735E-05	6.478071213	1.867628098	7.389760017	0.008869171	-0.003147125	0.000953674	-0.044433594	-0.386230469	-1.100830078	890.44	14.66805715	-40.58927166	10.84053767	-82
10595	0	0.258483887	0.077453613	0.293457031	0.999999046	0.000118256	-2.57492E-05	8.39233E-05	6.462097168	1.936340332	7.336425781	0.005912781	-0.00128746	0.004196167	-0.044433594	-0.388427734	-1.100585938	890.46	14.67244842	-40.58481181	10.84461597	-82
10596	0	0.256315231	0.077784538	0.29287529	0.999999046	4.76837E-06	0.000205994	0.000113487	6.407880783	1.944613457	7.321882248	0.000238419	0.010299683	0.005674362	-0.044433594	-0.386230469	-1.103759766	890.54	14.65547913	-40.55550714	10.85968457	-82
10597	0	0.258483887	0.075134277	0.294372559	0.999999046	-0.000198364	0.0002985	0.000259399	6.462097168	1.878356934	7.359313965	-0.009918213	0.014925004	0.012969971	-0.044433594	-0.386230469	-1.094970703	890.36	14.59914219	-40.52022005	10.90221808	-82
10598	0	0.259140968	0.075492859	0.294922829	0.999999046	-0.000125885	0.000335693	3.05176E-05	6.478524208	1.887321472	7.373070717	-0.006294251	0.016784668	0.001525879	-0.041992188	-0.386474609	-1.103759766	890.5	14.57197242	-40.4742541	10.91079536	-82
10599	0	0.256835938	0.075561523	0.294067383	0.999999046	-0.000133514	0.00017643	1.90735E-05	6.420898438	1.889038086	7.35168457	-0.00667572	0.008821487	0.000953674	-0.041992188	-0.386230469	-1.100830078	890.5	14.54901579	-40.44564734	10.91256507	-82
10600	0	0.25557518	0.073824883	0.295274734	0.999999046	0.000235558	-6.67572E-05	0.000240326	6.389379501	1.845622063	7.381868362	0.011777878	-0.00333786	0.012016297	-0.041992188	-0.386230469	-1.097900391	890.5	14.55334669	-40.45034672	10.93780788	-82
10601	0	0.25769043	0.077148438	0.294006348	0.999999046	0.000263214	-5.62668E-05	3.8147E-05	6.442260742	1.928710938	7.350158691	0.013160706	-0.002813339	0.001907349	-0.039550781	-0.388671875	-1.097900391	890.46	14.57988532	-40.44811732	10.93488232	-82
10602	0	0.258217812	0.075940132	0.294730186	0.999999046	0.000146866	5.72205E-06	2.86102E-06	6.45544529	1.898503304	7.368254662	0.007343292	0.000286102	0.000143051	-0.041992188	-0.388671875	-1.097900391	890.5	14.59497494	-40.43805697	10.92905018	-82
10603	0	0.256652832	0.07611084	0.294433594	0.999999046	0.00018692	-7.53403E-05	3.8147E-05	6.416320801	1.902770996	7.360839844	0.009346008	-0.003767014	0.001907349	-0.041992188	-0.386230469	-1.100830078	890.5	14.61339568	-40.43801495	10.92242327	-82
10604	0	0.257557869	0.075407982	0.295830727	0.999999046	0.000145912	-8.39233E-05	0.000167847	6.438946724	1.885199547	7.395768166	0.007295609	-0.004196167	0.008392334	-0.039550781	-0.388671875	-1.103759766	890.46	14.61507681	-40.44268305	10.93499855	-81
10605	0	0.256835938	0.076904297	0.295898438	0.999999046	0.00019455	5.43594E-05	-3.05176E-05	6.420898438	1.922607422	7.397460938	0.009727478	0.002717972	-0.001525879	-0.041992188	-0.386230469	-1.100830078	890.46	14.6377662	-40.42624468	10.92294695	-82
10606	0	0.257653236	0.076851845	0.296872139	0.999999046	6.67572E-05	-0.000183105	0.000106812	6.44133091	1.92129612	7.421803474	0.00333786	-0.009155274	0.005340576	-0.041992188	-0.388671875	-1.097900391	890.42	14.63876281	-40.44008356	10.92442458	-82
10607	0	0.257080078	0.077270508	0.296020508	0.999999046	0.000160217	-0.000304222	-4.19617E-05	6.427001953	1.931762695	7.400512695	0.008010864	-0.015211106	-0.002098084	-0.041992188	-0.388671875	-1.097900391	890.42	14.66763591	-40.46300737	10.89919704	-82
10608	0	0.256459236	0.075798988	0.293397903	0.999999046	-9.05991E-05	-0.000366211	3.43323E-05	6.411480904	1.894974709	7.334947586	-0.004529953	-0.018310547	0.001716614	-0.041992188	-0.388671875	-1.100830078	890.54	14.66214707	-40.49504739	10.88198975	-82
10609	0	0.25769043	0.076293945	0.295654297	0.999999046	0.000148773	-0.000174522	0.000175476	6.442260742	1.907348633	7.391357422	0.00743866	-0.00872612	0.008773804	-0.044433594	-0.388427734	-1.100585938	890.42	14.66602101	-40.50992541	10.89253902	-82
10610	0	0.258369446	0.077083588	0.294929504	0.999999046	-5.14984E-05	-0.000225067	6.48499E-05	6.459236145	1.927089691	7.37323761	-0.002574921	-0.011253357	0.003242493	-0.041992188	-0.388671875	-1.097900391	890.54	14.658775	-40.52722932	10.88583028	-82
10611	0	0.257568359	0.076721191	0.294006348	0.999999046	-3.05176E-05	-0.000227928	-6.48499E-05	6.439208984	1.918029785	7.350158691	-0.001525879	-0.011396408	-0.003242493	-0.044433594	-0.388427734	-1.09765625	890.5	14.66639244	-40.54111499	10.86020973	-82
10612	0	0.25732708	0.076674461	0.295357704	0.999999046	-6.00815E-05	-0.000284195	8.39233E-05	6.433176994	1.916861534	7.383942604	-0.003004074	-0.014209748	0.004196167	-0.041992188	-0.388671875	-1.097900391	890.54	14.65797641	-40.56552293	10.85405908	-81
10613	0	0.258422852	0.076599121	0.296081543	0.999999046	4.95911E-05	-0.000315666	6.48499E-05	6.460571289	1.914978027	7.402038574	0.002479553	-0.01578331	0.003242493	-0.044433594	-0.388427734	-1.100585938	890.46	14.66476889	-40.59284705	10.84300189	-82
10614	0	0.258618355	0.077265739	0.293041229	0.999999046	8.01086E-05	-0.000268936	6.77109E-05	6.46545887	1.931643486	7.326030731	0.004005432	-0.013446808	0.003385544	-0.044433594	-0.388427734	-1.09765625	890.54	14.67376934	-40.61514313	10.83481406	-82
10615	0	0.257507324	0.077880859	0.290771484	0.999999046	7.62939E-05	-0.000124931	5.72205E-05	6.437683105	1.947021484	7.269287109	0.003814697	-0.006246567	0.002861023	-0.044433594	-0.388427734	-1.09765625	890.54	14.67995688	-40.62125528	10.83032557	-82
10616	0	0.259238243	0.077163696	0.295210838	0.999999046	-0.000273705	0.00018692	0.000148773	6.480956078	1.929092407	7.380270958	-0.013685227	0.009346009	0.00743866	-0.046875	-0.388427734	-1.094726563	890.54	14.62965929	-40.59546204	10.85294031	-81
10617	0	0.259155273	0.075073242	0.296936035	0.999999046	-0.000209808	-5.24521E-05	1.52588E-05	6.478881836	1.876831055	7.423400879	-0.010490418	-0.002622604	0.000762939	-0.044433594	-0.388427734	-1.09765625	890.54	14.60525103	-40.59231992	10.84614816	-82
10618	0	0.255831718	0.074514389	0.294437408	0.999999046	0.000112534	-0.000143051	4.48227E-05	6.395792961	1.862859726	7.360935211	0.005626678	-0.007152557	0.002241135	-0.046875	-0.388427734	-1.09765625	890.46	14.6171619	-40.60001711	10.84025528	-82
10619	0	0.256835938	0.07611084	0.29309082	0.999999046	0.000469208	-0.000437737	7.24792E-05	6.420898438	1.902770996	7.327270508	0.02346039	-0.021886827	0.003623963	-0.046875	-0.386230469	-1.09765625	890.5	14.67471653	-40.64118693	10.82399947	-82
10620	0	0.259729385	0.078668594	0.294192314	0.999999046	0.000182152	-0.000402451	1.52588E-05	6.493234634	1.966714859	7.354807854	0.00910759	-0.020122529	0.000762939	-0.046875	-0.388427734	-1.100585938	890.38	14.70417867	-40.67681887	10.80120691	-82
10621	0	0.259887695	0.076721191	0.293334961	0.999999046	-6.86646E-05	-0.000266075	-9.91821E-05	6.497192383	1.918029785	7.333374023	-0.003433228	-0.013303757	-0.004959107	-0.049316406	-0.385986328	-1.100585938	890.5	14.71248191	-40.69408141	10.76511236	-82
10622	0	0.257891655	0.07789135	0.292963028	0.999999046	0.000259399	-0.000137329	0.000121117	6.447291374	1.947283745	7.324075699	0.012969971	-0.006866455	0.006055832	-0.049072266	-0.390625	-1.100097656	890.46	14.73431283	-40.7034833	10.77011885	-81
10623	0	0.258300781	0.077453613	0.292114258	0.999999046	-0.00019455	-5.24521E-05	0.000320435	6.457519531	1.936340332	7.302856445	-0.009727478	-0.002622604	0.016021729	-0.049072266	-0.388427734	-1.100341797	890.54	14.6831114	-40.70931674	10.8057536	-82
10624	0	0.260028839	0.076317787	0.293458939	0.999999046	-0.000243187	0.000106812	0.000205994	6.500720978	1.907944679	7.336473465	-0.012159348	0.005340576	0.010299683	-0.049072266	-0.390625	-1.097167969	890.46	14.63331555	-40.6942229	10.83470409	-81
10625	0	0.260131836	0.075561523	0.294250488	0.999999046	-0.000396729	0.000123024	8.39233E-05	6.503295898	1.889038086	7.356262207	-0.019836426	0.0061512	0.004196167	-0.046875	-0.388427734	-1.09765625	890.46	14.57717133	-40.67384614	10.84472324	-82
10626	0	0.258423805	0.074795723	0.294006348	0.999999046	0.000116348	-9.91821E-05	-4.673E-05	6.460595131	1.869893074	7.350158691	0.005817413	-0.004959106	-0.002336502	-0.049316406	-0.388183594	-1.094482422	890.5	14.59775705	-40.67435297	10.82811511	-82
10627	0	0.260070801	0.074157715	0.294433594	0.999999046	0.000343323	-0.000239372	7.24792E-05	6.50177002	1.853942871	7.360839844	0.017166138	-0.011968613	0.003623963	-0.046875	-0.388427734	-1.100585938	890.54	14.63638984	-40.69391169	10.82032365	-82
10628	0	0.261259079	0.077126503	0.29114151	0.999999046	0.000349998	1.71661E-05	-1.62125E-05	6.531476974	1.928162575	7.27853775	0.017499924	0.000858307	-0.000810623	-0.049316406	-0.388427734	-1.097412109	890.54	14.67800875	-40.68263894	10.81001403	-82
10629	0	0.259277344	0.077941895	0.291564941	0.999999046	0.000331879	0.000218391	-8.39233E-05	6.481933594	1.948547363	7.289123535	0.016593934	0.010919571	-0.004196167	-0.046875	-0.388427734	-1.100585938	890.5	14.71913503	-40.64717475	10.79518027	-82
10630	0	0.256633759	0.078789711	0.293943405	0.999999046	-0.000127792	0.000120163	-2.76566E-05	6.415843964	1.969742775	7.348585129	-0.006389618	0.006008148	-0.001382828	-0.049072266	-0.390625	-1.097167969	890.5	14.70484455	-40.62414639	10.78919858	-81
10631	0	0.258850098	0.076599121	0.293640137	0.999999046	4.95911E-05	-6.00815E-05	0.0001297	6.471252441	1.914978027	7.341003418	0.002479553	-0.003004074	0.006484985	-0.046630859	-0.390625	-1.097412109	890.54	14.70045051	-40.62571099	10.79867295	-82
10632	0	0.258966446	0.078208923	0.293355942	0.999999046	0.000161171	-2.47955E-05	0.000121117	6.474161148	1.955223083	7.333898544	0.008058548	-0.001239777	0.006055832	-0.046875	-0.388427734	-1.094726563	890.46	14.7089226	-40.62315016	10.80647353	-81
10633	0	0.258728027	0.079956055	0.29083252	0.999999046	-5.72205E-05	0.000271797	0.000221252	6.468200684	1.998901367	7.270812988	-0.002861023	0.013589859	0.011062622	-0.046630859	-0.390625	-1.100341797	890.54	14.67575998	-40.5907147	10.84046654	-81
10634	0	0.260861397	0.077853203	0.293240547	0.999999046	-0.000473022	0.000389099	9.44138E-05	6.52153492	1.94633007	7.33101368	-0.023651125	0.019454957	0.004720688	-0.046875	-0.390625	-1.094482422	890.54	14.60425865	-40.54170146	10.86424981	-82
10635	0	0.259216309	0.074279785	0.296020508	0.999999046	-0.000259399	0.000302315	-0.000106812	6.480407715	1.856994629	7.400512695	-0.012969971	0.015115738	-0.005340576	-0.044433594	-0.388427734	-1.094726563	890.46	14.5783674	-40.49650758	10.85321783	-82
10636	0	0.255543709	0.075463295	0.294015884	0.999999046	0.000153542	0.000110626	-5.34058E-05	6.38859272	1.886582375	7.35039711	0.007677078	0.005531311	-0.002670288	-0.044433594	-0.388427734	-1.100585938	890.38	14.59943873	-40.4740578	10.83983796	-82
10637	0	0.2578125	0.076782227	0.295043945	0.999999046	0.000270844	-3.71933E-05	8.01086E-05	6.4453125	1.919555664	7.376098633	0.013542175	-0.001859665	0.004005432	-0.044433594	-0.388427734	-1.09765625	890.5	14.62500349	-40.47185158	10.84086483	-82
