Counter	Temperature	VelInc_X	VelInc_Y	VelInc_Z	OriInc_w	OriInc_x	OriInc_y	OriInc_z	Acc_X	Acc_Y	Acc_Z	Gyr_X	Gyr_Y	Gyr_Z	Mag_X	Mag_Y	Mag_Z	Pressure	Roll	Pitch	Yaw	RSSI
8616	0	0.378236771	-0.079152107	0.080817223	0.999987602	-0.004796028	0.000814438	-0.000597954	9.455919266	-1.978802681	2.020430565	-0.239802367	0.040722056	-0.02989781	-0.567382813	0.315673828	0.703125	895.52	-42.66156739	-73.94527442	-126.5682675	-80
8617	0	0.377685547	-0.079528809	0.080505371	0.999991417	-0.003917694	0.000973701	-0.000457764	9.442138672	-1.988220215	2.012634277	-0.195885243	0.048685208	-0.022888247	-0.569335938	0.309082031	0.703857422	895.64	-42.6820873	-73.90330281	-127.0123421	-80
8618	0	0.375831604	-0.077916145	0.07958889	0.999992371	-0.003560066	0.001029015	-0.000255585	9.3957901	-1.947903633	1.989722252	-0.178003721	0.051450848	-0.012779265	-0.571533203	0.302734375	0.707275391	895.48	-42.70767737	-73.84073601	-127.4106855	-81
8619	0	0.375366211	-0.079711914	0.078613281	0.999992371	-0.003649712	0.000804901	-0.000225067	9.384155273	-1.992797852	1.965332031	-0.182486007	0.04024515	-0.011253383	-0.571289063	0.296142578	0.713623047	895.5	-42.81455371	-73.79450252	-127.7373891	-81
8620	0	0.373746872	-0.082695961	0.080565453	0.999995232	-0.002997398	0.000469208	-0.000351906	9.343671799	-2.067399025	2.014136314	-0.149870152	0.023460425	-0.017595318	-0.573486328	0.289794922	0.714111328	895.54	-42.90139006	-73.78606371	-128.0096794	-81
8621	0	0.374389648	-0.082519531	0.081787109	0.999997139	-0.001968384	-0.00020504	-3.81E-06	9.359741211	-2.062988281	2.044677734	-0.098419254	-0.010252006	-0.000190735	-0.573242188	0.287597656	0.711425781	895.52	-43.15272287	-73.80665827	-127.9858553	-81
8622	0	0.374362946	-0.083451271	0.081853867	0.999999046	-0.000469208	-0.000402451	9.06E-05	9.359073639	-2.086281776	2.046346664	-0.02346039	-0.020122529	0.004529953	-0.572998047	0.283203125	0.711914063	895.54	-43.31403862	-73.83581295	-127.8824782	-80
8623	0	0.377319336	-0.084533691	0.082702637	0.999999046	0.001289368	-0.000479698	7.63E-06	9.432983398	-2.113342285	2.067565918	0.064468404	-0.023984917	0.00038147	-0.571044922	0.285400391	0.719970703	895.62	-43.27213253	-73.87739138	-127.7815747	-81
8624	0	0.37593174	-0.079933167	0.082242012	0.999996185	0.002700806	-0.000426292	0.000151634	9.398293495	-1.998329163	2.056050301	0.135040452	-0.021314648	0.00758172	-0.573242188	0.287597656	0.711425781	895.52	-43.09592997	-73.90291089	-127.6537702	-81
8625	0	0.376647949	-0.078857422	0.080627441	0.999995232	0.002891541	-0.000376701	0.000415802	9.41619873	-1.971435547	2.015686035	0.144577235	-0.018835095	0.02079013	-0.568603516	0.289550781	0.713867188	895.54	-42.96145862	-73.90346406	-127.4630428	-81
8626	0	0.376153946	-0.079133034	0.080495834	0.999993324	0.003471375	-0.000432968	0.000403404	9.403848648	-1.978325844	2.012395859	0.173569084	-0.021648452	0.020170253	-0.571289063	0.296142578	0.710693359	895.56	-42.77271554	-73.90960663	-127.2582096	-81
8627	0	0.373779297	-0.074645996	0.078674316	0.999992371	0.003800392	-0.000545502	0.000694275	9.344482422	-1.866149902	1.96685791	0.19002009	-0.027275155	0.034713833	-0.569091797	0.300537109	0.710205078	895.54	-42.66163866	-73.90268995	-126.9356307	-82
8628	0	0.374009132	-0.071213722	0.078440666	0.99998951	0.004275322	-0.00100708	0.000870705	9.35022831	-1.780343056	1.961016655	0.213766812	-0.050354172	0.043535378	-0.569335938	0.309082031	0.706542969	895.52	-42.67193434	-73.92110286	-126.4273693	-81
8629	0	0.374938965	-0.066345215	0.082092285	0.999991417	0.003662109	-0.001410484	0.000751495	9.373474121	-1.658630371	2.052307129	0.183105956	-0.070524403	0.037574868	-0.567382813	0.315673828	0.703125	895.44	-42.82680848	-73.98262405	-125.8397226	-82
8630	0	0.379761696	-0.069499969	0.080307961	0.999996185	0.001990318	-0.001309395	0.000272751	9.494042397	-1.737499237	2.007699013	0.09951601	-0.065469805	0.013637556	-0.565185547	0.319824219	0.702636719	895.52	-43.00813144	-74.07263946	-125.421637	-82
8631	0	0.379638672	-0.074645996	0.080383301	0.999997139	0.001960754	-0.001196861	0.000286102	9.490966797	-1.866149902	2.00958252	0.098037807	-0.059843117	0.014305128	-0.562988281	0.32421875	0.708007813	895.54	-43.16899504	-74.15173598	-125.0279088	-83
8632	0	0.376432419	-0.071984291	0.079824448	0.999996185	0.002285004	-0.000941277	0.000506401	9.410810471	-1.799607277	1.995611191	0.114250304	-0.047063877	0.02532008	-0.562988281	0.326416016	0.704833984	895.48	-43.28863568	-74.19186499	-124.6403502	-83
8633	0	0.37689209	-0.067871094	0.077026367	0.999996185	0.002316475	-0.00050354	0.000804901	9.422302246	-1.696777344	1.92565918	0.115823867	-0.025177028	0.040245098	-0.563476563	0.332763672	0.704345703	895.48	-43.37088349	-74.17201297	-124.284857	-84
8634	0	0.38021183	-0.071541786	0.077706337	0.999997139	0.001962662	-0.0004673	0.000598907	9.505295753	-1.788544655	1.942658424	0.09813316	-0.023365038	0.029945396	-0.561035156	0.334960938	0.704101563	895.36	-43.42252997	-74.16531185	-124.0046529	-84
8635	0	0.380371094	-0.071166992	0.074768066	0.999994278	0.003041267	-0.000217438	0.00056839	9.509277344	-1.779174805	1.86920166	0.152063614	-0.010871905	0.02841954	-0.563476563	0.339355469	0.698242188	895.48	-43.27221829	-74.14044209	-123.8059591	-84
8636	0	0.381916046	-0.06372261	0.071327209	0.999995232	0.002701759	-9.92E-05	0.00077343	9.547901154	-1.593065262	1.783180237	0.135088145	-0.004959113	0.038671544	-0.561523438	0.34375	0.700683594	895.62	-43.18764946	-74.09030373	-123.5806308	-84
8637	0	0.380493164	-0.063110352	0.074401855	0.999999046	0.000934601	0.00024128	0.000396729	9.512329102	-1.577758789	1.860046387	0.04673005	0.012063982	0.019836429	-0.561523438	0.350097656	0.694335938	895.54	-43.10048378	-74.04180179	-123.5580383	-82
8638	0	0.377111435	-0.062416077	0.074638367	0.999996185	-0.002379417	0.000752449	0.000123978	9.427785873	-1.560401917	1.865959167	-0.118970995	0.037622491	0.00619889	-0.561523438	0.350097656	0.697265625	895.54	-43.17274297	-73.97237934	-123.7596655	-81
8639	0	0.379394531	-0.075073242	0.077087402	0.999990463	-0.004126549	0.000740051	-1.91E-05	9.484863281	-1.876831055	1.927185059	-0.206328043	0.037002672	-0.000953677	-0.563720703	0.345947266	0.694824219	895.54	-43.40769883	-73.91536838	-123.9962105	-80
8640	0	0.377145767	-0.079730988	0.077904701	0.999997139	-0.002289772	0.000490189	0	9.42864418	-1.993274689	1.947617531	-0.114488706	0.024509452	0	-0.563476563	0.339355469	0.700927734	895.58	-43.50687586	-73.87761187	-124.1627245	-80
8641	0	0.378051758	-0.079223633	0.079711914	0.999999046	0.000606537	-2.86E-06	0.00025177	9.451293945	-1.98059082	1.992797852	0.030326845	-0.000143051	0.012588502	-0.561035156	0.337158203	0.701171875	895.54	-43.48170628	-73.86077664	-124.1181622	-79
8642	0	0.379053116	-0.072238922	0.079246521	0.999996185	0.002594948	0.000132561	0.000113487	9.476327896	-1.805973053	1.981163025	0.129747537	0.006628044	0.005674369	-0.565917969	0.341552734	0.700927734	895.58	-43.15190631	-73.84360223	-124.154931	-80
8643	0	0.378479004	-0.063415527	0.076599121	0.999999046	0.001255035	0.000409126	-1.14E-05	9.461975098	-1.585388184	1.914978027	0.062751788	0.02045632	-0.000572205	-0.563720703	0.34375	0.695068359	895.48	-42.86431845	-73.8133991	-124.303325	-80
8644	0	0.379151344	-0.066270828	0.075304985	0.999999046	-0.000971794	0.000764847	-4.01E-05	9.478783607	-1.656770706	1.882624626	-0.048589719	0.03824235	-0.002002717	-0.563720703	0.34375	0.695068359	895.54	-42.72878916	-73.75574906	-124.55607	-79
8645	0	0.378540039	-0.070800781	0.077270508	0.999995232	-0.002609253	0.000882149	-0.000652313	9.463500977	-1.770019531	1.931762695	-0.130462821	0.044107496	-0.032615705	-0.568359375	0.341796875	0.698242188	895.54	-42.57375584	-73.73573259	-125.0225269	-79
8646	0	0.378009796	-0.07444191	0.0788908	0.999992371	-0.003521919	0.001112938	-0.000573158	9.450244904	-1.861047745	1.972270012	-0.176096373	0.055647026	-0.02865798	-0.568115234	0.339599609	0.695556641	895.42	-42.4863623	-73.68980209	-125.5189405	-79
8647	0	0.374206543	-0.077636719	0.080078125	0.999993324	-0.003383636	0.001000404	-0.000331879	9.355163574	-1.940917969	2.001953125	-0.169182178	0.050020323	-0.016593968	-0.572509766	0.331054688	0.696533203	895.52	-42.48470446	-73.63438126	-125.9172266	-79
8648	0	0.373666763	-0.077638626	0.082009315	0.999996185	-0.00254631	0.000544548	9.82E-05	9.341669083	-1.940965652	2.050232887	-0.127315665	0.027227433	0.004911428	-0.572265625	0.326660156	0.696777344	895.54	-42.63206099	-73.58399184	-126.0612837	-79
8649	0	0.377990723	-0.079345703	0.082336426	0.999998093	-0.001879692	0.000167847	9.54E-05	9.449768066	-1.983642578	2.058410645	-0.09398466	0.008392339	0.004768374	-0.574462891	0.322265625	0.703125	895.54	-42.80189386	-73.56541731	-126.108575	-79
8650	0	0.377763748	-0.08101368	0.083501816	0.999998093	-0.000639915	-3.15E-05	-0.000179291	9.444093704	-2.025341988	2.087545395	-0.031995776	-0.001573563	-0.008964539	-0.572265625	0.322265625	0.702880859	895.46	-42.8043692	-73.58468681	-126.1787277	-79
8651	0	0.376586914	-0.077453613	0.082336426	0.999999046	0.00044632	-0.000155449	7.63E-06	9.414672852	-1.936340332	2.058410645	0.02231598	-0.007772446	0.00038147	-0.572265625	0.322265625	0.699951172	895.52	-42.76860354	-73.59964765	-126.1591241	-79
8652	0	0.375695229	-0.076777458	0.081005096	0.999999046	0.000664711	-4.58E-05	7.92E-05	9.392380714	-1.919436455	2.025127411	0.033235552	-0.002288819	0.003957749	-0.574462891	0.320068359	0.700439453	895.48	-42.69953859	-73.5996896	-126.1554489	-79
8653	0	0.376953125	-0.076843262	0.078613281	0.999999046	0.000221252	3.91E-05	0.000205994	9.423828125	-1.921081543	1.965332031	0.011062622	0.001955032	0.010299683	-0.572265625	0.322265625	0.702880859	895.48	-42.69575712	-73.58271528	-126.1332908	-79
8654	0	0.378379822	-0.076720238	0.080079079	0.999999046	-0.000230789	-1.14E-05	0.000208855	9.459495544	-1.918005943	2.001976967	-0.011539459	-0.000572205	0.010442734	-0.572265625	0.322265625	0.699951172	895.58	-42.75824805	-73.56973478	-126.0946096	-79
8655	0	0.375244141	-0.075927734	0.080505371	0.999999046	-6.48E-05	5.05E-05	0.000301361	9.381103516	-1.898193359	2.012634277	-0.003242493	0.002527237	0.015068054	-0.574462891	0.322265625	0.694580078	895.54	-42.81182783	-73.54426567	-126.0447936	-79
8656	0	0.375494957	-0.076348305	0.079372406	0.999999046	0.000575066	-0.000116348	0.000621796	9.387373924	-1.908707619	1.98431015	0.028753284	-0.005817414	0.031089787	-0.574462891	0.320068359	0.700439453	895.62	-42.92725329	-73.50777795	-125.863567	-79
8657	0	0.377685547	-0.075561523	0.081054688	0.999998093	0.00156498	-0.000255585	0.000476837	9.442138672	-1.889038086	2.026367188	0.078249013	-0.012779242	0.023841869	-0.574707031	0.322265625	0.705810547	895.62	-42.92448707	-73.49421594	-125.6906482	-79
8658	0	0.379976273	-0.072500229	0.080170631	0.999998093	0.001469612	6.39E-05	0.000235558	9.499406815	-1.812505722	2.004265785	0.073480633	0.00319481	0.011777882	-0.574707031	0.326660156	0.697021484	895.52	-42.7798952	-73.47284997	-125.6695331	-80
8659	0	0.380310059	-0.071166992	0.078308105	0.999999046	-0.000114441	0.000832558	0.000125885	9.507751465	-1.779174805	1.957702637	-0.005722047	0.041627889	0.006294251	-0.574707031	0.328857422	0.699707031	895.54	-42.5849903	-73.39555108	-125.8865063	-80
8660	0	0.37650013	-0.072806358	0.077940941	0.999998093	-0.001569748	0.000954628	0.000219345	9.412503242	-1.820158958	1.948523521	-0.078487441	0.047731427	0.010967261	-0.574707031	0.328857422	0.694091797	895.68	-42.55336336	-73.30078943	-126.1004184	-79
8661	0	0.375793457	-0.076721191	0.080566406	0.999998093	-0.001452446	0.000717163	0.000198364	9.394836426	-1.918029785	2.014160156	-0.072622331	0.03585817	0.009918217	-0.574707031	0.326660156	0.697021484	895.48	-42.56513278	-73.22767883	-126.2564886	-79
8662	0	0.379489899	-0.077720642	0.082166672	0.999999046	-3.05E-05	0.000356674	7.25E-05	9.487247467	-1.943016052	2.054166794	-0.001525879	0.01783371	0.003623962	-0.574462891	0.324462891	0.697265625	895.48	-42.47221813	-73.19470922	-126.3560277	-79
8663	0	0.376586914	-0.074707031	0.082763672	0.999999046	0.000968933	0.000184059	-8.39E-05	9.414672852	-1.867675781	2.069091797	0.048446663	0.009202959	-0.004196168	-0.579101563	0.322509766	0.691894531	895.52	-42.26531758	-73.18837437	-126.4616256	-79
8664	0	0.375591278	-0.072408676	0.082309723	0.999998093	0.000761032	0.000218391	0.000132561	9.389781952	-1.810216904	2.057743073	0.038051609	0.010919572	0.006628037	-0.576660156	0.324462891	0.691650391	895.58	-42.13411275	-73.16248383	-126.5099914	-79
8665	0	0.377929688	-0.075561523	0.080444336	0.999999046	0.000350952	0.000279427	0.00018692	9.448242188	-1.889038086	2.011108398	0.017547608	0.013971329	0.009346009	-0.579101563	0.324707031	0.691650391	895.62	-42.05029757	-73.12731173	-126.5599063	-79
8666	0	0.376268387	-0.075218201	0.081988335	0.999999046	0.000391006	0.000152588	0.000255585	9.406709671	-1.880455017	2.049708366	0.019550324	0.007629395	0.012779236	-0.579101563	0.326660156	0.691650391	895.66	-42.01356515	-73.0977085	-126.5533402	-79
8667	0	0.376037598	-0.074584961	0.082641602	0.999999046	0.00025177	8.49E-05	0.000324249	9.400939941	-1.864624023	2.066040039	0.012588501	0.004243851	0.016212464	-0.576904297	0.328857422	0.694091797	895.48	-42.02909326	-73.06866254	-126.505508	-79
8668	0	0.37555027	-0.071063995	0.083106041	0.999999046	6.58E-05	9.54E-05	0.000277519	9.388756752	-1.776599884	2.077651024	0.003290176	0.004768372	0.013875962	-0.579345703	0.328857422	0.694091797	895.52	-42.0496132	-73.04245996	-126.4766581	-79
8669	0	0.375671387	-0.073974609	0.08380127	0.999999046	-0.000839233	0.00024128	0.000232697	9.391784668	-1.849365234	2.095031738	-0.041961676	0.012063982	0.011634828	-0.579345703	0.326904297	0.694335938	895.52	-42.12429273	-73.00732611	-126.5014082	-79
8670	0	0.37773037	-0.078686714	0.084461212	0.999999046	-0.000354767	0.000141144	-5.72E-05	9.443259239	-1.967167854	2.111530304	-0.017738343	0.00705719	-0.002861023	-0.579345703	0.326904297	0.697265625	895.62	-42.08825884	-73.00289027	-126.5834315	-79
8671	0	0.375183105	-0.078674316	0.084106445	0.999999046	0.000213623	7.34E-05	9.16E-05	9.379577637	-1.96685791	2.102661133	0.010681152	0.003671646	0.004577637	-0.576660156	0.324462891	0.691650391	895.48	-42.0458555	-72.99265814	-126.6061026	-79
8672	0	0.374118805	-0.074983597	0.084924698	0.999999046	0.000800133	-0.000179291	0.000415802	9.352970123	-1.87458992	2.123117447	0.040006643	-0.00896454	0.020790103	-0.576904297	0.326660156	0.694335938	895.52	-42.08959219	-72.97899646	-126.4683621	-78
8673	0	0.374938965	-0.073120117	0.086914063	0.999999046	0.000358582	-0.00026989	0.000457764	9.373474121	-1.82800293	2.172851563	0.017929078	-0.013494493	0.022888185	-0.574707031	0.328857422	0.694091797	895.54	-42.21745276	-72.96972289	-126.2917324	-79
8674	0	0.379919052	-0.07664299	0.084626198	0.999999046	-0.000141144	1.53E-05	0.0001297	9.497976303	-1.916074753	2.115654945	-0.00705719	0.000762939	0.006484985	-0.576904297	0.326660156	0.69140625	895.52	-42.23989919	-72.96146954	-126.2895907	-79
8675	0	0.376525879	-0.076477051	0.085510254	0.999999046	-0.000392914	0.000245094	-0.000102997	9.413146973	-1.91192627	2.137756348	-0.019645692	0.012254715	-0.005149842	-0.576904297	0.326660156	0.694335938	895.52	-42.16890588	-72.95156578	-126.4145496	-79
8676	0	0.373997688	-0.07622242	0.084594727	0.999999046	-0.000687599	0.000314713	0.000159264	9.349942207	-1.905560493	2.114868164	-0.034379963	0.015735628	0.007963181	-0.576660156	0.324462891	0.691650391	895.58	-42.1868992	-72.91550659	-126.4830042	-78
8677	0	0.375671387	-0.079040527	0.085266113	0.999999046	-0.000278473	0.000275612	9.16E-05	9.391784668	-1.976013184	2.131652832	-0.013923645	0.013780594	0.004577637	-0.576904297	0.326660156	0.688476563	895.48	-42.14945458	-72.8878578	-126.553419	-78
8678	0	0.374816895	-0.076471329	0.084147453	0.999999046	0.000318527	7.06E-05	0.000286102	9.370422363	-1.911783218	2.103686333	0.015926362	0.003528595	0.014305115	-0.576904297	0.326660156	0.69140625	895.48	-42.1486141	-72.86265818	-126.5167938	-78
8679	0	0.376281738	-0.07421875	0.084411621	0.999999046	-0.000202179	0.000206947	0.000343323	9.407043457	-1.85546875	2.110290527	-0.010108948	0.010347367	0.017166138	-0.574462891	0.324462891	0.694335938	895.48	-42.18883644	-72.82156144	-126.5042372	-77
8680	0	0.374791145	-0.074571609	0.084596634	0.999999046	-0.001055717	0.000167847	3.34E-05	9.369778633	-1.864290237	2.114915848	-0.052785883	0.008392336	0.00166893	-0.574462891	0.324462891	0.69140625	895.54	-42.25112709	-72.80771963	-126.5658899	-77
8681	0	0.37512207	-0.078613281	0.084655762	0.999999046	-0.001255035	-1.81E-05	-5.72E-05	9.378051758	-1.965332031	2.116394043	-0.062751787	-0.000905991	-0.002861024	-0.576660156	0.322265625	0.691650391	895.42	-42.3579573	-72.81659338	-126.6063921	-77
8682	0	0.376233101	-0.080494881	0.085476875	0.999999046	-0.00053215	-4.20E-05	-0.000134468	9.405827522	-2.012372017	2.136921883	-0.026607515	-0.002098084	-0.006723404	-0.578857422	0.3203125	0.694824219	895.76	-42.36706417	-72.83332187	-126.666837	-76
8683	0	0.375610352	-0.078186035	0.084411621	0.999999046	0.000507355	-6.68E-06	6.48E-05	9.390258789	-1.954650879	2.110290527	0.025367738	-0.000333786	0.003242493	-0.576660156	0.3203125	0.697509766	895.58	-42.30299278	-72.83163597	-126.6805307	-76
8684	0	0.377188683	-0.074791908	0.085152626	0.999999046	0.000308037	-5.15E-05	-3.81E-06	9.429717064	-1.869797707	2.128815651	0.01540184	-0.002574921	-0.000190735	-0.576660156	0.320068359	0.691894531	895.48	-42.25374824	-72.83911914	-126.7013753	-76
8685	0	0.376098633	-0.074983597	0.083331108	0.999999046	-0.000516891	-1.62E-05	-9.92E-05	9.40246582	-1.87458992	2.083277702	-0.025844575	-0.000810623	-0.004959107	-0.576660156	0.322265625	0.691650391	895.52	-42.26390687	-72.85108151	-126.7515289	-76
8686	0	0.375810623	-0.078474045	0.083732605	0.999999046	-0.000185013	-0.000101089	-0.000278473	9.395265579	-1.96185112	2.093315125	-0.009250641	-0.005054474	-0.013923645	-0.576660156	0.317871094	0.695068359	895.46	-42.2081206	-72.88401157	-126.8404803	-76
8687	0	0.375366211	-0.075744629	0.084838867	0.999999046	0.000263214	-0.000227928	-0.000339508	9.384155273	-1.893615723	2.12097168	0.013160706	-0.011396409	-0.016975404	-0.57421875	0.317871094	0.694824219	895.52	-42.11533243	-72.93238652	-126.9123728	-76
8688	0	0.375332832	-0.074347496	0.083850861	0.999999046	-0.000258446	-0.000112534	-0.000156403	9.383320808	-1.858687401	2.096271515	-0.012922287	-0.005626679	-0.00782013	-0.578857422	0.3203125	0.692138672	895.54	-42.10366868	-72.95694085	-126.9561258	-76
8689	0	0.375549316	-0.076538086	0.084472656	0.999999046	-0.000411987	-2.86E-06	-0.000179291	9.38873291	-1.913452148	2.111816406	-0.020599366	-0.000143051	-0.008964539	-0.576416016	0.315673828	0.692382813	895.52	-42.07569269	-72.97388258	-127.0423215	-76
8690	0	0.375061035	-0.076049805	0.08215332	0.999999046	-0.000339508	-0.000179291	-1.91E-05	9.376525879	-1.901245117	2.053833008	-0.016975403	-0.008964539	-0.000953674	-0.576416016	0.315917969	0.697998047	895.48	-42.12838373	-72.99357734	-127.0356366	-76
8691	0	0.375270844	-0.075719833	0.086046219	0.999998093	-0.000258446	-9.73E-05	-7.63E-06	9.381771088	-1.892995834	2.151155472	-0.012922287	-0.004863739	-0.00038147	-0.576416016	0.315917969	0.695068359	895.48	-42.15410751	-73.00534574	-127.0448108	-76
8692	0	0.374895096	-0.074544907	0.086127281	0.999999046	-0.000296593	-0.000143051	0.000166893	9.372377396	-1.863622665	2.15318203	-0.014829636	-0.007152558	0.00834465	-0.576416016	0.315917969	0.695068359	895.52	-42.24380122	-73.00751957	-126.9907314	-76
8693	0	0.376159668	-0.078125	0.084716797	0.999999046	-0.000564575	-0.000121117	-3.05E-05	9.403991699	-1.953125	2.117919922	-0.028228761	-0.006055832	-0.001525879	-0.573974609	0.313476563	0.692382813	895.42	-42.3040633	-73.02293147	-127.0002196	-75
8694	0	0.375085831	-0.079419136	0.084839821	0.999999046	-0.00015831	-2.29E-05	-8.77E-05	9.377145767	-1.985478401	2.120995522	-0.007915497	-0.001144409	-0.004386902	-0.578857422	0.315917969	0.6953125	895.42	-42.27736541	-73.03426881	-127.0491666	-75
8695	0	0.374633789	-0.077514648	0.085205078	0.999999046	0.00056839	-7.92E-05	0.000156403	9.365844727	-1.937866211	2.130126953	0.028419496	-0.003957749	0.00782013	-0.576416016	0.315917969	0.695068359	895.54	-42.24945121	-73.03143373	-127.0129565	-76
8696	0	0.376027107	-0.075092316	0.087305069	0.999999046	0.000483513	-0.000123978	0.0001297	9.400677681	-1.877307892	2.182626724	0.024175645	-0.006198883	0.006484986	-0.576416016	0.313720703	0.692382813	895.42	-42.23462532	-73.03436286	-126.9788669	-76
8697	0	0.377075195	-0.076843262	0.083557129	0.999999046	0.000171661	2.00E-05	0.000144958	9.426879883	-1.921081543	2.088928223	0.008583069	0.001001358	0.007247925	-0.576416016	0.315917969	0.697998047	895.54	-42.22358731	-73.0239061	-126.9760571	-76
8698	0	0.376377106	-0.077839851	0.084086418	0.999999046	0.00078392	-8.96E-05	-9.92E-05	9.409427643	-1.945996284	2.102160454	0.039196019	-0.00448227	-0.004959107	-0.576416016	0.315917969	0.697998047	895.48	-42.10233628	-73.04148739	-127.0171563	-76
8699	0	0.37487793	-0.074645996	0.083374023	0.999999046	0.000926971	-0.00020504	9.16E-05	9.371948242	-1.866149902	2.084350586	0.046348579	-0.010252	0.004577637	-0.576416016	0.315917969	0.695068359	895.52	-42.0467938	-73.05426729	-126.9742002	-76
8700	0	0.376667976	-0.074378967	0.082501411	0.999999046	0.000519753	-0.00012207	0.00025177	9.416699409	-1.859474182	2.062535286	0.025987627	-0.006103516	0.012588502	-0.576660156	0.317871094	0.695068359	895.48	-42.0617659	-73.04780769	-126.9039853	-76
8701	0	0.376647949	-0.074157715	0.08203125	0.999999046	0.000152588	-3.34E-05	0.000217438	9.41619873	-1.853942871	2.05078125	0.007629395	-0.00166893	0.010871887	-0.574462891	0.320068359	0.700439453	895.52	-42.08689768	-73.03657012	-126.8639052	-77
8702	0	0.375827789	-0.074052811	0.081783295	0.999999046	-0.000492096	5.34E-05	0.000312805	9.395694733	-1.851320267	2.044582367	-0.024604799	0.002670288	0.01564026	-0.576416016	0.315917969	0.695068359	895.48	-42.19053516	-73.01073882	-126.826103	-77
8703	0	0.375427246	-0.073791504	0.083862305	0.999999046	-0.000919342	6.20E-05	0.000320435	9.385681152	-1.844787598	2.096557617	-0.045967109	0.003099442	0.016021731	-0.57421875	0.315673828	0.697753906	895.54	-42.34253372	-72.98363204	-126.7865075	-77
8704	0	0.376709938	-0.076874733	0.084682465	0.999999046	-0.000763893	-1.72E-05	0.000338554	9.417748451	-1.921868324	2.117061615	-0.038194661	-0.000858307	0.016927721	-0.576660156	0.318115234	0.697753906	895.54	-42.50136061	-72.96175556	-126.7146632	-77
8705	0	0.377258301	-0.077880859	0.082336426	0.999999046	-0.000328064	2.38E-05	0.00019455	9.43145752	-1.947021484	2.058410645	-0.016403199	0.001192093	0.009727478	-0.576416016	0.315917969	0.697998047	895.58	-42.56033262	-72.94755807	-126.6991837	-77
8706	0	0.376795769	-0.078081131	0.08340168	0.999998093	-0.000182152	-4.10E-05	5.63E-05	9.419894218	-1.952028275	2.085042	-0.00910759	-0.0020504	0.002813339	-0.576660156	0.315917969	0.700927734	895.48	-42.58108846	-72.94953162	-126.7067035	-77
8707	0	0.375183105	-0.076782227	0.082885742	0.999999046	-6.48E-05	4.77E-06	9.54E-05	9.379577637	-1.919555664	2.072143555	-0.003242493	0.000238419	0.004768372	-0.576660156	0.315917969	0.700927734	895.54	-42.58766663	-72.94463194	-126.7145535	-77
8708	0	0.375594139	-0.07643795	0.084953308	0.999999046	-0.000138283	-3.62E-05	0.000296593	9.389853477	-1.910948753	2.123832703	-0.006914139	-0.001811981	0.014829636	-0.57421875	0.315673828	0.697753906	895.62	-42.66807266	-72.92754211	-126.651625	-77
8709	0	0.378234863	-0.078186035	0.081970215	0.999999046	-9.92E-05	0.000115395	4.20E-05	9.455871582	-1.954650879	2.049255371	-0.004959106	0.00576973	0.002098084	-0.57421875	0.317871094	0.700439453	895.58	-42.63609074	-72.91750067	-126.6970041	-77
8710	0	0.377354622	-0.078967094	0.08326149	0.999999046	0.000400543	0.000102997	-0.000301361	9.433865547	-1.974177361	2.081537247	0.020027162	0.005149842	-0.015068055	-0.57421875	0.317871094	0.694824219	895.54	-42.45594009	-72.93506083	-126.8351546	-78
8711	0	0.373718262	-0.07635498	0.082519531	0.999999046	0.000320435	8.11E-05	4.96E-05	9.342956543	-1.908874512	2.062988281	0.016021729	0.004053116	0.002479553	-0.576660156	0.318115234	0.700683594	895.54	-42.38713082	-72.92727866	-126.8709471	-78
8712	0	0.37467289	-0.078109741	0.082812309	0.999999046	0.000517845	7.63E-05	0.000205994	9.366822243	-1.95274353	2.070307732	0.025892259	0.003814697	0.010299683	-0.576660156	0.318115234	0.697753906	895.48	-42.34036618	-72.9077889	-126.8608181	-78
8713	0	0.375366211	-0.077697754	0.082580566	0.999999046	0.000637054	2.00E-05	0.000114441	9.384155273	-1.942443848	2.06451416	0.031852724	0.001001358	0.005722046	-0.576416016	0.317871094	0.692138672	895.42	-42.26918266	-72.90014917	-126.8621026	-78
8714	0	0.376138687	-0.076824188	0.082936287	0.999999046	0.000623703	-7.25E-05	0.000469208	9.403467178	-1.920604706	2.073407173	0.031185153	-0.003623963	0.023460391	-0.576416016	0.317871094	0.692138672	895.48	-42.32054378	-72.87303598	-126.7400799	-79
8715	0	0.375244141	-0.076049805	0.08404541	0.999999046	0.000549316	8.11E-05	0.000419617	9.381103516	-1.901245117	2.101135254	0.027465823	0.004053116	0.020980837	-0.57421875	0.320068359	0.694580078	895.58	-42.32805345	-72.83675232	-126.6702425	-79
8716	0	0.375287056	-0.078042984	0.083763123	0.999999046	0.000355721	9.35E-05	0.000239372	9.382176399	-1.9510746	2.094078064	0.017786027	0.004673004	0.011968613	-0.576660156	0.3203125	0.697509766	895.52	-42.305343	-72.81330573	-126.6590563	-79
8717	0	0.376037598	-0.079650879	0.082763672	0.999999046	0.001018524	-5.63E-05	0.000347137	9.400939941	-1.991271973	2.069091797	0.050926218	-0.00281334	0.017356876	-0.574462891	0.322265625	0.697265625	895.48	-42.27405501	-72.79423375	-126.5755948	-79
8718	0	0.377274513	-0.077664375	0.085319519	0.999998093	0.001673698	-0.0001688	0.00038147	9.431862831	-1.941609383	2.132987976	0.083684963	-0.008440022	0.019073496	-0.574462891	0.324462891	0.697265625	895.52	-42.20504494	-72.78206914	-126.4546104	-79
8719	0	0.375488281	-0.075622559	0.08416748	0.999998093	0.001660347	2.67E-05	0.000507355	9.387207031	-1.890563965	2.104187012	0.083017391	0.001335145	0.02536775	-0.572265625	0.326660156	0.696777344	895.48	-42.12332134	-72.74373494	-126.348806	-79
8720	0	0.376263618	-0.073592186	0.083454132	0.999999046	0.001074791	0	0.000553131	9.406590462	-1.839804649	2.086353302	0.053739561	0	0.027656562	-0.574707031	0.328857422	0.691162109	895.46	-42.12738024	-72.70436344	-126.2220343	-80
8721	0	0.376464844	-0.074829102	0.081542969	0.999999046	7.63E-06	0.000187874	0.000442505	9.411621094	-1.870727539	2.038574219	0.00038147	0.009393692	0.022125245	-0.574707031	0.331054688	0.688232422	895.52	-42.17698065	-72.65775781	-126.1699301	-80
8722	0	0.378806114	-0.078032494	0.081929207	0.999999046	4.20E-05	0.000196457	0.000343323	9.470152855	-1.95081234	2.048230171	0.002098084	0.009822846	0.017166138	-0.574707031	0.331054688	0.690917969	895.54	-42.19384083	-72.6182015	-126.1501845	-80
8723	0	0.373291016	-0.074584961	0.086364746	0.999999046	0.000595093	-0.000216484	0.00030899	9.332275391	-1.864624023	2.159118652	0.029754641	-0.010824204	0.015449525	-0.574707031	0.330810547	0.685302734	895.54	-42.23896247	-72.61636522	-126.034959	-80
8724	0	0.374990463	-0.074836731	0.086229324	0.999999046	0.000344276	-0.000106812	0.00020504	9.374761581	-1.870918274	2.155733109	0.017213822	-0.005340576	0.010251999	-0.572509766	0.333007813	0.687744141	895.48	-42.2571909	-72.61327727	-125.9741648	-80
8725	0	0.37878418	-0.077514648	0.084106445	0.999999046	0.00018692	-7.92E-05	-3.81E-06	9.469604492	-1.937866211	2.102661133	0.009346008	-0.003957748	-0.000190735	-0.574951172	0.333251953	0.693603516	895.54	-42.23018485	-72.62403217	-125.9838671	-80
8726	0	0.375745773	-0.076992989	0.083525658	0.999999046	-0.000339508	0.000263214	0.000319481	9.393644333	-1.924824715	2.088141441	-0.016975404	0.013160706	0.015974046	-0.574951172	0.333251953	0.693603516	895.54	-42.26696874	-72.58092741	-125.9892268	-80
8727	0	0.374450684	-0.076965332	0.084594727	0.999999046	-0.000579834	0.000359535	0.00037384	9.36126709	-1.924133301	2.114868164	-0.028991702	0.017976763	0.018692018	-0.574951172	0.333251953	0.693603516	895.48	-42.32219297	-72.52551426	-126.0027009	-79
8728	0	0.373965263	-0.076491356	0.086666107	0.999999046	-0.000807762	0.000350952	0.000212669	9.349131584	-1.912283897	2.166652679	-0.040388113	0.01754761	0.01063347	-0.572265625	0.330810547	0.690917969	895.52	-42.36186817	-72.48326803	-126.0599614	-80
8729	0	0.376098633	-0.079589844	0.087402344	0.999999046	-0.000774384	0.000222206	0.000137329	9.40246582	-1.989746094	2.185058594	-0.038719182	0.011110307	0.006866456	-0.574707031	0.331054688	0.693847656	895.48	-42.40897812	-72.45766799	-126.1049624	-79
8730	0	0.375732422	-0.080744743	0.087626457	0.999999046	-0.000259399	0.000209808	1.53E-05	9.393310547	-2.018618584	2.19066143	-0.012969971	0.010490418	0.000762939	-0.572265625	0.328613281	0.690917969	895.58	-42.36753539	-72.44242087	-126.1825444	-79
8731	0	0.374450684	-0.079162598	0.086242676	0.999999046	-6.48E-05	0.000321388	0.000152588	9.36126709	-1.979064941	2.156066895	-0.003242493	0.016069413	0.007629395	-0.574707031	0.328857422	0.691162109	895.58	-42.31352531	-72.40706775	-126.2507307	-79
8732	0	0.373761177	-0.077274323	0.085983276	0.999999046	-0.000203133	0.000366211	0.000239372	9.344029427	-1.931858063	2.149581909	-0.010156632	0.018310548	0.011968613	-0.572265625	0.330810547	0.687988281	895.54	-42.28771747	-72.36125782	-126.2978296	-79
8733	0	0.374511719	-0.077636719	0.08807373	0.999999046	-0.000473022	0.000405312	0.000289917	9.362792969	-1.940917969	2.201843262	-0.023651125	0.020265581	0.014495851	-0.576904297	0.328857422	0.694091797	895.62	-42.29667999	-72.3081999	-126.3501137	-80
8734	0	0.376471519	-0.078669548	0.086472511	0.999999046	-0.000892639	0.000347137	0.000208855	9.411787987	-1.966738701	2.161812782	-0.044631965	0.017356875	0.010442735	-0.576904297	0.328857422	0.691162109	895.54	-42.34629765	-72.2663915	-126.4057587	-80
8735	0	0.374206543	-0.080810547	0.090209961	0.999999046	-0.00069046	0.000302315	0.000175476	9.355163574	-2.020263672	2.255249023	-0.034523014	0.015115739	0.008773805	-0.574462891	0.326660156	0.69140625	895.62	-42.37456753	-72.2307912	-126.4609562	-81
8736	0	0.372292519	-0.078626633	0.091362953	0.999999046	-0.000664711	0.000303268	0.000267029	9.307312965	-1.965665817	2.28407383	-0.033235553	0.015163423	0.013351442	-0.574462891	0.326660156	0.69140625	895.54	-42.42324789	-72.18789272	-126.4895787	-82
8737	0	0.374755859	-0.08392334	0.088989258	0.999999046	5.34E-05	0.00017643	0.000282288	9.368896484	-2.098083496	2.224731445	0.002670288	0.008821488	0.01411438	-0.576660156	0.324462891	0.688720703	895.54	-42.42447752	-72.15435238	-126.4877418	-83
8738	0	0.372969627	-0.081317902	0.087175369	0.999999046	4.01E-05	-5.34E-05	0.000244141	9.324240685	-2.03294754	2.179384232	0.002002716	-0.002670288	0.012207031	-0.574462891	0.326660156	0.694091797	895.58	-42.4725818	-72.14315153	-126.434546	-84
8739	0	0.373119354	-0.084300041	0.088119507	0.999999046	0.000104904	-0.000283241	0.000396729	9.327983856	-2.10750103	2.202987671	0.005245209	-0.014162064	0.019836427	-0.576660156	0.324462891	0.691650391	895.62	-42.60887537	-72.13932738	-126.2877803	-85
8740	0	0.371518135	-0.083047867	0.089696884	0.999999046	0.000647545	-0.000608444	0.000514984	9.287953377	-2.076196671	2.242422104	0.032377249	-0.030422216	0.025749211	-0.576660156	0.324462891	0.688720703	895.46	-42.7924315	-72.15336014	-126.0283381	-85
8741	0	0.372497559	-0.083557129	0.089050293	0.999998093	0.001046181	-0.001010895	0.000476837	9.312438965	-2.088928223	2.226257324	0.052309057	-0.050544759	0.023841867	-0.574462891	0.328857422	0.688232422	895.48	-43.01878575	-72.20368001	-125.6689313	-84
8742	0	0.374729156	-0.084526062	0.086759567	0.999995232	0.002763748	-0.00128746	0.000352859	9.368228912	-2.11315155	2.168989182	0.138187625	-0.064373117	0.017643003	-0.570068359	0.333007813	0.687744141	895.52	-43.0856856	-72.28646273	-125.2686214	-83
8743	0	0.375549316	-0.080322266	0.087036133	0.999993324	0.003292084	-0.001425743	0.000465393	9.38873291	-2.008056641	2.17590332	0.164604546	-0.071287311	0.023269704	-0.567871094	0.334960938	0.6875	895.46	-43.15771183	-72.37184138	-124.8068508	-82
8744	0	0.375232697	-0.077421188	0.08549881	0.999994278	0.002889633	-0.001366615	0.000392914	9.380817413	-1.935529709	2.137470245	0.144481909	-0.068330883	0.019645725	-0.568115234	0.339599609	0.695556641	895.58	-43.2444985	-72.45788106	-124.3829058	-82
8745	0	0.374938965	-0.076721191	0.084899902	0.999995232	0.002494812	-0.001166344	0.000358582	9.373474121	-1.918029785	2.122497559	0.124740761	-0.058317259	0.0179291	-0.565917969	0.34375	0.689453125	895.54	-43.31956544	-72.5298575	-124.0142825	-83
8746	0	0.375080109	-0.076265335	0.084038734	0.999997139	0.00182724	-0.001033783	0.000320435	9.377002716	-1.906633377	2.100968361	0.091362068	-0.051689187	0.016021741	-0.566162109	0.348144531	0.691894531	895.54	-43.42931189	-72.59376058	-123.688	-80
8747	0	0.379455566	-0.077209473	0.083374023	0.999998093	0.001442909	-0.000934601	8.77E-05	9.48638916	-1.930236816	2.084350586	0.072145498	-0.046730065	0.004386904	-0.563720703	0.350097656	0.688720703	895.52	-43.49768497	-72.66778635	-123.4486768	-80
8748	0	0.377098083	-0.075016975	0.084777832	0.999999046	0.001093864	-0.000608444	-4.77E-06	9.427452087	-1.875424385	2.119445801	0.054693236	-0.030422219	-0.000238419	-0.563964844	0.352294922	0.688720703	895.48	-43.4991975	-72.72209164	-123.3199297	-79
8749	0	0.37487793	-0.074523926	0.084411621	0.999999046	0.000263214	-0.000380516	0.000144958	9.371948242	-1.863098145	2.110290527	0.013160706	-0.019025803	0.007247925	-0.561523438	0.352294922	0.69140625	895.52	-43.57777526	-72.74572617	-123.2111657	-79
8750	0	0.37693119	-0.077032089	0.081600189	0.999999046	-0.000274658	-0.000179291	0.000217438	9.423279762	-1.925802231	2.04000473	-0.013732911	-0.008964539	0.010871887	-0.561523438	0.354492188	0.685546875	895.52	-43.68626552	-72.74704418	-123.1263885	-77
8751	0	0.376586914	-0.075927734	0.081115723	0.999999046	-0.000602722	-0.000102043	0.000274658	9.414672852	-1.898193359	2.027893066	-0.030136111	-0.005102158	0.013732911	-0.561523438	0.352294922	0.688476563	895.54	-43.82771161	-72.7375678	-123.0517961	-76
8752	0	0.377355576	-0.076480865	0.083996773	0.999998093	-0.00151062	0.000138283	0.000408173	9.433889389	-1.912021637	2.099919319	-0.075531037	0.006914142	0.020408639	-0.561767578	0.352294922	0.694091797	895.58	-44.0464909	-72.69765828	-123.0036762	-78
8753	0	0.375671387	-0.076782227	0.084716797	0.999997139	-0.002052307	0.000203133	0.000167847	9.391784668	-1.919555664	2.117919922	-0.10261543	0.010156639	0.00839234	-0.561523438	0.347900391	0.694580078	895.46	-44.24616586	-72.67157605	-123.0436909	-78
8754	0	0.37487793	-0.080123901	0.084418297	0.999998093	-0.001933098	0.000191689	-0.000161171	9.371948242	-2.003097534	2.11045742	-0.096654953	0.009584433	-0.008058553	-0.559082031	0.347900391	0.691650391	895.58	-44.34818164	-72.67273129	-123.1605101	-78
8755	0	0.375732422	-0.081298828	0.085327148	0.999998093	-0.001795769	0.000263214	-0.000209808	9.393310547	-2.032470703	2.133178711	-0.089788487	0.013160713	-0.010490423	-0.561523438	0.345703125	0.694824219	895.66	-44.40309005	-72.67184122	-123.3111943	-77
8756	0	0.375966072	-0.082177162	0.084436417	0.999998093	-0.001836777	0.000231743	-0.000206947	9.399151802	-2.054429054	2.110910416	-0.09183889	0.01158715	-0.010347372	-0.561279297	0.341552734	0.697998047	895.54	-44.47150542	-72.67321648	-123.4564167	-76
8757	0	0.375	-0.083557129	0.084838867	0.999998093	-0.001601219	0.000102997	-0.000133514	9.375	-2.088928223	2.12097168	-0.080060993	0.005149844	-0.006675723	-0.561035156	0.337158203	0.698242188	895.54	-44.56536625	-72.67907082	-123.5506324	-76
8758	0	0.373416901	-0.08116436	0.08416748	0.999999046	-0.000974655	0.000234604	1.14E-05	9.335422516	-2.029109001	2.104187012	-0.048732766	0.011730196	0.000572205	-0.563476563	0.334960938	0.701416016	895.62	-44.59131152	-72.66243397	-123.6451158	-78
8759	0	0.375549316	-0.080993652	0.083435059	0.999999046	-0.000827789	0.000145912	1.53E-05	9.38873291	-2.024841309	2.085876465	-0.04138947	0.007295609	0.00076294	-0.563476563	0.332763672	0.704345703	895.62	-44.62423214	-72.65269452	-123.7177606	-74
8760	0	0.375034332	-0.080838203	0.083348274	0.999999046	-0.001099586	0.000135422	0.000132561	9.375858307	-2.020955086	2.083706856	-0.054979336	0.006771089	0.006628038	-0.563232422	0.332763672	0.698730469	895.54	-44.72148048	-72.63435518	-123.748678	-75
8761	0	0.375793457	-0.081787109	0.083679199	0.999999046	-0.000778198	0.000142097	-5.72E-05	9.394836426	-2.044677734	2.09197998	-0.038909916	0.007104874	-0.002861023	-0.563232422	0.330566406	0.701660156	895.54	-44.73067982	-72.63072009	-123.8364286	-76
8762	0	0.373703957	-0.079005241	0.082562447	0.999999046	-0.000507355	-0.000183105	-0.000256538	9.342598915	-1.975131035	2.064061165	-0.025367738	-0.009155274	-0.01282692	-0.561035156	0.330566406	0.704345703	895.48	-44.74050241	-72.66968478	-123.8878113	-76
8763	0	0.372680664	-0.077270508	0.082763672	0.999999046	-0.000480652	-0.000502586	3.81E-05	9.317016602	-1.931762695	2.069091797	-0.024032595	-0.02512932	0.001907349	-0.560791016	0.330566406	0.701660156	895.66	-44.9064816	-72.71090811	-123.7692155	-77
8764	0	0.374777794	-0.068594933	0.087447166	0.999998093	-0.001340866	-0.000788689	-0.000133514	9.369444847	-1.714873314	2.186179161	-0.067043332	-0.039434449	-0.006675723	-0.563232422	0.328369141	0.701904297	895.54	-45.19974275	-72.78929936	-123.6220254	-79
8765	0	0.377258301	-0.059265137	0.078369141	0.999980927	-0.005999565	0.000160217	-0.000850677	9.43145752	-1.481628418	1.959228516	-0.299980093	0.008010913	-0.042534135	-0.560791016	0.326171875	0.707519531	895.68	-45.58955407	-72.85046445	-123.9137626	-79
8766	0	0.377818108	-0.058215141	0.082736969	0.999973297	-0.007084846	0.000670433	-0.001527786	9.44545269	-1.455378532	2.068424225	-0.354245453	0.033521948	-0.076389987	-0.562744141	0.313232422	0.717285156	895.54	-45.78832195	-72.92746526	-124.5403861	-81
8767	0	0.381958008	-0.043823242	0.085266113	0.999934196	-0.01108551	0.000855446	-0.002677917	9.548950195	-1.095581055	2.131652832	-0.554287596	0.042773226	-0.133898793	-0.564453125	0.300292969	0.715576172	895.58	-46.08688576	-73.08636133	-125.5238228	-83
8768	0	0.383441925	-0.045146942	0.094319344	0.999757767	-0.021125793	0.002411842	-0.005584717	9.586048126	-1.128673553	2.357983589	-1.056374776	0.120601833	-0.279258337	-0.568359375	0.278808594	0.720458984	895.54	-46.32636088	-73.36431026	-127.7303571	-83
8769	0	0.368652344	-0.062561035	0.101257324	0.999613762	-0.02664566	0.00269413	-0.007358551	9.216308594	-1.564025879	2.531433105	-1.332454366	0.134723822	-0.367974871	-0.576171875	0.235595703	0.735839844	895.48	-46.59438833	-73.76951631	-130.5547028	-81
8770	0	0.371442795	-0.091264725	0.103643417	0.999756813	-0.020484924	0.000905991	-0.00803566	9.28606987	-2.281618118	2.591085434	-1.024329031	0.045303193	-0.401815476	-0.5859375	0.185791016	0.74609375	895.58	-46.39536875	-74.37052514	-133.1514507	-79
8771	0	0.363220215	-0.094787598	0.107421875	0.999865532	-0.012634277	0.000226021	-0.010437012	9.080505371	-2.369689941	2.685546875	-0.631742151	0.011301547	-0.521873951	-0.591552734	0.151123047	0.754882813	895.52	-44.62547334	-75.20757309	-136.4437352	-78
8772	0	0.353782654	-0.100516319	0.106263161	0.999900818	-0.008466721	-0.000596046	-0.011166573	8.844566345	-2.512907982	2.656579018	-0.423349911	-0.0298033	-0.558346937	-0.594970703	0.120849609	0.760498047	895.54	-42.06484564	-76.13407169	-140.0566026	-77
8773	0	0.328369141	-0.105712891	0.109802246	0.999944687	-0.001570702	-0.00094223	-0.010269165	8.209228516	-2.642822266	2.745056152	-0.078536504	-0.047112366	-0.513467564	-0.598876953	0.099365234	0.762451172	895.58	-38.71578284	-76.97273989	-143.6716569	-79
8774	0	0.278816223	-0.103824615	0.106075287	0.999938965	0.006018639	-0.002163887	-0.008936882	6.970405579	-2.595615387	2.651882172	0.300937988	-0.108196529	-0.446853096	-0.603271484	0.088623047	0.766357422	895.66	-34.96015348	-77.77390942	-146.8234052	-80
8775	0	0.389709473	-0.143859863	0.099487305	0.999735832	0.01764679	-0.005129814	-0.013736725	9.742736816	-3.596496582	2.487182617	0.88241691	-0.256513216	-0.686896518	-0.605957031	0.093017578	0.774658203	895.62	-27.81312588	-79.08041421	-152.0793869	-74
8776	0	0.485302925	-0.149769783	0.089978218	0.999333382	0.028050423	-0.004434586	-0.02292347	12.13257313	-3.744244576	2.249455452	1.402832675	-0.221778531	-1.146428076	-0.604248047	0.108398438	0.779052734	895.66	-11.82404025	-80.43735285	-165.0833776	-71
8777	0	0.451599121	-0.127868652	0.094177246	0.999428749	0.021640778	-0.003935814	-0.025634766	11.28997803	-3.196716309	2.354431152	1.082244745	-0.196828136	-1.281982141	-0.614013672	0.121582031	0.772949219	895.54	8.532766524	-80.95696584	176.805638	-72
8778	0	0.364566803	-0.110248566	0.107288361	0.99979496	0.012845993	-0.00421524	-0.015060425	9.114170074	-2.756214142	2.682209015	0.642343508	-0.210776415	-0.753072656	-0.621337891	0.126220703	0.772949219	895.54	21.16167693	-80.96132447	165.5170265	-74
8779	0	0.326660156	-0.109985352	0.100891113	0.999883652	0.014306068	-0.004695892	-0.002124786	8.166503906	-2.749633789	2.522277832	0.71533099	-0.234803666	-0.106243414	-0.626220703	0.135009766	0.766845703	895.54	25.41919498	-81.34169311	162.8507759	-72
8780	0	0.341036797	-0.102096558	0.086388588	0.999765396	0.020317078	-0.003365517	0.00658989	8.525919914	-2.55241394	2.159714699	1.015933057	-0.168288948	0.329520157	-0.625244141	0.167724609	0.763916016	895.66	23.92372389	-81.9905154	166.6813602	-79
8781	0	0.344116211	-0.069641113	0.079650879	0.999809265	0.016835213	0.000171661	0.009883881	8.602905273	-1.741027832	1.991271973	0.841814117	0.008583614	0.494225429	-0.629150391	0.213378906	0.749023438	895.54	17.82692072	-82.35604814	174.7748008	-75
8782	0	0.361402512	-0.059093475	0.071857452	0.99992466	0.002971649	0.003540039	0.011292458	9.03506279	-1.477336884	1.79643631	0.148586146	0.177006345	0.56463689	-0.635253906	0.252685547	0.731933594	895.62	7.900156756	-82.22202082	-174.8004495	-72
8783	0	0.406799316	-0.058105469	0.066467285	0.999865532	-0.007640839	0.006199837	0.013092041	10.16998291	-1.452636719	1.661682129	-0.382059012	0.310005696	0.654631317	-0.642822266	0.274658203	0.719238281	895.54	-3.903324414	-81.52923239	-163.6336148	-69
8784	0	0.440705299	-0.0353508	0.061485291	0.99962616	-0.019952774	0.008732796	0.016501427	11.01763248	-0.883769989	1.537132263	-0.997762896	0.436694142	0.825174046	-0.654541016	0.281494141	0.702392578	895.54	-16.80490845	-80.16257425	-152.6925531	-66
8785	0	0.453918457	-0.027954102	0.065185547	0.999170303	-0.033068657	0.009319305	0.021831512	11.34796143	-0.698852539	1.629638672	-1.65388981	0.466094051	1.091877304	-0.663574219	0.279541016	0.688720703	895.54	-30.44105	-78.13516521	-142.4220983	-69
8786	0	0.474729538	-0.044955254	0.086000443	0.999105453	-0.032177925	0.009654045	0.025683403	11.86823845	-1.12388134	2.150011063	-1.609376162	0.482846237	1.284553197	-0.667724609	0.268798828	0.684082031	895.52	-41.57254387	-75.46449965	-134.5630909	-67
8787	0	0.465454102	-0.019348145	0.079223633	0.999365807	-0.024780273	0.010502815	0.023296356	11.63635254	-0.483703613	1.98059082	-1.239275478	0.525251726	1.165063939	-0.671875	0.268798828	0.661621094	895.48	-48.10087607	-72.69053664	-130.5705092	-72
8788	0	0.472099304	0.008853912	0.07092762	0.999690056	-0.020874977	0.008749008	0.010333061	11.8024826	0.221347809	1.773190498	-1.04385658	0.437495558	0.516706384	-0.676513672	0.273193359	0.64453125	895.58	-50.53616252	-71.10895045	-130.4130026	-75
8789	0	0.367431641	-0.015014648	0.095581055	0.999716759	-0.021518707	0.009388924	-0.003746033	9.185791016	-0.375366211	2.389526367	-1.07603675	0.469490418	-0.187319285	-0.687255859	0.260253906	0.629150391	895.48	-49.81747678	-70.72298847	-133.7335514	-79
8790	0	0.333569527	-0.010911942	0.100513458	0.999763489	-0.01727581	0.007294655	-0.010988235	8.339238167	-0.272798538	2.512836456	-0.863858537	0.364761465	-0.549455041	-0.704345703	0.228027344	0.609863281	895.54	-47.57278551	-71.09381773	-138.1976772	-78
8791	0	0.418518066	-0.020019531	0.062805176	0.999860764	-0.005717278	0.005466461	-0.014648438	10.46295166	-0.500488281	1.570129395	-0.285877082	0.273335686	-0.732455711	-0.723632813	0.197998047	0.593505859	895.54	-43.3750029	-71.83307776	-143.3210331	-85
8792	0	0.415496826	-0.012149811	0.05298233	0.999833107	-0.003396034	0.005104065	-0.017156601	10.38742065	-0.30374527	1.324558258	-0.169811107	0.255217368	-0.857877512	-0.736328125	0.172363281	0.576416016	895.68	-37.90269663	-72.65645573	-149.4808219	-82
8793	0	0.33795166	-0.010437012	0.077087402	0.999743462	-0.01404953	0.004281044	-0.017227173	8.448791504	-0.260925293	1.927185059	-0.702536518	0.214070488	-0.861432233	-0.751220703	0.144287109	0.5625	895.62	-33.30233446	-73.39545	-155.9782368	-81
8794	0	0.284552574	-0.036187172	0.068687439	0.999712944	-0.016805649	0.003704071	-0.016669273	7.113814354	-0.904679298	1.717185974	-0.84036285	0.185221275	-0.833543426	-0.758544922	0.100830078	0.552246094	895.54	-28.86988506	-74.00709395	-162.6082253	-77
8795	0	0.280700684	-0.029724121	0.063476563	0.999735832	-0.015293121	0.003079414	-0.016853333	7.01751709	-0.743103027	1.586914063	-0.764723296	0.153984256	-0.842740714	-0.768066406	0.059814453	0.533203125	895.54	-23.90984237	-74.53885017	-169.5877173	-75
8796	0	0.305372238	-0.039290428	0.076358795	0.99967289	-0.018206596	0.002357483	-0.01776123	7.634305954	-0.982260704	1.908969879	-0.910428846	0.117886968	-0.888158128	-0.772949219	0.014160156	0.525878906	895.58	-18.65832431	-75.01557559	-177.1985742	-90
8797	0	0.325195313	-0.052734375	0.084533691	0.99960041	-0.020259857	0.001473427	-0.019641876	8.129882813	-1.318359375	2.113342285	-1.013127709	0.073681148	-0.982224548	-0.777587891	-0.038085938	0.516357422	895.62	-12.58267082	-75.44881924	174.1106276	-73
8798	0	0.354354858	-0.063249588	0.104054451	0.99960804	-0.018901825	0.000930786	-0.020602226	8.85887146	-1.5812397	2.601361275	-0.945214562	0.046545379	-1.030245721	-0.775146484	-0.090576172	0.500488281	895.62	-5.628104134	-75.70621276	164.6859128	-75
8799	0	0.378540039	-0.077819824	0.119567871	0.999653816	-0.017066956	0.00048542	-0.020004272	9.463500977	-1.945495605	2.989196777	-0.853446184	0.02427381	-1.000328965	-0.770507813	-0.140869141	0.487304688	895.62	1.391862514	-75.72358996	155.4152044	-72
8800	0	0.434941292	-0.096173286	0.133575439	0.999717712	-0.012891769	-0.001414299	-0.019879341	10.8735323	-2.404332161	3.339385986	-0.644649011	-0.070721592	-0.994060411	-0.765625	-0.19140625	0.471191406	895.54	8.816609653	-75.67157784	146.2176799	-81
8801	0	0.511169434	-0.120666504	0.143249512	0.99974823	-0.006793022	-0.003913879	-0.021018982	12.77923584	-3.016662598	3.581237793	-0.339679603	-0.195710388	-1.051037267	-0.754394531	-0.233154297	0.45703125	895.58	17.4951237	-75.55279598	136.4418569	-72
8802	0	0.473270416	-0.116642952	0.158371925	0.999780655	-0.005116463	-0.00518322	-0.019609451	11.83176041	-2.916073799	3.959298134	-0.255841796	-0.2591799	-0.980544084	-0.73828125	-0.275390625	0.439697266	895.48	25.66169859	-75.27566079	127.3806054	-70
8803	0	0.435791016	-0.138000488	0.175048828	0.999845505	-0.00524807	-0.004684448	-0.016078949	10.89477539	-3.450012207	4.376220703	-0.262416961	-0.234234438	-0.803988726	-0.72265625	-0.310791016	0.427490234	895.58	31.93016101	-74.86117121	120.2489836	-72
8804	0	0.374938965	-0.163167	0.149108887	0.999969482	0.005702972	7.34E-05	-0.0053339	9.373474121	-4.079174995	3.727722168	0.285151519	0.003671683	-0.266697733	-0.709472656	-0.341796875	0.412353516	895.62	34.24610329	-74.5297407	118.4902307	-76
8805	0	0.384255409	-0.11312294	0.086047173	0.999658585	0.021700859	0.003108978	0.014188766	9.606385231	-2.828073502	2.151179314	1.085166309	0.155466586	0.709518978	-0.708984375	-0.346435547	0.395751953	895.58	30.74994178	-75.11514599	124.6357953	-72
8806	0	0.462935448	-0.063247681	0.058814049	0.998944283	0.0319767	0.004674911	0.032621384	11.57338619	-1.581192017	1.470351219	1.599397388	0.233827796	1.631642918	-0.721679688	-0.315429688	0.388183594	895.52	19.98649589	-76.24739669	139.4586914	-74
8807	0	0.477539063	-0.043212891	0.059570313	0.998332024	0.032844543	0.006539345	0.047019958	11.93847656	-1.080322266	1.489257813	1.643140637	0.32714911	2.352305632	-0.744873047	-0.260253906	0.382080078	895.62	0.90784715	-76.48011163	162.8821511	-81
8808	0	0.364845276	-0.041977882	0.060626984	0.99797821	0.026714325	0.007304192	0.057204247	9.121131897	-1.04944706	1.515674591	1.33661712	0.365455895	2.862141393	-0.780761719	-0.182861328	0.380371094	895.58	-20.8076725	-74.4366487	-171.6077265	-80
8809	0	0.345275879	-0.029418945	0.061157227	0.997757912	0.020336151	0.007519722	0.063308716	8.631896973	-0.735473633	1.528930664	1.017567984	0.376267283	3.167803087	-0.8125	-0.092529297	0.377685547	895.54	-37.21803544	-70.04819717	-152.0099542	-72
8810	0	0.346435547	-0.04473877	0.041137695	0.998030663	0.012443542	0.008106232	0.060935974	8.660888672	-1.118469238	1.028442383	0.622585762	0.405577788	3.048799806	-0.842529297	0.012939453	0.367675781	895.66	-46.81216379	-64.5986259	-140.1208492	-75
8811	0	0.354801178	-0.060786247	0.037407875	0.998510361	0.012055397	0.007326126	0.052680016	8.870029449	-1.519656181	0.935196877	0.603069044	0.366488126	2.635308198	-0.858154297	0.113769531	0.36328125	895.66	-51.68679063	-59.4148603	-133.0686988	-74
8812	0	0.345871925	-0.049185753	0.040167809	0.999014854	0.013314247	0.00869751	0.041422844	8.646798134	-1.229643822	1.004195213	0.665930989	0.43501831	2.071822399	-0.866943359	0.209960938	0.361572266	895.58	-53.43048034	-54.99204281	-129.1962948	-75
8813	0	0.360351563	-0.042419434	0.042053223	0.999533653	0.006034851	0.009228706	0.028461456	9.008789063	-1.06048584	1.051330566	0.301789426	0.461506997	1.423293874	-0.867675781	0.290527344	0.349365234	895.48	-54.19177226	-51.69890771	-127.3937777	-72
8814	0	0.443479538	-0.053594589	0.072013855	0.999876022	-0.001284599	0.007464409	0.01376152	11.08698845	-1.339864731	1.800346375	-0.064232607	0.373235794	0.688104319	-0.872314453	0.344970703	0.347900391	895.68	-54.61946984	-49.89453401	-127.0377702	-75
8815	0	0.471862793	-0.056396484	0.104187012	0.999980927	-0.003863335	0.004447937	0.001834869	11.79656982	-1.409912109	2.604675293	-0.193167959	0.222398262	0.091744051	-0.877929688	0.369140625	0.343505859	895.62	-54.71920056	-49.41623165	-127.4943734	-76
8816	0	0.438594818	-0.067670822	0.146217346	0.99996376	0.001628876	-0.000718117	-0.008228302	10.96487045	-1.691770554	3.655433655	0.081444749	-0.035906262	-0.41141996	-0.887695313	0.374023438	0.349121094	895.54	-53.95754153	-50.22781505	-128.2520471	-69
8817	0	0.460021973	-0.053466797	0.145263672	0.999664307	0.01157093	-0.004020691	-0.022815704	11.50054932	-1.336669922	3.631591797	0.578611207	-0.201057022	-1.140912759	-0.901367188	0.363525391	0.356445313	895.54	-51.08439963	-52.5907601	-130.2321422	-67
8818	0	0.383982658	-0.026697159	0.131933212	0.999278069	0.002513885	-0.007545471	-0.037130356	9.59956646	-0.66742897	3.298330307	0.125724501	-0.377364285	-1.856964239	-0.918457031	0.324951172	0.360595703	895.52	-47.81591773	-56.40257481	-133.8885841	-68
8819	0	0.362426758	-0.03527832	0.155090332	0.998947144	-0.007021904	-0.009124756	-0.044395447	9.060668945	-0.881958008	3.877258301	-0.351218406	-0.456397896	-2.220551301	-0.943603516	0.251953125	0.379394531	895.52	-44.01039938	-60.80718308	-139.2807959	-65
8820	0	0.455301285	-0.060829163	0.13688755	0.99889183	-0.002887726	-0.007874489	-0.04629612	11.38253212	-1.520729065	3.422188759	-0.144439615	-0.39386985	-2.315660875	-0.958984375	0.163330078	0.407226563	895.54	-37.58308761	-64.98567117	-146.8605473	-65
8821	0	0.430725098	-0.028503418	0.09362793	0.999013901	-0.005221367	-0.00334549	-0.043960571	10.76812744	-0.712585449	2.340698242	-0.261154181	-0.167329473	-2.198751253	-0.969482422	0.072265625	0.420898438	895.58	-28.86365604	-68.09837523	-157.0051238	-66
8822	0	0.314454079	-0.010746002	0.083648682	0.998884201	-0.026610374	-0.000699043	-0.038996696	7.861351967	-0.268650055	2.091217041	-1.331013583	-0.034965163	-1.950560026	-0.975097656	-0.019042969	0.428710938	895.62	-21.29184374	-70.09011713	-168.3643617	-67
8823	0	0.267840385	-0.027630806	0.06603241	0.998365402	-0.045567513	0.001274109	-0.03446579	6.696009636	-0.690770149	1.650810242	-2.279617614	0.063740171	-1.72422889	-0.972900391	-0.121582031	0.428466797	895.52	-15.58570288	-71.21603717	-179.9395389	-69
8824	0	0.281253815	-0.070988655	0.05205822	0.997883797	-0.055766106	0.004077911	-0.033184052	7.031345367	-1.774716377	1.301455498	-2.790273702	0.20403951	-1.660373899	-0.968017578	-0.230712891	0.406005859	895.58	-10.51642952	-71.6256356	167.9739874	-72
8825	0	0.325561523	-0.112792969	0.066467285	0.998080254	-0.051528931	0.005723	-0.033863068	8.139038086	-2.819824219	1.661682129	-2.578096027	0.286333178	-1.694237373	-0.955566406	-0.342529297	0.368896484	895.48	-4.516796462	-71.48074816	155.4264925	-66
8826	0	0.372667313	-0.14121151	0.100856781	0.998748779	-0.034846306	0.005135536	-0.035484314	9.316682816	-3.530287743	2.521419525	-1.74304201	0.256883911	-1.774955721	-0.941162109	-0.445800781	0.322509766	895.54	3.540736443	-70.91733769	142.6983961	-74
8827	0	0.389038086	-0.149841309	0.127868652	0.999102592	-0.018058777	0.002034187	-0.038246155	9.725952148	-3.746032715	3.196716309	-0.903208893	0.101739785	-1.91287967	-0.916015625	-0.531982422	0.288330078	895.58	13.65274735	-70.01705546	129.7749893	-68
8828	0	0.474890709	-0.176769257	0.149506569	0.999164581	-0.002239227	-0.002911568	-0.040699005	11.87226772	-4.419231415	3.737664223	-0.111992549	-0.145618932	-2.035517043	-0.879882813	-0.611572266	0.278808594	895.58	25.40775951	-68.75748602	116.9421804	-67
8829	0	0.493164063	-0.18939209	0.168762207	0.999236107	0.013271332	-0.004023552	-0.036514282	12.32910156	-4.734802246	4.219055176	0.663735429	-0.201228785	-1.826178652	-0.835205078	-0.680419922	0.293457031	895.58	36.32616234	-66.99934602	106.7914827	-66
8830	0	0.512311935	-0.167765617	0.161092758	0.999546051	0.018252373	-0.006543159	-0.023019791	12.80779839	-4.194140434	4.027318954	0.912756479	-0.327207388	-1.151163378	-0.794189453	-0.727539063	0.326171875	895.52	44.08883228	-65.87807088	100.5870554	-66
8831	0	0.415222168	-0.146057129	0.184692383	0.999853134	0.016747475	-0.002433777	0.002670288	10.3805542	-3.651428223	4.61730957	0.837414705	-0.121694797	0.133520937	-0.7734375	-0.738769531	0.371582031	895.62	45.87504429	-66.3101917	100.7039815	-68
8832	0	0.346539497	-0.090003967	0.134978294	0.999351501	0.021036148	0.000933647	0.029178619	8.663487434	-2.250099182	3.374457359	1.052034513	0.046692438	1.459245986	-0.803466797	-0.706787109	0.410400391	895.48	42.19686695	-68.58244286	107.2588602	-65
8833	0	0.476928711	-0.053710938	0.076904297	0.998319626	0.03110981	0.003940582	0.048721313	11.92321777	-1.342773438	1.922607422	1.556362138	0.197139522	2.437430762	-0.861328125	-0.621826172	0.440673828	895.52	32.53780014	-71.65505168	121.269365	-62
8834	0	0.53800869	-0.038059235	0.066512108	0.997297287	0.038937569	0.00821209	0.061758995	13.45021725	-0.951480865	1.662802696	1.94863416	0.410974767	3.090734517	-0.935058594	-0.486328125	0.476074219	895.48	14.63730317	-73.67414998	144.6335566	-67
8835	0	0.427001953	-0.004394531	0.087402344	0.996728897	0.03280735	0.01260376	0.07276535	10.67504883	-0.109863281	2.185058594	1.642158034	0.630875863	3.642238829	-1.000976563	-0.312011719	0.485351563	895.52	-9.777321905	-72.52928389	174.0040185	-64
8836	0	0.38465023	0.018088341	0.084456444	0.996437073	0.011192322	0.01365757	0.082462311	9.61625576	0.452208519	2.111411095	0.560281536	0.683690515	4.128018396	-1.053222656	-0.114257813	0.469238281	895.48	-31.67274812	-67.56721838	-161.4157879	-66
8837	0	0.413269043	-0.003967285	0.057739258	0.996254921	-0.008789063	0.012093544	0.085159302	10.33172607	-0.099182129	1.443481445	-0.440002505	0.605433134	4.263288161	-1.070556641	0.082275391	0.448486328	895.62	-46.50230966	-60.22467434	-146.0845389	-66
8838	0	0.421497345	-0.028642654	0.031414986	0.996612549	-0.015267372	0.010905266	0.080065727	10.53743362	-0.71606636	0.785374641	-0.76423162	0.545879729	4.007812211	-1.054443359	0.266845703	0.423828125	895.58	-55.50036552	-52.24137735	-137.4063173	-64
8839	0	0.398376465	-0.04864502	0.036499023	0.997484207	-0.008749962	0.011074066	0.069461823	9.959411621	-1.216125488	0.912475586	-0.437865265	0.554168007	3.476005937	-1.007568359	0.430664063	0.410888672	895.62	-60.11733537	-44.78994667	-132.6062321	-65
8840	0	0.404824257	-0.049854279	0.05450058	0.998485565	0.001497269	0.011713982	0.053718567	10.12060642	-1.246356964	1.362514496	0.074901231	0.585994788	2.687284411	-0.947998047	0.572265625	0.393066406	895.62	-61.59435428	-38.7405678	-130.1466353	-69
8841	0	0.413330078	-0.06640625	0.085998535	0.999335289	0.011047363	0.012162209	0.032535553	10.33325195	-1.66015625	2.149963379	0.552490543	0.608245157	1.627138067	-0.891113281	0.674804688	0.358886719	895.48	-60.77068927	-34.79970296	-129.4221515	-69
8842	0	0.367395401	-0.053697586	0.127149582	0.99971962	0.018410683	0.009467125	0.011480331	9.184885025	-1.342439651	3.178739548	0.92062013	0.473400468	0.574070196	-0.855957031	0.740722656	0.314697266	895.62	-58.48500968	-33.12655418	-129.7495765	-68
8843	0	0.367614746	-0.044128418	0.145141602	0.999591827	0.025830269	0.00296402	-0.011829376	9.190368652	-1.103210449	3.628540039	1.291689137	0.14822115	-0.591549273	-0.846679688	0.768310547	0.260742188	895.62	-54.84077366	-34.09482254	-130.9897482	-67
8844	0	0.412086487	-0.03592205	0.130760193	0.998972893	0.02011013	-0.007598877	-0.039884567	10.30216217	-0.898051262	3.269004822	1.005850874	-0.380073968	-1.994911332	-0.873046875	0.749267578	0.218261719	895.52	-51.01771733	-38.30401958	-133.5487574	-64
8845	0	0.340576172	-0.031066895	0.181091309	0.998155594	-0.005003929	-0.0193367	-0.057327271	8.514404297	-0.776672363	4.527282715	-0.25035039	-0.967429865	-2.86812705	-0.935302734	0.675292969	0.221923828	895.54	-49.34711862	-44.81799185	-136.9091137	-66
8846	0	0.428991318	-0.0739851	0.20574379	0.997228622	-0.009423256	-0.027550697	-0.068455696	10.72478294	-1.849627495	5.143594742	-0.471598453	-1.378808592	-3.425949654	-1.000732422	0.549316406	0.270019531	895.66	-47.09958302	-52.83286213	-141.3003342	-63
8847	0	0.560119629	-0.120849609	0.164855957	0.996666908	3.81E-05	-0.024603844	-0.077777863	14.00299072	-3.021240234	4.121398926	0.00190947	-1.231560723	-3.893219362	-1.053466797	0.390380859	0.336914063	895.58	-40.06660996	-61.10219518	-149.6366145	-63
8848	0	0.434923172	-0.048049927	0.105634689	0.997233391	-0.006415367	-0.015590668	-0.072384834	10.8730793	-1.201248169	2.640867233	-0.321064402	-0.780252839	-3.622582013	-1.086914063	0.221923828	0.383789063	895.54	-28.53768564	-67.34950897	-163.2089041	-66
8849	0	0.301940918	-0.008666992	0.094177246	0.997237206	-0.040611267	-0.009287834	-0.06149292	7.548522949	-0.216674805	2.354431152	-2.03243508	-0.464819774	-3.077480133	-1.099365234	0.056884766	0.420654297	895.52	-16.8851198	-71.13271202	179.3875993	-68
8850	0	0.273406029	-0.05266571	0.08285141	0.997027397	-0.058832169	-0.004192352	-0.049572945	6.835150719	-1.316642761	2.071285248	-2.944526598	-0.209825562	-2.481106129	-1.08984375	-0.115478516	0.428710938	895.58	-6.563700095	-72.79470487	161.4582283	-63
8851	0	0.341247559	-0.112182617	0.095581055	0.997426987	-0.056330681	0.000587463	-0.044326782	8.531188965	-2.80456543	2.389526367	-2.818951695	0.029398382	-2.21824157	-1.073730469	-0.270751953	0.412109375	895.62	3.687497346	-72.85286592	143.9837209	-61
8852	0	0.436750412	-0.172182083	0.105558395	0.998445511	-0.032779694	0.004597664	-0.04483223	10.9187603	-4.304552078	2.638959885	-1.6398342	0.230002347	-2.242773354	-1.048339844	-0.411376953	0.368164063	895.58	15.59971455	-71.4415952	127.5316501	-66
8853	0	0.427978516	-0.165893555	0.109924316	0.998808861	-0.011665344	0.006230354	-0.046951294	10.69946289	-4.147338867	2.74810791	-0.583498757	0.311641381	-2.348496631	-1.012695313	-0.523925781	0.338623047	895.54	27.49933312	-68.75760356	113.467357	-59
8854	0	0.450544357	-0.144524574	0.126826286	0.998892784	-0.008464813	0.002855301	-0.046189308	11.26360893	-3.613114357	3.170657158	-0.423396941	0.14281776	-2.310318165	-0.963867188	-0.621582031	0.309814453	895.48	36.83623077	-65.62492604	102.2946064	-60
8855	0	0.529174805	-0.17175293	0.136413574	0.99925518	-0.012283325	-0.000342369	-0.036556244	13.22937012	-4.293823242	3.410339355	-0.614318609	-0.0171227	-1.8282656	-0.913085938	-0.710693359	0.294433594	895.52	42.20667888	-62.97026022	94.77044962	-62
8856	0	0.493865967	-0.139785767	0.130411148	0.999686241	-0.019972801	-0.004959106	-0.01424408	12.34664917	-3.494644165	3.260278702	-0.998744348	-0.247981216	-0.712278354	-0.870605469	-0.773193359	0.271728516	895.54	42.96396803	-62.28203681	91.32918537	-60
8857	0	0.430358887	-0.12097168	0.162963867	0.999505043	-0.029846191	-0.006873131	0.007156372	10.75897217	-3.024291992	4.07409668	-1.492555724	-0.343713225	0.357877625	-0.859863281	-0.793457031	0.241455078	895.52	39.3098274	-63.42145659	91.57500802	-58
8858	0	0.343986511	-0.183926582	0.132014275	0.999570847	-0.011588097	-0.00719738	0.025915146	8.599662781	-4.598164558	3.300356865	-0.579487687	-0.359920465	1.29594259	-0.883056641	-0.779785156	0.201660156	895.52	33.91856102	-65.8704719	96.04187199	-66
8859	0	0.457214355	-0.156494141	0.08782959	0.998551369	0.02822113	-0.007693291	0.045143127	11.43035889	-3.912353516	2.195739746	1.411737893	-0.384850283	2.258246313	-0.930175781	-0.715087891	0.210449219	895.52	27.32533007	-69.29815136	106.6242361	-57
8860	0	0.551527023	-0.066177368	0.07877636	0.996155739	0.060322762	-0.005645752	0.063257217	13.78817558	-1.654434204	1.969408989	3.020008182	-0.28264981	3.16691924	-0.997070313	-0.590332031	0.263427734	895.48	15.09090776	-72.5894355	126.8179357	-58
8861	0	0.44732666	-0.001403809	0.077331543	0.995269775	0.059189796	8.77E-05	0.077033997	11.1831665	-0.035095215	1.933288574	2.964164822	0.004393832	3.857784221	-1.064453125	-0.398193359	0.328125	895.52	-7.296233628	-73.19509736	157.2645324	-60
8862	0	0.392126083	0.005517006	0.075594902	0.995467186	0.040622711	0.003152847	0.085929871	9.803152084	0.137925148	1.889872551	2.034209715	0.157880959	4.302996341	-1.109375	-0.178466797	0.360839844	895.52	-30.40623675	-69.52414992	-173.5157804	-63
8863	0	0.409057617	0.006347656	0.056518555	0.99568367	0.022042274	0.005226135	0.089996338	10.22644043	0.158691406	1.412963867	1.103701882	0.261683309	4.50630118	-1.123535156	0.05078125	0.354248047	895.52	-45.54417738	-62.5678364	-154.2568584	-62
8864	0	0.419275284	-0.016310692	0.048402786	0.996112823	0.012639999	0.006579399	0.086915016	10.4818821	-0.407767296	1.210069656	0.632819935	0.329396766	4.351389046	-1.095214844	0.269775391	0.346191406	895.58	-53.75005201	-54.41061354	-142.9760816	-57
8865	0	0.434082031	-0.022644043	0.045349121	0.9969244	0.011013031	0.009167671	0.077041626	10.85205078	-0.566101074	1.133728027	0.551216682	0.458853997	3.856034675	-1.035644531	0.463623047	0.330078125	895.52	-57.50329197	-46.48931427	-136.4956238	-60
8866	0	0.452785492	-0.036038399	0.049751282	0.998123169	0.008364677	0.012879372	0.059278488	11.3196373	-0.900959969	1.243782043	0.418495695	0.64437172	2.965779887	-0.958251953	0.626464844	0.309570313	895.58	-58.75105857	-39.92644186	-133.28676	-60
8867	0	0.438964844	-0.05065918	0.071228027	0.999202728	0.008202553	0.014095306	0.036430359	10.97412109	-1.266479492	1.780700684	0.410236616	0.704952585	1.822001944	-0.896972656	0.733154297	0.2890625	895.52	-58.43661289	-35.52624499	-132.2776395	-63
8868	0	0.366663933	-0.015076637	0.120908737	0.999774933	0.008142471	0.012173653	0.015294075	9.16659832	-0.376915932	3.02271843	0.407153998	0.608728131	0.764760912	-0.854980469	0.794921875	0.264648438	895.58	-57.33548575	-33.3185855	-132.583685	-70
8869	0	0.356567383	-0.003967285	0.151367188	0.999869347	0.010566711	0.006711006	-0.0102005	8.91418457	-0.099182129	3.784179688	0.528358534	0.335564892	-0.510047191	-0.846191406	0.816162109	0.245361328	895.52	-55.26336219	-33.89504448	-134.1356129	-70
8870	0	0.403055191	-0.017015457	0.148049355	0.999103546	0.00373745	-0.006329536	-0.041678429	10.07637978	-0.425386429	3.701233864	0.186928313	-0.316571373	-2.084544028	-0.882080078	0.791259766	0.229492188	895.58	-53.21459038	-38.24030549	-136.8646213	-64
8871	0	0.366943359	-0.04510498	0.203796387	0.997885704	-0.007602692	-0.016860008	-0.062301636	9.173583984	-1.127624512	5.094909668	-0.380402679	-0.843594952	-3.117278752	-0.953613281	0.702392578	0.263427734	895.48	-51.53380949	-45.13312746	-140.6633243	-66
8872	0	0.479567528	-0.060201645	0.20321846	0.997012138	-0.009364128	-0.023225784	-0.07307148	11.98918819	-1.505041122	5.080461502	-0.468673258	-1.162447145	-3.657216994	-1.025634766	0.561279297	0.321533203	895.52	-48.68655321	-53.33829688	-145.7917366	-63
8873	0	0.559082031	-0.071533203	0.143859863	0.99667263	-0.008140564	-0.019499779	-0.078712463	13.97705078	-1.788330078	3.596496582	-0.407480142	-0.976071515	-3.939993084	-1.089355469	0.387451172	0.390380859	895.68	-42.09862379	-61.42282456	-154.6620489	-63
8874	0	0.401733398	-0.044115067	0.114982605	0.997013092	-0.017649651	-0.008700371	-0.074677467	10.04333496	-1.102876663	2.874565125	-0.883362069	-0.435452107	-3.73759479	-1.124267578	0.199462891	0.438964844	895.58	-30.77869352	-67.41503615	-169.3942614	-65
8875	0	0.30871582	-0.033935547	0.073486328	0.996883392	-0.042456627	-0.002338409	-0.066444397	7.717895508	-0.848388672	1.837158203	-2.125039224	-0.117042076	-3.325675169	-1.135253906	0.008300781	0.460693359	895.54	-17.38595603	-70.85313956	171.11604	-64
8876	0	0.313698769	-0.054349899	0.057638168	0.997020721	-0.050632477	0.001307487	-0.058162689	7.842469215	-1.358747482	1.440954208	-2.534140373	0.065439359	-2.91102526	-1.126953125	-0.185791016	0.461914063	895.54	-3.268209176	-71.92955548	150.1320496	-64
8877	0	0.385070801	-0.125305176	0.073425293	0.997290611	-0.048866272	0.005391121	-0.054706573	9.62677002	-3.132629395	1.835632324	-2.445521946	0.269799679	-2.737800955	-1.100341797	-0.363525391	0.435302734	895.54	9.968697677	-70.91797873	130.2894463	-65
8878	0	0.465132713	-0.17508316	0.075124741	0.997981071	-0.035058975	0.008249283	-0.052295685	11.62831783	-4.37707901	1.878118515	-1.754128891	0.412741823	-2.616544581	-1.060058594	-0.528564453	0.386962891	895.56	21.03812319	-68.35311784	114.2146319	-72
8879	0	0.47467041	-0.155639648	0.090576172	0.998416901	-0.025568962	0.006565094	-0.0496521	11.86676025	-3.890991211	2.264404297	-1.279122851	0.328427948	-2.483915263	-1.006835938	-0.661376953	0.332275391	895.54	29.47175371	-65.19666493	101.8604701	-78
8880	0	0.481715202	-0.182361603	0.126330376	0.998699188	-0.026990891	0.002720833	-0.043160439	12.04288006	-4.55904007	3.158259392	-1.350129728	0.136100633	-2.158957709	-0.9453125	-0.78125	0.302001953	895.54	34.59420138	-62.27411672	92.70452414	-77
8881	0	0.43347168	-0.205627441	0.131164551	0.99948597	-0.020851135	-0.001688957	-0.024288177	10.83679199	-5.140686035	3.27911377	-1.04273539	-0.08446233	-1.214616946	-0.884765625	-0.875244141	0.269287109	895.52	36.59561025	-60.7941943	87.70268458	-69
8882	0	0.452741623	-0.174987793	0.142834663	0.999909401	-0.01083374	-0.007158279	-0.00343895	11.31854057	-4.374694824	3.570866585	-0.541703303	-0.357924735	-0.171952651	-0.852050781	-0.926513672	0.257568359	895.48	36.79086365	-61.21153133	86.04625126	-68
8883	0	0.393005371	-0.200134277	0.131103516	0.999778748	0.007443428	-0.007328033	0.018241882	9.825134277	-5.003356934	3.277587891	0.372198816	-0.366428661	0.912161301	-0.854492188	-0.94140625	0.290283203	895.52	35.33451712	-63.12636902	88.63613144	-68
8884	0	0.413424492	-0.153676033	0.082457542	0.998324394	0.039416313	-0.008275986	0.041544914	10.3356123	-3.841900826	2.06143856	1.971917073	-0.414030543	2.078406606	-0.904052734	-0.899902344	0.36328125	895.48	32.48151343	-66.59104712	96.74584527	-72
8885	0	0.549255371	-0.085327148	0.047851563	0.995809555	0.068741798	-0.006996155	0.059906006	13.73138428	-2.133178711	1.196289063	3.441898834	-0.350297164	2.999491088	-0.986328125	-0.776367188	0.505615234	895.58	25.88057476	-70.69280601	112.2564204	-66
8886	0	0.573962212	-0.001038551	0.04750061	0.994178772	0.078953743	-0.001059532	0.073295593	14.34905529	-0.025963783	1.187515259	3.955364156	-0.053079631	3.671906504	-1.078613281	-0.536621094	0.672851563	895.52	9.948451113	-73.47278592	138.4743342	-68
8887	0	0.420288086	0.023864746	0.070800781	0.994768143	0.058995247	0.004878998	0.083251953	10.50720215	0.596618652	1.770019531	2.954916778	0.24437617	4.169871407	-1.154052734	-0.221923828	0.764892578	895.54	-14.93567342	-72.44407125	171.5234368	-75
8888	0	0.401988029	0.031816483	0.073367119	0.994931221	0.035944939	0.006818771	0.09365654	10.04970074	0.795412064	1.834177971	1.80028918	0.341515684	4.690753739	-1.175537109	0.112304688	0.775634766	895.54	-36.40634698	-66.90479599	-161.2489751	-62
8889	0	0.42388916	0.01385498	0.043151855	0.995396614	0.011997223	0.008622169	0.094688416	10.597229	0.346374512	1.078796387	0.600783165	0.431771113	4.741697847	-1.125244141	0.428222656	0.741455078	895.52	-49.32609295	-58.68354205	-145.2193397	-60
8890	0	0.426765442	-0.026628494	0.022424698	0.996251106	0.000329971	0.009613037	0.085968971	10.66913605	-0.665712357	0.560617447	0.016519212	0.481253351	4.303827709	-1.016357422	0.681396484	0.700439453	895.48	-56.41752688	-50.11098274	-136.4762954	-68
8891	0	0.421813965	-0.047119141	0.031494141	0.997326851	0.000816345	0.010727882	0.07226944	10.54534912	-1.177978516	0.787353516	0.040853666	0.536872537	3.616694896	-0.878662109	0.864013672	0.658203125	895.48	-59.82795206	-42.40742025	-131.6441465	-63
8892	0	0.421496391	-0.051906586	0.052053452	0.998601913	0.005191803	0.012957573	0.050983429	10.53740978	-1.297664642	1.301336288	0.259711191	0.64818074	2.550360077	-0.745605469	0.985351563	0.609863281	895.52	-60.57807403	-36.60027165	-129.5433935	-61
8893	0	0.431335449	-0.065612793	0.084289551	0.999491692	0.010040283	0.013161659	0.027217865	10.78338623	-1.640319824	2.10723877	0.50209911	0.658194322	1.361123538	-0.654296875	1.056152344	0.553710938	895.52	-59.60980219	-33.16258464	-129.2373282	-60
8894	0	0.369865417	-0.041627884	0.136994362	0.999836922	0.012601852	0.011018753	0.006715775	9.246635437	-1.040697098	3.424859047	0.63012679	0.550967529	0.335806936	-0.610351563	1.086914063	0.494628906	895.5	-57.73677865	-31.87936364	-130.041288	-62
8895	0	0.420471191	-0.026672363	0.129699707	0.999794006	0.006550789	-0.000499725	-0.019199371	10.51177979	-0.666809082	3.242492676	0.327561927	-0.024987982	-0.960034461	-0.606933594	1.088378906	0.4375	895.54	-56.240048	-33.8011633	-131.4089593	-62
8896	0	0.363512039	-0.052138329	0.176391602	0.999014854	-0.003663063	-0.010906219	-0.042859077	9.08780098	-1.303458214	4.409790039	-0.183213319	-0.54549011	-2.143657837	-0.651611328	1.046386719	0.429199219	895.48	-55.38177681	-38.62359543	-133.5471902	-59
8897	0	0.351867676	-0.063232422	0.186340332	0.99815464	-0.011592865	-0.016123772	-0.057380676	8.796691895	-1.580810547	4.658508301	-0.580000024	-0.806684798	-2.870799724	-0.730224609	0.966308594	0.454345703	895.62	-54.65926166	-45.13832844	-136.5840593	-57
8898	0	0.485224724	-0.071324348	0.144683838	0.997385979	-0.008378983	-0.020025253	-0.068917274	12.1306181	-1.783108711	3.617095947	-0.419314529	-1.002135952	-3.448869156	-0.819335938	0.849853516	0.5	895.48	-52.27750621	-52.93298767	-140.9637627	-55
8899	0	0.504699707	-0.089233398	0.121826172	0.997105598	-0.004032135	-0.016055107	-0.074203491	12.61749268	-2.230834961	3.045654297	-0.201801478	-0.80353072	-3.713758137	-0.903076172	0.713623047	0.552490234	895.54	-46.3014612	-60.6768027	-148.5940819	-57
8900	0	0.357177734	-0.046020508	0.11126709	0.997541428	-0.011173248	-0.010073662	-0.068439484	8.929443359	-1.150512695	2.781677246	-0.559120626	-0.504096208	-3.424780865	-0.983642578	0.566162109	0.574707031	895.44	-37.09718839	-66.85989658	-160.2247958	-57
8901	0	0.294552803	-0.051225662	0.085011482	0.997946739	-0.021875381	-0.006768227	-0.059782028	7.363820076	-1.280641556	2.125287056	-1.094517541	-0.338642907	-2.991146856	-1.033691406	0.409179688	0.613037109	895.66	-25.10841689	-71.15712576	-175.7003675	-58
8902	0	0.337292671	-0.043504715	0.055054665	0.998197556	-0.027709007	-0.003575325	-0.053110123	8.43231678	-1.087617874	1.376366615	-1.386283274	-0.178873722	-2.657102583	-1.062744141	0.255615234	0.644042969	895.44	-10.13113223	-73.45421336	165.2935035	-57
8903	0	0.427612305	-0.096435547	0.06854248	0.997833252	-0.040251732	-0.001266479	-0.052021027	10.69030762	-2.410888672	1.713562012	-2.014041172	-0.063369741	-2.602931216	-1.072753906	0.103515625	0.656982422	895.48	5.954076316	-73.82858255	143.7752567	-61
8904	0	0.491312027	-0.134087563	0.081731796	0.997671127	-0.044185638	0.001690865	-0.051920891	12.28280067	-3.352189064	2.043294907	-2.210998081	0.084608901	-2.598061135	-1.072509766	-0.070800781	0.659912109	895.58	20.10455756	-72.25598927	123.7282169	-63
8905	0	0.469787598	-0.152587891	0.117248535	0.997725487	-0.042434692	0.002625465	-0.0522995	11.74468994	-3.814697266	2.931213379	-2.12334436	0.131372865	-2.616958933	-1.055419922	-0.243652344	0.636230469	895.52	30.64064322	-69.35369015	107.4478364	-60
8906	0	0.502717018	-0.188861847	0.144363403	0.998251915	-0.029661179	0.001340866	-0.051101685	12.56792545	-4.721546173	3.609085083	-1.483923668	0.067082396	-2.556574042	-1.022216797	-0.40625	0.596679688	895.52	38.81087467	-65.83531536	94.94222243	-58
8907	0	0.495483398	-0.231262207	0.134765625	0.999160767	-0.013472557	0.000419617	-0.038661957	12.38708496	-5.781555176	3.369140625	-0.673816211	0.020986702	-1.933638365	-0.971679688	-0.541015625	0.565185547	895.62	44.13995549	-62.83222687	87.30905461	-57
8908	0	0.473778725	-0.205714226	0.167758942	0.999929428	0.001886368	-0.001297951	-0.011649132	11.84446812	-5.142855644	4.193973541	0.094320606	-0.064899062	-0.582470272	-0.928710938	-0.612304688	0.540039063	895.54	46.34472671	-61.97490312	85.04729445	-58
8909	0	0.354553223	-0.140441895	0.16229248	0.999687195	0.019963264	-9.54E-05	0.015010834	8.863830566	-3.511047363	4.057312012	0.998267039	-0.004768868	0.750619749	-0.916992188	-0.612792969	0.539550781	895.54	46.32025428	-63.22097792	87.63035718	-58
8910	0	0.398040771	-0.097229004	0.092811584	0.998620987	0.036709785	0.001784325	0.037464142	9.951019287	-2.430725098	2.320289612	1.836332917	0.089257239	1.874068072	-0.931396484	-0.549072266	0.549316406	895.52	43.75130947	-66.12208068	95.10186128	-58
8911	0	0.499023438	-0.054870605	0.073181152	0.997502327	0.04434967	0.004990578	0.05474472	12.47558594	-1.371765137	1.829528809	2.21933143	0.249736826	2.73951706	-0.969726563	-0.427734375	0.575683594	895.54	35.9349422	-69.73548875	108.9879736	-60
8912	0	0.445924759	0.00424099	0.072864532	0.996900558	0.039577484	0.009516716	0.067316055	11.14811897	0.106024742	1.821613312	1.980920921	0.476327949	3.369283955	-1.013671875	-0.267333984	0.576171875	895.54	18.78806024	-72.36580915	131.8624872	-61
8913	0	0.365905762	0.013977051	0.077514648	0.996691704	0.022613525	0.010914803	0.077289581	9.147644043	0.34942627	1.937866211	1.131924515	0.546342614	3.868745378	-1.048583984	-0.093994141	0.555419922	895.52	-6.909878115	-72.01492211	161.5011433	-62
8914	0	0.375727654	0.003223419	0.075407982	0.996326447	0.008131981	0.009305	0.08473587	9.393191338	0.08058548	1.885199547	0.407097615	0.465820504	4.241988662	-1.067382813	0.089355469	0.524414063	895.54	-30.49515213	-67.75971804	-172.4744817	-62
8915	0	0.45123291	-0.00994873	0.050292969	0.996324539	-0.003428459	0.008666992	0.085147858	11.28082275	-0.248718262	1.257324219	-0.171633276	0.433881283	4.26261625	-1.051269531	0.271484375	0.494384766	895.58	-45.70376525	-60.86307459	-156.1014156	-63
8916	0	0.474854469	-0.018877983	0.023639679	0.996743202	-0.010352135	0.008644104	0.079504013	11.87136173	-0.471949577	0.590991974	-0.518169363	0.432674998	3.979521615	-1.011474609	0.442138672	0.466796875	895.58	-54.75262622	-53.18495199	-146.7754454	-60
8917	0	0.423461914	-0.032897949	0.025695801	0.997538567	-0.009708405	0.008763313	0.068885803	10.58654785	-0.82244873	0.64239502	-0.485818855	0.438525487	3.447118619	-0.942626953	0.587890625	0.451171875	895.54	-59.90464492	-45.985672	-141.5014253	-66
8918	0	0.430155754	-0.044032097	0.041671753	0.998638153	-0.005423546	0.008580208	0.051161766	10.75389385	-1.100802422	1.041793823	-0.271300402	0.429205155	2.559249631	-0.872314453	0.698486328	0.427001953	895.52	-62.39003575	-40.3853268	-138.8004461	-61
8919	0	0.415222168	-0.075256348	0.076293945	0.999560356	0.003124237	0.006497383	0.028739929	10.3805542	-1.881408691	1.907348633	0.15623472	0.324916712	1.437206814	-0.814453125	0.770507813	0.406738281	895.56	-62.73174067	-37.14400546	-137.7000195	-58
8920	0	0.336580276	-0.082148552	0.170398712	0.999771118	0.019128799	0.00467968	0.008255959	8.414506912	-2.053713799	4.259967804	0.956512672	0.234001779	0.412829305	-0.782958984	0.80859375	0.381835938	895.54	-60.52719248	-36.09018922	-137.7290215	-60
8921	0	0.389953613	-0.056274414	0.152648926	0.999376297	0.029568672	-0.001842499	-0.019187927	9.748840332	-1.406860352	3.816223145	1.478740773	-0.092144079	-0.959595689	-0.782470703	0.823242188	0.323730469	895.56	-56.40038747	-38.11940044	-138.9463437	-63
8922	0	0.360490799	-0.046432495	0.162330627	0.998857498	0.017519951	-0.013197899	-0.042438507	9.012269974	-1.160812378	4.058265686	0.87633108	-0.660146199	-2.12273328	-0.824951172	0.793945313	0.282958984	895.5	-53.02743728	-43.01805251	-141.0238575	-57
8923	0	0.3359375	-0.011535645	0.190979004	0.998270988	-0.00825119	-0.021109581	-0.054218292	8.3984375	-0.288391113	4.774475098	-0.412797329	-1.05608748	-2.712477317	-0.884521484	0.7109375	0.287353516	895.54	-51.99590352	-49.48434321	-143.7367613	-54
8924	0	0.485895157	-0.041846275	0.173921585	0.997698784	-0.014216423	-0.023124695	-0.062130928	12.14737892	-1.046156883	4.348039627	-0.711366902	-1.157122469	-3.108931529	-0.943603516	0.595947266	0.348388672	895.54	-50.37246689	-56.76882336	-147.7684404	-58
8925	0	0.464599609	-0.071166992	0.118286133	0.997729301	-0.013336182	-0.013316154	-0.064647675	11.61499023	-1.779174805	2.95715332	-0.667314054	-0.666311937	-3.234831598	-0.996826172	0.452148438	0.402832031	895.5	-45.11342121	-63.3655162	-155.5600316	-63
8926	0	0.321584702	-0.035004616	0.097640991	0.99783802	-0.028154373	-0.007019043	-0.058956146	8.039617538	-0.875115395	2.44102478	-1.408733664	-0.351205195	-2.949932767	-1.035400391	0.303222656	0.434082031	895.56	-38.05362625	-68.53993297	-166.7884789	-65
8927	0	0.286376953	-0.06427002	0.097106934	0.998279572	-0.031188011	-0.003601074	-0.049510956	7.159423828	-1.606750488	2.42767334	-1.560295218	-0.180157011	-2.476968062	-1.054931641	0.151611328	0.461669922	895.58	-28.79790442	-72.08290816	179.6085629	-63
8928	0	0.343331337	-0.084733963	0.072666168	0.998768806	-0.023509026	-0.000478745	-0.043680191	8.583283424	-2.118349075	1.816654205	-1.175933917	-0.023947054	-2.184906303	-1.058837891	0.018798828	0.469970703	895.56	-16.03585262	-74.09153678	163.4722322	-60
8929	0	0.424377441	-0.112060547	0.06463623	0.998875618	-0.023059845	0.002205849	-0.041362762	10.60943604	-2.801513672	1.615905762	-1.153424578	0.11033379	-2.068913597	-1.058837891	-0.096435547	0.473632813	895.54	-1.493559672	-74.57839705	145.6496998	-56
8930	0	0.437022209	-0.107580185	0.075908661	0.9988451	-0.028419495	0.003038406	-0.038612366	10.92555523	-2.689504623	1.897716522	-1.421521857	0.151978813	-1.931361643	-1.049072266	-0.208007813	0.459716797	895.44	11.03912979	-73.84574917	129.2627963	-59
8931	0	0.409729004	-0.118041992	0.097595215	0.998821259	-0.032977104	0.001792908	-0.035564423	10.2432251	-2.951049805	2.439880371	-1.649503218	0.089680617	-1.778919981	-1.030273438	-0.315673828	0.433349609	895.5	20.27281362	-72.51577666	115.6820727	-63
8932	0	0.45973587	-0.161930084	0.123082161	0.99916935	-0.022761345	0.000492096	-0.033793449	11.49339676	-4.048252106	3.077054024	-1.138382407	0.024611611	-1.690140385	-1.004394531	-0.421386719	0.409179688	895.5	28.38234551	-70.83285655	104.3961728	-61
8933	0	0.468383789	-0.181518555	0.122070313	0.999592781	-0.007667542	-0.000338554	-0.027477264	11.70959473	-4.537963867	3.051757813	-0.3834291	-0.016930016	-1.374049654	-0.969970703	-0.505371094	0.380126953	895.54	34.9892358	-69.18235745	96.42544835	-57
8934	0	0.5207901	-0.183403015	0.157648087	0.999914169	0.006718636	-0.001049995	-0.011118889	13.0197525	-4.585075378	3.941202164	0.33594129	-0.052501258	-0.555960184	-0.944335938	-0.556396484	0.377197266	895.48	38.59436109	-68.49701679	93.37486619	-57
8935	0	0.411804199	-0.11541748	0.15234375	0.999759674	0.017167091	0.001399994	0.013538361	10.29510498	-2.885437012	3.80859375	0.858423245	0.070005295	0.67697219	-0.937255859	-0.561035156	0.377197266	895.54	37.11593574	-69.30987053	97.05469472	-53
8936	0	0.404184341	-0.051151276	0.105607986	0.999111176	0.024002075	0.001570702	0.034603119	10.10460854	-1.278781891	2.640199661	1.200459263	0.078558344	1.730668464	-0.955810547	-0.508056641	0.382568359	895.42	30.31330337	-71.36017714	107.1836648	-53
8937	0	0.463867188	-0.040283203	0.086486816	0.998265266	0.030532837	0.002388954	0.050281525	11.59667969	-1.007080078	2.16217041	1.527525163	0.119516821	2.515530882	-0.988037109	-0.413330078	0.393554688	895.5	16.69789668	-73.4258718	125.1148815	-55
8938	0	0.436148643	-0.014399529	0.106678963	0.997538567	0.03068161	0.005996704	0.062759399	10.90371609	-0.359988213	2.666974068	1.535340234	0.300081418	3.140546752	-1.026367188	-0.283447266	0.399169922	895.48	-4.391660599	-73.50591878	150.7424658	-57
8939	0	0.390319824	0.006469727	0.100708008	0.997152328	0.019822121	0.009044647	0.072185516	9.757995605	0.161743164	2.517700195	0.992047595	0.452661987	3.61270467	-1.053466797	-0.130126953	0.385253906	895.5	-25.935847	-70.2517242	175.7484211	-54
8940	0	0.440420151	0.007932663	0.076500893	0.996901512	0.009531975	0.007968903	0.077662468	11.01050377	0.198316574	1.912522316	0.477091472	0.398857062	3.887137967	-1.069335938	0.031494141	0.364257813	895.54	-41.48620579	-64.47069893	-166.2699291	-55
8941	0	0.464477539	-0.013671875	0.067199707	0.997030258	0.00231266	0.00775528	0.076576233	11.61193848	-0.341796875	1.679992676	0.115747589	0.388148205	3.832605544	-1.059326172	0.190185547	0.345214844	895.56	-51.03413815	-57.47842461	-155.0842702	-55
8942	0	0.42294693	-0.030565262	0.062056541	0.997400284	0.001280785	0.008294106	0.071564674	10.57367325	-0.764131546	1.551413536	0.064094775	0.415064971	3.581337302	-1.025634766	0.343505859	0.325195313	895.62	-56.49412366	-50.29339382	-148.1678493	-55
8943	0	0.357299805	-0.027282715	0.0390625	0.997956276	0.002746582	0.007031441	0.06344223	8.932495117	-0.682067871	0.9765625	0.137422701	0.351811658	3.174273526	-0.979980469	0.479003906	0.30859375	895.5	-59.57967816	-43.70940278	-143.5350913	-52
8944	0	0.334494591	-0.045213699	0.044664383	0.998747826	0.006409645	0.00371933	0.049469948	8.362364769	-1.130342484	1.116609573	0.320616056	0.186044133	2.474530082	-0.923828125	0.592529297	0.296386719	895.5	-60.98142878	-38.60038263	-140.2997294	-54
8945	0	0.326477051	-0.068725586	0.064208984	0.999450684	0.011567116	0.00352478	0.030853271	8.16192627	-1.718139648	1.605224609	0.578461695	0.176271286	1.542946059	-0.875732422	0.67578125	0.28125	895.48	-60.68986706	-35.35401824	-138.5862919	-55
8946	0	0.314299583	-0.099862099	0.091749191	0.999845505	0.013886452	0.002306938	0.010438919	7.857489586	-2.496552467	2.293729782	0.694358132	0.115352814	0.521972674	-0.847167969	0.72265625	0.26171875	895.52	-59.35625952	-34.23238199	-138.1350062	-56
8947	0	0.29473877	-0.118530273	0.155639648	0.999795914	0.019909859	0.001968384	-0.002735138	7.368469238	-2.963256836	3.890991211	0.995560601	0.098425879	-0.136766193	-0.840576172	0.737548828	0.242919922	895.54	-56.82766135	-34.43167135	-138.56542	-51
8948	0	0.370762825	-0.123139381	0.155388832	0.999481201	0.02453804	-0.002831459	-0.020661354	9.269070625	-3.078484535	3.884720802	1.227114162	-0.141597433	-1.033246339	-0.8515625	0.733398438	0.215576172	895.64	-53.22735523	-36.61880594	-139.9000316	-50
8949	0	0.444213867	-0.140686035	0.167724609	0.998885155	0.01833725	-0.012675285	-0.041591644	11.10534668	-3.517150879	4.193115234	0.917203105	-0.633999712	-2.080354785	-0.888916016	0.693115234	0.189697266	895.56	-49.62168782	-41.32297628	-142.2552478	-50
8950	0	0.325962067	-0.076795578	0.219169617	0.998780251	-0.007530212	-0.017101288	-0.045694351	8.149051666	-1.91988945	5.479240417	-0.376663722	-0.855412091	-2.285646605	-0.944335938	0.614501953	0.210449219	895.5	-48.5737095	-46.64017472	-144.9760953	-49
8951	0	0.334533691	-0.087158203	0.215576172	0.998654366	-0.017654419	-0.020529747	-0.044219971	8.363342285	-2.178955078	5.389404297	-0.883116967	-1.026947869	-2.211990468	-0.985351563	0.513916016	0.263427734	895.52	-48.70581895	-52.07531391	-147.4456297	-49
8952	0	0.41225338	-0.13120079	0.163788795	0.998688698	-0.004752159	-0.018447876	-0.047503471	10.3063345	-3.28001976	4.094719887	-0.237711814	-0.922796974	-2.376211749	-1.014648438	0.415039063	0.321533203	895.5	-46.16643932	-57.59451877	-151.1834895	-49
8953	0	0.421875	-0.126220703	0.151489258	0.998789787	-0.003047943	-0.010436058	-0.047966003	10.546875	-3.155517578	3.787231445	-0.152458663	-0.5220135	-2.399268115	-1.036621094	0.309326172	0.359863281	895.68	-40.95566451	-62.33000699	-157.5685989	-49
8954	0	0.367186546	-0.074292183	0.134469032	0.998919487	-0.020841599	-0.005649567	-0.041142464	9.179663658	-1.857304573	3.361725807	-1.042455264	-0.282580076	-2.057864123	-1.053466797	0.203125	0.380615234	895.54	-36.47205727	-65.8585447	-165.1789201	-50
8955	0	0.36907959	-0.079528809	0.121337891	0.998984337	-0.030647278	-0.005770683	-0.032520294	9.226989746	-1.988220215	3.033447266	-1.532882848	-0.288631881	-1.626565382	-1.061035156	0.096923828	0.406982422	895.6	-33.44684646	-68.59972439	-172.2496857	-50
8956	0	0.382491112	-0.114376068	0.132165909	0.999092102	-0.033977509	-0.004105568	-0.025364876	9.562277794	-2.859401703	3.30414772	-1.699389673	-0.205340534	-1.268627684	-1.059814453	0.005615234	0.425537109	895.56	-31.22114373	-70.60388961	-178.7606327	-50
8957	0	0.369018555	-0.132507324	0.116577148	0.999461174	-0.026836395	-0.002367973	-0.018726349	9.225463867	-3.312683105	2.914428711	-1.342060619	-0.118419919	-0.936485512	-1.054199219	-0.075195313	0.423339844	895.56	-29.01151819	-71.9558522	175.6639537	-51
8958	0	0.361868858	-0.131566048	0.10919857	0.999812126	-0.013408661	-0.002799988	-0.013707161	9.046721458	-3.289151192	2.729964256	-0.670475012	-0.140008153	-0.685400949	-1.049560547	-0.132080078	0.430664063	895.62	-26.39889137	-73.00138843	171.3173079	-50
8959	0	0.364074707	-0.11517334	0.107788086	0.999952316	-0.002009392	-0.003170013	-0.008934021	9.101867676	-2.879333496	2.694702148	-0.100471162	-0.158503152	-0.446708041	-1.043457031	-0.169189453	0.436279297	895.62	-23.81840959	-73.78881974	168.385771	-50
8960	0	0.362513542	-0.098069191	0.112659454	0.999983788	-0.001702309	-0.003372192	-0.004034042	9.062838554	-2.451729774	2.816486359	-0.085115866	-0.168610477	-0.201703145	-1.038085938	-0.184570313	0.442871094	895.48	-22.84563213	-74.34590744	167.176889	-51
8961	0	0.351379395	-0.080688477	0.117126465	0.999982834	-0.00429821	-0.003265381	0.002223969	8.784484863	-2.017211914	2.928161621	-0.214911728	-0.16326997	0.111199057	-1.031005859	-0.193603516	0.448974609	895.6	-24.50701865	-74.60286499	168.3945585	-51
8962	0	0.36906147	-0.086990356	0.128751755	0.999954224	-0.005541801	-0.003058434	0.007081032	9.226536751	-2.174758911	3.218793869	-0.277094239	-0.152923976	0.354056913	-1.029052734	-0.189208984	0.459716797	895.64	-28.14276908	-74.57290325	171.5142106	-49
8963	0	0.391479492	-0.08795166	0.139587402	0.999950409	-0.00052166	-0.002128601	0.009674072	9.786987305	-2.198791504	3.489685059	-0.02608342	-0.106431799	0.483711546	-1.029541016	-0.178222656	0.464599609	895.54	-31.89146389	-74.24507638	175.3487269	-49
8964	0	0.397636414	-0.091712952	0.138410568	0.999929428	0.004600525	-0.001587868	0.010782242	9.940910339	-2.292823792	3.460264206	0.230031611	-0.079395239	0.539124666	-1.030517578	-0.158447266	0.46875	895.6	-35.12969529	-73.73030657	179.2699491	-49
8965	0	0.399841309	-0.082885742	0.138122559	0.999855042	0.011746407	-0.000293732	0.012310028	9.996032715	-2.072143555	3.453063965	0.58734868	-0.014687293	0.615531116	-1.031738281	-0.130126953	0.469238281	895.56	-37.4854352	-72.93816001	-176.8634245	-49
8966	0	0.359127045	-0.065367699	0.110259056	0.999789238	0.013586044	0.002002716	0.015209198	8.978176117	-1.634192467	2.756476402	0.679349766	0.100142813	0.760513131	-1.035888672	-0.090820313	0.477783203	895.54	-39.60716931	-71.68997974	-172.9966147	-48
8967	0	0.36920166	-0.056640625	0.089294434	0.999713898	0.01472187	0.002605438	0.018661499	9.230041504	-1.416015625	2.23236084	0.736163686	0.130284329	0.933163892	-1.042236328	-0.044921875	0.471435547	895.54	-41.90178011	-70.08798704	-168.7785191	-49
8968	0	0.409189224	-0.042506218	0.0812006	0.999707222	0.012867928	0.003087997	0.020247459	10.22973061	-1.062655449	2.030014992	0.643459134	0.154414932	1.012471716	-1.046875	0.007568359	0.470214844	895.56	-44.13746864	-68.27164162	-164.8020964	-49
8969	0	0.398742676	-0.042175293	0.073486328	0.999804497	0.003101349	0.003441811	0.019203186	9.968566895	-1.054382324	1.837158203	0.155077531	0.172101725	0.960221759	-1.046630859	0.059814453	0.466064453	895.54	-46.71011884	-66.4585169	-161.6175548	-49
8970	0	0.355233192	-0.046901703	0.067947388	0.999829292	-0.004816055	0.001939774	0.017680168	8.880829811	-1.172542572	1.698684692	-0.240816394	0.096994167	0.884058442	-1.048339844	0.103515625	0.462402344	895.62	-49.78568523	-64.83519949	-158.8326488	-48
8971	0	0.341125488	-0.064941406	0.063964844	0.999894142	-0.00724411	-0.00158596	0.012485504	8.528137207	-1.623535156	1.599121094	-0.362218237	-0.079300807	0.624297151	-1.049560547	0.131835938	0.460205078	895.54	-52.69545354	-63.87387205	-156.5121499	-49
8972	0	0.353491783	-0.098501205	0.073568344	0.999986649	-0.000736237	-0.00442791	0.002223015	8.837294579	-2.462530136	1.839208603	-0.036811983	-0.221396418	0.111151206	-1.043212891	0.146972656	0.469970703	895.48	-53.84779878	-64.01639061	-155.307545	-49
8973	0	0.360290527	-0.108764648	0.08416748	0.999897003	0.010106087	-0.005817413	-0.008274078	9.007263184	-2.719116211	2.104187012	0.505321555	-0.290880578	-0.413718016	-1.036621094	0.148925781	0.475097656	895.5	-52.54195392	-65.21906533	-155.4559767	-49
8974	0	0.362154961	-0.085999489	0.08373642	0.99977684	0.014134407	-0.006798744	-0.014135361	9.053874016	-2.149987221	2.093410492	0.706772874	-0.339962473	-0.706820561	-1.033691406	0.133789063	0.490478516	895.56	-49.9212523	-67.01460692	-156.5374199	-49
8975	0	0.370788574	-0.083984375	0.086853027	0.999732971	0.015309334	-0.007816315	-0.015411377	9.269714355	-2.099609375	2.171325684	0.765534703	-0.390850459	-0.770637314	-1.031005859	0.120605469	0.497070313	895.62	-46.82874497	-68.97408887	-157.9696756	-49
8976	0	0.377493858	-0.089878082	0.083952904	0.999707222	0.01762867	-0.008216858	-0.014375687	9.437346458	-2.246952057	2.098822594	0.881519442	-0.41088296	-0.718854426	-1.025878906	0.105224609	0.509521484	895.56	-43.34927078	-70.84856294	-159.5159271	-50
8977	0	0.378601074	-0.099365234	0.085693359	0.999608994	0.024033546	-0.00876236	-0.011238098	9.465026855	-2.484130859	2.142333984	1.201833733	-0.438175006	-0.561978045	-1.018554688	0.092041016	0.524414063	895.5	-39.57749939	-72.4942947	-160.5871957	-49
8978	0	0.378239632	-0.105042458	0.090010643	0.999295235	0.035829544	-0.009483337	-0.005799294	9.455990791	-2.62606144	2.250266075	1.791897667	-0.474278158	-0.290032731	-1.010009766	0.102783203	0.540039063	895.5	-35.81314556	-73.79829525	-160.2328369	-49
8979	0	0.387512207	-0.091796875	0.080993652	0.998914719	0.045578957	-0.009555817	0.000564575	9.687805176	-2.294921875	2.024841309	2.279772503	-0.477963729	0.028238975	-1	0.135253906	0.548339844	895.6	-32.85521228	-74.70257378	-157.8846504	-49
8980	0	0.393100739	-0.062456131	0.081521988	0.998922348	0.045278549	-0.007889748	0.006396294	9.827518463	-1.561403275	2.038049698	2.264740737	-0.394629094	0.31992957	-0.986083984	0.19140625	0.551513672	895.72	-31.64806323	-75.11277085	-153.7632761	-48
8981	0	0.380554199	-0.02947998	0.077819824	0.999517441	0.028943062	-0.005374908	0.00982666	9.51385498	-0.736999512	1.945495605	1.447385497	-0.268788582	0.491411914	-0.974609375	0.256347656	0.545410156	895.6	-33.04756655	-75.06846309	-148.8781411	-47
8982	0	0.364198685	-0.030765533	0.105566025	0.999892235	0.009431839	-0.003969193	0.010472298	9.104967117	-0.769138336	2.63915062	0.471608801	-0.198466717	0.523633594	-0.960205078	0.301513672	0.538085938	895.66	-36.50652227	-74.79549435	-144.1691953	-47
8983	0	0.391845703	-0.04296875	0.132629395	0.999814034	0.01424408	-0.004443169	0.01215744	9.796142578	-1.07421875	3.315734863	0.712247958	-0.22217215	0.607909545	-0.947509766	0.329345703	0.546630859	895.72	-39.90803507	-74.37100681	-138.9487746	-47
8984	0	0.389153481	-0.024404526	0.103834152	0.999928474	0.009892464	-0.00012207	0.006646156	9.728837013	-0.610113144	2.595853806	0.494634895	-0.00610366	0.332315683	-0.939697266	0.366210938	0.540283203	895.56	-40.7747397	-73.9269443	-136.865088	-48
8985	0	0.380371094	-0.044311523	0.096008301	0.999993324	-0.000415802	0.002106667	0.002655029	9.509277344	-1.107788086	2.40020752	-0.020790141	0.105333533	0.132751723	-0.935302734	0.37890625	0.527587891	895.5	-40.99387588	-73.58335198	-136.681438	-48
8986	0	0.38955307	0.003376007	0.057918549	0.999519348	-0.028550148	0.008767128	-0.008260727	9.738826752	0.084400177	1.447963715	-1.427735951	0.438426582	-0.413102475	-0.937744141	0.381347656	0.527587891	895.56	-39.54063289	-73.4684679	-141.5867427	-48
8987	0	0.366516113	-0.104248047	0.082580566	0.99975872	-0.021759033	0.001832008	-0.002162933	9.162902832	-2.606201172	2.06451416	-1.088038985	0.09160777	-0.108155348	-0.951904297	0.327392578	0.538330078	895.5	-40.85115451	-73.50490677	-142.8213028	-49
8988	0	0.37851429	-0.081961632	0.068588257	0.999844551	-0.017233849	0.001008987	-0.003540039	9.462857246	-2.049040794	1.714706421	-0.861737035	0.050451983	-0.177011116	-0.955810547	0.303466797	0.546386719	895.64	-41.44223594	-73.72073104	-144.2629425	-49
8989	0	0.376037598	-0.086853027	0.066650391	0.999976158	-0.005615234	-0.000544548	-0.003807068	9.400939941	-2.171325684	1.666259766	-0.280763886	-0.027227612	-0.190354863	-0.957275391	0.281982422	0.556640625	895.56	-41.00542057	-74.08993969	-145.3890634	-48
8990	0	0.373952866	-0.075152397	0.074908257	0.999954224	-0.00826931	-0.000882149	-0.004673958	9.34882164	-1.878809929	1.872706413	-0.413471771	-0.044108106	-0.233701436	-0.961425781	0.266845703	0.558105469	895.56	-40.65722663	-74.55013977	-146.7346476	-49
8991	0	0.37512207	-0.07824707	0.081420898	0.999900818	-0.013148308	-0.001998901	-0.004463196	9.378051758	-1.956176758	2.035522461	-0.657436954	-0.099948347	-0.22316711	-0.962890625	0.245117188	0.565673828	895.54	-41.20258086	-75.09014054	-147.7301781	-48
8992	0	0.378089905	-0.090366364	0.094979286	0.99988842	-0.014250755	-0.002384186	-0.003543854	9.45224762	-2.259159088	2.374482155	-0.712564052	-0.119213687	-0.177199225	-0.962158203	0.223388672	0.578857422	895.68	-42.28001329	-75.59381152	-148.3039391	-48
8993	0	0.381835938	-0.106811523	0.103210449	0.999940872	-0.01053524	-0.001384735	-0.002246857	9.545898438	-2.670288086	2.58026123	-0.526772365	-0.069238117	-0.112345043	-0.959228516	0.199462891	0.592041016	895.6	-43.07255484	-75.9111917	-148.7336811	-48
8994	0	0.381816864	-0.108407974	0.080093384	0.999996185	-0.002196312	3.91E-05	-0.001328468	9.5454216	-2.710199356	2.002334595	-0.109815718	0.001955034	-0.066423489	-0.958496094	0.186279297	0.593017578	895.6	-42.7772594	-76.03518255	-149.3008156	-48
8995	0	0.385314941	-0.095275879	0.072875977	0.999984741	0.005265236	0.000579834	-0.000751495	9.632873535	-2.381896973	1.821899414	0.263263051	0.028991838	-0.037574947	-0.960693359	0.184326172	0.590332031	895.48	-41.65321802	-76.06546048	-149.8410201	-48
8996	0	0.37681675	-0.084819794	0.07048893	0.999974251	0.007071495	0.000177383	0.000212669	9.420418739	-2.120494843	1.762223244	0.353577704	0.008869245	0.010633557	-0.963378906	0.190917969	0.590087891	895.5	-40.78295903	-76.05417484	-149.9056877	-48
8997	0	0.374450684	-0.079956055	0.0703125	0.999972343	0.007289886	-0.000739098	0.001266479	9.36126709	-1.998901367	1.7578125	0.364497683	-0.03695522	0.063324558	-0.961181641	0.197265625	0.580810547	895.56	-40.53779031	-76.04272071	-149.300942	-48
8998	0	0.374851227	-0.075186729	0.070243835	0.999964714	0.008152008	-0.000888824	0.001602173	9.37128067	-1.879668236	1.756095886	0.407605146	-0.04444174	0.080109575	-0.961669922	0.210449219	0.582763672	895.56	-40.36042559	-76.01910292	-148.5236725	-48
8999	0	0.379821777	-0.064453125	0.074890137	0.999965668	0.008088112	-0.000682831	0.001659393	9.495544434	-1.611328125	1.872253418	0.40441022	-0.034141931	0.082970615	-0.957519531	0.223388672	0.581298828	895.64	-40.14995861	-75.9733171	-147.7876963	-48
9000	0	0.379915237	-0.059308052	0.079358101	0.999985695	0.004990578	-0.000516891	0.001461029	9.497880936	-1.482701302	1.983952522	0.249530021	-0.025844692	0.073051785	-0.955810547	0.236328125	0.580322266	895.6	-40.17452378	-75.92739531	-147.1745876	-48
9001	0	0.377258301	-0.060302734	0.08001709	0.999998093	0.00150013	-0.000389099	0.001113892	9.43145752	-1.507568359	2.000427246	0.075006531	-0.019454968	0.055694614	-0.956054688	0.242919922	0.576904297	895.6	-40.43841646	-75.89499356	-146.7271571	-48
9002	0	0.375517845	-0.06908226	0.078831673	0.999999046	0.000627518	-0.000169754	0.000301361	9.387946129	-1.727056503	1.970791817	0.031375888	-0.008487702	0.015068055	-0.953857422	0.244873047	0.579345703	895.54	-40.45591088	-75.90266503	-146.6371861	-47
9003	0	0.379882813	-0.071960449	0.07800293	0.999999046	0.00088501	-0.000132561	-0.000133514	9.497070313	-1.79901123	1.950073242	0.044250494	-0.006628037	-0.006675721	-0.953857422	0.244873047	0.579345703	895.48	-40.28337952	-75.93846818	-146.7131781	-47
9004	0	0.379799843	-0.072335243	0.076381683	0.999999046	0.000479698	-2.29E-05	-6.58E-05	9.494996071	-1.808381081	1.909542084	0.02398491	-0.001144409	-0.003290177	-0.953857422	0.247070313	0.576416016	895.5	-40.1500981	-75.95874931	-146.7965206	-47
9005	0	0.37713623	-0.072631836	0.078125	0.999998093	0.001717567	-6.48E-05	0.000522614	9.428405762	-1.815795898	1.953125	0.085878418	-0.003242494	0.02613069	-0.953857422	0.247070313	0.576416016	895.6	-40.09513129	-75.93826546	-146.6535257	-48
9006	0	0.379518509	-0.065926552	0.077630043	0.999997139	0.001806259	-0.000236511	0.000907898	9.487962723	-1.648163795	1.940751076	0.09031302	-0.01182557	0.045394929	-0.953857422	0.249267578	0.576171875	895.44	-40.21574815	-75.90367447	-146.3191399	-47
9007	0	0.38104248	-0.065734863	0.076965332	0.999998093	0.001149178	-6.87E-05	0.001049042	9.526062012	-1.643371582	1.924133301	0.057458901	-0.003433229	0.052452109	-0.954345703	0.255859375	0.578613281	895.56	-40.41063169	-75.84315744	-145.9852945	-47
9008	0	0.381530762	-0.063306808	0.077178955	0.999999046	-0.000185966	0.00025177	0.000559807	9.538269043	-1.582670212	1.929473877	-0.009298325	0.012588502	0.027990343	-0.951904297	0.2578125	0.578125	895.54	-40.49379809	-75.79040101	-145.9244327	-48
9009	0	0.378173828	-0.066589355	0.07800293	0.999999046	-0.001003265	0.000378609	0.000209808	9.454345703	-1.664733887	1.950073242	-0.050163279	0.018930439	0.01049042	-0.951904297	0.253662109	0.578613281	895.56	-40.51327643	-75.75199118	-146.0264295	-47
9010	0	0.377598763	-0.067269325	0.077237129	0.999999046	-0.000541687	0.000278473	-3.81E-06	9.439969063	-1.681733131	1.93092823	-0.027084352	0.013923646	-0.000190735	-0.954101563	0.253662109	0.578613281	895.5	-40.43688661	-75.7375812	-146.1726632	-47
9011	0	0.379699707	-0.068908691	0.077636719	0.999999046	-0.000652313	0.000115395	-0.000118256	9.492492676	-1.722717285	1.940917969	-0.032615664	0.00576973	-0.005912781	-0.954101563	0.253662109	0.575927734	895.48	-40.38261465	-75.74523589	-146.3090948	-47
9012	0	0.380125046	-0.070384979	0.077020645	0.999999046	-0.000819206	4.39E-05	-6.20E-05	9.503126144	-1.759624481	1.925516129	-0.040960317	0.002193451	-0.003099442	-0.954101563	0.253662109	0.575927734	895.6	-40.38889482	-75.75431189	-146.4027899	-47
9013	0	0.376342773	-0.072387695	0.07989502	0.999999046	-0.001174927	0.000264168	-0.000442505	9.408569336	-1.809692383	1.997375488	-0.058746354	0.013208393	-0.02212525	-0.956298828	0.249267578	0.576416016	895.5	-40.24154272	-75.77148145	-146.6974042	-47
9014	0	0.376671791	-0.074745178	0.079977989	0.999999046	-0.001302719	0.000207901	-0.0002985	9.416794777	-1.868629456	1.99944973	-0.065135976	0.010395053	-0.014925008	-0.958740234	0.249511719	0.579345703	895.54	-40.17611376	-75.78189011	-146.9224269	-47
9015	0	0.379943848	-0.077148438	0.080627441	0.999999046	-0.00056839	0.000313759	-0.000499725	9.498596191	-1.928710938	2.015686035	-0.028419498	0.015687944	-0.02498627	-0.953857422	0.244873047	0.576660156	895.54	-39.92754425	-75.79676441	-147.2498803	-48
9016	0	0.379483223	-0.07881546	0.081628799	0.999999046	0.000771523	-8.01E-05	-0.000255585	9.487080574	-1.970386505	2.040719986	0.03857613	-0.004005433	-0.012779237	-0.956054688	0.245117188	0.579589844	895.5	-39.7261002	-75.82706585	-147.3703949	-47
9017	0	0.37701416	-0.078430176	0.080383301	0.999999046	0.001220703	-0.00014782	-0.000267029	9.425354004	-1.960754395	2.00958252	0.061035172	-0.007390978	-0.013351444	-0.956054688	0.244873047	0.576660156	895.54	-39.49031834	-75.86311903	-147.473357	-47
9018	0	0.377325058	-0.080104828	0.081625938	0.999997139	0.002235413	-0.000225067	2.57E-05	9.43312645	-2.002620697	2.04064846	0.111770724	-0.011253366	0.001287461	-0.956054688	0.247070313	0.573730469	895.54	-39.2652649	-75.88359981	-147.4454207	-47
9019	0	0.376647949	-0.078552246	0.079223633	0.999992371	0.003727913	-0.000385284	0.000579834	9.41619873	-1.963806152	1.98059082	0.186396092	-0.019264267	0.028991769	-0.956298828	0.251464844	0.573242188	895.54	-39.11322458	-75.87734144	-147.1659787	-47
9020	0	0.380039215	-0.074743271	0.078999519	0.999988556	0.004631042	-0.000594139	0.00094986	9.500980377	-1.868581772	1.974987984	0.231553	-0.029707067	0.047493161	-0.956542969	0.258056641	0.572753906	895.54	-39.05014434	-75.86238346	-146.68814	-48
9021	0	0.378662109	-0.069763184	0.079711914	0.999986649	0.004940987	-0.000537872	0.001087189	9.466552734	-1.74407959	1.992797852	0.247050397	-0.026893732	0.054359671	-0.95703125	0.264648438	0.577880859	895.56	-38.98421557	-75.83209794	-146.176682	-48
9022	0	0.375060081	-0.065259933	0.075191498	0.999990463	0.004132271	-0.000555992	0.001159668	9.376502037	-1.631498337	1.879787445	0.206614186	-0.027799693	0.057983579	-0.954833984	0.270996094	0.571533203	895.56	-39.04132412	-75.79795801	-145.6337783	-48
9023	0	0.380065918	-0.068603516	0.07611084	0.99998951	0.004238129	-0.000563622	0.00120163	9.501647949	-1.715087891	1.902770996	0.21190713	-0.028181169	0.060081679	-0.952636719	0.279541016	0.565185547	895.44	-39.10289072	-75.76101813	-145.0735716	-47
9024	0	0.379820824	-0.061485291	0.076323509	0.999992371	0.003541946	-0.000466347	0.000853539	9.495520592	-1.537132263	1.90808773	0.177097719	-0.023317389	0.042677022	-0.953125	0.286132813	0.567382813	895.56	-39.09339489	-75.74044081	-144.6689651	-48
9025	0	0.377319336	-0.061218262	0.075622559	0.999999046	0.001152039	-0.000178337	0.000583649	9.432983398	-1.530456543	1.890563965	0.057601945	-0.008916857	0.029182442	-0.950927734	0.290527344	0.569824219	895.6	-39.18084881	-75.71364993	-144.4468054	-48
9026	0	0.375807762	-0.063676834	0.077281952	0.999999046	9.54E-05	-5.72E-05	0.000354767	9.395194054	-1.591920853	1.932048798	0.004768372	-0.002861023	0.017738343	-0.950927734	0.290527344	0.569824219	895.54	-39.27482241	-75.69238973	-144.3429764	-48
9027	0	0.377868652	-0.064086914	0.077209473	0.999999046	-0.001293182	-6.39E-05	4.58E-05	9.446716309	-1.602172852	1.930236816	-0.064659137	-0.00319481	0.002288819	-0.950927734	0.292724609	0.569580078	895.54	-39.42238899	-75.69392789	-144.3478818	-48
9028	0	0.379702568	-0.070302963	0.077038765	0.999998093	-0.001577377	0.000199318	-0.000526428	9.492564201	-1.757574081	1.925969124	-0.078868903	0.009965901	-0.026321423	-0.950927734	0.288330078	0.572753906	895.56	-39.32968711	-75.71339871	-144.6345771	-48
9029	0	0.377075195	-0.070922852	0.079833984	0.999997139	-0.002166748	0.000283241	-0.000518799	9.426879883	-1.773071289	1.995849609	-0.108337493	0.014162076	-0.025939963	-0.950683594	0.283935547	0.573242188	895.44	-39.28375072	-75.72428192	-144.9427674	-48
9030	0	0.374668121	-0.075263977	0.077277184	0.999998093	-0.001835823	0.00026989	-3.81E-06	9.366703033	-1.881599426	1.931929588	-0.091791206	0.013494499	-0.000190735	-0.953125	0.284179688	0.573242188	895.5	-39.38504545	-75.69841663	-145.0598448	-48
9031	0	0.382507324	-0.077026367	0.076843262	0.999999046	-0.000240326	0.000248909	-0.000179291	9.562683105	-1.92565918	1.921081543	-0.012016297	0.01244545	-0.008964539	-0.955078125	0.279785156	0.568115234	895.5	-39.25084989	-75.68666404	-145.2315596	-48
9032	0	0.38572979	-0.073324203	0.077425957	0.999999046	-0.000704765	0.000444412	-0.000473976	9.643244743	-1.833105087	1.935648918	-0.035238271	0.022220615	-0.02369881	-0.955078125	0.281982422	0.567871094	895.5	-39.01362157	-75.67838204	-145.5643089	-48
9033	0	0.382629395	-0.071777344	0.077758789	0.999998093	-0.001807213	0.000705719	-9.16E-05	9.565734863	-1.794433594	1.943969727	-0.090360698	0.035285972	-0.00457764	-0.955078125	0.277587891	0.568359375	895.54	-38.96436786	-75.61873254	-145.8337098	-48
9034	0	0.374350548	-0.070775986	0.079679489	0.999997139	-0.002145767	0.000696182	0.000266075	9.358763695	-1.769399643	1.991987228	-0.107288453	0.034809142	0.013303768	-0.955078125	0.275390625	0.571289063	895.54	-39.08245782	-75.53373824	-145.9705161	-48
9035	0	0.374816895	-0.075073242	0.078125	0.999998093	-0.001475334	0.000415802	-0.000133514	9.370422363	-1.876831055	1.953125	-0.073766737	0.020790108	-0.006675723	-0.957275391	0.2734375	0.574462891	895.64	-39.06644389	-75.50212217	-146.1665857	-48
9036	0	0.379106522	-0.076480865	0.076748848	0.999999046	0.000374794	3.81E-05	-0.000900269	9.47766304	-1.912021637	1.918721199	0.018739703	0.001907349	-0.045013435	-0.959472656	0.271240234	0.574707031	895.44	-38.6808649	-75.55879646	-146.5254542	-48
9037	0	0.376464844	-0.071716309	0.076599121	0.999999046	0.000762939	-0.000159264	-0.000694275	9.411621094	-1.792907715	1.914978027	0.03814698	-0.007963182	-0.034713751	-0.95703125	0.269042969	0.572021484	895.64	-38.37605782	-75.61765426	-146.7549533	-48
9038	0	0.377563477	-0.070405006	0.075914383	0.999999046	-9.54E-05	-0.000185013	7.63E-06	9.439086914	-1.76012516	1.897859573	-0.004768372	-0.009250641	0.00038147	-0.959472656	0.269042969	0.572021484	895.6	-38.42288275	-75.62853722	-146.7229514	-48
9039	0	0.377258301	-0.069763184	0.077148438	0.999999046	-0.000553131	-0.000403404	0.000247955	9.43145752	-1.74407959	1.928710938	-0.027656558	-0.020170214	0.012397767	-0.95703125	0.271240234	0.571777344	895.7	-38.66829006	-75.64158684	-146.5399661	-48
9040	0	0.375576973	-0.071684837	0.077985764	0.999999046	-0.001088142	-0.000423431	0.000137329	9.389424324	-1.792120934	1.949644089	-0.054407132	-0.021171575	0.006866457	-0.95703125	0.266845703	0.574951172	895.48	-38.94355746	-75.66382699	-146.3897463	-48
9041	0	0.378417969	-0.073852539	0.079040527	0.999999046	-0.000892639	-0.000384331	-0.000267029	9.460449219	-1.846313477	1.976013184	-0.044631966	-0.019216541	-0.013351443	-0.956787109	0.266845703	0.569335938	895.5	-39.04607146	-75.71121486	-146.3945761	-48
9042	0	0.378519058	-0.074953079	0.079590797	0.999999046	-0.000648499	-0.000423431	-0.000229836	9.462976456	-1.873826981	1.989769936	-0.03242493	-0.021171572	-0.011491777	-0.954589844	0.264648438	0.574951172	895.5	-39.14627312	-75.75892726	-146.3730616	-48
9043	0	0.378967285	-0.074462891	0.079162598	0.999999046	2.67E-05	-0.000365257	0.000484467	9.474182129	-1.861572266	1.979064941	0.001335144	-0.018262864	0.024223329	-0.954589844	0.264648438	0.574951172	895.56	-39.4037758	-75.74920647	-146.1095085	-48
9044	0	0.37938118	-0.073423386	0.07913208	0.999999046	0.000287056	-0.000188828	0.000628471	9.484529495	-1.835584641	1.978302002	0.0143528	-0.009441377	0.031423571	-0.956787109	0.264648438	0.572265625	895.54	-39.631111	-75.71272335	-145.8463625	-48
9045	0	0.381896973	-0.071472168	0.077819824	0.999999046	0.000198364	-0.00014019	0.000453949	9.547424316	-1.786804199	1.945495605	0.009918213	-0.007009507	0.02269745	-0.954589844	0.266601563	0.574707031	895.64	-39.79374629	-75.68428518	-145.6603449	-48
9046	0	0.37611866	-0.068792343	0.077679634	0.999999046	-0.000137329	2.29E-05	0.0001297	9.402966499	-1.719808578	1.941990852	-0.006866455	0.001144409	0.006484985	-0.954833984	0.268798828	0.577392578	895.6	-39.83579655	-75.66501259	-145.6383928	-48
9047	0	0.376037598	-0.070007324	0.07635498	0.999999046	-0.000175476	-1.81E-05	-7.63E-06	9.400939941	-1.750183105	1.908874512	-0.008773804	-0.000905991	-0.00038147	-0.954833984	0.268798828	0.574707031	895.56	-39.84711001	-75.65926243	-145.6527286	-48
9048	0	0.37909317	-0.072836876	0.076436043	0.999999046	-8.49E-05	-0.000148773	-0.000344276	9.477329254	-1.820921898	1.91090107	-0.004243851	-0.00743866	-0.017213822	-0.954833984	0.268798828	0.577392578	895.68	-39.77040078	-75.68949678	-145.7472363	-48
9049	0	0.376525879	-0.072387695	0.075561523	0.999999046	-0.000125885	-0.000197411	-0.000270844	9.413146973	-1.809692383	1.889038086	-0.006294251	-0.009870529	-0.013542176	-0.954589844	0.266845703	0.577636719	895.6	-39.73836943	-75.71840969	-145.8005996	-48
9050	0	0.379036903	-0.07311821	0.076856613	0.999999046	-0.000278473	-0.000139236	0.000102997	9.475922585	-1.827955246	1.921415329	-0.013923645	-0.006961823	0.005149841	-0.952392578	0.266601563	0.574707031	895.7	-39.83723934	-75.71454616	-145.7369097	-48
9051	0	0.378417969	-0.073852539	0.078430176	0.999999046	-0.000431061	-9.44E-05	0.000198364	9.460449219	-1.846313477	1.960754395	-0.02155304	-0.004720688	0.009918213	-0.954589844	0.266601563	0.574707031	895.68	-39.97420131	-75.69937003	-145.6520106	-48
9052	0	0.378707886	-0.074069977	0.076889992	0.999999046	-0.000468254	-1.91E-06	0.000343323	9.467697144	-1.85174942	1.922249794	-0.023412706	-9.54E-05	0.017166139	-0.952392578	0.266601563	0.580322266	895.64	-40.13909302	-75.66507594	-145.5427168	-48
9053	0	0.379272461	-0.074707031	0.077819824	0.999999046	3.05E-05	5.82E-05	0.000267029	9.481811523	-1.867675781	1.945495605	0.001525879	0.002908707	0.013351441	-0.954833984	0.266845703	0.580566406	895.6	-40.2035919	-75.63081451	-145.4781069	-48
9054	0	0.379345894	-0.073074341	0.077379227	0.999999046	0.000261307	1.91E-06	0.000377655	9.483647346	-1.826858521	1.934480667	0.013065339	9.54E-05	0.018882752	-0.952148438	0.264404297	0.574951172	895.64	-40.29574239	-75.59305366	-145.3577671	-48
9055	0	0.377990723	-0.072692871	0.077453613	0.999999046	0.000392914	0.000187874	0.000461578	9.449768066	-1.817321777	1.936340332	0.019645692	0.009393693	0.02307892	-0.952392578	0.264404297	0.577636719	895.64	-40.34749294	-75.53258576	-145.2635712	-48
9056	0	0.376921654	-0.069319725	0.076244354	0.999999046	-0.000153542	0.000225067	0.00064373	9.423041344	-1.732993126	1.906108856	-0.007677079	0.011253358	0.032186511	-0.952392578	0.268798828	0.577392578	895.6	-40.51168293	-75.4552642	-145.1176446	-48
9057	0	0.381103516	-0.071838379	0.077148438	0.999999046	-0.000823975	0.000267982	0.000392914	9.527587891	-1.795959473	1.928710938	-0.041198737	0.013399126	0.019645694	-0.952392578	0.268798828	0.574462891	895.56	-40.65518572	-75.39275259	-145.0724829	-48
9058	0	0.378439903	-0.073851585	0.078022003	0.999999046	-0.000610352	0.000286102	1.91E-05	9.460997581	-1.846289635	1.950550079	-0.03051758	0.014305116	0.000953674	-0.954833984	0.268798828	0.577392578	895.56	-40.64444089	-75.35639878	-145.161493	-48
9059	0	0.377624512	-0.072509766	0.078857422	0.999999046	-0.000831604	0.00023365	0.000236511	9.440612793	-1.812744141	1.971435547	-0.041580206	0.011682512	0.011825563	-0.954833984	0.266845703	0.580566406	895.54	-40.74642055	-75.30823106	-145.1603326	-48
9060	0	0.379810333	-0.075750351	0.07835865	0.999999046	-0.000670433	0.000350952	9.54E-05	9.495258331	-1.893758774	1.958966255	-0.033521655	0.017547609	0.004768372	-0.954833984	0.268798828	0.577392578	895.44	-40.75030447	-75.26025993	-145.241347	-48
9061	0	0.377807617	-0.07611084	0.077331543	0.999999046	-0.000339508	0.000321388	9.54E-05	9.44519043	-1.902770996	1.933288574	-0.016975403	0.016069413	0.004768372	-0.95703125	0.266845703	0.574951172	895.54	-40.72570276	-75.21469253	-145.3128322	-48
9062	0	0.376338959	-0.07586956	0.078130722	0.999999046	4.01E-05	0.000192642	0.000350952	9.408473969	-1.896739006	1.953268051	0.002002716	0.009632111	0.017547608	-0.954589844	0.264648438	0.574951172	895.5	-40.77869596	-75.1610012	-145.2592226	-48
9063	0	0.376098633	-0.074584961	0.077453613	0.999999046	0.000717163	-7.92E-05	0.000591278	9.40246582	-1.864624023	1.936340332	0.035858159	-0.003957749	0.029563908	-0.954589844	0.266601563	0.572021484	895.56	-40.909224	-75.11273248	-145.0450312	-48
9064	0	0.377793312	-0.073700905	0.077315331	0.999999046	0.001116753	-0.00028038	0.000488281	9.444832802	-1.842522621	1.932883263	0.055837646	-0.014019016	0.024414069	-0.954833984	0.268798828	0.574707031	895.56	-41.0165449	-75.08946021	-144.8074251	-48
9065	0	0.378356934	-0.072387695	0.077209473	0.999999046	0.000854492	-0.000292778	0.000270844	9.45892334	-1.809692383	1.930236816	0.042724616	-0.014638903	0.013542177	-0.952636719	0.270996094	0.577148438	895.5	-41.08643168	-75.08355157	-144.6395627	-48
9066	0	0.377936363	-0.071725845	0.078574181	0.999999046	0.000270844	-0.000198364	0.00043869	9.448409081	-1.793146133	1.964354515	0.013542176	-0.009918213	0.02193451	-0.952392578	0.270996094	0.574462891	895.54	-41.25022236	-75.05674459	-144.4437879	-48
9067	0	0.377319336	-0.072937012	0.078552246	0.999999046	-3.43E-05	-9.82E-05	0.000545502	9.432983398	-1.823425293	1.963806152	-0.001716614	-0.004911423	0.027275087	-0.952636719	0.270996094	0.577148438	895.54	-41.45404006	-75.01304016	-144.2427943	-48
9068	0	0.376826286	-0.073781013	0.076702118	0.999999046	0.000159264	-6.68E-05	0.000319481	9.420657158	-1.844525337	1.917552948	0.007963181	-0.00333786	0.015974045	-0.952392578	0.270996094	0.574462891	895.6	-41.55358938	-74.98367765	-144.1267385	-48
9069	0	0.37713623	-0.073608398	0.078491211	0.999999046	0.000205994	2.00E-05	0.000392914	9.428405762	-1.840209961	1.962280273	0.010299683	0.001001358	0.019645692	-0.952636719	0.273193359	0.57421875	895.48	-41.64600601	-74.94121022	-144.0123935	-48
9070	0	0.381165504	-0.072412491	0.076032639	0.999999046	-0.000389099	8.39E-05	0.000258446	9.529137611	-1.810312271	1.900815964	-0.019454957	0.004196167	0.012922287	-0.952636719	0.275390625	0.573974609	895.56	-41.74523938	-74.90364824	-143.9614696	-48
9071	0	0.378112793	-0.074584961	0.07800293	0.999999046	-0.000644684	0.000195503	0.000110626	9.452819824	-1.864624023	1.950073242	-0.032234194	0.009775163	0.005531311	-0.952636719	0.275390625	0.576904297	895.6	-41.79518577	-74.86781859	-143.9919924	-48
9072	0	0.375501633	-0.075258255	0.078661919	0.999999046	-0.000535011	-2.86E-05	0.000163078	9.387540817	-1.881456375	1.966547966	-0.026750566	-0.001430512	0.008153916	-0.952636719	0.275390625	0.568359375	895.56	-41.91233505	-74.84705348	-143.9398964	-48
9073	0	0.37878418	-0.076782227	0.078186035	0.999999046	-0.000282288	5.82E-05	-1.53E-05	9.469604492	-1.919555664	1.954650879	-0.01411438	0.002908707	-0.000762939	-0.952636719	0.273193359	0.576904297	895.54	-41.92000113	-74.83247646	-143.9714412	-48
9074	0	0.376824379	-0.075655937	0.07800293	0.999999046	-0.000890732	0.000268936	0.000312805	9.420609474	-1.89139843	1.950073242	-0.044536598	0.01344681	0.015640261	-0.952636719	0.273193359	0.571289063	895.5	-42.04095443	-74.77478897	-143.9577566	-48
9075	0	0.376953125	-0.077270508	0.077636719	0.999999046	-0.00082016	0.00017643	0.000679016	9.423828125	-1.931762695	1.940917969	-0.041008004	0.008821489	0.033950812	-0.952636719	0.273193359	0.57421875	895.56	-42.29350917	-74.69674025	-143.7993293	-48
9076	0	0.377005577	-0.075592041	0.078316689	0.999999046	-0.000458717	-1.72E-05	0.000555992	9.425139427	-1.889801025	1.957917213	-0.022935869	-0.000858307	0.027799609	-0.952392578	0.270996094	0.571533203	895.56	-42.51931154	-74.64442546	-143.625828	-48
9077	0	0.376037598	-0.076599121	0.078063965	0.999999046	-0.000774384	6.20E-05	0.000263214	9.400939941	-1.914978027	1.951599121	-0.038719182	0.003099442	0.013160707	-0.952636719	0.273193359	0.57421875	895.56	-42.66804545	-74.60799171	-143.5694398	-48
9078	0	0.376657486	-0.078690529	0.079025269	0.999999046	-0.000249863	6.29E-05	0.00037384	9.416437149	-1.967263222	1.975631714	-0.012493134	0.003147125	0.018692017	-0.952636719	0.273193359	0.571289063	895.56	-42.78986249	-74.56275636	-143.478696	-48
9079	0	0.378356934	-0.077453613	0.078918457	0.999999046	0.000133514	-0.000102043	0.000396729	9.45892334	-1.936340332	1.972961426	0.00667572	-0.005102158	0.019836426	-0.952636719	0.273193359	0.571289063	895.48	-42.92052253	-74.52953868	-143.3332695	-48
9080	0	0.377640724	-0.076146126	0.078921318	0.999999046	-1.05E-05	-5.72E-05	0.000450134	9.441018105	-1.903653145	1.973032951	-0.000524521	-0.002861023	0.022506715	-0.952636719	0.273193359	0.57421875	895.56	-43.07021292	-74.48833537	-143.1852326	-48
9081	0	0.377319336	-0.077392578	0.079101563	0.999999046	-0.000320435	4.67E-05	0.000350952	9.432983398	-1.934814453	1.977539063	-0.016021729	0.002336502	0.017547608	-0.950195313	0.275146484	0.571044922	895.56	-43.19531694	-74.44611945	-143.0992894	-48
9082	0	0.378294945	-0.077098846	0.079025269	0.999999046	-0.001228333	7.63E-05	0.000151634	9.457373619	-1.927471161	1.975631714	-0.061416642	0.003814698	0.007581713	-0.950195313	0.273193359	0.576904297	895.54	-43.3556324	-74.41708938	-143.0849239	-48
9083	0	0.375549316	-0.079528809	0.078857422	0.999999046	-0.000705719	-3.34E-05	0.000465393	9.38873291	-1.988220215	1.971435547	-0.035285954	-0.00166893	0.023269656	-0.950195313	0.273193359	0.573974609	895.54	-43.5801552	-74.3723834	-142.9417152	-48
9084	0	0.379509926	-0.078041077	0.079148293	0.999999046	-0.000596046	-0.000167847	5.63E-05	9.487748146	-1.951026917	1.978707314	-0.029802324	-0.008392335	0.002813339	-0.950195313	0.273193359	0.573974609	895.64	-43.70789156	-74.37112474	-142.8858675	-48
9085	0	0.377563477	-0.079772949	0.079284668	0.999999046	-0.00069046	5.05E-05	-0.000663757	9.439086914	-1.99432373	1.982116699	-0.034523016	0.002527237	-0.033187871	-0.947998047	0.272949219	0.573974609	895.6	-43.5709225	-74.40866467	-143.1158708	-48
9086	0	0.375466347	-0.081580162	0.077865601	0.999999046	-6.10E-05	-0.000183105	-0.000317574	9.386658669	-2.039504051	1.946640015	-0.003051758	-0.009155274	-0.015878678	-0.952392578	0.270996094	0.574462891	895.5	-43.53082936	-74.4380921	-143.1707712	-48
9087	0	0.378845215	-0.080688477	0.076660156	0.999999046	0.001079559	-0.00026226	-0.00025177	9.471130371	-2.017211914	1.916503906	0.053977978	-0.013113025	-0.012588504	-0.950195313	0.270996094	0.57421875	895.56	-43.40224053	-74.46890484	-143.1818828	-48
9088	0	0.372820854	-0.077466011	0.077057838	0.999999046	0.000670433	-0.000196457	-0.000202179	9.320521355	-1.936650276	1.926445961	0.033521655	-0.009822846	-0.010108949	-0.952392578	0.268798828	0.577392578	895.6	-43.31641218	-74.4903341	-143.1976062	-48
9089	0	0.378051758	-0.07800293	0.078063965	0.999999046	-0.001064301	9.54E-07	-1.91E-05	9.451293945	-1.950073242	1.951599121	-0.053215037	4.77E-05	-0.000953674	-0.950195313	0.270996094	0.57421875	895.6	-43.42831112	-74.48094521	-143.2137727	-48
9090	0	0.379885674	-0.0835886	0.078557014	0.999998093	-0.001702309	0.00020504	8.39E-05	9.497141838	-2.089715004	1.963925362	-0.085115475	0.010252004	0.004196169	-0.952392578	0.266601563	0.574707031	895.5	-43.58684031	-74.44634646	-143.2579334	-48
9091	0	0.376098633	-0.084899902	0.077331543	0.999999046	0.000118256	-6.77E-05	0.000320435	9.40246582	-2.122497559	1.933288574	0.005912781	-0.003385544	0.016021729	-0.952392578	0.266601563	0.574707031	895.48	-43.68529374	-74.41551456	-143.1479592	-48
