Counter	Temperature	VelInc_X	VelInc_Y	VelInc_Z	OriInc_w	OriInc_x	OriInc_y	OriInc_z	Acc_X	Acc_Y	Acc_Z	Gyr_X	Gyr_Y	Gyr_Z	Mag_X	Mag_Y	Mag_Z	Pressure	Roll	Pitch	Yaw	RSSI
21860	0	0.383488655	-0.022585869	0.078437805	0.999999046	6.58E-05	4.96E-05	0.000281334	9.587216377	-0.564646721	1.960945129	0.003290176	0.002479553	0.014066696	-0.610107422	0.333740234	0.686523438	895.74	-16.75011755	-78.15203194	-135.6992341	-73
21861	0	0.384643555	-0.024230957	0.078613281	0.999999046	-8.77E-05	-6.68E-06	0.000282288	9.616088867	-0.605773926	1.965332031	-0.004386902	-0.000333786	0.01411438	-0.607910156	0.333740234	0.686279297	895.74	-16.86702791	-78.14324727	-135.6004691	-73
21862	0	0.384691238	-0.024461746	0.077687263	0.999999046	-8.96E-05	-0.000104904	0.000281334	9.61728096	-0.611543655	1.942181587	-0.004482269	-0.005245209	0.014066696	-0.607666016	0.333740234	0.68359375	895.68	-16.99927045	-78.14518507	-135.4820927	-73
21863	0	0.386169434	-0.024291992	0.076904297	0.999999046	0.000217438	-1.81E-05	0.000244141	9.65423584	-0.607299805	1.922607422	0.010871887	-0.000905991	0.012207031	-0.607910156	0.3359375	0.688964844	895.7	-17.06314959	-78.13880882	-135.4027684	-75
21864	0	0.386343002	-0.024264336	0.07738781	0.999999046	0.000199318	6.68E-05	-7.72E-05	9.658575058	-0.606608391	1.934695244	0.009965897	0.00333786	-0.003862381	-0.610107422	0.3359375	0.68359375	895.76	-16.94789443	-78.13392578	-135.5017841	-75
21865	0	0.385314941	-0.024047852	0.077636719	0.999999046	0.000213623	0.0001688	7.63E-06	9.632873535	-0.601196289	1.940917969	0.010681152	0.008440018	0.00038147	-0.610351563	0.3359375	0.686279297	895.8	-16.85924418	-78.11495163	-135.5768873	-78
21866	0	0.385105133	-0.022800446	0.077530861	0.999999046	0.000360489	-3.81E-06	9.16E-05	9.627628326	-0.570011139	1.938271523	0.018024445	-0.000190735	0.004577637	-0.607910156	0.3359375	0.683349609	895.76	-16.82460955	-78.11212607	-135.5754079	-79
21867	0	0.385986328	-0.02166748	0.077087402	0.999999046	-5.34E-05	-1.43E-05	0.000110626	9.649658203	-0.541687012	1.927185059	-0.002670288	-0.000715256	0.005531311	-0.610107422	0.3359375	0.68359375	895.64	-16.84851923	-78.10986757	-135.5636881	-81
21868	0	0.386837006	-0.023531914	0.077926636	0.999999046	-0.00036335	-3.81E-06	-4.20E-05	9.67092514	-0.588297844	1.948165894	-0.018167496	-0.000190735	-0.002098084	-0.610107422	0.3359375	0.68359375	895.76	-16.82670485	-78.11151868	-135.6333329	-81
21869	0	0.385498047	-0.022644043	0.077209473	0.999999046	-9.92E-05	-9.82E-05	-4.58E-05	9.637451172	-0.566101074	1.930236816	-0.004959106	-0.004911423	-0.002288818	-0.610107422	0.333740234	0.68359375	895.68	-16.78722517	-78.12367032	-135.6934201	-81
21870	0	0.38643074	-0.022562981	0.077127457	0.999999046	-0.000276566	-0.000179291	-0.000221252	9.660768509	-0.564074516	1.928186417	-0.013828278	-0.008964539	-0.011062622	-0.610351563	0.338134766	0.683349609	895.64	-16.68869864	-78.15054058	-135.8239599	-80
21871	0	0.38659668	-0.023254395	0.077636719	0.999999046	-0.00043869	-1.43E-05	-9.92E-05	9.664916992	-0.581359863	1.940917969	-0.02193451	-0.000715256	-0.004959107	-0.610351563	0.333984375	0.686523438	895.74	-16.64641541	-78.15522746	-135.9267679	-78
21872	0	0.387396812	-0.025502205	0.075405121	0.999999046	-0.000271797	0.000160217	-6.87E-05	9.684920311	-0.637555122	1.885128021	-0.013589859	0.008010864	-0.003433228	-0.612548828	0.333984375	0.683837891	895.7	-16.57439679	-78.13981688	-136.0361143	-76
21873	0	0.385742188	-0.023498535	0.077697754	0.999999046	0.00012207	-2.19E-05	-0.000286102	9.643554688	-0.587463379	1.942443848	0.006103516	-0.001096725	-0.014305115	-0.612548828	0.333984375	0.686767578	895.7	-16.37183134	-78.15139998	-136.2366433	-75
21874	0	0.384842873	-0.023687363	0.076525688	0.999999046	3.24E-05	-5.72E-06	-0.0001688	9.621071815	-0.592184067	1.913142204	0.001621246	-0.000286102	-0.008440018	-0.612548828	0.333984375	0.683837891	895.7	-16.23845414	-78.15734187	-136.3720149	-75
21875	0	0.386047363	-0.024353027	0.077331543	0.999999046	0.000293732	-1.43E-05	3.81E-06	9.651184082	-0.608825684	1.933288574	0.014686585	-0.000715256	0.000190735	-0.610107422	0.331787109	0.684082031	895.7	-16.16731995	-78.15863746	-136.4176174	-75
21876	0	0.387880325	-0.02266407	0.075623512	0.999999046	0.000445366	-3.24E-05	-4.96E-05	9.697008133	-0.566601753	1.890587807	0.022268296	-0.001621246	-0.002479553	-0.612548828	0.333984375	0.686767578	895.76	-16.05358426	-78.16370592	-136.4910604	-74
21877	0	0.384155273	-0.022094727	0.076293945	0.999999046	0.000209808	1.62E-05	-1.53E-05	9.603881836	-0.552368164	1.907348633	0.010490418	0.000810623	-0.000762939	-0.614990234	0.333984375	0.686767578	895.7	-15.97744543	-78.1623444	-136.5551527	-73
21878	0	0.385984421	-0.023271561	0.077169418	0.999999046	6.29E-05	0	6.01E-05	9.649610519	-0.581789017	1.929235458	0.003147125	0	0.003004074	-0.612548828	0.333984375	0.683837891	895.72	-15.96036311	-78.16039938	-136.5707637	-72
21879	0	0.385620117	-0.023498535	0.077087402	0.999999046	0.000297546	4.67E-05	0.000133514	9.64050293	-0.587463379	1.927185059	0.01487732	0.002336502	0.00667572	-0.612548828	0.331787109	0.689697266	895.68	-15.9482721	-78.15095661	-136.5680685	-72
21880	0	0.386461258	-0.02203083	0.077074051	0.999999046	0.000105858	-0.000144958	0.000247955	9.661531448	-0.55077076	1.926851273	0.005292893	-0.007247925	0.012397766	-0.612548828	0.333984375	0.683837891	895.74	-16.04694053	-78.15907259	-136.4619855	-72
21881	0	0.387268066	-0.023620605	0.077819824	0.999999046	0.000232697	-2.19E-05	1.14E-05	9.68170166	-0.590515137	1.945495605	0.011634827	-0.001096725	0.000572205	-0.612548828	0.333984375	0.686767578	895.72	-15.98853405	-78.16107079	-136.506581	-72
21882	0	0.386843681	-0.023288727	0.077384949	0.999999046	0.000509262	-1.34E-05	-3.15E-05	9.671092033	-0.58221817	1.934623718	0.025463105	-0.000667572	-0.001573563	-0.610351563	0.336181641	0.686523438	895.64	-15.87471709	-78.16346339	-136.5714298	-72
21883	0	0.386047363	-0.021728516	0.07635498	0.999999046	0.000900269	5.05E-05	6.87E-05	9.651184082	-0.543212891	1.908874512	0.045013434	0.002527237	0.003433228	-0.612548828	0.333984375	0.683837891	895.76	-15.75914295	-78.15572138	-136.5964584	-72
21884	0	0.385670662	-0.019265175	0.076000214	0.999999046	0.00026226	-1.53E-05	0.000255585	9.641766548	-0.481629372	1.900005341	0.013113022	-0.000762939	0.012779236	-0.612792969	0.336181641	0.683837891	895.76	-15.82410028	-78.14951419	-136.5088835	-72
21885	0	0.385070801	-0.019470215	0.075622559	0.999999046	-0.000102997	-0.000113487	0.0001297	9.62677002	-0.486755371	1.890563965	-0.005149841	-0.005674362	0.006484985	-0.612792969	0.338378906	0.68359375	895.7	-15.87880984	-78.158178	-136.4695675	-73
21886	0	0.385326385	-0.020624161	0.077361107	0.999999046	-0.000471115	-2.29E-05	2.29E-05	9.633159637	-0.515604019	1.934027672	-0.023555756	-0.001144409	0.001144409	-0.612792969	0.336181641	0.683837891	895.8	-15.90563984	-78.16021512	-136.504476	-73
21887	0	0.38671875	-0.022460938	0.076660156	0.999999046	-0.000511169	-1.81E-05	3.81E-06	9.66796875	-0.561523438	1.916503906	-0.025558473	-0.000905991	0.000190735	-0.612548828	0.333984375	0.683837891	895.76	-15.92640458	-78.1623655	-136.5521878	-73
21888	0	0.38403511	-0.022483826	0.078636169	0.999999046	-0.000435829	5.34E-05	-6.10E-05	9.600877762	-0.562095642	1.965904236	-0.021791459	0.002670288	-0.003051758	-0.612548828	0.333984375	0.683837891	895.64	-15.8936618	-78.15858189	-136.6437907	-74
21889	0	0.389343262	-0.022460938	0.076721191	0.999999046	-0.000217438	-9.44E-05	0.000148773	9.733581543	-0.561523438	1.918029785	-0.010871887	-0.004720688	0.00743866	-0.610107422	0.333740234	0.680908203	895.66	-15.96841886	-78.16457468	-136.594177	-74
21890	0	0.387457848	-0.024440765	0.076636314	0.999999046	0.000116348	1.91E-05	-0.000538826	9.68644619	-0.611019135	1.91590786	0.005817414	0.000953674	-0.026941301	-0.610107422	0.331787109	0.681152344	895.64	-15.62651354	-78.17953963	-136.9341391	-75
21891	0	0.38494873	-0.02130127	0.07800293	0.999999046	0.000415802	0.000153542	-0.000431061	9.623718262	-0.532531738	1.950073242	0.020790101	0.007677079	-0.021553041	-0.612548828	0.333984375	0.683837891	895.7	-15.28675067	-78.17589332	-137.2381468	-75
21892	0	0.384516716	-0.022248268	0.078016281	0.999999046	8.68E-05	0.000120163	-0.000123024	9.6129179	-0.556206703	1.950407028	0.004339218	0.006008148	-0.006151199	-0.610351563	0.333984375	0.683837891	895.7	-15.1525068	-78.16636091	-137.3697534	-75
21893	0	0.38482666	-0.022583008	0.077209473	0.999999046	0.000324249	1.62E-05	-1.14E-05	9.620666504	-0.564575195	1.930236816	0.016212464	0.000810623	-0.000572205	-0.614990234	0.333984375	0.684082031	895.8	-15.06527147	-78.1649239	-137.4288063	-75
21894	0	0.384030342	-0.020388603	0.077295303	0.999999046	0.000242233	0.000171661	1.81E-05	9.600758553	-0.50971508	1.932382584	0.012111664	0.008583069	0.000905991	-0.612548828	0.333984375	0.683837891	895.72	-14.98089221	-78.14539393	-137.4940538	-75
21895	0	0.384277344	-0.020446777	0.077697754	0.999999046	0.000205994	4.77E-06	0.000144958	9.606933594	-0.511169434	1.942443848	0.010299683	0.000238419	0.007247925	-0.6171875	0.334228516	0.684082031	895.7	-14.99106454	-78.14055829	-137.4696332	-78
21896	0	0.384331703	-0.020220757	0.078623772	0.999999046	0.000418663	-8.20E-05	0.000125885	9.60829258	-0.505518913	1.965594292	0.020933152	-0.0041008	0.006294251	-0.614990234	0.333984375	0.684082031	895.66	-14.97878585	-78.14584844	-137.4442162	-82
21897	0	0.386291504	-0.020324707	0.077819824	0.999999046	0.000396729	-0.000113487	0.000247955	9.657287598	-0.508117676	1.945495605	0.019836427	-0.005674362	0.012397767	-0.612548828	0.331787109	0.681152344	895.7	-15.03769818	-78.15102049	-137.3488023	-77
21898	0	0.387090683	-0.022529602	0.077749252	0.999998093	0.000302315	2.57E-05	1.43E-05	9.677267075	-0.563240051	1.943731308	0.015115738	0.00128746	0.000715256	-0.612792969	0.336181641	0.683837891	895.72	-14.96482305	-78.14769753	-137.395855	-78
21899	0	0.385620117	-0.020812988	0.077209473	0.999999046	0.000747681	4.29E-05	-9.54E-05	9.64050293	-0.520324707	1.930236816	0.037384037	0.002145767	-0.004768372	-0.612548828	0.333984375	0.683837891	895.7	-14.7806753	-78.14570051	-137.5107137	-77
21900	0	0.38476181	-0.018120766	0.078001022	0.999999046	0.000475883	0.000101089	-0.000210762	9.619045258	-0.453019142	1.950025558	0.023794175	0.005054474	-0.010538102	-0.614990234	0.338378906	0.677978516	895.7	-14.55804941	-78.1405696	-137.6813032	-77
21901	0	0.383911133	-0.020141602	0.077392578	0.999999046	-7.63E-05	0.000130653	-0.000102997	9.59777832	-0.503540039	1.934814453	-0.003814697	0.006532669	-0.005149841	-0.614990234	0.336181641	0.680908203	895.72	-14.45174384	-78.1289561	-137.8058913	-78
21902	0	0.38566494	-0.021966934	0.07761097	0.999999046	-0.000204086	0.000162125	3.72E-05	9.641623497	-0.549173355	1.940274239	-0.010204315	0.008106232	0.001859665	-0.614990234	0.336181641	0.680908203	895.8	-14.43039537	-78.10981571	-137.8579786	-78
21903	0	0.384277344	-0.019042969	0.078063965	0.999999046	8.01E-05	6.96E-05	7.63E-05	9.606933594	-0.476074219	1.951599121	0.004005432	0.003480911	0.003814697	-0.614990234	0.336181641	0.678222656	895.74	-14.40937938	-78.09984047	-137.8726241	-79
21904	0	0.387497902	-0.017502785	0.077630997	0.999999046	-0.000966072	0.000217438	0.000323296	9.687447548	-0.437569618	1.940774918	-0.048303613	0.010871889	0.016164783	-0.614990234	0.336181641	0.683837891	895.7	-14.61728874	-78.0664406	-137.78194	-81
21905	0	0.386535645	-0.022949219	0.078735352	0.999999046	-0.001014709	0.000142097	-0.000141144	9.663391113	-0.573730469	1.968383789	-0.050735483	0.007104875	-0.007057191	-0.614990234	0.336181641	0.683837891	895.76	-14.59759174	-78.05475048	-137.9255542	-81
21906	0	0.38269043	-0.021057129	0.079711914	0.999999046	-3.43E-05	-7.25E-05	-1.91E-05	9.567260742	-0.526428223	1.992797852	-0.001716614	-0.003623962	-0.000953674	-0.614746094	0.333984375	0.678222656	895.76	-14.55888357	-78.06324761	-137.9687572	-78
21907	0	0.384559631	-0.021459579	0.079846382	0.999996185	0.000329018	-4.20E-05	7.44E-05	9.613990784	-0.536489487	1.996159554	0.016450882	-0.002098084	0.00371933	-0.614746094	0.333984375	0.678222656	895.68	-14.5235069	-78.06557155	-137.9672005	-81
21908	0	0.387145042	-0.021961212	0.078784943	0.999999046	0.000267982	-0.000135422	0.000151634	9.67862606	-0.549030304	1.969623566	0.013399124	-0.006771088	0.007581711	-0.614990234	0.333984375	0.681152344	895.76	-14.54874259	-78.07600888	-137.9164962	-81
21909	0	0.384155273	-0.019897461	0.077819824	0.999999046	0.000431061	-0.000170708	0.000171661	9.603881836	-0.497436523	1.945495605	0.02155304	-0.008535385	0.008583069	-0.617431641	0.336425781	0.684082031	895.7	-14.57057621	-78.08978518	-137.8526279	-79
21910	0	0.38435936	-0.016483307	0.07806778	0.999999046	0.000402451	-0.000339508	0.000347137	9.608983994	-0.412082672	1.951694489	0.020122529	-0.016975404	0.017356874	-0.614990234	0.333984375	0.681152344	895.74	-14.71048432	-78.11723681	-137.6721098	-78
21911	0	0.385742188	-0.019775391	0.08013916	0.999999046	-0.000415802	-0.000323296	-4.58E-05	9.643554688	-0.494384766	2.003479004	-0.020790101	-0.01616478	-0.002288818	-0.612548828	0.336181641	0.680908203	895.72	-14.73495325	-78.15419984	-137.697484	-78
21912	0	0.386771202	-0.024810791	0.078036308	0.999999046	-0.00020504	-0.000185013	0.000292778	9.669280052	-0.620269775	1.950907707	-0.010251999	-0.009250641	0.014638901	-0.612548828	0.333984375	0.681152344	895.82	-14.89610812	-78.16587813	-137.5627096	-78
21913	0	0.385070801	-0.023803711	0.078063965	0.999999046	0.00094223	-0.000315666	0.000350952	9.62677002	-0.595092773	1.951599121	0.04711152	-0.015783313	0.017547611	-0.612548828	0.333984375	0.681152344	895.64	-14.97603186	-78.1901798	-137.3802626	-78
21914	0	0.38620472	-0.01813221	0.076693535	0.999999046	0.000764847	-0.000394821	7.63E-05	9.655117989	-0.453305244	1.917338371	0.038242345	-0.019741061	0.003814698	-0.612548828	0.336181641	0.680908203	895.7	-14.94172737	-78.23143985	-137.3328172	-78
21915	0	0.385070801	-0.020202637	0.07623291	0.999999046	-0.000156403	-0.000174522	-1.91E-05	9.62677002	-0.505065918	1.905822754	-0.007820129	-0.00872612	-0.000953674	-0.610351563	0.338134766	0.683349609	895.7	-14.93096197	-78.25117552	-137.3672351	-78
21916	0	0.386929512	-0.020944595	0.077127457	0.999999046	-0.000304222	-0.00021553	0.000144958	9.673237801	-0.523614883	1.928186417	-0.015211106	-0.01077652	0.007247925	-0.612792969	0.338378906	0.680664063	895.66	-15.03040452	-78.27061946	-137.301577	-78
21917	0	0.386047363	-0.020568848	0.076416016	0.999999046	-0.000453949	-0.000174522	0.00030899	9.651184082	-0.514221191	1.910400391	-0.02269745	-0.00872612	0.015449525	-0.610351563	0.336181641	0.686523438	895.68	-15.22883646	-78.28059563	-137.1633562	-78
21918	0	0.388379097	-0.022648811	0.076869011	0.999999046	-0.00034523	-0.000148773	-1.62E-05	9.709477425	-0.566220284	1.921725273	-0.017261506	-0.00743866	-0.000810623	-0.612792969	0.338378906	0.68359375	895.68	-15.23820357	-78.29748272	-137.1960686	-78
21919	0	0.385925293	-0.023193359	0.075805664	0.999999046	-5.72E-05	-0.00014019	-0.000175476	9.648132324	-0.579833984	1.895141602	-0.002861023	-0.007009506	-0.008773804	-0.610107422	0.333740234	0.680908203	895.64	-15.12866187	-78.31822146	-137.3190448	-78
21920	0	0.38461113	-0.01958847	0.077403069	0.999999046	-0.000254631	-4.39E-05	0.000152588	9.615278244	-0.489711761	1.935076714	-0.012731552	-0.002193451	0.007629395	-0.610351563	0.3359375	0.680664063	895.76	-15.20269887	-78.31843383	-137.2723783	-78
21921	0	0.387329102	-0.022766113	0.077697754	0.999999046	-0.00044632	7.34E-05	0.00044632	9.683227539	-0.569152832	1.942443848	-0.022315981	0.003671646	0.022315981	-0.610351563	0.333984375	0.686523438	895.76	-15.4387374	-78.2966734	-137.0949843	-78
21922	0	0.386230469	-0.024597168	0.07611084	0.999999046	-2.29E-05	0.000144958	0.000282288	9.655761719	-0.614929199	1.902770996	-0.001144409	0.007247925	0.01411438	-0.612792969	0.336181641	0.683837891	895.7	-15.52846191	-78.27192519	-137.0106996	-78
21923	0	0.386230469	-0.020874023	0.074768066	0.999999046	0.000160217	0.000187874	0.000522614	9.655761719	-0.521850586	1.86920166	0.008010865	0.009393693	0.026130678	-0.610351563	0.333984375	0.689453125	895.76	-15.71783644	-78.23506516	-136.8169505	-78
21924	0	0.385937691	-0.01905632	0.075161934	0.999999046	-0.000372887	0.000209808	0.000403404	9.648442268	-0.476408005	1.879048347	-0.018644334	0.010490418	0.020170213	-0.612792969	0.338378906	0.680664063	895.7	-15.90012388	-78.19954153	-136.6714873	-79
21925	0	0.385070801	-0.021362305	0.075317383	0.999999046	-0.001102448	0.000138283	0.000343323	9.62677002	-0.534057617	1.88293457	-0.055122388	0.00691414	0.017166142	-0.612792969	0.336181641	0.683837891	895.76	-16.14410477	-78.17376413	-136.5544801	-79
21926	0	0.387168884	-0.024544716	0.076895714	0.999999046	-0.000957489	0.000175476	0.000247955	9.679222107	-0.613617897	1.922392845	-0.047874459	0.008773805	0.012397768	-0.610107422	0.333740234	0.680908203	895.7	-16.31549502	-78.14687453	-136.4909242	-79
21927	0	0.386047363	-0.024597168	0.077209473	0.999999046	-0.000118256	4.29E-05	0.000160217	9.651184082	-0.614929199	1.930236816	-0.005912781	0.002145767	0.008010864	-0.614990234	0.331787109	0.684326172	895.76	-16.36519885	-78.13731929	-136.4643635	-79
21928	0	0.385178566	-0.023030281	0.077846527	0.999999046	0.000433922	-4.01E-05	9.54E-05	9.629464149	-0.575757027	1.946163177	0.021696091	-0.002002716	0.004768372	-0.614990234	0.331787109	0.684326172	895.74	-16.33034859	-78.13893758	-136.4609424	-79
21929	0	0.386352539	-0.022644043	0.076538086	0.999999046	0.000614166	-5.63E-05	0.000213623	9.658813477	-0.566101074	1.913452148	0.030708315	-0.002813339	0.010681153	-0.612548828	0.333984375	0.683837891	895.82	-16.33919418	-78.13857551	-136.3881276	-79
21930	0	0.387877464	-0.020766258	0.073955536	0.999999046	0.000213623	-1.14E-05	0.000117302	9.696936607	-0.519156456	1.848888397	0.010681152	-0.000572205	0.005865097	-0.612548828	0.333984375	0.683837891	895.74	-16.33631489	-78.13659786	-136.374929	-79
21931	0	0.387634277	-0.023071289	0.074279785	0.999999046	-0.000217438	0.000222206	-3.81E-06	9.690856934	-0.576782227	1.856994629	-0.010871887	0.011110306	-0.000190735	-0.610351563	0.336181641	0.686523438	895.72	-16.28392403	-78.11297052	-136.4610192	-79
21932	0	0.384609222	-0.022309303	0.077186584	0.999999046	-0.000281334	3.43E-05	-0.000115395	9.61523056	-0.557732582	1.929664612	-0.014066696	0.001716614	-0.00576973	-0.612548828	0.333984375	0.683837891	895.7	-16.20920568	-78.11357674	-136.5768701	-79
21933	0	0.385192871	-0.023925781	0.078674316	0.999999046	-0.000202179	3.91E-05	0.000228882	9.629821777	-0.598144531	1.96685791	-0.010108948	0.001955032	0.011444092	-0.612548828	0.333984375	0.683837891	895.66	-16.30474975	-78.10252679	-136.5091229	-79
21934	0	0.388105392	-0.023769379	0.078510284	0.999999046	4.20E-05	0.000146866	0.000156403	9.702634811	-0.594234467	1.962757111	0.002098084	0.007343292	0.007820129	-0.612548828	0.333984375	0.686767578	895.64	-16.31803421	-78.0818843	-136.501847	-79
21935	0	0.384887695	-0.023193359	0.075561523	0.999999046	-3.81E-06	0.000187874	0.000133514	9.622192383	-0.579833984	1.889038086	-0.000190735	0.009393692	0.00667572	-0.610351563	0.336181641	0.689208984	895.8	-16.3185129	-78.05754191	-136.5119552	-79
21936	0	0.385035515	-0.022503853	0.076742172	0.999999046	-0.000252724	8.39E-05	0.000178337	9.625887871	-0.562596321	1.918554306	-0.012636185	0.004196167	0.008916855	-0.612548828	0.333984375	0.686767578	895.7	-16.38650097	-78.04323247	-136.4829495	-79
21937	0	0.38494873	-0.021850586	0.080078125	0.999999046	-0.000423431	3.91E-05	0.000102997	9.623718262	-0.546264648	2.001953125	-0.02117157	0.001955032	0.005149841	-0.610351563	0.333984375	0.686523438	895.68	-16.44118679	-78.03617947	-136.4846949	-78
21938	0	0.386218071	-0.024437904	0.078499794	0.999998093	-0.000346184	4.86E-05	0.000228882	9.655451775	-0.610947609	1.96249485	-0.017309189	0.00243187	0.011444092	-0.614990234	0.333984375	0.686767578	895.76	-16.55096577	-78.02392782	-136.4225885	-78
21939	0	0.386291504	-0.025817871	0.077148438	0.999999046	-0.000148773	8.87E-05	0	9.657287598	-0.645446777	1.928710938	-0.00743866	0.004434586	0	-0.614990234	0.333984375	0.689697266	895.72	-16.51398384	-78.01471988	-136.4912035	-78
21940	0	0.384507179	-0.024254799	0.076964378	0.999999046	-1.24E-05	0.000219345	6.10E-05	9.612679482	-0.606369972	1.924109459	-0.000619888	0.010967255	0.003051758	-0.614990234	0.331787109	0.684326172	895.74	-16.47327953	-77.98920197	-136.5436399	-78
21941	0	0.384033203	-0.022888184	0.07824707	0.999999046	-7.63E-05	0.000172615	3.05E-05	9.600830078	-0.57220459	1.956176758	-0.003814697	0.008630753	0.001525879	-0.612548828	0.331787109	0.684082031	895.76	-16.43126705	-77.96978552	-136.6031977	-78
21942	0	0.386018753	-0.023046494	0.078009605	0.999999046	-0.000570297	-2.10E-05	0.000247002	9.650468826	-0.576162338	1.950240135	-0.028514864	-0.001049042	0.012350083	-0.612548828	0.329589844	0.687011719	895.64	-16.58690636	-77.96460467	-136.525406	-78
21943	0	0.386962891	-0.028137207	0.079345703	0.999999046	-0.000320435	6.96E-05	-4.58E-05	9.674072266	-0.703430176	1.983642578	-0.016021729	0.003480911	-0.002288818	-0.612548828	0.331787109	0.689697266	895.68	-16.55011935	-77.95890371	-136.6135351	-78
21944	0	0.384695053	-0.025345802	0.079687119	0.999999046	0.000992775	-0.00012207	-2.29E-05	9.617376328	-0.633645058	1.992177963	0.049638756	-0.006103517	-0.001144409	-0.612548828	0.331787109	0.687011719	895.76	-16.40415755	-77.9733989	-136.6583618	-78
21945	0	0.383422852	-0.023254395	0.079833984	0.999998093	0.001362801	-0.000274658	0.00030899	9.585571289	-0.581359863	1.995849609	0.068140053	-0.013732915	0.015449529	-0.612548828	0.333984375	0.686767578	895.82	-16.41006554	-77.993813	-136.5050737	-78
21946	0	0.389066696	-0.022854805	0.078095436	0.999999046	0.001073837	-0.000253677	0.000198364	9.726667404	-0.571370125	1.952385902	0.053691875	-0.012683871	0.009918215	-0.614990234	0.336181641	0.686767578	895.7	-16.38877005	-78.01554535	-136.4141034	-78
21947	0	0.385009766	-0.022338867	0.076904297	0.999999046	0.000541687	-1.81E-05	0.000328064	9.625244141	-0.55847168	1.922607422	0.027084352	-0.000905991	0.016403199	-0.612792969	0.336181641	0.692382813	895.7	-16.45958103	-78.00720667	-136.3014239	-78
21948	0	0.384449005	-0.020739555	0.076117516	0.999999046	0.0002985	9.16E-05	0.000273705	9.611225128	-0.518488884	1.902937889	0.014925003	0.004577637	0.013685227	-0.610595703	0.338378906	0.686279297	895.7	-16.51263192	-77.98870285	-136.2223819	-78
21949	0	0.385314941	-0.020935059	0.077087402	0.999999046	-0.000534058	0.000226021	0.0001297	9.632873535	-0.523376465	1.927185059	-0.026702882	0.011301041	0.006484986	-0.612792969	0.336181641	0.686523438	895.7	-16.56543483	-77.96018461	-136.2448879	-78
21950	0	0.385640144	-0.024534225	0.07595253	0.999999046	-0.000614166	0.000232697	7.53E-05	9.641003609	-0.613355637	1.898813248	-0.030708315	0.011634828	0.003767014	-0.612792969	0.338378906	0.68359375	895.74	-16.59869667	-77.93282616	-136.2862118	-78
21951	0	0.386474609	-0.024719238	0.077819824	0.999999046	-0.000141144	0.000126839	9.16E-05	9.661865234	-0.617980957	1.945495605	-0.00705719	0.006341934	0.004577637	-0.614990234	0.336181641	0.683837891	895.64	-16.60258037	-77.9165767	-136.3072596	-77
21952	0	0.385900497	-0.023103714	0.078093529	0.999999046	6.96E-05	0.00025177	-0.000106812	9.647512436	-0.57759285	1.952338219	0.003480911	0.012588501	-0.005340576	-0.612792969	0.336181641	0.683837891	895.74	-16.4615761	-77.89309494	-136.4508832	-77
21953	0	0.385864258	-0.02331543	0.077697754	0.999999046	-0.000549316	0.000332832	-8.01E-05	9.646606445	-0.582885742	1.942443848	-0.027465822	0.016641618	-0.004005432	-0.610351563	0.336181641	0.68359375	895.72	-16.39342637	-77.8598399	-136.5891797	-76
21954	0	0.383986473	-0.02376461	0.075240135	0.999999046	-0.000692368	0.000238419	0.000250816	9.599661827	-0.594115257	1.88100338	-0.034618381	0.01192093	0.012540819	-0.614990234	0.336181641	0.683837891	895.66	-16.52528733	-77.82638163	-136.5403873	-76
21955	0	0.385803223	-0.024963379	0.077636719	0.999999046	-0.000686646	0.000245094	4.96E-05	9.645080566	-0.624084473	1.940917969	-0.034332278	0.012254716	0.002479553	-0.612792969	0.333984375	0.689697266	895.68	-16.55314788	-77.79876218	-136.6072568	-76
21956	0	0.383503914	-0.024315834	0.078461647	0.999999046	-0.000546455	-7.44E-05	0.000109673	9.587597847	-0.607895851	1.961541176	-0.027322771	-0.00371933	0.005483628	-0.614990234	0.333984375	0.684082031	895.72	-16.64384654	-77.80430028	-136.5836781	-76
21957	0	0.3828125	-0.025146484	0.07989502	0.999999046	-0.000282288	2.00E-05	0.000415802	9.5703125	-0.628662109	1.997375488	-0.01411438	0.001001358	0.020790101	-0.614990234	0.331787109	0.687011719	895.7	-16.84543361	-77.78925189	-136.4240854	-76
21958	0	0.386509895	-0.026429176	0.079955101	0.999999046	-0.000219345	-5.72E-06	0.000411034	9.662747383	-0.660729408	1.998877525	-0.010967255	-0.000286102	0.020551682	-0.612548828	0.331787109	0.687011719	895.7	-17.04131796	-77.7769998	-136.261805	-75
21959	0	0.382568359	-0.026000977	0.079162598	0.999999046	4.58E-05	9.54E-07	0.000507355	9.564208984	-0.650024414	1.979064941	0.002288818	4.77E-05	0.025367738	-0.612548828	0.333984375	0.681152344	895.74	-17.2542716	-77.76060491	-136.0390933	-76
21960	0	0.385045052	-0.024859428	0.078126907	0.999999046	2.38E-05	0.000164032	0.000716209	9.626126289	-0.62148571	1.953172684	0.001192093	0.0082016	0.035810474	-0.612548828	0.333984375	0.686767578	895.8	-17.54826988	-77.71903002	-135.7465966	-76
21961	0	0.384033203	-0.025085449	0.078552246	0.999999046	-0.000385284	0.000115395	0.00056839	9.600830078	-0.62713623	1.963806152	-0.019264223	0.00576973	0.028419497	-0.612548828	0.333984375	0.683837891	895.76	-17.82094194	-77.6876338	-135.5193028	-75
21962	0	0.384472847	-0.026500702	0.080084801	0.999999046	-0.000682831	0.000267029	0.000720978	9.611821175	-0.662517548	2.002120018	-0.034141547	0.013351443	0.036048896	-0.612548828	0.333984375	0.686767578	895.66	-18.17762415	-77.63397096	-135.2448998	-75
21963	0	0.386230469	-0.03137207	0.081176758	0.999999046	-0.000179291	0.000172615	0.00025177	9.655761719	-0.784301758	2.029418945	-0.008964539	0.008630753	0.012588501	-0.610351563	0.336181641	0.686523438	895.58	-18.25838388	-77.60702506	-135.188534	-76
21964	0	0.38496685	-0.028909683	0.080260277	0.999998093	0.001558304	-5.05E-05	3.81E-05	9.624171257	-0.722742081	2.00650692	0.077915223	-0.002527238	0.001907349	-0.612548828	0.333984375	0.683837891	895.7	-18.0709274	-77.61195424	-135.2091454	-76
21965	0	0.383544922	-0.024047852	0.079711914	0.999997139	0.001998901	-5.25E-05	6.87E-05	9.588623047	-0.601196289	1.992797852	0.099945135	-0.002622606	0.00343323	-0.612792969	0.338378906	0.680664063	895.76	-17.84772588	-77.61603105	-135.2086603	-76
21966	0	0.387883186	-0.020244598	0.079262733	0.999999046	0.000549316	0.00018692	0.000258446	9.697079659	-0.50611496	1.981568336	0.027465822	0.009346009	0.012922288	-0.612792969	0.338378906	0.68359375	895.7	-17.84517861	-77.58746221	-135.1593881	-76
21967	0	0.388183594	-0.025512695	0.07824707	0.999999046	0.000286102	0.000634193	-9.54E-05	9.704589844	-0.637817383	1.956176758	0.014305116	0.031709674	-0.004768372	-0.613037109	0.340576172	0.686279297	895.56	-17.62703214	-77.52256138	-135.3633146	-76
21968	0	0.384428978	-0.022405624	0.076060295	0.999999046	-0.000288963	0.000741959	-0.000435829	9.610724449	-0.56014061	1.901507378	-0.014448168	0.037097936	-0.021791461	-0.612792969	0.338378906	0.677734375	895.64	-17.29223903	-77.45767824	-135.7433989	-76
21969	0	0.38494873	-0.027038574	0.076416016	0.999999046	-0.000335693	0.000344276	-0.000312805	9.623718262	-0.675964355	1.910400391	-0.016784669	0.017213822	-0.01564026	-0.614990234	0.338378906	0.677978516	895.7	-17.08712805	-77.43196537	-135.995856	-76
21970	0	0.387044907	-0.023982048	0.079716682	0.999999046	-0.000190735	0.000259399	-0.000591278	9.676122665	-0.599551201	1.992917061	-0.009536744	0.012969972	-0.029563906	-0.614746094	0.336181641	0.677978516	895.72	-16.74184199	-77.42468246	-136.3767795	-76
21971	0	0.382629395	-0.024719238	0.081176758	0.999999046	-0.00069046	0.000451088	-0.000240326	9.565734863	-0.617980957	2.029418945	-0.034523015	0.0225544	-0.012016298	-0.619628906	0.336181641	0.684082031	895.64	-16.59885535	-77.38441081	-136.6180583	-76
21972	0	0.384521484	-0.023913383	0.080513	0.999999046	-0.001164436	0.000375748	0.000109673	9.613037109	-0.597834587	2.012825012	-0.058221832	0.018787389	0.005483629	-0.6171875	0.336181641	0.675292969	895.66	-16.69326605	-77.34100324	-136.6534879	-76
21973	0	0.382202148	-0.026977539	0.079956055	0.999998093	-0.001441002	0.000240326	8.77E-05	9.555053711	-0.674438477	1.998901367	-0.07205012	0.012016301	0.004386903	-0.616943359	0.333984375	0.678222656	895.68	-16.82885615	-77.31321449	-136.6831094	-76
21974	0	0.381669998	-0.026791573	0.081465721	0.999999046	-0.000864029	-4.77E-05	0.000258446	9.541749954	-0.669789314	2.036643028	-0.043201452	-0.002384186	0.012922289	-0.619384766	0.329833984	0.684570313	895.74	-17.02419401	-77.31125216	-136.5995947	-75
21975	0	0.385803223	-0.028259277	0.082946777	0.999999046	-0.000553131	-0.000178337	0.000331879	9.645080566	-0.706481934	2.073669434	-0.027656557	-0.008916856	0.016593934	-0.619384766	0.329833984	0.684570313	895.64	-17.23972064	-77.3209604	-136.4571856	-76
21976	0	0.385203362	-0.028057098	0.082288742	0.999999046	-0.000361443	-7.06E-05	0.000244141	9.630084038	-0.70142746	2.057218552	-0.018072129	-0.003528595	0.012207032	-0.616943359	0.329589844	0.681396484	895.76	-17.37488054	-77.3217259	-136.3680783	-76
21977	0	0.383972168	-0.026672363	0.081115723	0.999999046	-0.000492096	0.000107765	1.53E-05	9.599304199	-0.666809082	2.027893066	-0.024604798	0.00538826	0.000762939	-0.616943359	0.329589844	0.684326172	895.7	-17.3867626	-77.31079006	-136.4233591	-76
21978	0	0.383525848	-0.026826859	0.082086563	0.999999046	-0.001138687	2.86E-05	0.00026226	9.58814621	-0.670671463	2.052164078	-0.05693437	0.001430512	0.013113025	-0.614746094	0.329589844	0.689941406	895.66	-17.60470203	-77.29995388	-136.3473938	-76
21979	0	0.385803223	-0.03125	0.080688477	0.999999046	-0.000301361	7.72E-05	0.000156403	9.645080566	-0.78125	2.017211914	-0.015068055	0.003862381	0.00782013	-0.619384766	0.327636719	0.6875	895.7	-17.66883125	-77.28742521	-136.3318893	-77
21980	0	0.383278847	-0.027146339	0.082683563	0.999997139	0.00098896	-0.00015831	-0.000144005	9.581971169	-0.678658485	2.067089081	0.049448022	-0.007915498	-0.007200242	-0.616699219	0.325195313	0.684814453	895.66	-17.47572801	-77.31096422	-136.4301406	-77
21981	0	0.383300781	-0.02545166	0.083984375	0.999999046	0.000724792	-0.000132561	5.72E-05	9.582519531	-0.636291504	2.099609375	0.036239627	-0.006628037	0.002861023	-0.616699219	0.327392578	0.681640625	895.72	-17.40593868	-77.32462909	-136.4262024	-77
21982	0	0.38496685	-0.029281616	0.083435059	0.999999046	0.001279831	-0.000423431	0.000137329	9.624171257	-0.732040405	2.085876465	0.063991566	-0.021171576	0.006866457	-0.614501953	0.327392578	0.678710938	895.72	-17.35641128	-77.36724084	-136.3347629	-77
21983	0	0.38458252	-0.026245117	0.080505371	0.999998093	0.001805305	-0.000213623	0.000144958	9.614562988	-0.65612793	2.012634277	0.090265324	-0.010681158	0.007247929	-0.616943359	0.329589844	0.687255859	895.76	-17.21850461	-77.38665896	-136.2884629	-77
21984	0	0.384120941	-0.02283287	0.080118179	0.999999046	0.000691414	-8.77E-05	0.000114441	9.603023529	-0.570821762	2.002954483	0.034570697	-0.004386902	0.005722046	-0.614746094	0.331787109	0.684082031	895.8	-17.17352437	-77.39346343	-136.2698582	-77
21985	0	0.384033203	-0.024230957	0.080932617	0.999999046	0.000514984	-0.000113487	1.14E-05	9.600830078	-0.605773926	2.02331543	0.025749208	-0.005674362	0.000572205	-0.6171875	0.333984375	0.684082031	895.72	-17.10182761	-77.40659946	-136.2977116	-77
21986	0	0.383989334	-0.024157524	0.080563545	0.999999046	0.000450134	-0.000164032	0.000267029	9.599733353	-0.603938103	2.014088631	0.022506715	-0.0082016	0.013351441	-0.6171875	0.336181641	0.680908203	895.76	-17.17019359	-77.41669841	-136.1824475	-77
21987	0	0.385498047	-0.025878906	0.081176758	0.999999046	0.000400543	-0.000136375	9.92E-05	9.637451172	-0.646972656	2.029418945	0.020027161	-0.006818772	0.004959107	-0.614746094	0.336181641	0.677978516	895.7	-17.1578304	-77.42944679	-136.1512984	-77
21988	0	0.384049416	-0.025770187	0.079504967	0.999999046	0.000784874	-9.35E-05	-0.000115395	9.60123539	-0.644254684	1.987624168	0.039243702	-0.004673005	-0.00576973	-0.614746094	0.336181641	0.680908203	895.7	-16.98954596	-77.44476768	-136.2414695	-77
21989	0	0.38482666	-0.022399902	0.080688477	0.999999046	0.000595093	-6.68E-06	4.20E-05	9.620666504	-0.559997559	2.017211914	0.02975464	-0.000333786	0.002098084	-0.6171875	0.336181641	0.678222656	895.64	-16.90657254	-77.44534114	-136.2652453	-76
21990	0	0.383788109	-0.022399902	0.07912159	0.999999046	3.62E-05	-0.000144958	0.000289917	9.594702721	-0.559997559	1.978039742	0.001811981	-0.007247925	0.01449585	-0.6171875	0.336181641	0.683837891	895.76	-17.02997074	-77.45287233	-136.1522675	-77
21991	0	0.38494873	-0.02154541	0.079833984	0.999999046	-0.000789642	-0.000102043	0.000358582	9.623718262	-0.538635254	1.995849609	-0.039482122	-0.005102158	0.017929079	-0.614746094	0.336181641	0.680908203	895.64	-17.27460865	-77.45342091	-136.0038901	-77
21992	0	0.387325287	-0.026525497	0.078919411	0.999997139	-0.001162529	-5.34E-05	0	9.683132172	-0.663137436	1.972985268	-0.058126463	-0.002670289	0	-0.614746094	0.336181641	0.677978516	895.64	-17.3785598	-77.46090353	-136.0344262	-77
21993	0	0.384216309	-0.02520752	0.081481934	0.999999046	-0.000183105	-0.000266075	-0.000522614	9.605407715	-0.630187988	2.03704834	-0.009155274	-0.013303758	-0.026130678	-0.6171875	0.336181641	0.683837891	895.66	-17.14488856	-77.50935019	-136.3035969	-77
21994	0	0.383982658	-0.026241302	0.082792282	0.999999046	-0.000146866	-0.00015831	-0.000331879	9.59956646	-0.656032562	2.069807053	-0.007343292	-0.007915497	-0.016593934	-0.6171875	0.333984375	0.684082031	895.7	-16.98357901	-77.53923557	-136.4969118	-76
21995	0	0.385742188	-0.027648926	0.079711914	0.999999046	0.000499725	-0.00014019	-0.000164032	9.643554688	-0.691223145	1.992797852	0.024986268	-0.007009507	-0.0082016	-0.6171875	0.33203125	0.684326172	895.64	-16.82868461	-77.56142271	-136.6125059	-76
21996	0	0.384033203	-0.024047852	0.079833984	0.999999046	0.000870705	-0.000118256	-0.000156403	9.600830078	-0.601196289	1.995849609	0.043535238	-0.005912782	-0.00782013	-0.617431641	0.334228516	0.687011719	895.64	-16.63115561	-77.58088551	-136.7306165	-76
21997	0	0.383568764	-0.021180153	0.079913139	0.999999046	0.000154495	-0.000309944	-0.000178337	9.589219093	-0.529503822	1.997828484	0.007724762	-0.015497208	-0.008916855	-0.6171875	0.334228516	0.684082031	895.64	-16.53201777	-77.62211706	-136.8265517	-76
21998	0	0.384882927	-0.025492668	0.080573082	0.999999046	-0.00056839	-0.000192642	-9.54E-05	9.622073174	-0.637316704	2.014327049	-0.028419496	-0.009632111	-0.004768372	-0.614990234	0.331787109	0.687011719	895.8	-16.53971201	-77.64767994	-136.9030495	-76
21999	0	0.383850098	-0.026367188	0.081542969	0.999999046	6.10E-05	-0.00026226	0.000179291	9.596252441	-0.659179688	2.038574219	0.003051758	-0.013113022	0.008964539	-0.614990234	0.333984375	0.684082031	895.66	-16.62388698	-77.67180299	-136.8188227	-76
22000	0	0.38479805	-0.024847984	0.078779221	0.999999046	7.72E-05	-0.000190735	0.000487328	9.619951248	-0.621199608	1.969480515	0.003862381	-0.009536744	0.02436638	-0.6171875	0.334228516	0.684082031	895.76	-16.85070414	-77.67788705	-136.5881852	-76
22001	0	0.385009766	-0.024902344	0.07800293	0.999999046	-0.000621796	-7.15E-05	0.000228882	9.625244141	-0.622558594	1.950073242	-0.031089785	-0.003576279	0.011444093	-0.6171875	0.334228516	0.684082031	895.76	-17.01002072	-77.67942555	-136.5066515	-76
22002	0	0.38427639	-0.026643753	0.080293655	0.999999046	-0.000858307	8.39E-05	0.000118256	9.606909752	-0.666093826	2.007341385	-0.04291535	0.004196168	0.005912782	-0.612548828	0.333984375	0.683837891	895.66	-17.11735857	-77.66754154	-136.5012607	-76
22003	0	0.384216309	-0.02947998	0.081054688	0.999999046	-1.53E-05	4.77E-06	0.00037384	9.605407715	-0.736999512	2.026367188	-0.000762939	0.000238419	0.018692017	-0.614990234	0.331787109	0.687011719	895.74	-17.26904278	-77.65548951	-136.3622865	-75
22004	0	0.385721207	-0.026535988	0.080507278	0.999999046	0.000731468	-0.00021553	0.000372887	9.643030167	-0.663399696	2.012681961	0.036573414	-0.010776521	0.018644335	-0.614990234	0.333984375	0.686767578	895.7	-17.36908952	-77.66744001	-136.1871147	-75
22005	0	0.384460449	-0.025390625	0.078308105	0.999999046	0.000972748	-0.000132561	0.000389099	9.61151123	-0.634765625	1.957702637	0.048637399	-0.006628038	0.01945496	-0.617431641	0.334228516	0.687011719	895.7	-17.43683168	-77.66974243	-136.0215761	-75
22006	0	0.385011673	-0.023830414	0.077762604	0.999999046	0.000520706	-0.000175476	0.00030899	9.625291824	-0.595760345	1.944065094	0.026035311	-0.008773804	0.015449525	-0.612792969	0.336181641	0.686523438	895.68	-17.52284872	-77.67954792	-135.8859724	-75
22007	0	0.386230469	-0.02557373	0.077453613	0.999999046	8.77E-05	-0.000117302	0.000110626	9.655761719	-0.639343262	1.936340332	0.004386902	-0.005865097	0.005531311	-0.612792969	0.338378906	0.689208984	895.8	-17.55024188	-77.68990155	-135.8615931	-74
22008	0	0.384594917	-0.02509594	0.0797472	0.999999046	-8.30E-05	-0.0001297	0.000305176	9.614872932	-0.627398491	1.99368	-0.004148483	-0.006484985	0.015258789	-0.610595703	0.338378906	0.689208984	895.7	-17.69644512	-77.6948212	-135.7346695	-75
22009	0	0.388122559	-0.027832031	0.078063965	0.999999046	0.000118256	-0.000170708	0.00018692	9.703063965	-0.695800781	1.951599121	0.005912781	-0.008535385	0.009346008	-0.612792969	0.338378906	0.680664063	895.76	-17.76759599	-77.70837218	-135.6488995	-75
22010	0	0.385393143	-0.024600983	0.078791618	0.999999046	0.000249863	-1.91E-06	-0.00023365	9.634828568	-0.615024567	1.969790459	0.012493134	-9.54E-05	-0.011682511	-0.615234375	0.338378906	0.68359375	895.64	-17.5855563	-77.71815246	-135.8126653	-75
22011	0	0.383422852	-0.024291992	0.078796387	0.999999046	-0.000205994	-6.77E-05	-0.000114441	9.585571289	-0.607299805	1.969909668	-0.010299683	-0.003385544	-0.005722046	-0.615234375	0.338378906	0.689453125	895.76	-17.52549027	-77.73090799	-135.9129586	-73
22012	0	0.386307716	-0.025823593	0.079159737	0.999999046	1.62E-05	-0.000114441	-1.24E-05	9.657692909	-0.645589828	1.978993416	0.000810623	-0.005722046	-0.000619888	-0.615234375	0.338378906	0.68359375	895.8	-17.49855641	-77.74525469	-135.9436614	-73
22013	0	0.386108398	-0.025817871	0.076904297	0.999999046	-0.000106812	-0.000117302	6.48E-05	9.652709961	-0.645446777	1.922607422	-0.005340576	-0.005865097	0.003242493	-0.614990234	0.336181641	0.686767578	895.7	-17.52524369	-77.75732705	-135.9421137	-73
22014	0	0.382705688	-0.024541855	0.078700066	0.999999046	1.34E-05	-0.000204086	4.10E-05	9.567642212	-0.613546371	1.96750164	0.000667572	-0.010204315	0.0020504	-0.612792969	0.336181641	0.689453125	895.7	-17.53975416	-77.77967637	-135.9417165	-73
22015	0	0.385131836	-0.024169922	0.079101563	0.999999046	-0.000209808	-0.000189781	8.77E-05	9.628295898	-0.604248047	1.977539063	-0.010490418	-0.00948906	0.004386902	-0.612792969	0.336181641	0.683837891	895.76	-17.60086108	-77.79885862	-135.9098263	-73
22016	0	0.384363174	-0.027078629	0.07973671	0.999999046	9.44E-05	-0.000299454	5.25E-05	9.609079361	-0.676965714	1.99341774	0.004720688	-0.014972687	0.002622604	-0.612792969	0.333984375	0.689697266	895.68	-17.62729165	-77.83110627	-135.8906415	-73
22017	0	0.384216309	-0.025390625	0.078857422	0.999999046	0.00056076	-0.00039959	0.000247955	9.605407715	-0.634765625	1.971435547	0.028038027	-0.019979479	0.012397767	-0.612792969	0.336181641	0.689453125	895.64	-17.71575748	-77.86743504	-135.7506655	-73
22018	0	0.385853767	-0.025798798	0.079248428	0.999999046	0.000154495	-0.000320435	8.01E-05	9.646344185	-0.64496994	1.981210709	0.007724762	-0.016021729	0.004005432	-0.615234375	0.338378906	0.68359375	895.72	-17.75313192	-77.90090915	-135.6984822	-72
22019	0	0.38494873	-0.027404785	0.078552246	0.999999046	0.000564575	-0.000212669	-2.67E-05	9.623718262	-0.685119629	1.963806152	0.028228761	-0.010633469	-0.001335144	-0.612792969	0.336181641	0.683837891	895.76	-17.67198231	-77.92626881	-135.7240397	-72
22020	0	0.38376236	-0.024671555	0.078537941	0.999999046	0.000844002	-0.000362396	0.000179291	9.59405899	-0.616788864	1.963448524	0.042200095	-0.018119815	0.00896454	-0.612792969	0.338378906	0.689208984	895.76	-17.68813953	-77.96072479	-135.6245765	-72
22021	0	0.385681152	-0.023986816	0.078063965	0.999999046	0.000144958	-0.000292778	0.00012207	9.642028809	-0.59967041	1.951599121	0.007247925	-0.014638901	0.006103516	-0.610351563	0.338134766	0.683349609	895.72	-17.74370242	-77.98958096	-135.5568035	-73
22022	0	0.386207581	-0.025585175	0.076500893	0.999999046	3.81E-05	-0.000205994	0.000141144	9.655189514	-0.639629364	1.912522316	0.001907349	-0.010299683	0.00705719	-0.610595703	0.338378906	0.689208984	895.72	-17.80740514	-78.00829507	-135.5021572	-73
22023	0	0.385437012	-0.023986816	0.077087402	0.999999046	0.000228882	-0.000208855	7.63E-05	9.635925293	-0.59967041	1.927185059	0.011444092	-0.010442734	0.003814697	-0.610595703	0.338378906	0.691894531	895.8	-17.81621341	-78.02959096	-135.485853	-73
22024	0	0.386136055	-0.024988174	0.076264381	0.999999046	-0.000409126	-0.000167847	-8.01E-05	9.653401375	-0.624704361	1.906609535	-0.020456315	-0.008392334	-0.004005432	-0.608154297	0.338134766	0.691894531	895.76	-17.81080285	-78.05194177	-135.5559016	-73
22025	0	0.38482666	-0.026611328	0.076721191	0.999999046	-2.67E-05	-0.000128746	0.000259399	9.620666504	-0.665283203	1.918029785	-0.001335144	-0.006437302	0.012969971	-0.610595703	0.340576172	0.686035156	895.8	-17.93042637	-78.05809893	-135.440867	-73
22026	0	0.387573242	-0.025634766	0.076171875	0.999999046	9.54E-05	-0.000171661	0.00030899	9.689331055	-0.640869141	1.904296875	0.004768372	-0.008583069	0.015449524	-0.610595703	0.338378906	0.689208984	895.8	-18.06905435	-78.06714718	-135.3016585	-73
22027	0	0.386071205	-0.023826599	0.076449394	0.999998093	0.000115395	-0.000108719	-7.72E-05	9.651780128	-0.595664978	1.911234856	0.00576973	-0.005435944	-0.003862381	-0.613037109	0.340576172	0.686279297	895.72	-17.99527162	-78.08306792	-135.3694923	-73
22028	0	0.382851601	-0.024762154	0.077698708	0.999999046	-0.000264168	-0.000156403	-9.54E-05	9.571290016	-0.619053841	1.94246769	-0.01320839	-0.00782013	-0.004768372	-0.610595703	0.338378906	0.689208984	895.68	-17.9631899	-78.10472307	-135.4450091	-73
22029	0	0.385314941	-0.026062012	0.076660156	0.999999046	-0.000171661	-0.000266075	0.000289917	9.632873535	-0.651550293	1.916503906	-0.008583069	-0.013303757	0.01449585	-0.610595703	0.338378906	0.689208984	895.86	-18.13861161	-78.12463562	-135.2970756	-73
22030	0	0.386377335	-0.026495934	0.075712204	0.999999046	-0.000137329	-9.92E-05	0.000209808	9.659433365	-0.662398338	1.892805099	-0.006866455	-0.004959107	0.010490418	-0.608398438	0.340332031	0.688964844	895.76	-18.24084927	-78.12918622	-135.214805	-73
22031	0	0.38458252	-0.024108887	0.076599121	0.999999046	-0.000247955	6.20E-05	0.000286102	9.614562988	-0.602722168	1.914978027	-0.012397766	0.003099442	0.014305115	-0.610595703	0.342773438	0.686035156	895.72	-18.36720544	-78.11342334	-135.1126348	-73
22032	0	0.386572838	-0.025405884	0.076572418	0.999999046	-0.000264168	-3.05E-05	9.44E-05	9.664320946	-0.635147095	1.914310455	-0.013208389	-0.001525879	0.004720688	-0.610595703	0.340576172	0.688964844	895.7	-18.41197164	-78.11460145	-135.1034882	-74
22033	0	0.385131836	-0.026062012	0.076904297	0.999999046	-0.000156403	-8.30E-05	8.77E-05	9.628295898	-0.651550293	1.922607422	-0.007820129	-0.004148483	0.004386902	-0.608398438	0.340332031	0.691650391	895.66	-18.44994719	-78.12166622	-135.0918184	-73
22034	0	0.3852005	-0.025177002	0.076037407	0.999999046	2.67E-05	-0.000112534	0.000349998	9.630012512	-0.629425049	1.900935173	0.001335144	-0.005626679	0.017499924	-0.610839844	0.342773438	0.688720703	895.7	-18.60739862	-78.12240825	-134.9294006	-74
22035	0	0.387573242	-0.024414063	0.076293945	0.999999046	4.58E-05	-0.000109673	0.000225067	9.689331055	-0.610351563	1.907348633	0.002288818	-0.005483627	0.011253357	-0.608154297	0.338134766	0.688964844	895.82	-18.69731096	-78.12737841	-134.8414959	-74
22036	0	0.387456894	-0.025314331	0.07749176	0.999999046	4.10E-05	0.000135422	-0.000374794	9.686422348	-0.632858276	1.937294006	0.0020504	0.006771088	-0.018739701	-0.608398438	0.342529297	0.685791016	895.76	-18.4348867	-78.12761443	-135.1007754	-76
22037	0	0.38494873	-0.02545166	0.07635498	0.999999046	-3.81E-06	0.000252724	-0.000507355	9.623718262	-0.636291504	1.908874512	-0.000190735	0.012636185	-0.025367738	-0.608154297	0.338134766	0.688964844	895.74	-18.08898252	-78.11951962	-135.4623077	-76
22038	0	0.383776665	-0.026528358	0.077157974	0.999999046	0.000110626	0.000102997	-0.000385284	9.594416618	-0.663208961	1.928949356	0.005531311	0.005149841	-0.019264222	-0.610595703	0.338378906	0.689208984	895.7	-17.81885669	-78.12295465	-135.7334015	-73
22039	0	0.384338379	-0.023803711	0.077758789	0.999999046	0.000572205	-7.92E-05	-9.92E-05	9.608459473	-0.595092773	1.943969727	0.028610231	-0.003957749	-0.004959107	-0.610595703	0.338378906	0.691894531	895.72	-17.6740257	-78.13600263	-135.8280819	-74
22040	0	0.384049416	-0.021442413	0.076928139	0.999999046	0.000178337	-0.000112534	-0.000221252	9.60123539	-0.536060333	1.923203468	0.008916855	-0.005626679	-0.011062622	-0.610595703	0.338378906	0.689208984	895.72	-17.51518446	-78.1569	-135.9785112	-75
22041	0	0.383666992	-0.017456055	0.079284668	0.999999046	-0.000938416	0.000161171	-0.000442505	9.591674805	-0.436401367	1.982116699	-0.046920785	0.008058549	-0.022125248	-0.610595703	0.338378906	0.689208984	895.72	-17.3218479	-78.15531748	-136.290537	-75
22042	0	0.379261971	-0.01861763	0.082056046	0.999999046	0.000255585	-0.000545502	-0.000504494	9.481549263	-0.46544075	2.051401138	0.012779237	-0.027275088	-0.025224688	-0.612792969	0.336181641	0.686523438	895.72	-17.07109231	-78.23270436	-136.5205899	-76
22043	0	0.376037598	-0.012512207	0.082641602	0.999996185	0.001152992	-0.001121521	-0.001777649	9.400939941	-0.312805176	2.066040039	0.057649668	-0.056076104	-0.088882531	-0.610595703	0.338378906	0.691894531	895.66	-16.12258367	-78.41426045	-137.3597717	-77
22044	0	0.385960579	-0.028844833	0.077449799	0.999991417	-0.000933647	-0.000869751	-0.003801346	9.649014473	-0.721120834	1.936244965	-0.046682483	-0.043487665	-0.190067801	-0.612792969	0.333984375	0.692382813	895.66	-14.23943885	-78.62430769	-139.3918138	-78
22045	0	0.400817871	-0.016723633	0.096313477	0.999974251	-0.006076813	-0.000411034	-0.003555298	10.02044678	-0.41809082	2.407836914	-0.303843156	-0.020551852	-0.177766366	-0.614746094	0.327636719	0.693115234	895.76	-12.95905876	-78.76450727	-141.3918419	-78
22046	0	0.398340225	-0.031941414	0.118659019	0.999946594	-0.010128975	0.00083828	-0.00140667	9.95850563	-0.798535347	2.966475487	-0.506457632	0.041914722	-0.070334715	-0.619140625	0.314697266	0.702880859	895.74	-13.17246978	-78.70363746	-142.3450129	-77
22047	0	0.362976074	-0.018310547	0.117370605	0.999930382	-0.011348724	0.002011299	-0.002361298	9.074401855	-0.457763672	2.934265137	-0.567449309	0.100567277	-0.118067604	-0.623046875	0.297363281	0.704589844	895.72	-12.85409508	-78.53398071	-143.9771793	-77
22048	0	0.356567383	-0.02722168	0.09954834	0.999954224	-0.009159088	8.58E-06	0.002559662	8.91418457	-0.680541992	2.488708496	-0.45796131	0.00042916	0.127985022	-0.629638672	0.282226563	0.711914063	895.76	-15.25087823	-78.45452046	-142.5998034	-71
22049	0	0.345375061	-0.049851418	0.096545219	0.999950409	-0.009837151	0.000127792	0.000650406	8.634376526	-1.246285439	2.413630486	-0.491865498	0.006389721	0.032520821	-0.629394531	0.275634766	0.715332031	895.7	-16.66468664	-78.41138369	-142.2906066	-73
22050	0	0.351101875	-0.072972298	0.102619171	0.999984741	-0.004788399	-0.0010252	-0.002518654	8.777546883	-1.824307442	2.565479279	-0.239421147	-0.051260254	-0.12593333	-0.635986328	0.262939453	0.719482422	895.64	-15.98060289	-78.59458567	-143.5410845	-71
22051	0	0.333740234	-0.061340332	0.100524902	0.99998951	0.001331329	-0.002303123	-0.003681183	8.343505859	-1.533508301	2.513122559	0.066566696	-0.11515657	-0.184059776	-0.635742188	0.258544922	0.72265625	895.8	-14.09631103	-78.94607698	-145.3048957	-70
22052	0	0.360230446	-0.099124908	0.103896141	0.999947548	0.007594109	-0.004659653	-0.005002022	9.005761147	-2.478122711	2.597403526	0.379712036	-0.23298669	-0.250105442	-0.640625	0.258544922	0.725830078	895.76	-10.87969876	-79.57592657	-147.7059653	-69
22053	0	0.45324707	-0.123718262	0.10168457	0.999679565	0.022641182	-0.006370544	-0.009304047	11.33117676	-3.092956543	2.542114258	1.132179842	-0.318561196	-0.46525195	-0.638671875	0.271728516	0.724609375	895.7	-2.807050236	-80.41141549	-153.3013325	-71
22054	0	0.446229935	-0.08644104	0.103216171	0.999607086	0.025118828	-0.006525993	-0.010590553	11.15574837	-2.161026001	2.580404282	1.256105916	-0.326342412	-0.529597031	-0.639648438	0.295654297	0.714111328	895.76	7.647230784	-81.09072881	-161.0019324	-70
22055	0	0.374328613	-0.068786621	0.11114502	0.999855995	0.015640259	-0.005690575	-0.003250122	9.358215332	-1.719665527	2.778625488	0.782050424	-0.284542371	-0.162513893	-0.645019531	0.317626953	0.701171875	895.76	12.49481792	-81.64876073	-164.0963905	-71
22056	0	0.334397316	-0.065889359	0.114198685	0.99985981	0.01425457	-0.005125046	0.007044792	8.359932899	-1.647233963	2.854967117	0.712761657	-0.25626421	0.352255995	-0.641113281	0.34375	0.690429688	895.76	9.119465487	-82.35580214	-159.036356	-70
22057	0	0.354370117	-0.058105469	0.106323242	0.999773979	0.016002655	-0.002875328	0.013648987	8.85925293	-1.452636719	2.658081055	0.80019286	-0.143777203	0.682500609	-0.630615234	0.378173828	0.675537109	895.7	-0.99649998	-82.77035022	-146.9811778	-72
22058	0	0.334526062	-0.036632538	0.094058037	0.999839783	0.009366035	0.000195503	0.015218735	8.36315155	-0.915813446	2.35145092	0.468326704	0.009775682	0.760977246	-0.622802734	0.419433594	0.660400391	895.72	-13.42613964	-82.49414323	-133.3313609	-71
22059	0	0.338623047	-0.043762207	0.084594727	0.999910355	-0.000311852	0.002368927	0.013149261	8.465576172	-1.094055176	2.114868164	-0.015593039	0.118449876	0.657482647	-0.614501953	0.453857422	0.636962891	895.68	-23.23507687	-81.72292403	-123.3564123	-72
22060	0	0.360219955	-0.051657677	0.077363968	0.999944687	-0.004652023	0.004151344	0.008418083	9.005498886	-1.291441917	1.934099197	-0.23260542	0.207571012	0.420911858	-0.612548828	0.467041016	0.630126953	895.64	-28.11853725	-80.83720649	-118.8353971	-72
22061	0	0.412109375	-0.056091309	0.079223633	0.999954224	-0.007746696	0.005062103	0.002258301	10.30273438	-1.402282715	1.98059082	-0.387340681	0.253108991	0.112916747	-0.6171875	0.471435547	0.615722656	895.72	-28.73275402	-80.16513274	-118.9823451	-70
22062	0	0.471710205	-0.048306465	0.086700439	0.999900818	-0.012318611	0.006108284	-0.002758026	11.79275513	-1.207661629	2.167510986	-0.615950748	0.305424211	-0.137905827	-0.630371094	0.458496094	0.600585938	895.64	-26.76210886	-79.65423413	-122.314559	-73
22063	0	0.491149902	-0.038085938	0.094787598	0.999795914	-0.018622398	0.007328033	-0.002609253	12.27874756	-0.952148438	2.369689941	-0.931183138	0.36642655	-0.130471504	-0.645996094	0.439453125	0.594238281	895.72	-25.53705575	-78.99443808	-125.6758901	-75
22064	0	0.482161522	-0.023543358	0.099786758	0.99971199	-0.022180557	0.008698463	0.002562523	12.05403805	-0.588583946	2.494668961	-1.109134025	0.434964805	0.128138409	-0.663330078	0.415771484	0.583007813	895.76	-27.22396589	-77.93462997	-126.531681	-76
22065	0	0.490661621	-0.01550293	0.08203125	0.999588966	-0.026252747	0.009675026	0.006248474	12.26654053	-0.387573242	2.05078125	-1.312817195	0.483817584	0.312466516	-0.671630859	0.389892578	0.57421875	895.64	-30.6495858	-76.58426795	-126.1045444	-78
22066	0	0.490306854	-0.000367165	0.066979408	0.999436378	-0.031929016	0.009960175	0.002715111	12.25767136	-0.009179115	1.674485207	-1.596750569	0.498102238	0.13578103	-0.681884766	0.363769531	0.565429688	895.66	-32.96596006	-75.42108709	-127.4908426	-75
22067	0	0.336853027	0.016174316	0.063598633	0.999144554	-0.039951324	0.009003639	-0.00566864	8.421325684	0.40435791	1.58996582	-1.998135737	0.45031031	-0.283512814	-0.698974609	0.327148438	0.557861328	895.74	-33.36773365	-74.88695981	-131.8142373	-72
22068	0	0.302705765	0.009395599	0.056113243	0.99924469	-0.036270142	0.005465508	-0.012784958	7.567644119	0.234889984	1.402831078	-1.813963442	0.273344144	-0.639408758	-0.712890625	0.268554688	0.554931641	895.72	-31.65697036	-75.12456973	-137.8939359	-69
22069	0	0.432373047	0.004394531	0.027709961	0.999604225	-0.021018982	0.004750252	-0.018081665	10.80932617	0.109863281	0.692749023	-1.05108775	0.237543924	-0.904202529	-0.729003906	0.209960938	0.546386719	895.68	-26.10445112	-75.63391908	-146.1286283	-75
22070	0	0.410262108	0.034514427	0.015612602	0.999632835	-0.017978668	0.004924774	-0.019646645	10.2565527	0.86286068	0.390315056	-0.899043338	0.24626882	-0.982452356	-0.742919922	0.16015625	0.53125	895.78	-19.08923135	-75.96932589	-155.4963522	-71
22071	0	0.301879883	0.037109375	0.034240723	0.999483109	-0.024985313	0.002185822	-0.020103455	7.54699707	0.927734375	0.856018066	-1.249480893	0.109309905	-1.0053459	-0.756835938	0.105712891	0.522216797	895.72	-12.66977188	-76.35378964	-165.0623065	-73
22072	0	0.260931969	0.026661873	0.021220207	0.999410629	-0.024938583	-0.000304222	-0.023558617	6.523299217	0.666546822	0.53050518	-1.247173911	-0.015214091	-1.178162032	-0.760986328	0.042480469	0.516113281	895.72	-4.345145495	-76.78639747	-176.564057	-81
22073	0	0.267272949	0.039001465	0.005493164	0.999212265	-0.022288322	-0.00233078	-0.032749176	6.68182373	0.975036621	0.137329102	-1.11470881	-0.116569609	-1.63788886	-0.762939453	-0.025390625	0.513427734	895.64	9.25771006	-76.89292087	166.8426224	-72
22074	0	0.340582848	0.013941765	0.039467812	0.998810768	-0.015995026	-0.002958298	-0.045941353	8.51457119	0.348544121	0.98669529	-0.800068216	-0.147973504	-2.297977948	-0.754638672	-0.106689453	0.502441406	895.76	28.30160529	-75.49474196	145.3540558	-72
22075	0	0.403198242	0.027526855	0.044067383	0.99862957	-0.012619019	-0.004687309	-0.050559998	10.07995605	0.688171387	1.10168457	-0.631239157	-0.234472525	-2.529154711	-0.736572266	-0.201171875	0.500732422	895.66	44.32301462	-72.45940297	127.1922403	-77
22076	0	0.438835144	-0.03061676	0.121448517	0.998885155	-0.004897118	-0.009670258	-0.045937538	10.9708786	-0.765419006	3.036212921	-0.244946885	-0.483692583	-2.297730576	-0.704589844	-0.291992188	0.497802734	895.8	55.91944843	-69.11249048	114.3217402	-70
22077	0	0.483215332	-0.069824219	0.17376709	0.999181747	0.013985634	-0.01158905	-0.036136627	12.0803833	-1.745605469	4.344177246	0.699472476	-0.579610605	-1.807324313	-0.666503906	-0.361083984	0.498535156	895.76	65.26473511	-66.159935	105.9439533	-71
22078	0	0.534948349	-0.064497948	0.192893982	0.999422073	0.021122932	-0.009221077	-0.024975777	13.37370872	-1.612448692	4.822349548	1.056350035	-0.461142647	-1.24902935	-0.630371094	-0.392822266	0.519287109	895.7	71.9987636	-63.89927306	101.1703291	-78
22079	0	0.496948242	-0.03515625	0.20904541	0.99990654	0.005925179	-0.004966736	-0.01127243	12.42370605	-0.87890625	5.226135254	0.296268153	-0.248344526	-0.563639074	-0.599609375	-0.411132813	0.536132813	895.66	74.44854735	-62.85845708	99.16485631	-72
22080	0	0.450309753	-0.020201683	0.22559166	0.999753952	-0.022014618	-0.002017021	0.001739502	11.25774384	-0.505042076	5.639791489	-1.100821128	-0.100859326	0.086982227	-0.581787109	-0.436035156	0.520019531	895.72	72.16609183	-63.15573928	98.86345265	-78
22081	0	0.345153809	-0.096801758	0.196228027	0.999135971	-0.038084984	0.005477905	0.015670776	8.628845215	-2.420043945	4.905700684	-1.904797421	0.273974118	0.783764398	-0.583984375	-0.477783203	0.472412109	895.72	65.16336793	-64.64764194	101.7532072	-70
22082	0	0.392636299	-0.13435173	0.136018753	0.999300957	-0.008834839	0.010673523	0.034715652	9.815907478	-3.358793259	3.400468826	-0.441844872	0.533800497	1.736187071	-0.605224609	-0.501708984	0.415527344	895.7	57.24141345	-67.60378611	109.2218833	-70
22083	0	0.531433105	-0.087646484	0.076416016	0.997729301	0.035785675	0.015545845	0.054889679	13.28582764	-2.191162109	1.910400391	1.790638969	0.777880979	2.746562641	-0.650634766	-0.473876953	0.395751953	895.66	46.9146493	-71.55662265	124.4835278	-72
22084	0	0.578505516	0.006069183	0.056292534	0.995897293	0.055295944	0.021456718	0.06832695	14.4626379	0.151729584	1.407313347	2.76858356	1.074305155	3.421026141	-0.717529297	-0.386474609	0.400634766	895.72	27.42107191	-74.43238382	151.3387095	-73
22085	0	0.450500488	0.032836914	0.070922852	0.995839119	0.039619446	0.026337624	0.077713013	11.26251221	0.820922852	1.773071289	1.983723814	1.318710297	3.891047712	-0.795410156	-0.261230469	0.408935547	895.64	-1.405762654	-73.42880425	-174.1053988	-68
22086	0	0.377058983	0.036643028	0.045933723	0.99592495	0.00818634	0.026165009	0.085915565	9.426474571	0.916075706	1.148343086	0.409873894	1.310030306	4.301622695	-0.864501953	-0.114746094	0.389160156	895.66	-26.21693286	-67.9524305	-146.975682	-73
22087	0	0.349914551	-0.021789551	0.029907227	0.995956421	-0.003634453	0.024242401	0.086425781	8.74786377	-0.54473877	0.747680664	-0.18196796	1.213756372	4.327122636	-0.912841797	0.044189453	0.361816406	895.68	-40.6186308	-60.03051035	-131.5234197	-66
22088	0	0.371677399	-0.027884483	0.025389671	0.996665955	0.011131287	0.024903297	0.076882362	9.291934967	-0.697112083	0.634741783	0.557183508	1.246550114	3.848394691	-0.921875	0.21484375	0.328125	895.72	-45.99085366	-51.81788165	-123.548626	-69
22089	0	0.453369141	-0.032958984	0.02154541	0.997936249	0.015328407	0.026496887	0.056446075	11.33422852	-0.823974609	0.538635254	0.766948029	1.325756488	2.824246869	-0.906738281	0.373779297	0.288818359	895.58	-46.81038409	-44.9790956	-120.1177617	-66
22090	0	0.497151375	0.001104355	0.046966553	0.999090195	-0.005242348	0.02708149	0.032500267	12.42878437	0.027608871	1.174163818	-0.262196836	1.354484908	1.625505905	-0.887207031	0.488525391	0.232666016	895.64	-47.66156377	-40.10064772	-119.7535966	-66
22091	0	0.43939209	0.023376465	0.051391602	0.998594284	-0.046290398	0.020961761	0.015033722	10.98480225	0.584411621	1.284790039	-2.315604529	1.048579236	0.752038357	-0.873046875	0.547119141	0.20703125	895.74	-52.39795952	-37.21955068	-120.6791895	-66
22092	0	0.344799995	-0.01246357	0.161025047	0.998140335	-0.060089111	0.009335518	0.004157066	8.619999886	-0.311589241	4.025626183	-3.006319009	0.467065401	0.207982233	-0.871582031	0.555908203	0.243408203	895.82	-58.83861872	-36.21726964	-121.4431193	-66
22093	0	0.345703125	-0.041503906	0.206604004	0.999670982	-0.020565033	0.002449989	-0.015132904	8.642578125	-1.037597656	5.165100098	-1.028364434	0.122512903	-0.756728197	-0.878662109	0.534667969	0.296875	895.8	-60.35335642	-37.57692041	-122.8487596	-66
22094	0	0.401328087	-0.007354736	0.136721611	0.998971939	0.004820824	-0.006903648	-0.04453373	10.03320217	-0.183868408	3.418040276	0.241123782	-0.345300704	-2.227449509	-0.905273438	0.494140625	0.310058594	895.7	-58.17117849	-42.39000625	-125.3766222	-66
22095	0	0.412109375	-0.007568359	0.133178711	0.997419357	-0.005175591	-0.0154953	-0.069904327	10.30273438	-0.189208984	3.329467773	-0.259002313	-0.775432022	-3.498225456	-0.950683594	0.401855469	0.322998047	895.82	-55.72546362	-50.11523359	-129.5631938	-64
22096	0	0.532254219	-0.084775925	0.190335274	0.996185303	-0.006748199	-0.021769524	-0.084228516	13.30635548	-2.119398117	4.758381844	-0.337839614	-1.089862192	-4.2167884	-0.994140625	0.24609375	0.369628906	895.72	-51.12927184	-59.41777172	-136.1021587	-64
22097	0	0.62701416	-0.104858398	0.136230469	0.996221542	0.012158394	-0.01543045	-0.084587097	15.675354	-2.621459961	3.405761719	0.608686341	-0.77249549	-4.234688503	-1.008544922	0.069824219	0.416259766	895.72	-38.26303588	-67.59173308	-148.8614328	-63
22098	0	0.421833038	-0.063008308	0.077295303	0.996944427	0.013953209	-0.010027885	-0.076189995	10.54582596	-1.57520771	1.932382584	0.698371708	-0.501905441	-3.813383508	-1	-0.087890625	0.448730469	895.66	-16.30469117	-72.73964161	-170.4405766	-64
22099	0	0.295349121	-0.008117676	0.073608398	0.997962952	-0.004912376	-0.007476807	-0.063159943	7.383728027	-0.202941895	1.840209961	-0.245785705	-0.374094337	-3.160142823	-0.973388672	-0.228515625	0.470214844	895.72	7.6487831	-74.18644757	164.0282342	-62
22100	0	0.297161102	-0.009049416	0.036748886	0.998038292	-0.034356117	-0.007198334	-0.051823616	7.429027557	-0.22623539	0.918722153	-1.718929528	-0.360152119	-2.592875766	-0.935302734	-0.356689453	0.472900391	895.8	24.401289	-73.31474388	142.5022207	-61
22101	0	0.40020752	-0.071716309	0.082458496	0.997631073	-0.051009178	-0.005714417	-0.045787811	10.00518799	-1.792907715	2.061462402	-2.552474287	-0.285946603	-2.291199646	-0.889648438	-0.487304688	0.455566406	895.66	34.09512505	-71.28028009	126.2035802	-63
22102	0	0.516188622	-0.167088509	0.113688469	0.99774456	-0.04634285	-0.000127792	-0.048560143	12.90471554	-4.177212715	2.842211723	-2.318886107	-0.006394426	-2.42983417	-0.836669922	-0.614013672	0.411621094	895.76	40.77471664	-67.86660955	113.4173215	-63
22103	0	0.507995605	-0.213256836	0.123596191	0.997764587	-0.034926414	0.004047394	-0.056816101	12.69989014	-5.331420898	3.089904785	-1.747622693	0.202520567	-2.842923015	-0.774658203	-0.73046875	0.346435547	895.66	46.43075217	-63.0060923	102.804043	-64
22104	0	0.510993004	-0.26259613	0.201581001	0.998173714	-0.014832497	0.004074097	-0.058410645	12.7748251	-6.564903259	5.039525032	-0.742076532	0.203828904	-2.922311029	-0.689453125	-0.840820313	0.296630859	895.7	51.79531739	-57.6265052	94.67035231	-65
22105	0	0.456970215	-0.313293457	0.179504395	0.999604225	0.010627747	0.003624916	-0.025791168	11.42425537	-7.832336426	4.487609863	0.531457433	0.181269715	-1.289728537	-0.608886719	-0.91796875	0.287353516	895.7	55.11054968	-55.02478629	92.11921957	-68
22106	0	0.438389778	-0.11382103	0.177305222	0.999464989	0.030879974	-0.001895905	0.010532379	10.95974445	-2.845525742	4.432630539	1.544273708	-0.09481211	0.526712749	-0.594970703	-0.924804688	0.321289063	895.72	57.87928712	-56.18387829	93.00220386	-67
22107	0	0.342102051	-0.065307617	0.140563965	0.999098778	0.02481842	0.003079414	0.03427124	8.55255127	-1.63269043	3.514099121	1.241293589	0.154016946	1.714076484	-0.640136719	-0.879150391	0.3828125	895.76	56.80772432	-59.34131805	97.5790303	-65
22108	0	0.423025131	-0.11854744	0.061023712	0.998579979	0.014779091	0.006811142	0.050717354	10.57562828	-2.963685989	1.525592804	0.739304401	0.340718335	2.537068294	-0.713867188	-0.810546875	0.421142578	895.72	50.90351778	-63.63292735	106.1642117	-63
22109	0	0.607849121	-0.080688477	0.02545166	0.996953011	0.038871765	0.008751869	0.067050934	15.19622803	-2.017211914	0.636291504	1.945564287	0.438038358	3.355955199	-0.816894531	-0.706542969	0.440917969	895.76	41.5006063	-68.57704357	121.2284445	-63
22110	0	0.622748375	0.036252022	0.067848206	0.995045662	0.051483154	0.014616013	0.083778381	15.56870937	0.906300545	1.696205139	2.578416733	0.732009759	4.195849755	-0.923583984	-0.529785156	0.483642578	895.72	21.35925319	-72.28865383	148.7418191	-62
22111	0	0.472229004	0.071044922	0.105285645	0.994720459	0.020699501	0.020217896	0.098453522	11.8057251	1.776123047	2.632141113	1.036800152	1.012677411	4.931356851	-1.022460938	-0.296630859	0.489746094	895.7	-11.5675348	-70.84994529	-174.2090534	-61
22112	0	0.405396461	0.040275574	0.067329407	0.993383408	-0.019769669	0.015053749	0.112122536	10.13491154	1.006889343	1.683235168	-0.990669265	0.754351874	5.618523627	-1.0859375	-0.047607422	0.449951172	895.7	-40.03540498	-63.42261927	-145.9518306	-63
22113	0	0.483215332	0.000732422	0.058776855	0.993128777	-0.028594971	0.007573128	0.113220215	12.0803833	0.018310547	1.469421387	-1.433031934	0.379525967	5.674011178	-1.08203125	0.19921875	0.426757813	895.7	-56.41035267	-53.00570212	-130.6728481	-65
22114	0	0.519087791	-0.0380373	0.027431488	0.994630814	-0.004755974	0.009476662	0.102936745	12.97719479	-0.950932503	0.685787201	-0.238225156	0.474682851	5.156067515	-1.012207031	0.435058594	0.415039063	895.82	-62.55794619	-42.20789204	-123.1428536	-67
22115	0	0.504943848	-0.047607422	0.021728516	0.996340752	0.015113831	0.013993263	0.082946777	12.62359619	-1.190185547	0.543212891	0.756614545	0.700517745	4.152404511	-0.905761719	0.643554688	0.380615234	895.82	-63.09431056	-32.97667308	-119.4397036	-68
22116	0	0.474832535	0.008133888	0.06707859	0.998065948	0.023958206	0.018105507	0.05441761	11.87081337	0.203347206	1.67696476	1.198682924	0.905859219	2.722635391	-0.801025391	0.796875	0.308105469	895.82	-60.9845749	-26.48374423	-118.1675603	-69
22117	0	0.340087891	0.067993164	0.100585938	0.999587059	0.006526947	0.016510963	0.022583008	8.502197266	1.699829102	2.514648438	0.326392252	0.825661755	1.129305745	-0.726318359	0.885742188	0.231201172	895.78	-60.07164425	-23.30709243	-118.5750157	-67
22118	0	0.29693985	0.014248848	0.163183212	0.999885559	-0.007645607	0.007447243	-0.01068306	7.423496246	0.356221199	4.079580307	-0.382294881	0.372376291	-0.534173288	-0.705810547	0.908935547	0.208251953	895.7	-60.35783104	-23.96589445	-120.0490784	-66
22119	0	0.38079834	-0.000793457	0.141784668	0.998739243	-0.008955956	-0.005813599	-0.049049377	9.519958496	-0.019836426	3.544616699	-0.447986053	-0.290802149	-2.453500017	-0.741943359	0.879394531	0.209716797	895.76	-60.27216822	-29.21798475	-122.5174951	-62
22120	0	0.443481445	-0.0508461	0.17538166	0.996423721	-0.006664276	-0.016228676	-0.082653999	11.08703613	-1.271152496	4.384541512	-0.33361158	-0.812402441	-4.137633378	-0.838623047	0.777832031	0.234619141	895.72	-58.87212085	-38.39282203	-126.3670577	-61
22121	0	0.581481934	-0.106140137	0.205505371	0.994576454	-0.000595093	-0.021727562	-0.101707458	14.53704834	-2.653503418	5.137634277	-0.029808543	-1.088346224	-5.094585791	-0.956298828	0.611572266	0.274658203	895.7	-54.72526227	-49.60636549	-132.3659984	-60
22122	0	0.661279678	-0.08108139	0.158945084	0.994384766	0.006260872	-0.017676353	-0.104142189	16.53199196	-2.02703476	3.97362709	0.313630762	-0.885475427	-5.216876293	-1.053466797	0.3984375	0.311767578	895.58	-45.14760884	-60.17797003	-143.1026213	-62
22123	0	0.447265625	-0.031921387	0.09552002	0.995323181	-0.008093834	-0.009483337	-0.095790863	11.18164063	-0.798034668	2.388000488	-0.405323739	-0.474907419	-4.797023409	-1.104980469	0.170898438	0.341796875	895.66	-29.196637	-67.84814518	-161.7863307	-64
22124	0	0.333838463	-0.023790359	0.084113121	0.996007919	-0.030895233	-0.003886223	-0.083649635	8.345961571	-0.594758987	2.102828026	-1.546820201	-0.19457008	-4.188055326	-1.112304688	-0.051757813	0.36328125	895.76	-8.120979462	-71.46748146	172.034948	-66
22125	0	0.372253418	-0.060852051	0.060241699	0.996379852	-0.044959068	0.000919342	-0.072135925	9.306335449	-1.52130127	1.50604248	-2.250669449	0.046022641	-3.611154087	-1.092041016	-0.258056641	0.362060547	895.7	11.62252452	-71.09853555	145.8003294	-65
22126	0	0.485626221	-0.127937317	0.084073067	0.996535301	-0.049695969	0.006147385	-0.066403389	12.14065552	-3.198432922	2.101826668	-2.487671897	0.30772468	-3.324008953	-1.048095703	-0.445800781	0.315185547	895.72	25.00854334	-67.96036682	125.4678336	-63
22127	0	0.570007324	-0.206848145	0.070617676	0.996795654	-0.044276237	0.011581421	-0.065593719	14.25018311	-5.171203613	1.765441895	-2.216179006	0.57969022	-3.283192798	-0.986083984	-0.614501953	0.257324219	895.7	33.11365977	-63.07470037	111.0147751	-60
22128	0	0.555233955	-0.204699516	0.046216965	0.997050285	-0.041924477	0.010105133	-0.06348896	13.88084888	-5.117487907	1.155424118	-2.098287317	0.505754018	-3.177572883	-0.903564453	-0.758056641	0.170410156	895.72	37.67848832	-57.8658902	100.2628999	-64
22129	0	0.505371094	-0.25592041	0.075317383	0.997214317	-0.054214478	0.005608559	-0.05091095	12.63427734	-6.398010254	1.88293457	-2.713243296	0.28068857	-2.547913385	-0.808349609	-0.875488281	0.086425781	895.66	37.71243132	-53.7689366	92.70945765	-66
22130	0	0.415569305	-0.230175018	0.075438499	0.997746468	-0.063343048	-0.005842209	-0.021343231	10.38923264	-5.754375458	1.885962486	-3.169533656	-0.292330069	-1.067963915	-0.730957031	-0.942382813	-0.029296875	895.72	33.64727531	-52.88962318	88.71218425	-65
22131	0	0.403625488	-0.256347656	0.103820801	0.998971939	-0.043845177	-0.011455536	0.000110626	10.09063721	-6.408691406	2.59552002	-2.193009881	-0.572973022	0.005533206	-0.709716797	-0.954833984	-0.137695313	895.72	29.51907586	-54.0334171	87.57301158	-65
22132	0	0.33809185	-0.318320274	0.039369583	0.999516487	0.005778313	-0.018770218	0.024067879	8.452296257	-7.958006859	0.984239578	0.28896212	-0.9386619	1.203587561	-0.728759766	-0.930419922	-0.173095703	895.7	28.11853558	-57.28176854	90.02596405	-61
22133	0	0.476196289	-0.227355957	0.015075684	0.996408463	0.06317234	-0.027004242	0.049484253	11.90490723	-5.683898926	0.37689209	3.16240309	-1.351830527	2.477178357	-0.797363281	-0.888183594	-0.098632813	895.64	29.23335029	-62.77654744	97.03117083	-63
22134	0	0.624101639	-0.129223824	0.049149513	0.990670204	0.111562729	-0.02523613	0.074088097	15.60254097	-3.230595589	1.228737831	5.595548694	-1.265745239	3.715968195	-0.891357422	-0.791992188	0.081298828	895.7	28.17673272	-69.50385986	112.1046563	-60
22135	0	0.605407715	0.021728516	0.079223633	0.988027573	0.118058205	-0.010326385	0.098777771	15.13519287	0.543212891	1.98059082	5.926580924	-0.518389717	4.958693511	-0.995361328	-0.585449219	0.309570313	895.64	9.127657697	-74.49515533	146.2656674	-64
22136	0	0.489494324	0.057254791	0.056919098	0.98982048	0.081874847	0.002947807	0.116366386	12.23735809	1.431369781	1.422977448	4.107688496	0.147892479	5.838140551	-1.078369141	-0.277832031	0.431396484	895.56	-26.59663057	-71.89862186	-166.8005484	-71
22137	0	0.559570313	0.0703125	0.079833984	0.990783691	0.052945137	0.012813568	0.124011993	13.98925781	1.7578125	1.995849609	2.655419001	0.642653776	6.219717658	-1.106933594	0.060302734	0.450927734	895.7	-45.86246556	-61.96934972	-139.4074984	-62
22138	0	0.643434525	0.046197891	0.069161415	0.992517471	0.028504372	0.022818565	0.11651516	16.08586311	1.154947281	1.729035378	1.428783978	1.14378247	5.840331978	-1.065917969	0.377929688	0.416748047	895.8	-52.6636013	-50.01350144	-127.3142817	-63
22139	0	0.582580566	0.014648438	0.042541504	0.994343758	0.018886566	0.027623177	0.100799561	14.56451416	0.366210938	1.063537598	0.946112765	1.383768745	5.049501857	-0.970947266	0.643310547	0.364257813	895.7	-54.72270197	-38.77061919	-121.2903249	-66
22140	0	0.461982727	0.081998825	0.019882202	0.996947289	0.002980232	0.026666641	0.073317528	11.54956818	2.049970627	0.497055054	0.149163411	1.334690334	3.669610836	-0.852050781	0.840087891	0.312988281	895.76	-55.94494277	-30.10531477	-118.5315726	-72
22141	0	0.354675293	0.077514648	0.034057617	0.998679161	-0.019592285	0.023999214	0.040973663	8.866882324	1.937866211	0.85144043	-0.980045582	1.200489051	2.049585201	-0.75390625	0.95703125	0.301025391	895.66	-58.31928332	-24.67813402	-118.2593555	-73
22142	0	0.300708771	0.000613213	0.091204643	0.999310493	-0.030738831	0.018659592	0.009189606	7.517719269	0.015330315	2.280116081	-1.537294605	0.933193914	0.45958584	-0.705078125	1.001708984	0.340332031	895.64	-61.26338161	-22.71625301	-119.6988831	-70
22143	0	0.422485352	-0.06048584	0.084838867	0.999435425	-0.0166502	0.008666992	-0.02784729	10.56213379	-1.512145996	2.12097168	-0.832666561	0.433431107	-1.392626357	-0.719482422	0.993652344	0.390136719	895.72	-62.10868736	-25.09739307	-122.3081305	-61
22144	0	0.415540695	-0.072734833	0.124867439	0.997882843	-0.013717651	-0.002737999	-0.06350708	10.38851738	-1.818370819	3.121685982	-0.686366903	-0.13699662	-3.177596273	-0.797119141	0.928955078	0.434082031	895.76	-61.97144347	-31.73676936	-125.8657768	-62
22145	0	0.403015137	-0.083557129	0.162475586	0.996516228	-0.015300751	-0.012270927	-0.081058502	10.07537842	-2.088928223	4.061889648	-0.765927151	-0.614259827	-4.057638005	-0.911865234	0.799804688	0.485107422	895.82	-61.37681869	-40.66319196	-129.7943736	-64
22146	0	0.52363205	-0.09283638	0.159883499	0.995550156	-0.009915352	-0.01620388	-0.092292786	13.09080124	-2.3209095	3.997087479	-0.49650418	-0.811397762	-4.621495484	-1.017822266	0.620117188	0.548339844	895.7	-58.68019506	-50.85652548	-135.0804218	-69
22147	0	0.475646973	-0.074890137	0.082397461	0.995465279	-0.012050629	-0.009131432	-0.093910217	11.89117432	-1.872253418	2.059936523	-0.603443743	-0.457262887	-4.702620468	-1.096191406	0.404296875	0.604492188	895.76	-52.28623982	-60.44333264	-144.4208505	-66
22148	0	0.342211723	-0.053303719	0.082428932	0.995725632	-0.029754639	-0.003697395	-0.08735466	8.555293083	-1.332592964	2.060723305	-1.489855114	-0.185133599	-4.373966306	-1.140869141	0.172119141	0.640380859	895.66	-41.95166719	-68.2156885	-159.5920805	-66
22149	0	0.329650879	-0.096008301	0.088623047	0.996646881	-0.031935692	0.002391815	-0.07529068	8.241271973	-2.40020752	2.215576172	-1.598571538	0.119724592	-3.768746851	-1.149658203	-0.065917969	0.651855469	895.72	-24.33768928	-72.84319508	177.9077288	-65
22150	0	0.421343803	-0.114267349	0.061885834	0.99780941	-0.020896912	0.00362587	-0.062653542	10.53359509	-2.856683731	1.547145844	-1.045609003	0.181425951	-3.134965985	-1.131347656	-0.272216797	0.642089844	895.7	-2.295421819	-74.13835381	152.4580279	-63
22151	0	0.552307129	-0.144714355	0.094848633	0.998478889	-0.00705719	0.004338264	-0.054504395	13.80767822	-3.617858887	2.37121582	-0.353038486	0.217023253	-2.726602102	-1.091796875	-0.426757813	0.626953125	895.7	17.91044889	-72.75355099	130.5606502	-60
22152	0	0.567085266	-0.136317253	0.093078613	0.998586655	-0.006061554	0.003821373	-0.052646637	14.17713165	-3.407931328	2.326965332	-0.303220478	0.191158662	-2.633571942	-1.049316406	-0.546386719	0.623046875	895.7	32.94640364	-69.69990318	113.977154	-72
22153	0	0.551513672	-0.147338867	0.11907959	0.998327255	-0.02150631	0.001304626	-0.053649902	13.7878418	-3.68347168	2.976989746	-1.075915425	0.065267718	-2.683991759	-0.990478516	-0.662109375	0.612304688	895.7	42.28792886	-65.7652958	101.2501077	-66
22154	0	0.503279686	-0.203873634	0.116474152	0.998195648	-0.038035393	6.39E-05	-0.046453476	12.58199215	-5.096840858	2.91185379	-1.902914022	0.003196731	-2.324071459	-0.921142578	-0.791503906	0.58203125	895.7	45.78111177	-62.01801196	92.51818107	-63
22155	0	0.461853027	-0.218383789	0.141052246	0.998407364	-0.050906181	-0.002204895	-0.024188995	11.54632568	-5.459594727	3.526306152	-2.546660614	-0.11030329	-1.21009198	-0.861328125	-0.905517578	0.516845703	895.7	43.84127914	-60.22488638	88.06538623	-66
22156	0	0.355136871	-0.267018318	0.139015198	0.999492645	-0.031644821	-0.001900673	0.002970695	8.878421783	-6.675457954	3.475379944	-1.582508535	-0.095049711	0.148559884	-0.838623047	-0.974609375	0.447021484	895.7	40.00201082	-60.61011416	88.29364081	-69
22157	0	0.392883301	-0.20916748	0.046020508	0.999092102	0.02550602	-0.007450104	0.033279419	9.82208252	-5.229187012	1.150512695	1.275686771	-0.372617875	1.664474316	-0.871826172	-0.960449219	0.439208984	895.7	38.30087102	-63.69254087	93.49375545	-60
22158	0	0.50094986	-0.11335659	0.03554821	0.996341705	0.063290596	-0.008479118	0.056790352	12.52374649	-2.833914757	0.888705254	3.168394136	-0.424473627	2.842985043	-0.947509766	-0.823730469	0.5546875	895.7	35.02189891	-68.40062188	104.9885252	-62
22159	0	0.483825684	-0.058288574	0.058654785	0.994762421	0.073372841	-0.003078461	0.071086884	12.09564209	-1.457214355	1.466369629	3.675059606	-0.154192293	3.560561798	-1.032470703	-0.583740234	0.685058594	895.64	23.51322873	-72.78155889	126.0703763	-57
22160	0	0.398610115	-0.042277336	0.085249901	0.99494648	0.058592796	0.002689362	0.081493378	9.965252876	-1.056933403	2.13124752	2.93458482	0.13469505	4.081546608	-1.093017578	-0.283691406	0.746582031	895.7	-1.665269766	-74.31009374	159.264592	-58
22161	0	0.406311035	0.012512207	0.076904297	0.994374275	0.046382904	0.00502491	0.095092773	10.15777588	0.312805176	1.922607422	2.323503759	0.251717685	4.763574447	-1.108154297	0.022949219	0.736328125	895.7	-29.75687991	-70.60886666	-165.7949726	-57
22162	0	0.494065285	0.070167542	0.045137405	0.994368553	0.022798538	0.008810043	0.103116035	12.35163212	1.754188538	1.128435135	1.142071387	0.441330857	5.165501076	-1.0703125	0.314453125	0.681884766	895.66	-47.164456	-62.283502	-144.0428531	-56
22163	0	0.577758789	0.035461426	0.036437988	0.995047569	0.004333496	0.014454842	0.098239899	14.44396973	0.886535645	0.910949707	0.217033148	0.723937373	4.920118535	-0.9765625	0.560058594	0.613769531	895.66	-55.66271236	-52.37892615	-133.4070759	-58
22164	0	0.544551849	-0.021424294	0.03383255	0.996264458	-0.006621361	0.020101547	0.083712578	13.61379623	-0.535607338	0.845813751	-0.331480817	1.006330499	4.190847558	-0.863769531	0.732910156	0.562011719	895.82	-59.92255596	-43.01489289	-128.7010737	-61
22165	0	0.501708984	-0.014831543	0.051391602	0.997693062	-0.010597229	0.022324562	0.063220978	12.54272461	-0.370788574	1.284790039	-0.530269193	1.117087071	3.1634814	-0.757324219	0.838378906	0.513427734	895.72	-62.18326788	-35.44726049	-127.064353	-61
22166	0	0.358976364	0.051851273	0.072012901	0.999014854	-0.013557434	0.019247055	0.037597656	8.974409103	1.296281815	1.800322533	-0.678094225	0.962668658	1.88049991	-0.682128906	0.899169922	0.481445313	895.72	-63.73599732	-30.63739586	-127.074006	-61
22167	0	0.277893066	0.042053223	0.143493652	0.999820709	-0.012694359	0.013923645	0.001316071	6.94732666	1.051330566	3.587341309	-0.634755686	0.696223651	0.065807441	-0.647216797	0.910888672	0.467285156	895.64	-64.38536862	-29.84650393	-128.6620264	-63
22168	0	0.41423893	-0.069139481	0.139103889	0.999074936	-0.005464554	0.001706123	-0.042617798	10.35597324	-1.728487015	3.477597237	-0.273311964	0.085332479	-2.131547126	-0.678466797	0.876953125	0.463134766	895.72	-63.54462079	-34.20779079	-131.3984029	-63
22169	0	0.411621094	-0.060302734	0.210571289	0.997168541	0.001678467	-0.009375572	-0.074581146	10.29052734	-1.507568359	5.264282227	0.084002612	-0.46922141	-3.732579714	-0.765869141	0.785888672	0.464111328	895.82	-60.92057418	-42.34930488	-135.2684546	-68
22170	0	0.482557297	-0.042172432	0.235541344	0.996192932	0.005394936	-0.015387535	-0.085626602	12.06393242	-1.054310799	5.888533592	0.270089534	-0.770354362	-4.286770175	-0.870117188	0.645263672	0.481201172	895.76	-56.35649502	-51.74190651	-140.5912926	-63
22171	0	0.557373047	-0.0234375	0.125549316	0.995961189	0.002876282	-0.011782646	-0.08895874	13.93432617	-0.5859375	3.13873291	0.144008	-0.58992667	-4.453934418	-0.954833984	0.479736328	0.499511719	895.66	-48.1458368	-60.74983049	-149.9894279	-62
22172	0	0.409597397	-0.028244972	0.083492279	0.996023178	-0.012722015	-0.004483223	-0.088068008	10.23993492	-0.706124306	2.087306976	-0.636945343	-0.224458775	-4.409246972	-1.015136719	0.293945313	0.520751953	895.7	-34.22170584	-67.93605483	-166.9569847	-65
22173	0	0.350219727	-0.037353516	0.089782715	0.996139526	-0.033694267	0.001247406	-0.081039429	8.755493164	-0.933837891	2.244567871	-1.68688414	0.062450665	-4.057192456	-1.046386719	0.087158203	0.531005859	895.76	-14.34696772	-71.7576234	167.8503169	-64
22174	0	0.395226479	-0.080596924	0.074926376	0.996653557	-0.037099838	0.005977631	-0.072582245	9.880661964	-2.014923096	1.873159409	-1.857063467	0.299215305	-3.633165039	-1.046875	-0.120605469	0.525146484	895.78	7.175802221	-71.5857795	140.7689602	-64
22175	0	0.492980957	-0.136108398	0.092895508	0.997133255	-0.03523922	0.011146545	-0.066009521	12.32452393	-3.402709961	2.322387695	-1.763646033	0.55786027	-3.303632482	-1.024169922	-0.314208984	0.494140625	895.7	22.62897665	-68.31599299	120.0670975	-63
22176	0	0.48584938	-0.153378487	0.072684288	0.997401237	-0.039134026	0.013454437	-0.058965683	12.14623451	-3.834462166	1.817107201	-1.958397609	0.673305068	-2.950840116	-0.985595703	-0.482177734	0.4375	895.66	30.40035312	-63.84114858	106.6870259	-72
22177	0	0.481994629	-0.184936523	0.073547363	0.997755051	-0.040957451	0.00976181	-0.052066803	12.04986572	-4.623413086	1.838684082	-2.049406	0.488456	-2.605289543	-0.93359375	-0.628662109	0.364013672	895.72	34.07651485	-59.65398744	97.19685842	-65
22178	0	0.462994576	-0.248518944	0.078799248	0.998761177	-0.030477524	0.006038666	-0.03886795	11.57486439	-6.212973595	1.969981194	-1.524505761	0.302058029	-1.944200413	-0.873291016	-0.749511719	0.284912109	895.66	35.8435003	-56.49929372	90.99579701	-62
22179	0	0.388671875	-0.225708008	0.059265137	0.999709129	-0.017299652	-0.003710747	-0.016353607	9.716796875	-5.642700195	1.481628418	-0.865066312	-0.185555293	-0.817759489	-0.820068359	-0.821777344	0.225341797	895.64	36.49552598	-55.72005739	87.80942024	-67
22180	0	0.43129158	-0.227833748	0.113834381	0.999949455	0.001494408	-0.0092659	0.00343895	10.78228951	-5.695843697	2.845859528	0.074721627	-0.463302698	0.171950343	-0.797363281	-0.851074219	0.209228516	895.72	37.13174504	-56.80451555	87.23116453	-60
22181	0	0.370910645	-0.249206543	0.079040527	0.99902916	0.029366493	-0.013401031	0.029960632	9.272766113	-6.230163574	1.976013184	1.468799741	-0.670268371	1.498516308	-0.803222656	-0.833251953	0.228027344	895.64	37.52526232	-60.1209394	90.68782049	-62
22182	0	0.497896194	-0.120245934	0.057200432	0.996495247	0.057502747	-0.017332077	0.058221817	12.44740486	-3.006148338	1.430010796	2.878500698	-0.867617614	2.914496278	-0.857177734	-0.751953125	0.307128906	895.72	35.89918432	-65.74346092	99.87722872	-56
22183	0	0.646606445	-0.026733398	0.06817627	0.993753433	0.075089455	-0.014621735	0.081249237	16.16516113	-0.668334961	1.704406738	3.762309552	-0.732612749	4.070941547	-0.931640625	-0.589111328	0.417480469	895.78	25.78329581	-72.07818396	119.8844141	-57
22184	0	0.576122284	0.026025772	0.096829414	0.993012428	0.061903954	-0.005441666	0.100317955	14.4030571	0.650644302	2.420735359	3.102426716	-0.272718751	5.027612711	-1.001708984	-0.34765625	0.501464844	895.64	-5.957065932	-74.84513912	160.2611436	-54
22185	0	0.465820313	0.031066895	0.098632813	0.99282074	0.033177376	-3.81E-06	0.11491394	11.64550781	0.776672363	2.465820313	1.662849754	-0.000191193	5.759485585	-1.046630859	-0.068115234	0.518066406	895.64	-40.58048966	-69.27682037	-159.5416176	-57
22186	0	0.523644447	0.049872398	0.077238083	0.992920876	0.013082504	0.003799438	0.117988586	13.09111118	1.246809959	1.930952072	0.655673005	0.190421436	5.913388556	-1.034423828	0.208984375	0.491699219	895.7	-56.87843256	-58.62595712	-139.8561953	-60
22187	0	0.524902344	-0.00982666	0.067871094	0.994029045	0.005645752	0.006951332	0.108745575	13.12255859	-0.245666504	1.696777344	0.282850763	0.348260002	5.448126153	-0.96484375	0.455810547	0.461914063	895.72	-63.57713399	-47.34065604	-130.7132096	-62
22188	0	0.54201889	-0.029159546	0.057619095	0.995548248	0.012359619	0.010752678	0.092810631	13.55047226	-0.728988647	1.440477371	0.618899471	0.538432989	4.647428827	-0.853271484	0.657226563	0.419433594	895.72	-65.33215127	-37.18977487	-126.0174253	-54
22189	0	0.464538574	-0.007873535	0.061218262	0.997185707	0.010707855	0.014168739	0.072834015	11.61346436	-0.196838379	1.530456543	0.535895537	0.709102243	3.645120585	-0.741455078	0.803955078	0.364257813	895.7	-65.41163739	-28.93322892	-123.6313979	-60
22190	0	0.350533485	0.047164917	0.073912621	0.998699188	0.001774788	0.014651299	0.048798561	8.763337135	1.179122925	1.847815514	0.088777881	0.732882634	2.440986233	-0.636962891	0.8984375	0.310791016	895.72	-65.59453926	-23.17768309	-122.7548922	-57
22191	0	0.210876465	0.040588379	0.088928223	0.999686241	-0.009937286	0.010502815	0.020446777	5.271911621	1.014709473	2.223205566	-0.496916267	0.525195666	1.022445754	-0.570556641	0.944335938	0.289306641	895.82	-66.6671687	-20.58899956	-122.9221608	-56
22192	0	0.303022385	-0.08285141	0.135607719	0.999882698	-0.00131321	0.003032684	-0.014909744	7.575559616	-2.071285248	3.390192986	-0.065663029	0.151640111	-0.745516194	-0.559082031	0.943847656	0.297119141	895.72	-66.41718076	-22.0705956	-123.9922842	-61
22193	0	0.477539063	-0.160949707	0.124267578	0.998094559	0.013604164	-0.009544373	-0.059421539	11.93847656	-4.023742676	3.106689453	0.680640549	-0.47752195	-2.972965394	-0.615722656	0.908447266	0.283203125	895.72	-63.95143798	-28.78468149	-126.0447598	-56
22194	0	0.397760391	-0.106615067	0.177085876	0.995969772	0.009964943	-0.018855095	-0.087116241	9.944009781	-2.665376663	4.427146912	0.498917564	-0.944023271	-4.361673045	-0.735595703	0.812011719	0.274902344	895.66	-60.96381958	-38.7319585	-129.2888191	-55
22195	0	0.486206055	-0.059143066	0.180603027	0.994855881	-0.002581596	-0.025936127	-0.097885132	12.15515137	-1.47857666	4.515075684	-0.129301589	-1.29903436	-4.902665346	-0.858642578	0.663085938	0.307861328	895.7	-58.13758257	-50.02539495	-133.6756166	-55
22196	0	0.590410233	-0.101869583	0.129741669	0.994545937	-0.005108833	-0.021121979	-0.102009773	14.76025581	-2.546739578	3.243541718	-0.255907073	-1.05802312	-5.109781609	-0.956542969	0.467773438	0.363525391	895.76	-51.67701475	-61.12595393	-142.1267966	-54
22197	0	0.442932129	-0.076171875	0.074279785	0.995574951	-0.012202263	-0.009742737	-0.092662811	11.07330322	-1.904296875	1.856994629	-0.611014636	-0.487856625	-4.639986404	-1.018554688	0.255859375	0.401367188	895.66	-38.12300527	-69.59319818	-158.4876915	-54
22198	0	0.372213364	-0.072975159	0.087567329	0.99667263	-0.026758194	-0.004072189	-0.076872826	9.305334091	-1.824378967	2.189183235	-1.339395212	-0.203835539	-3.84790897	-1.04296875	0.051269531	0.425292969	895.7	-17.41760539	-74.27832519	176.5746496	-52
22199	0	0.412841797	-0.089416504	0.076721191	0.998216629	-0.017161369	-0.002658844	-0.057098389	10.32104492	-2.235412598	1.918029785	-0.858578664	-0.133021246	-2.856616935	-1.038085938	-0.121582031	0.430664063	895.72	5.061488579	-75.32172232	151.2642987	-53
22200	0	0.464370728	-0.07380867	0.083462715	0.998833656	-0.023013115	-0.000736237	-0.042433739	11.60926819	-1.845216751	2.086567879	-1.151103201	-0.036826144	-2.122511994	-1.016357422	-0.249267578	0.434326172	895.76	20.41203022	-74.29266925	132.6382105	-53
22201	0	0.449768066	-0.121337891	0.082824707	0.998721123	-0.036540985	0.001290321	-0.034896851	11.24420166	-3.033447266	2.070617676	-1.827828078	0.064543569	-1.745586309	-0.992919922	-0.354980469	0.418945313	895.76	28.50308917	-72.44676623	119.8419009	-55
22202	0	0.413247108	-0.141115189	0.081039429	0.998632431	-0.043402672	0.002160072	-0.029053688	10.33117771	-3.527879715	2.025985718	-2.17112315	0.108052865	-1.453346812	-0.967041016	-0.456787109	0.385742188	895.7	31.93414896	-70.50198378	110.9901034	-55
22203	0	0.408081055	-0.151428223	0.082458496	0.99903965	-0.036930084	0.002072334	-0.023468018	10.20202637	-3.785705566	2.061462402	-1.847095257	0.103649881	-1.173776471	-0.938964844	-0.545654297	0.334472656	895.78	33.57671293	-68.79755943	104.7259616	-57
22204	0	0.378042221	-0.16377449	0.077337265	0.999616623	-0.022743225	0.00142765	-0.015674591	9.451055527	-4.094362259	1.933431625	-1.13730629	0.071391627	-0.783829511	-0.914306641	-0.610107422	0.290039063	895.7	34.54003415	-67.61470536	100.8771977	-57
22205	0	0.331542969	-0.167297363	0.079284668	0.999948502	-0.008242607	0.000255585	-0.005893707	8.288574219	-4.182434082	1.982116699	-0.412137413	0.012779455	-0.29469041	-0.895751953	-0.650390625	0.263916016	895.64	34.93215846	-67.17280562	99.42142821	-63
22206	0	0.275268555	-0.122612	0.098629951	0.999979019	-0.003026009	1.24E-05	0.005663872	6.881713867	-3.065299988	2.465748787	-0.15130147	0.000619893	0.283195535	-0.890380859	-0.663818359	0.258789063	895.7	33.31838356	-67.50838087	100.7862774	-58
22207	0	0.395874023	-0.172241211	0.105224609	0.999952316	0.003987312	-0.003791809	0.008029938	9.896850586	-4.306030273	2.630615234	0.199368765	-0.189593448	0.401503228	-0.897216797	-0.661376953	0.244873047	895.66	32.44714361	-68.35424208	102.2081367	-59
22208	0	0.721193314	-0.252577782	0.127960205	0.998942375	0.039553642	-0.001472473	0.023370743	18.02983284	-6.314444542	3.199005127	1.978379201	-0.073649608	1.168949022	-0.900878906	-0.647949219	0.275390625	895.72	31.19865847	-69.90756887	108.3777554	-55
22209	0	0.477722168	-0.020629883	0.103637695	0.997466087	0.043479919	0.002743721	0.056236267	11.9430542	-0.51574707	2.590942383	2.175833762	0.137302021	2.814190325	-0.935302734	-0.572021484	0.327880859	895.76	18.53796485	-72.36072322	126.9922006	-52
22210	0	0.528393745	0.088035583	0.10105896	0.995205879	0.0473423	0.000278473	0.085568428	13.20984364	2.200889587	2.526473999	2.370904266	0.013945934	4.285270241	-0.998291016	-0.427490234	0.370849609	895.7	-8.155790169	-73.24444231	160.5364847	-50
22211	0	0.628479004	0.051086426	0.086486816	0.994553566	0.037094116	0.004319191	0.097305298	15.7119751	1.277160645	2.16217041	1.858080262	0.216352466	4.874116753	-1.057373047	-0.2109375	0.407714844	895.76	-33.94890575	-68.59030631	-167.7726976	-53
22212	0	0.565156937	-0.017161369	0.080404282	0.994732857	0.019677162	0.007549286	0.100304604	14.12892342	-0.429034233	2.01010704	0.985588907	0.378128328	5.024052947	-1.0859375	0.021972656	0.41015625	895.66	-48.66802622	-60.2319058	-149.029322	-54
22213	0	0.517456055	-0.026855469	0.084106445	0.995240211	0.012565613	0.005372047	0.096485138	12.93640137	-0.671386719	2.102661133	0.629279286	0.269029312	4.83192501	-1.072265625	0.255371094	0.395751953	895.64	-56.39360384	-51.03759475	-137.970812	-50
22214	0	0.491739273	-0.014159203	0.047846794	0.996321678	0.012863159	0.001918793	0.084687233	12.29348183	-0.353980064	1.196169853	0.643947481	0.096057409	4.239559629	-1.012939453	0.465576172	0.378173828	895.64	-60.17818608	-42.66529777	-130.7848115	-49
22215	0	0.441467285	-0.054382324	0.027160645	0.997618675	0.015785217	-0.0020895	0.06710434	11.03668213	-1.359558105	0.679016113	0.789887898	-0.104558022	3.357882555	-0.928955078	0.641845703	0.364990234	895.66	-61.61944068	-36.08935756	-125.6711711	-49
22216	0	0.36923027	-0.045088768	0.02662468	0.998558044	0.016138077	-0.005000114	0.050952911	9.23075676	-1.1272192	0.665616989	0.807291877	-0.250125949	2.548870724	-0.842773438	0.770019531	0.346923828	895.78	-61.95521896	-31.26002642	-121.7395736	-49
22217	0	0.314758301	-0.038574219	0.038269043	0.999211311	0.012584686	-0.007575035	0.036872864	7.86895752	-0.964355469	0.956726074	0.629399643	-0.378851271	1.8441276	-0.761962891	0.859130859	0.332275391	895.76	-62.0880725	-27.99407781	-118.566174	-48
22218	0	0.289665222	-0.042485237	0.042367935	0.999628067	0.010411263	-0.008595467	0.023681641	7.241630554	-1.062130928	1.05919838	0.520627619	-0.429826576	1.184228728	-0.698730469	0.916015625	0.321289063	895.7	-62.00289466	-26.12807597	-116.1469617	-45
22219	0	0.284240723	-0.053588867	0.055175781	0.999856949	0.01006794	-0.010028839	0.009113312	7.106018066	-1.33972168	1.379394531	0.503420902	-0.501465777	0.455687235	-0.653076172	0.949462891	0.310302734	895.7	-61.59770301	-25.82994758	-114.4513039	-45
22220	0	0.298293114	-0.069365501	0.08717823	0.999808311	0.012423515	-0.011360168	-0.009932518	7.457327843	-1.734137535	2.179455757	0.621215326	-0.568044597	-0.496657529	-0.632324219	0.957519531	0.30859375	895.7	-60.48289378	-27.54466967	-113.7603878	-46
22221	0	0.311035156	-0.088134766	0.104370117	0.999270439	0.012485504	-0.015490532	-0.032585144	7.775878906	-2.203369141	2.60925293	0.624426968	-0.774714883	-1.629653273	-0.655029297	0.942871094	0.302490234	895.66	-58.8603372	-31.76212192	-114.1220684	-48
22222	0	0.316248894	-0.086783409	0.138092041	0.998319626	0.009987831	-0.019434929	-0.053664207	7.906222343	-2.169585228	3.452301025	0.499671415	-0.972291012	-2.684714045	-0.713623047	0.887939453	0.307373047	895.76	-56.73999574	-38.26111823	-115.7734919	-47
22223	0	0.336914063	-0.07019043	0.148132324	0.997094154	0.001548767	-0.022120476	-0.072875977	8.422851563	-1.754760742	3.703308105	0.077513442	-1.107096231	-3.647331993	-0.796875	0.799072266	0.324951172	895.66	-54.11622377	-46.69802917	-119.3166648	-47
22224	0	0.394533157	-0.0727005	0.140446663	0.995718956	-0.015276909	-0.022777557	-0.088265419	9.863328934	-1.817512512	3.511166573	-0.764937233	-1.140505704	-4.419578982	-0.890136719	0.660400391	0.378417969	895.78	-50.63801923	-56.44536253	-125.8872777	-46
22225	0	0.501586914	-0.11340332	0.151245117	0.994906425	-0.026901245	-0.019305229	-0.0952034	12.53967285	-2.835083008	3.78112793	-1.347350384	-0.966903496	-4.76826766	-0.974365234	0.462646484	0.450439453	895.66	-42.88448238	-66.08798517	-138.1353054	-46
22226	0	0.590196609	-0.141640663	0.172821999	0.996032715	-0.02490139	-0.011332512	-0.084671021	14.75491524	-3.541016579	4.320549965	-1.246718397	-0.567375999	-4.23915768	-1.021972656	0.241455078	0.505615234	895.7	-25.94846654	-72.85528201	-159.1859677	-46
22227	0	0.547790527	-0.11907959	0.157287598	0.998141289	-0.021556854	-0.007308006	-0.056522369	13.69476318	-2.976989746	3.932189941	-1.078510813	-0.365626808	-2.827870239	-1.035400391	0.049560547	0.533447266	895.66	-6.722340327	-75.59010411	178.2653276	-47
22228	0	0.464544296	-0.018070221	0.17155838	0.999321938	-0.014662743	-0.006772995	-0.033063889	11.61360741	-0.451755524	4.288959503	-0.733302687	-0.338726223	-1.653567751	-1.028320313	-0.070800781	0.548583984	895.7	7.303916933	-76.37144732	162.0529792	-47
22229	0	0.420654297	-0.045410156	0.129089355	0.999113083	-0.033957481	-0.002178192	-0.024768829	10.51635742	-1.135253906	3.227233887	-1.698375724	-0.108941785	-1.238807378	-1.015380859	-0.154296875	0.549072266	895.66	15.41836014	-76.04420721	149.7037254	-49
22230	0	0.403144836	-0.110719681	0.089393616	0.998193741	-0.055659294	0.003247261	-0.022358894	10.07862091	-2.76799202	2.234840393	-2.784641115	0.162460857	-1.118618148	-1.006347656	-0.253173828	0.531005859	895.78	18.46580426	-74.91069723	139.9935541	-49
22231	0	0.360351563	-0.145141602	0.07989502	0.997934341	-0.060477257	0.007408142	-0.020347595	9.008789063	-3.628540039	1.997375488	-3.025946323	0.37066232	-1.01808075	-1.000976563	-0.358642578	0.485107422	895.72	18.64505398	-73.32562064	132.6218273	-49
22232	0	0.362581253	-0.178636551	0.078834534	0.99909687	-0.038842201	0.006170273	-0.016064644	9.064531326	-4.465913773	1.970863342	-1.942694743	0.308606521	-0.80347401	-0.995849609	-0.453369141	0.424316406	895.78	19.25319885	-72.02046589	127.3203163	-49
22233	0	0.403137207	-0.203308105	0.088928223	0.999955177	-4.58E-05	0.003941536	-0.008563995	10.07843018	-5.082702637	2.223205566	-0.002288852	0.197079717	-0.428206111	-0.986083984	-0.504394531	0.385009766	895.66	21.69301584	-71.21923388	124.7286914	-49
22234	0	0.372122765	-0.14733696	0.074077606	0.999627113	0.026887894	0.001333237	0.004413605	9.303069115	-3.683423996	1.851940155	1.344561493	0.066670106	0.220707618	-0.981201172	-0.508789063	0.390869141	895.76	23.34624385	-71.24265885	126.2226862	-49
22235	0	0.323486328	-0.042114258	0.061828613	0.999408722	0.027852058	-0.001411438	0.020111084	8.087158203	-1.052856445	1.545715332	1.392877452	-0.070585812	1.00575243	-0.992919922	-0.466552734	0.416503906	895.66	20.34900914	-72.22907525	132.7333635	-49
22236	0	0.352937698	-0.010379791	0.060620308	0.999505997	0.004829407	-0.003092766	0.030883789	8.823442459	-0.259494781	1.515507698	0.241510064	-0.154663732	1.544443507	-1.012695313	-0.395751953	0.448974609	895.7	10.23623273	-73.49626301	143.8954661	-48
22237	0	0.43963623	-0.04699707	0.066467285	0.999195099	-0.013323784	-0.006278992	0.037288666	10.99090576	-1.174926758	1.661682129	-0.666367794	-0.314033753	1.86493313	-1.029541016	-0.331787109	0.450195313	895.72	-5.957222442	-74.38063916	159.1527142	-48
22238	0	0.477450371	-0.081975937	0.094841957	0.999121666	-0.009838104	-0.006919861	0.040126801	11.93625927	-2.049398422	2.371048927	-0.492049195	-0.346094315	2.006927289	-1.044433594	-0.261230469	0.465332031	895.72	-23.45934714	-73.98453737	176.1636073	-49
22239	0	0.406616211	-0.084533691	0.096557617	0.999042511	0.008316994	-0.007228851	0.042320251	10.16540527	-2.113342285	2.41394043	0.415982347	-0.361557871	2.116687609	-1.052978516	-0.179931641	0.481933594	895.72	-37.62653852	-72.23263233	-168.0449552	-46
22240	0	0.394722939	-0.049114227	0.104146004	0.998672485	0.025224686	-0.00823307	0.044146538	9.868073463	-1.227855682	2.603650093	1.261792623	-0.411835755	2.208304057	-1.060058594	-0.074462891	0.499267578	895.76	-47.31119964	-69.51560551	-154.7441959	-45
22241	0	0.390563965	-0.040649414	0.090759277	0.998711586	0.030399323	-0.009360313	0.039539337	9.764099121	-1.016235352	2.268981934	1.520619225	-0.468216768	1.977816322	-1.049316406	0.050048828	0.517089844	895.66	-53.07769709	-66.73742445	-144.7791546	-45
22242	0	0.368739128	-0.059434891	0.082192421	0.998933792	0.034211159	-0.011767387	0.028654099	9.218478203	-1.485872269	2.054810524	1.711165749	-0.588578434	1.433214008	-1.028564453	0.160888672	0.535400391	895.66	-55.82166063	-64.87685847	-137.4709146	-46
22243	0	0.36328125	-0.068908691	0.084472656	0.998997688	0.039474487	-0.013674736	0.016056061	9.08203125	-1.722717285	2.111816406	1.974383865	-0.683965265	0.803071288	-1.001953125	0.251953125	0.540771484	895.7	-56.16865263	-64.2613505	-132.073485	-47
22244	0	0.35624218	-0.06860733	0.090787888	0.998935699	0.043457031	-0.014561653	0.005033493	8.906054497	-1.715183258	2.269697189	2.173622174	-0.728340875	0.25176391	-0.979492188	0.323486328	0.55078125	895.72	-54.73261722	-64.76948998	-128.1421774	-48
22245	0	0.375	-0.050231934	0.090454102	0.999078751	0.041417122	-0.010845184	-0.002696991	9.375	-1.25579834	2.261352539	2.071491777	-0.542425671	-0.134890943	-0.960449219	0.375244141	0.539794922	895.78	-51.71823448	-65.80076602	-126.2299474	-47
22246	0	0.355113983	-0.035852432	0.067193031	0.999548912	0.027643204	-0.007883072	-0.008626938	8.877849579	-0.896310806	1.679825783	1.382367759	-0.394212789	-0.431411673	-0.952392578	0.407714844	0.530761719	895.76	-48.65791764	-67.18105822	-126.1055165	-47
22247	0	0.354431152	-0.046447754	0.074462891	0.99974823	0.015980721	-0.007995605	-0.013519287	8.860778809	-1.161193848	1.861572266	0.799102905	-0.399813735	-0.676020933	-0.952392578	0.412109375	0.530517578	895.8	-45.84543791	-68.98484231	-127.1558885	-46
22248	0	0.383239746	-0.06360054	0.081830025	0.999727249	0.014408112	-0.007819176	-0.016600609	9.580993652	-1.590013504	2.045750618	0.720470949	-0.390994262	-0.830105759	-0.954101563	0.396728516	0.531982422	895.72	-42.09273359	-70.99528655	-129.3876519	-45
22249	0	0.404174805	-0.04473877	0.08795166	0.999767303	0.011509895	-0.00667572	-0.016956329	10.10437012	-1.118469238	2.198791504	0.575539334	-0.33381186	-0.847882125	-0.958251953	0.379394531	0.533447266	895.56	-37.63766911	-72.87301955	-132.6817045	-45
22250	0	0.395448685	-0.069993973	0.111226082	0.999839783	-0.009955406	-0.004532814	-0.014116287	9.886217117	-1.749849319	2.780652046	-0.497796772	-0.22665275	-0.705851884	-0.966552734	0.351318359	0.541992188	895.72	-35.32833314	-74.2945354	-136.2726487	-45
22251	0	0.381896973	-0.060119629	0.080383301	0.999905586	0.006851196	-0.007170677	-0.009506226	9.547424316	-1.502990723	2.00958252	0.34257059	-0.358545138	-0.475326231	-0.967773438	0.318847656	0.556152344	895.78	-32.80067161	-75.62506777	-138.0796243	-44
22252	0	0.383546829	-0.093107224	0.102912903	0.999945641	0.006987572	-0.004243851	-0.006336212	9.588670731	-2.327680588	2.572822571	0.349384816	-0.212196319	-0.316816257	-0.965087891	0.307861328	0.565429688	895.76	-30.43540728	-76.45559763	-139.6941146	-43
22253	0	0.383728027	-0.036010742	0.095703125	0.999987602	0.002498627	-0.002963066	-0.002933502	9.593200684	-0.900268555	2.392578125	0.124931827	-0.148153888	-0.146675687	-0.962890625	0.307861328	0.571044922	895.72	-29.52180382	-76.95146806	-140.3384037	-43
22254	0	0.381344795	-0.079813957	0.093423843	0.999993324	-0.002410889	-0.001260757	-0.002229691	9.533619881	-1.99534893	2.335596085	-0.120544682	-0.063038002	-0.111484757	-0.962646484	0.301269531	0.577148438	895.66	-29.02274543	-77.23342454	-141.1335183	-43
22255	0	0.381835938	-0.062927246	0.092773438	0.999982834	-0.005290031	0.000419617	-0.002235413	9.545898438	-1.573181152	2.319335938	-0.264503033	0.020980951	-0.111771248	-0.962402344	0.296875	0.577636719	895.7	-28.41977342	-77.342966	-142.3714591	-44
22256	0	0.379788399	-0.064027786	0.091128349	0.999956131	-0.009288788	-0.000258446	7.82E-05	9.494709969	-1.600694656	2.278208733	-0.464446077	-0.012922473	0.003910121	-0.964355469	0.283691406	0.578857422	895.64	-29.47507816	-77.39104122	-142.3806614	-43
22257	0	0.381713867	-0.081054688	0.094238281	0.999983788	-0.005630493	0.000630379	-0.000213623	9.54284668	-2.026367188	2.355957031	-0.281526167	0.031519105	-0.01068121	-0.961669922	0.272949219	0.588134766	895.78	-29.76477817	-77.36442997	-142.7460401	-43
22258	0	0.37961483	-0.068723679	0.089918137	0.999997139	0.001806259	0.001180649	0.000762939	9.49037075	-1.718091965	2.247953415	0.090313037	0.059032492	0.038147006	-0.963867188	0.268554688	0.585693359	895.7	-29.50238476	-77.22569695	-142.8050611	-43
22259	0	0.382385254	-0.05670166	0.084716797	0.999993324	0.00327301	0.001294136	0.000892639	9.559631348	-1.417541504	2.117919922	0.163650872	0.064706945	0.044632056	-0.966308594	0.272949219	0.585449219	895.64	-29.10856948	-77.06705583	-142.8260275	-43
22260	0	0.382014275	-0.053302765	0.083367348	0.999993324	0.00335598	0.001018524	0.001008034	9.550356865	-1.332569122	2.084183693	0.167799368	0.050926322	0.050401799	-0.96875	0.279541016	0.576416016	895.66	-28.82906631	-76.92863904	-142.7193509	-43
22261	0	0.381408691	-0.051330566	0.079345703	0.999996185	0.002198219	0.000789642	0.000785828	9.535217285	-1.28326416	1.983642578	0.109911076	0.039482157	0.039291422	-0.968994141	0.283935547	0.576171875	895.66	-28.64508672	-76.82485932	-142.6507981	-43
22262	0	0.3832798	-0.048834801	0.08053112	0.999999046	0.000785828	0.00041008	1.43E-05	9.58199501	-1.220870018	2.013278008	0.039291387	0.020504	0.000715256	-0.966552734	0.288085938	0.567138672	895.72	-28.38370176	-76.80092648	-142.8274025	-43
22263	0	0.381286621	-0.050292969	0.085571289	0.999999046	-0.000881195	0.000214577	-0.000473022	9.532165527	-1.257324219	2.139282227	-0.044059761	0.010728838	-0.023651127	-0.966552734	0.286132813	0.572998047	895.66	-28.15101483	-76.82207052	-143.1713108	-43
22264	0	0.376233101	-0.051428795	0.084420204	0.999998093	-0.001419067	-2.38E-05	-0.000584602	9.405827522	-1.285719872	2.110505104	-0.070953397	-0.001192093	-0.029230129	-0.968994141	0.286132813	0.5703125	895.72	-27.98755333	-76.87210884	-143.5072359	-43
22265	0	0.375427246	-0.056396484	0.085754395	0.999999046	-0.001049042	-0.000121117	-0.00030899	9.385681152	-1.409912109	2.143859863	-0.052452098	-0.006055833	-0.015449527	-0.96875	0.281738281	0.573486328	895.76	-27.92527694	-76.91589821	-143.6963998	-43
22266	0	0.383478165	-0.058467865	0.081753731	0.999999046	0.000572205	-0.000171661	-0.000191689	9.586954117	-1.461696625	2.043843269	0.028610231	-0.008583069	-0.009584428	-0.970947266	0.279541016	0.573730469	895.8	-27.74297203	-76.95756184	-143.8184106	-43
22267	0	0.383728027	-0.057312012	0.085083008	0.999998093	0.001584053	-0.000415802	-0.000183105	9.593200684	-1.432800293	2.127075195	0.079202688	-0.02079011	-0.009155278	-0.96875	0.281738281	0.567871094	895.78	-27.50693134	-77.02248999	-143.8763162	-43
22268	0	0.383209229	-0.053663254	0.086582184	0.999996185	0.002386093	-0.000500679	-0.000611305	9.580230713	-1.341581345	2.164554596	0.119304783	-0.025033977	-0.030565294	-0.96875	0.281738281	0.570556641	895.78	-27.00886996	-77.11750993	-144.109117	-43
22269	0	0.382568359	-0.053649902	0.086975098	0.999990463	0.0041399	-0.00056839	-0.000514984	9.564208984	-1.341247559	2.174377441	0.206995622	-0.028419579	-0.025749283	-0.96875	0.283935547	0.567626953	895.7	-26.36540263	-77.21302306	-144.284997	-43
22270	0	0.381071091	-0.050158501	0.086900711	0.999978065	0.006523132	-0.000703812	-2.00E-05	9.526777267	-1.253962517	2.172517776	0.326158956	-0.035190835	-0.001001365	-0.966552734	0.290283203	0.564208984	895.72	-25.70071276	-77.29625484	-144.2026548	-43
22271	0	0.38293457	-0.045043945	0.085693359	0.999972343	0.007293701	-0.000525475	0.000244141	9.573364258	-1.126098633	2.142333984	0.364688313	-0.026273962	0.01220714	-0.967041016	0.296875	0.56640625	895.76	-25.02836801	-77.34757423	-144.0379783	-43
22272	0	0.382023811	-0.04043293	0.082164764	0.999978065	0.006527901	-0.000411987	0.000357628	9.550595284	-1.01082325	2.05411911	0.326397369	-0.020599513	0.017881521	-0.967285156	0.305664063	0.565673828	895.7	-24.47169264	-77.38158841	-143.8446127	-43
22273	0	0.382568359	-0.037902832	0.081237793	0.999986649	0.00508213	-0.000740051	0.000339508	9.564208984	-0.947570801	2.030944824	0.254107644	-0.037002727	0.016975478	-0.965087891	0.312011719	0.562255859	895.76	-24.14220369	-77.4506994	-143.5882071	-43
22274	0	0.378265381	-0.04050827	0.081152916	0.999991417	0.003927231	-0.000974655	0.000196457	9.456634521	-1.012706757	2.028822899	0.196362079	-0.048732891	0.009822872	-0.965576172	0.320800781	0.561523438	895.7	-23.92882683	-77.55083584	-143.3483275	-43
22275	0	0.375915527	-0.040283203	0.080932617	0.999991417	0.003799438	-0.001177788	3.43E-05	9.397888184	-1.007080078	2.02331543	0.189972425	-0.058889544	0.001716618	-0.965820313	0.325195313	0.563964844	895.72	-23.69755063	-77.67945981	-143.1421696	-43
22276	0	0.38202858	-0.041752815	0.082853317	0.999994278	0.003095627	-0.001046181	-0.000114441	9.550714493	-1.043820381	2.071332932	0.154781617	-0.052309129	-0.005722056	-0.963378906	0.325195313	0.555419922	895.66	-23.44866441	-77.80066807	-143.0368274	-43
22277	0	0.384094238	-0.040771484	0.082092285	0.999993324	0.003471375	-0.000670433	1.53E-05	9.602355957	-1.019287109	2.052307129	0.173569087	-0.033521722	0.000762941	-0.961181641	0.327392578	0.557861328	895.66	-23.14083887	-77.87601204	-142.9479963	-43
22278	0	0.385300636	-0.035579681	0.081335068	0.999994278	0.003209114	8.87E-05	8.87E-05	9.632515907	-0.889492035	2.033376694	0.16045598	0.004434593	0.004434593	-0.961425781	0.333740234	0.557373047	895.76	-22.7400678	-77.86767403	-142.9848154	-43
22279	0	0.387268066	-0.031677246	0.079101563	0.999998093	0.001412392	0.00056076	0.000198364	9.68170166	-0.791931152	1.977539063	0.070619611	0.028038036	0.009918217	-0.959228516	0.338134766	0.553955078	895.72	-22.50285461	-77.80432766	-143.0648002	-43
22280	0	0.386315346	-0.030760765	0.076813698	0.999997139	-0.002087593	0.000694275	0.000489235	9.657883644	-0.769019127	1.920342445	-0.104379742	0.034713775	0.024461767	-0.961425781	0.338134766	0.554199219	895.7	-22.78179792	-77.71396618	-143.0271105	-43
22281	0	0.383544922	-0.036315918	0.079040527	0.999990463	-0.004130363	0.000312805	0.000156403	9.588623047	-0.907897949	1.976013184	-0.206518765	0.015640304	0.007820152	-0.963623047	0.333984375	0.551757813	895.7	-23.21027804	-77.67840804	-143.0760061	-43
22282	0	0.379818916	-0.039974213	0.081026077	0.99998188	-0.005950928	-9.35E-05	-0.00058651	9.495472908	-0.999355316	2.025651932	-0.29754816	-0.004673032	-0.02932566	-0.963378906	0.329589844	0.549316406	895.72	-23.57395998	-77.71897023	-143.4045945	-43
22283	0	0.378845215	-0.048400879	0.083862305	0.999962807	-0.008464813	-0.000552177	-0.001018524	9.471130371	-1.210021973	2.096557617	-0.423245811	-0.027609207	-0.050926828	-0.963134766	0.320800781	0.561523438	895.72	-24.11697322	-77.82738008	-143.8446358	-43
22284	0	0.38027668	-0.056443214	0.087435722	0.999949455	-0.009903908	-0.000778198	-0.000955582	9.506917	-1.41108036	2.185893059	-0.49520361	-0.038910558	-0.047779876	-0.965087891	0.305664063	0.565673828	895.7	-24.91101716	-77.9563136	-144.1967739	-43
22285	0	0.378234863	-0.06451416	0.091247559	0.999964714	-0.008308411	-0.000693321	-0.000720978	9.455871582	-1.612854004	2.281188965	-0.415425381	-0.034666466	-0.03604931	-0.96484375	0.294677734	0.577880859	895.66	-25.62662447	-78.06443048	-144.4423338	-43
22286	0	0.382740974	-0.072480202	0.092998505	0.999992371	-0.003724098	-0.000458717	-0.000204086	9.568524361	-1.812005043	2.324962616	-0.186205349	-0.022935921	-0.010204339	-0.964355469	0.285888672	0.581542969	895.76	-26.02370638	-78.12132702	-144.4768841	-43
22287	0	0.378479004	-0.07019043	0.090515137	0.999997139	0.002204895	-0.000113487	0.000106812	9.461975098	-1.754760742	2.262878418	0.110244841	-0.005674367	0.005340581	-0.966552734	0.281738281	0.58203125	895.56	-25.81749636	-78.12550128	-144.4341128	-43
22288	0	0.378118515	-0.060988426	0.084471703	0.999983788	0.005547523	-1.53E-05	0.000529289	9.452962875	-1.524710655	2.111792564	0.277377611	-0.000762943	0.026464599	-0.964599609	0.288085938	0.581298828	895.72	-25.41634871	-78.0975515	-144.1990817	-43
22289	0	0.381835938	-0.054443359	0.081359863	0.999973297	0.007149696	0.000217438	0.000610352	9.545898438	-1.361083984	2.033996582	0.357487888	0.010871981	0.03051784	-0.962402344	0.292480469	0.577880859	895.72	-24.82091651	-78.04118848	-143.9751381	-43
22290	0	0.381930351	-0.044140816	0.079170227	0.999977112	0.006680489	0.000342369	0.000478745	9.548258781	-1.103520393	1.979255676	0.334026933	0.017118582	0.023937405	-0.965087891	0.303466797	0.574462891	895.72	-24.18916984	-77.97815895	-143.8430026	-43
22291	0	0.37878418	-0.038330078	0.079101563	0.999990463	0.004208565	0.000118256	0.000404358	9.469604492	-0.958251953	1.977539063	0.210428865	0.005912798	0.020217956	-0.960449219	0.309814453	0.567871094	895.7	-23.85489271	-77.94203002	-143.6961816	-43
22292	0	0.381967545	-0.039248466	0.080194473	0.999997139	0.00215435	-0.000205994	0.00024128	9.549188614	-0.981211662	2.004861832	0.107717599	-0.010299691	0.01206399	-0.962890625	0.314208984	0.564697266	895.64	-23.74671553	-77.94730213	-143.5588509	-43
22293	0	0.382446289	-0.039855957	0.079833984	0.999999046	0.000724792	-0.000189781	4.20E-05	9.561157227	-0.996398926	1.995849609	0.036239627	-0.00948906	0.002098084	-0.960693359	0.31640625	0.564453125	895.72	-23.7013302	-77.95987644	-143.5248401	-43
22294	0	0.382717133	-0.042212486	0.081152916	0.999999046	-0.000436783	-0.000331879	3.05E-05	9.567928314	-1.055312157	2.028822899	-0.021839143	-0.016593934	0.001525879	-0.9609375	0.318603516	0.564208984	895.82	-23.81518288	-77.98756189	-143.4640919	-43
22295	0	0.384155273	-0.045654297	0.082397461	0.999999046	-0.000354767	-0.000254631	-0.000106812	9.603881836	-1.141357422	2.059936523	-0.017738343	-0.012731553	-0.005340576	-0.960693359	0.31640625	0.567382813	895.82	-23.83687426	-78.01306654	-143.488244	-43
22296	0	0.383475304	-0.0446558	0.084000587	0.999999046	-0.000229836	-0.000293732	-0.0002985	9.586882591	-1.116394997	2.100014687	-0.011491776	-0.014686585	-0.014925004	-0.960693359	0.314208984	0.5703125	895.76	-23.75891079	-78.05104776	-143.5997705	-43
22297	0	0.381958008	-0.045349121	0.084350586	0.999999046	-0.00037384	-0.000117302	-0.000156403	9.548950195	-1.133728027	2.108764648	-0.018692017	-0.005865097	-0.00782013	-0.963134766	0.31640625	0.567382813	895.82	-23.73023549	-78.06341599	-143.6776101	-43
22298	0	0.378940582	-0.047429085	0.082881927	0.999999046	0.000270844	-0.000370026	7.15E-05	9.473514557	-1.185727119	2.072048187	0.013542176	-0.018501282	0.003576279	-0.960693359	0.314208984	0.5703125	895.78	-23.79783129	-78.09123821	-143.581841	-43
22299	0	0.380981445	-0.046264648	0.084655762	0.999998093	0.00167942	-0.000682831	-3.81E-05	9.524536133	-1.156616211	2.116394043	0.08397107	-0.034141559	-0.00190735	-0.960693359	0.31640625	0.567382813	895.66	-23.71954491	-78.15635772	-143.4701726	-43
22300	0	0.381340981	-0.046631813	0.081911087	0.999996185	0.002584457	-0.000676155	-0.000477791	9.533524513	-1.165795326	2.047777176	0.129223028	-0.033807796	-0.023889571	-0.958496094	0.31640625	0.567138672	895.7	-23.31584949	-78.24050113	-143.5851774	-43
22301	0	0.381835938	-0.043395996	0.083068848	0.999992371	0.003724098	-0.000564575	-0.000350952	9.545898438	-1.084899902	2.076721191	0.186205354	-0.028228827	-0.017547649	-0.958496094	0.318603516	0.564208984	895.72	-22.81854318	-78.30651142	-143.6624277	-43
22302	0	0.386043549	-0.038189888	0.080783844	0.999993324	0.003574371	-0.000183105	-0.00015831	9.651088715	-0.9547472	2.0195961	0.178718949	-0.009155293	-0.007915514	-0.958740234	0.322753906	0.563964844	895.66	-22.35255762	-78.32329622	-143.7251872	-43
22303	0	0.381896973	-0.03515625	0.08013916	0.999991417	0.003955841	4.67E-05	0.000289917	9.547424316	-0.87890625	2.003479004	0.197792572	0.002336508	0.014495888	-0.958740234	0.327148438	0.560546875	895.66	-22.0233572	-78.29599947	-143.6036306	-43
22304	0	0.384374619	-0.029321671	0.079247475	0.999996185	0.002696991	0.000309944	0.000322342	9.609365463	-0.733041763	1.981186867	0.134849716	0.015497227	0.016117116	-0.961181641	0.329345703	0.557861328	895.72	-21.79914863	-78.23944109	-143.5221907	-43
22305	0	0.386474609	-0.030456543	0.078674316	0.999999046	0.00025177	0.000245094	0.000106812	9.661865234	-0.761413574	1.96685791	0.012588501	0.012254715	0.005340576	-0.958984375	0.331542969	0.563232422	895.64	-21.75746743	-78.19904781	-143.5404376	-43
22306	0	0.38331604	-0.032269478	0.078328133	0.999999046	-0.000278473	0.000240326	-3.91E-05	9.582901001	-0.806736946	1.958203316	-0.013923645	0.012016297	-0.001955032	-0.961425781	0.333740234	0.557373047	895.7	-21.70294374	-78.1653934	-143.633661	-43
22307	0	0.382385254	-0.030700684	0.078796387	0.999999046	-0.001098633	0.000134468	6.10E-05	9.559631348	-0.76751709	1.969909668	-0.054931652	0.006723405	0.003051758	-0.961425781	0.331787109	0.560302734	895.8	-21.81392222	-78.13881878	-143.6539873	-43
22308	0	0.382359505	-0.033424377	0.079069138	0.999995232	-0.002900124	8.58E-05	0.000216484	9.558987617	-0.835609436	1.976728439	-0.145006384	0.00429154	0.010824219	-0.961425781	0.331787109	0.560302734	895.76	-22.21913588	-78.11077102	-143.5844309	-43
22309	0	0.381774902	-0.038696289	0.08013916	0.999993324	-0.003463745	3.91E-05	0.000526428	9.544372559	-0.967407227	2.003479004	-0.17318761	0.001955036	0.026321465	-0.961181641	0.327392578	0.563720703	895.66	-22.85376292	-78.07381083	-143.3466214	-43
22310	0	0.382091522	-0.041119576	0.080069542	0.999995232	-0.003030777	1.91E-06	0.000594139	9.552288055	-1.027989388	2.001738548	-0.15153909	9.54E-05	0.029707002	-0.958740234	0.324951172	0.566650391	895.64	-23.4789925	-78.03703773	-143.0676932	-43
22311	0	0.381469727	-0.043395996	0.080505371	0.999995232	-0.002994537	-6.68E-06	0.000370026	9.536743164	-1.084899902	2.012634277	-0.149727095	-0.000333787	0.01850131	-0.958740234	0.322753906	0.563964844	895.66	-23.99007688	-78.01073118	-142.9011086	-43
22312	0	0.383512497	-0.045204163	0.081085205	0.999996185	-0.002573013	-0.000208855	0.000277519	9.587812424	-1.130104065	2.027130127	-0.12865081	-0.010442745	0.013875977	-0.958496094	0.320556641	0.563964844	895.66	-24.45239061	-78.00937855	-142.7350445	-43
22313	0	0.38482666	-0.046569824	0.079956055	0.999996185	-0.002455711	-0.000328064	0.000110626	9.620666504	-1.164245605	1.998901367	-0.122785694	-0.016403215	0.005531317	-0.958496094	0.31640625	0.567138672	895.76	-24.8480078	-78.02796837	-142.6236041	-43
22314	0	0.383892059	-0.047234535	0.080449104	0.999997139	-0.001932144	-0.000362396	-0.000184059	9.597301483	-1.18086338	2.011227608	-0.096607271	-0.018119824	-0.009202963	-0.958496094	0.314208984	0.5703125	895.64	-25.04919134	-78.06400554	-142.6496026	-43
22315	0	0.383178711	-0.048583984	0.080993652	0.999998093	-0.001441002	-0.000358582	-0.000236511	9.579467773	-1.214599609	2.024841309	-0.072050122	-0.017929084	-0.011825566	-0.958251953	0.312011719	0.570556641	895.7	-25.16953912	-78.10189611	-142.7007163	-43
22316	0	0.381000519	-0.049855232	0.079538345	0.999998093	-0.00138855	-0.000294685	-0.000160217	9.52501297	-1.246380806	1.988458633	-0.069427514	-0.014734273	-0.008010867	-0.960693359	0.309814453	0.573486328	895.7	-25.30892675	-78.12915059	-142.7263447	-43
22317	0	0.38104248	-0.04901123	0.081542969	0.999999046	-0.001094818	-0.000426292	-8.39E-05	9.526062012	-1.225280762	2.038574219	-0.054740918	-0.021314626	-0.004196168	-0.958251953	0.309814453	0.573486328	895.72	-25.48491899	-78.16590799	-142.6800845	-43
22318	0	0.380874634	-0.051747322	0.07970047	0.999999046	-0.000528336	-0.00050354	-0.000191689	9.521865845	-1.293683052	1.992511749	-0.026416781	-0.025177004	-0.009584428	-0.958251953	0.305419922	0.579589844	895.76	-25.5636799	-78.21557883	-142.6672291	-43
22319	0	0.382080078	-0.051879883	0.08026123	0.999999046	0.000545502	-0.000388145	-0.000160217	9.552001953	-1.29699707	2.006530762	0.027275088	-0.019407274	-0.008010865	-0.958251953	0.307617188	0.579345703	895.64	-25.5097316	-78.25135482	-142.6640618	-43
22320	0	0.380142212	-0.048681259	0.079102516	0.999999046	0.000882149	-0.000331879	0.000166893	9.503555298	-1.217031479	1.977562904	0.044107444	-0.016593936	0.008344652	-0.958007813	0.303222656	0.579589844	895.72	-25.56780533	-78.26482832	-142.5074743	-43
22321	0	0.382141113	-0.048706055	0.079467773	0.999998093	0.0017519	-0.000335693	0.00025177	9.553527832	-1.217651367	1.986694336	0.087595033	-0.016784677	0.012588508	-0.958251953	0.307617188	0.582275391	895.76	-25.57064909	-78.27415562	-142.3053023	-43
22322	0	0.383516312	-0.040992737	0.079292297	0.999998093	0.001763344	-1.81E-05	0.000300407	9.587907791	-1.02481842	1.982307434	0.088167238	-0.000905991	0.015020378	-0.958251953	0.307617188	0.582275391	895.7	-25.51993768	-78.24812141	-142.156609	-43
22323	0	0.384277344	-0.037353516	0.076477051	0.999999046	0.000408173	0.000573158	0.0001297	9.606933594	-0.933837891	1.91192627	0.020408632	0.028657916	0.006484986	-0.956298828	0.312011719	0.581787109	895.72	-25.39877634	-78.16946802	-142.2381155	-43
22324	0	0.387051582	-0.041606903	0.072559357	0.999997139	-0.001835823	0.000579834	0.000562668	9.676289558	-1.040172577	1.813983917	-0.091791215	0.028991719	0.028133411	-0.960693359	0.312011719	0.573486328	895.7	-25.74636042	-78.06901511	-142.1033334	-43
22325	0	0.386352539	-0.040405273	0.074401855	0.999998093	-0.001868248	0.000175476	0.000389099	9.658813477	-1.010131836	1.860046387	-0.093412456	0.008773809	0.019454968	-0.958496094	0.309814453	0.58203125	895.76	-26.1051637	-78.01901568	-141.9611179	-43
22326	0	0.384523392	-0.038687706	0.080740929	0.999997139	-0.002275467	-0.000205994	6.39E-05	9.613084793	-0.96719265	2.018523216	-0.113773445	-0.010299692	0.003194812	-0.956054688	0.309814453	0.576171875	895.82	-26.44157707	-78.02453473	-141.8891242	-43
22327	0	0.379089355	-0.049743652	0.080810547	0.999996185	-0.002436638	-8.39E-05	-0.000392914	9.477233887	-1.243591309	2.020263672	-0.121832018	-0.004196171	-0.019645711	-0.958251953	0.305419922	0.576660156	895.76	-26.54749154	-78.04052666	-142.0718926	-43
22328	0	0.381767273	-0.052753448	0.077925682	0.999997139	-0.001002312	-0.000179291	0.000117302	9.544181824	-1.318836212	1.948142052	-0.050115594	-0.00896454	0.005865098	-0.958251953	0.303222656	0.582519531	895.76	-26.76112767	-78.03994226	-141.9767987	-43
22329	0	0.385131836	-0.051147461	0.079406738	0.999999046	-0.000411987	-0.000201225	0.000148773	9.628295898	-1.278686523	1.985168457	-0.020599366	-0.010061264	0.00743866	-0.958007813	0.301025391	0.579833984	895.72	-26.92902508	-78.03967881	-141.8593572	-43
22330	0	0.381425858	-0.048398018	0.080188751	0.999999046	-0.000257492	9.92E-05	-0.000175476	9.535646439	-1.209950447	2.004718781	-0.012874604	0.004959107	-0.008773804	-0.958007813	0.301025391	0.585693359	895.72	-26.84988908	-78.02525913	-141.9763446	-43
22331	0	0.3828125	-0.051269531	0.079650879	0.999999046	0.000282288	-0.000105858	-0.000232697	9.5703125	-1.281738281	1.991271973	0.01411438	-0.005292893	-0.011634827	-0.960449219	0.299072266	0.5859375	895.84	-26.73258947	-78.03446672	-142.0692622	-43
22332	0	0.383706093	-0.049154282	0.079291344	0.999999046	0.001339912	-0.000167847	-0.000145912	9.592652321	-1.22885704	1.982283592	0.066995641	-0.008392337	-0.007295611	-0.958007813	0.301025391	0.579833984	895.7	-26.55158627	-78.04531702	-142.1031652	-43
22333	0	0.381958008	-0.048034668	0.079223633	0.999999046	0.001342773	-4.48E-05	-0.000213623	9.548950195	-1.200866699	1.98059082	0.067138693	-0.002241135	-0.010681156	-0.958251953	0.303222656	0.582519531	895.66	-26.30799862	-78.04677283	-142.2007674	-43
22334	0	0.382106781	-0.046199799	0.077298164	0.999999046	0.001235962	-5.72E-05	-0.000183105	9.552669525	-1.154994965	1.932454109	0.061798112	-0.002861024	-0.009155276	-0.958007813	0.303222656	0.579589844	895.7	-26.09469138	-78.04781606	-142.2800138	-43
