Counter	Temperature	VelInc_X	VelInc_Y	VelInc_Z	OriInc_w	OriInc_x	OriInc_y	OriInc_z	Acc_X	Acc_Y	Acc_Z	Gyr_X	Gyr_Y	Gyr_Z	Mag_X	Mag_Y	Mag_Z	Pressure	Roll	Pitch	Yaw	RSSI
15525	0	0.383972168	-0.053405762	0.071960449	0.999999046	-0.001262665	-0.000178337	-0.000217438	9.599304199	-1.335144043	1.79901123	-0.063133257	-0.008916857	-0.01087189	-0.612304688	0.055419922	0.800292969	877.92	-36.75517509	-77.07597382	-140.5742586	-58
15526	0	0.381276131	-0.056539536	0.073633194	0.999999046	-0.001075745	4.39E-05	0.000125885	9.531903267	-1.413488388	1.840829849	-0.053787242	0.002193451	0.006294252	-0.612060547	0.053222656	0.800537109	877.94	-36.86555066	-77.06610821	-140.5834069	-58
15527	0	0.383483887	-0.05682373	0.074707031	0.999999046	-0.000247955	-0.000105858	0.000263214	9.587097168	-1.420593262	1.867675781	-0.012397766	-0.005292893	0.013160706	-0.612060547	0.053222656	0.800537109	877.98	-36.98079256	-77.06025246	-140.4903178	-58
15528	0	0.384996414	-0.055171967	0.075695992	0.999999046	0.000813484	0.000135422	2.19E-05	9.624910355	-1.379299164	1.892399788	0.040674214	0.006771088	0.001096726	-0.614501953	0.053222656	0.797851563	877.92	-36.80559679	-77.04866793	-140.5721466	-58
15529	0	0.382568359	-0.052124023	0.072387695	0.999998093	0.001610756	0.000164032	-7.25E-05	9.564208984	-1.303100586	1.809692383	0.080537831	0.008201603	-0.003623964	-0.614501953	0.053222656	0.794921875	877.94	-36.49267907	-77.04081713	-140.7039404	-58
15530	0	0.381941795	-0.050685883	0.069562912	0.999999046	0.001148224	0.000162125	-0.000126839	9.548544884	-1.267147064	1.7390728	0.057411207	0.008106234	-0.006341936	-0.614501953	0.057617188	0.794677734	877.92	-36.21162269	-77.03684052	-140.8544165	-58
15531	0	0.382141113	-0.052124023	0.070068359	0.999999046	4.96E-05	6.58E-05	-2.29E-05	9.553527832	-1.303100586	1.751708984	0.002479553	0.003290176	-0.001144409	-0.616943359	0.057617188	0.794677734	877.94	-36.12679324	-77.03471791	-140.9330772	-58
15532	0	0.382926941	-0.052161217	0.070305824	0.999999046	-0.00061512	1.72E-05	0.000155449	9.573173523	-1.304030418	1.757645607	-0.030755999	0.000858307	0.007772446	-0.616943359	0.057617188	0.800537109	877.92	-36.20427206	-77.02511655	-140.9223189	-58
15533	0	0.385375977	-0.051269531	0.070373535	0.999999046	-0.001010895	0.000130653	0.00012207	9.634399414	-1.281738281	1.759338379	-0.050544748	0.00653267	0.006103517	-0.614746094	0.057617188	0.797363281	877.94	-36.28029856	-77.00742408	-140.9578227	-58
15534	0	0.381559372	-0.053098679	0.073355675	0.999999046	-0.000591278	0.000301361	-0.000164032	9.538984299	-1.327466965	1.833891869	-0.029563906	0.015068055	-0.0082016	-0.619140625	0.053466797	0.798095703	877.98	-36.14356795	-76.99321304	-141.1662572	-58
15535	0	0.381713867	-0.051086426	0.070861816	0.999999046	0.000228882	0.000187874	0.000225067	9.54284668	-1.277160645	1.77154541	0.011444092	0.009393692	0.011253357	-0.614501953	0.055419922	0.797607422	877.98	-36.10208539	-76.96324131	-141.1781909	-58
15536	0	0.381968498	-0.051348686	0.071332932	0.999999046	0.000250816	5.72E-05	0.000621796	9.549212456	-1.283717155	1.783323288	0.012540818	0.002861023	0.031089785	-0.616943359	0.055419922	0.794921875	877.92	-36.25419631	-76.91858672	-140.990607	-59
15537	0	0.385375977	-0.051147461	0.068969727	0.999999046	-0.000293732	1.24E-05	0.000595093	9.634399414	-1.278686523	1.724243164	-0.014686586	0.000619888	0.029754641	-0.616943359	0.057617188	0.797607422	878.04	-36.47012809	-76.87998305	-140.7991011	-59
15538	0	0.382322311	-0.051645279	0.071328163	0.999999046	-0.000627518	-2.29E-05	0.000243187	9.558057785	-1.291131973	1.783204079	-0.031375887	-0.001144409	0.012159348	-0.616699219	0.055419922	0.791992188	877.92	-36.59463643	-76.86858802	-140.7427386	-59
15539	0	0.382202148	-0.052368164	0.07019043	0.999999046	-0.000415802	-9.06E-05	0.000495911	9.555053711	-1.309204102	1.754760742	-0.020790102	-0.004529953	0.024795534	-0.616943359	0.055419922	0.797851563	877.94	-36.81404594	-76.84618043	-140.563702	-59
15540	0	0.384296417	-0.055433273	0.070806503	0.999999046	-0.00073719	-9.92E-05	0.000343323	9.607410431	-1.385831833	1.770162582	-0.036859516	-0.004959107	0.01716614	-0.619140625	0.053466797	0.798095703	877.94	-37.0129149	-76.83493176	-140.4454077	-59
15541	0	0.382995605	-0.055175781	0.071777344	0.999999046	-0.000614166	1.24E-05	0.000312805	9.574890137	-1.379394531	1.794433594	-0.030708315	0.000619888	0.01564026	-0.619384766	0.055664063	0.80078125	877.92	-37.15277376	-76.8155007	-140.3694957	-59
15542	0	0.383568764	-0.056358337	0.071289063	0.999999046	-0.000291824	-0.000116348	0.000342369	9.589219093	-1.408958435	1.782226563	-0.014591218	-0.005817414	0.017118455	-0.619140625	0.055419922	0.794921875	878.06	-37.30544141	-76.80569969	-140.2430735	-59
15543	0	0.383117676	-0.053588867	0.071655273	0.999999046	-0.000293732	-6.39E-05	0.000762939	9.577941895	-1.33972168	1.791381836	-0.014686586	-0.003194809	0.038146977	-0.616943359	0.055419922	0.797851563	877.98	-37.60505719	-76.76175274	-139.9660418	-59
15544	0	0.383773804	-0.056353569	0.07224369	0.999999046	-0.000359535	-0.000114441	0.000796318	9.594345093	-1.408839226	1.806092262	-0.017976763	-0.005722047	0.039815908	-0.621582031	0.055664063	0.798095703	878	-37.93829287	-76.71965024	-139.6632857	-59
15545	0	0.383789063	-0.055541992	0.070800781	0.999999046	-1.91E-05	2.00E-05	0.000434875	9.594726563	-1.388549805	1.770019531	-0.000953674	0.001001358	0.021743775	-0.616943359	0.055419922	0.794921875	877.98	-38.0527875	-76.69069037	-139.5454046	-59
15546	0	0.38270092	-0.055084229	0.070874214	0.999999046	-0.000268936	-8.01E-05	0.000349998	9.567523003	-1.377105713	1.771855354	-0.013446808	-0.004005432	0.017499924	-0.619140625	0.055664063	0.797851563	877.98	-38.19298019	-76.67676906	-139.4304096	-59
15547	0	0.38293457	-0.056091309	0.072814941	0.999999046	0.000152588	-0.00026226	0.000232697	9.573364258	-1.402282715	1.820373535	0.007629395	-0.013113022	0.011634827	-0.616943359	0.055419922	0.794921875	877.92	-38.29449415	-76.68746616	-139.3063411	-59
15548	0	0.383496284	-0.053013802	0.070614815	0.999999046	-9.54E-07	-0.000350952	4.96E-05	9.587407112	-1.325345039	1.765370369	-4.77E-05	-0.017547608	0.002479553	-0.614501953	0.055419922	0.794677734	877.94	-38.37040953	-76.71925905	-139.2262426	-59
15549	0	0.385009766	-0.05456543	0.070373535	0.999999046	-0.000507355	-0.000288963	-6.10E-05	9.625244141	-1.364135742	1.759338379	-0.025367738	-0.014448167	-0.003051758	-0.616943359	0.057617188	0.794677734	877.98	-38.44369183	-76.75346437	-139.2044407	-59
15550	0	0.384630203	-0.055811882	0.071008682	0.999999046	-0.000738144	0.000183105	-0.000679016	9.615755081	-1.39529705	1.775217056	-0.036907202	0.009155275	-0.033950812	-0.614501953	0.055419922	0.800537109	878	-38.16410137	-76.7891525	-139.5717311	-59
15551	0	0.381652832	-0.055358887	0.073669434	0.999999046	-0.000217438	-7.15E-05	-0.000480652	9.541320801	-1.383972168	1.84173584	-0.010871888	-0.003576279	-0.024032594	-0.616699219	0.051025391	0.792480469	878	-37.97576896	-76.8333166	-139.790274	-59
15552	0	0.38330555	-0.057463646	0.072001457	0.999999046	-5.25E-05	-0.000225067	-0.000489235	9.582638741	-1.436591148	1.80003643	-0.002622604	-0.011253357	-0.024461747	-0.616699219	0.048828125	0.801269531	877.98	-37.8103314	-76.89170784	-139.9675009	-60
15553	0	0.384155273	-0.05645752	0.070068359	0.999999046	-0.000331879	-9.82E-05	-0.00050354	9.603881836	-1.411437988	1.751708984	-0.016593934	-0.004911423	-0.025177004	-0.616699219	0.051025391	0.798095703	877.86	-37.63204508	-76.93949915	-140.1854563	-59
15554	0	0.381049156	-0.053375244	0.071421623	0.999999046	-0.000312805	-0.000139236	-8.87E-05	9.526228905	-1.334381104	1.785540581	-0.015640259	-0.006961823	-0.004434586	-0.616699219	0.051025391	0.801025391	877.98	-37.62516992	-76.96189545	-140.224036	-59
15555	0	0.380737305	-0.054260254	0.07232666	0.999999046	-0.000770569	-0.00020504	2.67E-05	9.518432617	-1.356506348	1.808166504	-0.038528446	-0.010252	0.001335144	-0.614257813	0.046630859	0.798339844	877.92	-37.73565123	-76.98208037	-140.2009211	-60
15556	0	0.382228851	-0.057141304	0.073301315	0.999999046	-0.00042057	-0.000167847	-1.62E-05	9.555721283	-1.4285326	1.832532883	-0.021028519	-0.008392334	-0.000810623	-0.616455078	0.046630859	0.795654297	877.98	-37.77816701	-77.00169257	-140.205793	-60
15557	0	0.382629395	-0.05657959	0.071960449	0.999999046	0.000282288	-0.000155449	-3.43E-05	9.565734863	-1.414489746	1.79901123	0.01411438	-0.007772446	-0.001716614	-0.614257813	0.046630859	0.798339844	877.98	-37.72942058	-77.0213204	-140.22156	-59
15558	0	0.38332653	-0.056573868	0.072421074	0.999999046	0.000705719	-8.39E-05	0.000124931	9.583163261	-1.414346695	1.810526848	0.035285953	-0.004196167	0.006246567	-0.614257813	0.046630859	0.798339844	877.98	-37.67307882	-77.02314748	-140.1973627	-59
15559	0	0.383972168	-0.056030273	0.070678711	0.999999046	0.001026154	5.82E-05	6.10E-05	9.599304199	-1.400756836	1.766967773	0.051307687	0.002908707	0.003051758	-0.614257813	0.046630859	0.798339844	877.94	-37.51200575	-77.01649633	-140.2456225	-59
15560	0	0.383285522	-0.05215168	0.069303513	0.999999046	0.000731468	0.000236511	0.000239372	9.582138062	-1.303792	1.732587814	0.036573414	0.011825563	0.011968614	-0.616699219	0.048828125	0.798339844	877.94	-37.40108103	-76.98130082	-140.2758567	-60
15561	0	0.38092041	-0.050720215	0.069580078	0.999999046	0.0001297	8.11E-05	0.000205994	9.523010254	-1.268005371	1.739501953	0.006484985	0.004053116	0.010299683	-0.616455078	0.051025391	0.789550781	877.88	-37.39251136	-76.96272203	-140.2686342	-60
15562	0	0.384793282	-0.052509308	0.068311691	0.999999046	-0.000431061	9.92E-05	0.00014782	9.619832039	-1.312732697	1.707792282	-0.02155304	0.004959107	0.007390976	-0.616699219	0.051025391	0.801025391	877.92	-37.41997104	-76.94673297	-140.2888268	-60
15563	0	0.383239746	-0.054138184	0.071166992	0.999999046	-0.000991821	0.000164986	-0.000362396	9.580993652	-1.35345459	1.779174805	-0.049591074	0.008249284	-0.018119815	-0.616699219	0.051025391	0.801025391	877.94	-37.29143969	-76.96023125	-140.5311724	-60
15564	0	0.381117821	-0.052662849	0.072041512	0.999999046	-0.000411034	5.34E-05	-0.000206947	9.527945518	-1.316571236	1.801037788	-0.020551682	0.002670288	-0.010347367	-0.616455078	0.048828125	0.792480469	877.92	-37.19028911	-76.97298854	-140.6798044	-59
15565	0	0.383789063	-0.055969238	0.069396973	0.999999046	-0.000461578	1.62E-05	0.000305176	9.594726563	-1.399230957	1.734924316	-0.02307892	0.000810623	0.01525879	-0.616455078	0.046630859	0.795654297	877.94	-37.30852055	-76.95362742	-140.6124192	-60
15566	0	0.382347107	-0.057490349	0.072284698	0.999999046	-2.29E-05	0.000139236	6.48E-05	9.558677673	-1.43725872	1.807117462	-0.001144409	0.006961823	0.003242493	-0.614257813	0.046630859	0.801269531	877.92	-37.24548337	-76.93956116	-140.6784347	-59
15567	0	0.382751465	-0.056030273	0.071655273	0.999999046	1.91E-05	4.67E-05	0.000167847	9.568786621	-1.400756836	1.791381836	0.000953674	0.002336502	0.008392334	-0.618896484	0.046875	0.798583984	877.98	-37.24615396	-76.92670157	-140.6752748	-60
15568	0	0.381016731	-0.055179596	0.072912216	0.999999046	0.000409126	0.000116348	0.000377655	9.525418282	-1.379489899	1.822805405	0.020456315	0.005817414	0.018882752	-0.62109375	0.044677734	0.798828125	877.92	-37.2635587	-76.89280353	-140.6157831	-59
15569	0	0.382995605	-0.053649902	0.073120117	0.999999046	0.000915527	-0.000166893	0.000400543	9.574890137	-1.341247559	1.82800293	0.045776375	-0.008344652	0.020027164	-0.616699219	0.048828125	0.798339844	878	-37.31575455	-76.88310602	-140.4550906	-60
15570	0	0.383342743	-0.052545547	0.071011543	0.999999046	0.000665665	-0.000104904	0.000220299	9.583568573	-1.313638687	1.775288582	0.033283236	-0.005245209	0.011014939	-0.618896484	0.046875	0.801513672	877.94	-37.3071998	-76.88033788	-140.3929612	-59
15571	0	0.383544922	-0.052429199	0.0703125	0.999999046	-0.000175476	-0.000170708	0.000190735	9.588623047	-1.31072998	1.7578125	-0.008773804	-0.008535385	0.009536743	-0.619140625	0.051269531	0.801025391	877.98	-37.40294949	-76.88575483	-140.3134454	-60
15572	0	0.383792877	-0.052967072	0.071748734	0.999999046	-0.000536919	-0.000183105	0.000225067	9.59482193	-1.324176788	1.793718338	-0.026845934	-0.009155274	0.011253358	-0.616699219	0.051025391	0.792480469	878	-37.55699466	-76.88991435	-140.2153587	-60
15573	0	0.383422852	-0.056274414	0.07208252	0.999999046	-0.001144409	-0.000166893	0.000171661	9.585571289	-1.406860352	1.802062988	-0.057220472	-0.008344652	0.008583071	-0.614257813	0.048828125	0.801025391	877.98	-37.75525807	-76.89619596	-140.1435567	-60
15574	0	0.383122444	-0.055597305	0.073047638	0.999999046	-0.000776291	-0.000249863	0.000197411	9.578061104	-1.389932632	1.826190948	-0.038814549	-0.012493135	0.00987053	-0.614257813	0.048828125	0.795410156	877.94	-37.94643183	-76.90802368	-140.0338596	-60
15575	0	0.384338379	-0.055541992	0.071594238	0.999999046	8.77E-05	-0.000185966	0.000144958	9.608459473	-1.388549805	1.789855957	0.004386902	-0.009298325	0.007247925	-0.616699219	0.048828125	0.795410156	877.92	-37.99900726	-76.91769629	-139.9662363	-60
15576	0	0.384104729	-0.056617737	0.072619438	0.999999046	-0.000306129	-3.81E-05	-0.000274658	9.602618217	-1.41544342	1.815485954	-0.015306473	-0.001907349	-0.013732911	-0.616699219	0.048828125	0.795410156	877.92	-37.88859234	-76.94348227	-140.1104086	-60
15577	0	0.38104248	-0.057861328	0.070922852	0.999999046	0.000816345	-0.000144005	-5.34E-05	9.526062012	-1.446533203	1.773071289	0.040817265	-0.007200242	-0.002670288	-0.614257813	0.048828125	0.795410156	877.94	-37.76810913	-76.9631079	-140.1348536	-60
15578	0	0.38320446	-0.055752754	0.070536613	0.999999046	0.001033783	-6.87E-05	0.000163078	9.580111504	-1.393818855	1.763415337	0.051689157	-0.003433228	0.008153917	-0.614257813	0.048828125	0.798095703	877.88	-37.68465346	-76.96069	-140.0995335	-59
15579	0	0.3828125	-0.055358887	0.070068359	0.999999046	0.000793457	-1.43E-05	7.25E-05	9.5703125	-1.383972168	1.751708984	0.039672856	-0.000715256	0.003623963	-0.614257813	0.051025391	0.792236328	877.94	-37.57706509	-76.95970847	-140.1153943	-60
15580	0	0.381463051	-0.054387093	0.070875168	0.999999046	0.000613213	-0.00025177	0.000320435	9.536576271	-1.359677315	1.771879196	0.030660632	-0.012588502	0.01602173	-0.614501953	0.053222656	0.80078125	877.88	-37.65901617	-76.96293603	-139.9556984	-60
15581	0	0.3828125	-0.054138184	0.0703125	0.999999046	0.000411987	-0.000369072	0.000247955	9.5703125	-1.35345459	1.7578125	0.020599366	-0.018453599	0.012397767	-0.614501953	0.055419922	0.797607422	878	-37.77131602	-76.98186241	-139.7859398	-59
15582	0	0.383508682	-0.054759026	0.070439339	0.999999046	3.81E-06	-0.000366211	0.00038147	9.587717056	-1.368975639	1.760983467	0.000190735	-0.018310548	0.019073487	-0.612060547	0.053222656	0.797607422	877.94	-37.9821947	-76.99103237	-139.5685407	-59
15583	0	0.382263184	-0.056091309	0.070495605	0.999999046	4.96E-05	-0.000487328	0.000339508	9.55657959	-1.402282715	1.762390137	0.002479553	-0.02436638	0.016975404	-0.614501953	0.053222656	0.803466797	877.98	-38.20914481	-77.01385119	-139.330997	-60
15584	0	0.383086205	-0.055612564	0.069394112	0.999999046	4.77E-06	-0.000377655	0.000389099	9.577155113	-1.390314102	1.734852791	0.000238419	-0.018882752	0.019454957	-0.612304688	0.055419922	0.800292969	878	-38.42765956	-77.02310088	-139.1027763	-59
15585	0	0.383972168	-0.056030273	0.071838379	0.999999046	-4.58E-05	-0.000239372	0.000278473	9.599304199	-1.400756836	1.795959473	-0.002288818	-0.011968613	0.013923645	-0.612304688	0.055419922	0.797607422	878	-38.56615338	-77.02758779	-138.963374	-60
15586	0	0.383242607	-0.056067467	0.071587563	0.999999046	0.000627518	-0.000204086	7.15E-05	9.581065178	-1.401686668	1.789689064	0.031375887	-0.010204316	0.003576279	-0.609863281	0.052978516	0.803222656	878.06	-38.53589262	-77.04355485	-138.9252776	-59
15587	0	0.382263184	-0.053344727	0.068969727	0.999999046	0.000621796	-0.00014019	0.000110626	9.55657959	-1.333618164	1.724243164	0.031089785	-0.007009507	0.005531311	-0.612304688	0.055419922	0.803222656	877.98	-38.50142362	-77.05110231	-138.8895289	-59
15588	0	0.382575035	-0.055906296	0.070212364	0.999999046	0.000275612	-0.000175476	0.000255585	9.564375877	-1.397657394	1.755309105	0.013780594	-0.008773804	0.012779236	-0.612304688	0.055419922	0.797607422	877.92	-38.57412634	-77.05141016	-138.7863002	-59
15589	0	0.384887695	-0.054931641	0.067932129	0.999999046	0	-5.63E-05	-1.53E-05	9.622192383	-1.373291016	1.698303223	0	-0.002813339	-0.000762939	-0.610107422	0.059570313	0.802734375	877.92	-38.5360165	-77.06050515	-138.8177368	-59
15590	0	0.381845474	-0.056201935	0.071367264	0.999999046	-0.000339508	-0.00015831	-1.53E-05	9.546136856	-1.40504837	1.784181595	-0.016975403	-0.007915497	-0.000762939	-0.612304688	0.057617188	0.800292969	877.86	-38.56838674	-77.07861823	-138.8211159	-59
15591	0	0.381713867	-0.056884766	0.069030762	0.999999046	-4.20E-05	-0.000144005	8.01E-05	9.54284668	-1.422119141	1.725769043	-0.002098084	-0.007200241	0.004005432	-0.610107422	0.057373047	0.800048828	877.94	-38.59985174	-77.08858695	-138.7903169	-59
15592	0	0.383128166	-0.056708336	0.069890976	0.999999046	-0.000180244	-6.10E-05	1.53E-05	9.578204155	-1.417708397	1.747274399	-0.009012222	-0.003051758	0.000762939	-0.612060547	0.053222656	0.800537109	877.98	-38.596099	-77.09567248	-138.8222615	-59
15593	0	0.382324219	-0.055908203	0.070373535	0.999999046	0.000286102	9.63E-05	4.20E-05	9.558105469	-1.397705078	1.759338379	0.014305115	0.004816055	0.002098084	-0.609863281	0.055175781	0.800292969	877.98	-38.50026918	-77.08668883	-138.8888461	-60
15594	0	0.383099556	-0.055412292	0.069928169	0.999999046	3.24E-05	3.81E-05	9.82E-05	9.577488899	-1.385307312	1.748204231	0.001621246	0.001907349	0.004911423	-0.609863281	0.055175781	0.803222656	877.82	-38.47364556	-77.07887655	-138.9142868	-59
15595	0	0.381347656	-0.055664063	0.069335938	0.999999046	-0.000392914	-6.77E-05	0.000347137	9.533691406	-1.391601563	1.733398438	-0.019645692	-0.003385544	0.017356873	-0.610107422	0.057373047	0.800048828	877.92	-38.62598379	-77.0627746	-138.7997898	-59
15596	0	0.383575439	-0.057022095	0.068627357	0.999999046	-4.10E-05	-3.24E-05	0.000449181	9.589385986	-1.425552368	1.715683937	-0.0020504	-0.001621246	0.022459031	-0.612304688	0.055419922	0.803222656	877.98	-38.76669961	-77.03612326	-138.6628645	-59
15597	0	0.38269043	-0.056518555	0.070495605	0.999999046	0.000133514	9.63E-05	0.000320435	9.567260742	-1.412963867	1.762390137	0.00667572	0.004816055	0.016021729	-0.612304688	0.057617188	0.800292969	878	-38.79693346	-77.00711185	-138.6142665	-59
15598	0	0.382763863	-0.054121017	0.070277214	0.999999046	0.000154495	2.67E-05	0.000377655	9.569096565	-1.353025436	1.756930351	0.007724762	0.001335144	0.018882752	-0.610107422	0.057373047	0.800048828	878.04	-38.86786113	-76.98022597	-138.5228968	-59
15599	0	0.382873535	-0.055419922	0.069458008	0.999999046	-0.000392914	0.000107765	0.000358582	9.571838379	-1.385498047	1.736450195	-0.019645692	0.00538826	0.017929078	-0.610107422	0.059570313	0.797119141	877.98	-38.96851361	-76.94750624	-138.4587388	-59
15600	0	0.381537437	-0.054954529	0.069190979	0.999999046	-0.00061512	-4.20E-05	0.000430107	9.538435936	-1.37386322	1.729774475	-0.030756	-0.002098084	0.021505358	-0.614746094	0.057617188	0.800292969	878.06	-39.16795125	-76.92295191	-138.3250769	-59
15601	0	0.382568359	-0.057067871	0.070495605	0.999999046	-0.000804901	-1.81E-05	0.000526428	9.564208984	-1.426696777	1.762390137	-0.040245062	-0.000905991	0.026321415	-0.612060547	0.055175781	0.794677734	878.06	-39.41764655	-76.88912209	-138.1659623	-58
15602	0	0.385928154	-0.057217598	0.067642212	0.999999046	-0.000989914	-1.14E-05	9.92E-05	9.64820385	-1.430439949	1.691055298	-0.049495705	-0.000572205	0.004959107	-0.614746094	0.057617188	0.803222656	877.94	-39.52388768	-76.88585178	-138.1656252	-59
15603	0	0.38269043	-0.058410645	0.068908691	0.999999046	-0.000808716	-1.43E-05	9.92E-05	9.567260742	-1.460266113	1.722717285	-0.040435795	-0.000715256	0.004959107	-0.612304688	0.055419922	0.803222656	877.92	-39.61053159	-76.88282116	-138.1659019	-59
15604	0	0.381216049	-0.058415413	0.069168091	0.999999046	-0.000605583	2.48E-05	0.000209808	9.53040123	-1.460385323	1.729202271	-0.030279162	0.001239777	0.010490418	-0.612304688	0.055419922	0.797607422	877.94	-39.70370367	-76.86821797	-138.1337791	-59
15605	0	0.383422852	-0.060546875	0.069458008	0.999999046	-7.63E-05	9.54E-07	0.00018692	9.585571289	-1.513671875	1.736450195	-0.003814697	4.77E-05	0.009346008	-0.609863281	0.052978516	0.803222656	878	-39.73545235	-76.85728723	-138.1082593	-59
15606	0	0.382302284	-0.057771683	0.070363998	0.999999046	0.000511169	0.000104904	3.81E-05	9.557557106	-1.444292068	1.75909996	0.025558473	0.005245209	0.001907349	-0.612060547	0.053222656	0.800537109	877.98	-39.61100098	-76.84803187	-138.1765427	-59
15607	0	0.382995605	-0.057189941	0.068908691	0.999999046	-1.53E-05	0.00011158	0.000225067	9.574890137	-1.429748535	1.722717285	-0.000762939	0.005578995	0.011253357	-0.614501953	0.053222656	0.80078125	877.98	-39.61546753	-76.82456225	-138.1757296	-59
15608	0	0.3814888	-0.058463097	0.07008934	0.999999046	-0.000348091	-7.63E-05	0.000201225	9.537220001	-1.461577415	1.752233505	-0.017404557	-0.003814697	0.010061264	-0.612304688	0.055419922	0.800292969	877.98	-39.70778773	-76.81937831	-138.1155084	-59
15609	0	0.382629395	-0.057495117	0.068664551	0.999999046	4.20E-05	-1.81E-05	0.000324249	9.565734863	-1.43737793	1.71661377	0.002098084	-0.000905991	0.016212464	-0.612060547	0.053222656	0.800537109	877.98	-39.78342596	-76.80007645	-138.0340228	-59
15610	0	0.383569717	-0.058653831	0.068959236	0.999999046	-0.000453949	1.91E-05	0.000118256	9.589242935	-1.466345787	1.723980904	-0.02269745	0.000953674	0.005912781	-0.612060547	0.053222656	0.800537109	877.94	-39.82700895	-76.79261971	-138.0418228	-59
15611	0	0.382385254	-0.058288574	0.069885254	0.999999046	-0.000213623	5.44E-05	0.000148773	9.559631348	-1.457214355	1.747131348	-0.010681152	0.002717972	0.00743866	-0.612304688	0.055419922	0.797607422	877.94	-39.8434569	-76.77981972	-138.0422879	-59
15612	0	0.384129524	-0.058860779	0.069900513	0.999999046	0.0001688	8.58E-05	-1.14E-05	9.603238106	-1.47151947	1.747512817	0.008440018	0.004291534	-0.000572205	-0.614501953	0.055419922	0.797607422	877.92	-39.74632462	-76.77598838	-138.1160041	-59
15613	0	0.381958008	-0.057189941	0.069091797	0.999999046	0.000209808	8.49E-05	-9.92E-05	9.548950195	-1.429748535	1.727294922	0.010490418	0.004243851	-0.004959106	-0.614501953	0.055419922	0.797607422	877.88	-39.61181521	-76.77867846	-138.2237441	-59
15614	0	0.381468773	-0.056474686	0.069788933	0.999999046	-0.000349045	-6.87E-05	0.00020504	9.536719322	-1.411867142	1.74472332	-0.01745224	-0.003433228	0.010251999	-0.612304688	0.055419922	0.803222656	877.88	-39.70310288	-76.77270384	-138.162939	-59
15615	0	0.385498047	-0.05847168	0.068115234	0.999999046	-0.000907898	1.24E-05	0.000118256	9.637451172	-1.461791992	1.702880859	-0.045394904	0.000619888	0.005912782	-0.614501953	0.053222656	0.797851563	877.88	-39.80089554	-76.76601089	-138.1653082	-59
15616	0	0.38188076	-0.059791565	0.071677208	0.999999046	-0.001063347	0.000110626	-0.000415802	9.547019005	-1.494789124	1.791930199	-0.053167355	0.005531312	-0.020790105	-0.611816406	0.048828125	0.798095703	877.94	-39.6855745	-76.78964496	-138.4100781	-59
15617	0	0.380981445	-0.060180664	0.071411133	0.999999046	1.91E-05	3.53E-05	-8.01E-05	9.524536133	-1.504516602	1.78527832	0.000953674	0.001764297	-0.004005432	-0.611816406	0.048828125	0.798095703	877.94	-39.59560598	-76.79513586	-138.500826	-59
15618	0	0.383365631	-0.0589571	0.070034981	0.999999046	-2.86E-05	0.000101089	2.96E-05	9.584140778	-1.473927498	1.750874519	-0.001430511	0.005054474	0.001478195	-0.612060547	0.051025391	0.80078125	877.98	-39.5320761	-76.78676986	-138.5626753	-59
15619	0	0.38269043	-0.059875488	0.070495605	0.999999046	0.00038147	0.000267982	0.000106812	9.567260742	-1.496887207	1.762390137	0.019073487	0.013399125	0.005340576	-0.614257813	0.048828125	0.801025391	878	-39.39929512	-76.75788724	-138.657161	-59
15620	0	0.382762909	-0.058135033	0.069461823	0.999999046	0.000302315	0.000127792	1.14E-05	9.569072723	-1.453375816	1.736545563	0.015115738	0.006389618	0.000572205	-0.614501953	0.051025391	0.80078125	878.04	-39.28350648	-76.7483549	-138.7378834	-59
15621	0	0.381591797	-0.056884766	0.068969727	0.999999046	-3.43E-05	-6.39E-05	0.000282288	9.539794922	-1.422119141	1.724243164	-0.001716614	-0.003194809	0.01411438	-0.616699219	0.048828125	0.798339844	877.98	-39.3673561	-76.73620247	-138.6620213	-59
15622	0	0.382788658	-0.057594299	0.070929527	0.999999046	0.000169754	-0.000143051	0.000285149	9.569716454	-1.439857483	1.773238182	0.008487702	-0.007152558	0.014257431	-0.614257813	0.048828125	0.801025391	878	-39.45302721	-76.73081685	-138.5605201	-59
15623	0	0.382873535	-0.057800293	0.069885254	0.999999046	-7.63E-05	-4.10E-05	-3.81E-06	9.571838379	-1.445007324	1.747131348	-0.003814697	-0.0020504	-0.000190735	-0.614257813	0.051025391	0.798095703	878.04	-39.42694577	-76.73747158	-138.5952305	-59
15624	0	0.381658554	-0.059639931	0.070453644	0.999999046	-0.000277519	-0.000123978	0.000128746	9.541463852	-1.490998268	1.761341095	-0.013875962	-0.006198883	0.006437302	-0.612060547	0.05078125	0.794921875	877.94	-39.49959596	-76.74175006	-138.5511406	-59
15625	0	0.383117676	-0.059448242	0.069152832	0.999999046	8.77E-05	-4.48E-05	0.000354767	9.577941895	-1.486206055	1.728820801	0.004386902	-0.002241135	0.017738343	-0.616699219	0.053222656	0.795166016	877.98	-39.59100072	-76.72254623	-138.4407569	-59
15626	0	0.382899284	-0.058732033	0.07016468	0.999999046	4.96E-05	0.000131607	0.000189781	9.572482109	-1.468300819	1.754117012	0.002479553	0.006580353	0.00948906	-0.614501953	0.053222656	0.80078125	877.92	-39.57038488	-76.69978907	-138.4492721	-59
15627	0	0.380859375	-0.057250977	0.070129395	0.999999046	0.000247955	0.00024128	0.000236511	9.521484375	-1.431274414	1.753234863	0.012397766	0.01206398	0.011825562	-0.614257813	0.051025391	0.795166016	877.98	-39.5105605	-76.66393893	-138.4841655	-59
15628	0	0.382386208	-0.055383682	0.0695467	0.999999046	-0.00014019	0.000190735	0.000174522	9.55965519	-1.384592056	1.738667488	-0.007009506	0.009536743	0.00872612	-0.614501953	0.053222656	0.80078125	878	-39.48744407	-76.637231	-138.5189089	-60
15629	0	0.383483887	-0.059326172	0.069885254	0.999999046	-0.000823975	9.63E-05	0.000358582	9.587097168	-1.483154297	1.747131348	-0.041198736	0.004816056	0.01792908	-0.614501953	0.053222656	0.80078125	877.88	-39.64025916	-76.60546708	-138.4502762	-59
15630	0	0.385136604	-0.059718132	0.069616318	0.999998093	-0.001460075	0.000264168	-0.00019455	9.628415108	-1.4929533	1.740407944	-0.073003796	0.013208394	-0.009727482	-0.614501953	0.051025391	0.80078125	877.94	-39.6096	-76.59935122	-138.643639	-59
15631	0	0.379699707	-0.058959961	0.072875977	0.999999046	-0.00082016	0.000214577	-0.000137329	9.492492676	-1.473999023	1.821899414	-0.041008001	0.010728837	-0.006866456	-0.616699219	0.048828125	0.801269531	877.92	-39.54183423	-76.59327303	-138.8028954	-59
15632	0	0.381882668	-0.061048508	0.071657181	0.999999046	-0.00048542	6.68E-05	0.000151634	9.547066689	-1.526212692	1.79142952	-0.024271012	0.00333786	0.007581711	-0.616455078	0.046630859	0.798583984	877.92	-39.58838736	-76.57903729	-138.8106157	-59
15633	0	0.38269043	-0.061523438	0.0703125	0.999999046	0.000507355	0.000138283	-7.25E-05	9.567260742	-1.538085938	1.7578125	0.025367738	0.006914139	-0.003623963	-0.616455078	0.046630859	0.798583984	878	-39.41689889	-76.57475643	-138.927575	-60
15634	0	0.38060379	-0.0581007	0.071574211	0.999999046	0.001062393	0.000125885	0.000141144	9.515094757	-1.452517509	1.789355278	0.05311967	0.006294252	0.007057191	-0.616455078	0.046630859	0.795654297	877.98	-39.26474849	-76.55595486	-138.9654493	-59
15635	0	0.382568359	-0.058532715	0.069213867	0.999999046	0.000427246	0.000157356	0.000205994	9.564208984	-1.463317871	1.73034668	0.021362306	0.007867813	0.010299683	-0.614257813	0.048828125	0.795410156	877.92	-39.20038305	-76.52975519	-138.9819657	-59
15636	0	0.380935669	-0.05685997	0.070723534	0.999999046	-0.000184059	-9.54E-05	0.00012207	9.523391724	-1.421499252	1.768088341	-0.009202957	-0.004768372	0.006103516	-0.616699219	0.048828125	0.798339844	878	-39.2512275	-76.53214921	-138.9522051	-59
15637	0	0.382507324	-0.058776855	0.071472168	0.999999046	-0.000263214	-0.00032711	0.000343323	9.562683105	-1.469421387	1.786804199	-0.013160706	-0.016355515	0.017166139	-0.616699219	0.048828125	0.801269531	878	-39.46339158	-76.53898516	-138.7655854	-59
15638	0	0.383612633	-0.058896065	0.072165489	0.999999046	7.82E-05	-0.000135422	4.86E-05	9.590315819	-1.472401619	1.80413723	0.003910065	-0.006771088	0.00243187	-0.616699219	0.051025391	0.798095703	877.98	-39.46915715	-76.55023865	-138.7442505	-59
15639	0	0.381347656	-0.058959961	0.071044922	0.999999046	-0.000137329	-0.00020504	2.67E-05	9.533691406	-1.473999023	1.776123047	-0.006866455	-0.010251999	0.001335144	-0.616699219	0.048828125	0.798339844	877.98	-39.51276703	-76.56922664	-138.716301	-59
15640	0	0.382777214	-0.062357903	0.072395325	0.999999046	-0.000182152	-0.000261307	8.77E-05	9.569430351	-1.558947563	1.809883118	-0.00910759	-0.013065338	0.004386902	-0.616699219	0.048828125	0.801269531	878	-39.60185792	-76.58856625	-138.6458826	-59
15641	0	0.382751465	-0.061340332	0.072387695	0.999999046	-8.01E-05	-4.86E-05	5.72E-05	9.568786621	-1.533508301	1.809692383	-0.004005432	-0.00243187	0.002861023	-0.614501953	0.051025391	0.80078125	878	-39.60312385	-76.59123218	-138.6447078	-59
15642	0	0.383849144	-0.060846329	0.070019722	0.999999046	0.000249863	2.10E-05	-3.15E-05	9.5962286	-1.521158218	1.75049305	0.012493134	0.001049042	-0.001573563	-0.611816406	0.046630859	0.798339844	877.92	-39.51276925	-76.59418775	-138.7140991	-59
15643	0	0.382263184	-0.060791016	0.072387695	0.999999046	0.001033783	6.96E-05	-3.05E-05	9.55657959	-1.519775391	1.809692383	0.051689157	0.003480912	-0.001525879	-0.616699219	0.048828125	0.801269531	877.88	-39.31814499	-76.59261705	-138.7979499	-59
15644	0	0.381585121	-0.056779861	0.069200516	0.999999046	0.001158714	4.96E-05	0.000110626	9.539628029	-1.419496536	1.730012894	0.057935728	0.002479554	0.005531312	-0.614257813	0.048828125	0.795410156	877.94	-39.16776508	-76.58266249	-138.8272632	-59
15645	0	0.3828125	-0.05859375	0.0703125	0.999999046	0.00038147	5.82E-05	0.000228882	9.5703125	-1.46484375	1.7578125	0.019073487	0.002908707	0.011444092	-0.616943359	0.055419922	0.794921875	877.86	-39.14811886	-76.5634637	-138.794557	-60
15646	0	0.383813858	-0.060180664	0.070951462	0.999999046	-9.54E-06	-9.35E-05	-0.00018692	9.595346451	-1.504516602	1.773786545	-0.000476837	-0.004673004	-0.009346008	-0.616943359	0.053222656	0.80078125	877.98	-39.06467837	-76.58778689	-138.8799729	-59
15647	0	0.38079834	-0.057983398	0.071228027	0.999999046	0.000469208	-0.000144005	-0.000213623	9.519958496	-1.449584961	1.780700684	0.023460389	-0.007200241	-0.010681153	-0.614501953	0.053222656	0.803466797	877.94	-38.93124498	-76.61850324	-138.9605232	-59
15648	0	0.381453514	-0.057082176	0.072025299	0.999999046	0.000130653	-0.000247955	0.000125885	9.536337852	-1.427054405	1.800632477	0.006532669	-0.012397766	0.006294251	-0.616699219	0.053222656	0.797851563	877.98	-38.99481835	-76.63399826	-138.8811567	-59
15649	0	0.383483887	-0.060058594	0.07220459	0.999999046	0.000385284	-0.000285149	-7.25E-05	9.587097168	-1.501464844	1.805114746	0.019264222	-0.014257432	-0.003623963	-0.614501953	0.051025391	0.80078125	877.94	-38.96638206	-76.66699988	-138.8745685	-59
15650	0	0.382190704	-0.057384491	0.072823524	0.999999046	0.000579834	-0.000259399	-4.67E-05	9.554767609	-1.434612274	1.820588112	0.028991701	-0.012969972	-0.002336502	-0.616943359	0.055419922	0.800537109	877.94	-38.91710334	-76.69582386	-138.8549943	-59
15651	0	0.382446289	-0.058227539	0.071899414	0.999999046	0.000137329	-0.000224113	0.000106812	9.561157227	-1.455688477	1.797485352	0.006866455	-0.011205673	0.005340576	-0.614746094	0.055419922	0.803466797	877.94	-38.96564438	-76.71039804	-138.7869632	-59
15652	0	0.382709503	-0.058472633	0.072048187	0.999999046	0.000361443	-0.000169754	-2.77E-05	9.567737579	-1.461815834	1.801204681	0.018072129	-0.008487702	-0.001382828	-0.614501953	0.055419922	0.794677734	877.94	-38.92116434	-76.72974617	-138.7901368	-59
15653	0	0.3828125	-0.057983398	0.071655273	0.999999046	0.00030899	-0.000304222	3.81E-06	9.5703125	-1.449584961	1.791381836	0.015449524	-0.015211106	0.000190735	-0.614746094	0.057617188	0.797363281	878	-38.93561706	-76.75879179	-138.7328662	-58
15654	0	0.382610321	-0.057699203	0.069625854	0.999999046	0.000501633	-0.000181198	-0.000100136	9.565258026	-1.442480087	1.740646362	0.025081636	-0.009059906	-0.00500679	-0.612304688	0.057617188	0.797363281	877.92	-38.85109694	-76.78439357	-138.7557678	-59
15655	0	0.382202148	-0.057373047	0.069702148	0.999999046	0.000244141	-0.000315666	-2.29E-05	9.555053711	-1.434326172	1.742553711	0.012207032	-0.01578331	-0.001144409	-0.612548828	0.059814453	0.800048828	877.98	-38.86670328	-76.81648389	-138.699695	-59
15656	0	0.383165359	-0.059640884	0.07131958	0.999999046	-0.000170708	-0.000415802	0.000205994	9.579133987	-1.49102211	1.782989502	-0.008535385	-0.020790101	0.010299683	-0.609863281	0.055175781	0.797363281	877.86	-39.04842417	-76.84085983	-138.5376144	-59
15657	0	0.382873535	-0.058837891	0.069885254	0.999999046	0.000183105	-0.000250816	5.72E-05	9.571838379	-1.470947266	1.747131348	0.009155274	-0.012540817	0.002861023	-0.612304688	0.057617188	0.797363281	877.92	-39.08271936	-76.86121031	-138.4788475	-59
15658	0	0.382657051	-0.057636261	0.06873703	0.999999046	1.72E-05	-2.48E-05	-6.10E-05	9.566426277	-1.440906525	1.718425751	0.000858307	-0.001239777	-0.003051758	-0.612548828	0.059814453	0.802978516	877.88	-39.02127443	-76.87004911	-138.5294797	-59
15659	0	0.380981445	-0.057250977	0.071350098	0.999999046	-0.000350952	-0.000102043	0.000144958	9.524536133	-1.431274414	1.783752441	-0.017547608	-0.005102158	0.007247925	-0.612304688	0.055419922	0.800292969	877.94	-39.10424458	-76.87079498	-138.4897874	-59
15660	0	0.38317585	-0.056495667	0.069888115	0.999999046	-0.000628471	-5.53E-05	0.000427246	9.579396248	-1.412391663	1.747202873	-0.031423572	-0.002765656	0.021362307	-0.609863281	0.055175781	0.800292969	877.98	-39.3116952	-76.84696282	-138.3524011	-58
15661	0	0.38293457	-0.057189941	0.068664551	0.999999046	-0.001197815	0.000103951	0.000396729	9.573364258	-1.429748535	1.71661377	-0.059890763	0.005197526	0.019836431	-0.614746094	0.057617188	0.800292969	877.98	-39.52273915	-76.81122756	-138.2663413	-58
15662	0	0.384703636	-0.060101509	0.068721771	0.999998093	-0.001549721	-4.48E-05	0.000208855	9.617590904	-1.502537727	1.718044281	-0.07748607	-0.002241136	0.010442738	-0.612060547	0.053222656	0.800537109	877.98	-39.74957779	-76.80228624	-138.212041	-58
15663	0	0.380981445	-0.059631348	0.07019043	0.999999046	-0.001125336	-3.72E-05	0.000102997	9.524536133	-1.490783691	1.754760742	-0.056266797	-0.001859665	0.005149842	-0.612060547	0.051025391	0.806396484	877.98	-39.88565351	-76.80032667	-138.2023072	-59
15664	0	0.382011414	-0.060900688	0.067704201	0.999999046	-0.000697136	-2.10E-05	0.000339508	9.550285339	-1.522517204	1.692605019	-0.0348568	-0.001049042	0.016975405	-0.614501953	0.051025391	0.803710938	877.92	-40.05669891	-76.77952407	-138.1050556	-59
15665	0	0.383361816	-0.060913086	0.070861816	0.999999046	-0.000358582	3.53E-05	0.000370026	9.58404541	-1.522827148	1.77154541	-0.017929078	0.001764298	0.018501283	-0.612060547	0.048828125	0.801025391	877.94	-40.18234272	-76.75136434	-138.0209192	-59
15666	0	0.380688667	-0.059108734	0.068953514	0.999999046	-3.05E-05	0.000108719	0.000362396	9.517216682	-1.477718353	1.723837852	-0.001525879	0.005435944	0.018119812	-0.612060547	0.051025391	0.803710938	878.04	-40.24414149	-76.71732944	-137.9564281	-59
15667	0	0.383728027	-0.059570313	0.068725586	0.999999046	-0.000255585	-9.06E-05	0.00043869	9.593200684	-1.489257813	1.718139648	-0.012779236	-0.004529953	0.02193451	-0.614501953	0.051025391	0.803710938	877.94	-40.42217679	-76.69506474	-137.8007489	-59
15668	0	0.381491661	-0.059514999	0.070943832	0.999999046	-0.000342369	7.63E-06	0.00038147	9.537291527	-1.487874985	1.77359581	-0.017118455	0.00038147	0.019073487	-0.614501953	0.048828125	0.806884766	877.86	-40.55736407	-76.6683344	-137.7065485	-59
15669	0	0.382141113	-0.059814453	0.068725586	0.999999046	-0.000152588	-4.10E-05	0.000335693	9.553527832	-1.495361328	1.718139648	-0.007629395	-0.0020504	0.016784668	-0.612060547	0.048828125	0.801025391	877.98	-40.66894434	-76.64924057	-137.6137223	-59
15670	0	0.382717133	-0.059055328	0.069285393	0.999999046	-0.000461578	9.92E-05	0.000339508	9.567928314	-1.476383209	1.732134819	-0.02307892	0.004959107	0.016975404	-0.612060547	0.051025391	0.803710938	877.94	-40.77268777	-76.61771613	-137.5553447	-59
15671	0	0.382629395	-0.06060791	0.069824219	0.999999046	-0.000259399	-4.86E-05	0.000431061	9.565734863	-1.515197754	1.745605469	-0.012969971	-0.00243187	0.02155304	-0.614501953	0.048828125	0.806884766	877.98	-40.93262419	-76.59209246	-137.4248617	-59
15672	0	0.382338524	-0.062255859	0.068777084	0.999999046	3.34E-05	-0.000101089	0.000151634	9.558463097	-1.556396484	1.719427109	0.00166893	-0.005054474	0.007581711	-0.611816406	0.046630859	0.801025391	877.98	-40.97408983	-76.5919121	-137.389393	-60
15673	0	0.382751465	-0.059753418	0.070373535	0.999999046	0.000423431	-3.72E-05	-6.10E-05	9.568786621	-1.493835449	1.759338379	0.02117157	-0.001859665	-0.003051758	-0.614501953	0.051025391	0.806640625	877.98	-40.87311905	-76.60220089	-137.4409775	-60
15674	0	0.38581562	-0.059952736	0.069478989	0.999999046	0.000738144	6.68E-05	-0.000626564	9.645390511	-1.498818398	1.736974716	0.036907202	0.003337861	-0.031328206	-0.614501953	0.048828125	0.803955078	877.88	-40.49630756	-76.64570929	-137.7484494	-59
15675	0	0.382995605	-0.06072998	0.071716309	0.999998093	0.001225471	-0.000164032	-0.001358032	9.574890137	-1.518249512	1.792907715	0.061273609	-0.008201604	-0.067901649	-0.614501953	0.048828125	0.806884766	877.98	-39.86118807	-76.76279698	-138.2644094	-60
15676	0	0.384902	-0.064472198	0.064180374	0.999979019	0.005659103	4.67E-05	-0.002885818	9.622550011	-1.611804962	1.604509354	0.282957073	0.002336518	-0.144291895	-0.611816406	0.048828125	0.798095703	877.98	-38.05435183	-76.96871534	-139.480021	-60
15677	0	0.386047363	-0.058776855	0.057861328	0.999988556	0.002617836	-0.000423431	-0.003940582	9.651184082	-1.469421387	1.446533203	0.130892292	-0.021171649	-0.197029855	-0.612304688	0.055419922	0.800292969	878.04	-36.26737529	-77.28252236	-141.0043146	-59
15678	0	0.390604019	-0.058731079	0.06242466	0.99998188	-0.004516602	-0.000822067	-0.003734589	9.765100479	-1.468276978	1.560616493	-0.225831396	-0.041103603	-0.186730521	-0.614501953	0.051025391	0.803710938	878.06	-35.43520805	-77.61194496	-142.3600485	-59
15679	0	0.383117676	-0.092651367	0.063903809	0.99997139	-0.006091118	-0.001621246	-0.004127502	9.577941895	-2.31628418	1.597595215	-0.304558774	-0.081063084	-0.206377075	-0.611572266	0.037841797	0.8046875	877.94	-34.80388271	-78.03731912	-143.6872654	-59
15680	0	0.37791729	-0.077622414	0.058117867	0.999982834	-0.000364304	-0.002085686	-0.005372047	9.447932243	-1.940560341	1.452946663	-0.018215281	-0.104284866	-0.268603864	-0.608642578	0.024658203	0.808349609	877.94	-32.99505548	-78.57973875	-145.567727	-59
15681	0	0.388244629	-0.07019043	0.060913086	0.999972343	-0.001991272	-0.002249718	-0.006687164	9.706115723	-1.754760742	1.522827148	-0.09956449	-0.112486893	-0.33436121	-0.605957031	0.013427734	0.809326172	877.98	-30.57655978	-79.20270184	-148.2559104	-59
15682	0	0.382410049	-0.066597939	0.057148933	0.999956131	-0.001879692	-0.003024101	-0.008601189	9.560251236	-1.664948463	1.428723335	-0.093985961	-0.151207247	-0.430065645	-0.600830078	0.002441406	0.809814453	877.92	-26.98159609	-79.98086189	-152.1123481	-60
15683	0	0.379455566	-0.041625977	0.054138184	0.999945641	-0.002552032	-0.002902031	-0.009647369	9.48638916	-1.040649414	1.35345459	-0.127603921	-0.145104159	-0.482377153	-0.597900391	-0.010986328	0.807861328	877.94	-22.15269803	-80.74315299	-157.282364	-60
15684	0	0.360964775	-0.020920753	0.055582047	0.999919891	-0.009647369	-0.001347542	-0.008060455	9.024119377	-0.523018837	1.389551163	-0.482381322	-0.067378886	-0.403033505	-0.592529297	-0.028564453	0.812011719	877.88	-18.1156797	-81.20600594	-162.4351887	-60
15685	0	0.358947754	-0.016601563	0.057312012	0.999959946	-0.004389763	-0.002433777	-0.007369995	8.973693848	-0.415039063	1.432800293	-0.219491053	-0.121690455	-0.368504639	-0.591308594	-0.054931641	0.813964844	877.88	-13.7016538	-81.70534839	-167.3956403	-60
15686	0	0.411981583	0.01885891	0.071989059	0.999945641	-0.006889343	-0.003427505	-0.006964684	10.29953957	0.47147274	1.799726486	-0.344473348	-0.171378351	-0.348240429	-0.586181641	-0.068359375	0.812011719	877.92	-9.467666978	-82.24965437	-172.4359724	-60
15687	0	0.425598145	-0.017883301	0.071472168	0.999843597	-0.015173912	-0.002513885	-0.008693695	10.63995361	-0.44708252	1.786804199	-0.758735079	-0.125700815	-0.434707371	-0.580566406	-0.092529297	0.819335938	877.94	-3.956213778	-82.65076187	-179.6731975	-59
15688	0	0.382915497	-0.025729179	0.068026543	0.999792099	-0.016908646	-0.001170158	-0.011323929	9.572887421	-0.643229485	1.700663567	-0.845490839	-0.058511972	-0.566235658	-0.573974609	-0.130126953	0.813476563	877.98	4.298329183	-82.77801302	170.1351967	-58
15689	0	0.375610352	-0.039367676	0.073669434	0.999773026	-0.016703606	-0.001487732	-0.013130188	9.390258789	-0.984191895	1.84173584	-0.835243439	-0.074392222	-0.656559044	-0.569824219	-0.172119141	0.808105469	878	14.2785491	-82.69835931	158.2245953	-58
15690	0	0.402180672	-0.049993515	0.083981514	0.999817848	-0.012109756	-0.002622604	-0.014496803	10.05451679	-1.249837875	2.099537849	-0.60552453	-0.131138168	-0.724884107	-0.565673828	-0.211669922	0.802734375	877.98	25.61936616	-82.40740608	145.4492567	-57
15691	0	0.389404297	-0.042053223	0.088500977	0.999855995	-0.00819397	-0.003317833	-0.014438629	9.735107422	-1.051330566	2.212524414	-0.40971806	-0.165899573	-0.721965949	-0.557373047	-0.244873047	0.804931641	877.94	36.33617123	-81.87503479	133.7318611	-60
15692	0	0.373931885	-0.034152031	0.091796875	0.999904633	-0.00551033	-0.003891945	-0.012002945	9.348297119	-0.853800774	2.294921875	-0.275525216	-0.194603393	-0.600166212	-0.549072266	-0.271484375	0.803955078	877.98	44.66819188	-81.31698287	124.6992299	-64
15693	0	0.393127441	-0.031921387	0.086853027	0.999954224	-0.002913475	-0.003494263	-0.008365631	9.828186035	-0.798034668	2.171325684	-0.145675954	-0.174715775	-0.418287877	-0.543701172	-0.287109375	0.802001953	877.98	50.25296692	-80.88145033	118.7246401	-61
15694	0	0.37742424	-0.021006584	0.087435722	0.999978065	-0.003810883	-0.002567291	-0.004645348	9.435606003	-0.525164604	2.185893059	-0.190545484	-0.128365476	-0.232269032	-0.541015625	-0.295898438	0.799804688	878	53.14182735	-80.64889148	115.3791492	-60
15695	0	0.377441406	-0.032714844	0.08996582	0.999988556	-0.003878593	-0.001667023	-0.002243042	9.436035156	-0.817871094	2.249145508	-0.193930411	-0.083351453	-0.112152527	-0.543212891	-0.302490234	0.803222656	878	54.40076252	-80.55976132	113.696033	-64
15696	0	0.391090393	-0.035997391	0.08972168	0.999990463	-0.004077911	-0.000849724	-0.000863075	9.777259827	-0.899934769	2.243041992	-0.203896184	-0.042486319	-0.043153893	-0.550048828	-0.304443359	0.803710938	877.92	54.585564	-80.54341187	113.1158184	-60
15697	0	0.404846191	-0.047790527	0.097412109	0.999998093	-0.001059532	-0.000831604	-0.00063324	10.12115479	-1.194763184	2.435302734	-0.052976628	-0.041580216	-0.031661999	-0.556884766	-0.306396484	0.798583984	877.94	54.98540612	-80.54909666	112.6681209	-66
15698	0	0.43050766	-0.037016869	0.097593307	0.999999046	0.000156403	-0.0004673	0.000689507	10.7626915	-0.925421715	2.439832687	0.00782013	-0.023365024	0.034475331	-0.569091797	-0.297363281	0.795654297	878	54.76792919	-80.6564214	113.0400841	-63
15699	0	0.42010498	-0.027160645	0.090026855	0.999991417	-0.002811432	0.000874519	0.002601624	10.50262451	-0.679016113	2.250671387	-0.140571956	0.04372608	0.130081511	-0.583496094	-0.288085938	0.795654297	878.04	52.61221083	-80.84987678	115.1219826	-64
15700	0	0.388469696	-0.025172234	0.079278946	0.999974251	-0.001494408	0.003828049	0.005857468	9.711742401	-0.62930584	1.981973648	-0.07472102	0.191404069	0.292875882	-0.602783203	-0.276367188	0.795654297	877.9	47.32538529	-81.0928628	120.6040809	-62
15701	0	0.358032227	-0.023864746	0.069641113	0.999918938	0.003845215	0.00615406	0.010406494	8.950805664	-0.596618652	1.741027832	0.1922659	0.307711273	0.520338666	-0.629394531	-0.251464844	0.783691406	877.92	38.65546524	-81.39688493	130.1484493	-63
15702	0	0.383644104	-0.007052422	0.053212166	0.999774933	0.010264397	0.008910179	0.016244888	9.5911026	-0.176310539	1.330304146	0.513258217	0.445542276	0.812305163	-0.656982422	-0.208984375	0.773193359	877.94	25.35359254	-81.51465972	145.0790547	-58
15703	0	0.425476074	0.002807617	0.036682129	0.999677658	0.009533882	0.01064682	0.020950317	10.63690186	0.07019043	0.917053223	0.476745221	0.532398084	1.047628189	-0.689697266	-0.148681641	0.761230469	877.92	8.789797805	-81.03113837	163.1601383	-57
15704	0	0.445806503	-0.003206253	0.035938263	0.999609947	0.008559227	0.011325836	0.024035454	11.14516258	-0.080156326	0.898456573	0.42801695	0.566365381	1.201928822	-0.718261719	-0.077636719	0.737060547	877.98	-6.901461364	-79.73795146	-179.8194439	-57
15705	0	0.439331055	-0.012695313	0.039428711	0.999560356	0.009868622	0.01038456	0.025924683	10.98327637	-0.317382813	0.985717773	0.493503269	0.519303933	1.296423741	-0.741455078	-0.011230469	0.701416016	877.94	-19.21201153	-77.86086099	-166.0825455	-57
15706	0	0.401151657	-0.017698288	0.039624214	0.999563217	0.010336876	0.009165764	0.026097298	10.02879143	-0.442457199	0.990605354	0.516918934	0.458354818	1.305054583	-0.755615234	0.063476563	0.661621094	877.98	-27.99274081	-75.65649264	-155.8232013	-57
15707	0	0.342468262	-0.030883789	0.045349121	0.999603271	0.01321125	0.00661087	0.023944855	8.561706543	-0.772094727	1.133728027	0.660649696	0.330587143	1.197400749	-0.762695313	0.133789063	0.624755859	877.94	-33.68729975	-73.558844	-148.3313593	-58
15708	0	0.351878166	-0.027050972	0.043193817	0.999617577	0.016652107	0.005125046	0.021459579	8.796954155	-0.6762743	1.079845428	0.832711427	0.256284933	1.073115659	-0.759765625	0.194824219	0.582275391	877.98	-37.12098378	-71.61901391	-142.7254219	-59
15709	0	0.333984375	-0.022827148	0.039672852	0.999704361	0.015683174	0.004917145	0.017906189	8.349609375	-0.570678711	0.991821289	0.784235937	0.245881453	0.895397626	-0.749755859	0.249023438	0.540039063	877.88	-38.97538403	-69.87871891	-138.8504233	-59
15710	0	0.330733299	-0.017647743	0.039226532	0.999862671	0.01025486	0.004048347	0.012329102	8.268332481	-0.441193581	0.9806633	0.512766377	0.202426604	0.616483188	-0.743652344	0.290039063	0.496337891	877.88	-39.91020336	-68.59600776	-136.586406	-56
15711	0	0.340148926	-0.030761719	0.045410156	0.999961853	0.004868507	0.002830505	0.006599426	8.503723145	-0.769042969	1.135253906	0.243428423	0.141527044	0.329975453	-0.739013672	0.307373047	0.466064453	877.9	-40.28204477	-67.83858077	-135.5816825	-56
15712	0	0.394487381	-0.039761543	0.051121712	0.999997139	0.001719475	0.000507355	-0.00123024	9.862184525	-0.994038582	1.278042793	0.085973807	0.025367757	-0.061512042	-0.731689453	0.309082031	0.437011719	877.94	-39.73081956	-67.86776214	-135.9620158	-56
15713	0	0.427612305	-0.042297363	0.059509277	0.999932289	-0.006885529	-0.002352715	-0.008987427	10.69030762	-1.057434082	1.487731934	-0.344284101	-0.117638349	-0.449381353	-0.730712891	0.293457031	0.418212891	877.94	-38.95015667	-68.71788945	-137.6500843	-57
15714	0	0.438975334	-0.078245163	0.078050613	0.999747276	-0.010715485	-0.008127213	-0.017967224	10.97438335	-1.956129074	1.951265335	-0.535819219	-0.406394748	-0.89843664	-0.731201172	0.256103516	0.412597656	878	-37.35760757	-70.71527972	-140.6571098	-58
15715	0	0.476013184	-0.106628418	0.084411621	0.999576569	-0.003771782	-0.011333466	-0.026527405	11.90032959	-2.665710449	2.110290527	-0.188615709	-0.566753246	-1.326557412	-0.731445313	0.203613281	0.416992188	877.98	-32.36744711	-73.5170407	-146.3554818	-57
15716	0	0.491007805	-0.051544189	0.069127083	0.999483109	-0.007816315	-0.010731697	-0.02927494	12.27519512	-1.288604736	1.728177071	-0.39088307	-0.536677305	-1.46399922	-0.729003906	0.144287109	0.421630859	877.92	-24.52854779	-76.20364177	-155.403639	-60
15717	0	0.322814941	0.003234863	0.072814941	0.999442101	-0.020240784	-0.011023521	-0.024147034	8.070373535	0.080871582	1.820373535	-1.012227229	-0.551278484	-1.20757602	-0.728515625	0.076171875	0.427246094	877.88	-17.38715346	-78.38123842	-165.1028964	-58
15718	0	0.328544617	-0.031635284	0.075484276	0.999648094	-0.012443542	-0.013490677	-0.019114494	8.213615417	-0.790882111	1.887106895	-0.622249963	-0.674612812	-0.955836604	-0.71875	0.008056641	0.438232422	877.92	-9.340550314	-80.39913483	-174.7426647	-60
15719	0	0.425842285	0.00189209	0.06072998	0.999873161	-0.0037117	-0.010386467	-0.011486053	10.64605713	0.047302246	1.518249512	-0.185592866	-0.5193453	-0.574326949	-0.705322266	-0.038574219	0.444091797	877.92	-2.200147023	-81.71997299	177.5952605	-56
15720	0	0.41037178	0.002762794	0.068930626	0.99985981	-0.0128088	-0.008407593	-0.006725311	10.25929451	0.069069862	1.723265648	-0.640469876	-0.420399258	-0.336281257	-0.701660156	-0.073730469	0.452392578	878	1.948665237	-82.68731645	171.9242058	-58
15721	0	0.373657227	-0.020690918	0.082092285	0.999895096	-0.011454582	-0.007164001	-0.005142212	9.341430664	-0.517272949	2.052307129	-0.57274906	-0.35821255	-0.257119551	-0.690673828	-0.111328125	0.455078125	877.92	5.938141847	-83.46610873	166.5810073	-57
15722	0	0.379890442	-0.033629417	0.079100609	0.99994278	-0.007138252	-0.006241798	-0.004904747	9.497261047	-0.840735435	1.977515221	-0.356919393	-0.312095849	-0.245242009	-0.684326172	-0.146728516	0.454833984	877.92	11.17136465	-84.08881075	160.4912036	-60
15723	0	0.368103027	-0.024536133	0.079101563	0.999969482	-0.004477501	-0.004711151	-0.004241943	9.202575684	-0.61340332	1.977539063	-0.223877293	-0.235559921	-0.212099297	-0.678222656	-0.177734375	0.451171875	877.92	16.63136296	-84.49338455	154.4851804	-60
15724	0	0.332770348	-0.02143383	0.082482338	0.99998951	-0.000412941	-0.003646851	-0.002490997	8.31925869	-0.535845757	2.062058449	-0.020647117	-0.182343127	-0.124550274	-0.677246094	-0.204101563	0.450439453	877.94	20.8243229	-84.79282976	150.2225132	-61
15725	0	0.308959961	-0.013000488	0.080566406	0.999996185	0.001168251	-0.002311707	-9.54E-05	7.723999023	-0.325012207	2.014160156	0.058412617	-0.115585457	-0.004768377	-0.674072266	-0.226074219	0.455078125	877.88	22.05877224	-85.02859892	149.1132254	-63
15726	0	0.329856873	-0.025195122	0.082579613	0.999996185	-0.002146721	-0.00121212	0.000242233	8.246421814	-0.629878044	2.064490318	-0.107336154	-0.060606065	0.012111676	-0.675537109	-0.245849609	0.453857422	878	21.98607516	-85.15905855	148.9346978	-61
15727	0	0.379760742	-0.031921387	0.083496094	0.999999046	0.000495911	0.00067234	0.000453949	9.494018555	-0.798034668	2.087402344	0.024795536	0.033617025	0.022697452	-0.681396484	-0.267578125	0.447265625	877.94	20.97916431	-85.09591173	149.9958596	-60
15728	0	0.439702988	-0.049740791	0.098295212	0.999993324	0.003386497	0.000303268	0.000211716	10.99257469	-1.243519783	2.457380295	0.169325202	0.015163451	0.010585805	-0.6875	-0.289306641	0.446533203	877.88	20.75562579	-85.05954125	150.6008637	-63
15729	0	0.473205566	-0.065795898	0.098510742	0.999966621	0.007938385	0.001812935	-0.000190735	11.83013916	-1.644897461	2.462768555	0.396923639	0.090647746	-0.009536849	-0.693847656	-0.308837891	0.454345703	877.88	20.8140934	-84.84338186	151.4434939	-62
15730	0	0.472685814	-0.04504776	0.081907272	0.999984741	0.004443169	0.003176689	0.000249863	11.81714535	-1.126194	2.047681808	0.222159539	0.158835249	0.012493196	-0.705078125	-0.323730469	0.461914063	877.98	19.42944553	-84.49580409	153.3331881	-60
15731	0	0.500793457	-0.052856445	0.077453613	0.999984741	-0.003050804	0.004386902	0.000915527	12.51983643	-1.321411133	1.936340332	-0.152540954	0.219346167	0.045776591	-0.718505859	-0.343017578	0.469970703	877.92	16.28181389	-84.03257022	156.13214	-57
15732	0	0.354656219	-0.042111397	0.064444542	0.999940872	0.002141953	0.009846687	0.004044533	8.866405487	-1.05278492	1.611113548	0.10709973	0.492344041	0.202230613	-0.736572266	-0.359863281	0.469482422	877.98	10.03914533	-83.01833137	162.643716	-56
15733	0	0.315795898	-0.012756348	0.042114258	0.999778748	0.01252079	0.011619568	0.012218475	7.894897461	-0.318908691	1.052856445	0.626085536	0.581021111	0.610968687	-0.762451172	-0.361083984	0.470947266	877.94	-0.054272178	-81.78406935	174.2494249	-55
15734	0	0.384403229	0.021476746	0.018167496	0.999541283	0.015537262	0.014295578	0.021705627	9.610080719	0.53691864	0.454187393	0.776981865	0.714888176	1.08544729	-0.796630859	-0.335693359	0.482177734	877.88	-12.58910147	-79.84057852	-171.2728686	-53
15735	0	0.428100586	0.004150391	0.018066406	0.999494553	0.014943123	0.013385773	0.024646759	10.70251465	0.103759766	0.451660156	0.747281964	0.669401343	1.232545477	-0.839111328	-0.279541016	0.48828125	877.98	-22.11755045	-77.49675786	-159.8196732	-53
15736	0	0.464751244	0.000322342	0.026081085	0.999621391	0.006081581	0.012653351	0.023652077	11.61878109	0.008058548	0.65202713	0.304117409	0.632747339	1.182752996	-0.874267578	-0.223388672	0.491455078	877.94	-28.89019196	-74.99299941	-152.1316185	-54
15737	0	0.38873291	-0.035644531	0.045654297	0.999678612	0.000598907	0.010876656	0.022865295	9.718322754	-0.891113281	1.141357422	0.029948576	0.543890939	1.143387036	-0.911865234	-0.167236328	0.488769531	878	-34.25780396	-72.53626136	-146.4672666	-57
15738	0	0.306631088	-0.056406021	0.048635483	0.999736786	0.007027626	0.007916451	0.020309448	7.665777206	-1.410150528	1.21588707	0.351412028	0.395857137	1.015561208	-0.935058594	-0.113769531	0.479980469	877.98	-37.49911963	-70.41746732	-142.1972484	-59
15739	0	0.29699707	-0.042114258	0.042053223	0.999734879	0.01347065	0.005519867	0.017791748	7.424926758	-1.052856445	1.051330566	0.673591824	0.276017662	0.889665775	-0.954101563	-0.049560547	0.475830078	877.94	-39.18841618	-68.64003578	-138.7421593	-56
15740	0	0.301674843	-0.020436287	0.0367136	0.999790192	0.013504028	0.003884315	0.014876366	7.541871071	-0.510907173	0.917840004	0.675248549	0.194229332	0.743870206	-0.968505859	0.010253906	0.480224609	877.98	-40.17075532	-67.19690835	-136.007229	-53
15741	0	0.339660645	-0.024169922	0.039489746	0.999921799	0.008790016	0.001132965	0.008781433	8.491516113	-0.604248047	0.987243652	0.439512212	0.056649724	0.439083047	-0.979980469	0.063232422	0.4765625	877.98	-40.74818693	-66.43830654	-134.2773807	-53
15742	0	0.453891754	-0.033834457	0.047214508	0.999993324	0.003398895	-0.001285553	4.48E-05	11.34729385	-0.845861435	1.180362701	0.169945137	-0.06427779	0.00224114	-0.990722656	0.092041016	0.477539063	877.92	-40.5802891	-66.5468971	-134.0309117	-54
15743	0	0.506103516	-0.013549805	0.051879883	0.999936104	-0.006065369	-0.003188133	-0.008987427	12.65258789	-0.338745117	1.29699707	-0.303274889	-0.159410056	-0.449380905	-0.998291016	0.098876953	0.485839844	877.92	-39.96681204	-67.50000921	-135.4473262	-56
15744	0	0.429884911	-0.031772614	0.073860168	0.999668121	-0.013902664	-0.009644508	-0.019412994	10.74712276	-0.794315338	1.846504211	-0.695210063	-0.482278733	-0.970757035	-1.006835938	0.075195313	0.494140625	878	-38.94550604	-69.78118361	-138.2496871	-55
15745	0	0.440063477	-0.090942383	0.086486816	0.99946785	-0.005640984	-0.013217926	-0.029273987	11.00158691	-2.27355957	2.16217041	-0.282099196	-0.661013501	-1.463958906	-1.002685547	0.022705078	0.526855469	877.94	-34.24725242	-73.01620862	-143.8830257	-54
15746	0	0.459896088	-0.017681122	0.045391083	0.999476433	-0.005262375	-0.009811401	-0.030364037	11.49740219	-0.442028046	1.134777069	-0.263164633	-0.490655626	-1.518466608	-0.99609375	-0.032226563	0.553955078	877.94	-26.05446727	-75.7632944	-153.007938	-54
15747	0	0.355712891	0.021179199	0.042663574	0.999337196	-0.020004272	-0.014227867	-0.026870728	8.892822266	0.52947998	1.066589355	-1.000434575	-0.711550507	-1.343833171	-0.986816406	-0.095947266	0.578613281	877.98	-18.51157045	-78.46951211	-163.0892262	-54
15748	0	0.404456139	-0.020231247	0.047690392	0.999548912	-0.004637718	-0.017253876	-0.024119377	10.11140347	-0.505781174	1.192259789	-0.231920744	-0.86282338	-1.206150016	-0.965576172	-0.164550781	0.605957031	877.98	-6.337239898	-81.02895677	-175.9940994	-56
15749	0	0.427368164	0.04675293	0.035705566	0.999735832	-0.002510071	-0.01570034	-0.01657486	10.6842041	1.168823242	0.89263916	-0.125514577	-0.78508605	-0.828815862	-0.938720703	-0.202636719	0.636230469	877.98	7.070587273	-82.84337352	170.179602	-55
15750	0	0.380532265	0.003297806	0.056424141	0.999687195	-0.013541222	-0.015212059	-0.014517784	9.513306618	0.082445145	1.410603523	-0.677131689	-0.760682271	-0.725964906	-0.916748047	-0.233886719	0.663330078	878	23.91530046	-84.1016213	151.6712514	-55
15751	0	0.356933594	-0.025878906	0.075012207	0.999754906	-0.007484436	-0.014239311	-0.01517868	8.923339844	-0.646972656	1.875305176	-0.374252318	-0.712023619	-0.758995909	-0.889648438	-0.276123047	0.691162109	877.98	46.99812158	-84.42481608	127.6175802	-55
15752	0	0.361440659	-0.029963493	0.083655357	0.999826431	-0.002159119	-0.011645317	-0.014364243	9.036016464	-0.749087334	2.091383934	-0.10796217	-0.582299495	-0.718253624	-0.867675781	-0.307617188	0.712646484	877.98	66.51045893	-83.7581332	107.7581091	-57
15753	0	0.338256836	-0.026611328	0.090759277	0.999900818	0.001206398	-0.008716583	-0.010917664	8.456420898	-0.665283203	2.268981934	0.060321877	-0.435843447	-0.54590107	-0.841308594	-0.325927734	0.729736328	877.98	78.07819881	-82.85198415	96.25419949	-56
15754	0	0.307505608	-0.013288498	0.089056015	0.99995327	0.00431633	-0.005542755	-0.00658226	7.68764019	-0.332212448	2.226400375	0.215819832	-0.277142037	-0.32911809	-0.829345703	-0.337158203	0.747314453	877.92	84.24178187	-82.19110423	90.53938782	-56
15755	0	0.308837891	0.000366211	0.078735352	0.99998951	0.002559662	-0.002532005	-0.002536774	7.720947266	0.009155273	1.968383789	0.127983507	-0.126600675	-0.126839094	-0.8203125	-0.335205078	0.760986328	878	86.73678315	-81.91367203	88.31925415	-58
15756	0	0.360361099	-0.003799438	0.068511963	0.999998093	-0.001600266	0.00067997	0.000524521	9.009027481	-0.094985962	1.712799072	-0.080013319	0.033998508	0.026226058	-0.822753906	-0.332763672	0.763671875	877.98	85.91734223	-81.96095876	88.96473186	-57
15757	0	0.430969238	-0.009338379	0.068664551	0.99998188	-0.003940582	0.002793312	0.003376007	10.77423096	-0.233459473	1.71661377	-0.197030254	0.139666412	0.168801331	-0.827636719	-0.332519531	0.766845703	877.98	82.79874014	-82.30984095	91.65986729	-56
15758	0	0.503600121	-0.017373085	0.070258141	0.999958038	-0.005934715	0.004488945	0.005318642	12.59000301	-0.434327126	1.756453514	-0.296739901	0.22445038	0.265935791	-0.841552734	-0.332275391	0.76171875	877.98	77.31267933	-82.81992221	96.50899312	-54
15759	0	0.509887695	-0.005126953	0.063293457	0.999928474	-0.007011414	0.006134987	0.007415771	12.74719238	-0.128173828	1.582336426	-0.350578964	0.306756593	0.370797337	-0.858154297	-0.327392578	0.756591797	877.98	68.72168372	-83.42764138	104.3554466	-54
15760	0	0.501867294	-0.015054703	0.06643486	0.999855042	-0.014381409	0.005366325	0.00736618	12.54668236	-0.376367569	1.660871506	-0.71910518	0.268329234	0.368326818	-0.876708984	-0.326904297	0.740478516	877.98	58.53569804	-83.91051148	112.9496138	-54
15761	0	0.431030273	-0.038146973	0.050537109	0.999908447	-0.004279137	0.010005951	0.008018494	10.77575684	-0.953674316	1.263427734	-0.213963349	0.500312784	0.400936894	-0.892578125	-0.335205078	0.727539063	878.04	44.02908947	-83.90685042	127.0432168	-54
15762	0	0.308828354	0.016237259	0.037046432	0.999685287	0.016947746	0.01116848	0.014724731	7.720708847	0.405931473	0.926160812	0.847476142	0.558482533	0.736313749	-0.921630859	-0.307861328	0.715576172	878	25.99974381	-83.81507855	147.1212239	-54
15763	0	0.378173828	0.061218262	-0.000183105	0.999410629	0.0209589	0.012901306	0.023921967	9.454345703	1.530456543	-0.004577637	1.048150875	0.64519202	1.196333282	-0.952880859	-0.236572266	0.714355469	878	1.942638341	-83.00403766	173.7480117	-54
15764	0	0.423090935	0.035238266	-0.000901222	0.999389648	0.01978302	0.012667656	0.025852203	10.57727337	0.88095665	-0.022530556	0.989352268	0.633511674	1.292873181	-0.986816406	-0.145507813	0.699951172	877.88	-15.80228947	-81.16012248	-166.0495344	-52
15765	0	0.454101563	0.038696289	0.001342773	0.999504089	0.012738228	0.014102936	0.025093079	11.35253906	0.967407227	0.033569336	0.637016616	0.705263287	1.254861212	-1.014160156	-0.050537109	0.682128906	878	-26.14331047	-78.5951584	-154.0578583	-51
15766	0	0.376502037	0.037059784	0.014479637	0.999617577	-0.00255394	0.01348114	0.024002075	9.412550926	0.926494598	0.361990929	-0.127713264	0.674142907	1.200256698	-1.035644531	0.03125	0.642333984	877.9	-33.54298545	-75.87346503	-146.7633585	-53
15767	0	0.325439453	0.008239746	0.033081055	0.999667168	-0.00396347	0.011113167	0.022941589	8.135986328	0.205993652	0.827026367	-0.198195511	0.555719993	1.147206741	-1.047119141	0.090576172	0.609375	877.98	-38.92128259	-73.28656863	-141.6496693	-54
15768	0	0.317056656	-0.019871712	0.039130211	0.999739647	0.005269051	0.007785797	0.020777702	7.926416397	-0.496792793	0.978255272	0.263475372	0.389323608	1.038975191	-1.051269531	0.149658203	0.576171875	877.92	-42.10993402	-71.06052841	-137.6611702	-56
15769	0	0.327758789	-0.020690918	0.045593262	0.99977684	0.015915871	0.004898071	0.012962341	8.193969727	-0.517272949	1.139831543	0.79585261	0.244921745	0.648165179	-1.05078125	0.208740234	0.545654297	877.98	-42.27843662	-69.65091861	-135.5399784	-56
15770	0	0.326499939	-0.003889084	0.042028427	0.999904633	0.010500908	0.003558159	0.008152962	8.162498474	-0.097227097	1.050710678	0.52506197	0.17791356	0.407660956	-1.047851563	0.258789063	0.518310547	877.92	-42.13890697	-68.72968536	-134.3951054	-55
15771	0	0.358581543	-0.021728516	0.044799805	0.999975204	0.006958961	0.000335693	-0.000427246	8.964538574	-0.543212891	1.119995117	0.3479509	0.016784804	-0.021362478	-1.045898438	0.280517578	0.490722656	877.84	-41.14435416	-68.74626692	-134.5997964	-55
15772	0	0.451716423	-0.028974533	0.044048309	0.999958038	-0.001239777	-0.002306938	-0.008670807	11.29291058	-0.724363327	1.101207733	-0.061989678	-0.115348486	-0.433546273	-1.048095703	0.282714844	0.482177734	877.92	-39.70832127	-69.61026473	-136.2806809	-55
15773	0	0.485473633	-0.065124512	0.061279297	0.999753952	-0.008975029	-0.007938385	-0.018615723	12.13684082	-1.628112793	1.531982422	-0.448788114	-0.39695168	-0.930862182	-1.051513672	0.252197266	0.481933594	878	-37.56632893	-71.67576583	-139.6335386	-55
15774	0	0.499824524	-0.100482941	0.082128525	0.999559402	-0.004006386	-0.010979652	-0.02725029	12.4956131	-2.512073517	2.05321312	-0.200348655	-0.549063095	-1.362714225	-1.054199219	0.197509766	0.495117188	878.04	-31.88310572	-74.51583866	-146.0451452	-54
15775	0	0.516967773	-0.034301758	0.049560547	0.999515533	-0.009886742	-0.009506226	-0.02791214	12.92419434	-0.857543945	1.239013672	-0.494416804	-0.475387933	-1.395832065	-1.054199219	0.134033203	0.517578125	878.04	-23.79028064	-77.00563355	-155.5544931	-53
15776	0	0.308309555	0.003902435	0.063344002	0.999497414	-0.01932621	-0.012769699	-0.021608353	7.707738876	0.097560883	1.583600044	-0.966472188	-0.638591788	-1.080598412	-1.051269531	0.059326172	0.532226563	877.94	-17.28912074	-79.27325341	-164.4547346	-53
15777	0	0.345275879	-0.034179688	0.064331055	0.999746323	0.000752449	-0.015850067	-0.015937805	8.631896973	-0.854492188	1.608276367	0.037625624	-0.792570181	-0.796957453	-1.03515625	-0.000244141	0.559082031	878	-8.99438174	-81.48067427	-172.7782211	-52
15778	0	0.447853088	0.026604652	0.040593147	0.999865532	0.007276535	-0.012765884	-0.007247925	11.19632721	0.66511631	1.014828682	0.363843032	-0.638322782	-0.362412456	-1.022949219	-0.022460938	0.583007813	878	-3.000895555	-83.03955689	-177.98461	-54
15779	0	0.373291016	0.00592041	0.061340332	0.999902725	-0.009245872	-0.010070801	-0.002727509	9.332275391	0.148010254	1.533508301	-0.4623086	-0.503556351	-0.136379845	-1.009033203	-0.029296875	0.603027344	877.88	-1.403224518	-84.21751715	179.3457797	-55
15780	0	0.324707985	-0.013730049	0.065602303	0.999939919	-0.007866859	-0.007411957	-0.001642227	8.117699623	-0.343251228	1.640057564	-0.393350808	-0.370605222	-0.082112994	-0.999023438	-0.044921875	0.612304688	877.98	-0.117148009	-85.07875426	177.1522202	-55
15781	0	0.348205566	-0.024047852	0.063110352	0.999958038	-0.006468773	-0.006118774	-0.00202179	8.70513916	-0.601196289	1.577758789	-0.323443139	-0.305942972	-0.101090882	-0.989013672	-0.062744141	0.621826172	877.86	2.560364899	-85.78121212	173.7254944	-56
15782	0	0.375309944	-0.027297974	0.068663597	0.999991417	-0.000715256	-0.00368309	-0.001309395	9.382748604	-0.682449341	1.716589928	-0.035762881	-0.184154995	-0.065469914	-0.986328125	-0.071533203	0.622314453	877.92	5.383886457	-86.19440467	170.8156548	-59
15783	0	0.329284668	0.000549316	0.074768066	0.999997139	0.001331329	-0.001437187	0.000274658	8.232116699	0.01373291	1.86920166	0.066566511	-0.071859407	0.013732919	-0.984130859	-0.071533203	0.625	877.94	5.669978526	-86.3601858	170.6850964	-57
15784	0	0.295196533	-0.009846687	0.07589817	0.999998093	4.01E-05	-0.000611305	0.001556396	7.37991333	-0.246167183	1.897454262	0.002002717	-0.030565276	0.077819861	-0.983886719	-0.071777344	0.622314453	878.04	3.299925917	-86.44022463	173.0677943	-57
15785	0	0.340332031	-0.029602051	0.068603516	0.999997139	-0.000720978	0.001347542	0.001434326	8.508300781	-0.74005127	1.715087891	-0.036048916	0.06737714	0.071716361	-0.990966797	-0.069335938	0.613769531	878	0.875365097	-86.28659623	175.4181993	-56
15786	0	0.413157463	-0.057563782	0.071892738	0.999995232	-0.001651764	0.00242424	-0.000729561	10.32893658	-1.439094543	1.797318459	-0.082588322	0.12121219	-0.036478098	-0.995361328	-0.071533203	0.602783203	877.94	2.082238579	-85.99940302	174.0227471	-56
15787	0	0.474060059	-0.057250977	0.075134277	0.999978065	-0.004940033	0.003624916	-0.002475739	11.85150146	-1.431274414	1.878356934	-0.247003446	0.181247123	-0.123787827	-1.004150391	-0.084228516	0.598632813	878	5.185551811	-85.55675866	170.3470174	-57
15788	0	0.47751236	-0.055184364	0.068642616	0.999937057	-0.010023117	0.004170418	-0.002697945	11.93780899	-1.379609108	1.716065407	-0.501166306	0.208525238	-0.134900046	-1.010253906	-0.101806641	0.586181641	877.92	7.266418588	-85.03627807	167.1101048	-58
15789	0	0.432556152	-0.051269531	0.078125	0.999930382	-0.011585236	0.001832008	-0.001262665	10.81390381	-1.281738281	1.953125	-0.579275216	0.091602543	-0.063134704	-1.016113281	-0.125732422	0.571289063	877.98	7.326563424	-84.79629049	165.719405	-57
15790	0	0.413266182	-0.078923225	0.071407318	0.999985695	-0.001873016	0.004930496	0.000221252	10.33165455	-1.973080635	1.785182953	-0.093651253	0.246525956	0.011062673	-1.019775391	-0.147705078	0.567626953	877.98	6.180773285	-84.22391511	166.6555715	-57
15791	0	0.427001953	-0.036987305	0.014709473	0.999753952	0.019394875	0.008857727	0.005973816	10.67504883	-0.924682617	0.367736816	0.969822991	0.442922552	0.29871521	-1.029052734	-0.147460938	0.568115234	877.98	1.565229395	-83.24324218	173.5329042	-55
15792	0	0.458086014	0.071854591	-0.013354301	0.999609947	0.017518044	0.01187706	0.018196106	11.45215034	1.796364784	-0.333857536	0.876015944	0.59393013	0.909923469	-1.037841797	-0.10546875	0.562255859	877.92	-11.25931455	-81.68933889	-171.5084789	-54
15793	0	0.408203125	0.029174805	0.022277832	0.999676704	0.003852844	0.009202003	0.023361206	10.20507813	0.729370117	0.556945801	0.192662936	0.46014967	1.168185958	-1.054199219	-0.050048828	0.552734375	877.92	-24.47526543	-79.84686005	-157.6730548	-53
15794	0	0.42857933	-0.020907402	0.036243439	0.9997015	0.002853394	0.008802414	0.022569656	10.71448326	-0.522685051	0.906085968	0.14268383	0.440164355	1.128594759	-1.061035156	0.004882813	0.545654297	877.98	-33.08355249	-77.71059231	-148.5627526	-55
15795	0	0.343322754	-0.027160645	0.044189453	0.999684334	0.000640869	0.008545876	0.023586273	8.583068848	-0.679016113	1.104736328	0.032046821	0.427338639	1.179437475	-1.067871094	0.060058594	0.541503906	877.86	-39.62630596	-75.31777657	-141.7572787	-54
15796	0	0.286409378	-0.045311928	0.054773331	0.999678612	0.008910179	0.006456375	0.022802353	7.160234451	-1.132798195	1.369333267	0.445556568	0.322853255	1.140239487	-1.070068359	0.114990234	0.531494141	877.88	-43.71987404	-73.02881906	-136.4390849	-56
15797	0	0.31072998	-0.187866211	0.040100098	0.998227119	0.058036804	0.005864143	0.011764526	7.768249512	-4.696655273	1.002502441	2.903555545	0.293380489	0.58857403	-1.068115234	0.180664063	0.531738281	877.94	-38.83820057	-71.63446196	-134.5786099	-58
15798	0	0.294041634	0.247841835	0.017191887	0.999427795	0.027182579	0.00906086	0.017932892	7.35104084	6.196045876	0.429797173	1.359387904	0.453129301	0.896815428	-1.073974609	0.283691406	0.483398438	877.94	-38.39401796	-69.55177065	-131.7391268	-63
15799	0	0.396240234	-0.06842041	0.047424316	0.999610901	-0.024733543	0.001438141	0.012752533	9.906005859	-1.710510254	1.18560791	-1.236837261	0.071916352	0.63770919	-1.068603516	0.31640625	0.494873047	877.94	-43.78048479	-68.48244556	-128.9983464	-63
15800	0	0.423613548	-0.05325222	0.040284157	0.999969482	0.005886078	0.004136086	-0.002846718	10.59033871	-1.331305504	1.00710392	0.29430683	0.206806339	-0.142337312	-1.066650391	0.318603516	0.505859375	878.06	-41.65138385	-68.37605651	-130.5562309	-61
15801	0	0.465637207	0.007446289	0.035522461	0.999875069	-0.010848999	-0.001574516	-0.011329651	11.64093018	0.186157227	0.888061523	-0.542472424	-0.078729076	-0.566506012	-1.075927734	0.310302734	0.518554688	877.9	-40.62773826	-69.39398992	-132.9765436	-61
15802	0	0.474434853	-0.080327988	0.068198204	0.999584198	-0.016522408	-0.009484291	-0.021618843	11.86087132	-2.008199692	1.704955101	-0.826234743	-0.474280203	-1.081091797	-1.081298828	0.258056641	0.5546875	877.98	-39.0443113	-71.84717841	-136.6526809	-60
15803	0	0.463012695	-0.079528809	0.06652832	0.999519348	-0.000216484	-0.010738373	-0.029052734	11.57531738	-1.988220215	1.663208008	-0.010825935	-0.537004532	-1.452869101	-1.083984375	0.190429688	0.600341797	878	-32.36980474	-74.82608275	-143.6368739	-58
15804	0	0.45321846	0.001701355	0.022496223	0.99955368	-0.008401871	-0.009768486	-0.026930809	11.3304615	0.042533875	0.562405586	-0.420155965	-0.488496884	-1.346740556	-1.081787109	0.124755859	0.639892578	878	-24.42798551	-77.31947036	-152.8018126	-60
15805	0	0.32434082	-0.006958008	0.038757324	0.999423027	-0.018119812	-0.015444756	-0.024204254	8.108520508	-0.173950195	0.968933105	-0.906164749	-0.772386216	-1.210445333	-1.079345703	0.050537109	0.680419922	877.94	-16.47943581	-79.98777638	-163.017107	-60
15806	0	0.39438343	-0.038244247	0.045315742	0.999652863	0.000405312	-0.016444206	-0.020562172	9.859585762	-0.956106186	1.132893562	0.020267922	-0.822305359	-1.028227445	-1.058349609	-0.024414063	0.736816406	878.04	-3.39542633	-82.29019629	-176.2113721	-64
15807	0	0.406066895	0.017333984	0.044250488	0.999833107	-0.002677917	-0.013625145	-0.011837006	10.15167236	0.433349609	1.106262207	-0.133903305	-0.681295055	-0.591883127	-1.036865234	-0.055419922	0.783935547	877.94	8.293204503	-83.81759492	171.7070895	-64
15808	0	0.370402336	-0.014267921	0.063261032	0.999800682	-0.015215874	-0.010725021	-0.00710392	9.260058403	-0.356698036	1.581525803	-0.760844036	-0.536286558	-0.355219506	-1.012939453	-0.084472656	0.833740234	878	17.7198124	-84.84492409	160.488902	-68
15809	0	0.32598877	-0.019592285	0.068664551	0.999860764	-0.014243126	-0.007808685	-0.003818512	8.149719238	-0.489807129	1.71661377	-0.712189347	-0.390452385	-0.190934459	-0.998046875	-0.119873047	0.870117188	878.04	25.23355762	-85.51969521	151.3155348	-70
15810	0	0.321023941	-0.029690742	0.07104969	0.999909401	-0.011575699	-0.006511688	-0.001998901	8.025598526	-0.742268562	1.776242256	-0.578802346	-0.325594201	-0.099948074	-0.983642578	-0.146484375	0.908691406	878	31.91910183	-86.0606035	143.2864087	-80
15811	0	0.34375	-0.032836914	0.079833984	0.999961853	-0.007220268	-0.004741669	-0.000751495	8.59375	-0.820922852	1.995849609	-0.361017936	-0.237086406	-0.037575239	-0.974365234	-0.161865234	0.949707031	877.94	37.28748047	-86.44853636	137.082089	-72
15812	0	0.344820976	-0.027051926	0.09406662	0.999976158	-0.006115913	-0.002922058	0.000297546	8.620524406	-0.676298141	2.351665497	-0.305798016	-0.146104026	0.014877433	-0.969970703	-0.166015625	0.984130859	877.98	39.98310936	-86.71676995	133.6853555	-65
15813	0	0.34552002	-0.034973145	0.099853516	0.999997139	-0.000682831	-0.00165844	0.000774384	8.638000488	-0.874328613	2.496337891	-0.034141562	-0.082922035	0.038719202	-0.963623047	-0.166015625	1.018066406	877.94	41.17587602	-86.90175784	132.4172438	-69
15814	0	0.394536972	-0.03265667	0.089894295	0.999987602	0.004926682	-9.16E-05	-0.0002985	9.863424301	-0.81641674	2.247357368	0.246335076	-0.004577655	-0.014925064	-0.962890625	-0.145996094	1.059326172	877.98	42.51441646	-86.86831293	131.6480031	-66
15815	0	0.457702637	-0.031738281	0.079589844	0.999993324	0.002540588	0.001965523	-0.001354218	11.44256592	-0.793457031	1.989746094	0.127029676	0.098276337	-0.067711014	-0.962402344	-0.1171875	1.102539063	877.98	42.24996796	-86.5784018	132.212402	-66
15816	0	0.503822327	-0.039323807	0.065538406	0.999986649	0.001554489	0.004342079	-0.002011299	12.59555817	-0.983095169	1.638460159	0.077724785	0.217104874	-0.100565381	-0.968994141	-0.090332031	1.137939453	878.04	40.07392567	-86.03376616	134.5799883	-70
15817	0	0.515319824	0.001220703	0.053344727	0.999947548	-0.008544922	0.005513191	0.000934601	12.88299561	0.030517578	1.333618164	-0.42725352	0.275664353	0.046730854	-0.984863281	-0.058837891	1.176269531	877.94	32.82854521	-85.57037932	140.8748824	-69
15818	0	0.478746414	-0.028394699	0.054310799	0.999814987	-0.016375542	0.009642601	0.00295639	11.96866035	-0.709867477	1.357769966	-0.818827567	0.482159777	0.147828633	-1.007080078	-0.044677734	1.19921875	877.98	21.47411559	-84.72168433	150.4006468	-69
15819	0	0.330444336	-0.012023926	0.036254883	0.999876022	-0.002390862	0.01235199	0.009395599	8.261108398	-0.300598145	0.90637207	-0.119547989	0.61762487	0.469799276	-1.043457031	-0.021484375	1.205078125	877.92	7.550529311	-83.59699575	164.1299816	-69
15820	0	0.385178566	0.005468369	0.014748573	0.999714851	0.010474205	0.011486053	0.018086433	9.629464149	0.136709213	0.368714333	0.523759908	0.574357127	0.904407416	-1.079833984	0.063232422	1.202880859	877.94	-7.902843839	-82.2470751	-179.0821307	-69
15821	0	0.445678711	0.000427246	0.01763916	0.999537468	0.018405914	0.010956764	0.021583557	11.14196777	0.010681152	0.440979004	0.920437604	0.547922675	1.079344241	-1.106201172	0.191162109	1.190917969	878	-19.56115683	-80.41863405	-165.147321	-64
15822	0	0.425805092	0.010409355	0.027056694	0.999573708	0.01606369	0.011894226	0.021253586	10.6451273	0.260233879	0.676417351	0.803298502	0.594795709	1.062830113	-1.123535156	0.340820313	1.150878906	877.88	-26.68689766	-78.19822652	-156.0083314	-60
15823	0	0.350646973	0.019714355	0.035949707	0.999635696	0.005768776	0.01159668	0.023674011	8.766174316	0.492858887	0.898742676	0.288473816	0.579904382	1.183844274	-1.130126953	0.465576172	1.083740234	878.1	-33.23683207	-75.68780027	-148.590926	-60
15824	0	0.298660278	-0.019903183	0.042009354	0.999687195	0.005361557	0.0089674	0.022696495	7.466506958	-0.497579575	1.050233841	0.268105751	0.448416645	1.134942863	-1.124267578	0.5703125	1.034912109	878	-38.03589454	-73.3385883	-142.9594654	-64
15825	0	0.309997559	-0.028991699	0.03729248	0.999685287	0.013848305	0.00856781	0.019065857	7.749938965	-0.72479248	0.932312012	0.69248781	0.428435403	0.953392763	-1.103759766	0.665771484	0.979980469	877.94	-39.78944623	-71.20866721	-139.4398956	-85
15826	0	0.307613373	-0.017020226	0.03074646	0.99978447	0.012377739	0.007493019	0.014864922	7.69033432	-0.425505638	0.768661499	0.618931343	0.37467783	0.743299394	-1.083007813	0.756591797	0.908447266	877.92	-40.42491261	-69.46550429	-137.2449883	-67
15827	0	0.352416992	-0.019042969	0.03717041	0.999921799	0.007588387	0.005260468	0.008419037	8.810424805	-0.476074219	0.929260254	0.379429201	0.263030222	0.420962798	-1.05859375	0.814697266	0.848144531	877.94	-40.40567202	-68.39680176	-136.3190285	-60
15828	0	0.408139229	-0.026752472	0.040178299	0.999992371	0.001079559	0.003535271	0.001111031	10.20348072	-0.668811798	1.004457474	0.0539781	0.176763973	0.055551667	-1.040039063	0.844482422	0.798828125	877.98	-39.8314646	-68.02594122	-136.7879567	-63
15829	0	0.452941895	-0.027770996	0.039916992	0.999955177	-0.006828308	-0.000929832	-0.006374359	11.32354736	-0.694274902	0.997924805	-0.34142042	-0.046492306	-0.318722638	-1.030029297	0.839355469	0.770019531	877.98	-39.3264012	-68.60039918	-138.1565503	-64
15830	0	0.456122398	-0.057017326	0.054368019	0.999769211	-0.011427879	-0.008791924	-0.015902519	11.40305996	-1.425433159	1.359200478	-0.571437857	-0.439629943	-0.795187038	-1.026123047	0.804199219	0.764160156	877.98	-38.480276	-70.56025085	-140.439627	-60
15831	0	0.449462891	-0.096130371	0.065429688	0.999606133	0.000217438	-0.013201714	-0.024749756	11.23657227	-2.403259277	1.635742188	0.010873314	-0.660172277	-1.237650143	-1.023681641	0.740722656	0.783447266	877.98	-34.11587353	-73.49286762	-144.991182	-54
15832	0	0.504953384	-0.02442646	0.030842781	0.99960041	0.002726555	-0.013626099	-0.024600983	12.62383461	-0.610661507	0.771069527	0.136345889	-0.681395613	-1.230212853	-1.030517578	0.683837891	0.777099609	878.04	-27.73470405	-76.32065548	-151.2679606	-51
15833	0	0.33215332	0.010375977	0.047912598	0.99957943	-0.007003784	-0.018176079	-0.021465302	8.303833008	0.259399414	1.197814941	-0.350238265	-0.908931248	-1.073415422	-1.028076172	0.620117188	0.788085938	877.92	-22.16514132	-79.28592003	-157.7790599	-52
15834	0	0.366436958	-0.02082634	0.061784744	0.999601364	0.00723362	-0.021695137	-0.016511917	9.160923958	-0.520658493	1.544618607	0.361728963	-1.08490075	-0.825705375	-1.013916016	0.551757813	0.812988281	878	-14.98631072	-82.28089251	-164.2179665	-50
15835	0	0.440612793	0.023498535	0.050476074	0.99974823	0.009442329	-0.018127441	-0.009227753	11.01531982	0.587463379	1.261901855	0.472156052	-0.906448059	-0.461426316	-0.987060547	0.524658203	0.827880859	877.94	-8.274326606	-84.55904648	-169.8911158	-49
15836	0	0.394730568	-0.00161171	0.062748909	0.999873161	-0.00498867	-0.014345169	-0.0046978	9.868264198	-0.04029274	1.568722725	-0.249444026	-0.71728867	-0.23489988	-0.960693359	0.501953125	0.842773438	878	-3.920406319	-86.27479922	-174.8319724	-50
15837	0	0.321777344	-0.011779785	0.070861816	0.999938011	-0.003768921	-0.010092735	-0.00270462	8.044433594	-0.294494629	1.77154541	-0.18844992	-0.504647142	-0.135233799	-0.936035156	0.468261719	0.85546875	877.94	1.494755133	-87.45518595	179.3092561	-49
15838	0	0.312344551	-0.006914139	0.068786621	0.99993515	-0.008639336	-0.006934166	-0.002526283	7.808613777	-0.17285347	1.719665527	-0.431976077	-0.346715758	-0.126316881	-0.918701172	0.443603516	0.862304688	877.92	11.4541987	-88.22326888	168.3531042	-49
15839	0	0.327697754	-0.031555176	0.07421875	0.999921799	-0.011649132	-0.003765106	-0.002254486	8.192443848	-0.788879395	1.85546875	-0.582471633	-0.188260172	-0.112727216	-0.902832031	0.405761719	0.864746094	877.92	24.81765912	-88.55266352	153.6490253	-50
15840	0	0.343864441	-0.032718658	0.083264351	0.999957085	-0.009032249	-0.001394272	-0.001371384	8.596611023	-0.817966461	2.081608772	-0.451618901	-0.069714585	-0.068570159	-0.89453125	0.370361328	0.869873047	878	33.55930827	-88.60364053	143.8680779	-49
15841	0	0.358642578	-0.037780762	0.090698242	0.999984741	-0.00530529	1.14E-05	-0.001079559	8.966064453	-0.944519043	2.267456055	-0.265265807	0.000572207	-0.05397823	-0.885986328	0.341552734	0.86328125	877.9	37.74180318	-88.51301979	139.0747406	-49
15842	0	0.380251884	-0.030953407	0.083664894	0.999995232	-0.00235939	0.001655579	0.000237465	9.506297112	-0.773835182	2.091622353	-0.117969677	0.082779046	0.011873262	-0.877929688	0.317138672	0.859130859	878.04	33.23493432	-88.35492793	143.3108107	-51
15843	0	0.433898926	-0.034790039	0.071228027	0.999990463	-0.003245354	0.002845764	-0.000347137	10.84747314	-0.869750977	1.780700684	-0.162268192	0.142288653	-0.017356927	-0.872314453	0.299316406	0.851806641	878	29.03835027	-88.03565864	147.1367922	-51
15844	0	0.483567238	-0.051766396	0.063573837	0.999967575	-0.006387711	0.004473686	-0.001468658	12.08918095	-1.294159889	1.589345932	-0.319388881	0.223686659	-0.073433693	-0.873291016	0.272949219	0.836669922	877.98	26.310556	-87.48430587	149.1341774	-50
15845	0	0.475524902	-0.043518066	0.058959961	0.999954224	-0.007414818	0.005981445	-0.000320435	11.88812256	-1.08795166	1.473999023	-0.370746505	0.299076795	-0.016021971	-0.879150391	0.244628906	0.833740234	877.94	20.80345975	-86.82194372	153.7968756	-51
15846	0	0.501029015	-0.044760704	0.066923141	0.999918938	-0.011209488	0.00569725	0.001688004	12.52572536	-1.119017601	1.673078537	-0.560489433	0.284870161	0.084402441	-0.889404297	0.214111328	0.819580078	877.94	13.42043059	-86.23542465	159.9059239	-51
15847	0	0.405578613	-0.063049316	0.055969238	0.99992466	-0.000797272	0.011544228	0.003955841	10.13946533	-1.57623291	1.399230957	-0.03986458	0.577225768	0.197796984	-0.904296875	0.183837891	0.817138672	877.98	4.837508595	-84.97960637	168.4180956	-49
15848	0	0.399086952	0.006095886	0.018750191	0.999787331	0.009861946	0.01379776	0.011665344	9.977173805	0.152397156	0.468754768	0.493132134	0.689936729	0.58330841	-0.932128906	0.184570313	0.787109375	877.98	-6.784696713	-83.35009352	-178.7693176	-47
15849	0	0.435974121	0.038024902	0.012084961	0.999681473	0.001603127	0.014358521	0.020652771	10.89935303	0.950622559	0.302124023	0.080164816	0.71800206	1.032747916	-0.963378906	0.216064453	0.754882813	877.9	-20.58223707	-81.16444554	-164.6644363	-47
15850	0	0.385484695	-0.012546539	0.039730072	0.99962616	0.006356239	0.012499809	0.023435593	9.637117386	-0.313663483	0.993251801	0.317851487	0.625068183	1.171925348	-0.990478516	0.256347656	0.732910156	877.92	-30.00831529	-78.70564208	-154.3545937	-46
15851	0	0.388549805	-0.021911621	0.044311523	0.999515533	0.012944221	0.012989044	0.025146484	9.713745117	-0.547790527	1.107788086	0.647315603	0.6495571	1.257527284	-1.008789063	0.313720703	0.697753906	877.92	-35.61849583	-75.88496742	-147.0842239	-45
15852	0	0.37586689	-0.005392075	0.034949303	0.999494553	0.008083344	0.014166832	0.027279854	9.396672249	-0.134801865	0.873732567	0.404235257	0.708460917	1.364222453	-1.025146484	0.384277344	0.664306641	877.88	-39.88250958	-72.68630377	-141.6909456	-47
15853	0	0.317932129	-0.03314209	0.036376953	0.999608994	0.007927895	0.012519836	0.023674011	7.948303223	-0.828552246	0.909423828	0.396446283	0.626073235	1.183854508	-1.034423828	0.452148438	0.616210938	878	-42.17705194	-69.82801677	-138.3040584	-48
15854	0	0.307656288	-0.034629822	0.035634995	0.999678612	0.011842728	0.010951996	0.019546509	7.691407204	-0.865745544	0.890874863	0.592199786	0.547658427	0.977430086	-1.036376953	0.515625	0.576660156	877.92	-42.82592378	-67.39888124	-136.1437635	-46
15855	0	0.320068359	-0.025390625	0.034667969	0.999824524	0.01013279	0.008724213	0.013088226	8.001708984	-0.634765625	0.866699219	0.506669047	0.436236088	0.654449505	-1.035400391	0.570068359	0.532226563	878.04	-42.59933937	-65.66130721	-135.1170324	-45
15856	0	0.356596947	-0.019010544	0.0355196	0.999966621	0.001669884	0.00566864	0.005565643	8.914923668	-0.475263596	0.887989998	0.083495103	0.28343512	0.278285222	-1.033935547	0.600585938	0.500976563	877.92	-42.43517009	-64.77157342	-135.0772657	-45
15857	0	0.407592773	-0.028320313	0.031982422	0.999968529	-0.006427765	0.002545357	-0.003726959	10.18981934	-0.708007813	0.799560547	-0.321391549	0.127269146	-0.186349877	-1.038818359	0.609375	0.489013672	877.88	-42.04234322	-64.86937668	-136.3124389	-45
15858	0	0.415423393	-0.023633957	0.033835411	0.999826431	-0.014443398	-0.002329826	-0.01146698	10.38558483	-0.590848923	0.845885277	-0.722211471	-0.116498027	-0.573382023	-1.044921875	0.587646484	0.48828125	877.82	-41.90906686	-65.98001844	-138.2638597	-46
15859	0	0.434753418	-0.078125	0.059448242	0.999641418	-0.012026787	-0.011211395	-0.021121979	10.86883545	-1.953125	1.486206055	-0.601411171	-0.560636724	-1.05622509	-1.057373047	0.537841797	0.521728516	877.88	-40.93592671	-68.58226624	-140.799259	-47
15860	0	0.57344532	-0.091197014	0.058772087	0.999484062	-0.002667427	-0.014644623	-0.028438568	14.336133	-2.279925346	1.469302177	-0.133394267	-0.732356939	-1.422172696	-1.064453125	0.474609375	0.541503906	877.88	-37.06468426	-71.98117068	-145.2229683	-45
15861	0	0.401245117	-0.003723145	0.064941406	0.999452591	-0.011149406	-0.014057159	-0.02778244	10.03112793	-0.093078613	1.623535156	-0.557571996	-0.702986163	-1.389375366	-1.071289063	0.402832031	0.573730469	877.86	-32.50088215	-75.16721231	-151.2997492	-45
15862	0	0.290275574	-0.036902428	0.079727173	0.999461174	-0.003606796	-0.020200729	-0.025602341	7.256889343	-0.922560692	1.993179321	-0.180372187	-1.010217784	-1.280346833	-1.071044922	0.326171875	0.608642578	877.92	-26.72841421	-78.67318327	-157.6448498	-45
15863	0	0.437988281	-0.016540527	0.055480957	0.999530792	0.012372017	-0.018753052	-0.020809174	10.94970703	-0.413513184	1.387023926	0.61869757	-0.937799199	-1.040621366	-1.057617188	0.271240234	0.649658203	877.9	-16.97896472	-81.59806056	-166.1029227	-46
15864	0	0.463913918	0.00244236	0.061826706	0.999741554	-0.001074791	-0.016487122	-0.015585899	11.59784794	0.061058998	1.545667648	-0.05374417	-0.824426977	-0.77936199	-1.040283203	0.239990234	0.671142578	877.88	-6.023048612	-83.84430563	-177.2650782	-46
15865	0	0.374938965	-0.018432617	0.083435059	0.999855042	-0.001200676	-0.0129776	-0.010871887	9.373474121	-0.46081543	2.085876465	-0.060036681	-0.648911161	-0.543620461	-1.022460938	0.195800781	0.693847656	877.92	7.714329356	-85.34009817	168.7972714	-51
15866	0	0.35219574	-0.002404213	0.082914352	0.999921799	-0.000138283	-0.010592461	-0.006620407	8.804893494	-0.060105324	2.07285881	-0.006914319	-0.529636807	-0.331028965	-1.010253906	0.173583984	0.715087891	877.94	22.75229964	-86.32261101	153.7041765	-56
15867	0	0.355102539	-0.027038574	0.086853027	0.999957085	-0.003704071	-0.007361412	-0.00409317	8.877563477	-0.675964355	2.171325684	-0.185206166	-0.368075796	-0.204661396	-0.993164063	0.155517578	0.724121094	877.92	36.77433434	-86.81517791	139.2336917	-60
15868	0	0.331964493	-0.032341957	0.090456963	0.999985695	-0.003006935	-0.003675461	-0.002174377	8.29911232	-0.808548927	2.261424065	-0.15034744	-0.183773876	-0.108719366	-0.985595703	0.139892578	0.730712891	877.94	45.52007798	-86.94933673	130.1311723	-57
15869	0	0.306152344	-0.029907227	0.092407227	0.999991417	-0.003917694	-0.000597954	-0.000892639	7.653808594	-0.747680664	2.310180664	-0.195885243	-0.029897772	-0.044632081	-0.978027344	0.128662109	0.728515625	877.92	47.72575832	-86.89866602	127.4743317	-60
15870	0	0.330602646	-0.033025742	0.083451271	0.999993324	-0.002592087	0.002197266	0.000364304	8.265066147	-0.825643539	2.086281776	-0.129604592	0.109863495	0.018215215	-0.977539063	0.117675781	0.7265625	877.88	43.98284766	-86.72947747	130.9261797	-62
15871	0	0.355407715	-0.021057129	0.069519043	0.999983788	-0.002838135	0.004452705	0.002040863	8.885192871	-0.526428223	1.737976074	-0.141907496	0.222636458	0.102043697	-0.981689453	0.11328125	0.709960938	878	35.42607269	-86.46318896	139.1731926	-66
15872	0	0.421173096	-0.038021088	0.063540459	0.999976158	-0.004555702	0.00463295	0.002120972	10.52932739	-0.950527191	1.588511467	-0.227786884	0.231649295	0.10604941	-0.985839844	0.106689453	0.693603516	877.94	27.66527974	-86.11713577	146.4281982	-70
15873	0	0.488830566	-0.044494629	0.057922363	0.999965668	-0.005461693	0.005725861	0.00220108	12.22076416	-1.112365723	1.448059082	-0.273087711	0.286296249	0.110055254	-0.9921875	0.100097656	0.674316406	877.94	20.36507055	-85.60183584	153.1212791	-66
15874	0	0.449978828	-0.033094406	0.06230545	0.99994278	-0.008019447	0.005568504	0.004322052	11.24947071	-0.827360153	1.557636261	-0.400979985	0.278430507	0.216106706	-0.998535156	0.091552734	0.655273438	877.9	11.58940471	-85.10730833	161.0047584	-61
15875	0	0.521606445	-0.056091309	0.059753418	0.999931335	-0.00939846	0.005710602	0.003948212	13.04016113	-1.402282715	1.493835449	-0.469933713	0.285536588	0.197415076	-1.004882813	0.082763672	0.633544922	877.98	4.695359057	-84.50845393	166.8467347	-62
15876	0	0.36787796	-0.031667709	0.054368019	0.99991703	-0.003954887	0.009965897	0.007109642	9.196949005	-0.791692734	1.359200478	-0.197749825	0.498308577	0.355491908	-1.013183594	0.067382813	0.606689453	877.86	-3.435092857	-83.35939904	174.5657842	-58
15877	0	0.359313965	0.011779785	0.03704834	0.999821663	0.002338409	0.010388374	0.01556778	8.982849121	0.294494629	0.926208496	0.116927405	0.519449518	0.778435135	-1.026855469	0.072021484	0.572753906	877.92	-15.17885591	-81.87721807	-173.3254097	-58
15878	0	0.450973511	0.033572197	0.016127586	0.999676704	0.000831604	0.010719299	0.023002625	11.27433777	0.839304924	0.403189659	0.041584669	0.536022573	1.150254846	-1.031982422	0.100585938	0.5390625	877.88	-27.42898042	-79.75848488	-160.8234317	-50
15879	0	0.453979492	-0.007019043	0.042663574	0.999698639	0.005402565	0.009059906	0.022159576	11.3494873	-0.175476074	1.066589355	0.270155375	0.453040787	1.108090077	-1.037841797	0.135498047	0.510742188	878	-34.87633073	-77.55205108	-152.5976537	-47
15880	0	0.434380531	0.01050663	0.052762985	0.999524117	0.010909081	0.010925293	0.026669502	10.85951328	0.262665749	1.319074631	0.545540392	0.546351144	1.333686255	-1.041259766	0.175048828	0.481933594	877.9	-40.26294063	-74.69781622	-145.7636008	-46
15881	0	0.360595703	-0.007751465	0.053344727	0.999547958	0.008538246	0.008903503	0.027397156	9.014892578	-0.193786621	1.333618164	0.426976568	0.445242181	1.370063985	-1.038330078	0.231689453	0.442871094	877.94	-44.63066919	-71.8337743	-140.1805519	-45
15882	0	0.345897675	-0.052287102	0.051544189	0.999604225	0.016313553	0.006832123	0.021846771	8.647441864	-1.307177544	1.288604736	0.815785091	0.341651139	1.092482454	-1.032958984	0.279541016	0.421386719	877.98	-46.12782641	-69.51516739	-136.6103099	-43
15883	0	0.353088379	-0.026733398	0.034362793	0.999625206	0.015857697	0.008351326	0.020675659	8.827209473	-0.668334961	0.859069824	0.792983798	0.417618422	1.033912	-1.02734375	0.325439453	0.397460938	877.94	-46.6301248	-67.15832868	-134.1109741	-44
15884	0	0.307774544	-0.041155815	0.037773132	0.999799728	0.011571884	0.005755424	0.015273094	7.694363594	-1.028895378	0.944328308	0.578632817	0.287790428	0.763705667	-1.023925781	0.364501953	0.37109375	877.94	-46.89603344	-65.45407095	-132.3675127	-45
15885	0	0.324157715	-0.041748047	0.042724609	0.999890327	0.010135651	0.00357914	0.010166168	8.103942871	-1.043701172	1.068115234	0.506801022	0.178963515	0.508326957	-1.019775391	0.384033203	0.357666016	877.88	-46.75625931	-64.35058514	-131.2348608	-45
15886	0	0.341953278	-0.048988342	0.04537487	0.99997139	0.005459785	0.001994133	0.004665375	8.54883194	-1.224708557	1.134371758	0.272991801	0.099707573	0.233270898	-1.020019531	0.397216797	0.345214844	877.88	-46.5053919	-63.83592766	-130.8127306	-43
15887	0	0.364074707	-0.05456543	0.048339844	0.999996185	0.001011848	-0.000720978	-0.002418518	9.101867676	-1.364135742	1.208496094	0.050592485	-0.036048934	-0.120926052	-1.022705078	0.399414063	0.350830078	877.94	-46.08131763	-64.12852988	-131.1477364	-43
15888	0	0.401223183	-0.066983223	0.053208351	0.999923706	-0.006271362	-0.003081322	-0.010170937	10.03057957	-1.674580574	1.330208778	-0.313576074	-0.154069996	-0.508559736	-1.031494141	0.380126953	0.361572266	877.92	-45.57928752	-65.25002976	-132.488686	-42
15889	0	0.418457031	-0.090148926	0.062438965	0.999782562	-0.007845879	-0.006336212	-0.018215179	10.46142578	-2.253723145	1.560974121	-0.392322279	-0.316833502	-0.910824787	-1.039550781	0.341064453	0.385253906	877.94	-44.24002977	-67.28060342	-134.9232941	-43
15890	0	0.414634705	-0.087735176	0.073120117	0.999629021	-0.006151199	-0.008682251	-0.025066376	10.36586761	-2.193379402	1.82800293	-0.307597991	-0.434166219	-1.253473736	-1.051757813	0.284667969	0.416259766	877.98	-41.22366137	-70.00574656	-138.9083586	-42
15891	0	0.404174805	-0.065185547	0.069763184	0.999542236	-0.010802269	-0.008144379	-0.027050018	10.10437012	-1.629638672	1.74407959	-0.540195825	-0.407281041	-1.352707194	-1.061279297	0.21484375	0.451171875	877.94	-37.00294867	-72.73246038	-144.6592241	-42
15892	0	0.481759071	-0.043498039	0.057869911	0.999403	-0.020246506	-0.00729084	-0.027004242	12.04397678	-1.087450981	1.44674778	-1.012526562	-0.364614487	-1.350480552	-1.063476563	0.142822266	0.482910156	877.94	-31.98795034	-75.22321992	-152.2771737	-43
15893	0	0.394775391	-0.036804199	0.077026367	0.99920845	-0.029379845	-0.009479523	-0.025085449	9.869384766	-0.92010498	1.92565918	-1.469379911	-0.474101221	-1.254603473	-1.062744141	0.061767578	0.506835938	877.94	-27.06669153	-77.63241097	-160.7901668	-45
15894	0	0.393623352	-0.089964867	0.11578846	0.999517441	-0.014388084	-0.01384449	-0.023784637	9.840583801	-2.249121666	2.894711494	-0.719519903	-0.692335814	-1.189423104	-1.052490234	-0.028320313	0.542236328	877.94	-18.86523431	-80.19819359	-170.825761	-47
15895	0	0.429443359	-0.055541992	0.103820801	0.999795914	0.004433632	-0.010223389	-0.016849518	10.73608398	-1.388549805	2.59552002	0.221696675	-0.511204206	-0.842533201	-1.036621094	-0.085449219	0.580566406	877.9	-7.941306637	-81.81439136	178.6249294	-49
15896	0	0.364089966	0.007041931	0.084486008	0.999950409	0.004234314	-0.006894112	-0.005760193	9.102249146	0.176048279	2.112150192	0.211719179	-0.344711249	-0.288014379	-1.024169922	-0.109863281	0.601806641	878	-2.867496937	-82.67845459	173.9898964	-48
15897	0	0.343811035	0.016723633	0.069641113	0.99998188	0.002567291	-0.005091667	0.001670837	8.595275879	0.41809082	1.741027832	0.128365318	-0.254584857	0.083542362	-1.014892578	-0.116699219	0.621826172	877.88	-4.065290867	-83.26114373	175.4909346	-46
15898	0	0.374682426	0.007673264	0.060170174	0.999987602	-0.001495361	-0.003709793	0.002920151	9.367060661	0.191831589	1.504254341	-0.074768372	-0.185490413	0.146008135	-1.010986328	-0.107910156	0.638183594	877.9	-7.141518524	-83.66398182	178.4201996	-45
15899	0	0.379394531	-0.010375977	0.078186035	0.999975204	-0.00549221	-0.002422333	0.003536224	9.484863281	-0.259399414	1.954650879	-0.274612741	-0.121117618	0.176812649	-1.009033203	-0.107910156	0.657958984	877.94	-11.48114156	-83.88487563	-177.8408793	-44
15900	0	0.383728981	-0.013561249	0.091945648	0.999986649	0.001272202	-0.000451088	0.004983902	9.593224525	-0.339031219	2.298641205	0.06361036	-0.022554498	0.249196206	-1.009277344	-0.105712891	0.666503906	877.88	-16.23624955	-83.8104822	-172.9085917	-43
15901	0	0.395324707	0.009399414	0.084289551	0.999966621	0.00453949	0.001862526	0.006507874	9.883117676	0.234985352	2.10723877	0.226977	0.093127328	0.325397279	-1.007568359	-0.092529297	0.673828125	877.98	-21.06157144	-83.38275111	-167.5268059	-43
15902	0	0.38645649	0.016037941	0.069144249	0.999965668	0.003277779	0.003191948	0.006869316	9.661412239	0.400948524	1.728606224	0.163890792	0.159599209	0.343469705	-1.015625	-0.072265625	0.681152344	877.94	-25.1421009	-82.7525083	-163.0324954	-42
15903	0	0.38293457	0.008789063	0.061828613	0.999964714	0.003177643	0.004052162	0.006523132	9.573364258	0.219726563	1.545715332	0.15888397	0.202610441	0.326160371	-1.023193359	-0.056640625	0.680419922	877.88	-27.93759795	-82.02024348	-159.8397176	-42
15904	0	0.382522583	0.003567696	0.061779022	0.999966621	0.004467964	0.004140854	0.005410194	9.563064575	0.08919239	1.544475555	0.22340068	0.207044985	0.270512713	-1.031005859	-0.038818359	0.679443359	877.98	-29.32196396	-81.32526386	-157.917185	-42
15905	0	0.393249512	-0.004455566	0.05670166	0.999974251	0.003787994	0.003987312	0.004417419	9.831237793	-0.11138916	1.417541504	0.18940129	0.199367269	0.220872804	-1.038574219	-0.0234375	0.675537109	877.98	-29.99057033	-80.69729541	-156.7942253	-41
15906	0	0.424764633	-0.009911537	0.051179886	0.99998188	0.002511978	0.003850937	0.0036726	10.61911583	-0.247788429	1.279497147	0.125599632	0.192547956	0.183631049	-1.048583984	-0.011962891	0.675292969	877.94	-30.31182963	-80.12502353	-156.1695876	-40
15907	0	0.406677246	-0.016052246	0.05078125	0.999983788	0.002216339	0.003731728	0.003433228	10.16693115	-0.401306152	1.26953125	0.110817521	0.186587332	0.171662253	-1.055908203	-0.002929688	0.672119141	877.88	-30.52493926	-79.57857756	-155.6885745	-40
15908	0	0.381876945	-0.022734642	0.049759865	0.999980927	0.004037857	0.003209114	0.003204346	9.546923637	-0.568366051	1.24399662	0.201894093	0.16045669	0.16021827	-1.063476563	0.008300781	0.671386719	877.9	-30.54453529	-79.09736648	-155.1912607	-39
15909	0	0.374206543	-0.018798828	0.046020508	0.999980927	0.004216194	0.002895355	0.003269196	9.355163574	-0.469970703	1.150512695	0.210811002	0.14476865	0.163460782	-1.070800781	0.019287109	0.668212891	877.94	-30.64802981	-78.64411381	-154.5870801	-39
15910	0	0.367652893	-0.020766258	0.045875549	0.999979973	0.004472733	0.002782822	0.003441811	9.191322327	-0.519156456	1.146888733	0.223638103	0.139142001	0.172091666	-1.076171875	0.034912109	0.672851563	877.9	-30.81122449	-78.19250172	-153.889117	-39
15911	0	0.374328613	-0.00604248	0.045166016	0.999973297	0.004281044	0.002922058	0.005016327	9.358215332	-0.151062012	1.129150391	0.214054057	0.146104172	0.25081852	-1.081542969	0.050537109	0.668945313	877.88	-31.63052882	-77.63404705	-152.5418726	-39
15912	0	0.39949894	0.000435829	0.042720795	0.999969482	0.000347137	0.002932549	0.007217407	9.987473488	0.010895729	1.068019867	0.017357048	0.146628912	0.360874019	-1.086914063	0.068115234	0.665039063	878	-33.70702981	-76.93357916	-150.3636925	-39
15913	0	0.389160156	-0.008544922	0.045776367	0.999967575	-0.00196743	0.002605438	0.007259369	9.729003906	-0.213623047	1.14440918	-0.098372545	0.130273287	0.362972278	-1.092285156	0.0859375	0.660888672	877.94	-35.92863489	-76.24543715	-148.3008484	-39
15914	0	0.387832642	-0.036797523	0.055783272	0.999993324	-0.000617981	-0.000160217	0.003335953	9.69581604	-0.919938087	1.394581795	-0.030899107	-0.00801088	0.166797959	-1.095214844	0.096923828	0.663085938	877.9	-37.14739507	-76.0663291	-147.1069445	-39
15915	0	0.405761719	-0.057800293	0.062805176	0.999986649	0.004036903	-0.002197266	-0.002197266	10.14404297	-1.445007324	1.570129395	0.201846042	-0.109863756	-0.109863756	-1.095458984	0.103515625	0.668212891	877.92	-36.33719434	-76.45269541	-147.4522221	-39
15916	0	0.38779068	-0.038171768	0.065080643	0.999956131	0.007579803	-0.002978325	-0.004579544	9.694766998	-0.954294205	1.627016068	0.378995688	-0.148918411	-0.228980535	-1.093261719	0.103515625	0.668212891	877.94	-34.34304531	-77.06823635	-148.5985913	-39
15917	0	0.367126465	-0.021057129	0.062805176	0.999933243	0.009861946	-0.003772736	-0.004592896	9.178161621	-0.526428223	1.570129395	0.493108202	-0.188640948	-0.22964985	-1.088623047	0.101318359	0.682373047	877.94	-32.14569258	-77.75133456	-149.6855305	-39
15918	0	0.350502968	-0.010476112	0.053452492	0.999958038	0.007817268	-0.003483772	-0.002979279	8.762574196	-0.261902809	1.336312294	0.390868769	-0.174190998	-0.148965967	-1.086669922	0.107910156	0.6875	877.82	-30.68726855	-78.30280023	-150.2520766	-39
15919	0	0.348999023	-0.015808105	0.050415039	0.999987602	0.000892639	-0.002390862	-0.004146576	8.724975586	-0.395202637	1.260375977	0.044632134	-0.119543548	-0.207329616	-1.082275391	0.109863281	0.692871094	877.88	-29.04263695	-78.80944587	-151.812201	-39
15920	0	0.364901543	-0.035448074	0.056976318	0.99998188	-0.004351616	-0.001567841	-0.003822327	9.122538567	-0.886201859	1.424407959	-0.217582101	-0.078392499	-0.19111748	-1.079345703	0.096679688	0.696533203	877.88	-27.80984561	-79.20688973	-153.564972	-39
15921	0	0.362854004	-0.039428711	0.060974121	0.999991417	-0.00233078	-0.001105309	-0.002998352	9.071350098	-0.985717773	1.524353027	-0.116539305	-0.055265571	-0.149917993	-1.078857422	0.081298828	0.700683594	877.88	-26.56452194	-79.50558783	-155.0974456	-39
15922	0	0.44403553	-0.038392067	0.059867859	0.999994278	-0.000155449	-0.001584053	-0.002799988	11.10088825	-0.959801674	1.496696472	-0.007772459	-0.079202789	-0.139999632	-1.076171875	0.074707031	0.706787109	877.9	-25.23563147	-79.83712479	-156.4590858	-39
15923	0	0.472717285	-0.046386719	0.063354492	0.999987602	-0.003955841	-0.000681877	-0.002609253	11.81793213	-1.159667969	1.583862305	-0.197792809	-0.034093987	-0.130463145	-1.071044922	0.065673828	0.707275391	877.9	-24.14120996	-80.06000927	-158.0221788	-39
15924	0	0.409781456	-0.049742699	0.068864822	0.999999046	0.000411034	-0.000322342	-0.001256943	10.2445364	-1.243567467	1.72162056	0.020551688	-0.016117101	-0.062847157	-1.073242188	0.054931641	0.716796875	877.94	-23.22490705	-80.1767168	-158.9001266	-39
15925	0	0.352355957	-0.033813477	0.068725586	0.999996185	0.001992226	-0.001026154	0.001476288	8.808898926	-0.845336914	1.718139648	0.099611402	-0.05130774	0.073814481	-1.072998047	0.054931641	0.708251953	877.88	-23.97334391	-80.24035205	-157.9056063	-39
15926	0	0.340703011	-0.043230057	0.064167976	0.999992371	0.001721382	-0.001774788	0.002808571	8.517575264	-1.080751419	1.604199409	0.086069308	-0.088739602	0.140428871	-1.068847656	0.063476563	0.710205078	877.98	-25.79482963	-80.31236218	-155.8520284	-39
15927	0	0.379638672	-0.048828125	0.06060791	0.999995232	0.001213074	-0.001669884	0.002037048	9.490966797	-1.220703125	1.515197754	0.060653772	-0.083494303	0.10185256	-1.066894531	0.072265625	0.715087891	877.98	-27.21471592	-80.4021689	-154.263834	-39
15928	0	0.40814209	-0.037945747	0.063240051	0.999996185	-0.001146317	-0.000567436	0.002416611	10.20355225	-0.948643684	1.581001282	-0.057315898	-0.028371846	0.120830686	-1.060058594	0.07421875	0.720214844	877.88	-28.80236042	-80.35221806	-152.7806	-39
15929	0	0.411987305	-0.023620605	0.066650391	0.999991417	-0.002361298	-0.000216484	0.003105164	10.29968262	-0.590515137	1.666259766	-0.118065181	-0.010824231	0.155258574	-1.060302734	0.080810547	0.72265625	877.9	-30.78731111	-80.21990088	-151.0341067	-39
15930	0	0.394316673	-0.03091526	0.069390297	0.999983788	-0.004693985	0.000484467	0.002931595	9.857916832	-0.772881508	1.734757423	-0.234700457	0.024223452	0.146580496	-1.060058594	0.080810547	0.714111328	877.88	-32.64272057	-80.01890955	-149.6903047	-39
15931	0	0.378356934	-0.045349121	0.067016602	0.999997139	-0.00094986	0.000523567	0.001945496	9.45892334	-1.133728027	1.675415039	-0.04749302	0.026178382	0.097274861	-1.062744141	0.080810547	0.719726563	877.9	-33.47289259	-79.86913059	-148.9525738	-39
15932	0	0.383126259	-0.045366287	0.059275627	0.999998093	-0.000232697	0.000632286	0.0013237	9.578156471	-1.134157181	1.481890678	-0.011634831	0.031614315	0.066185022	-1.060302734	0.085205078	0.716552734	877.98	-33.83750555	-79.74633635	-148.6031961	-39
15933	0	0.383789063	-0.041992188	0.058105469	0.999995232	-0.002681732	0.001168251	-0.000675201	9.594726563	-1.049804688	1.452636719	-0.13408681	0.05841264	-0.033760122	-1.062744141	0.085205078	0.716552734	877.94	-33.24365176	-79.69842962	-149.5118399	-39
15934	0	0.386894226	-0.04996109	0.058495522	0.999995232	-0.002685547	0.001018524	-0.000763893	9.672355652	-1.249027252	1.462388039	-0.134277541	0.050926283	-0.038194713	-1.062255859	0.078613281	0.708496094	877.94	-32.66505617	-79.66795949	-150.4068686	-39
15935	0	0.387817383	-0.05267334	0.060302734	0.999999046	-0.00038147	0.000351906	-0.000431061	9.69543457	-1.316833496	1.507568359	-0.019073488	0.017595292	-0.021553041	-1.066650391	0.072265625	0.706542969	877.94	-32.23128538	-79.6791694	-150.8879139	-39
15936	0	0.382937431	-0.053061485	0.060408592	0.999999046	0.000283241	3.81E-06	-4.20E-05	9.573435783	-1.326537132	1.510214806	0.014162064	0.000190735	-0.002098084	-1.066894531	0.072265625	0.712158203	877.82	-32.04990616	-79.69908658	-151.0343862	-39
15937	0	0.383789063	-0.053039551	0.058776855	0.999999046	0.000408173	-0.00032711	0.000171661	9.594726563	-1.32598877	1.469421387	0.020408631	-0.016355515	0.008583069	-1.069091797	0.072265625	0.709472656	877.94	-32.0846666	-79.73732554	-150.9467379	-39
15938	0	0.388634682	-0.049338341	0.06252861	0.999999046	0.000946045	-0.000617981	0.000632286	9.715867043	-1.233458519	1.563215256	0.047302259	-0.030899056	0.031614312	-1.064453125	0.072021484	0.709228516	877.92	-32.40824437	-79.77474961	-150.5033626	-39
15939	0	0.386779785	-0.046203613	0.064331055	0.999999046	0.000465393	-0.000414848	0.000839233	9.669494629	-1.155090332	1.608276367	0.023269658	-0.02074242	0.041961678	-1.062255859	0.07421875	0.711669922	877.9	-32.83307188	-79.77847482	-150.0128145	-39
15940	0	0.38791275	-0.047893524	0.064479828	0.999999046	0.001065254	-0.000120163	0.000784874	9.697818756	-1.197338104	1.611995697	0.053262726	-0.00600815	0.03924371	-1.064697266	0.078857422	0.711669922	877.82	-33.06101136	-79.75593461	-149.6522125	-39
15941	0	0.382568359	-0.045410156	0.066040039	0.999999046	0.001243591	4.67E-05	0.000465393	9.564208984	-1.135253906	1.651000977	0.062179584	0.002336503	0.02326966	-1.064941406	0.083007813	0.708251953	877.9	-33.04211875	-79.7363784	-149.5216504	-39
15942	0	0.382941246	-0.051589012	0.064433098	0.999997139	0.002130508	-0.000162125	0.000682831	9.573531151	-1.289725304	1.610827446	0.10652551	-0.008106238	0.034141569	-1.0625	0.085205078	0.708007813	877.9	-33.11225202	-79.72236168	-149.1979503	-39
15943	0	0.386779785	-0.054931641	0.064331055	0.999993324	0.003234863	-0.000647545	0.000823975	9.669494629	-1.373291016	1.608276367	0.161743476	-0.032377305	0.04119881	-1.060546875	0.089599609	0.710449219	877.88	-33.30313437	-79.74497811	-148.6232025	-39
15944	0	0.380543709	-0.054490089	0.061442375	0.999993324	0.003230095	-0.000825882	0.000610352	9.51359272	-1.362252235	1.53605938	0.161505055	-0.041294177	0.030517637	-1.060791016	0.098388672	0.706787109	877.94	-33.45072409	-79.79700615	-148.0925821	-39
15945	0	0.385864258	-0.058410645	0.059692383	0.999991417	0.00384903	-0.001246452	0.000797272	9.646606445	-1.460266113	1.49230957	0.192452022	-0.062322793	0.039863699	-1.058837891	0.102783203	0.712158203	877.94	-33.78609595	-79.87609639	-147.2998389	-39
15946	0	0.39142704	-0.050696373	0.060142517	0.999987602	0.004749298	-0.000967026	0.00093174	9.785676003	-1.267409325	1.503562927	0.237465869	-0.048351484	0.046587179	-1.056640625	0.109130859	0.711425781	878	-34.00028897	-79.9187693	-146.525762	-39
15947	0	0.385437012	-0.038391113	0.059387207	0.999995232	0.002494812	-0.000601768	0.001552582	9.635925293	-0.959777832	1.484680176	0.124740788	-0.03008847	0.077629206	-1.0546875	0.120117188	0.707519531	877.88	-34.67267842	-79.8854522	-145.5480138	-39
15948	0	0.383612633	-0.041955948	0.062427521	0.999997139	0.00055027	-0.000461578	0.002002716	9.590315819	-1.048898697	1.560688019	0.027513525	-0.023078936	0.100135879	-1.055175781	0.126708984	0.712890625	877.88	-35.74336069	-79.80616933	-144.391985	-38
15949	0	0.391296387	-0.051208496	0.063598633	0.999998093	0.001072884	-0.000156403	0.001243591	9.782409668	-1.280212402	1.58996582	0.053644205	-0.007820133	0.062179594	-1.050537109	0.128662109	0.712402344	877.88	-36.23768902	-79.74622164	-143.7609886	-39
15950	0	0.388035774	-0.042769432	0.059477806	0.999997139	0.001934052	0.000196457	0.00057888	9.700894356	-1.069235802	1.486945152	0.096702642	0.009822852	0.028944035	-1.048339844	0.133056641	0.71484375	877.88	-36.15839177	-79.69794911	-143.6125086	-38
15951	0	0.385742188	-0.042175293	0.058288574	0.999999046	0.00025177	0.000184059	0.00056076	9.643554688	-1.054382324	1.457214355	0.012588502	0.009202958	0.028038027	-1.053222656	0.137695313	0.711914063	877.94	-36.26687061	-79.6518371	-143.4688612	-38
15952	0	0.385540962	-0.051795959	0.057356834	0.999999046	-0.000796318	0.000110626	0.000124931	9.638524055	-1.294898987	1.43392086	-0.039815907	0.005531312	0.006246567	-1.05078125	0.137451172	0.711669922	877.94	-36.30428448	-79.64158509	-143.5196348	-38
15953	0	0.38684082	-0.042663574	0.056274414	0.999999046	-0.000900269	0.000153542	0.000144958	9.671020508	-1.066589355	1.406860352	-0.045013434	0.007677079	0.007247926	-1.052978516	0.135498047	0.711914063	877.9	-36.34837885	-79.62591782	-143.5759854	-38
15954	0	0.384918213	-0.041719437	0.057292938	0.999993324	-0.00349617	0.000110626	0.000182152	9.622955322	-1.042985916	1.432323456	-0.17480886	0.005531322	0.009107608	-1.052978516	0.135253906	0.706298828	877.9	-36.72448948	-79.61157688	-143.596766	-38
15955	0	0.388977051	-0.052246094	0.061828613	0.999992371	-0.00373745	0.000125885	3.05E-05	9.72442627	-1.306152344	1.545715332	-0.186872918	0.006294265	0.001525882	-1.050292969	0.128662109	0.709472656	877.88	-37.04782712	-79.60569264	-143.6997346	-39
15956	0	0.386699677	-0.045770645	0.06115818	0.999992371	-0.003763199	0.000477791	-0.000163078	9.667491913	-1.144266129	1.528954506	-0.188160395	0.023889599	-0.008153935	-1.052490234	0.124267578	0.704345703	878.04	-37.14538355	-79.58072089	-144.0352619	-38
15957	0	0.383544922	-0.053100586	0.063842773	0.999987602	-0.004779816	0.000634193	-0.000335693	9.588623047	-1.327514648	1.596069336	-0.238991714	0.031709794	-0.016784733	-1.052246094	0.115722656	0.710693359	877.94	-37.2168821	-79.55279042	-144.5160265	-39
15958	0	0.388261795	-0.059022903	0.065663338	0.999994278	-0.003148079	0.00086689	-0.000421524	9.706544876	-1.475572586	1.641583443	-0.15740423	0.043344576	-0.02107624	-1.052001953	0.108886719	0.708251953	878	-36.97602269	-79.50849136	-145.1245595	-39
15959	0	0.386474609	-0.055541992	0.063110352	0.999993324	-0.003349304	0.000992775	-0.000663757	9.661865234	-1.388549805	1.577758789	-0.167465563	0.049638853	-0.033187936	-1.053955078	0.102539063	0.703369141	877.94	-36.59758554	-79.46800463	-145.8965859	-39
15960	0	0.382580757	-0.061452866	0.065348625	0.999994278	-0.003082275	0.000691414	-0.000676155	9.564518929	-1.53632164	1.63371563	-0.154114038	0.034570754	-0.033807813	-1.053466797	0.095947266	0.700927734	878	-36.2990496	-79.45437644	-146.5564117	-39
15961	0	0.383361816	-0.059692383	0.065490723	0.999999046	-0.000999451	0.000584602	-0.000473022	9.58404541	-1.49230957	1.637268066	-0.049972547	0.029230125	-0.023651129	-1.055419922	0.089355469	0.695800781	877.98	-35.90564929	-79.43534852	-147.070443	-39
15962	0	0.382912636	-0.056100845	0.063810349	0.999999046	-0.001237869	0.000463486	0.000361443	9.572815895	-1.402521133	1.595258713	-0.061893483	0.023174293	0.018072134	-1.057861328	0.089355469	0.696044922	877.88	-36.00141116	-79.3705331	-147.1144439	-39
15963	0	0.386108398	-0.06048584	0.065490723	0.999999046	-0.000743866	0.000390053	0.000247955	9.652709961	-1.512145996	1.637268066	-0.037193303	0.019502642	0.012397768	-1.057617188	0.084960938	0.696289063	877.98	-36.01369986	-79.31940749	-147.1861615	-39
15964	0	0.379804611	-0.052961349	0.066561699	0.999999046	-0.000344276	0.000352859	0.000240326	9.49511528	-1.324033737	1.664042473	-0.017213822	0.017642976	0.012016297	-1.057617188	0.087158203	0.693359375	877.94	-35.9909308	-79.271635	-147.2466548	-39
15965	0	0.384887695	-0.054992676	0.065917969	0.999999046	-0.000137329	4.77E-06	0.000404358	9.622192383	-1.374816895	1.647949219	-0.006866455	0.000238419	0.020217896	-1.057617188	0.087158203	0.690429688	877.88	-36.14963175	-79.24448722	-147.0984825	-39
15966	0	0.384476662	-0.054833412	0.065051079	0.999999046	0.000205994	4.77E-05	0.000114441	9.611916542	-1.370835304	1.62627697	0.010299683	0.002384186	0.005722046	-1.060058594	0.087158203	0.693359375	877.88	-36.11352404	-79.23242475	-147.108647	-39
15967	0	0.384094238	-0.057678223	0.065185547	0.999999046	-0.00018692	-0.000159264	-3.81E-05	9.602355957	-1.441955566	1.629638672	-0.009346008	-0.007963181	-0.001907349	-1.057617188	0.087158203	0.693359375	878	-36.1236844	-79.24924645	-147.1175198	-39
15968	0	0.387598038	-0.058589935	0.06644249	0.999999046	0.000823021	-0.000183105	-0.000145912	9.689950943	-1.464748383	1.661062241	0.041151052	-0.009155275	-0.007295609	-1.057617188	0.084960938	0.693603516	877.9	-35.97573236	-79.27492334	-147.1698964	-39
15969	0	0.381774902	-0.055053711	0.066101074	0.999998093	0.001530647	-0.000198364	-8.01E-05	9.544372559	-1.376342773	1.652526855	0.076532394	-0.009918217	-0.004005434	-1.057861328	0.087158203	0.696289063	877.98	-35.78502224	-79.29701928	-147.1831597	-39
15970	0	0.385532379	-0.056441307	0.065022469	0.999997139	0.002090454	-0.00034523	-0.00012207	9.638309479	-1.411032677	1.625561714	0.104522784	-0.017261518	-0.00610352	-1.057617188	0.087158203	0.690429688	877.92	-35.56264866	-79.33507356	-147.1636322	-39
15971	0	0.386535645	-0.053527832	0.065002441	0.999996185	0.002682686	-0.000244141	-0.000305176	9.663391113	-1.338195801	1.625061035	0.134134457	-0.012207046	-0.015258808	-1.057861328	0.091552734	0.695800781	877.9	-35.14562718	-79.37542937	-147.2728641	-39
15972	0	0.383914948	-0.054528236	0.065840721	0.999996185	0.002555847	-0.000472069	-2.67E-05	9.597873688	-1.36320591	1.646018028	0.127792502	-0.023603466	-0.001335146	-1.058105469	0.09375	0.692871094	877.98	-34.96243166	-79.41822264	-147.1591797	-39
15973	0	0.382385254	-0.053894043	0.065063477	0.999997139	0.002326965	-0.000319481	-0.000183105	9.559631348	-1.347351074	1.626586914	0.116348374	-0.01597406	-0.009155282	-1.055908203	0.098144531	0.692382813	877.94	-34.67373096	-79.45650878	-147.1793364	-39
15974	0	0.381958008	-0.055288315	0.06391716	0.999997139	0.002025604	-0.000488281	-0.0001297	9.548950195	-1.38220787	1.597929001	0.101280286	-0.02441408	-0.00648499	-1.058349609	0.098144531	0.6953125	877.88	-34.50675299	-79.50675984	-147.1111705	-39
15975	0	0.380737305	-0.052429199	0.062866211	0.999996185	0.002602577	-0.000511169	4.96E-05	9.518432617	-1.31072998	1.571655273	0.130129013	-0.025558502	0.002479556	-1.058349609	0.102539063	0.697753906	877.92	-34.37426122	-79.54722861	-146.9405581	-39
15976	0	0.383972168	-0.050541878	0.065055847	0.999996185	0.002540588	-0.00045681	0.000460625	9.599304199	-1.263546944	1.626396179	0.127029565	-0.022840526	0.023031261	-1.056152344	0.104736328	0.694580078	877.94	-34.44126751	-79.55558313	-146.5745406	-39
15977	0	0.386413574	-0.051696777	0.062683105	0.999995232	0.002723694	-0.000304222	0.000534058	9.660339355	-1.292419434	1.567077637	0.136184869	-0.015211125	0.026702916	-1.056396484	0.109130859	0.697265625	877.88	-34.47236461	-79.54442279	-146.2236425	-39
15978	0	0.384017944	-0.050416946	0.063881874	0.999996185	0.002514839	-0.000361443	0.000606537	9.600448608	-1.26042366	1.597046852	0.125742102	-0.018072149	0.030326878	-1.056640625	0.113525391	0.696777344	877.9	-34.58468401	-79.53357116	-145.8144583	-39
15979	0	0.387390137	-0.048950195	0.062133789	0.999996185	0.002408028	-0.000347137	0.000408173	9.684753418	-1.223754883	1.553344727	0.120401505	-0.01735689	0.020408651	-1.059082031	0.120117188	0.693603516	877.94	-34.60309058	-79.53404847	-145.5129601	-39
15980	0	0.386171341	-0.049696922	0.062531471	0.999997139	0.002112389	-0.000303268	0.000136375	9.654283524	-1.242423058	1.563286781	0.105619511	-0.015163433	0.006818777	-1.0546875	0.122070313	0.696044922	878	-34.50172767	-79.54790029	-145.367883	-39
15981	0	0.384887695	-0.046508789	0.062133789	0.999996185	0.002369881	-0.000522614	-0.000106812	9.622192383	-1.162719727	1.553344727	0.11849415	-0.026130702	-0.005340581	-1.057128906	0.126708984	0.692871094	877.86	-34.32327725	-79.59821148	-145.2710723	-39
15982	0	0.387768745	-0.045280457	0.061515808	0.999999046	0.001085281	-0.000482559	-0.000263214	9.694218636	-1.132011414	1.537895203	0.054264082	-0.024127966	-0.013160709	-1.0546875	0.126464844	0.692871094	878	-34.19658357	-79.65485221	-145.2714576	-39
15983	0	0.38494873	-0.047363281	0.060180664	0.999999046	1.53E-05	-0.000224113	-0.00030899	9.623718262	-1.184082031	1.504516602	0.000762939	-0.011205673	-0.015449524	-1.0546875	0.126708984	0.698486328	877.94	-34.07754752	-79.68987505	-145.3885921	-39
15984	0	0.382805824	-0.045172691	0.059276581	0.999999046	-0.000519753	-0.000165939	-0.000366211	9.570145607	-1.129317284	1.48191452	-0.025987627	-0.008296967	-0.018310548	-1.057128906	0.126708984	0.695800781	877.94	-33.96905553	-79.72303019	-145.5572064	-39
15985	0	0.386047363	-0.050720215	0.061279297	0.999999046	-0.001113892	-0.00020504	-0.000278473	9.651184082	-1.268005371	1.531982422	-0.055694593	-0.010252001	-0.013923648	-1.0546875	0.122314453	0.698730469	877.94	-33.98943402	-79.75406616	-145.6643096	-39
15986	0	0.385612488	-0.05119133	0.061127663	0.999999046	-0.000675201	-0.000146866	-0.000126839	9.640312195	-1.279783249	1.528191566	-0.033760074	-0.007343293	-0.006341935	-1.056884766	0.117919922	0.69921875	877.9	-34.02016076	-79.76965795	-145.7100663	-39
15987	0	0.386474609	-0.049926758	0.058349609	0.999999046	-0.001342773	-0.000231743	0.000179291	9.661865234	-1.248168945	1.458740234	-0.067138693	-0.011587147	0.008964541	-1.054443359	0.120117188	0.698974609	877.9	-34.32053492	-79.77357693	-145.5589395	-39
15988	0	0.387215614	-0.054748535	0.061501503	0.999999046	-0.001101494	-9.54E-06	0.000335693	9.680390358	-1.368713379	1.537537575	-0.055074704	-0.000476837	0.016784672	-1.054199219	0.115478516	0.696533203	877.94	-34.59752498	-79.74591258	-145.4039838	-39
15989	0	0.383605957	-0.049865723	0.06072998	0.999999046	-0.000705719	9.63E-05	0.000450134	9.590148926	-1.246643066	1.518249512	-0.035285954	0.004816056	0.022506717	-1.056640625	0.115722656	0.696533203	878.06	-34.85028119	-79.7005262	-145.2273991	-39
15990	0	0.387209892	-0.05115509	0.060487747	0.999999046	-0.000963211	-9.54E-06	0.000700951	9.680247307	-1.278877258	1.51219368	-0.048160564	-0.000476837	0.035047539	-1.056640625	0.115722656	0.696533203	877.94	-35.2987957	-79.64822829	-144.8817511	-39
15991	0	0.385253906	-0.049560547	0.060546875	0.999998093	-0.001700401	0.000385284	0.000255585	9.631347656	-1.239013672	1.513671875	-0.085020109	0.019264231	0.012779242	-1.056640625	0.115722656	0.699462891	877.94	-35.45900832	-79.58818703	-144.9147978	-39
15992	0	0.384507179	-0.053627014	0.061088562	0.999995232	-0.002955437	0.000267029	-4.77E-06	9.612679482	-1.340675354	1.52721405	-0.147772052	0.01335146	-0.000238419	-1.056396484	0.111328125	0.694091797	877.9	-35.67471808	-79.55635271	-145.0377983	-39
15993	0	0.384338379	-0.059204102	0.063354492	0.999998093	-0.001933098	0.000190735	-0.000148773	9.608459473	-1.480102539	1.583862305	-0.096654953	0.009536749	-0.007438664	-1.05859375	0.106933594	0.700195313	877.9	-35.73062092	-79.54086673	-145.2044313	-40
15994	0	0.383110046	-0.057937622	0.06492424	0.999999046	-0.000837326	2.48E-05	0.000155449	9.57775116	-1.448440552	1.623106003	-0.041866308	0.001239777	0.007772447	-1.05859375	0.104736328	0.694824219	878	-35.8759787	-79.51999012	-145.1525596	-40
15995	0	0.383605957	-0.059875488	0.065002441	0.999999046	-0.000225067	-0.000212669	0.000408173	9.590148926	-1.496887207	1.625061035	-0.011253357	-0.010633469	0.020408631	-1.05859375	0.104736328	0.694824219	877.94	-36.16551327	-79.50353303	-144.8827073	-40
15996	0	0.384013176	-0.057715416	0.063896179	0.999999046	0.000592232	1.91E-06	0.00065136	9.600329399	-1.442885399	1.59740448	0.029611591	9.54E-05	0.032567982	-1.056152344	0.104736328	0.700439453	877.9	-36.40397075	-79.45013511	-144.5696894	-39
15997	0	0.387023926	-0.054626465	0.063354492	0.999999046	0.000652313	-3.72E-05	0.000823975	9.675598145	-1.365661621	1.583862305	0.032615668	-0.001859665	0.041198738	-1.056396484	0.106933594	0.700195313	877.98	-36.73223131	-79.38803439	-144.1581668	-40
15998	0	0.383461952	-0.05334568	0.063149452	0.999998093	0.001429558	-6.96E-05	0.00058651	9.586548805	-1.333642006	1.578736305	0.071477919	-0.003480913	0.029325497	-1.056396484	0.109130859	0.697265625	877.94	-36.86386693	-79.34470562	-143.8560601	-40
15999	0	0.383666992	-0.052856445	0.063476563	0.999998093	0.001664162	-0.000244141	0.000553131	9.591674805	-1.321411133	1.586914063	0.083208128	-0.012207038	0.02765657	-1.054199219	0.113525391	0.699462891	877.88	-37.01438939	-79.31934015	-143.5070801	-39
