Counter	Temperature	VelInc_X	VelInc_Y	VelInc_Z	OriInc_w	OriInc_x	OriInc_y	OriInc_z	Acc_X	Acc_Y	Acc_Z	Gyr_X	Gyr_Y	Gyr_Z	Mag_X	Mag_Y	Mag_Z	Pressure	Roll	Pitch	Yaw	RSSI
11525	0	0.360107422	-0.150634766	0.04864502	0.999999046	-0.000617981	6.20E-05	-0.000888824	9.002685547	-3.765869141	1.216125488	-0.030899054	0.003099442	-0.044441232	-0.794677734	-0.083251953	0.824707031	892.56	-72.10417713	-65.81727742	-122.4003994	-73
11526	0	0.361348152	-0.151823044	0.048073769	0.999999046	-0.000967026	7.82E-05	-0.00073719	9.033703804	-3.795576096	1.201844215	-0.0483513	0.003910066	-0.036859521	-0.796875	-0.085449219	0.822021484	892.62	-72.12982692	-65.90484717	-122.4981176	-73
11527	0	0.360900879	-0.152832031	0.048156738	0.999999046	-0.001102448	0.000294685	-0.000488281	9.022521973	-3.820800781	1.203918457	-0.05512239	0.014734272	-0.024414069	-0.794677734	-0.087646484	0.824951172	892.64	-72.13741577	-65.95758846	-122.6323607	-73
11528	0	0.359619141	-0.154112816	0.047966003	0.999999046	-0.000977516	0.000268936	-0.000324249	8.990478516	-3.852820396	1.199150085	-0.048875818	0.01344681	-0.016212466	-0.796630859	-0.093994141	0.820068359	892.52	-72.14968556	-65.99317302	-122.7463234	-73
11529	0	0.35949707	-0.153869629	0.047546387	0.999999046	-0.000617981	0.000149727	-0.000289917	8.987426758	-3.846740723	1.188659668	-0.03089905	0.007486344	-0.014495851	-0.796875	-0.089599609	0.825439453	892.58	-72.15256333	-66.02903282	-122.824683	-73
11530	0	0.360304832	-0.155246735	0.048193932	0.999999046	-0.000331879	9.16E-05	-0.000324249	9.007620811	-3.881168365	1.204848289	-0.016593934	0.004577637	-0.016212464	-0.796630859	-0.091796875	0.825439453	892.62	-72.1341087	-66.07043945	-122.8907683	-73
11531	0	0.361206055	-0.153686523	0.047058105	0.999999046	-0.000415802	0.0001688	5.72E-05	9.030151367	-3.842163086	1.176452637	-0.020790101	0.008440018	0.002861023	-0.794189453	-0.094238281	0.822753906	892.74	-72.13654616	-66.06737901	-122.9447219	-73
11532	0	0.359951019	-0.154194832	0.047172546	0.999999046	-0.000824928	0.000123978	0.000430107	8.998775482	-3.854870796	1.17931366	-0.04124642	0.006198884	0.021505359	-0.796386719	-0.094238281	0.817138672	892.62	-72.22646093	-66.0250417	-122.9544199	-73
11533	0	0.36151123	-0.153930664	0.046508789	0.999999046	-0.000297546	-8.68E-05	0.000629425	9.037780762	-3.848266602	1.162719727	-0.014877321	-0.004339218	0.031471255	-0.796386719	-0.096191406	0.822998047	892.58	-72.32323182	-65.96819449	-122.8903841	-73
11534	0	0.359923363	-0.152703285	0.046049118	0.999999046	0.000173569	-0.000307083	0.000330925	8.998084068	-3.81758213	1.151227951	0.008678437	-0.015354157	0.01654625	-0.799072266	-0.091796875	0.822753906	892.68	-72.39654863	-65.95149057	-122.7927104	-73
11535	0	0.360961914	-0.15234375	0.047241211	0.999999046	0.000484467	-9.44E-05	0.000217438	9.024047852	-3.80859375	1.181030273	0.024223329	-0.004720688	0.010871888	-0.796630859	-0.093994141	0.822753906	892.62	-72.3732589	-65.93974975	-122.7620593	-73
11536	0	0.361758232	-0.152884483	0.046098709	0.999999046	0.000542641	3.43E-05	0.000311852	9.043955803	-3.822112083	1.152467728	0.027132036	0.001716614	0.015592576	-0.796630859	-0.091796875	0.825439453	892.7	-72.31928933	-65.91320786	-122.7574945	-73
11537	0	0.361450195	-0.152038574	0.048828125	0.999999046	0.000827789	-0.000155449	0.000572205	9.036254883	-3.800964355	1.220703125	0.041389472	-0.007772447	0.028610234	-0.796630859	-0.08984375	0.819580078	892.64	-72.29900673	-65.86482727	-122.6804912	-73
11538	0	0.360681534	-0.151272774	0.04872036	0.999999046	0.00079155	-0.000177383	0.000507355	9.017038345	-3.781819344	1.218008995	0.03957749	-0.008869172	0.025367741	-0.796630859	-0.091796875	0.819824219	892.58	-72.2828439	-65.82431177	-122.6037409	-73
11539	0	0.359191895	-0.151489258	0.048095703	0.999999046	0.000743866	1.62E-05	0.000518799	8.979797363	-3.787231445	1.202392578	0.037193303	0.000810623	0.025939945	-0.796875	-0.087402344	0.825195313	892.68	-72.2258045	-65.77580075	-122.5771442	-73
11540	0	0.361048698	-0.150024414	0.04710865	0.999999046	0.000653267	0.000268936	0.000445366	9.026217461	-3.750610352	1.177716255	0.032663349	0.013446809	0.022268298	-0.796875	-0.087646484	0.819580078	892.62	-72.11228314	-65.72657784	-122.6243027	-73
11541	0	0.359558105	-0.15020752	0.046447754	0.999999046	0.000312805	0.000336647	0.000335693	8.988952637	-3.755187988	1.161193848	0.01564026	0.016832353	0.016784669	-0.799316406	-0.085205078	0.822265625	892.62	-72.01321188	-65.6870018	-122.6981143	-73
11542	0	0.359181404	-0.1507864	0.046050072	0.999999046	0.000448227	0.000101089	0.000228882	8.979535103	-3.769659996	1.151251793	0.022411347	0.005054474	0.011444092	-0.801757813	-0.083007813	0.819335938	892.56	-71.94742933	-65.66746993	-122.7185076	-73
11543	0	0.360473633	-0.148864746	0.04473877	0.999999046	0.000476837	6.96E-05	0.000118256	9.01184082	-3.721618652	1.118469238	0.023841859	0.003480911	0.005912781	-0.799316406	-0.083251953	0.81640625	892.52	-71.87758382	-65.66133119	-122.7399228	-73
11544	0	0.359516144	-0.148907661	0.04511261	0.999999046	-0.000105858	6.87E-05	-8.58E-06	8.987903595	-3.722691536	1.127815247	-0.005292892	0.003433228	-0.000429153	-0.799316406	-0.081054688	0.819091797	892.62	-71.8649923	-65.66923717	-122.7713424	-73
11545	0	0.359436035	-0.15057373	0.046691895	0.999999046	-0.000232697	-0.000102043	-6.10E-05	8.985900879	-3.764343262	1.167297363	-0.011634827	-0.005102158	-0.003051758	-0.799316406	-0.081054688	0.819091797	892.58	-71.90403583	-65.6890401	-122.762117	-73
11546	0	0.359158516	-0.15055275	0.047401428	0.999999046	-0.000253677	-0.000102997	-0.000286102	8.978962898	-3.763818741	1.185035706	-0.012683869	-0.005149841	-0.014305115	-0.797119141	-0.083251953	0.822021484	892.62	-71.92802058	-65.73346641	-122.7720603	-73
11547	0	0.358825684	-0.151611328	0.048278809	0.999999046	-0.000366211	-0.000105858	-0.000537872	8.97064209	-3.790283203	1.206970215	-0.018310548	-0.005292893	-0.026893618	-0.799316406	-0.083007813	0.822021484	892.64	-71.94566385	-65.80541605	-122.8030743	-72
11548	0	0.358817101	-0.153153419	0.048272133	0.999999046	-0.000342369	-0.000148773	-0.00067997	8.970427513	-3.828835487	1.206803322	-0.017118456	-0.00743866	-0.033998493	-0.796875	-0.087646484	0.819580078	892.58	-71.9596809	-65.89427271	-122.8355275	-73
11549	0	0.359313965	-0.153869629	0.047729492	0.999999046	-0.000144958	-0.000128746	-0.000652313	8.982849121	-3.846740723	1.193237305	-0.007247925	-0.006437302	-0.032615664	-0.799316406	-0.087402344	0.825195313	892.58	-71.94835284	-65.97926194	-122.8705051	-73
11550	0	0.359345436	-0.154819489	0.04783535	0.999999046	-0.000322342	9.54E-06	-0.00038147	8.983635902	-3.870487213	1.195883751	-0.016117097	0.000476837	-0.019073487	-0.796875	-0.087646484	0.822265625	892.64	-71.94509459	-66.02961723	-122.9188973	-73
11551	0	0.359924316	-0.15625	0.047485352	0.999999046	-0.000492096	8.87E-05	-0.000209808	8.99810791	-3.90625	1.187133789	-0.024604799	0.004434586	-0.010490418	-0.796875	-0.089599609	0.825439453	892.58	-71.95572159	-66.05819041	-122.9733744	-73
11552	0	0.359614372	-0.155962944	0.047150612	0.999999046	-0.000130653	8.77E-05	-0.000148773	8.990359306	-3.899073601	1.178765297	-0.006532669	0.004386902	-0.00743866	-0.796630859	-0.08984375	0.819580078	892.54	-71.93020611	-66.07988211	-123.0224258	-73
11553	0	0.357727051	-0.155944824	0.048706055	0.999999046	-7.63E-05	-9.44E-05	-3.05E-05	8.94317627	-3.898620605	1.217651367	-0.003814697	-0.004720688	-0.001525879	-0.796875	-0.091796875	0.820068359	892.62	-71.95269608	-66.09483478	-123.0123162	-73
11554	0	0.35939312	-0.155564308	0.046416283	0.999999046	0.000148773	-9.35E-05	0.000197411	8.984827995	-3.889107704	1.160407066	0.00743866	-0.004673004	0.009870529	-0.796875	-0.091796875	0.820068359	892.56	-71.96771521	-66.08467898	-122.9821826	-73
11555	0	0.360961914	-0.155334473	0.04498291	0.999999046	7.25E-05	-0.000109673	0.000514984	9.024047852	-3.883361816	1.124572754	0.003623963	-0.005483628	0.025749208	-0.799316406	-0.089599609	0.822753906	892.58	-72.02119702	-66.04031527	-122.9192962	-73
11556	0	0.360936165	-0.153441429	0.046755791	0.999999046	-0.000159264	-0.000175476	0.00087738	9.023404121	-3.836035728	1.168894768	-0.007963182	-0.008773805	0.043869025	-0.796875	-0.08984375	0.819824219	892.64	-72.14584947	-65.95862994	-122.8078253	-74
11557	0	0.358398438	-0.152648926	0.046936035	0.999999046	-0.000259399	-0.000163078	0.000984192	8.959960938	-3.816223145	1.173400879	-0.012969973	-0.008153917	0.049209603	-0.796875	-0.089599609	0.822753906	892.68	-72.2865007	-65.86467527	-122.6912132	-73
11558	0	0.360253334	-0.15075779	0.045640945	0.999999046	-7.82E-05	-0.000238419	0.000887871	9.006333351	-3.76894474	1.141023636	-0.003910065	-0.011920931	0.044393546	-0.799316406	-0.087402344	0.819824219	892.64	-72.41639568	-65.78384312	-122.5637416	-74
11559	0	0.360595703	-0.150268555	0.046569824	0.999999046	-0.00012207	-0.000250816	0.000705719	9.014892578	-3.756713867	1.164245605	-0.006103516	-0.012540818	0.035285953	-0.797119141	-0.087646484	0.822509766	892.62	-72.53948226	-65.72336875	-122.4489947	-74
11560	0	0.359126091	-0.149627686	0.046962738	0.999999046	2.19E-05	-0.000268936	0.000674248	8.978152275	-3.740692139	1.174068451	0.001096726	-0.013446809	0.03371239	-0.797119141	-0.087402344	0.825439453	892.64	-72.64729153	-65.66701185	-122.3327737	-74
11561	0	0.360534668	-0.147705078	0.048217773	0.999999046	-6.48E-05	-0.000277519	0.000537872	9.013366699	-3.692626953	1.205444336	-0.003242493	-0.013875962	0.026893617	-0.794921875	-0.085449219	0.822265625	892.62	-72.75591101	-65.62604096	-122.2264092	-74
11562	0	0.361010551	-0.14846611	0.045860291	0.999999046	-0.000335693	-5.72E-05	0.00043869	9.025263786	-3.711652756	1.146507263	-0.016784669	-0.002861023	0.02193451	-0.794921875	-0.085449219	0.822265625	892.62	-72.83445994	-65.58866923	-122.1871157	-74
11563	0	0.360961914	-0.149658203	0.046630859	0.999999046	-0.000797272	2.38E-05	0.000156403	9.024047852	-3.741455078	1.165771484	-0.039863591	0.001192093	0.00782013	-0.794921875	-0.087646484	0.830810547	892.58	-72.9249403	-65.57967898	-122.1923394	-74
11564	0	0.359446526	-0.151859283	0.046160698	0.999999046	-0.00036335	-0.000133514	-3.53E-05	8.986163139	-3.796482086	1.154017448	-0.018167496	-0.00667572	-0.001764298	-0.794921875	-0.085449219	0.824951172	892.64	-72.98931137	-65.59707671	-122.1717259	-74
11565	0	0.359619141	-0.151794434	0.047668457	0.999999046	-8.77E-05	-0.000247002	-0.000286102	8.990478516	-3.79486084	1.191711426	-0.004386902	-0.012350083	-0.014305115	-0.794677734	-0.08984375	0.828125	892.62	-73.0307249	-65.64582732	-122.1421117	-74
11566	0	0.359241486	-0.15294075	0.047219276	0.999999046	-0.000253677	-0.000116348	-0.000473022	8.98103714	-3.823518753	1.180481911	-0.012683869	-0.005817414	-0.023651124	-0.797119141	-0.087646484	0.822509766	892.62	-73.04550688	-65.71069392	-122.1625274	-74
11567	0	0.360290527	-0.155151367	0.047729492	0.999999046	-0.000263214	-3.34E-05	-0.000518799	9.007263184	-3.87878418	1.193237305	-0.013160706	-0.00166893	-0.025939943	-0.794677734	-0.087646484	0.825195313	892.54	-73.03751019	-65.77770289	-122.2084966	-74
11568	0	0.359783173	-0.155352592	0.046890259	0.999999046	-0.000195503	5.91E-05	-0.00030899	8.994579315	-3.883814812	1.17225647	-0.009775162	0.00295639	-0.015449524	-0.794677734	-0.091796875	0.831298828	892.68	-73.01453838	-65.81848467	-122.2625575	-74
11569	0	0.35925293	-0.156311035	0.046264648	0.999999046	-0.00019455	4.67E-05	-0.000247955	8.981323242	-3.907775879	1.156616211	-0.009727478	0.002336502	-0.012397766	-0.794677734	-0.08984375	0.822509766	892.68	-72.99891933	-65.85279657	-122.308662	-74
11570	0	0.358776093	-0.156150818	0.044038773	0.999999046	9.92E-05	-5.34E-05	-0.000184059	8.969402313	-3.903770447	1.100969315	0.004959106	-0.002670288	-0.009202957	-0.794677734	-0.092041016	0.828369141	892.64	-72.97909126	-65.88328928	-122.3224269	-74
11571	0	0.359619141	-0.155212402	0.045715332	0.999999046	0.00012207	-0.000197411	-0.00018692	8.990478516	-3.880310059	1.142883301	0.006103516	-0.009870529	-0.009346008	-0.796875	-0.093994141	0.828613281	892.62	-72.99171238	-65.91878371	-122.2982527	-73
11572	0	0.358534813	-0.154579163	0.045610428	0.999999046	9.63E-05	-0.000259399	2.29E-05	8.963370323	-3.864479065	1.140260696	0.004816055	-0.012969971	0.001144409	-0.794433594	-0.094238281	0.822998047	892.58	-73.03829528	-65.93321258	-122.2403795	-74
11573	0	0.360107422	-0.155029297	0.044799805	0.999999046	-1.14E-05	-0.000243187	0.000236511	9.002685547	-3.875732422	1.119995117	-0.000572205	-0.012159348	0.011825562	-0.794677734	-0.092041016	0.825439453	892.58	-73.1093548	-65.92353877	-122.1685946	-74
11574	0	0.359201431	-0.154224396	0.045597076	0.999999046	-3.43E-05	-0.000312805	0.000507355	8.980035782	-3.855609894	1.13992691	-0.001716614	-0.01564026	0.025367738	-0.790039063	-0.08984375	0.827880859	892.58	-73.22006484	-65.8863175	-122.0555136	-74
11575	0	0.360229492	-0.152954102	0.045288086	0.999999046	0.000202179	-0.000300407	0.000415802	9.005737305	-3.823852539	1.132202148	0.010108948	-0.015020371	0.020790101	-0.794677734	-0.08984375	0.828125	892.54	-73.29351433	-65.85865042	-121.9542504	-74
11576	0	0.359579086	-0.153235435	0.045010567	0.999999046	0.000208855	-0.000284195	0.000254631	8.989477158	-3.830885887	1.125264168	0.010442734	-0.014209748	0.012731553	-0.792236328	-0.092041016	0.825439453	892.64	-73.35019009	-65.84807285	-121.8711662	-74
11577	0	0.359069824	-0.152954102	0.045227051	0.999999046	0.000148773	-0.000163078	0.00030899	8.976745605	-3.823852539	1.13067627	0.00743866	-0.008153916	0.015449524	-0.792236328	-0.092041016	0.828369141	892.56	-73.38788892	-65.82750867	-121.816147	-74
11578	0	0.360760689	-0.152858734	0.046740532	0.999999046	-5.72E-06	-0.000236511	0.00037384	9.01901722	-3.821468353	1.168513298	-0.000286102	-0.011825562	0.018692017	-0.790039063	-0.08984375	0.827880859	892.54	-73.46555647	-65.8022097	-121.7361573	-74
11579	0	0.360778809	-0.152099609	0.045776367	0.999999046	0.000137329	-0.00014019	0.000255585	9.019470215	-3.802490234	1.14440918	0.006866455	-0.007009506	0.012779236	-0.792480469	-0.087646484	0.833496094	892.58	-73.49435398	-65.78679979	-121.6911494	-74
11580	0	0.360041618	-0.151783943	0.044678688	0.999999046	-0.000338554	-2.29E-05	0.00030899	9.001040459	-3.794598579	1.116967201	-0.01692772	-0.001144409	0.015449524	-0.790283203	-0.087646484	0.830566406	892.64	-73.55269979	-65.76177834	-121.673745	-74
11581	0	0.360839844	-0.15246582	0.043518066	0.999999046	9.54E-05	7.34E-05	0.00012207	9.020996094	-3.811645508	1.08795166	0.004768372	0.003671646	0.006103516	-0.792236328	-0.08984375	0.825195313	892.54	-73.52432294	-65.75425971	-121.6981747	-74
11582	0	0.359941483	-0.151569366	0.04341507	0.999999046	8.39E-05	7.82E-05	-5.44E-05	8.998537064	-3.789234161	1.08537674	0.004196167	0.003910065	-0.002717972	-0.790039063	-0.08984375	0.830810547	892.62	-73.48335732	-65.76607997	-121.7369243	-74
11583	0	0.360534668	-0.153381348	0.043212891	0.999999046	-0.00012207	2.38E-05	4.20E-05	9.013366699	-3.834533691	1.080322266	-0.006103516	0.001192093	0.002098084	-0.792480469	-0.087646484	0.825195313	892.62	-73.48632247	-65.76912472	-121.7536166	-75
11584	0	0.360702515	-0.152140617	0.04331398	0.999999046	-5.44E-05	3.24E-05	0.000133514	9.017562866	-3.803515434	1.082849503	-0.002717972	0.001621246	0.00667572	-0.794677734	-0.08984375	0.825439453	892.62	-73.48610581	-65.7619283	-121.7659318	-74
11585	0	0.359008789	-0.152099609	0.043884277	0.999999046	-0.000179291	5.82E-05	0.000213623	8.975219727	-3.802490234	1.097106934	-0.008964539	0.002908707	0.010681152	-0.792480469	-0.08984375	0.828125	892.62	-73.49969411	-65.74514928	-121.7781428	-74
11586	0	0.36003685	-0.151659012	0.043748856	0.999999046	-0.000221252	4.20E-05	0.000121117	9.000921249	-3.791475296	1.09372139	-0.011062622	0.002098084	0.006055832	-0.792480469	-0.087646484	0.827880859	892.62	-73.51533254	-65.73916752	-121.7927692	-74
11587	0	0.360900879	-0.152770996	0.04284668	0.999999046	-0.000434875	5.82E-05	-5.72E-05	9.022521973	-3.819274902	1.071166992	-0.021743775	0.002908707	-0.002861023	-0.794677734	-0.08984375	0.828125	892.62	-73.53873717	-65.75234208	-121.8263207	-74
11588	0	0.360302925	-0.154416084	0.043302536	0.999999046	-0.000115395	0.000137329	-0.000106812	9.007573128	-3.860402107	1.0825634	-0.00576973	0.006866455	-0.005340576	-0.792480469	-0.092041016	0.831054688	892.62	-73.50271166	-65.76837705	-121.8847569	-74
11589	0	0.358703613	-0.154602051	0.046203613	0.999999046	-3.05E-05	1.24E-05	5.72E-05	8.967590332	-3.86505127	1.155090332	-0.001525879	0.000619888	0.002861023	-0.792236328	-0.092041016	0.825439453	892.64	-73.49906378	-65.77034531	-121.8975873	-74
11590	0	0.360393524	-0.152876854	0.044675827	0.999999046	-4.20E-05	8.77E-05	3.43E-05	9.009838104	-3.821921349	1.116895676	-0.002098083	0.004386902	0.001716614	-0.792480469	-0.08984375	0.831054688	892.68	-73.47658079	-65.77240772	-121.9311504	-74
11591	0	0.358520508	-0.153259277	0.043151855	0.999999046	-0.000312805	0.000172615	-0.000190735	8.963012695	-3.831481934	1.078796387	-0.015640259	0.008630753	-0.009536743	-0.792236328	-0.092041016	0.828369141	892.56	-73.44816778	-65.79641513	-122.0059886	-74
11592	0	0.35801506	-0.156019211	0.044214249	0.999999046	-0.000178337	0.000179291	-0.000202179	8.950376511	-3.90048027	1.105356216	-0.008916855	0.008964539	-0.010108948	-0.792236328	-0.094238281	0.831298828	892.62	-73.40185309	-65.82128227	-122.0835624	-74
11593	0	0.359069824	-0.155883789	0.043945313	0.999999046	-0.000118256	-2.19E-05	8.39E-05	8.976745605	-3.897094727	1.098632813	-0.005912781	-0.001096725	0.004196167	-0.796875	-0.091796875	0.825683594	892.62	-73.41879891	-65.82117175	-122.0847004	-73
11594	0	0.360082626	-0.157114983	0.043829918	0.999999046	-0.000133514	0.000127792	0.00030899	9.002065659	-3.927874565	1.095747948	-0.00667572	0.006389618	0.015449524	-0.792480469	-0.092041016	0.831054688	892.62	-73.41745438	-65.79128614	-122.10674	-73
11595	0	0.358520508	-0.15637207	0.043823242	0.999999046	9.16E-05	-9.82E-05	0.000328064	8.963012695	-3.909301758	1.095581055	0.004577637	-0.004911423	0.016403199	-0.794677734	-0.092041016	0.828369141	892.62	-73.44705015	-65.7665459	-122.0674773	-73
11596	0	0.359402657	-0.156478882	0.043292046	0.999999046	0.000224113	-0.000196457	0.000483513	8.985066414	-3.911972046	1.08230114	0.011205674	-0.009822846	0.024175645	-0.794677734	-0.092041016	0.828369141	892.62	-73.49677241	-65.72780469	-121.9898161	-73
11597	0	0.359741211	-0.155639648	0.043823242	0.999999046	0.000255585	-0.000277519	0.000534058	8.993530273	-3.890991211	1.095581055	0.012779237	-0.013875962	0.026702883	-0.794677734	-0.08984375	0.828125	892.58	-73.56613234	-65.68604805	-121.8863921	-74
11598	0	0.359477997	-0.155268669	0.04553318	0.999999046	0.000516891	-0.000478745	0.000430107	8.986949921	-3.881716728	1.138329506	0.025844577	-0.023937228	0.021505358	-0.794677734	-0.08984375	0.825439453	892.68	-73.64663397	-65.66211312	-121.738709	-75
11599	0	0.35925293	-0.152526855	0.044250488	0.999999046	0.000545502	-0.000338554	0.000400543	8.981323242	-3.813171387	1.106262207	0.027275088	-0.016927721	0.020027163	-0.790283203	-0.087646484	0.830566406	892.54	-73.68736505	-65.63693408	-121.6296332	-75
11600	0	0.360442162	-0.153255463	0.04527092	0.999999046	0.000199318	-0.000110626	0.000464439	9.011054039	-3.831386566	1.131772995	0.009965897	-0.005531311	0.023221971	-0.792480469	-0.087646484	0.830810547	892.56	-73.7165855	-65.59744276	-121.5772884	-76
11601	0	0.359802246	-0.151916504	0.044250488	0.999999046	0.000213623	-0.00014019	0.000190735	8.995056152	-3.797912598	1.106262207	0.010681153	-0.007009506	0.009536743	-0.790283203	-0.085449219	0.830566406	892.58	-73.73172024	-65.5891459	-121.537882	-75
11602	0	0.361343384	-0.152646065	0.044579506	0.999999046	0.000226974	-0.00019455	0.000270844	9.033584595	-3.816151619	1.114487648	0.011348725	-0.009727478	0.013542176	-0.790283203	-0.085449219	0.833251953	892.54	-73.76395913	-65.57391309	-121.4780031	-76
11603	0	0.360107422	-0.151794434	0.044067383	0.999999046	6.87E-05	-6.39E-05	0.000297546	9.002685547	-3.79486084	1.10168457	0.003433228	-0.003194809	0.01487732	-0.792480469	-0.085449219	0.827636719	892.62	-73.78437702	-65.55170729	-121.4522679	-75
11604	0	0.358801842	-0.152551651	0.046971321	0.999999046	0.000136375	-8.96E-05	4.48E-05	8.970046043	-3.813791275	1.174283028	0.006818771	-0.004482269	0.002241135	-0.790283203	-0.085449219	0.827636719	892.58	-73.7849925	-65.55819758	-121.4393861	-75
11605	0	0.358398438	-0.152526855	0.044494629	0.999999046	0.000301361	-0.000166893	-8.39E-05	8.959960938	-3.813171387	1.112365723	0.015068055	-0.00834465	-0.004196167	-0.790283203	-0.085449219	0.827636719	892.68	-73.77618697	-65.58141289	-121.4161436	-75
11606	0	0.359170914	-0.15207386	0.044220924	0.999999046	6.68E-05	2.10E-05	-9.63E-05	8.979272842	-3.801846504	1.105523109	0.00333786	0.001049042	-0.004816055	-0.792480469	-0.085449219	0.827636719	892.58	-73.74770778	-65.60009133	-121.4441443	-73
11607	0	0.360473633	-0.155029297	0.045349121	0.999999046	-0.000114441	0.000145912	-0.00019455	9.01184082	-3.875732422	1.133728027	-0.005722046	0.007295609	-0.009727478	-0.790283203	-0.085449219	0.833251953	892.64	-73.70250641	-65.6255453	-121.5117583	-73
11608	0	0.360337257	-0.154533386	0.043037415	0.999999046	-1.43E-05	-6.29E-05	2.57E-05	9.008431435	-3.863334656	1.075935364	-0.000715256	-0.003147125	0.00128746	-0.792480469	-0.085449219	0.827636719	892.54	-73.71222544	-65.63350247	-121.5077393	-73
11609	0	0.358154297	-0.155090332	0.045593262	0.999999046	-9.92E-05	-3.34E-05	0.000171661	8.953857422	-3.877258301	1.139831543	-0.004959106	-0.00166893	0.008583069	-0.792724609	-0.085449219	0.830566406	892.58	-73.73466712	-65.62438141	-121.4999099	-72
11610	0	0.359751701	-0.154368401	0.044560432	0.999999046	8.39E-05	4.39E-05	1.53E-05	8.993792534	-3.859210014	1.114010811	0.004196167	0.002193451	0.000762939	-0.790283203	-0.085449219	0.830566406	892.58	-73.7062031	-65.62998903	-121.5245658	-72
11611	0	0.358886719	-0.15612793	0.043701172	0.999999046	-0.000240326	0.000271797	-0.000106812	8.972167969	-3.903198242	1.092529297	-0.012016297	0.013589859	-0.005340576	-0.792480469	-0.085449219	0.827636719	892.52	-73.65094095	-65.64159221	-121.6198754	-72
11612	0	0.357918739	-0.155768394	0.044368744	0.999999046	-0.000153542	9.35E-05	4.10E-05	8.947968483	-3.894209862	1.109218597	-0.007677078	0.004673004	0.0020504	-0.790283203	-0.085449219	0.827636719	892.62	-73.63955825	-65.6425782	-121.655575	-71
11613	0	0.359863281	-0.156738281	0.04473877	0.999999046	-0.000198364	0.000115395	0.00025177	8.996582031	-3.918457031	1.118469238	-0.009918213	0.00576973	0.012588501	-0.792724609	-0.083251953	0.830322266	892.62	-73.64303256	-65.61958122	-121.6795873	-71
11614	0	0.360322952	-0.157120705	0.044270515	0.999999046	-0.00025177	0.000228882	0.00025177	9.008073807	-3.928017616	1.106762886	-0.012588501	0.011444092	0.012588501	-0.794921875	-0.085449219	0.830810547	892.54	-73.62522333	-65.59282705	-121.7348363	-71
11615	0	0.358398438	-0.158081055	0.043518066	0.999999046	-9.92E-05	0.000103951	0.000232697	8.959960938	-3.952026367	1.08795166	-0.004959107	0.005197525	0.011634827	-0.792480469	-0.087646484	0.827880859	892.68	-73.6191005	-65.57204839	-121.7591417	-72
11616	0	0.357705116	-0.15789032	0.043865204	0.999999046	0.000483513	-0.000127792	0.000305176	8.942627907	-3.947257996	1.096630096	0.024175645	-0.006389618	0.01525879	-0.792480469	-0.085449219	0.824951172	892.6	-73.60761513	-65.55063795	-121.716095	-73
11617	0	0.359985352	-0.156066895	0.041320801	0.999999046	0.000354767	-2.57E-05	0.000526428	8.999633789	-3.901672363	1.03302002	0.017738343	-0.00128746	0.026321413	-0.792480469	-0.085449219	0.827636719	892.54	-73.60230334	-65.50162615	-121.6824806	-73
11618	0	0.359762192	-0.155500412	0.043486595	0.999999046	-0.000179291	0.00012207	0.000536919	8.994054794	-3.8875103	1.087164879	-0.008964539	0.006103516	0.026845934	-0.794921875	-0.085449219	0.824951172	892.54	-73.62333985	-65.44670928	-121.6881041	-72
11619	0	0.358093262	-0.155334473	0.044494629	0.999999046	-5.34E-05	-2.19E-05	0.000434875	8.952331543	-3.883361816	1.112365723	-0.002670288	-0.001096725	0.021743775	-0.792724609	-0.083251953	0.827636719	892.64	-73.65729996	-65.40767001	-121.6617649	-72
11620	0	0.359852791	-0.154615402	0.043728828	0.999999046	0.00020504	-2.10E-05	0.000311852	8.996319771	-3.865385056	1.093220711	0.010251999	-0.001049042	0.015592575	-0.794921875	-0.083251953	0.827636719	892.54	-73.65272627	-65.38222425	-121.6459776	-72
11621	0	0.359313965	-0.155151367	0.043334961	0.999999046	7.63E-06	-6.01E-05	0.00012207	8.982849121	-3.87878418	1.083374023	0.00038147	-0.003004074	0.006103516	-0.792724609	-0.083251953	0.827636719	892.64	-73.66688816	-65.37898335	-121.6340808	-72
11622	0	0.3586092	-0.155849457	0.045246124	0.999999046	0.000177383	-0.000150681	8.30E-05	8.965229988	-3.89623642	1.131153107	0.008869171	-0.007534027	0.004148483	-0.792724609	-0.083251953	0.827636719	892.62	-73.68047911	-65.38296343	-121.6016143	-72
11623	0	0.359924316	-0.154418945	0.043457031	0.999999046	8.01E-05	9.54E-07	0.000282288	8.99810791	-3.860473633	1.086425781	0.004005432	4.77E-05	0.01411438	-0.795166016	-0.081054688	0.827636719	892.54	-73.68287688	-65.36025676	-121.5932777	-73
11624	0	0.359897614	-0.15388298	0.044457436	0.999999046	0.000195503	2.86E-05	0.000227928	8.997440338	-3.847074509	1.11143589	0.009775162	0.001430511	0.011396408	-0.792724609	-0.083251953	0.827636719	892.62	-73.66151859	-65.34276941	-121.5974073	-73
11625	0	0.358642578	-0.15222168	0.044799805	0.999999046	0.000793457	-0.000201225	-0.000602722	8.966064453	-3.805541992	1.119995117	0.039672858	-0.010061266	-0.030136114	-0.792724609	-0.081054688	0.830322266	892.54	-73.56804467	-65.42420692	-121.6039652	-73
11626	0	0.357254982	-0.151479721	0.042759895	0.999999046	0.000566483	-0.000108719	-0.001030922	8.93137455	-3.786993027	1.068997383	0.028324134	-0.005435945	-0.051546109	-0.792724609	-0.081054688	0.827392578	892.68	-73.44745758	-65.54985082	-121.6693169	-73
11627	0	0.357788086	-0.154724121	0.044006348	0.999999046	0.000312805	4.77E-06	-0.000747681	8.944702148	-3.868103027	1.100158691	0.015640261	0.000238419	-0.037384037	-0.792724609	-0.083251953	0.827636719	892.7	-73.34816189	-65.64059825	-121.7438885	-73
11628	0	0.36009407	-0.154648781	0.041786194	0.999999046	-3.15E-05	5.72E-06	-0.000180244	9.002351761	-3.866219521	1.044654846	-0.001573563	0.000286102	-0.009012222	-0.792724609	-0.083251953	0.833251953	892.62	-73.32926501	-65.66901813	-121.7719368	-73
11629	0	0.360168457	-0.154785156	0.04309082	0.999999046	-0.0001297	-4.10E-05	3.81E-06	9.004211426	-3.869628906	1.077270508	-0.006484985	-0.0020504	0.000190735	-0.792724609	-0.085449219	0.830566406	892.58	-73.34654198	-65.67876225	-121.7744176	-73
11630	0	0.360170364	-0.154128075	0.043813705	0.999999046	0.000116348	-0.000110626	-0.000275612	9.004259109	-3.853201866	1.095342636	0.005817413	-0.005531311	-0.013780594	-0.792724609	-0.083251953	0.827636719	892.64	-73.33231476	-65.72148169	-121.7798316	-72
11631	0	0.357727051	-0.155212402	0.043701172	0.999999046	0.000457764	-0.000266075	-0.000461578	8.94317627	-3.880310059	1.092529297	0.022888185	-0.013303758	-0.02307892	-0.792724609	-0.085449219	0.833496094	892.48	-73.30337613	-65.78962452	-121.7584847	-71
11632	0	0.359786034	-0.155205727	0.045359612	0.999999046	0.000515938	-0.000228882	-0.000260353	8.994650841	-3.880143166	1.133990288	0.025796892	-0.011444093	-0.013017655	-0.790527344	-0.083251953	0.833251953	892.6	-73.27338721	-65.83435828	-121.7297199	-72
11633	0	0.359924316	-0.15625	0.04498291	0.999999046	0.000240326	-0.000121117	0.000106812	8.99810791	-3.90625	1.124572754	0.012016297	-0.006055832	0.005340576	-0.790527344	-0.083251953	0.833251953	892.52	-73.27567289	-65.83509175	-121.7006793	-72
11634	0	0.359962463	-0.154292107	0.045090675	0.999999046	0.0001297	2.67E-05	0.000601768	8.999061584	-3.857302666	1.127266884	0.006484986	0.001335144	0.030088427	-0.790283203	-0.083251953	0.827392578	892.58	-73.29077912	-65.77656545	-121.6734756	-72
11635	0	0.358886719	-0.153686523	0.047241211	0.999999046	-8.77E-05	7.72E-05	0.000629425	8.972167969	-3.842163086	1.181030273	-0.004386902	0.003862381	0.031471255	-0.790527344	-0.083251953	0.833251953	892.6	-73.32007323	-65.71327172	-121.6567994	-72
11636	0	0.358016014	-0.153108597	0.044888496	0.999999046	-7.53E-05	0.000192642	0.000572205	8.950400352	-3.82771492	1.12221241	-0.003767014	0.009632111	0.028610231	-0.790527344	-0.081054688	0.830078125	892.58	-73.31562071	-65.65246058	-121.6752925	-72
11637	0	0.360900879	-0.152770996	0.042480469	0.999999046	-3.05E-05	0.000206947	0.000480652	9.022521973	-3.819274902	1.062011719	-0.001525879	0.010347367	0.024032594	-0.790527344	-0.078857422	0.830078125	892.68	-73.29620674	-65.60135449	-121.7035086	-73
11638	0	0.358843803	-0.152752876	0.043656349	0.999999046	0.000234604	-0.000101089	0.00025177	8.971095085	-3.818821907	1.09140873	0.011730194	-0.005054474	0.012588501	-0.790527344	-0.078857422	0.832763672	892.64	-73.30444936	-65.58559558	-121.6679272	-72
11639	0	0.359069824	-0.151733398	0.043334961	0.999999046	0.000370026	-0.000300407	0.000297546	8.976745605	-3.793334961	1.083374023	0.018501283	-0.015020371	0.01487732	-0.790527344	-0.081298828	0.827392578	892.58	-73.34872365	-65.57149547	-121.5795541	-71
11640	0	0.359615326	-0.151611328	0.042985916	0.999999046	0.000216484	-0.000320435	0.000259399	8.990383148	-3.790283203	1.074647903	0.010824204	-0.016021729	0.012969971	-0.79296875	-0.078857422	0.830078125	892.6	-73.41271216	-65.56236817	-121.4876556	-72
11641	0	0.359191895	-0.151611328	0.042602539	0.999999046	-0.000190735	-0.000185966	0.000171661	8.979797363	-3.790283203	1.065063477	-0.009536743	-0.009298325	0.008583069	-0.790527344	-0.078857422	0.832763672	892.68	-73.48463141	-65.55860296	-121.4369471	-72
11642	0	0.359704971	-0.153095245	0.045033455	0.999999046	-0.000131607	-0.000419617	0.000102043	8.992624283	-3.827381134	1.125836372	-0.006580353	-0.020980836	0.005102158	-0.790527344	-0.078857422	0.832763672	892.6	-73.60116255	-65.57010894	-121.3300034	-71
11643	0	0.359924316	-0.15222168	0.045349121	0.999999046	-0.000110626	-0.000308037	0.00019455	8.99810791	-3.805541992	1.133728027	-0.005531311	-0.015401841	0.009727478	-0.790527344	-0.078857422	0.832763672	892.62	-73.69466989	-65.56786526	-121.2459073	-69
11644	0	0.359648705	-0.153532028	0.046191216	0.999999046	-0.000161171	-0.000160217	8.77E-05	8.991217613	-3.838300705	1.154780388	-0.008058548	-0.008010864	0.004386902	-0.788330078	-0.079101563	0.832763672	892.68	-73.75028926	-65.57260415	-121.2092758	-69
11645	0	0.359863281	-0.153686523	0.04486084	0.999999046	-0.0001297	-8.30E-05	3.43E-05	8.996582031	-3.842163086	1.121520996	-0.006484985	-0.004148483	0.001716614	-0.788085938	-0.081298828	0.832763672	892.7	-73.77965722	-65.58077137	-121.1987526	-69
11646	0	0.360469818	-0.154456139	0.044576645	0.999999046	-0.000164032	2.86E-05	9.54E-05	9.011745453	-3.861403465	1.114416122	-0.008201599	0.001430511	0.004768372	-0.788330078	-0.079101563	0.829833984	892.52	-73.79010337	-65.57866864	-121.2124267	-71
11647	0	0.359619141	-0.154174805	0.045227051	0.999999046	-0.00025177	0.0001688	7.63E-06	8.990478516	-3.854370117	1.13067627	-0.012588501	0.008440018	0.00038147	-0.790527344	-0.081054688	0.830078125	892.64	-73.77022983	-65.58173597	-121.2716831	-72
11648	0	0.359417915	-0.15438652	0.04417038	0.999999046	-0.000210762	1.91E-06	7.92E-05	8.985447884	-3.85966301	1.104259491	-0.010538101	9.54E-05	0.003957748	-0.785888672	-0.079101563	0.835449219	892.64	-73.79107082	-65.58228151	-121.2764952	-72
11649	0	0.359985352	-0.153625488	0.043395996	0.999999046	-0.000198364	0.000149727	-0.000148773	8.999633789	-3.840637207	1.084899902	-0.009918213	0.007486343	-0.00743866	-0.788085938	-0.081298828	0.830078125	892.7	-73.75855497	-65.60322893	-121.3416647	-71
11650	0	0.358736992	-0.154817581	0.041609764	0.999999046	-0.000286102	0.000131607	-0.000157356	8.968424797	-3.870439529	1.040244102	-0.014305115	0.006580353	-0.007867813	-0.788085938	-0.081298828	0.832763672	892.62	-73.74005492	-65.6256849	-121.4008957	-70
11651	0	0.358215332	-0.157043457	0.042541504	0.999999046	0.000102997	-0.000105858	-0.000339508	8.955383301	-3.926086426	1.063537598	0.005149841	-0.005292893	-0.016975403	-0.788085938	-0.081298828	0.830078125	892.68	-73.72188269	-65.67565623	-121.411504	-70
11652	0	0.360038757	-0.156302452	0.042374611	0.999999046	0.00036335	-0.0001297	-0.000275612	9.000968933	-3.907561302	1.059365273	0.018167496	-0.006484986	-0.013780594	-0.788085938	-0.083496094	0.830078125	892.6	-73.68438276	-65.71928456	-121.4124452	-70
11653	0	0.360290527	-0.156738281	0.04296875	0.999999046	-3.43E-05	-9.06E-05	0.000228882	9.007263184	-3.918457031	1.07421875	-0.001716614	-0.004529953	0.011444092	-0.788085938	-0.083496094	0.830078125	892.68	-73.71905139	-65.70605435	-121.3843307	-70
11654	0	0.35931015	-0.157516479	0.043868065	0.999999046	-5.15E-05	-0.000263214	0.000224113	8.982753754	-3.937911987	1.096701622	-0.002574921	-0.013160706	0.011205673	-0.788085938	-0.083496094	0.830078125	892.6	-73.79744914	-65.69869717	-121.3106484	-70
11655	0	0.358764648	-0.156616211	0.045227051	0.999999046	0.000144958	-0.000117302	0.000240326	8.969116211	-3.915405273	1.13067627	0.007247925	-0.005865097	0.012016297	-0.788085938	-0.081298828	0.832763672	892.72	-73.81873975	-65.68471353	-121.272653	-69
11656	0	0.360590935	-0.157082558	0.044271469	0.999999046	0.00011158	-0.000152588	0.000465393	9.014773369	-3.927063942	1.106786728	0.005578995	-0.007629395	0.023269654	-0.788330078	-0.081298828	0.835693359	892.58	-73.86823579	-65.64695787	-121.2077597	-69
11657	0	0.359985352	-0.157226563	0.04486084	0.999999046	0.000339508	-8.68E-05	0.000442505	8.999633789	-3.930664063	1.121520996	0.016975404	-0.004339218	0.022125245	-0.785888672	-0.079101563	0.835449219	892.68	-73.87377759	-65.60948837	-121.1610003	-69
11658	0	0.358449936	-0.156781197	0.045208931	0.999999046	0.000230789	-0.000144958	0.00062561	8.961248398	-3.919529915	1.130223274	0.01153946	-0.007247925	0.03128052	-0.788330078	-0.079101563	0.835449219	892.58	-73.9184299	-65.55357252	-121.0869594	-71
11659	0	0.35925293	-0.155273438	0.046264648	0.999999046	0.000247955	-1.05E-05	0.000656128	8.981323242	-3.881835938	1.156616211	0.012397767	-0.000524521	0.032806399	-0.788330078	-0.081298828	0.835693359	892.58	-73.93013467	-65.4899797	-121.0496755	-70
11660	0	0.359540939	-0.153283119	0.043157578	0.999999046	0.000134468	9.54E-05	0.00051403	8.988523483	-3.83207798	1.078939438	0.006723404	0.004768372	0.025701524	-0.785888672	-0.076904297	0.829589844	892.52	-73.9193002	-65.43879987	-121.0496043	-74
11661	0	0.360046387	-0.152404785	0.044189453	0.999999046	-0.000110626	6.96E-05	0.000556946	9.001159668	-3.810119629	1.104736328	-0.005531311	0.003480911	0.027847292	-0.790771484	-0.078857422	0.838378906	892.6	-73.94551605	-65.3838885	-121.0400364	-71
11662	0	0.358955383	-0.152143478	0.043838501	0.999999046	-0.000131607	-3.43E-05	0.00045681	8.973884583	-3.80358696	1.095962524	-0.006580353	-0.001716614	0.022840501	-0.786132813	-0.076904297	0.832275391	892.6	-73.99193672	-65.3434775	-121.0100996	-73
11663	0	0.358825684	-0.151733398	0.043457031	0.999999046	2.67E-05	-0.000193596	0.000114441	8.97064209	-3.793334961	1.086425781	0.001335144	-0.009679794	0.005722046	-0.788330078	-0.076904297	0.835449219	892.64	-74.03466655	-65.34601315	-120.9640651	-74
11664	0	0.360272408	-0.152606964	0.04497242	0.999999046	-0.00017643	-6.87E-05	-0.000225067	9.006810188	-3.815174103	1.124310493	-0.008821488	-0.003433228	-0.011253357	-0.788330078	-0.076904297	0.832519531	892.58	-74.04707459	-65.38218879	-120.9774045	-73
11665	0	0.359985352	-0.153686523	0.044616699	0.999999046	6.87E-05	-0.000105858	-0.000419617	8.999633789	-3.842163086	1.11541748	0.003433228	-0.005292893	-0.020980836	-0.788330078	-0.076904297	0.835449219	892.6	-74.02670084	-65.44108469	-120.994247	-75
11666	0	0.359270096	-0.15502739	0.045903206	0.999999046	5.15E-05	-3.43E-05	-0.000256538	8.981752396	-3.875684738	1.147580147	0.002574921	-0.001716614	-0.01282692	-0.788330078	-0.076904297	0.835449219	892.64	-74.00190894	-65.47975373	-121.0177292	-75
11667	0	0.359558105	-0.155517578	0.045654297	0.999999046	-0.000236511	3.91E-05	-0.000259399	8.988952637	-3.887939453	1.141357422	-0.011825562	0.001955032	-0.012969971	-0.788330078	-0.079101563	0.838378906	892.6	-73.99185583	-65.51638754	-121.0612487	-75
11668	0	0.360184669	-0.156694412	0.043104172	0.999999046	-0.000226021	0.000259399	-0.000400543	9.004616737	-3.917360306	1.077604294	-0.011301041	0.012969971	-0.020027162	-0.785888672	-0.079101563	0.835449219	892.68	-73.91740118	-65.56152848	-121.1731745	-74
11669	0	0.357666016	-0.15802002	0.044006348	0.999999046	-8.01E-05	7.34E-05	-0.000347137	8.941650391	-3.950500488	1.100158691	-0.004005432	0.003671646	-0.017356873	-0.788085938	-0.081298828	0.832763672	892.58	-73.87480783	-65.60646669	-121.2348377	-74
11670	0	0.358867645	-0.157839775	0.04323864	0.999999046	8.96E-05	0.000110626	-4.58E-05	8.971691132	-3.945994377	1.080965996	0.004482269	0.005531311	-0.002288818	-0.790527344	-0.081054688	0.835693359	892.54	-73.82492885	-65.61687643	-121.2823487	-73
11671	0	0.359191895	-0.157653809	0.04309082	0.999999046	-0.000167847	0.000180244	0.000217438	8.979797363	-3.941345215	1.077270508	-0.008392334	0.009012222	0.010871887	-0.790527344	-0.081054688	0.833007813	892.48	-73.80638477	-65.59594877	-121.3286033	-72
11672	0	0.359839439	-0.157581329	0.044264793	0.999999046	-4.67E-05	0.000165939	0.000289917	8.995985985	-3.939533234	1.106619835	-0.002336502	0.008296967	0.01449585	-0.790527344	-0.078857422	0.830078125	892.54	-73.78264614	-65.56737435	-121.3643614	-72
11673	0	0.358459473	-0.156982422	0.044311523	0.999999046	-8.01E-05	0.000130653	0.000419617	8.961486816	-3.924560547	1.107788086	-0.004005432	0.006532669	0.020980836	-0.788085938	-0.081298828	0.830078125	892.6	-73.78049463	-65.52554242	-121.3822271	-72
11674	0	0.357401848	-0.155702591	0.043462753	0.999999046	0.000207901	3.62E-05	0.000480652	8.935046196	-3.892564774	1.086568832	0.010395051	0.001811981	0.024032594	-0.790527344	-0.078857422	0.832763672	892.7	-73.77255086	-65.47996856	-121.3683917	-72
11675	0	0.360473633	-0.155212402	0.044433594	0.999999046	0.000179291	8.11E-05	0.000392914	9.01184082	-3.880310059	1.110839844	0.008964539	0.004053116	0.019645692	-0.79296875	-0.078857422	0.830078125	892.58	-73.75088743	-65.44265349	-121.375928	-72
11676	0	0.358207703	-0.155661583	0.044301987	0.999999046	0.000163078	-8.20E-05	0.000217438	8.955192566	-3.891539574	1.107549667	0.008153916	-0.0041008	0.010871887	-0.790527344	-0.079101563	0.827148438	892.58	-73.75804175	-65.42985829	-121.3548019	-72
11677	0	0.357849121	-0.155517578	0.044311523	0.999999046	0.000404358	-0.000117302	0.000171661	8.946228027	-3.887939453	1.107788086	0.020217896	-0.005865097	0.008583069	-0.790771484	-0.076660156	0.832519531	892.64	-73.74280892	-65.42322337	-121.323983	-72
11678	0	0.358416557	-0.154872894	0.044351578	0.999999046	0.00044632	-7.82E-05	0.000128746	8.960413933	-3.871822357	1.108789444	0.02231598	-0.003910065	0.006437302	-0.793212891	-0.074462891	0.832519531	892.68	-73.71032302	-65.42009158	-121.3065013	-71
11679	0	0.358703613	-0.155151367	0.044372559	0.999999046	0.00012207	-6.77E-05	0	8.967590332	-3.87878418	1.109313965	0.006103516	-0.003385544	0	-0.790771484	-0.074707031	0.826660156	892.68	-73.70341466	-65.43081152	-121.3037714	-72
11680	0	0.359441757	-0.157277107	0.044178009	0.999999046	0.000157356	-3.43E-05	4.86E-05	8.98604393	-3.931927681	1.104450226	0.007867813	-0.001716614	0.00243187	-0.790771484	-0.074707031	0.832519531	892.6	-73.6879348	-65.43505651	-121.3035887	-72
11681	0	0.359008789	-0.157287598	0.04473877	0.999999046	0.000286102	-0.000128746	0.000305176	8.975219727	-3.932189941	1.118469238	0.014305115	-0.006437302	0.01525879	-0.79296875	-0.076660156	0.829833984	892.64	-73.69847974	-65.41405236	-121.263872	-72
11682	0	0.359473228	-0.157298088	0.045650482	0.999999046	0.000350952	-3.62E-05	0.000174522	8.986830711	-3.932452202	1.141262054	0.017547608	-0.001811981	0.00872612	-0.79296875	-0.074462891	0.826904297	892.64	-73.67006758	-65.40437755	-121.2583803	-72
11683	0	0.358825684	-0.156677246	0.046081543	0.999999046	0.000408173	6.58E-05	0.0001297	8.97064209	-3.916931152	1.152038574	0.020408631	0.003290176	0.006484986	-0.793212891	-0.074462891	0.832519531	892.58	-73.60729811	-65.39628998	-121.2815075	-72
11684	0	0.359023094	-0.157039642	0.044547081	0.999999046	0.000344276	0.000198364	0.00026989	8.975577354	-3.925991058	1.113677025	0.017213822	0.009918213	0.013494492	-0.793212891	-0.072265625	0.829589844	892.6	-73.53008301	-65.36844727	-121.3280524	-72
11685	0	0.358642578	-0.155212402	0.042907715	0.999999046	3.43E-05	0.000187874	0.00056839	8.966064453	-3.880310059	1.072692871	0.001716614	0.009393693	0.028419496	-0.793212891	-0.070068359	0.832275391	892.6	-73.51238786	-65.30819778	-121.345004	-72
11686	0	0.35869503	-0.15427494	0.041647911	0.999999046	1.53E-05	0.00018692	0.000376701	8.967375755	-3.856873512	1.041197777	0.000762939	0.009346009	0.018835068	-0.793212891	-0.072265625	0.826660156	892.72	-73.48397713	-65.26918221	-121.3817438	-72
11687	0	0.357971191	-0.153320313	0.042724609	0.999999046	-0.000106812	3.15E-05	0.00031662	8.949279785	-3.833007813	1.068115234	-0.005340576	0.001573563	0.015830994	-0.793212891	-0.070068359	0.829345703	892.76	-73.50259956	-65.24199861	-121.3782129	-72
11688	0	0.358664513	-0.153800964	0.04253006	0.999999046	-0.000309944	-7.63E-06	0.000281334	8.966612816	-3.845024109	1.063251495	-0.015497208	-0.00038147	0.014066697	-0.793212891	-0.0703125	0.826660156	892.66	-73.55149317	-65.22013312	-121.368328	-72
11689	0	0.358703613	-0.154663086	0.044311523	0.999999046	-3.05E-05	-0.000311852	7.63E-06	8.967590332	-3.866577148	1.107788086	-0.001525879	-0.015592575	0.00038147	-0.795654297	-0.070068359	0.826660156	892.54	-73.62158362	-65.23831293	-121.3008817	-73
11690	0	0.358974457	-0.152657509	0.046884537	0.999999046	0.000101089	-0.000444412	-2.38E-05	8.97436142	-3.816437721	1.172113419	0.005054474	-0.022220612	-0.001192093	-0.793212891	-0.072265625	0.832519531	892.7	-73.70574375	-65.26435214	-121.2004377	-72
11691	0	0.357177734	-0.154724121	0.047058105	0.999999046	-1.53E-05	-0.000288963	-0.000244141	8.929443359	-3.868103027	1.176452637	-0.000762939	-0.014448166	-0.012207032	-0.793212891	-0.070068359	0.832275391	892.64	-73.75057437	-65.3096049	-121.1550449	-72
11692	0	0.360577583	-0.156564713	0.048125267	0.999999046	5.25E-05	-0.000144958	-0.000355721	9.014439583	-3.914117813	1.203131676	0.002622604	-0.007247925	-0.017786026	-0.793212891	-0.072265625	0.835205078	892.6	-73.74504654	-65.36248777	-121.1572223	-72
11693	0	0.360229492	-0.156982422	0.048217773	0.999999046	-0.000213623	3.15E-05	-0.000331879	9.005737305	-3.924560547	1.205444336	-0.010681153	0.001573563	-0.016593934	-0.793212891	-0.072265625	0.829589844	892.66	-73.72887672	-65.40701938	-121.206166	-72
11694	0	0.357462883	-0.158413887	0.047560692	0.999999046	-0.000192642	6.68E-05	7.25E-05	8.936572075	-3.960347176	1.189017296	-0.009632111	0.00333786	0.003623962	-0.793212891	-0.072265625	0.829589844	892.66	-73.72985706	-65.40574255	-121.2328914	-72
11695	0	0.359069824	-0.155883789	0.04486084	0.999999046	-3.81E-06	0.000203133	1.91E-05	8.976745605	-3.897094727	1.121520996	-0.000190735	0.010156632	0.000953674	-0.79296875	-0.074462891	0.829833984	892.64	-73.67264389	-65.40594198	-121.301863	-73
11696	0	0.358922958	-0.155837059	0.044393539	0.999999046	-0.000266075	0.000457764	-2.77E-05	8.973073959	-3.895926476	1.109838486	-0.013303757	0.022888185	-0.001382828	-0.793212891	-0.074462891	0.832519531	892.58	-73.58106903	-65.40301798	-121.4385782	-73
11697	0	0.359008789	-0.155334473	0.042724609	0.999999046	-0.000465393	0.000432014	0.000236511	8.975219727	-3.883361816	1.068115234	-0.023269655	0.021600725	0.011825562	-0.797851563	-0.072265625	0.826904297	892.6	-73.53756731	-65.37187434	-121.5486247	-72
11698	0	0.358469963	-0.155849457	0.043254852	0.999999046	-0.000368118	0.000322342	0.000426292	8.961749077	-3.89623642	1.081371307	-0.018405916	0.016117097	0.021314622	-0.795410156	-0.076660156	0.830078125	892.72	-73.52303719	-65.32343135	-121.6166565	-72
11699	0	0.358398438	-0.155456543	0.042907715	0.999999046	-0.000240326	2.38E-05	0.00037384	8.959960938	-3.886413574	1.072692871	-0.012016297	0.001192093	0.018692017	-0.79296875	-0.076660156	0.829833984	892.64	-73.56183506	-65.29050199	-121.6086473	-72
11700	0	0.359012604	-0.155381203	0.044923782	0.999999046	-0.000380516	9.92E-05	0.000240326	8.975315094	-3.884530067	1.123094559	-0.019025803	0.004959107	0.012016297	-0.79296875	-0.074462891	0.826904297	892.6	-73.58924665	-65.26985772	-121.6286832	-72
11701	0	0.35760498	-0.156311035	0.046508789	0.999999046	-0.000301361	-9.44E-05	0.000320435	8.940124512	-3.907775879	1.162719727	-0.015068055	-0.004720688	0.016021729	-0.795410156	-0.074462891	0.826904297	892.6	-73.65919044	-65.24663486	-121.5931151	-73
11702	0	0.359342575	-0.158765793	0.04487896	0.999999046	0.000185013	-0.000425339	0.000144005	8.983564377	-3.969144821	1.121973991	0.009250641	-0.021266938	0.007200241	-0.793212891	-0.074462891	0.832519531	892.6	-73.74004343	-65.25336568	-121.4809476	-73
11703	0	0.35925293	-0.156005859	0.045898438	0.999999046	0.000144958	-4.86E-05	0.000240326	8.981323242	-3.900146484	1.147460938	0.007247925	-0.00243187	0.012016297	-0.795410156	-0.074462891	0.832763672	892.6	-73.7421439	-65.23741145	-121.4624037	-74
11704	0	0.357959747	-0.159033775	0.047312737	0.999999046	-0.000254631	0.000190735	0.000227928	8.948993683	-3.975844383	1.182818413	-0.012731552	0.009536743	0.011396408	-0.79296875	-0.076660156	0.829833984	892.64	-73.73187914	-65.21499445	-121.5107109	-75
11705	0	0.35736084	-0.156494141	0.043884277	0.999999046	0.000141144	1.24E-05	0.000312805	8.934020996	-3.912353516	1.097106934	0.00705719	0.000619888	0.015640259	-0.795166016	-0.076660156	0.827148438	892.64	-73.72477239	-65.18897463	-121.5091592	-75
11706	0	0.359824181	-0.157134056	0.045401573	0.999998093	-0.001074791	0.000878334	0.001021385	8.995604515	-3.928351402	1.13503933	-0.053739574	0.043916724	0.051069285	-0.79296875	-0.074462891	0.829833984	892.66	-73.70063919	-65.05721593	-121.6713657	-75
11707	0	0.356628418	-0.162841797	0.048583984	0.999998093	-0.001215935	0.000953674	0.001083374	8.915710449	-4.071044922	1.214599609	-0.060796774	0.047683744	0.054168733	-0.795166016	-0.076660156	0.827148438	892.64	-73.68000274	-64.91589851	-121.8511953	-75
11708	0	0.355582237	-0.160795212	0.046064377	0.999999046	0.000285149	1.34E-05	0.000564575	8.889555931	-4.019880295	1.151609421	0.014257432	0.000667572	0.028228762	-0.795410156	-0.074462891	0.82421875	892.64	-73.67315522	-64.86176804	-121.826445	-75
11709	0	0.359802246	-0.156066895	0.045043945	0.999999046	-0.000297546	0.000157356	0.000709534	8.995056152	-3.901672363	1.126098633	-0.014877321	0.007867814	0.035476688	-0.795410156	-0.074462891	0.829833984	892.64	-73.7091919	-64.78726105	-121.8247576	-73
11710	0	0.358036041	-0.159105301	0.045183182	0.999999046	-0.00050354	0.000606537	0.000705719	8.950901031	-3.977632523	1.129579544	-0.025177007	0.030326849	0.035285956	-0.797607422	-0.074462891	0.82421875	892.6	-73.66392615	-64.69876363	-121.9429295	-72
11711	0	0.355407715	-0.159729004	0.045532227	0.999999046	4.96E-05	-5.25E-05	0.000331879	8.885192871	-3.993225098	1.138305664	0.002479553	-0.002622604	0.016593933	-0.800048828	-0.074462891	0.824462891	892.64	-73.68338643	-64.67258308	-121.9214166	-73
11712	0	0.359823227	-0.15868187	0.044166565	0.999999046	2.57E-05	-0.000162125	0	8.995580673	-3.967046738	1.104164124	0.00128746	-0.008106232	0	-0.797607422	-0.072265625	0.82421875	892.54	-73.70864538	-64.6865863	-121.8919487	-73
11713	0	0.365356445	-0.161315918	0.041625977	0.999999046	-0.00019455	0.000149727	-0.000263214	9.133911133	-4.032897949	1.040649414	-0.009727478	0.007486344	-0.013160706	-0.797607422	-0.072265625	0.821289063	892.64	-73.66920558	-64.71968869	-121.9623425	-74
11714	0	0.356945038	-0.161083221	0.0408144	0.999999046	0.0001297	-0.000125885	-0.000370979	8.923625946	-4.027080536	1.020359993	0.006484986	-0.006294251	-0.018548966	-0.797607422	-0.076660156	0.824462891	892.58	-73.64993301	-64.77351795	-121.9735289	-74
11715	0	0.34552002	-0.156921387	0.044921875	0.999999046	0.000518799	-0.000746727	-0.00025177	8.638000488	-3.923034668	1.123046875	0.025939945	-0.037336355	-0.012588503	-0.797607422	-0.074462891	0.827148438	892.7	-73.73940435	-64.83408217	-121.8119964	-74
11716	0	0.354948044	-0.160600662	0.047060013	0.999998093	0.000398636	-0.000199318	-0.001374245	8.873701096	-4.015016556	1.17650032	0.0199318	-0.0099659	-0.068712258	-0.795410156	-0.074462891	0.82421875	892.66	-73.63742506	-65.00034976	-121.8757247	-75
11717	0	0.364562988	-0.166992188	0.041564941	0.999996185	-0.000201225	0.000709534	-0.002414703	9.114074707	-4.174804688	1.039123535	-0.010061275	0.035476722	-0.120735297	-0.797363281	-0.078857422	0.824707031	892.6	-73.31451484	-65.25100572	-122.2584127	-76
11718	0	0.365605354	-0.175804138	0.038898468	0.999996185	-0.000336647	0.000998497	-0.002232552	9.140133858	-4.395103455	0.9724617	-0.016832369	0.049924901	-0.111627692	-0.797119141	-0.083251953	0.822021484	892.64	-72.94560346	-65.47049118	-122.7082582	-76
11719	0	0.352172852	-0.176208496	0.037597656	0.999995232	0.002098083	0.000447273	-0.002185822	8.804321289	-4.405212402	0.939941406	0.104904339	0.022363698	-0.109291248	-0.794677734	-0.087646484	0.822265625	892.66	-72.42777088	-65.70123977	-123.019372	-76
11720	0	0.341533661	-0.170403481	0.039474487	0.999985695	0.004118919	-0.000505447	-0.0031147	8.538341522	-4.260087013	0.986862183	0.205946893	-0.025272483	-0.155735715	-0.797119141	-0.085205078	0.825195313	892.66	-71.83007553	-66.06452738	-123.1636631	-77
11721	0	0.339050293	-0.169067383	0.032165527	0.999967575	0.006329536	-0.000484467	-0.004840851	8.476257324	-4.22668457	0.804138184	0.316480184	-0.024223585	-0.242045113	-0.794921875	-0.085449219	0.824951172	892.66	-70.81737575	-66.61256922	-123.4899529	-78
11722	0	0.350162506	-0.166074753	0.028031349	0.999967575	0.005440712	0.000943184	-0.005807877	8.754062653	-4.15186882	0.70078373	0.272038511	0.0471597	-0.290396938	-0.790283203	-0.083496094	0.824707031	892.54	-69.42558347	-67.20566765	-124.3306515	-79
11723	0	0.35949707	-0.16583252	0.031616211	0.99998188	0.002655029	0.001160622	-0.005226135	8.987426758	-4.145812988	0.790405273	0.132752255	0.058031428	-0.261308318	-0.792480469	-0.085449219	0.827636719	892.6	-68.30596648	-67.71949507	-125.2135364	-81
11724	0	0.370109558	-0.156904221	0.035880089	0.999992371	-0.001663208	0.001189232	-0.00312233	9.252738953	-3.922605515	0.89700222	-0.083160593	0.059461732	-0.156116848	-0.792236328	-0.092041016	0.828369141	892.64	-67.8641159	-68.00342812	-125.8919233	-83
11725	0	0.353393555	-0.13482666	0.053283691	0.999987602	-0.004203796	0.002171516	-0.000976563	8.834838867	-3.370666504	1.332092285	-0.210190637	0.108576243	-0.048828315	-0.791992188	-0.098632813	0.822998047	892.66	-67.67671432	-68.0157198	-126.6047488	-79
11726	0	0.33357811	-0.119935989	0.063365936	0.999982834	-0.004811287	0.003157616	-0.001058578	8.339452744	-2.998399734	1.584148407	-0.240565719	0.157881684	-0.052929227	-0.796142578	-0.109375	0.821289063	892.64	-67.28927335	-67.99214816	-127.6069926	-75
11727	0	0.348510742	-0.118835449	0.061584473	0.999966621	-0.006320953	0.003937721	-0.00315094	8.712768555	-2.97088623	1.539611816	-0.316051113	0.196888208	-0.157548714	-0.800292969	-0.120117188	0.816894531	892.58	-66.63269436	-68.15125263	-129.0742174	-73
11728	0	0.389593124	-0.162294388	0.083707809	0.999968529	-0.003785133	0.000183105	-0.006930351	9.73982811	-4.057359695	2.092695236	-0.189258636	0.009155369	-0.346521166	-0.803955078	-0.137451172	0.809814453	892.58	-66.20981986	-68.87299667	-129.981007	-74
11729	0	0.380859375	-0.170898438	0.080322266	0.999958992	0.003536224	-0.002398491	-0.007911682	9.521484375	-4.272460938	2.008056641	0.176813601	-0.119926161	-0.395589437	-0.798828125	-0.152832031	0.816650391	892.66	-65.48352184	-69.81300368	-130.3239633	-74
11730	0	0.339445114	-0.149663925	0.062383652	0.999978065	0.003505707	9.54E-05	-0.005617142	8.486127853	-3.741598129	1.559591293	0.17528662	0.004768406	-0.280859139	-0.791748047	-0.155273438	0.822021484	892.64	-64.2975552	-70.38975458	-131.1505335	-74
11731	0	0.333496094	-0.145568848	0.056396484	0.999983788	0.000110626	0.001889229	-0.005355835	8.337402344	-3.639221191	1.409912109	0.005531341	0.094461949	-0.267793188	-0.791503906	-0.161865234	0.822509766	892.6	-62.95785133	-70.84031406	-132.5439027	-77
11732	0	0.332972527	-0.143708229	0.050908089	0.99997139	-0.003866196	0.000164986	-0.006492615	8.324313164	-3.592705727	1.272702217	-0.193311625	0.008249361	-0.324633828	-0.793701172	-0.166015625	0.825927734	892.58	-62.35162161	-71.487846	-133.6161133	-75
11733	0	0.319580078	-0.157165527	0.063171387	0.999964714	-0.004619598	-0.002242088	-0.006637573	7.989501953	-3.929138184	1.579284668	-0.230982631	-0.112105732	-0.331882558	-0.790771484	-0.18359375	0.830078125	892.64	-62.50524735	-72.27363181	-133.9747261	-68
11734	0	0.307887077	-0.156180382	0.081516266	0.999976158	-0.002492905	-0.003889084	-0.005102158	7.697176933	-3.904509544	2.037906647	-0.124646217	-0.194455728	-0.255109894	-0.781005859	-0.198974609	0.836425781	892.6	-63.20934298	-72.98641642	-133.5046878	-66
11735	0	0.321777344	-0.163146973	0.094238281	0.999974251	-0.002864838	-0.003851891	-0.005317688	8.044433594	-4.078674316	2.355957031	-0.143243108	-0.192596176	-0.265886674	-0.771484375	-0.205810547	0.847900391	892.6	-63.95324126	-73.71378555	-133.0233721	-67
11736	0	0.346387863	-0.180840492	0.104633331	0.999969482	-1.53E-05	-0.00310421	-0.007055283	8.659696579	-4.521012306	2.615833282	-0.000762947	-0.155212032	-0.352767623	-0.759765625	-0.212646484	0.859130859	892.6	-63.82349138	-74.57682019	-133.1005664	-64
11737	0	0.379516602	-0.183837891	0.090332031	0.999968529	0.001777649	-0.002066612	-0.007446289	9.487915039	-4.595947266	2.258300781	0.088883378	-0.103331695	-0.372318355	-0.753173828	-0.212646484	0.878662109	892.6	-62.98073228	-75.42201276	-133.6795218	-66
11738	0	0.417554855	-0.205319405	0.078245163	0.99995327	0.004295349	-0.001968384	-0.008395195	10.43887138	-5.132985115	1.956129074	0.214770778	-0.098420712	-0.419766243	-0.744384766	-0.204101563	0.89453125	892.54	-61.50225156	-76.34980619	-134.5981278	-63
11739	0	0.45098877	-0.220581055	0.068664551	0.999860764	0.012925148	-0.004364014	-0.009563446	11.27471924	-5.514526367	1.71661377	0.6462873	-0.218210779	-0.478194426	-0.731689453	-0.187011719	0.920898438	892.58	-59.58739586	-77.51623807	-134.9701855	-71
11740	0	0.492442131	-0.202815056	0.055912971	0.999820709	0.015073776	-0.006796837	-0.009202003	12.31105328	-5.070376396	1.397824287	0.753733801	-0.339862128	-0.460127638	-0.712646484	-0.148193359	0.942138672	892.64	-58.48110912	-78.78347694	-134.288816	-63
11741	0	0.471557617	-0.211914063	0.061401367	0.999856949	0.013195992	-0.007514954	-0.007331848	11.78894043	-5.297851563	1.53503418	0.65983085	-0.375765491	-0.366609784	-0.689697266	-0.096679688	0.965087891	892.52	-58.57719717	-79.9067799	-132.6098071	-64
11742	0	0.385784149	-0.198391914	0.06529808	0.99980545	0.018071175	-0.007754326	0.00090313	9.644603729	-4.959797859	1.632452011	0.903617098	-0.387741339	0.045159396	-0.669189453	-0.031982422	0.975830078	892.7	-61.22459583	-80.21397324	-127.7826732	-66
11743	0	0.351318359	-0.153320313	0.055541992	0.999642372	0.021957397	-0.006014824	0.013977051	8.782958984	-3.833007813	1.388549805	1.0980005	-0.300776979	0.69893569	-0.652099609	0.065429688	0.964111328	892.54	-65.97983395	-79.02978045	-120.3488351	-68
11744	0	0.345623016	-0.123368263	0.043245316	0.999587059	0.017439842	-0.001750946	0.022769928	8.640575409	-3.084206581	1.081132889	0.872112154	-0.087559354	1.13865313	-0.635253906	0.179931641	0.916992188	892.6	-69.41586748	-76.6336279	-114.7329261	-72
11745	0	0.368164063	-0.107299805	0.02355957	0.99957943	0.01127243	0.002919197	0.026542664	9.204101563	-2.682495117	0.588989258	0.563700467	0.145980299	1.32731907	-0.622070313	0.283691406	0.853759766	892.64	-70.80546428	-73.60398683	-111.8969301	-72
11746	0	0.374351501	-0.099350929	0.010380745	0.999598503	0.002891541	0.006402969	0.027423859	9.358787537	-2.483773232	0.259518623	0.144596345	0.320191246	1.37137615	-0.614501953	0.352539063	0.779541016	892.64	-71.43935506	-70.3404737	-110.8385902	-68
11747	0	0.352966309	-0.102172852	0.000732422	0.999597549	-0.001162529	0.007644653	0.027282715	8.824157715	-2.554321289	0.018310547	-0.058134243	0.382283913	1.364318634	-0.605712891	0.399658203	0.698486328	892.58	-71.94019284	-67.04771327	-110.4218221	-64
11748	0	0.322989464	-0.092434883	-0.008038521	0.999595642	-0.004304886	0.007481575	0.02708149	8.074736595	-2.310872078	-0.20096302	-0.215273287	0.374129139	1.354256874	-0.587402344	0.431152344	0.637939453	892.64	-72.6969864	-63.78511586	-110.1232535	-63
11749	0	0.307678223	-0.094909668	-0.001342773	0.999597549	-0.006518364	0.004955292	0.027137756	7.691955566	-2.372741699	-0.033569336	-0.325961859	0.247797779	1.357069593	-0.564208984	0.456298828	0.589111328	892.58	-74.09064403	-60.60152785	-109.3908294	-67
11750	0	0.294079781	-0.104953766	0.017365456	0.999677658	-0.00360775	0.002238274	0.025020599	7.351994514	-2.623844147	0.434136391	-0.180406866	0.111925698	1.251164296	-0.527099609	0.480712891	0.545410156	892.52	-75.34987607	-57.73097785	-108.4044399	-69
11751	0	0.288879395	-0.096801758	0.013977051	0.99980545	-0.003119469	0.003425598	0.019165039	7.221984863	-2.420043945	0.34942627	-0.155983542	0.171291007	0.958314053	-0.475585938	0.49609375	0.490234375	892.64	-75.95142128	-55.47402278	-108.1076653	-66
11752	0	0.303884506	-0.107736588	0.020258904	0.99992466	-0.004164696	0.005090714	0.01031971	7.597112656	-2.693414688	0.506472588	-0.208239985	0.254542029	0.515998368	-0.429931641	0.491943359	0.422607422	892.6	-76.02830338	-54.1587158	-108.5959711	-66
11753	0	0.376159668	-0.137573242	0.015075684	0.999982834	-0.001128197	0.004730225	-0.003105164	9.403991699	-3.439331055	0.37689209	-0.056410149	0.236512543	-0.15525904	-0.403808594	0.457763672	0.347412109	892.58	-75.30416898	-54.34902777	-109.6549043	-64
11754	0	0.465009689	-0.176791191	0.024011612	0.999807358	0.003741264	0.002207756	-0.019138336	11.62524223	-4.419779778	0.600290298	0.187075227	0.110394889	-0.956978245	-0.397460938	0.398193359	0.260986328	892.7	-73.67381437	-56.38170888	-111.1281677	-63
11755	0	0.50213623	-0.183227539	0.005126953	0.999574661	0.006440163	-0.000484467	-0.02841568	12.55340576	-4.580688477	0.128173828	0.322053723	-0.024226757	-1.420985153	-0.420410156	0.309082031	0.192871094	892.6	-71.46688272	-59.49966836	-112.8777953	-65
11756	0	0.543688774	-0.172444344	-0.002864838	0.999565125	-0.001182556	-0.000617027	-0.029443741	13.59221935	-4.311108589	-0.071620941	-0.059136372	-0.030855833	-1.472400277	-0.459960938	0.214111328	0.145751953	892.66	-69.70036278	-62.70743283	-115.0679043	-60
11757	0	0.358520508	-0.161437988	0.031860352	0.99973774	-0.006381989	-0.003642082	-0.021656036	8.963012695	-4.035949707	0.796508789	-0.319127247	-0.182119987	-1.082896221	-0.500732422	0.130615234	0.149169922	892.7	-69.47416177	-65.18147389	-116.1511827	-63
11758	0	0.323325157	-0.115135193	0.021618843	0.999839783	-0.014523506	-0.007277489	-0.007487297	8.083128929	-2.878379822	0.540471077	-0.726214038	-0.363893842	-0.374384819	-0.537597656	0.062255859	0.154052734	892.76	-72.27765378	-66.26958793	-114.9178728	-62
11759	0	0.370544434	-0.144165039	0.029785156	0.999736786	-0.021811485	-0.005786896	-0.004016876	9.26361084	-3.604125977	0.744628906	-1.090669779	-0.289370129	-0.200861401	-0.570800781	0.011230469	0.171386719	892.62	-75.97674942	-66.898898	-113.6254057	-63
11760	0	0.344059944	-0.153283119	0.036008835	0.999704361	-0.022525787	-0.004275322	-0.008000374	8.601498604	-3.83207798	0.900220871	-1.126400092	-0.213787113	-0.400058017	-0.606445313	-0.033203125	0.185302734	892.58	-79.25334749	-67.90433628	-112.8854079	-63
11761	0	0.302734375	-0.137512207	0.04876709	0.999593735	-0.027392387	-0.002353668	-0.007469177	7.568359375	-3.437805176	1.219177246	-1.369804717	-0.117699337	-0.373509402	-0.637207031	-0.084228516	0.205322266	892.6	-82.74152361	-68.79612092	-112.5210024	-66
11762	0	0.258619308	-0.180369377	0.088120461	0.999747276	-0.020647049	-0.003551483	-0.008088112	6.465482712	-4.509234428	2.203011513	-1.032439242	-0.177589087	-0.404439594	-0.66796875	-0.133300781	0.213867188	892.6	-85.94288703	-69.75888245	-111.6368841	-64
11763	0	0.250915527	-0.151184082	0.065307617	0.999739647	-0.020446777	-0.005148888	-0.008670807	6.272888184	-3.779602051	1.63269043	-1.022427451	-0.257466689	-0.43357791	-0.698730469	-0.177978516	0.224853516	892.58	-89.82561059	-70.77141974	-110.0088337	-69
11764	0	0.272509575	-0.18529892	0.046769142	0.999746323	-0.019939423	0.000975609	-0.010369301	6.812739372	-4.632472992	1.169228554	-0.997055237	0.048784556	-0.518508781	-0.724609375	-0.233642578	0.230957031	892.64	-91.82052882	-71.95502483	-110.322357	-65
11765	0	0.29888916	-0.194702148	0.050842285	0.99985981	-0.010566711	0.006459236	-0.011196136	7.472229004	-4.867553711	1.271057129	-0.528360118	0.322976812	-0.559832833	-0.759521484	-0.2890625	0.231689453	892.66	-90.74280866	-73.24415228	-112.7287911	-65
11766	0	0.396086693	-0.232438087	0.048369408	0.999876976	-0.005105972	0.005741119	-0.01362133	9.90216732	-5.810952187	1.209235191	-0.255309022	0.287067672	-0.681094278	-0.792236328	-0.340332031	0.223388672	892.54	-88.99047157	-74.78823894	-115.1695422	-69
11767	0	0.497558594	-0.264587402	0.033874512	0.999811172	0.007050514	0.005886078	-0.017097473	12.43896484	-6.614685059	0.846862793	0.352547846	0.294322374	-0.854927335	-0.825195313	-0.391601563	0.232177734	892.64	-85.10081025	-76.68901548	-118.3594544	-66
11768	0	0.485864639	-0.224693298	0.015612602	0.999881744	0.003885269	0.007803917	-0.012598991	12.14661598	-5.617332458	0.390315056	0.194271059	0.390211113	-0.629974217	-0.848876953	-0.440673828	0.248779297	892.6	-79.8382696	-77.97706973	-123.3087399	-64
11769	0	0.471313477	-0.254943848	0.057189941	0.999994278	0.001385689	0.00169754	-0.002571106	11.78283691	-6.373596191	1.429748535	0.069284571	0.084877176	-0.128555542	-0.870849609	-0.479003906	0.26171875	892.58	-78.48504233	-78.19511341	-124.5480791	-65
11770	0	0.467272758	-0.270435333	0.020524979	0.999761581	0.021002769	-0.000700951	0.00583744	11.68181896	-6.760883331	0.513124466	1.050221747	-0.03505031	0.291895169	-0.894287109	-0.499755859	0.310058594	892.6	-77.08274248	-77.51589962	-123.5491879	-66
11771	0	0.389221191	-0.140014648	-0.028503418	0.999558449	0.020072937	0.006302834	0.020973206	9.730529785	-3.500366211	-0.712585449	1.003794533	0.31518805	1.048814584	-0.921875	-0.478759766	0.380859375	892.7	-74.34121316	-74.96480987	-124.0251969	-63
11772	0	0.407649994	-0.134221077	0.008206367	0.999376297	0.010316849	0.006014824	0.033216476	10.19124985	-3.355526924	0.205159187	0.515949617	0.300803682	1.661168899	-0.954345703	-0.400878906	0.441650391	892.66	-74.34902765	-71.06903873	-122.7807605	-63
11773	0	0.412841797	-0.130126953	-0.020629883	0.999316216	-0.000217438	0.006596565	0.036365509	10.32104492	-3.253173828	-0.51574707	-0.010874364	0.3299034	1.818689671	-0.978027344	-0.297363281	0.479980469	892.6	-75.31697788	-66.80663329	-121.7488607	-64
11774	0	0.312872887	-0.109135628	-0.014300346	0.99916172	-0.008308411	0.00623703	0.039588928	7.821822166	-2.728390694	-0.357508659	-0.415536606	0.311938637	1.979999494	-0.989501953	-0.198974609	0.498046875	892.6	-77.0919607	-62.19043324	-120.8140706	-62
11775	0	0.26965332	-0.107116699	-0.000732422	0.999016762	-0.007316589	0.000660896	0.043716431	6.741333008	-2.67791748	-0.018310547	-0.365949389	0.033055647	2.186538058	-0.998291016	-0.102783203	0.5078125	892.6	-79.55075906	-57.23133468	-118.9276971	-63
11776	0	0.262143135	-0.112835884	-0.002839088	0.999097824	-0.000337601	-0.004029274	0.04226017	6.553578377	-2.820897102	-0.070977211	-0.01688511	-0.201524264	2.113643717	-1.028564453	0.000732422	0.520996094	892.64	-81.38605002	-52.49761422	-116.7346705	-67
11777	0	0.296569824	-0.112670898	-0.004943848	0.999305725	0.010975838	-0.005344391	0.035190582	7.414245605	-2.816772461	-0.123596191	0.548918864	-0.267281373	1.759936232	-1.066650391	0.119873047	0.550048828	892.6	-81.59676007	-48.57215219	-114.8389275	-66
11778	0	0.323021889	-0.097806931	-0.006842613	0.999604225	0.012702942	-0.004098892	0.024749756	8.075547218	-2.445173264	-0.171065331	0.635230828	-0.204971629	1.237650935	-1.100585938	0.249755859	0.581054688	892.58	-81.11075193	-45.8196568	-113.5206679	-65
11779	0	0.383972168	-0.109680176	0.003295898	0.999879837	0.008976936	-0.001457214	0.012546539	9.599304199	-2.742004395	0.082397461	0.448864782	-0.072863634	0.627352074	-1.122558594	0.370605469	0.614990234	892.58	-80.48661831	-44.41839913	-112.950271	-64
11780	0	0.434137344	-0.1167202	-0.007269859	0.999990463	0.001924515	0.003735542	0.00060463	10.85343361	-2.91800499	-0.181746483	0.096226028	0.186777676	0.030231567	-1.126464844	0.453613281	0.639648438	892.58	-79.87496437	-44.2805054	-113.5122362	-67
11781	0	0.408752441	-0.136474609	0.007873535	0.99993515	-0.005515099	0.006988525	-0.007064819	10.21881104	-3.411865234	0.196838379	-0.275760865	0.349433792	-0.353248572	-1.116699219	0.492675781	0.650146484	892.66	-79.59737259	-44.94811195	-114.8124652	-66
11782	0	0.495939255	-0.12021637	-0.018252373	0.999791145	-0.013256073	0.007547379	-0.013576508	12.39848137	-3.005409241	-0.456309319	-0.662849724	0.37739516	-0.678872567	-1.104736328	0.489990234	0.641357422	892.58	-79.97562482	-46.3534805	-116.4145023	-64
11783	0	0.415222168	-0.185668945	0.022216797	0.999405861	-0.019168854	0.005803108	-0.028022766	10.3805542	-4.641723633	0.555419922	-0.958632305	0.290212815	-1.401415505	-1.100097656	0.435302734	0.642578125	892.64	-80.86699927	-49.44494812	-118.1781449	-63
11784	0	0.357375145	-0.181472778	0.029974937	0.999377251	-0.014145851	-0.001464844	-0.03228569	8.934378624	-4.536819458	0.749373436	-0.707439357	-0.073257389	-1.614619564	-1.104980469	0.333007813	0.634277344	892.6	-82.0187271	-53.16836092	-118.7892569	-64
11785	0	0.385498047	-0.181213379	0.04473877	0.999461174	-0.010120392	-0.007414818	-0.030315399	9.637451172	-4.530334473	1.118469238	-0.506110418	-0.370807435	-1.516042026	-1.103515625	0.237304688	0.636230469	892.64	-83.77784004	-56.76404568	-118.0708907	-66
11786	0	0.363891602	-0.215026855	0.046142578	0.999398232	-0.002567291	-0.008270264	-0.033576965	9.097290039	-5.375671387	1.153564453	-0.128390301	-0.413596097	-1.67918489	-1.088134766	0.145263672	0.651611328	892.64	-85.01507554	-60.72945564	-116.9802884	-66
11787	0	0.291118622	-0.17226696	0.049869537	0.999443054	-0.00508213	-0.006202698	-0.032372475	7.277965546	-4.306674004	1.246738434	-0.254153651	-0.310192409	-1.618923944	-1.075439453	0.062255859	0.663330078	892.6	-86.43788732	-64.52368092	-116.044169	-60
11788	0	0.26846981	-0.174664497	0.058112144	0.999530792	-0.013082504	-0.004174232	-0.027347565	6.711745262	-4.366612434	1.452803612	-0.654227351	-0.208744213	-1.367591742	-1.060546875	-0.023193359	0.672363281	892.66	-88.71794168	-67.71343909	-115.1991311	-66
11789	0	0.277770996	-0.18963623	0.037414551	0.999557495	-0.017302513	0.002082825	-0.024089813	6.944274902	-4.740905762	0.93536377	-0.865253174	0.104156586	-1.204668201	-1.049804688	-0.108398438	0.670166016	892.7	-89.98868573	-70.50517597	-115.9683896	-61
11790	0	0.297655106	-0.22368145	0.050512314	0.999551773	-0.017237663	0.006594658	-0.023533821	7.44137764	-5.592036247	1.262807846	-0.862011703	0.329782071	-1.176866545	-1.041748047	-0.187255859	0.659179688	892.6	-89.61005703	-73.22761528	-118.4495839	-65
11791	0	0.314941406	-0.237731934	0.047607422	0.999666214	-0.011439323	0.006778717	-0.022125244	7.873535156	-5.94329834	1.190185547	-0.572029711	0.338973504	-1.106385101	-1.040283203	-0.265869141	0.637207031	892.7	-87.88758402	-75.76625275	-121.60153	-59
11792	0	0.400558472	-0.261884689	0.045193672	0.999773979	-0.00880909	0.005432129	-0.018545151	10.01396179	-6.547117233	1.129841805	-0.4404876	0.271626867	-0.927327256	-1.034667969	-0.333740234	0.614013672	892.66	-85.68434237	-77.86495988	-124.904772	-68
11793	0	0.481140137	-0.284484863	0.038452148	0.999891281	-0.001338005	0.0054245	-0.013626099	12.02850342	-7.112121582	0.961303711	-0.066902672	0.271234781	-0.681329562	-1.027587891	-0.388427734	0.603759766	892.58	-81.86561985	-79.35161026	-128.9597808	-67
11794	0	0.464160919	-0.241401672	0.02338028	0.999958038	-0.003388405	0.006808281	-0.004961967	11.60402298	-6.035041809	0.584506989	-0.169422571	0.340418726	-0.248101783	-1.028076172	-0.423339844	0.592529297	892.6	-77.47065377	-79.76371553	-133.8271576	-64
11795	0	0.484924316	-0.271606445	0.052856445	0.999952316	-0.008536339	0.00252533	0.003910065	12.12310791	-6.790161133	1.321411133	-0.426823665	0.126268469	0.195506315	-1.036376953	-0.451416016	0.589599609	892.6	-77.39293269	-79.24603025	-134.9060801	-63
11796	0	0.467324257	-0.29416275	0.021974564	0.999896049	0.009856224	0.002414703	0.010204315	11.68310642	-7.354068756	0.54936409	0.492828215	0.120739336	0.510233372	-1.041015625	-0.453369141	0.598388672	892.58	-76.21107282	-78.01735618	-134.9693887	-58
11797	0	0.349182129	-0.151672363	-0.017272949	0.999547958	0.010197639	0.005622864	0.027687073	8.729553223	-3.791809082	-0.43182373	0.509958672	0.281185479	1.384561879	-1.059326172	-0.415527344	0.627685547	892.6	-75.62657961	-74.75299475	-134.3773783	-60
11798	0	0.436660767	-0.144254684	0.013570786	0.99907589	0.005178452	0.000185013	0.042662621	10.91651917	-3.606367111	0.339269638	0.259002346	0.009253491	2.133788205	-1.087402344	-0.322753906	0.669921875	892.62	-78.40726652	-69.9508107	-130.8403101	-66
11799	0	0.450378418	-0.155639648	-0.03527832	0.99905014	0.00118351	0.002738953	0.043457031	11.25946045	-3.890991211	-0.881958008	0.059194221	0.136990977	2.173539284	-1.099365234	-0.173828125	0.723632813	892.7	-79.79282734	-64.97145733	-129.1723211	-63
11800	0	0.307729721	-0.108631134	-0.035785675	0.99903965	-0.005047798	0.003763199	0.043345451	7.693243027	-2.715778351	-0.894641876	-0.252470678	0.188220158	2.167966141	-1.085205078	-0.010986328	0.723876953	892.56	-81.1356713	-59.97490914	-128.2844117	-60
11801	0	0.262573242	-0.103393555	-0.002746582	0.998849869	-0.002673149	-0.004547119	0.047649384	6.564331055	-2.584838867	-0.068664551	-0.133708706	-0.227443135	2.383382722	-1.049316406	0.148681641	0.691894531	892.6	-83.39469846	-54.60959816	-125.954105	-63
11802	0	0.258369446	-0.10205555	-0.00744915	0.998862267	0.005056381	-0.012136459	0.045823097	6.459236145	-2.551388741	-0.186228752	0.252914919	-0.607053049	2.29202357	-0.99609375	0.283691406	0.646484375	892.64	-85.26023174	-49.50066677	-122.859054	-63
11803	0	0.29510498	-0.104736328	-0.019897461	0.999125481	0.012779236	-0.012675285	0.037731171	7.377624512	-2.618408203	-0.497436523	0.639148048	-0.633949008	1.887108461	-0.943603516	0.384033203	0.604248047	892.66	-85.74284358	-45.29087721	-120.2243066	-61
11804	0	0.312083244	-0.085002899	-0.023955345	0.999513626	0.014045715	-0.008805275	0.026384354	7.802081108	-2.125072479	-0.598883629	0.702399464	-0.440335025	1.319431257	-0.915771484	0.452636719	0.577392578	892.6	-85.32932108	-42.35165786	-118.5097022	-62
11805	0	0.388916016	-0.106872559	-0.00994873	0.999893188	0.007519722	-0.004676819	0.011550903	9.722900391	-2.671813965	-0.248718262	0.375999375	-0.233849199	0.577565559	-0.899169922	0.504394531	0.569335938	892.62	-85.04870684	-41.08580769	-117.6489661	-61
11806	0	0.429702759	-0.134935379	-0.01129818	0.999986649	0.001683235	0.000710487	-0.004824638	10.74256897	-3.373384476	-0.282454491	0.084162132	0.035524526	-0.241232988	-0.893310547	0.528076172	0.578369141	892.6	-84.74842064	-41.64939547	-117.8232207	-60
11807	0	0.421020508	-0.184570313	0.025695801	0.999842644	0.003799438	0.001820564	-0.017211914	10.5255127	-4.614257813	0.64239502	0.189981867	0.091032978	-0.860640747	-0.902587891	0.526367188	0.576171875	892.66	-83.94904309	-43.62120509	-118.3697891	-60
11808	0	0.523732185	-0.146166801	-0.004127502	0.999685287	0.001241684	0.003209114	-0.024838448	13.09330463	-3.654170036	-0.103187561	0.062090706	0.160472524	-1.242052567	-0.922607422	0.513671875	0.555664063	892.62	-83.12619062	-46.45146096	-119.3379843	-66
11809	0	0.401855469	-0.202819824	0.035400391	0.999352455	-0.008735657	0.004780769	-0.034568787	10.04638672	-5.070495605	0.885009766	-0.436877104	0.239090057	-1.728812364	-0.952880859	0.466796875	0.541259766	892.7	-82.97807571	-50.367159	-120.8768246	-62
11810	0	0.349912643	-0.198034286	0.035381317	0.999389648	-0.004487038	0.000519753	-0.034626007	8.747816086	-4.950857162	0.884532928	-0.224397502	0.025992909	-1.731652395	-0.987060547	0.397949219	0.525878906	892.66	-82.77812438	-54.34902771	-121.7851653	-63
11811	0	0.38885498	-0.182312012	0.044616699	0.9995327	-0.004252434	-0.00308609	-0.030109406	9.721374512	-4.557800293	1.11541748	-0.212654807	-0.154328539	-1.505704772	-1.014404297	0.329101563	0.518798828	892.78	-83.15608648	-57.87098699	-121.9278728	-63
11812	0	0.342017174	-0.213545799	0.037898064	0.999527931	-0.003399849	-0.003093719	-0.030350685	8.550429344	-5.338644981	0.947451591	-0.170019155	-0.154710278	-1.517772684	-1.030029297	0.264404297	0.513671875	892.72	-83.44868555	-61.41958199	-122.0499959	-65
11813	0	0.251159668	-0.177612305	0.050354004	0.999632835	-0.003868103	-0.002188683	-0.026702881	6.278991699	-4.440307617	1.258850098	-0.19342878	-0.109447498	-1.335307162	-1.045898438	0.199462891	0.511230469	892.72	-83.69836037	-64.53800237	-122.2770191	-61
11814	0	0.231153488	-0.166980743	0.053944588	0.999681473	-0.013325691	-0.002785683	-0.021245956	5.778837204	-4.174518585	1.348614693	-0.666355288	-0.139298919	-1.062410585	-1.055175781	0.138916016	0.510986328	892.6	-85.40139749	-67.037516	-122.0925601	-61
11815	0	0.232971191	-0.19909668	0.031860352	0.999720573	-0.014598846	0.0017519	-0.018463135	5.824279785	-4.977416992	0.796508789	-0.730010112	0.087603121	-0.923242472	-1.064208984	0.080322266	0.5078125	892.6	-86.1679327	-69.17263583	-123.0759544	-60
11816	0	0.266929626	-0.215696335	0.028733253	0.999743462	-0.007534981	0.006364822	-0.02035141	6.673240662	-5.392408371	0.718331337	-0.376781162	0.318268254	-1.017657258	-1.080078125	0.024169922	0.487792969	892.58	-84.4348266	-71.471077	-125.8389218	-60
11817	0	0.337219238	-0.249755859	0.037414551	0.999707222	-0.002544403	0.006169319	-0.023254395	8.430480957	-6.243896484	0.93536377	-0.127232567	0.308496056	-1.16283318	-1.103027344	-0.031982422	0.462158203	892.56	-81.3614592	-74.05450267	-129.3662761	-66
11818	0	0.457364082	-0.272898674	0.024324417	0.999738693	-0.000861168	0.005040169	-0.022264481	11.43410206	-6.82246685	0.608110428	-0.043062141	0.252030362	-1.113320875	-1.118652344	-0.092529297	0.439697266	892.6	-77.46840219	-76.47478721	-133.497474	-64
11819	0	0.502990723	-0.261108398	0.012084961	0.999851227	-0.008044243	0.006511688	-0.013767242	12.57476807	-6.527709961	0.302124023	-0.402232032	0.325600511	-0.68839616	-1.127441406	-0.153564453	0.419433594	892.62	-73.43464456	-77.82445878	-138.5846914	-63
11820	0	0.433040619	-0.2355299	0.042308807	0.999918938	-0.012598991	0.001150131	0.000482559	10.82601547	-5.88824749	1.057720184	-0.6299664	0.057508098	0.024128605	-1.13671875	-0.198974609	0.392578125	892.66	-74.31743865	-77.73575284	-139.1641731	-63
11821	0	0.48614502	-0.350708008	0.072021484	0.999907494	0.006298065	-0.010245323	0.006271362	12.15362549	-8.767700195	1.800537109	0.314912915	-0.512281867	0.31357773	-1.137939453	-0.222900391	0.391601563	892.56	-79.45571932	-77.29070214	-133.1701738	-60
11822	0	0.421796799	-0.227796555	-0.032823563	0.999459267	0.029174805	-0.004760742	0.014333725	10.54491997	-5.694913864	-0.820589066	1.459002762	-0.238079949	0.71681523	-1.131591797	-0.220703125	0.425292969	892.68	-79.57080662	-75.75803729	-129.6237466	-56
11823	0	0.405212402	-0.124816895	-0.026306152	0.999260902	0.021789551	0.001599312	0.031612396	10.13031006	-3.120422363	-0.657653809	1.089745853	0.079985285	1.581009084	-1.133789063	-0.183349609	0.459228516	892.62	-78.79381162	-72.14815791	-127.8442237	-61
11824	0	0.458431244	-0.137034416	-0.007719994	0.999090195	0.011325836	0.001225471	0.041095734	11.4607811	-3.425860405	-0.19299984	0.566463596	0.061292162	2.05541001	-1.137695313	-0.106689453	0.498535156	892.7	-79.52101505	-67.4793863	-125.695078	-66
11825	0	0.356994629	-0.112854004	-0.034545898	0.999043465	-0.002483368	0.002331734	0.043590546	8.924865723	-2.821350098	-0.863647461	-0.124207993	0.116623864	2.180222329	-1.137695313	-0.012695313	0.542236328	892.56	-81.04765785	-62.49644486	-124.32941	-63
11826	0	0.247233391	-0.093207359	-0.017489433	0.998827934	-0.010383606	-0.001804352	0.047235489	6.18083477	-2.330183983	-0.437235832	-0.519383188	-0.090252846	2.362697402	-1.1171875	0.091308594	0.575195313	892.56	-83.82082641	-57.1453053	-122.5039143	-66
11827	0	0.239379883	-0.105285645	0.003723145	0.998820305	-0.005859375	-0.010447502	0.047046661	5.98449707	-2.632141113	0.093078613	-0.293083954	-0.52258052	2.353258074	-1.075683594	0.198974609	0.603759766	892.62	-86.7901733	-51.8593545	-119.6898122	-66
11828	0	0.262675285	-0.108634949	-0.00641346	0.999088287	0.003252029	-0.014391899	0.040044785	6.566882133	-2.715873718	-0.160336494	0.162650869	-0.719813566	2.002847501	-1.026123047	0.291015625	0.619140625	892.62	-88.57676919	-47.33533403	-116.8636759	-64
11829	0	0.31427002	-0.101745605	-0.032043457	0.999492645	0.009102821	-0.010513306	0.028652191	7.856750488	-2.543640137	-0.801086426	0.455218047	-0.525754191	1.432851861	-0.99609375	0.349121094	0.629882813	892.62	-88.85002221	-44.08319322	-115.0361461	-62
11830	0	0.381908417	-0.096198082	-0.02943325	0.999836922	0.00879097	-0.004356384	0.015122414	9.547710419	-2.404952049	-0.735831261	0.439572301	-0.217831012	0.756161638	-0.990722656	0.375244141	0.653076172	892.62	-88.35952635	-42.37748658	-114.2956739	-62
11831	0	0.453125	-0.115234375	-0.031433105	0.999998093	0.000195503	0.001899719	-0.000320435	11.328125	-2.880859375	-0.785827637	0.009775168	0.094986021	-0.016021739	-1.000488281	0.377685547	0.673339844	892.62	-88.14760226	-42.43503773	-114.5924818	-64
11832	0	0.429219246	-0.158847809	-0.009843826	0.999869347	-0.004769325	0.005865097	-0.014258385	10.73048115	-3.971195221	-0.246095657	-0.238476615	0.293267583	-0.712950185	-1.029541016	0.33984375	0.700683594	892.7	-88.02108622	-44.0833776	-115.5895244	-66
11833	0	0.550231934	-0.157165527	-0.023498535	0.999666214	-0.004946709	0.004940033	-0.024856567	13.75579834	-3.929138184	-0.587463379	-0.247362926	0.247029103	-1.242966514	-1.062255859	0.277832031	0.716064453	892.56	-87.92032628	-46.96192704	-116.5404011	-68
11834	0	0.416285515	-0.207847595	0.014414787	0.999294281	-0.003970146	0.003760338	-0.03715229	10.40713787	-5.19618988	0.360369682	-0.198553994	0.18806111	-1.858051394	-1.096191406	0.189697266	0.730712891	892.6	-87.6992446	-51.25809266	-117.4475191	-64
11835	0	0.362854004	-0.187744141	0.029663086	0.999284744	-0.003031731	-0.003543854	-0.037506104	9.071350098	-4.693603516	0.741577148	-0.151622645	-0.177234901	-1.875751929	-1.122070313	0.083984375	0.746582031	892.74	-88.40429144	-55.62845749	-117.023677	-67
11836	0	0.383594513	-0.171849251	0.034408569	0.999454498	-0.005016327	-0.006419182	-0.031997681	9.589862823	-4.29623127	0.860214233	-0.250861942	-0.321017439	-1.60017488	-1.123046875	-0.020263672	0.783447266	892.54	-90.06277374	-59.36800237	-115.7614728	-63
11837	0	0.327148438	-0.217895508	0.022766113	0.999464035	-0.004218102	-0.00246048	-0.032341003	8.178710938	-5.447387695	0.569152832	-0.210942697	-0.123045932	-1.617338626	-1.119628906	-0.115966797	0.819580078	892.62	-91.13568033	-63.13157211	-115.104768	-69
11838	0	0.25599575	-0.185090065	0.043466568	0.999546051	-0.003567696	0.000494957	-0.029892921	6.399893761	-4.627251625	1.0866642	-0.178411745	0.024751589	-1.494871996	-1.111572266	-0.211914063	0.846923828	892.62	-91.59706104	-66.61410414	-115.0595839	-65
11839	0	0.250183105	-0.191467285	0.04083252	0.999621391	-0.008460999	0.001736641	-0.026096344	6.254577637	-4.786682129	1.020812988	-0.423103223	0.086842986	-1.304981581	-1.103515625	-0.303466797	0.873779297	892.54	-92.31719874	-69.66100915	-115.3366002	-74
11840	0	0.26844883	-0.222443581	0.027673721	0.999681473	-0.004756927	0.006230354	-0.023986816	6.711220741	-5.561089516	0.691843033	-0.237871626	0.311550788	-1.199468149	-1.092773438	-0.401611328	0.895507813	892.66	-90.99394596	-72.4739203	-117.3202464	-75
11841	0	0.293334961	-0.211669922	0.025024414	0.9997015	-0.002353668	0.009922981	-0.022174835	7.333374023	-5.291748047	0.625610352	-0.117695098	0.496198338	-1.108851875	-1.090087891	-0.479980469	0.930175781	892.62	-87.18619674	-75.0353999	-121.5687594	-69
11842	0	0.351271629	-0.22847271	0.028588295	0.999717712	-0.010813713	0.009694099	-0.018780708	8.781790733	-5.711817741	0.714707375	-0.540736457	0.484750515	-0.939123649	-1.089599609	-0.562255859	0.968017578	892.62	-83.17260441	-77.11736276	-126.9774801	-72
11843	0	0.425720215	-0.264343262	0.01184082	0.999779701	-0.012741089	0.009514809	-0.013664246	10.64300537	-6.608581543	0.296020508	-0.637101125	0.475775294	-0.683262344	-1.086669922	-0.647216797	1.006103516	892.62	-78.41713054	-78.50895218	-133.3333069	-72
11844	0	0.457368851	-0.277938843	0.0123806	0.999937057	-0.005083084	0.00722599	-0.006897926	11.43422127	-6.948471069	0.309514999	-0.254159527	0.36130708	-0.344903539	-1.084960938	-0.712158203	1.068115234	892.62	-73.91519127	-79.08650933	-138.5145782	-69
11845	0	0.548278809	-0.303344727	0.038146973	0.99998951	0.0041008	-0.001635551	0.000766754	13.70697021	-7.583618164	0.953674316	0.205040664	-0.081777846	0.038337836	-1.083984375	-0.724365234	1.168701172	892.6	-74.4445745	-79.05009966	-137.4940956	-67
11846	0	0.55530262	-0.279097557	0.001993179	0.999684334	0.022598267	-0.00346756	0.010349274	13.8825655	-6.977438927	0.049829483	1.130031969	-0.173396195	0.517518017	-1.068359375	-0.656494141	1.312744141	892.56	-75.233783	-77.99813667	-134.0396162	-72
11847	0	0.364990234	-0.136169434	-0.020324707	0.999347687	0.017666817	-8.39E-05	0.031482697	9.124755859	-3.40423584	-0.508117676	0.883532822	-0.004197079	1.574476951	-1.062011719	-0.481201172	1.457275391	892.54	-76.78729639	-74.4848331	-130.3384909	-67
11848	0	0.452978134	-0.113430023	0.011060715	0.998598099	0.011623383	-0.005152702	0.05136776	11.32445335	-2.83575058	0.276517868	0.581440712	-0.257755511	2.569588208	-1.064208984	-0.247558594	1.552001953	892.6	-80.66003469	-68.80759032	-124.834433	-69
11849	0	0.442321777	-0.113464355	-0.030639648	0.998497009	0.000317574	-0.00151825	0.054775238	11.05804443	-2.836608887	-0.765991211	0.015886635	-0.075950518	2.740134385	-1.024658203	0.010742188	1.608154297	892.56	-82.98011328	-62.60744835	-122.2176888	-91
11850	0	0.293901443	-0.083508492	-0.019600868	0.998575211	-0.015688896	0.001868248	0.050958633	7.347536087	-2.087712288	-0.490021706	-0.784817429	0.093456771	2.549141967	-0.977539063	0.214111328	1.623291016	892.56	-85.42381533	-56.77009513	-121.4429099	-76
11851	0	0.247009277	-0.084411621	0.002380371	0.998782158	-0.011688232	-0.002684593	0.047851563	6.175231934	-2.110290527	0.059509277	-0.584648918	-0.134284163	2.393549617	-0.908691406	0.353271484	1.610839844	892.62	-87.64546145	-51.31331788	-120.3420634	-77
11852	0	0.257568359	-0.089294434	-0.003417969	0.99917984	0.001041412	-0.006350517	0.039958954	6.439208984	-2.23236084	-0.085449219	0.052084845	-0.317612619	1.998493579	-0.813720703	0.487060547	1.583496094	892.66	-88.54107207	-46.76483237	-118.9935045	-64
11853	0	0.289103508	-0.087246895	-0.01471138	0.999476433	0.011697769	-0.006110191	0.029488564	7.2275877	-2.181172371	-0.3677845	0.584990252	-0.305562738	1.474684786	-0.718017578	0.612304688	1.531494141	892.56	-88.00713694	-43.4197479	-117.8537785	-68
11854	0	0.350986481	-0.085254669	-0.040517807	0.999751091	0.014167786	-0.000928879	0.017158508	8.774662018	-2.13136673	-1.012945175	0.708447856	-0.046447779	0.857996353	-0.642089844	0.720214844	1.461669922	892.62	-86.57140925	-41.48248975	-117.5765857	-64
11855	0	0.388427734	-0.086181641	-0.029907227	0.999969482	0.00514698	0.003795624	0.00434494	9.710693359	-2.154541016	-0.747680664	0.257351578	0.18978308	0.217249174	-0.604003906	0.783691406	1.388916016	892.68	-85.63854342	-40.98948878	-118.0981425	-63
11856	0	0.410346031	-0.143364906	0.000121117	0.999956131	-0.002151489	0.003399849	-0.00839901	10.25865078	-3.584122658	0.003027916	-0.107576018	0.169994904	-0.419956556	-0.594238281	0.793945313	1.344970703	892.74	-85.48346318	-41.96252288	-118.7046153	-60
11857	0	0.457336426	-0.152648926	-0.002868652	0.999840736	0.000125885	0.002854347	-0.017578125	11.43341064	-3.816223145	-0.071716309	0.006294583	0.142724906	-0.878952715	-0.604492188	0.778808594	1.304199219	892.68	-85.01734295	-43.99776325	-119.3686824	-61
11858	0	0.554077148	-0.184560776	-0.01023674	0.999422073	-0.00757885	0.006484032	-0.032482147	13.85192871	-4.614019394	-0.255918503	-0.379015447	0.324264002	-1.624420048	-0.625732422	0.746582031	1.268066406	892.6	-84.79003056	-47.70761554	-120.8821486	-61
11859	0	0.372436523	-0.223510742	0.016113281	0.999081612	-0.008678436	0.004067421	-0.041751862	9.310913086	-5.587768555	0.402832031	-0.434054637	0.2034333	-2.088232089	-0.687255859	0.672119141	1.232177734	892.56	-84.71033017	-52.50132797	-122.2809137	-56
11860	0	0.370033264	-0.177138329	0.031899452	0.999372482	-0.007011414	-0.004096031	-0.034473419	9.250831604	-4.428458214	0.797486305	-0.35064401	-0.204844399	-1.724031512	-0.739013672	0.582275391	1.2109375	892.72	-85.70944534	-56.55088747	-122.0645972	-60
11861	0	0.350402832	-0.194396973	0.025085449	0.999556541	0.001544952	-0.011481285	-0.02740097	8.760070801	-4.859924316	0.62713623	0.077259018	-0.574148965	-1.37025069	-0.754638672	0.512939453	1.194824219	892.62	-87.34668324	-59.83853572	-119.9675804	-58
11862	0	0.281977654	-0.179329872	0.026329041	0.99955368	0.001597404	-0.012253761	-0.027169228	7.049441338	-4.483246803	0.658226013	0.079882088	-0.612779072	-1.358663164	-0.747802734	0.468994141	1.186523438	892.6	-89.59805668	-63.0598509	-117.2200658	-56
11863	0	0.261474609	-0.160339355	0.037719727	0.999567986	-0.008117676	-0.010622978	-0.026157379	6.536865234	-4.008483887	0.942993164	-0.405942188	-0.531225333	-1.308057135	-0.740722656	0.414306641	1.182128906	892.62	-93.25639486	-66.09467682	-114.2133667	-58
11864	0	0.261945724	-0.203842163	0.034233093	0.999539375	-0.015494347	-0.004867554	-0.025629044	6.548643112	-5.096054077	0.855827332	-0.77483625	-0.243415044	-1.281648881	-0.737548828	0.340087891	1.179443359	892.56	-97.02691708	-69.03226672	-112.0641357	-57
11865	0	0.278930664	-0.21887207	0.025817871	0.999635696	-0.010935783	0.002388	-0.024551392	6.973266602	-5.471801758	0.645446777	-0.546855541	0.119414518	-1.227718587	-0.738525391	0.259521484	1.163330078	892.56	-98.60195727	-71.91227821	-111.735507	-58
11866	0	0.299052238	-0.234021187	0.037635803	0.999658585	-0.008664131	0.005389214	-0.024045944	7.476305962	-5.850529671	0.940895081	-0.433255837	0.269491331	-1.202433978	-0.749267578	0.189941406	1.141357422	892.62	-98.95474509	-74.77790991	-112.4153543	-60
11867	0	0.357666016	-0.260864258	0.041259766	0.999721527	-0.00895977	0.004009247	-0.021438599	8.941650391	-6.521606445	1.031494141	-0.448030032	0.200480921	-1.072029282	-0.760009766	0.126708984	1.104492188	892.68	-99.73672839	-77.31608949	-112.6796421	-60
11868	0	0.446500778	-0.286234856	0.023075104	0.999833107	-0.003787041	0.003936768	-0.01738739	11.16251945	-7.155871391	0.576877594	-0.18936252	0.196849278	-0.869417642	-0.761474609	0.065673828	1.072509766	892.6	-99.58518836	-79.38573929	-113.2893514	-68
11869	0	0.493286133	-0.276306152	-0.007324219	0.999920845	9.54E-05	0.006695747	-0.010639191	12.33215332	-6.907653809	-0.183105469	0.004768497	0.334796187	-0.531973546	-0.763916016	0.026123047	1.033203125	892.62	-96.11524638	-80.71844656	-116.80994	-74
11870	0	0.578365326	-0.308989525	0.01264286	0.999978065	0.003017426	0.005069733	-0.002918243	14.45913315	-7.724738121	0.31607151	0.150872366	0.253488464	-0.145913224	-0.770996094	-0.004394531	0.984863281	892.68	-92.19901163	-81.10191797	-120.4340826	-63
11871	0	0.50793457	-0.261657715	-0.019836426	0.999820709	0.015900612	0.005496979	0.008655548	12.69836426	-6.541442871	-0.495910645	0.795078034	0.274865338	0.432803229	-0.778808594	-0.019775391	0.941162109	892.66	-86.54316985	-80.09991014	-124.3310088	-60
11872	0	0.32053566	-0.122011185	-0.015205383	0.999475479	0.005735397	0.00306797	0.031700134	8.013391495	-3.050279617	-0.380134583	0.286819942	0.1534253	1.585283482	-0.795410156	-0.001953125	0.909423828	892.68	-85.36356954	-76.44447479	-124.8740748	-57
11873	0	0.403137207	-0.134521484	0.017272949	0.998748779	0.002842903	-0.007217407	0.04940033	10.07843018	-3.363037109	0.43182373	0.142204464	-0.361020927	2.471047046	-0.807861328	0.026611328	0.887695313	892.56	-88.78928105	-70.82001348	-120.9797535	-55
11874	0	0.423829079	-0.142278671	-0.045202255	0.998703003	0.003510475	-0.004542351	0.0505867	10.59572697	-3.556966782	-1.130056381	0.175599672	-0.227215767	2.530428959	-0.810302734	0.081298828	0.894775391	892.68	-89.81625345	-65.02062113	-119.4477805	-59
11875	0	0.327880859	-0.106262207	-0.054870605	0.998949051	-0.001502037	0.001560211	0.045764923	8.197021484	-2.656555176	-1.371765137	-0.075128152	0.078037877	2.289047462	-0.834228516	0.143066406	0.908203125	892.66	-89.67471837	-59.7700002	-119.8080424	-63
11876	0	0.283285141	-0.090909958	-0.022044182	0.999046326	0.00094986	-0.001631737	0.043617249	7.082128525	-2.272748947	-0.551104546	0.047508081	-0.081612778	2.18155582	-0.858154297	0.207275391	0.9296875	892.6	-89.876913	-54.77079176	-119.4444126	-57
11877	0	0.273742676	-0.096069336	-0.022583008	0.99925518	0.006175995	-0.006819725	0.037464142	6.843566895	-2.401733398	-0.564575195	0.308876388	-0.341070885	1.873672026	-0.862548828	0.299072266	0.959472656	892.54	-90.18304002	-50.48011477	-118.1736949	-55
11878	0	0.285042763	-0.09185791	-0.039802551	0.99950695	0.010519028	-0.007177353	0.028671265	7.126069069	-2.296447754	-0.995063782	0.526037698	-0.358926538	1.43379849	-0.843994141	0.396728516	0.987304688	892.68	-89.91299834	-47.20307414	-116.9359605	-58
11879	0	0.303100586	-0.073059082	-0.037719727	0.99973011	0.009353638	-0.004851341	0.020675659	7.577514648	-1.826477051	-0.942993164	0.46772387	-0.242588838	1.033875765	-0.817626953	0.489501953	0.995361328	892.68	-89.43250047	-44.85419238	-116.11922	-61
11880	0	0.367951393	-0.086922646	-0.038734436	0.999940872	0.00226593	-0.002453804	0.010345459	9.198784828	-2.173066139	-0.968360901	0.113298741	-0.122692618	0.517283139	-0.794677734	0.552001953	0.994628906	892.6	-89.46250628	-43.69865374	-115.7091302	-60
11881	0	0.43347168	-0.119873047	-0.043884277	0.999991417	-0.000232697	0.002110481	-0.003501892	10.83679199	-2.996826172	-1.097106934	-0.011634859	0.105524358	-0.175095094	-0.786376953	0.577880859	0.9921875	892.62	-89.25937744	-44.13565896	-116.0432818	-63
11882	0	0.436100006	-0.162836075	-0.016611099	0.999840736	0.002861023	0.003477097	-0.017255783	10.90250015	-4.070901871	-0.415277481	0.143058731	0.173864045	-0.862834894	-0.797607422	0.569580078	0.987792969	892.66	-88.50010097	-46.15276831	-116.6523622	-68
11883	0	0.547546387	-0.149658203	-0.027832031	0.999592781	-0.003044128	0.002873421	-0.028205872	13.68865967	-3.741455078	-0.695800781	-0.152227055	0.143690513	-1.410484766	-0.819580078	0.543945313	0.979736328	892.72	-88.39875212	-49.43588548	-117.2541691	-68
11884	0	0.405679703	-0.209997177	-0.00033474	0.999242783	-0.00668335	0.003157616	-0.038186073	10.14199257	-5.249929428	-0.008368492	-0.334251793	0.157920618	-1.909785397	-0.854003906	0.481933594	0.966796875	892.66	-88.56954539	-53.86631805	-118.0071224	-67
11885	0	0.316589355	-0.197814941	0.030700684	0.999331474	-0.00151825	-0.003645897	-0.036327362	7.914733887	-4.945373535	0.76751709	-0.07592938	-0.182335439	-1.816772571	-0.887695313	0.400146484	0.955322266	892.56	-89.25093989	-58.10177855	-117.4072135	-60
11886	0	0.369662285	-0.189023972	0.063881874	0.999504089	0.002682686	-0.011742592	-0.029076576	9.241557121	-4.725599289	1.597046852	0.134156447	-0.587226565	-1.454068929	-0.896972656	0.341796875	0.960693359	892.56	-91.28526427	-61.49350542	-114.7155341	-57
11887	0	0.366577148	-0.203063965	0.014648438	0.999550819	-0.003677368	-0.006014824	-0.029117584	9.164428711	-5.076599121	0.366210938	-0.183895924	-0.300786201	-1.456097083	-0.888183594	0.291503906	0.975585938	892.72	-93.34080504	-64.86348859	-112.8865341	-54
11888	0	0.310213089	-0.181460381	0.012206078	0.99949646	-0.014982224	0.005480766	-0.027420998	7.755327225	-4.536509514	0.305151939	-0.749236886	0.274084302	-1.37127996	-0.897216797	0.228515625	0.97265625	892.66	-94.08840451	-68.1003278	-113.9365736	-54
11889	0	0.275695801	-0.254760742	0.044799805	0.999661446	-0.007911682	0.00924015	-0.022972107	6.89239502	-6.369018555	1.119995117	-0.395628669	0.462059568	-1.148734737	-0.921386719	0.150634766	0.954833984	892.72	-92.56773567	-70.84273809	-116.5340548	-55
11890	0	0.266610146	-0.200051308	0.039736748	0.999816895	-0.005122185	0.005255699	-0.017670631	6.665253639	-5.001282692	0.993418694	-0.256124868	0.262800995	-0.883585491	-0.937744141	0.10546875	0.933837891	892.62	-91.50680901	-72.93368711	-118.2735347	-55
11891	0	0.293701172	-0.200073242	0.015136719	0.999839783	-0.011954308	0.005645752	-0.012062073	7.342529297	-5.001831055	0.378417969	-0.597747288	0.282302668	-0.603135835	-0.949951172	0.06640625	0.920654297	892.62	-90.72447401	-74.36748288	-120.5183848	-54
11892	0	0.331942558	-0.239660263	0.013457298	0.99991703	-0.007288933	0.007003784	-0.007921219	8.298563957	-5.991506577	0.336432457	-0.364456659	0.350198836	-0.396071831	-0.959716797	0.02734375	0.898681641	892.62	-88.52620326	-75.30069704	-123.6657923	-55
11893	0	0.39276123	-0.235229492	0.003845215	0.999967575	0.000229836	0.006607056	-0.004577637	9.819030762	-5.880737305	0.096130371	0.011491899	0.330356343	-0.228884303	-0.969970703	0.010253906	0.872314453	892.68	-85.39949373	-75.80712431	-126.8721306	-55
11894	0	0.450522423	-0.234962463	-0.000727654	0.999987602	0.000553131	0.004674911	-0.001096725	11.26306057	-5.874061584	-0.018191338	0.027656663	0.233746485	-0.054836487	-0.981445313	0.010253906	0.850097656	892.62	-83.11463789	-75.89402024	-129.1665085	-57
11895	0	0.45324707	-0.217834473	0.0078125	0.999975204	-0.004099846	0.000766754	0.005504608	11.33117676	-5.445861816	0.1953125	-0.204993924	0.038338012	0.275232596	-0.990478516	0.017089844	0.821777344	892.62	-83.47895737	-75.26710058	-129.2788047	-56
11896	0	0.543281555	-0.293105125	0.021100044	0.999925613	0.006835938	-0.004918098	0.00875473	13.58203888	-7.327628136	0.527501106	0.341805282	-0.245910971	0.437747278	-0.990966797	0.034423828	0.809082031	892.68	-85.08099987	-74.32735522	-126.8111844	-54
11897	0	0.398620605	-0.193603516	-0.025268555	0.999613762	0.021465302	-0.002013206	0.017520905	9.965515137	-4.840087891	-0.631713867	1.07340318	-0.100673277	0.876157954	-0.985839844	0.086425781	0.787353516	892.68	-83.99249973	-72.3494259	-125.3845304	-54
11898	0	0.349843025	-0.113002777	0.005249023	0.999267578	0.015692711	-0.005291939	0.034474373	8.74607563	-2.825069427	0.131225586	0.784826957	-0.264661488	1.724139148	-0.983886719	0.170898438	0.749023438	892.68	-84.93403883	-68.47315269	-122.4820593	-55
11899	0	0.433837891	-0.121337891	-0.002746582	0.999034882	0.012669563	-0.008098602	0.041248322	10.84594727	-3.033447266	-0.068664551	0.633681849	-0.405060313	2.063079213	-0.966552734	0.270263672	0.714355469	892.72	-86.36710767	-63.8295723	-119.3339581	-55
11900	0	0.397128105	-0.134791374	-0.052310944	0.999361992	0.006964684	-0.000686646	0.035011292	9.928202629	-3.369784355	-1.30777359	0.348308205	-0.034339574	1.750936716	-0.941894531	0.360839844	0.685791016	892.68	-86.19156185	-59.83562375	-118.6318993	-55
11901	0	0.30065918	-0.094116211	-0.040649414	0.999511719	0.003312111	0.00359726	0.030841827	7.516479492	-2.352905273	-1.016235352	0.165632471	0.17989222	1.542342103	-0.932128906	0.418945313	0.649169922	892.62	-85.55619817	-56.28937431	-118.9393883	-54
11902	0	0.283238411	-0.089794159	-0.010835648	0.999533653	0.003160477	-0.001684189	0.030323029	7.080960274	-2.244853973	-0.27089119	0.158048399	-0.084222533	1.516387115	-0.914794922	0.466064453	0.61328125	892.62	-85.83009491	-52.85151125	-118.1672128	-52
11903	0	0.289367676	-0.101074219	-0.026733398	0.999680519	0.004043579	-0.005476952	0.024307251	7.234191895	-2.526855469	-0.668334961	0.202200432	-0.27387667	1.215491655	-0.890625	0.504394531	0.603027344	892.66	-86.39359564	-50.13251849	-116.865169	-54
11904	0	0.295089722	-0.097768784	-0.030239105	0.999848366	0.004752159	-0.0041008	0.016238213	7.377243042	-2.444219589	-0.755977631	0.23761996	-0.205050337	0.811951647	-0.863769531	0.533935547	0.602050781	892.62	-86.53186296	-48.3275778	-115.9748063	-51
11905	0	0.299377441	-0.102478027	-0.017333984	0.999965668	0.000817299	-0.001636505	0.007972717	7.484436035	-2.561950684	-0.433349609	0.0408654	-0.081826169	0.39864031	-0.850341797	0.548828125	0.594482422	892.62	-86.71254247	-47.45579577	-115.6173327	-53
11906	0	0.324950218	-0.127342224	-0.008310318	0.999996185	-0.002617836	0.000847816	5.25E-05	8.123755455	-3.183555603	-0.20775795	-0.130891965	0.042390877	0.002622608	-0.84765625	0.541992188	0.589111328	892.6	-86.91575374	-47.47944758	-115.7617331	-60
11907	0	0.379821777	-0.150390625	-0.01763916	0.999928474	-0.003433228	0.005558968	-0.009944916	9.495544434	-3.759765625	-0.440979004	-0.171665428	0.277954939	-0.497257524	-0.858154297	0.518554688	0.583007813	892.66	-86.53886514	-48.622751	-116.8098436	-69
11908	0	0.392812729	-0.200940132	0.006416321	0.999731064	-0.000562668	0.008292198	-0.021650314	9.820318222	-5.023503304	0.16040802	-0.028135915	0.414647082	-1.082612772	-0.884033203	0.473388672	0.568359375	892.62	-85.27783314	-51.07661995	-118.5550819	-58
11909	0	0.41229248	-0.210510254	0.028503418	0.999612808	0.002449989	0.005264282	-0.027194977	10.30731201	-5.262756348	0.712585449	0.122515259	0.263248046	-1.359924146	-0.923339844	0.413574219	0.555419922	892.62	-83.82782521	-54.17257774	-120.0396703	-57
11910	0	0.548732758	-0.220394135	0.010404587	0.999524117	-0.003717422	0.005702972	-0.030072212	13.71831894	-5.509853363	0.26011467	-0.185900588	0.285193821	-1.503848955	-0.952880859	0.344970703	0.551269531	892.72	-82.70196098	-57.57559107	-121.9253099	-52
11911	0	0.380432129	-0.242736816	0.023925781	0.999490738	-0.007838249	0.010738373	-0.028999329	9.510803223	-6.06842041	0.598144531	-0.391978966	0.537009753	-1.450212485	-0.984130859	0.260986328	0.542724609	892.56	-80.75682554	-60.74387636	-125.2483385	-54
11912	0	0.268279076	-0.169379234	0.059354782	0.99978447	-0.013586044	0.00461483	-0.014966965	6.706976891	-4.234480858	1.483869553	-0.679350896	0.230758036	-0.748401864	-1.013183594	0.183349609	0.530761719	892.62	-80.83127612	-62.40505235	-126.9551271	-54
11913	0	0.352966309	-0.20880127	0.074035645	0.99993515	-0.009963036	-0.004138947	-0.003391266	8.824157715	-5.220031738	1.850891113	-0.498162398	-0.206951738	-0.169566908	-1.022949219	0.131347656	0.535644531	892.72	-82.75679918	-62.90733469	-126.0956321	-52
11914	0	0.366131783	-0.227683067	0.020555496	0.999979973	-0.003606796	0.000465393	-0.0051651	9.153294563	-5.692076683	0.513887405	-0.180341013	0.023269808	-0.258256722	-1.024169922	0.101074219	0.555175781	892.62	-82.90374354	-63.53498804	-126.4057963	-58
11915	0	0.303894043	-0.184326172	0.024475098	0.999939919	-0.005634308	0.006497383	-0.006679535	7.597351074	-4.608154297	0.611877441	-0.281720961	0.324875577	-0.333983346	-1.034667969	0.071044922	0.552490234	892.62	-81.81882866	-64.2390376	-128.3401786	-58
11916	0	0.278989792	-0.185976028	0.043429375	0.999922752	-0.010914803	0.005313873	-0.002651215	6.974744797	-4.649400711	1.085734367	-0.545754172	0.265700502	-0.132564141	-1.046875	0.032226563	0.544921875	892.68	-81.70060665	-64.49299621	-129.8671006	-66
11917	0	0.28125	-0.189697266	0.023498535	0.999966621	-0.007289886	0.003533363	0.000770569	7.03125	-4.742431641	0.587463379	-0.364498347	0.176670117	0.038528868	-1.057373047	0.004150391	0.55078125	892.66	-81.70170817	-64.38407591	-130.7990266	-64
11918	0	0.284971237	-0.190356255	0.018836021	0.999986649	-0.004036903	0.003098488	-0.00018692	7.12428093	-4.758906364	0.470900536	-0.201846041	0.154925062	-0.009346049	-1.065917969	-0.017333984	0.555664063	892.68	-81.40233173	-64.38658887	-131.6495511	-58
11919	0	0.288635254	-0.19329834	0.020507813	0.999999046	-0.000682831	0.000775337	-0.000839233	7.215881348	-4.832458496	0.512695313	-0.034141551	0.038766872	-0.041961682	-1.074462891	-0.038818359	0.563720703	892.56	-81.24433717	-64.49837581	-131.9168912	-52
11920	0	0.302542686	-0.193427086	0.018391609	0.999991417	0.003106117	-0.002466202	0.000366211	7.563567162	-4.835677147	0.45979023	0.155306273	-0.123310415	0.018310595	-1.076660156	-0.051513672	0.587646484	892.68	-81.46721614	-64.52657873	-131.2799363	-51
11921	0	0.342712402	-0.202636719	0.018798828	0.999969482	0.006142616	-0.004776001	9.54E-05	8.567810059	-5.065917969	0.469970703	0.307133913	-0.238802459	0.00476842	-1.076904297	-0.057861328	0.619384766	892.6	-81.88760569	-64.61989872	-130.038572	-49
11922	0	0.389130592	-0.210640907	0.019745827	0.999961853	0.006680489	-0.005326271	-0.001369476	9.728264809	-5.266022682	0.493645668	0.334028598	-0.266316876	-0.06847467	-1.0703125	-0.062255859	0.65625	892.62	-82.34255015	-64.88237874	-128.6916878	-48
11923	0	0.385559082	-0.20904541	0.019348145	0.999974251	0.005039215	-0.004961967	-0.000999451	9.638977051	-5.226135254	0.483703613	0.251962897	-0.248100483	-0.049972959	-1.061523438	-0.064453125	0.684326172	892.68	-82.9283236	-65.0904462	-127.4106206	-48
11924	0	0.379191399	-0.199242592	0.024619102	0.999961853	0.004547119	-0.007182121	0.001806259	9.479784966	-4.981064796	0.615477562	0.227358819	-0.359110584	0.090314095	-1.05078125	-0.062255859	0.726318359	892.68	-84.2018683	-64.9971628	-125.4335207	-52
11925	0	0.499206543	-0.234069824	0.020446777	0.999884605	0.011669159	-0.009375572	-0.002193451	12.48016357	-5.851745605	0.511169434	0.583480206	-0.468796495	-0.10967673	-1.033203125	-0.051757813	0.761474609	892.68	-85.11656087	-65.36735003	-122.9550733	-55
11926	0	0.48611927	-0.232042313	-0.008858681	0.999505997	0.029370308	-0.005345345	-0.00979805	12.15298176	-5.801057816	-0.221467018	1.468757121	-0.267311221	-0.489983137	-1.013427734	-0.034667969	0.798828125	892.68	-82.84547909	-66.56727172	-121.7589687	-56
11927	0	0.344909668	-0.125244141	-0.002990723	0.999390602	0.03446579	-0.003344536	-0.004364014	8.622741699	-3.131103516	-0.074768066	1.723639544	-0.16726076	-0.218245007	-1.00390625	0.002197266	0.823730469	892.68	-79.59734325	-67.13949863	-120.9994226	-53
11928	0	0.339279175	-0.045768738	0.02674675	0.999490738	0.029033661	-0.009011269	0.009654045	8.48197937	-1.144218445	0.668668747	1.451929304	-0.450639863	0.482784139	-0.995117188	0.065185547	0.840820313	892.62	-79.09492956	-66.26606969	-117.9286467	-49
11929	0	0.424804688	-0.048950195	0.020202637	0.999763489	0.014302254	-0.0103302	0.012695313	10.62011719	-1.223754883	0.505065918	0.715169006	-0.516550688	0.634815617	-0.970703125	0.136474609	0.870605469	892.62	-80.59586107	-65.07113772	-114.4844629	-47
11930	0	0.410549164	-0.036849022	0.001021385	0.999966621	-0.000391006	-0.003770828	0.007116318	10.2637291	-0.921225548	0.02553463	-0.019550535	-0.188543455	0.355819743	-0.944824219	0.181640625	0.888183594	892.6	-81.80774888	-64.36674514	-113.1903022	-46
11931	0	0.36340332	-0.064453125	0.012390137	0.999993324	-0.002071381	-1.81E-05	0.002922058	9.085083008	-1.611328125	0.309753418	-0.103569252	-0.000905993	0.146103218	-0.936279297	0.192138672	0.895507813	892.72	-82.14539335	-64.07516879	-113.0772269	-47
11932	0	0.367240906	-0.06518364	0.026147842	0.99997139	0.00715065	-0.001606941	0.00151062	9.181022644	-1.629590988	0.65369606	0.357535838	-0.080347811	0.075531711	-0.931884766	0.200683594	0.900146484	892.68	-81.74733703	-63.97342376	-112.6117929	-49
11933	0	0.364501953	-0.05657959	0.008666992	0.999985695	0.004707336	-0.001990318	0.000835419	9.112548828	-1.414489746	0.216674805	0.235367873	-0.09951636	0.041771122	-0.923583984	0.222412109	0.900878906	892.62	-81.69609711	-63.95984259	-112.0692822	-49
11934	0	0.373354912	-0.046780586	0.004504204	0.999988556	-0.003228188	-0.000611305	0.00326252	9.333872795	-1.169514656	0.112605095	-0.161409955	-0.030565371	0.163126575	-0.914550781	0.230712891	0.90234375	892.68	-82.31152394	-63.65276367	-111.7954611	-48
11935	0	0.378723145	-0.070739746	0.007141113	0.999957085	-0.008808136	0.000100136	0.002857208	9.468078613	-1.768493652	0.178527832	-0.440413094	0.005006862	0.142862455	-0.909912109	0.228515625	0.905273438	892.72	-83.37925597	-63.38402698	-111.7292733	-48
11936	0	0.362158775	-0.079715729	0.006682396	0.999969482	-0.007658005	0.001105309	0.000767708	9.053969383	-1.992893219	0.167059898	-0.382904096	0.055265984	0.038385778	-0.904785156	0.217285156	0.905761719	892.62	-84.02441074	-63.34362684	-111.989854	-48
11937	0	0.341918945	-0.100341797	0.010742188	0.999941826	-0.010650635	0.000626564	-0.000801086	8.547973633	-2.508544922	0.268554688	-0.532541899	0.031328799	-0.040055086	-0.904296875	0.204345703	0.909667969	892.62	-85.08349466	-63.49102054	-112.1690277	-48
11938	0	0.39133358	-0.151616096	0.016787529	0.999979973	-0.005289078	-0.000801086	-0.003331184	9.7833395	-3.790402412	0.419688225	-0.264455638	-0.040054586	-0.166560322	-0.903320313	0.184570313	0.905517578	892.68	-85.81155473	-63.94223412	-112.0383474	-47
11939	0	0.396972656	-0.130737305	0.00012207	0.999987602	-0.002410889	0.001217842	-0.004104614	9.924316406	-3.268432617	0.003051758	-0.120544919	0.06089235	-0.205231539	-0.900634766	0.171630859	0.912109375	892.62	-85.7266758	-64.46587089	-112.4420318	-47
11940	0	0.386507988	-0.140452385	0.013620377	0.999871254	-0.015051842	0.003519058	-0.004229546	9.662699699	-3.511309624	0.340509415	-0.752624305	0.175960444	-0.211486333	-0.902099609	0.154052734	0.905273438	892.56	-86.52653644	-64.98759153	-113.4583878	-47
11941	0	0.385375977	-0.166503906	0.022277832	0.999801636	-0.018988609	0.004444122	-0.003986359	9.634399414	-4.162597656	0.556945801	-0.949493172	0.222220792	-0.199331096	-0.912109375	0.115234375	0.900390625	892.6	-87.54088155	-65.48200595	-114.735391	-48
11942	0	0.356811523	-0.175962448	0.026355743	0.999854088	-0.016031265	0.004699707	-0.0035429	8.920288086	-4.399061203	0.658893585	-0.801602229	0.234996775	-0.177153616	-0.919433594	0.073974609	0.889892578	892.66	-88.13795254	-65.92989549	-116.0997539	-48
11943	0	0.339782715	-0.189453125	0.036621094	0.99996376	-0.006968498	0.002864838	-0.003952026	8.494567871	-4.736328125	0.915527344	-0.348429115	0.14324361	-0.197603702	-0.927490234	0.043701172	0.884277344	892.62	-88.13913124	-66.43106374	-116.9805007	-48
11944	0	0.338745117	-0.184197426	0.042017937	0.999988556	0.000354767	0.00014782	-0.004649162	8.46862793	-4.604935646	1.050448418	0.017738407	0.007391003	-0.232458958	-0.931152344	0.024169922	0.877685547	892.68	-87.99015579	-67.01895084	-117.1124903	-48
11945	0	0.336975098	-0.168762207	0.039306641	0.999994278	-0.000288963	-0.000152588	-0.00315094	8.424377441	-4.219055176	0.982666016	-0.01444819	-0.007629407	-0.157547261	-0.928466797	0.017578125	0.877929688	892.68	-88.00309223	-67.43381914	-117.1409817	-48
11946	0	0.344431877	-0.183094025	0.032441139	0.999995232	0.000566483	0.001653671	-0.002319336	8.610796928	-4.577350616	0.811028481	0.028324167	0.082683679	-0.11596696	-0.930664063	0.010986328	0.878662109	892.62	-87.41746685	-67.74198122	-117.7080759	-48
11947	0	0.355712891	-0.17388916	0.02142334	0.999980927	0.004471779	0.003528595	-0.002048492	8.892822266	-4.347229004	0.535583496	0.223590309	0.176430826	-0.102425247	-0.932861328	0.010986328	0.873046875	892.66	-85.83894082	-67.99992604	-118.861731	-47
11948	0	0.368879318	-0.170837402	0.01756382	0.999975204	0.00617981	0.002865791	-0.001746178	9.221982956	-4.270935059	0.439095497	0.308993025	0.143290747	-0.087309603	-0.942382813	0.018066406	0.875976563	892.66	-84.23124603	-68.21571598	-119.8314297	-47
11949	0	0.37902832	-0.166687012	0.010375977	0.999967575	0.007752419	0.001716614	-0.001121521	9.475708008	-4.167175293	0.259399414	0.38762508	0.085831608	-0.056076651	-0.944824219	0.022460938	0.869873047	892.62	-82.77250916	-68.363935	-120.4492525	-47
11950	0	0.375757217	-0.155502319	0.007613182	0.999975204	0.006833076	0.001229286	0.000623703	9.393930435	-3.887557983	0.190329552	0.341656591	0.061464807	0.031185403	-0.947753906	0.035400391	0.86328125	892.66	-81.6207106	-68.31527804	-120.8490448	-47
11951	0	0.36151123	-0.14654541	0.014770508	0.999975204	0.006619453	0.000869751	0.002231598	9.037780762	-3.663635254	0.369262695	0.330975405	0.043487908	0.111580817	-0.948486328	0.05078125	0.870605469	892.68	-80.67381818	-68.08726958	-121.0521848	-47
11952	0	0.355302811	-0.143176079	0.011475563	0.999966621	0.007910728	0.001264572	0.001398087	8.882570267	-3.57940197	0.286889076	0.395540783	0.063229304	0.069905098	-0.948974609	0.068115234	0.866455078	892.66	-79.44370904	-67.94336457	-121.4015315	-46
11953	0	0.371582031	-0.156188965	0.017028809	0.999909401	0.013355255	0.000618935	-0.00094223	9.289550781	-3.904724121	0.425720215	0.66778275	0.030947658	-0.047112922	-0.951904297	0.083496094	0.859619141	892.66	-77.65080511	-68.07261775	-121.6879162	-46
11954	0	0.377774239	-0.151977539	0.01448822	0.999795914	0.019968987	-0.000382423	-0.002943993	9.444355965	-3.799438477	0.362205505	0.998517162	-0.019122469	-0.147209632	-0.950439453	0.105224609	0.860595703	892.66	-75.2354405	-68.44723823	-121.8283758	-45
11955	0	0.360839844	-0.139465332	0.024353027	0.99973011	0.022960663	-0.001742363	-0.003017426	9.020996094	-3.486633301	0.608825684	1.148136362	-0.087125982	-0.150884842	-0.949462891	0.137939453	0.857910156	892.62	-72.81738152	-68.86992147	-121.6025593	-45
11956	0	0.353854179	-0.1170187	0.033764839	0.999800682	0.019656181	-0.003271103	-0.000872612	8.846354485	-2.925467491	0.844120979	0.982874243	-0.163565992	-0.043633493	-0.948730469	0.172607422	0.854980469	892.62	-71.37973694	-69.11531733	-120.7321411	-45
11957	0	0.362731934	-0.112182617	0.034851074	0.999958992	0.00856781	-0.00260067	0.000133514	9.06829834	-2.80456543	0.871276855	0.428396228	-0.130035231	0.006675809	-0.942626953	0.200683594	0.849609375	892.62	-71.12047676	-69.2317984	-119.9584921	-45
11958	0	0.376644135	-0.128547668	0.041202545	0.999996185	0.00191021	-0.001477242	-0.00044632	9.416103363	-3.213691711	1.030063629	0.095510579	-0.07386215	-0.022316001	-0.938476563	0.209472656	0.857177734	892.62	-71.25111971	-69.36958444	-119.5840739	-45
11959	0	0.370483398	-0.130004883	0.042602539	0.999997139	0.001411438	-0.001425743	-0.000358582	9.262084961	-3.25012207	1.065063477	0.070571948	-0.071287204	-0.01792909	-0.938476563	0.209472656	0.857177734	892.66	-71.43678841	-69.4949435	-119.2150075	-45
11960	0	0.3641119	-0.133526802	0.043405533	0.999998093	0.000902176	-0.001664162	-0.000441551	9.102797508	-3.338170052	1.085138321	0.045108824	-0.083208137	-0.022077574	-0.936523438	0.211669922	0.862548828	892.62	-71.74699257	-69.63642061	-118.7757069	-45
11961	0	0.36517334	-0.13494873	0.045654297	0.999995232	0.002441406	-0.001543999	-0.000457764	9.129333496	-3.373718262	1.141357422	0.122070487	-0.077200046	-0.022888216	-0.929443359	0.213378906	0.859130859	892.62	-71.84872531	-69.77374016	-118.3717716	-45
11962	0	0.364211082	-0.130794525	0.044863701	0.999998093	0.001009941	-0.000794411	-0.000610352	9.105277061	-3.269863129	1.121592522	0.050497072	-0.039720549	-0.030517588	-0.929443359	0.213378906	0.859130859	892.66	-71.88076485	-69.89986919	-118.2174915	-45
11963	0	0.368591309	-0.140258789	0.044311523	0.999999046	0.000450134	2.77E-05	-0.000988007	9.214782715	-3.506469727	1.107788086	0.022506718	0.001382828	-0.049400339	-0.9296875	0.215576172	0.861816406	892.66	-71.69563776	-70.03645677	-118.3616977	-45
11964	0	0.365936279	-0.140109062	0.041954994	0.999999046	0.000712395	0.000385284	-0.000729561	9.148406982	-3.502726555	1.048874855	0.035619743	0.019264225	-0.03647805	-0.9296875	0.215576172	0.861816406	892.68	-71.39751773	-70.13047086	-118.5943337	-45
11965	0	0.362731934	-0.140136719	0.041748047	0.999999046	-0.000713348	0.000351906	0.00043869	9.06829834	-3.503417969	1.043701172	-0.035667424	0.017595294	0.021934512	-0.929443359	0.213623047	0.864990234	892.56	-71.39079246	-70.09726594	-118.6912769	-45
11966	0	0.364349365	-0.141429901	0.039970398	0.999998093	-0.00117588	0.000597954	0.001178741	9.108734131	-3.535747528	0.999259949	-0.058794052	0.029897705	0.058937103	-0.931884766	0.215820313	0.862060547	892.62	-71.43942819	-69.97339234	-118.7856648	-45
11967	0	0.364196777	-0.137634277	0.039794922	0.999994278	-0.002631187	0.000869751	0.001586914	9.104919434	-3.440856934	0.994873047	-0.131559596	0.043487623	0.079345838	-0.931884766	0.213623047	0.859375	892.62	-71.61553687	-69.7942838	-118.9223401	-45
11968	0	0.365154266	-0.139363289	0.038356781	0.999987602	-0.004389763	0.001424789	0.001601219	9.128856659	-3.484082222	0.958919525	-0.219489017	0.071239755	0.080061277	-0.931640625	0.209228516	0.859619141	892.66	-71.83186091	-69.59281284	-119.2309862	-45
11969	0	0.366210938	-0.144897461	0.03894043	0.99998951	-0.004043579	0.001343727	0.001174927	9.155273438	-3.622436523	0.973510742	-0.202179613	0.067186574	0.058746529	-0.933837891	0.20703125	0.862792969	892.62	-71.99338207	-69.43985005	-119.5556519	-45
11970	0	0.36230278	-0.141407013	0.036455154	0.999993324	-0.003210068	0.000587463	0.001573563	9.057569504	-3.535175323	0.91137886	-0.160503739	0.029373233	0.078678303	-0.936035156	0.202880859	0.854736328	892.66	-72.31737109	-69.2694918	-119.6061546	-45
11971	0	0.361022949	-0.142578125	0.041137695	0.999995232	-0.00233078	-0.000349998	0.001781464	9.02557373	-3.564453125	1.028442383	-0.116539171	-0.017499949	0.089073311	-0.93359375	0.200683594	0.86328125	892.66	-72.82659828	-69.10769979	-119.3505468	-45
11972	0	0.364518166	-0.141326904	0.041507721	0.999997139	-0.001397133	-0.000520706	0.00134182	9.11295414	-3.533172607	1.037693024	-0.069856691	-0.026035326	0.067091033	-0.933349609	0.198242188	0.857910156	892.68	-73.23439212	-68.99826925	-119.089507	-45
11973	0	0.368896484	-0.14050293	0.041259766	0.999997139	-0.001693726	-0.000193596	0.001197815	9.222412109	-3.512573242	1.031494141	-0.084686341	-0.009679801	0.05989079	-0.928710938	0.198242188	0.860351563	892.66	-73.56748696	-68.89271095	-118.9439627	-45
11974	0	0.366548538	-0.146965027	0.044160843	0.999997139	-0.001844406	-0.000423431	0.000834465	9.163713455	-3.674125671	1.104021072	-0.092220372	-0.021171585	0.041723281	-0.928955078	0.200439453	0.863037109	892.66	-73.95063867	-68.83321565	-118.7625954	-45
11975	0	0.364013672	-0.148193359	0.043212891	0.999998093	-0.00109005	-0.000782013	0.000831604	9.100341797	-3.704833984	1.080322266	-0.05450251	-0.039100663	0.041580217	-0.926269531	0.193847656	0.863525391	892.68	-74.34735885	-68.78381952	-118.4751928	-45
11976	0	0.365302086	-0.148411751	0.044514656	0.999999046	-2.00E-05	-0.00091362	0.000387192	9.132552147	-3.71029377	1.112866402	-0.001001358	-0.045681007	0.019359592	-0.926513672	0.196044922	0.866210938	892.72	-74.62233118	-68.78596297	-118.1863056	-45
11977	0	0.364379883	-0.147705078	0.041992188	0.999999046	0.00107193	-0.000273705	-0.000621796	9.10949707	-3.692626953	1.049804688	0.053596511	-0.01368523	-0.031089791	-0.926757813	0.198242188	0.868896484	892.66	-74.51072324	-68.8790123	-118.1775124	-45
11978	0	0.364028931	-0.142776489	0.038252831	0.999999046	0.000608444	0.000297546	-0.000226021	9.100723267	-3.569412231	0.956320763	0.030422213	0.014877321	-0.011301042	-0.924072266	0.196044922	0.865966797	892.72	-74.3200584	-68.91017239	-118.3107987	-45
11979	0	0.363220215	-0.14440918	0.03704834	0.999999046	9.92E-05	0.000157356	0.000404358	9.080505371	-3.610229492	0.926208496	0.004959107	0.007867813	0.020217896	-0.924316406	0.197998047	0.863037109	892.6	-74.2788157	-68.87534798	-118.3463286	-45
11980	0	0.36937809	-0.144273758	0.037985802	0.999999046	0.000720024	-0.000551224	8.77E-05	9.234452248	-3.606843948	0.949645042	0.03600121	-0.027561192	0.004386902	-0.924316406	0.200195313	0.865722656	892.68	-74.34384613	-68.89685698	-118.1915649	-45
11981	0	0.364562988	-0.140625	0.03704834	0.999999046	0.000671387	-0.00039959	-0.000396729	9.114074707	-3.515625	0.926208496	0.03356934	-0.019979479	-0.019836428	-0.922119141	0.200195313	0.865478516	892.72	-74.33283842	-68.96664506	-118.1243743	-45
11982	0	0.360859871	-0.139554024	0.038960457	0.999999046	-4.39E-05	-9.35E-05	-0.000225067	9.021496773	-3.488850594	0.974011421	-0.002193451	-0.004673004	-0.011253357	-0.921875	0.197998047	0.862792969	892.6	-74.32986906	-69.00750794	-118.1367172	-45
11983	0	0.366455078	-0.144958496	0.039001465	0.999999046	-0.000114441	5.82E-05	-0.000759125	9.161376953	-3.623962402	0.975036621	-0.005722046	0.002908707	-0.037956242	-0.924316406	0.198242188	0.868652344	892.62	-74.24809203	-69.10191458	-118.2416752	-45
11984	0	0.370943069	-0.144710541	0.039559364	0.999999046	0.00039959	0.000370026	-0.000801086	9.273576736	-3.617763519	0.988984108	0.01997948	0.018501285	-0.040054328	-0.926269531	0.191650391	0.863769531	892.68	-74.01270661	-69.19047996	-118.4489166	-45
11985	0	0.366821289	-0.144104004	0.039916992	0.999999046	-0.000144958	0.000447273	-0.000495911	9.170532227	-3.602600098	0.997924805	-0.007247925	0.022363664	-0.024795534	-0.926513672	0.196044922	0.86328125	892.66	-73.8414663	-69.24207266	-118.6530329	-45
11986	0	0.363752365	-0.14210701	0.039956093	0.999999046	-0.000864029	0.000677109	-0.000115395	9.093809128	-3.552675247	0.998902321	-0.043201455	0.033855445	-0.005769731	-0.926269531	0.191650391	0.860839844	892.68	-73.71753718	-69.24363106	-118.8951	-45
11987	0	0.362487793	-0.143798828	0.041748047	0.999996185	-0.002062798	0.001316071	-0.000133514	9.062194824	-3.594970703	1.043701172	-0.103139981	0.065803594	-0.006675727	-0.928466797	0.189453125	0.861083984	892.66	-73.54421318	-69.22559473	-119.3365633	-45
11988	0	0.361077309	-0.146004677	0.040325165	0.999997139	-0.001912117	0.001390457	-4.96E-05	9.026932716	-3.65011692	1.00812912	-0.095605939	0.069522922	-0.002479556	-0.930664063	0.185302734	0.858642578	892.72	-73.34031997	-69.19458559	-119.7925174	-45
11989	0	0.361633301	-0.148742676	0.039428711	0.999998093	-0.00134182	0.001106262	-0.000236511	9.04083252	-3.718566895	0.985717773	-0.067091023	0.055313139	-0.011825568	-0.9375	0.183349609	0.859375	892.72	-73.13818501	-69.19202491	-120.176819	-45
11990	0	0.362291336	-0.149344444	0.037936211	0.999999046	-0.000328064	0.000896454	-0.000705719	9.057283401	-3.733611107	0.948405266	-0.016403202	0.044822703	-0.035285958	-0.937255859	0.178955078	0.854003906	892.62	-72.83950478	-69.24646729	-120.5404463	-45
11991	0	0.358703613	-0.146850586	0.040283203	0.999999046	5.34E-05	0.000592232	-0.000514984	8.967590332	-3.671264648	1.007080078	0.002670288	0.029611591	-0.025749209	-0.939453125	0.178955078	0.854003906	892.68	-72.60129786	-69.28896041	-120.7923483	-45
11992	0	0.35887146	-0.146111488	0.037243843	0.999999046	2.38E-05	0.000268936	-0.000302315	8.971786499	-3.652787209	0.931096077	0.001192093	0.013446808	-0.015115738	-0.939453125	0.176757813	0.854248047	892.62	-72.47966837	-69.31829939	-120.9233856	-45
11993	0	0.36138916	-0.143981934	0.03704834	0.999999046	-7.63E-06	7.72E-05	7.63E-05	9.034729004	-3.59954834	0.926208496	-0.00038147	0.003862381	0.003814697	-0.941894531	0.176757813	0.854248047	892.6	-72.45260617	-69.31223941	-120.9572713	-45
11994	0	0.361727715	-0.144526482	0.035819054	0.999999046	-0.00022316	-0.000148773	-3.53E-05	9.043192863	-3.613162041	0.895476341	-0.01115799	-0.00743866	-0.001764298	-0.944091797	0.174804688	0.854736328	892.66	-72.50668129	-69.32560231	-120.9311093	-45
11995	0	0.361816406	-0.143981934	0.036071777	0.999999046	-0.000473022	-0.000422478	-1.53E-05	9.045410156	-3.59954834	0.901794434	-0.023651125	-0.021123888	-0.00076294	-0.941650391	0.174560547	0.857421875	892.66	-72.67176004	-69.34560638	-120.8166025	-45
11996	0	0.363014221	-0.148464203	0.0395298	0.999999046	6.39E-05	-0.000911713	-0.000134468	9.07535553	-3.711605072	0.98824501	0.003194809	-0.045585639	-0.006723405	-0.941650391	0.172607422	0.857421875	892.66	-72.90792907	-69.39434218	-120.5607855	-45
