Counter	Temperature	VelInc_X	VelInc_Y	VelInc_Z	OriInc_w	OriInc_x	OriInc_y	OriInc_z	Acc_X	Acc_Y	Acc_Z	Gyr_X	Gyr_Y	Gyr_Z	Mag_X	Mag_Y	Mag_Z	Pressure	Roll	Pitch	Yaw	RSSI
16763	0	0.361938477	-0.143249512	0.058105469	0.999999046	0.000247955	-0.000857353	0.000450134	9.048461914	-3.581237793	1.452636719	0.012397768	-0.042867668	0.022506718	-0.762207031	-0.029541016	0.840332031	892.7	-68.70994434	-67.45621774	-133.8856698	-81
16764	0	0.361483574	-0.141287804	0.058103561	0.999998093	0.000936508	-0.001114845	0.000433922	9.037089348	-3.532195091	1.452589035	0.046825427	-0.055742285	0.021696099	-0.760009766	-0.02734375	0.845703125	892.68	-68.91665599	-67.46356545	-133.5493102	-81
16765	0	0.364685059	-0.140014648	0.057128906	0.999998093	0.00117588	-0.001041412	0.000362396	9.117126465	-3.500366211	1.428222656	0.058794047	-0.05207064	0.01811982	-0.755615234	-0.025390625	0.851074219	892.58	-69.06971224	-67.47513955	-133.24037	-81
16766	0	0.365254402	-0.13855648	0.05766964	0.999999046	0.000152588	-0.000556946	0.000495911	9.131360054	-3.46391201	1.44174099	0.007629395	-0.027847293	0.024795535	-0.755615234	-0.023193359	0.848144531	892.68	-69.22754438	-67.4523947	-133.0532544	-81
16767	0	0.36340332	-0.140075684	0.057983398	0.999999046	-0.000606537	-0.000159264	0.000358582	9.085083008	-3.50189209	1.449584961	-0.030326846	-0.007963181	0.017929079	-0.753417969	-0.023193359	0.853515625	892.58	-69.35543111	-67.4280358	-132.9910463	-80
16768	0	0.363320351	-0.14113903	0.057817459	0.999999046	-0.00011158	-0.000175476	5.63E-05	9.083008766	-3.528475761	1.445436478	-0.005578995	-0.008773804	0.002813339	-0.755859375	-0.023193359	0.853759766	892.68	-69.40076556	-67.43664224	-132.9572836	-80
16769	0	0.363830566	-0.142333984	0.057189941	0.999999046	0.000434875	-0.000418663	-0.000461578	9.09576416	-3.558349609	1.429748535	0.021743777	-0.020933153	-0.023078921	-0.753173828	-0.025390625	0.848144531	892.58	-69.39568208	-67.51048579	-132.9123186	-80
16770	0	0.364376068	-0.142803192	0.057190895	0.999999046	0.001001358	-0.000328064	-0.000618935	9.109401703	-3.570079803	1.429772377	0.050067914	-0.016403202	-0.030946739	-0.753417969	-0.023193359	0.847900391	892.62	-69.28636822	-67.59741302	-132.9092031	-80
16771	0	0.363220215	-0.140930176	0.057495117	0.999999046	0.001045227	-0.000281334	-0.000423431	9.080505371	-3.523254395	1.43737793	0.052261364	-0.014066699	-0.021171575	-0.753173828	-0.025390625	0.851074219	892.62	-69.17830945	-67.66138219	-132.9005571	-80
16772	0	0.363126755	-0.141178131	0.055936813	0.999999046	0.000388145	9.54E-06	-0.000351906	9.078168869	-3.529453278	1.398420334	0.019407273	0.000476837	-0.017595292	-0.751220703	-0.021240234	0.853271484	892.62	-69.07630673	-67.70570119	-132.9634153	-80
16773	0	0.36340332	-0.142883301	0.054504395	0.999999046	-5.72E-05	0.000260353	-0.000202179	9.085083008	-3.57208252	1.362609863	-0.002861023	0.013017655	-0.010108948	-0.753417969	-0.023193359	0.853515625	892.56	-68.97465073	-67.72348637	-133.0822374	-79
16774	0	0.362150192	-0.142621994	0.055041313	0.999999046	-9.73E-05	0.000379562	5.63E-05	9.053754807	-3.56554985	1.376032829	-0.004863739	0.018978119	0.002813339	-0.753417969	-0.020996094	0.850585938	892.64	-68.8724282	-67.70843818	-133.2055982	-80
16775	0	0.36340332	-0.142028809	0.054931641	0.999999046	-1.14E-05	0.000329018	0.000431061	9.085083008	-3.550720215	1.373291016	-0.000572205	0.016450883	0.021553041	-0.753417969	-0.020996094	0.850585938	892.68	-68.81160928	-67.65521763	-133.2738224	-79
16776	0	0.363855362	-0.141551018	0.054433823	0.999999046	-0.000157356	0.000289917	0.00058651	9.096384048	-3.538775444	1.360845566	-0.007867814	0.014495851	0.029325487	-0.753417969	-0.020996094	0.853515625	892.62	-68.79371093	-67.58690896	-133.313378	-79
16777	0	0.363464355	-0.140075684	0.053894043	0.999999046	-0.000205994	0.000290871	0.000850677	9.086608887	-3.50189209	1.347351074	-0.010299684	0.014543535	0.042533881	-0.753417969	-0.020996094	0.84765625	892.62	-68.80791153	-67.49034856	-133.3259054	-79
16778	0	0.362339973	-0.140165329	0.053557396	0.999999046	-0.000183105	0.000284195	0.000785828	9.058499336	-3.504133224	1.338934898	-0.009155275	0.014209749	0.039291387	-0.755859375	-0.018798828	0.84765625	892.56	-68.81491719	-67.40101774	-133.3428404	-79
16779	0	0.364440918	-0.138916016	0.052001953	0.999999046	-6.10E-05	0.000161171	0.000663757	9.111022949	-3.472900391	1.300048828	-0.003051758	0.008058549	0.033187869	-0.753417969	-0.020996094	0.84765625	892.62	-68.82766445	-67.33000117	-133.3397057	-79
16780	0	0.362347603	-0.13885498	0.052406311	0.999999046	-0.00023365	1.91E-05	0.000472069	9.058690071	-3.471374512	1.310157776	-0.011682511	0.000953674	0.02360344	-0.755859375	-0.018798828	0.84765625	892.62	-68.87768301	-67.28549555	-133.3168367	-79
16781	0	0.362426758	-0.139343262	0.053466797	0.999999046	-0.000324249	-0.000159264	0.000392914	9.060668945	-3.483581543	1.336669922	-0.016212464	-0.007963181	0.019645692	-0.758056641	-0.020996094	0.850830078	892.68	-68.97574376	-67.25691642	-133.2543499	-78
16782	0	0.363371849	-0.139481544	0.054480553	0.999999046	-0.000284195	-0.000211716	0.000407219	9.084296227	-3.487038612	1.362013817	-0.014209748	-0.010585785	0.020360948	-0.753662109	-0.018798828	0.853271484	892.58	-69.08372806	-67.22904008	-133.1732949	-79
16783	0	0.363647461	-0.138977051	0.055419922	0.999999046	-0.000293732	-0.000273705	0.000301361	9.091186523	-3.47442627	1.385498047	-0.014686585	-0.013685227	0.015068055	-0.755859375	-0.018798828	0.84765625	892.62	-69.19789419	-67.21511674	-133.0885988	-79
16784	0	0.362252235	-0.137702942	0.056055069	0.999999046	-0.000504494	-0.00038147	0.000152588	9.056305885	-3.442573547	1.401376724	-0.025224687	-0.019073488	0.007629395	-0.753662109	-0.016845703	0.847412109	892.68	-69.34885061	-67.22159761	-132.9882009	-79
16785	0	0.362487793	-0.13848877	0.05480957	0.999999046	-0.00069809	-0.000285149	-7.63E-06	9.062194824	-3.462219238	1.370239258	-0.034904483	-0.014257432	-0.00038147	-0.751464844	-0.016845703	0.853027344	892.7	-69.48183112	-67.24143895	-132.9290288	-79
16786	0	0.363010406	-0.138624191	0.056422234	0.999999046	-0.000478745	-0.000267029	-0.000191689	9.075260162	-3.465604782	1.41055584	-0.023937227	-0.013351441	-0.009584427	-0.753417969	-0.020996094	0.850585938	892.64	-69.56711106	-67.28039122	-132.8976686	-79
16787	0	0.362731934	-0.140197754	0.056152344	0.999999046	-0.000694275	-0.000395775	-0.000686646	9.06829834	-3.504943848	1.403808594	-0.034713752	-0.019788746	-0.034332282	-0.750976563	-0.0234375	0.853515625	892.68	-69.6627364	-67.37765898	-132.8809695	-79
16788	0	0.362846375	-0.140874863	0.054569244	0.999999046	-0.000462532	-0.00030899	-0.00067234	9.071159363	-3.521871567	1.36423111	-0.023126605	-0.015449526	-0.033617024	-0.750976563	-0.025634766	0.853759766	892.62	-69.7109006	-67.46992301	-132.8873413	-79
16789	0	0.364562988	-0.142883301	0.054748535	0.999999046	-0.000289917	-0.00026226	-0.00082016	9.114074707	-3.57208252	1.368713379	-0.014495852	-0.013113024	-0.041008001	-0.750976563	-0.025634766	0.853759766	892.62	-69.71286571	-67.57612228	-132.9213007	-79
16790	0	0.365131378	-0.142378807	0.055998802	0.999999046	-0.000267029	-0.000272751	-0.000611305	9.128284454	-3.559470177	1.399970055	-0.013351442	-0.013637544	-0.030565264	-0.750732422	-0.029785156	0.854003906	892.64	-69.7346639	-67.66017416	-132.9329114	-79
16791	0	0.363952637	-0.144348145	0.056762695	0.999999046	-0.000324249	-0.000414848	-4.58E-05	9.098815918	-3.608703613	1.419067383	-0.016212464	-0.020742417	-0.002288818	-0.748291016	-0.032226563	0.854003906	892.64	-69.85463275	-67.68877337	-132.8463035	-79
16792	0	0.364257813	-0.141545296	0.058320999	0.999999046	-2.86E-06	-0.000238419	0.000411034	9.106445313	-3.538632393	1.458024979	-0.000143051	-0.011920929	0.020551682	-0.74609375	-0.030029297	0.853759766	892.58	-69.93479645	-67.66104435	-132.7612685	-79
16793	0	0.365234375	-0.139526367	0.055541992	0.999999046	-0.000534058	0.000355721	0.000595093	9.130859375	-3.48815918	1.388549805	-0.026702884	0.017786028	0.029754642	-0.748535156	-0.030029297	0.854003906	892.62	-69.93738295	-67.59012583	-132.8259852	-79
16794	0	0.365088463	-0.140570641	0.055528641	0.999999046	-0.000644684	0.000457764	0.000312805	9.127211571	-3.514266014	1.388216019	-0.032234196	0.022888186	0.015640261	-0.748535156	-0.032226563	0.856933594	892.62	-69.89899424	-67.54554166	-132.9486064	-79
16795	0	0.363891602	-0.139953613	0.054504395	0.999999046	-0.000511169	0.000367165	0.000205994	9.097290039	-3.498840332	1.362609863	-0.025558474	0.018358232	0.010299683	-0.748535156	-0.030029297	0.854003906	892.58	-69.8587284	-67.51600049	-133.0551284	-79
16796	0	0.362817764	-0.140524864	0.053649902	0.999999046	4.48E-05	0.000101089	8.01E-05	9.070444107	-3.513121605	1.341247559	0.002241135	0.005054474	0.004005432	-0.750732422	-0.031982422	0.851318359	892.56	-69.81192957	-67.51047277	-133.1024598	-79
16797	0	0.363586426	-0.139526367	0.05267334	0.999999046	5.72E-05	0.000100136	-0.000267029	9.089660645	-3.48815918	1.316833496	0.002861023	0.00500679	-0.013351441	-0.752929688	-0.031982422	0.8515625	892.62	-69.73069394	-67.54235758	-133.1855214	-78
16798	0	0.36303997	-0.141158104	0.053249359	0.999999046	-0.00028801	0.000135422	-0.000180244	9.07599926	-3.528952599	1.331233978	-0.014400482	0.006771088	-0.009012222	-0.750732422	-0.031982422	0.851318359	892.64	-69.68802973	-67.56344101	-133.2683421	-78
16799	0	0.364440918	-0.142700195	0.053344727	0.999999046	-0.000457764	4.77E-06	0.000106812	9.111022949	-3.567504883	1.333618164	-0.022888184	0.000238419	0.005340576	-0.752929688	-0.034179688	0.8515625	892.62	-69.7265183	-67.5587787	-133.2859475	-77
16800	0	0.364043236	-0.141607285	0.053583145	0.999999046	-0.000292778	0.000143051	0.000644684	9.101080894	-3.540182114	1.339578629	-0.014638902	0.007152558	0.032234195	-0.750488281	-0.034179688	0.848632813	892.64	-69.76177621	-67.49076606	-133.2868068	-76
16801	0	0.363952637	-0.140625	0.055175781	0.999999046	-0.000434875	5.82E-05	0.000732422	9.098815918	-3.515625	1.379394531	-0.021743777	0.002908707	0.036621098	-0.750732422	-0.031982422	0.851318359	892.58	-69.84325031	-67.41667032	-133.2528895	-76
16802	0	0.363858223	-0.143465042	0.055092812	0.999999046	-0.000411987	0.00031662	0.000587463	9.096455574	-3.586626053	1.37732029	-0.020599367	0.015830995	0.029373172	-0.750488281	-0.034179688	0.8515625	892.58	-69.84127586	-67.34785127	-133.3078096	-76
16803	0	0.364379883	-0.143249512	0.055114746	0.999999046	0.000324249	0.000195503	0.00031662	9.10949707	-3.581237793	1.377868652	0.016212464	0.009775162	0.015830994	-0.753173828	-0.031982422	0.854248047	892.68	-69.7605733	-67.31287925	-133.3553507	-76
16804	0	0.36329174	-0.141858101	0.054981232	0.999999046	0.000149727	0.000328064	0.000414848	9.08229351	-3.546452522	1.374530792	0.007486344	0.016403199	0.020742417	-0.752929688	-0.031982422	0.848632813	892.58	-69.67521654	-67.2620579	-133.4314592	-76
16805	0	0.364624023	-0.143127441	0.055847168	0.999999046	0.000289917	0.000451088	0.00038147	9.115600586	-3.578186035	1.396179199	0.014495851	0.022554399	0.019073488	-0.755371094	-0.031982422	0.848632813	892.58	-69.53937351	-67.20982765	-133.5457814	-76
16806	0	0.364407539	-0.140750885	0.053021431	0.999999046	0.000324249	0.000577927	0.000254631	9.110188484	-3.518772125	1.325535774	0.016212465	0.028896334	0.012731553	-0.755371094	-0.029785156	0.848632813	892.64	-69.35582187	-67.16611965	-133.705902	-76
16807	0	0.363830566	-0.141357422	0.053710938	0.999999046	-8.39E-05	0.000668526	0.00025177	9.09576416	-3.533935547	1.342773438	-0.004196167	0.033426288	0.012588502	-0.755371094	-0.029785156	0.851318359	892.62	-69.19649896	-67.11895706	-133.8892206	-76
16808	0	0.362956047	-0.141488075	0.052645683	0.999999046	8.68E-05	0.000699997	0.00030899	9.073901176	-3.537201881	1.316142082	0.004339219	0.034999851	0.015449525	-0.760009766	-0.029541016	0.843017578	892.68	-69.01624738	-67.06428043	-134.0774544	-76
16809	0	0.364440918	-0.140136719	0.052612305	0.999999046	0.000301361	0.000367165	0.000175476	9.111022949	-3.503417969	1.315307617	0.015068055	0.018358231	0.008773804	-0.760009766	-0.02734375	0.845703125	892.62	-68.88349301	-67.03759557	-134.1849566	-76
16810	0	0.364046097	-0.140293121	0.054367065	0.999999046	0.000221252	0.000123978	0	9.10115242	-3.507328033	1.359176636	0.011062622	0.006198883	0	-0.760253906	-0.025390625	0.842773438	892.64	-68.80444587	-67.03981763	-134.2435639	-76
16811	0	0.362670898	-0.140625	0.055603027	0.999999046	0.000507355	3.91E-05	-0.000442505	9.066772461	-3.515625	1.390075684	0.025367739	0.001955032	-0.022125246	-0.762207031	-0.029541016	0.843261719	892.66	-68.67052169	-67.09289025	-134.3300258	-76
16812	0	0.362791061	-0.141407967	0.055651665	0.999999046	0.000874519	-3.05E-05	-0.000606537	9.069776535	-3.535199165	1.391291618	0.043725976	-0.001525879	-0.030326849	-0.762451172	-0.02734375	0.843017578	892.62	-68.49538176	-67.16633951	-134.4140341	-76
16813	0	0.362060547	-0.142333984	0.057434082	0.999999046	0.000778198	1.62E-05	-0.000759125	9.051513672	-3.558349609	1.435852051	0.03890992	0.000810623	-0.037956245	-0.760009766	-0.02734375	0.845703125	892.58	-68.30323313	-67.25391236	-134.5268021	-75
16814	0	0.36227417	-0.141757011	0.057055473	0.999999046	0.000562668	0.000225067	-0.000473976	9.056854248	-3.543925285	1.426386833	0.028133395	0.011253358	-0.023698809	-0.764648438	-0.029541016	0.843261719	892.58	-68.11071119	-67.3020638	-134.6705263	-76
16815	0	0.36114502	-0.141784668	0.058654785	0.999999046	0.000366211	0.000172615	-0.000431061	9.028625488	-3.544616699	1.466369629	0.018310548	0.008630753	-0.021553041	-0.762451172	-0.02734375	0.845947266	892.62	-67.95774267	-67.34761678	-134.7917978	-76
16816	0	0.359599113	-0.14192009	0.059247971	0.999999046	0.000422478	0.000385284	-0.00042057	8.989977837	-3.548002243	1.481199265	0.021123888	0.019264223	-0.02102852	-0.764648438	-0.02734375	0.843261719	892.68	-67.74464549	-67.38254057	-134.9722206	-76
16817	0	0.360778809	-0.141479492	0.05670166	0.999999046	0.0001297	0.000489235	-0.000331879	9.019470215	-3.536987305	1.417541504	0.006484986	0.024461748	-0.016593934	-0.764648438	-0.02734375	0.837402344	892.64	-67.54770045	-67.40318747	-135.1724394	-75
16818	0	0.360819817	-0.143972397	0.055381775	0.999999046	0.00021553	0.000392914	-9.16E-05	9.020495415	-3.599309921	1.384544373	0.01077652	0.019645692	-0.004577637	-0.764648438	-0.029541016	0.840576172	892.68	-67.39117945	-67.40220332	-135.3188191	-75
16819	0	0.360717773	-0.143798828	0.055114746	0.999999046	0.000244141	-5.63E-05	0.000190735	9.017944336	-3.594970703	1.377868652	0.012207031	-0.002813339	0.009536743	-0.766845703	-0.029541016	0.840576172	892.62	-67.37614266	-67.39090052	-135.3095835	-75
16820	0	0.36036396	-0.142384529	0.054837227	0.999999046	0.000317574	-0.000148773	0.000606537	9.009099007	-3.559613228	1.370930672	0.015878679	-0.00743866	0.030326846	-0.764648438	-0.029541016	0.840576172	892.64	-67.42071465	-67.33958143	-135.22725	-75
16821	0	0.361694336	-0.140625	0.053100586	0.999999046	0.000274658	-0.000369072	0.000637054	9.042358398	-3.515625	1.327514648	0.013732912	-0.0184536	0.031852725	-0.764892578	-0.02734375	0.845947266	892.62	-67.52959907	-67.29470957	-135.0782238	-74
16822	0	0.362043381	-0.140690804	0.054678917	0.999999046	0.000272751	-0.000707626	0.000354767	9.051084518	-3.517270088	1.366972923	0.013637544	-0.035381321	0.017738344	-0.764892578	-0.02734375	0.845947266	892.64	-67.69508126	-67.29442903	-134.869581	-75
16823	0	0.362915039	-0.140258789	0.055786133	0.999999046	0.000305176	-0.000979424	0.000736237	9.072875977	-3.506469727	1.39465332	0.015258793	-0.048971189	0.036811838	-0.762695313	-0.022949219	0.845458984	892.68	-67.96525459	-67.26516658	-134.5409738	-75
16824	0	0.362698555	-0.138806343	0.055830002	0.999999046	0.000370979	-0.00097847	0.000826836	9.067463875	-3.470158577	1.395750046	0.018548971	-0.048923507	0.041341794	-0.762451172	-0.025146484	0.842773438	892.74	-68.23613908	-67.22576089	-134.208992	-75
16825	0	0.362915039	-0.137573242	0.057067871	0.999999046	-0.00012207	-0.000910759	0.000823975	9.072875977	-3.439331055	1.426696777	-0.006103517	-0.04553796	0.041198741	-0.762695313	-0.020751953	0.845458984	892.62	-68.54476301	-67.18331275	-133.8936058	-75
16826	0	0.363768578	-0.139408112	0.057956696	0.999999046	5.53E-05	-0.000902176	0.000464439	9.094214439	-3.485202789	1.448917389	0.002765656	-0.045108803	0.023221974	-0.758300781	-0.018798828	0.847900391	892.62	-68.79410423	-67.17838934	-133.6175833	-76
16827	0	0.365234375	-0.138427734	0.058227539	0.999999046	-0.000232697	-0.000639915	0.000431061	9.130859375	-3.460693359	1.455688477	-0.011634828	-0.031995777	0.021553042	-0.758056641	-0.020996094	0.850830078	892.58	-69.00593063	-67.16595814	-133.4198533	-76
16828	0	0.364884377	-0.139624596	0.058976173	0.999999046	-0.000338554	-0.00025177	0.000289917	9.122109413	-3.490614891	1.474404335	-0.01692772	-0.012588502	0.01449585	-0.755859375	-0.018798828	0.850585938	892.62	-69.11675899	-67.15261755	-133.341721	-76
16829	0	0.36505127	-0.139770508	0.058044434	0.999999046	-0.000392914	-0.000151634	0.000125885	9.126281738	-3.494262695	1.45111084	-0.019645692	-0.007581711	0.006294251	-0.755859375	-0.020996094	0.850830078	892.68	-69.19193525	-67.15282527	-133.3106521	-76
16830	0	0.36527729	-0.139663696	0.057150841	0.999999046	-0.000366211	0.000162125	0.000244141	9.131932259	-3.491592407	1.428771019	-0.018310548	0.008106232	0.012207032	-0.756103516	-0.018798828	0.856201172	892.64	-69.19533765	-67.12771645	-133.3492515	-77
16831	0	0.364990234	-0.139892578	0.055664063	0.999999046	-0.000434875	0.000336647	-0.00019455	9.124755859	-3.497314453	1.391601563	-0.021743776	0.016832353	-0.009727479	-0.758056641	-0.023193359	0.848144531	892.62	-69.1197342	-67.14261104	-133.4888865	-77
16832	0	0.363053322	-0.140594482	0.056090355	0.999999046	-0.000460625	0.000499725	-0.00031662	9.076333046	-3.514862061	1.402258873	-0.023031237	0.024986269	-0.015830995	-0.758056641	-0.023193359	0.848144531	892.68	-68.99343354	-67.16385381	-133.6844438	-77
16833	0	0.363830566	-0.141296387	0.055297852	0.999999046	-0.000179291	0.000424385	-0.000328064	9.09576416	-3.532409668	1.382446289	-0.008964539	0.021219255	-0.016403199	-0.758056641	-0.023193359	0.848144531	892.58	-68.85258884	-67.18929498	-133.859182	-77
16834	0	0.363084793	-0.141077995	0.053051949	0.999999046	-0.000417709	0.000478745	-0.000264168	9.077119827	-3.526949883	1.326298714	-0.020885469	0.023937227	-0.01320839	-0.755615234	-0.025390625	0.851074219	892.62	-68.73155753	-67.20557019	-134.0404902	-77
16835	0	0.363220215	-0.142944336	0.054992676	0.999999046	-0.000579834	0.0004282	-0.000335693	9.080505371	-3.573608398	1.374816895	-0.028991702	0.021409991	-0.01678467	-0.7578125	-0.027587891	0.848632813	892.64	-68.63480533	-67.23140268	-134.2175209	-77
16836	0	0.361927986	-0.143068314	0.053121567	0.999999046	-0.000308037	0.000244141	-0.000453949	9.048199654	-3.57670784	1.328039169	-0.015401841	0.012207032	-0.02269745	-0.760009766	-0.029541016	0.848876953	892.58	-68.54201232	-67.27738234	-134.3575537	-78
16837	0	0.36315918	-0.144042969	0.054016113	0.999999046	-8.01E-05	2.00E-05	-0.000495911	9.078979492	-3.601074219	1.350402832	-0.004005432	0.001001358	-0.024795533	-0.762451172	-0.029541016	0.848876953	892.58	-68.47596221	-67.33706773	-134.4399707	-78
16838	0	0.361652374	-0.144975662	0.05492115	0.999999046	0.000282288	-0.000205994	-0.000531197	9.041309357	-3.624391556	1.373028755	0.014114381	-0.010299683	-0.026559832	-0.760009766	-0.031738281	0.843261719	892.62	-68.42258538	-67.40979152	-134.4672369	-78
16839	0	0.362487793	-0.143981934	0.054992676	0.999999046	0.000282288	-0.000224113	-0.000324249	9.062194824	-3.59954834	1.374816895	0.01411438	-0.011205674	-0.016212464	-0.760009766	-0.031738281	0.848876953	892.56	-68.3949789	-67.46105635	-134.464231	-78
16840	0	0.362910271	-0.143226624	0.056313515	0.999999046	0.000222206	-8.01E-05	-5.82E-05	9.072756767	-3.580665588	1.407837868	0.011110306	-0.004005432	-0.002908707	-0.759765625	-0.033935547	0.846435547	892.68	-68.36442587	-67.4777383	-134.4755038	-78
16841	0	0.362670898	-0.144897461	0.05670166	0.999999046	0.000350952	-0.000258446	-4.58E-05	9.066772461	-3.622436523	1.417541504	0.017547608	-0.012922287	-0.002288818	-0.7578125	-0.031738281	0.851806641	892.64	-68.36636268	-67.50038581	-134.4306693	-78
16842	0	0.362468719	-0.144702911	0.056492805	0.999999046	0.000709534	-0.000301361	5.63E-05	9.061717987	-3.617572784	1.412320137	0.035476688	-0.015068056	0.00281334	-0.760009766	-0.029541016	0.843017578	892.64	-68.34887009	-67.51374326	-134.3661153	-77
16843	0	0.36151123	-0.143615723	0.05670166	0.999999046	0.001255035	-0.000395775	0.000228882	9.037780762	-3.590393066	1.417541504	0.062751789	-0.019788748	0.011444095	-0.7578125	-0.02734375	0.854248047	892.64	-68.31089691	-67.51251342	-134.2509904	-77
16844	0	0.361857414	-0.140710831	0.056462288	0.999998093	0.001350403	-0.000388145	0.000433922	9.046435356	-3.517770767	1.411557198	0.067520166	-0.019407279	0.021696099	-0.7578125	-0.027587891	0.851318359	892.62	-68.28094931	-67.48909075	-134.1207602	-77
16845	0	0.362304688	-0.139282227	0.055725098	0.999999046	0.000667572	-0.000254631	0.000465393	9.057617188	-3.482055664	1.393127441	0.033378605	-0.012731554	0.023269656	-0.758056641	-0.023193359	0.851074219	892.64	-68.29805661	-67.4566894	-134.021387	-76
16846	0	0.362080574	-0.1397295	0.055054665	0.999999046	0.000175476	-0.000133514	0.000541687	9.052014351	-3.493237495	1.376366615	0.008773804	-0.006675721	0.027084352	-0.755615234	-0.023193359	0.848144531	892.62	-68.34819595	-67.4110396	-133.9488366	-76
16847	0	0.362854004	-0.140014648	0.055786133	0.999999046	0.000343323	-0.000159264	0.000522614	9.071350098	-3.500366211	1.39465332	0.017166139	-0.007963181	0.026130678	-0.758056641	-0.020996094	0.847900391	892.64	-68.38355448	-67.3685175	-133.871423	-76
16848	0	0.363214493	-0.13919735	0.054665565	0.999999046	0.000231743	-0.000297546	0.00043869	9.08036232	-3.479933739	1.366639137	0.011587144	-0.01487732	0.021934511	-0.755859375	-0.020996094	0.850830078	892.64	-68.45843432	-67.34084244	-133.7642406	-76
16849	0	0.362548828	-0.139953613	0.05255127	0.999999046	0.000392914	-0.000376701	0.000331879	9.063720703	-3.498840332	1.313781738	0.019645692	-0.018835069	0.016593934	-0.756103516	-0.018798828	0.859130859	892.58	-68.52450662	-67.32793111	-133.6420679	-76
16850	0	0.362740517	-0.139176369	0.053729057	0.999999046	0.000322342	-0.000522614	0.000457764	9.068512917	-3.479409218	1.343226433	0.016117098	-0.026130679	0.022888186	-0.756103516	-0.016601563	0.853271484	892.58	-68.6485409	-67.30774174	-133.4678175	-76
16851	0	0.363342285	-0.138793945	0.053039551	0.999999046	-7.63E-05	-0.00039196	0.000675201	9.083557129	-3.469848633	1.32598877	-0.003814698	-0.019598009	0.033760074	-0.753662109	-0.016601563	0.850341797	892.54	-68.80632493	-67.2589049	-133.3081991	-76
16852	0	0.363563538	-0.138378143	0.053403854	0.999999046	-4.29E-05	-0.000471115	0.000670433	9.08908844	-3.459453583	1.335096359	-0.002145767	-0.023555758	0.033521656	-0.75390625	-0.014404297	0.855712891	892.62	-68.97937205	-67.21386137	-133.124325	-76
16853	0	0.363342285	-0.138244629	0.054199219	0.999999046	-0.000232697	-0.000491142	0.000507355	9.083557129	-3.456115723	1.354980469	-0.011634828	-0.024557116	0.025367739	-0.751464844	-0.014648438	0.852783203	892.64	-69.16266295	-67.18706994	-132.9544494	-76
16854	0	0.364841461	-0.139128685	0.05444622	0.999999046	-0.00030899	-0.000392914	0.000495911	9.12103653	-3.478217125	1.36115551	-0.015449525	-0.019645693	0.024795534	-0.751464844	-0.014648438	0.849853516	892.64	-69.3280334	-67.15750366	-132.8154062	-76
16855	0	0.364257813	-0.138549805	0.054931641	0.999999046	-0.000419617	-0.000441551	0.000286102	9.106445313	-3.463745117	1.373291016	-0.020980837	-0.022077562	0.014305116	-0.751464844	-0.014648438	0.855712891	892.64	-69.49779604	-67.15244281	-132.682558	-76
16856	0	0.363921165	-0.139842033	0.054858208	0.999999046	-0.000447273	-0.000362396	0.000144958	9.098029137	-3.496050835	1.371455193	-0.022363664	-0.018119813	0.007247925	-0.751464844	-0.014648438	0.855712891	892.58	-69.63684916	-67.15936665	-132.5860447	-76
16857	0	0.363342285	-0.140075684	0.054382324	0.999999046	-0.00037384	-0.000227928	0.000205994	9.083557129	-3.50189209	1.359558105	-0.018692017	-0.011396409	0.010299683	-0.749023438	-0.016845703	0.858642578	892.62	-69.73874199	-67.15441729	-132.5208023	-76
16858	0	0.364224434	-0.141060829	0.054414749	0.999999046	-0.000272751	-0.000125885	-0.000106812	9.105610847	-3.526520729	1.360368729	-0.013637543	-0.006294251	-0.005340576	-0.749023438	-0.019042969	0.855957031	892.62	-69.77332019	-67.17910715	-132.5193354	-77
16859	0	0.364196777	-0.141967773	0.053100586	0.999999046	-0.00037384	-9.06E-05	-0.000209808	9.104919434	-3.549194336	1.327514648	-0.018692017	-0.004529953	-0.010490418	-0.746826172	-0.016845703	0.858398438	892.7	-69.80075097	-67.21352728	-132.5316365	-78
16860	0	0.364449501	-0.143321037	0.054024696	0.999999046	-0.000149727	6.48E-05	-0.000286102	9.111237526	-3.583025932	1.350617409	-0.007486344	0.003242493	-0.014305115	-0.749023438	-0.019042969	0.861572266	892.64	-69.75533416	-67.24996249	-132.5963769	-78
16861	0	0.363708496	-0.142333984	0.052612305	0.999999046	-0.000270844	2.77E-05	-5.34E-05	9.092712402	-3.558349609	1.315307617	-0.013542175	0.001382828	-0.002670288	-0.749023438	-0.019042969	0.858642578	892.64	-69.7552841	-67.26285307	-132.6274895	-79
16862	0	0.364086151	-0.142324448	0.052676201	0.999999046	-0.00028038	8.39E-05	-5.72E-05	9.102153778	-3.558111191	1.316905022	-0.014019013	0.004196167	-0.002861023	-0.749023438	-0.019042969	0.855957031	892.6	-69.74154532	-67.27393145	-132.6749062	-79
16863	0	0.364624023	-0.142272949	0.050292969	0.999999046	-0.000354767	0.000271797	-8.77E-05	9.115600586	-3.55682373	1.257324219	-0.017738343	0.013589859	-0.004386902	-0.748779297	-0.021240234	0.855957031	892.58	-69.68551486	-67.2808719	-132.7787417	-79
16864	0	0.362179756	-0.14358902	0.051485062	0.999999046	-0.000109673	8.77E-05	-7.63E-05	9.054493904	-3.589725494	1.287126541	-0.005483627	0.004386902	-0.003814697	-0.746582031	-0.021240234	0.861572266	892.56	-69.64993285	-67.29380728	-132.825379	-80
16865	0	0.36529541	-0.141723633	0.048461914	0.999999046	0.000244141	-6.39E-05	-0.000305176	9.132385254	-3.54309082	1.211547852	0.012207032	-0.003194809	-0.015258789	-0.751220703	-0.020996094	0.859130859	892.64	-69.59138684	-67.33748255	-132.8561079	-81
16866	0	0.36282444	-0.14221096	0.049704552	0.999999046	-4.58E-05	-5.53E-05	-0.000236511	9.070611	-3.55527401	1.242613792	-0.002288818	-0.002765656	-0.011825562	-0.751220703	-0.023193359	0.856445313	892.62	-69.57073037	-67.37344284	-132.8855764	-81
16867	0	0.363342285	-0.14453125	0.051696777	0.999999046	6.10E-05	-0.000197411	-0.000240326	9.083557129	-3.61328125	1.292419434	0.003051758	-0.009870529	-0.012016297	-0.748779297	-0.0234375	0.856201172	892.62	-69.57433418	-67.41536829	-132.8745315	-81
16868	0	0.362698555	-0.142947197	0.05218029	0.999999046	3.91E-05	-9.16E-05	0.000189781	9.067463875	-3.573679924	1.304507256	0.001955032	-0.004577637	0.00948906	-0.748779297	-0.0234375	0.859130859	892.64	-69.59462318	-67.40678301	-132.8470058	-81
16869	0	0.36315918	-0.142028809	0.051574707	0.999999046	0.000205994	-4.10E-05	0.000331879	9.078979492	-3.550720215	1.289367676	0.010299683	-0.0020504	0.016593934	-0.748779297	-0.0234375	0.861816406	892.64	-69.59653063	-67.38089201	-132.8183299	-81
16870	0	0.363313675	-0.141638756	0.052945137	0.999999046	-0.00012207	5.34E-05	0.000281334	9.082841873	-3.540968895	1.323628426	-0.006103516	0.002670288	0.014066696	-0.748779297	-0.0234375	0.861816406	892.7	-69.60680678	-67.35664205	-132.8212977	-81
16871	0	0.362426758	-0.143188477	0.052490234	0.999999046	0.000152588	-3.34E-05	0.000358582	9.060668945	-3.579711914	1.312255859	0.007629395	-0.00166893	0.017929078	-0.746337891	-0.0234375	0.856201172	892.68	-69.61542924	-67.32747467	-132.7947421	-81
16872	0	0.36269474	-0.141357422	0.053240776	0.999999046	0.000306129	-4.01E-05	0.000460625	9.067368507	-3.533935547	1.331019402	0.015306474	-0.002002716	0.023031236	-0.749023438	-0.021240234	0.861816406	892.68	-69.61778197	-67.28761281	-132.7525461	-81
16873	0	0.362121582	-0.141296387	0.052734375	0.999999046	0.000228882	-9.82E-05	0.000579834	9.053039551	-3.532409668	1.318359375	0.011444093	-0.004911423	0.028991701	-0.749023438	-0.021240234	0.858886719	892.58	-69.65511659	-67.2372734	-132.6853245	-81
16874	0	0.362580299	-0.139251709	0.052298546	0.999999046	-0.000110626	0.000148773	0.000601768	9.064507484	-3.481292725	1.307463646	-0.005531311	0.00743866	0.030088427	-0.746582031	-0.021240234	0.858886719	892.74	-69.66998564	-67.1748661	-132.6838852	-80
16875	0	0.36328125	-0.140808105	0.049865723	0.999999046	-0.000247955	0.000256538	0.000484467	9.08203125	-3.520202637	1.246643066	-0.012397767	0.01282692	0.024223329	-0.746582031	-0.019042969	0.855712891	892.64	-69.66231544	-67.12091247	-132.7222687	-80
16876	0	0.363241196	-0.140696526	0.04894352	0.999999046	-2.38E-05	-3.62E-05	0.00033474	9.081029892	-3.517413139	1.22358799	-0.001192093	-0.001811981	0.016736985	-0.746582031	-0.019042969	0.855712891	892.6	-69.68980809	-67.0948787	-132.6951638	-79
16877	0	0.362365723	-0.14050293	0.049560547	0.999999046	1.14E-05	-0.000292778	0.000347137	9.059143066	-3.512573242	1.239013672	0.000572205	-0.014638901	0.017356873	-0.749023438	-0.019042969	0.858642578	892.62	-69.77986956	-67.07784552	-132.5964065	-79
16878	0	0.363334656	-0.140022278	0.049593925	0.999999046	0.000253677	-0.00047493	0.000197411	9.083366394	-3.500556946	1.239848137	0.012683869	-0.023746492	0.00987053	-0.746826172	-0.019042969	0.861572266	892.7	-69.87465864	-67.08425713	-132.4612871	-79
16879	0	0.363586426	-0.140869141	0.050415039	0.999999046	-0.000236511	-0.000292778	-4.96E-05	9.089660645	-3.521728516	1.260375977	-0.011825562	-0.014638901	-0.002479553	-0.749023438	-0.016845703	0.858642578	892.7	-69.95645364	-67.11015393	-132.4003124	-78
16880	0	0.364058495	-0.14275074	0.052085876	0.999999046	-0.000155449	-0.000307083	1.43E-05	9.101462364	-3.568768501	1.302146912	-0.007772446	-0.015354157	0.000715256	-0.746826172	-0.016845703	0.864257813	892.6	-70.0386574	-67.12973613	-132.3245058	-76
16881	0	0.363891602	-0.144348145	0.054260254	0.999999046	0.000156403	-0.000311852	5.34E-05	9.097290039	-3.608703613	1.356506348	0.00782013	-0.015592575	0.002670288	-0.744384766	-0.019042969	0.861328125	892.58	-70.08982794	-67.14518112	-132.2482154	-76
16882	0	0.363360405	-0.141319275	0.053771019	0.999999046	-0.000301361	3.81E-05	0.000278473	9.084010124	-3.532981873	1.344275475	-0.015068055	0.001907349	0.013923645	-0.746826172	-0.019042969	0.861572266	892.64	-70.12451456	-67.12275314	-132.2473275	-76
16883	0	0.364257813	-0.144104004	0.054443359	0.999999046	-0.000236511	0.000134468	0.000141144	9.106445313	-3.602600098	1.361083984	-0.011825562	0.006723404	0.00705719	-0.744384766	-0.016845703	0.861083984	892.54	-70.11418269	-67.11130921	-132.2821102	-75
16884	0	0.365484238	-0.143134117	0.052519798	0.999999046	-0.000239372	0.000278473	-9.16E-05	9.137105942	-3.578352928	1.312994957	-0.011968613	0.013923645	-0.004577637	-0.746826172	-0.019042969	0.861572266	892.62	-70.04582897	-67.11934143	-132.3830928	-75
16885	0	0.361938477	-0.146362305	0.051757813	0.999999046	-0.0001297	0.000218391	-9.92E-05	9.048461914	-3.659057617	1.293945313	-0.006484985	0.010919571	-0.004959107	-0.744384766	-0.021240234	0.864257813	892.58	-69.97963456	-67.13033667	-132.4674762	-75
16886	0	0.362248421	-0.1445961	0.052975655	0.999999046	0.000265121	0.000175476	-1.91E-05	9.056210518	-3.614902496	1.324391365	0.013256073	0.008773804	-0.000953674	-0.744384766	-0.019287109	0.855712891	892.62	-69.88651355	-67.13424853	-132.5341681	-75
16887	0	0.36315918	-0.143981934	0.051757813	0.999999046	0.000102997	0.000210762	5.34E-05	9.078979492	-3.59954834	1.293945313	0.005149841	0.010538101	0.002670288	-0.746582031	-0.021240234	0.861572266	892.62	-69.80986187	-67.12889685	-132.6036199	-76
16888	0	0.363976479	-0.143644333	0.051390648	0.999999046	-8.30E-05	0.000408173	9.06E-05	9.099411964	-3.591108322	1.284766197	-0.004148483	0.020408631	0.004529953	-0.749023438	-0.019042969	0.858642578	892.64	-69.70794423	-67.11168275	-132.7222827	-76
16889	0	0.362426758	-0.145141602	0.050292969	0.999999046	-6.48E-05	0.000260353	0.000118256	9.060668945	-3.628540039	1.257324219	-0.003242493	0.013017655	0.005912781	-0.746582031	-0.019042969	0.858642578	892.66	-69.6447161	-67.09724554	-132.7949024	-77
16890	0	0.363525391	-0.144929886	0.051072121	0.999999046	0.000349045	-8.20E-05	0.0001297	9.088134766	-3.623247147	1.276803017	0.01745224	-0.0041008	0.006484986	-0.746582031	-0.021240234	0.858886719	892.62	-69.62256541	-67.09516879	-132.77598	-78
16891	0	0.362609863	-0.143798828	0.051818848	0.999999046	0.00044632	-2.96E-05	3.81E-06	9.065246582	-3.594970703	1.295471191	0.02231598	-0.001478195	0.000190735	-0.749023438	-0.019042969	0.853027344	892.64	-69.56420234	-67.10450107	-132.7866525	-77
16892	0	0.362794876	-0.142901421	0.051984787	0.999999046	0.00039959	-4.77E-05	-3.81E-06	9.069871902	-3.572535515	1.299619675	0.019979477	-0.002384186	-0.000190735	-0.749023438	-0.019042969	0.858642578	892.66	-69.51517349	-67.11539316	-132.7903964	-77
16893	0	0.362976074	-0.142578125	0.053039551	0.999999046	0.000286102	5.44E-05	0.000160217	9.074401855	-3.564453125	1.32598877	0.014305115	0.002717972	0.008010864	-0.749023438	-0.019042969	0.858642578	892.62	-69.46877903	-67.10459548	-132.8061471	-78
16894	0	0.362802505	-0.142603874	0.052976608	0.999999046	0.000211716	3.43E-05	0.000259399	9.070062637	-3.565096855	1.324415207	0.010585785	0.001716614	0.012969971	-0.749023438	-0.019042969	0.855957031	892.74	-69.44548281	-67.08397022	-132.808512	-78
16895	0	0.362548828	-0.141723633	0.055175781	0.999999046	0.000274658	7.34E-05	0.000160217	9.063720703	-3.54309082	1.379394531	0.01373291	0.003671646	0.008010864	-0.749023438	-0.019042969	0.861572266	892.64	-69.39535375	-67.07242896	-132.8292918	-78
16896	0	0.362311363	-0.142664909	0.054696083	0.999999046	0.000285149	0.000110626	0.000254631	9.057784081	-3.566622734	1.367402077	0.014257431	0.005531311	0.012731552	-0.749267578	-0.014648438	0.85546875	892.64	-69.34348854	-67.04923712	-132.8483318	-78
16897	0	0.362548828	-0.142211914	0.053955078	0.999999046	0.0001297	0.000214577	0.000297546	9.063720703	-3.555297852	1.348876953	0.006484986	0.010728836	0.01487732	-0.749023438	-0.014648438	0.852783203	892.64	-69.28725829	-67.01725719	-132.8933901	-78
16898	0	0.362989426	-0.142719269	0.054146767	0.999999046	1.34E-05	0.00019455	0.000319481	9.074735641	-3.56798172	1.353669167	0.000667572	0.009727478	0.015974045	-0.751464844	-0.016845703	0.858642578	892.62	-69.25160257	-66.98374692	-132.9319707	-77
16899	0	0.362731934	-0.141906738	0.052734375	0.999999046	-0.000102997	0.000256538	0.00038147	9.06829834	-3.547668457	1.318359375	-0.005149841	0.01282692	0.019073487	-0.749267578	-0.014648438	0.85546875	892.64	-69.21979641	-66.94115607	-132.977864	-77
16900	0	0.362534523	-0.14317131	0.052889824	0.999999046	-0.000159264	0.000289917	0.000281334	9.063363075	-3.579282761	1.322245598	-0.007963181	0.01449585	0.014066697	-0.751464844	-0.014648438	0.855712891	892.62	-69.1767812	-66.90795985	-133.043468	-77
16901	0	0.361999512	-0.142944336	0.051757813	0.999999046	0.000190735	4.29E-05	0.000213623	9.049987793	-3.573608398	1.293945313	0.009536743	0.002145767	0.010681152	-0.751464844	-0.014648438	0.855712891	892.64	-69.14962005	-66.89213427	-133.0489791	-76
16902	0	0.362177849	-0.14216423	0.052635193	0.999999046	-6.10E-05	0.00012207	0.000185966	9.05444622	-3.554105759	1.315879822	-0.003051758	0.006103516	0.009298325	-0.751464844	-0.014648438	0.852783203	892.62	-69.12898082	-66.87613292	-133.0803845	-76
16903	0	0.36315918	-0.142272949	0.051879883	0.999999046	0.000133514	9.54E-07	0.000164032	9.078979492	-3.55682373	1.29699707	0.00667572	4.77E-05	0.008201599	-0.749023438	-0.012451172	0.849609375	892.7	-69.114585	-66.86754798	-133.0782193	-77
16904	0	0.361891747	-0.141584396	0.052893639	0.999999046	-8.11E-05	-0.000106812	-5.34E-05	9.047293663	-3.539609909	1.322340965	-0.004053116	-0.005340576	-0.002670288	-0.75390625	-0.012207031	0.855712891	892.7	-69.13109328	-66.88675779	-133.0672018	-77
16905	0	0.360717773	-0.141418457	0.053649902	0.999999046	-0.000228882	-4.86E-05	-0.00019455	9.017944336	-3.535461426	1.341247559	-0.011444092	-0.00243187	-0.009727478	-0.751464844	-0.012451172	0.85546875	892.7	-69.1364193	-66.91878098	-133.084645	-77
16906	0	0.362547874	-0.141729355	0.053426743	0.999999046	-0.000322342	0.000120163	-0.00019455	9.063696861	-3.543233871	1.335668564	-0.016117096	0.006008148	-0.009727478	-0.749023438	-0.014648438	0.849853516	892.66	-69.10999512	-66.9439964	-133.1523698	-77
16907	0	0.362487793	-0.144287109	0.054077148	0.999999046	-0.000480652	-8.30E-05	-0.000160217	9.062194824	-3.607177734	1.351928711	-0.024032594	-0.004148483	-0.008010865	-0.751464844	-0.014648438	0.855712891	892.66	-69.15613017	-66.97378653	-133.1565629	-77
16908	0	0.361748695	-0.143613815	0.054121971	0.999999046	-0.000462532	-5.15E-05	-0.000106812	9.043717384	-3.590345383	1.353049278	-0.023126603	-0.002574921	-0.005340576	-0.749023438	-0.019042969	0.853027344	892.74	-69.19743227	-66.99653545	-133.1699024	-77
16909	0	0.361022949	-0.143737793	0.054626465	0.999999046	-0.000492096	-5.25E-05	-0.000164032	9.02557373	-3.593444824	1.365661621	-0.024604798	-0.002622604	-0.008201599	-0.753662109	-0.018798828	0.856201172	892.7	-69.2368382	-67.02538185	-133.1869818	-77
16910	0	0.363272667	-0.144771576	0.054871559	0.999999046	-0.000429153	-1.14E-05	-0.000286102	9.081816673	-3.619289398	1.371788979	-0.021457673	-0.000572205	-0.014305115	-0.751220703	-0.019042969	0.855957031	892.68	-69.24689034	-67.06555809	-133.2249934	-77
16911	0	0.362121582	-0.145690918	0.054321289	0.999999046	-0.00019455	-0.000243187	-0.000423431	9.053039551	-3.642272949	1.358032227	-0.009727478	-0.012159348	-0.021171571	-0.751220703	-0.021240234	0.850585938	892.68	-69.27564211	-67.12970442	-133.2195518	-77
16912	0	0.361845016	-0.145650864	0.056162834	0.999999046	8.87E-05	-0.000232697	-0.000302315	9.046125412	-3.641271591	1.404070854	0.004434586	-0.011634827	-0.015115738	-0.748779297	-0.0234375	0.853271484	892.56	-69.28079922	-67.18023566	-133.204579	-77
16913	0	0.361572266	-0.145996094	0.054931641	0.999999046	0.000152588	-0.000258446	-0.000328064	9.039306641	-3.649902344	1.373291016	0.007629395	-0.012922287	-0.016403199	-0.748779297	-0.0234375	0.856201172	892.68	-69.2827453	-67.23435021	-133.1828867	-76
16914	0	0.362366676	-0.145803452	0.05436039	0.999999046	0.000267029	-0.000274658	-0.000260353	9.059166908	-3.645086288	1.359009743	0.013351441	-0.013732911	-0.013017655	-0.748779297	-0.0234375	0.853271484	892.6	-69.28236804	-67.28166365	-133.1518832	-77
16915	0	0.363769531	-0.145263672	0.053771973	0.999999046	0.000125885	-0.000285149	-7.63E-05	9.094238281	-3.631591797	1.344299316	0.006294251	-0.014257431	-0.003814697	-0.748779297	-0.0234375	0.859130859	892.52	-69.3188512	-67.30951872	-133.0948173	-76
16916	0	0.363211632	-0.144523621	0.054027557	0.999999046	-6.68E-06	-0.000156403	0.000347137	9.080290794	-3.613090515	1.350688934	-0.000333786	-0.00782013	0.017356873	-0.746582031	-0.0234375	0.858886719	892.64	-69.37850884	-67.28661119	-133.0289013	-77
16917	0	0.362792969	-0.143615723	0.05279541	0.999999046	-0.000297546	-5.25E-05	0.000453949	9.069824219	-3.590393066	1.319885254	-0.01487732	-0.002622605	0.02269745	-0.748779297	-0.0234375	0.859130859	892.62	-69.45510976	-67.24795471	-132.9819838	-77
16918	0	0.363218307	-0.142635345	0.054441452	0.999999046	-0.000200272	-0.000150681	0.000311852	9.080457687	-3.565883636	1.361036301	-0.010013581	-0.007534027	0.015592575	-0.746337891	-0.0234375	0.856201172	892.54	-69.53174377	-67.22843572	-132.923703	-77
16919	0	0.363464355	-0.141845703	0.053222656	0.999999046	-4.20E-05	-0.000208855	0.000228882	9.086608887	-3.546142578	1.330566406	-0.002098084	-0.010442734	0.011444092	-0.748779297	-0.0234375	0.853271484	892.62	-69.59703842	-67.22015856	-132.8620935	-77
16920	0	0.364153862	-0.142261505	0.054583549	0.999999046	0.00014782	-0.000192642	0.000155449	9.10384655	-3.556537628	1.364588737	0.007390976	-0.009632111	0.007772446	-0.746582031	-0.021240234	0.855957031	892.64	-69.62917246	-67.21911021	-132.8065094	-78
16921	0	0.363891602	-0.140686035	0.053894043	0.999999046	0.00025177	-8.30E-05	9.54E-05	9.097290039	-3.517150879	1.347351074	0.012588501	-0.004148483	0.004768372	-0.749023438	-0.021240234	0.861816406	892.66	-69.61539024	-67.22021934	-132.7860395	-77
16922	0	0.363995552	-0.140728951	0.053171158	0.999999046	0.00018692	-3.43E-05	0.000239372	9.099888802	-3.518223763	1.329278946	0.009346008	-0.001716614	0.011968613	-0.746582031	-0.021240234	0.855957031	892.64	-69.61014542	-67.2040105	-132.7680721	-78
16923	0	0.364196777	-0.140441895	0.052185059	0.999999046	0.000202179	2.00E-05	0.000205994	9.104919434	-3.511047363	1.304626465	0.010108948	0.001001358	0.010299683	-0.746582031	-0.021240234	0.858886719	892.52	-69.5860672	-67.18934458	-132.7673448	-78
16924	0	0.36370945	-0.139899254	0.053414345	1	-9.54E-06	-2.86E-06	8.68E-05	9.092736244	-3.497481346	1.33535862	-0.000476837	-0.000143051	0.004339218	-0.746582031	-0.021240234	0.858886719	892.58	-69.58058079	-67.18851908	-132.7726351	-78
16925	0	0.362548828	-0.140197754	0.052246094	0.999999046	0.000137329	3.15E-05	6.87E-05	9.063720703	-3.504943848	1.306152344	0.006866455	0.001573563	0.003433228	-0.746582031	-0.021240234	0.855957031	892.64	-69.54774894	-67.18836758	-132.7916561	-78
16926	0	0.364051819	-0.140172005	0.053587914	0.999999046	-0.000154495	1.14E-05	0.000174522	9.101295471	-3.504300117	1.339697838	-0.007724762	0.000572205	0.00872612	-0.744140625	-0.021240234	0.858642578	892.64	-69.56335886	-67.17776095	-132.7905416	-79
16927	0	0.363769531	-0.140625	0.05279541	0.999999046	-0.000259399	0.000237465	0.000286102	9.094238281	-3.515625	1.319885254	-0.012969971	0.011873246	0.014305115	-0.748779297	-0.021240234	0.855957031	892.68	-69.54391269	-67.14622342	-132.8444397	-79
16928	0	0.362931252	-0.140555382	0.052588463	0.999999046	-0.000254631	0.000240326	0.000221252	9.073281288	-3.513884544	1.314711571	-0.012731552	0.012016297	0.011062622	-0.746582031	-0.0234375	0.858886719	892.64	-69.51709368	-67.12162121	-132.9051647	-78
16929	0	0.363525391	-0.141418457	0.052185059	0.999999046	-0.000305176	0.000115395	0.000148773	9.088134766	-3.535461426	1.304626465	-0.015258789	0.00576973	0.00743866	-0.748779297	-0.021240234	0.855957031	892.68	-69.52107811	-67.10988744	-132.9370493	-79
16930	0	0.363593102	-0.140766144	0.052853584	0.999999046	-0.000112534	2.48E-05	0.000178337	9.089827538	-3.519153595	1.321339607	-0.005626679	0.001239777	0.008916855	-0.748779297	-0.021240234	0.853271484	892.64	-69.52878747	-67.09871677	-132.9426333	-78
16931	0	0.362731934	-0.141357422	0.052978516	0.999999046	-0.000202179	-3.34E-05	0.000102997	9.06829834	-3.533935547	1.324462891	-0.010108948	-0.00166893	0.005149841	-0.748779297	-0.021240234	0.855957031	892.7	-69.55436223	-67.09802679	-132.9373224	-79
16932	0	0.361302376	-0.141208649	0.051187515	0.999999046	-0.000103951	-5.53E-05	6.39E-05	9.032559395	-3.530216217	1.279687881	-0.005197525	-0.002765656	0.003194809	-0.746582031	-0.021240234	0.855957031	892.58	-69.57071361	-67.10248011	-132.9281311	-79
16933	0	0.362854004	-0.14251709	0.052368164	0.999999046	-0.000106812	-9.44E-05	7.63E-06	9.071350098	-3.562927246	1.309204102	-0.005340576	-0.004720688	0.00038147	-0.749023438	-0.021240234	0.858886719	892.66	-69.59208275	-67.11455628	-132.9128351	-79
16934	0	0.363166809	-0.142290115	0.051840782	0.999999046	-0.000162125	-1.91E-05	-0.000190735	9.079170227	-3.557252884	1.296019554	-0.008106232	-0.000953674	-0.009536743	-0.749023438	-0.021240234	0.858886719	892.62	-69.58193308	-67.144962	-132.9374247	-79
16935	0	0.36315918	-0.14263916	0.051391602	0.999999046	-0.000247955	-0.000132561	-0.000102997	9.078979492	-3.565979004	1.284790039	-0.012397766	-0.006628037	-0.005149841	-0.748779297	-0.021240234	0.855957031	892.64	-69.61903358	-67.1704978	-132.9225073	-79
16936	0	0.362469673	-0.142652512	0.052505493	0.999999046	-9.06E-05	-0.000267029	-6.96E-05	9.061741829	-3.56631279	1.312637329	-0.004529953	-0.013351441	-0.003480911	-0.748779297	-0.025634766	0.859375	892.58	-69.67570003	-67.19777936	-132.8722463	-79
16937	0	0.363708496	-0.141540527	0.051330566	0.999999046	-0.000320435	-0.00014019	-0.000244141	9.092712402	-3.538513184	1.28326416	-0.016021729	-0.007009506	-0.012207032	-0.748535156	-0.027832031	0.856689453	892.62	-69.70995174	-67.2388167	-132.8790561	-80
16938	0	0.365075111	-0.14432621	0.052293777	0.999999046	-0.000501633	-0.000101089	-0.00030899	9.126877785	-3.608155251	1.307344437	-0.025081636	-0.005054474	-0.015449525	-0.746337891	-0.025634766	0.859130859	892.6	-69.74893066	-67.28520876	-132.8932154	-81
16939	0	0.362487793	-0.14263916	0.05279541	0.999999046	-0.000488281	-9.06E-05	-0.000110626	9.062194824	-3.565979004	1.319885254	-0.024414064	-0.004529953	-0.005531311	-0.746337891	-0.025634766	0.856201172	892.54	-69.80245732	-67.30979638	-132.8902771	-82
16940	0	0.364909172	-0.141817093	0.052650452	0.999999046	-0.000958443	0.000228882	-0.000320435	9.122729301	-3.545427322	1.316261292	-0.047922143	0.011444094	-0.016021731	-0.746337891	-0.027832031	0.859375	892.58	-69.80766576	-67.34432431	-132.9950274	-81
16941	0	0.366027832	-0.145263672	0.053955078	0.999998093	-0.000761986	0.000205994	-0.001171112	9.150695801	-3.631591797	1.348876953	-0.038099302	0.010299686	-0.058555622	-0.748535156	-0.031982422	0.859863281	892.52	-69.71463945	-67.47103579	-133.1841437	-84
16942	0	0.362627983	-0.147306442	0.054611206	0.999998093	-0.000182152	0.000157356	-0.001544952	9.065699577	-3.682661057	1.365280151	-0.009107593	0.007867816	-0.077247651	-0.748291016	-0.034179688	0.859863281	892.6	-69.529567	-67.63930172	-133.3992964	-87
16943	0	0.362915039	-0.14855957	0.052612305	0.999998093	0.000290871	0.000228882	-0.001537323	9.072875977	-3.713989258	1.315307617	0.014543539	0.011444097	-0.076866182	-0.748291016	-0.036376953	0.857177734	892.66	-69.26932397	-67.80310291	-133.6391571	-87
16944	0	0.367380142	-0.148928642	0.049326897	0.999997139	-8.11E-05	0.000986099	-0.002015114	9.184503555	-3.723216057	1.233172417	-0.004053119	0.049305004	-0.100755776	-0.750488281	-0.036376953	0.854492188	892.64	-68.80026789	-67.98603746	-134.1454204	-87
16945	0	0.359924316	-0.15222168	0.045471191	0.999995232	-0.000751495	0.001137733	-0.002441406	8.99810791	-3.805541992	1.136779785	-0.037574817	0.056886747	-0.122070472	-0.750244141	-0.04296875	0.852294922	892.74	-68.31641032	-68.20584094	-134.7521647	-87
16946	0	0.357217789	-0.152619362	0.043548584	0.999995232	0.000217438	0.000928879	-0.002857208	8.930444717	-3.815484047	1.0887146	0.010871904	0.046444009	-0.142860629	-0.752441406	-0.047363281	0.85546875	892.58	-67.72225709	-68.47590422	-135.3550161	-87
16947	0	0.353149414	-0.153137207	0.039001465	0.999990463	0.001721382	0.000198364	-0.00396347	8.828735352	-3.828430176	0.975036621	0.086069375	0.009918244	-0.198174141	-0.752197266	-0.051757813	0.847412109	892.6	-67.01369906	-68.89179208	-135.9034558	-84
16948	0	0.352138519	-0.15010643	0.035877228	0.999983788	0.002457619	-0.000183105	-0.005031586	8.803462982	-3.752660751	0.896930695	0.122881579	-0.009155321	-0.251580601	-0.752197266	-0.053955078	0.853271484	892.64	-66.17410847	-69.43388578	-136.4941604	-79
16949	0	0.366210938	-0.148132324	0.034118652	0.999982834	0.001706123	-0.000354767	-0.00548172	9.155273438	-3.703308105	0.852966309	0.085306638	-0.01773844	-0.27408751	-0.749755859	-0.058349609	0.856201172	892.62	-65.37761988	-70.02746968	-137.1247559	-78
16950	0	0.369515419	-0.135669708	0.035058975	0.999988556	0.000702858	-0.00049305	-0.004573822	9.237885475	-3.391742706	0.87647438	0.035143025	-0.02465257	-0.228691927	-0.749511719	-0.060546875	0.856445313	892.66	-64.82383971	-70.53056961	-137.6122591	-76
16951	0	0.370727539	-0.106140137	0.036193848	0.99998951	-0.001888275	-0.000735283	-0.003898621	9.268188477	-2.653503418	0.904846191	-0.094414061	-0.036764263	-0.194931657	-0.744628906	-0.067138672	0.854003906	892.58	-64.71360246	-70.97553212	-137.9397095	-75
16952	0	0.372207642	-0.093412399	0.047494888	0.999975204	-0.00384903	-0.000370979	-0.005792618	9.30519104	-2.335309982	1.187372208	-0.192453033	-0.018549115	-0.289633231	-0.741699219	-0.078125	0.854736328	892.58	-64.42569392	-71.59940776	-138.6816099	-75
16953	0	0.331054688	-0.087097168	0.05078125	0.999966621	-0.002944946	0.000863075	-0.007541656	8.276367188	-2.177429199	1.26953125	-0.147248941	0.04315424	-0.377086991	-0.741210938	-0.093505859	0.858642578	892.6	-63.31788894	-72.33845393	-140.1674472	-73
16954	0	0.350954056	-0.088011742	0.047128677	0.999940872	-0.007779121	0.001801491	-0.007273674	8.773851395	-2.200293541	1.178216934	-0.388963633	0.090076291	-0.363690773	-0.740234375	-0.111083984	0.848632813	892.64	-62.39728297	-72.99331828	-142.0235352	-71
16955	0	0.418762207	-0.135925293	0.068237305	0.999908447	-0.008727074	-0.001174927	-0.010185242	10.46905518	-3.398132324	1.705932617	-0.436366868	-0.058748113	-0.509277473	-0.739257813	-0.137207031	0.847900391	892.64	-61.94982144	-74.09457428	-143.485972	-69
16956	0	0.398309708	-0.151844978	0.079304695	0.999895096	-0.005079269	-0.003466606	-0.013088226	9.957742691	-3.796124458	1.982617378	-0.253972323	-0.173336349	-0.654434126	-0.730957031	-0.168212891	0.850097656	892.6	-61.17660136	-75.6060711	-144.8520417	-69
16957	0	0.334106445	-0.137390137	0.081481934	0.99991703	-0.006946564	-0.001326561	-0.010688782	8.352661133	-3.434753418	2.03704834	-0.347337696	-0.066329865	-0.53445372	-0.718261719	-0.192626953	0.851318359	892.66	-60.05806653	-76.74791552	-146.7770719	-68
16958	0	0.321721077	-0.149555206	0.083702087	0.999878883	-0.012487411	0.002006531	-0.009016991	8.043026924	-3.738880157	2.092552185	-0.624395684	0.100330573	-0.450867664	-0.712158203	-0.221191406	0.84765625	892.64	-58.29659285	-77.51300825	-149.989319	-68
16959	0	0.33416748	-0.172546387	0.082824707	0.999895096	-0.00947094	0.001785278	-0.010738373	8.354187012	-4.313659668	2.070617676	-0.473563415	0.089267014	-0.536937273	-0.713134766	-0.25390625	0.839111328	892.58	-55.41668822	-78.4218779	-153.9872772	-70
16960	0	0.336462021	-0.181522369	0.08846283	0.999926567	-0.002560616	0.000518799	-0.011785507	8.411550522	-4.538059235	2.21157074	-0.128033887	0.025940571	-0.589289673	-0.712158203	-0.278076172	0.841064453	892.66	-51.35175203	-79.45499949	-158.3740281	-77
16961	0	0.340026855	-0.180419922	0.091552734	0.99996376	0.001942635	-0.000499725	-0.008167267	8.500671387	-4.510498047	2.288818359	0.097132874	-0.024986562	-0.408368156	-0.70703125	-0.286865234	0.844238281	892.66	-48.02520739	-80.18373117	-161.4719721	-69
16962	0	0.35286808	-0.172772408	0.082728386	0.999987602	0.003419876	0.000810623	-0.003456116	8.821702003	-4.319310188	2.068209648	0.170994497	0.040531323	-0.172806486	-0.702636719	-0.282714844	0.846435547	892.6	-45.70250667	-80.38171922	-163.3635362	-75
16963	0	0.400390625	-0.182189941	0.080993652	0.999983788	0.004711151	0.000222206	-0.002975464	10.00976563	-4.554748535	2.024841309	0.235558777	0.011110363	-0.148773964	-0.703613281	-0.267333984	0.862304688	892.58	-43.68212954	-80.57094452	-164.7471408	-66
16964	0	0.462097168	-0.178468704	0.078500748	0.999984741	0.003801346	-0.000529289	-0.003838539	11.5524292	-4.461717606	1.962518692	0.190068225	-0.026464592	-0.191927899	-0.702148438	-0.247558594	0.869140625	892.6	-41.61577097	-80.87714153	-166.2231335	-73
16965	0	0.470214844	-0.170532227	0.081054688	0.999993324	-0.003501892	-0.000235558	-0.000473022	11.75537109	-4.263305664	2.026367188	-0.175094971	-0.011777902	-0.023651172	-0.698974609	-0.217041016	0.875	892.66	-42.00007293	-80.89322734	-165.9767538	-81
16966	0	0.455781937	-0.185352325	0.085217476	0.999976158	-0.005020142	-0.001560211	0.004401207	11.39454842	-4.633808136	2.130436897	-0.251009047	-0.07801117	0.220062073	-0.697753906	-0.193115234	0.881591797	892.58	-45.7066349	-80.62728624	-162.6258823	-67
16967	0	0.445251465	-0.201904297	0.09197998	0.999922752	0.00944519	-0.004790306	0.006397247	11.13128662	-5.047607422	2.299499512	0.472271571	-0.239521416	0.319870527	-0.694824219	-0.147216797	0.877685547	892.64	-50.13003331	-80.39832845	-156.9805797	-66
16968	0	0.413655281	-0.155763626	0.066804886	0.999619484	0.025338173	-0.003650665	0.010242462	10.34138203	-3.894090652	1.670122147	1.26706923	-0.182556401	0.512188021	-0.688964844	-0.064697266	0.870605469	892.64	-53.33403779	-79.67704089	-150.7515159	-66
16969	0	0.393737793	-0.089416504	0.044799805	0.999568939	0.022259712	0.000835419	0.019100189	9.843444824	-2.235412598	1.119995117	1.113145388	0.041776932	0.955146559	-0.683837891	0.046386719	0.841308594	892.6	-56.73647992	-77.7664018	-144.6525324	-67
16970	0	0.381432533	-0.084872246	0.027067184	0.999609947	0.013275146	0.004747391	0.024069786	9.535813332	-2.121806145	0.676679611	0.663843435	0.237400332	1.203645435	-0.682373047	0.1484375	0.778808594	892.64	-59.37350766	-75.07718389	-140.3511739	-69
16971	0	0.374389648	-0.073547363	0.006713867	0.999602318	0.011726379	0.007496834	0.024517059	9.359741211	-1.838684082	0.16784668	0.586396665	0.374891362	1.226015408	-0.682128906	0.2265625	0.715332031	892.64	-60.31821437	-72.1595521	-137.9538384	-67
16972	0	0.325340271	-0.059090614	0.001335144	0.99967289	0.007428169	0.00920105	0.022646904	8.133506775	-1.477265358	0.033378601	0.371448879	0.460102552	1.13246842	-0.676513672	0.289306641	0.641601563	892.58	-60.52045291	-69.32981177	-136.8344293	-64
16973	0	0.3046875	-0.067810059	0.008056641	0.999754906	0.005344391	0.00729847	0.02016449	7.6171875	-1.695251465	0.201416016	0.267241302	0.364953191	1.008306581	-0.663085938	0.33203125	0.574707031	892.68	-60.91495733	-66.85693058	-135.7537635	-64
16974	0	0.288802147	-0.060933113	0.010009766	0.999817848	0.004863739	0.004903793	0.017786026	7.220053673	-1.523327827	0.250244141	0.243201708	0.245204546	0.889355267	-0.637451172	0.365478516	0.505126953	892.7	-61.45769705	-64.75633359	-134.5564249	-67
16975	0	0.278137207	-0.063903809	0.01739502	0.999868393	0.003804207	0.002586365	0.015514374	6.953430176	-1.597595215	0.434875488	0.190218645	0.129323882	0.775752548	-0.59765625	0.387695313	0.444091797	892.6	-62.20880872	-63.00948142	-133.2440134	-68
16976	0	0.305622101	-0.072393417	0.01601696	0.999912262	0.003110886	0.002263069	0.012647629	7.640552521	-1.809835434	0.400424004	0.155548812	0.113156754	0.63239986	-0.556884766	0.387939453	0.373535156	892.64	-62.69860292	-61.5698901	-132.3026926	-68
16977	0	0.364013672	-0.093688965	0.022949219	0.999966621	0.002372742	0.002381325	0.007347107	9.100341797	-2.342224121	0.573730469	0.118638376	0.119067534	0.367359344	-0.523925781	0.364501953	0.291015625	892.64	-62.69604065	-60.66766136	-132.0152665	-66
16978	0	0.457633018	-0.129188538	0.037509918	0.99997139	0.007351875	0.000182152	-0.001462936	11.44082546	-3.22971344	0.937747955	0.36759721	0.009107675	-0.073147506	-0.510986328	0.306640625	0.220947266	892.58	-61.69177082	-60.78368008	-132.2261877	-63
16979	0	0.514709473	-0.126586914	0.032348633	0.999890327	0.009410858	-0.000369072	-0.011367798	12.86773682	-3.164672852	0.80871582	0.47056	-0.018454268	-0.568410539	-0.518310547	0.228027344	0.162353516	892.6	-59.52374371	-61.92479202	-133.4934543	-63
16980	0	0.579406738	-0.094414711	0.025708199	0.999861717	-0.00449276	0.000518799	-0.015948296	14.48516846	-2.360367775	0.642704964	-0.224648275	0.02594113	-0.797451306	-0.554199219	0.145996094	0.139648438	892.58	-58.12378919	-63.45352189	-135.6710774	-63
16981	0	0.479003906	-0.117126465	0.082702637	0.999536514	-0.023306847	-0.001907349	-0.019458771	11.97509766	-2.928161621	2.067565918	-1.165522158	-0.095382148	-0.973088674	-0.595214844	0.068847656	0.142578125	892.64	-58.75729499	-65.46910965	-137.9481672	-62
16982	0	0.312808037	-0.115995407	0.084833145	0.999637604	-0.021611214	-0.005928993	-0.014904976	7.82020092	-2.899885178	2.120828629	-1.080691178	-0.296485462	-0.745338795	-0.630126953	0.002441406	0.158447266	892.64	-60.6180701	-67.28793015	-138.635904	-61
16983	0	0.350769043	-0.106201172	0.083435059	0.999770164	-0.020534515	-0.00165844	-0.005859375	8.769226074	-2.655029297	2.085876465	-1.026804287	-0.082928323	-0.292991154	-0.660644531	-0.053222656	0.173339844	892.52	-62.61315869	-67.97147284	-139.0359583	-64
16984	0	0.335413933	-0.125687599	0.094191551	0.99981308	-0.018438339	0.000365257	-0.005755424	8.38534832	-3.14218998	2.35478878	-0.921974319	0.018263999	-0.287789129	-0.689697266	-0.093505859	0.186767578	892.62	-63.89563371	-68.54364693	-139.9403253	-63
16985	0	0.268554688	-0.12109375	0.080688477	0.999794006	-0.018538475	-4.58E-05	-0.008182526	6.713867188	-3.02734375	2.017211914	-0.926987201	-0.002288975	-0.409154287	-0.718261719	-0.134033203	0.191650391	892.6	-64.9849082	-69.3924879	-141.0582355	-64
16986	0	0.232871056	-0.149835587	0.091033936	0.999811172	-0.016486168	-0.002039909	-0.010001183	5.82177639	-3.745889664	2.275848389	-0.824360058	-0.102001861	-0.500090468	-0.7421875	-0.179199219	0.196533203	892.64	-66.16013467	-70.52963229	-141.8264241	-65
16987	0	0.23248291	-0.16973877	0.074829102	0.999921799	-0.003584862	-0.001041412	-0.011856079	5.812072754	-4.243469238	1.870727539	-0.179247704	-0.052071959	-0.592819221	-0.768554688	-0.223876953	0.207275391	892.54	-65.25252088	-71.80958922	-143.2275592	-69
16988	0	0.266820908	-0.163873672	0.082175255	0.999891281	0.004499435	-0.000555992	-0.013978958	6.67052269	-4.096841812	2.054381371	0.22497987	-0.027800607	-0.698973067	-0.792724609	-0.266845703	0.217773438	892.6	-62.68475427	-73.26538062	-145.3872718	-64
16989	0	0.329956055	-0.18157959	0.096984863	0.999848366	0.005851746	-0.003581047	-0.01599884	8.248901367	-4.539489746	2.424621582	0.292602059	-0.179061397	-0.799982423	-0.816650391	-0.316162109	0.234619141	892.64	-60.19586214	-75.05546742	-147.2865714	-63
16990	0	0.416239738	-0.181771278	0.090194702	0.99990654	0.005249977	-0.001099586	-0.012562752	10.40599346	-4.54428196	2.254867554	0.26250702	-0.054981034	-0.628157125	-0.840820313	-0.360839844	0.262451172	892.6	-57.08301871	-76.33000724	-149.8874416	-64
16991	0	0.488525391	-0.191467285	0.098327637	0.999974251	-0.001220703	0.001896858	-0.006687164	12.21313477	-4.786682129	2.458190918	-0.061035663	0.094843698	-0.334360991	-0.86328125	-0.396972656	0.292236328	892.58	-54.68127243	-76.81795954	-152.5092097	-68
16992	0	0.485686302	-0.188129425	0.087856293	0.999983788	-0.005660057	0.000169754	0.000320435	12.14215755	-4.703235626	2.196407318	-0.283004371	0.008487747	0.016021814	-0.890625	-0.422119141	0.312744141	892.58	-55.37426961	-76.74849355	-152.4731447	-70
16993	0	0.555725098	-0.240478516	0.113586426	0.999984741	-0.000781059	-0.004634857	0.002861023	13.89312744	-6.011962891	2.839660645	-0.03905316	-0.231744028	0.143051869	-0.911621094	-0.432128906	0.343261719	892.6	-58.13895126	-76.73151888	-149.7343414	-67
16994	0	0.470389366	-0.229931831	0.0785923	0.999632835	0.026325226	-0.004533768	0.004532814	11.75973415	-5.748295784	1.96480751	1.316422393	-0.22671613	0.226668441	-0.927001953	-0.424560547	0.400390625	892.52	-58.16072357	-76.52475148	-146.6222216	-64
16995	0	0.356567383	-0.088195801	0.028076172	0.999341011	0.028957367	0.002343178	0.02173996	8.91418457	-2.20489502	0.701904297	1.448186257	0.117184614	1.087236659	-0.937744141	-0.366943359	0.473144531	892.64	-58.96220894	-74.21795933	-142.3683363	-64
16996	0	0.419518471	-0.06880188	0.04468441	0.999335289	0.014159203	0.004325867	0.033303261	10.48796177	-1.720046997	1.117110252	0.708116954	0.216341247	1.665531901	-0.954589844	-0.263427734	0.519775391	892.58	-61.92572719	-70.61291704	-137.5514435	-64
16997	0	0.375427246	-0.071472168	0.012512207	0.999547958	-0.002955437	0.008323669	0.028720856	9.385681152	-1.786804199	0.312805176	-0.147794082	0.416246126	1.436258975	-0.970703125	-0.166748047	0.538330078	892.48	-63.94675845	-67.21424806	-135.7348773	-65
16998	0	0.269578934	-0.075381279	0.015354156	0.999577522	-0.009687424	0.008626938	0.025988579	6.739473343	-1.884531975	0.383853912	-0.48443932	0.431407569	1.299611725	-0.989746094	-0.100585938	0.531005859	892.64	-65.87129022	-64.06750714	-134.8343006	-63
16999	0	0.238891602	-0.098754883	0.029296875	0.999680519	-0.00138092	0.003590584	0.024971008	5.972290039	-2.46887207	0.732421875	-0.069053369	0.179548296	1.248683289	-1.017822266	-0.040771484	0.530517578	892.64	-67.49214272	-61.24805874	-133.1890878	-63
17000	0	0.249718666	-0.10012722	0.024744987	0.999707222	0.012547493	-0.000364304	0.020665169	6.242966652	-2.503180504	0.618624687	0.627435795	-0.018216955	1.033359142	-1.056152344	0.030517578	0.543945313	892.58	-67.69637464	-59.04840262	-131.300166	-64
17001	0	0.280212402	-0.080322266	0.016784668	0.999702454	0.018460274	0.000118256	0.015930176	7.005310059	-2.008056641	0.419616699	0.923105177	0.005913367	0.79658774	-1.09765625	0.1171875	0.564697266	892.58	-66.70297679	-57.33873803	-129.9828065	-62
17002	0	0.34627533	-0.073417664	0.013705254	0.999846458	0.01374054	0.002313614	0.010576248	8.65688324	-1.835441589	0.34263134	0.687062022	0.115686595	0.528839383	-1.135009766	0.216796875	0.586914063	892.64	-65.50915659	-56.10869469	-129.5268234	-63
17003	0	0.45300293	-0.092651367	0.018371582	0.999975204	0.006207466	0.002586365	0.001670837	11.32507324	-2.31628418	0.459289551	0.31037579	0.129319272	0.083542539	-1.157714844	0.305175781	0.609375	892.66	-64.5235458	-55.80478696	-129.8563158	-64
17004	0	0.502926826	-0.114553452	0.035022736	0.999955177	0.000340462	0.001897812	-0.009166718	12.57317066	-2.863836288	0.87556839	0.017023336	0.094891982	-0.45834258	-1.157714844	0.357666016	0.610839844	892.58	-63.50856264	-56.65828727	-131.0310666	-64
17005	0	0.50604248	-0.119445801	0.049804688	0.999873161	-9.16E-05	0.000817299	-0.015869141	12.65106201	-2.98614502	1.245117188	-0.004577829	0.040866664	-0.793490427	-1.150634766	0.361572266	0.598632813	892.54	-62.09048993	-58.24627266	-132.7295412	-62
17006	0	0.534460068	-0.10431385	0.039239883	0.999674797	-0.014974594	0.003871918	-0.020245552	13.36150169	-2.60784626	0.980997086	-0.748810731	0.193616837	-1.012387149	-1.139648438	0.332763672	0.583496094	892.6	-61.31236349	-60.1020129	-135.6380899	-63
17007	0	0.356323242	-0.127197266	0.073608398	0.999485016	-0.025420189	-0.000125885	-0.019542694	8.908081055	-3.179931641	1.840209961	-1.271227337	-0.00629533	-0.977302217	-1.138671875	0.258300781	0.561035156	892.54	-62.33406221	-62.10847432	-137.8054477	-64
17008	0	0.368804932	-0.143572807	0.083417892	0.999573708	-0.024399757	-0.004961014	-0.015218735	9.220123291	-3.589320183	2.085447311	-1.220161086	-0.248085909	-0.761044777	-1.125732422	0.174804688	0.561279297	892.58	-64.59814213	-63.9491534	-138.4110989	-63
17009	0	0.340942383	-0.182617188	0.099853516	0.999690056	-0.014968872	-0.008086205	-0.018154144	8.52355957	-4.565429688	2.496337891	-0.748520843	-0.404351951	-0.90780089	-1.11328125	0.102539063	0.566650391	892.64	-66.26257059	-66.25082864	-138.4755929	-69
17010	0	0.24892807	-0.165174484	0.083338737	0.99978447	-0.000664711	-0.005291939	-0.020035744	6.223201752	-4.129362106	2.083468437	-0.033237932	-0.2646159	-1.001858974	-1.094238281	0.031982422	0.577148438	892.6	-65.40190526	-68.6144643	-139.4973129	-63
17011	0	0.213684082	-0.123291016	0.085998535	0.999857903	-0.00402832	-0.002280235	-0.01618576	5.342102051	-3.082275391	2.149963379	-0.201425531	-0.11401715	-0.809326256	-1.087646484	-0.020507813	0.586669922	892.58	-64.37691921	-70.42199188	-141.0898701	-65
17012	0	0.242232323	-0.162237167	0.090040207	0.999871254	-0.009354591	-0.001398087	-0.012939453	6.055808067	-4.055929184	2.251005173	-0.467749597	-0.069907321	-0.64700036	-1.078369141	-0.071044922	0.590332031	892.62	-63.96357136	-71.83843686	-142.6645682	-65
17013	0	0.275268555	-0.179443359	0.087219238	0.999925613	-0.000590324	-0.000175476	-0.012104034	6.881713867	-4.486083984	2.180480957	-0.029516943	-0.008774019	-0.605216538	-1.076660156	-0.114746094	0.599609375	892.6	-62.07690116	-73.09016523	-144.7189832	-62
17014	0	0.324774742	-0.173953056	0.102947235	0.999934196	0.003740311	-0.00201416	-0.010566711	8.119368553	-4.348826408	2.573680878	0.187019576	-0.100710185	-0.528346993	-1.073486328	-0.145263672	0.618896484	892.66	-60.32346052	-74.2635907	-146.1038019	-60
17015	0	0.432617188	-0.188171387	0.102966309	0.999945641	0.004329681	-0.002711296	-0.009033203	10.81542969	-4.704284668	2.574157715	0.216487956	-0.135567237	-0.451668264	-1.068115234	-0.166992188	0.637695313	892.6	-58.86095268	-75.3100556	-147.1092764	-61
17016	0	0.516303062	-0.202575684	0.096847534	0.999951363	0.00615406	-0.000238419	-0.007612228	12.90757656	-5.06439209	2.421188354	0.307707935	-0.011921119	-0.380617502	-1.065673828	-0.182373047	0.664306641	892.54	-56.39409207	-76.05357248	-148.931141	-63
17017	0	0.495910645	-0.153137207	0.082275391	0.999999046	0.000469208	-0.000330925	0.000888824	12.39776611	-3.828430176	2.056884766	0.023460393	-0.016546252	0.044441231	-1.066162109	-0.182128906	0.689941406	892.54	-56.67358551	-75.97931784	-148.5910337	-65
17018	0	0.53843689	-0.23014164	0.133891106	0.999966621	0.001634598	-0.006454468	0.004724503	13.46092224	-5.753540993	3.347277641	0.081730797	-0.322726974	0.236227752	-1.062744141	-0.166748047	0.717041016	892.64	-60.11480894	-75.88968792	-144.8530328	-65
17019	0	0.433654785	-0.179748535	0.060302734	0.999621391	0.025901794	-0.00329113	0.008594513	10.84136963	-4.493713379	1.507568359	1.295252872	-0.164577233	0.429779782	-1.048828125	-0.12109375	0.752441406	892.64	-60.29912995	-75.20283486	-141.6004299	-63
17020	0	0.398314476	-0.062397957	0.026159286	0.999564171	0.019774437	0.007511139	0.020564079	9.9578619	-1.559948921	0.653982162	0.988865322	0.375611443	1.028353168	-1.044677734	-0.005371094	0.765380859	892.64	-59.53427932	-72.71496318	-140.0339862	-62
17021	0	0.404785156	-0.076843262	0.039367676	0.99968338	0.000927925	0.01089859	0.022628784	10.11962891	-1.921081543	0.984191895	0.046401142	0.544986893	1.131558365	-1.044189453	0.110107422	0.724609375	892.54	-60.07675533	-69.83073064	-139.3412752	-61
17022	0	0.314976692	-0.076874733	0.016677856	0.9997015	-0.00992775	0.011341095	0.019226074	7.874417305	-1.921868324	0.416946411	-0.496436871	0.567111169	0.961399358	-1.043701172	0.183837891	0.664550781	892.66	-61.07953695	-67.2611931	-139.4827167	-62
17023	0	0.214782715	-0.065673828	0.024780273	0.999613762	-0.012477875	0.007626534	0.023609161	5.369567871	-1.641845703	0.619506836	-0.623973962	0.381375709	1.18060986	-1.040039063	0.227050781	0.606689453	892.64	-63.58034638	-64.44868359	-138.3132174	-63
17024	0	0.22606945	-0.098014832	0.039699554	0.999677658	-0.001890182	0.00039959	0.025279999	5.651736259	-2.450370789	0.992488861	-0.094519253	0.019981618	1.264135397	-1.03125	0.263427734	0.557617188	892.66	-66.13972106	-61.79640786	-135.6954641	-63
17025	0	0.282714844	-0.097229004	0.017028809	0.999660492	0.015324593	-0.001186371	0.021018982	7.067871094	-2.430725098	0.425720215	0.766316246	-0.059325248	1.051067899	-1.018798828	0.30859375	0.530273438	892.58	-66.33400342	-59.63977052	-133.4682109	-62
17026	0	0.346746445	-0.085741043	0.005301476	0.999714851	0.020149231	0.001178741	0.012704849	8.668661118	-2.143526077	0.132536888	1.007557079	0.058942661	0.635302698	-1.013427734	0.358398438	0.506103516	892.66	-64.8203738	-58.25724507	-132.5479357	-62
17027	0	0.415893555	-0.071533203	0.008666992	0.999923706	0.011387825	0.001991272	0.004253387	10.39733887	-1.788330078	0.216674805	0.569405651	0.099566117	0.212674751	-1.014648438	0.399658203	0.474365234	892.58	-63.52823968	-57.72622227	-132.5406995	-63
17028	0	0.500891685	-0.098065376	0.032081604	0.999973297	-0.003540039	9.63E-05	-0.006306648	12.52229214	-2.451634407	0.8020401	-0.177003496	0.004816097	-0.315335162	-1.019775391	0.419433594	0.455810547	892.54	-63.40284925	-58.38409809	-133.1737877	-66
17029	0	0.4296875	-0.103942871	0.051025391	0.999887466	-0.006854057	0.000110626	-0.013324738	10.7421875	-2.598571777	1.275634766	-0.342715692	0.005531518	-0.666261813	-1.030761719	0.404541016	0.454833984	892.58	-63.02222889	-59.76403934	-134.5399916	-65
17030	0	0.557765007	-0.103853226	0.023501396	0.99978447	-0.012104988	0.002257347	-0.01671505	13.94412518	-2.596330643	0.587534904	-0.605292892	0.112875465	-0.835812536	-1.045654297	0.378662109	0.440673828	892.66	-62.44811439	-61.38045288	-136.7985473	-68
17031	0	0.431213379	-0.130981445	0.077148438	0.99963665	-0.016361237	-0.000174522	-0.02141571	10.78033447	-3.274536133	1.928710938	-0.818160895	-0.008727177	-1.070915193	-1.066650391	0.324707031	0.431884766	892.58	-62.16475215	-63.59849655	-139.2386888	-68
17032	0	0.379662514	-0.122694016	0.068256378	0.999630928	-0.021519661	-0.005741119	-0.015519142	9.491562843	-3.067350388	1.706409454	-1.07611524	-0.287091236	-0.77605244	-1.075927734	0.266113281	0.428710938	892.58	-64.17275001	-65.51931379	-139.7544231	-70
17033	0	0.367126465	-0.151489258	0.096130371	0.999789238	-0.01599884	-0.010146141	-0.007900238	9.178161621	-3.787231445	2.403259277	-0.799998199	-0.507342683	-0.395039645	-1.081054688	0.218261719	0.44140625	892.52	-67.5648349	-66.85692626	-138.0601096	-62
17034	0	0.276132584	-0.160346985	0.086269379	0.999908447	-0.004570961	-0.008494377	-0.009430885	6.90331459	-4.008674622	2.156734467	-0.228554983	-0.42473174	-0.47155857	-1.075195313	0.183349609	0.458251953	892.58	-69.31045218	-68.25233264	-136.7458776	-62
17035	0	0.216064453	-0.120056152	0.079101563	0.999947548	-0.003551483	-0.004603386	-0.008426666	5.401611328	-3.001403809	1.977539063	-0.17757726	-0.230173317	-0.421340674	-1.076416016	0.152832031	0.469482422	892.6	-70.11781051	-69.3703606	-136.3226303	-70
17036	0	0.218431473	-0.149886131	0.097880363	0.999950409	-0.006128311	-0.004109383	-0.006609917	5.460786819	-3.747153282	2.447009087	-0.30642057	-0.205472492	-0.33050124	-1.079833984	0.122558594	0.472167969	892.54	-71.33047264	-70.26535655	-135.7839884	-69
17037	0	0.242980957	-0.158874512	0.081359863	0.999976158	0.002933502	-0.001925468	-0.005805969	6.074523926	-3.971862793	2.033996582	0.146676235	-0.096274161	-0.290300689	-1.083496094	0.098632813	0.477050781	892.58	-70.95326093	-70.98614737	-135.8319202	-68
17038	0	0.312418938	-0.158970833	0.095570564	0.999940872	0.00782299	-0.002081871	-0.0072155	7.810473442	-3.974270821	2.389264107	0.391157188	-0.104095592	-0.360782065	-1.094482422	0.079345703	0.476318359	892.64	-69.8698644	-71.86099512	-136.0327007	-64
17039	0	0.433959961	-0.178161621	0.096191406	0.999879837	0.009617805	-0.00308609	-0.011745453	10.84899902	-4.454040527	2.404785156	0.48090951	-0.154310677	-0.587296136	-1.101074219	0.060058594	0.495361328	892.6	-68.24928908	-73.25707661	-136.5781758	-64
17040	0	0.51653862	-0.185834885	0.087325096	0.999876022	0.005897522	0.001158714	-0.014491081	12.9134655	-4.645872116	2.183127403	0.294888196	0.057938091	-0.724583786	-1.106933594	0.027587891	0.506835938	892.76	-64.79598242	-74.73730232	-139.4690917	-67
17041	0	0.49206543	-0.167297363	0.090393066	0.999946594	-0.00580883	0.001155853	-0.008388519	12.30163574	-4.182434082	2.25982666	-0.290446618	0.057793679	-0.419433336	-1.107666016	-0.009521484	0.515625	892.6	-63.37643494	-75.55028316	-141.6282208	-67
17042	0	0.544108391	-0.270949364	0.15241909	0.999967575	0.002041817	-0.006415367	-0.004369736	13.60270977	-6.773734093	3.810477257	0.102091932	-0.3207718	-0.218489132	-1.106689453	-0.041992188	0.535400391	892.6	-64.8515338	-76.31955556	-139.8689606	-70
17043	0	0.444641113	-0.184997559	0.036804199	0.999638557	0.026454926	0.001202583	0.00447464	11.11602783	-4.624938965	0.92010498	1.322905352	0.060136397	0.223758901	-1.095458984	-0.046630859	0.569335938	892.66	-62.19403019	-75.79342182	-139.4877111	-72
17044	0	0.415187836	-0.074604988	0.022760391	0.999558449	0.015702248	0.012592316	0.021827698	10.37969589	-1.865124702	0.569009781	0.785227783	0.629708329	1.091545308	-1.090820313	0.001464844	0.582275391	892.54	-60.14560257	-72.90167408	-139.7488025	-67
17045	0	0.41796875	-0.067749023	0.02722168	0.999432564	-0.005737305	0.014512062	0.029830933	10.44921875	-1.693725586	0.680541992	-0.286919451	0.72574024	1.491828528	-1.095947266	0.071289063	0.579589844	892.66	-61.40444319	-69.10432742	-139.1141419	-66
17046	0	0.294527054	-0.070705414	0.016630173	0.999261856	-0.02165699	0.012753487	0.029040337	7.363176346	-1.767635345	0.415754318	-1.083115883	0.637831199	1.452374026	-1.095703125	0.130126953	0.557861328	892.54	-64.38006692	-65.47666897	-138.5809102	-66
17047	0	0.216125488	-0.092102051	0.029663086	0.999427795	-0.016489983	0.006938934	0.028678894	5.403137207	-2.30255127	0.741577148	-0.824656216	0.347012817	1.434217901	-1.090332031	0.169189453	0.551513672	892.52	-67.50242455	-62.1528317	-137.2110458	-67
17048	0	0.21849823	-0.093140602	0.026099205	0.999667168	0.002472878	0.001825333	0.025594711	5.46245575	-2.328515053	0.652480125	0.123657574	0.091276743	1.279877346	-1.084716797	0.208251953	0.542236328	892.6	-68.80892003	-59.35526605	-135.3934468	-66
17049	0	0.272949219	-0.084228516	0.007629395	0.999713898	0.015625954	0.001167297	0.018043518	6.823730469	-2.105712891	0.190734863	0.78137207	0.058370425	0.902261798	-1.077148438	0.247314453	0.544189453	892.6	-68.0414799	-57.39000144	-134.1965254	-66
17050	0	0.336055756	-0.086071968	-0.003428459	0.999794006	0.018488884	0.00297451	0.007781982	8.40139389	-2.151799202	-0.085711479	0.924507573	0.148735705	0.389125795	-1.083007813	0.273925781	0.556640625	892.64	-65.9701864	-56.44847564	-134.1457387	-69
17051	0	0.428527832	-0.079589844	-0.011291504	0.999929428	0.011223793	0.003517151	-0.001396179	10.7131958	-1.989746094	-0.282287598	0.561202774	0.175861656	-0.069810592	-1.097412109	0.278808594	0.562744141	892.6	-64.02922023	-56.44440708	-134.9389161	-72
17052	0	0.450873375	-0.09717083	0.014463425	0.999933243	-0.004997253	0.000460625	-0.010342598	11.27183437	-2.429270744	0.361585617	-0.249868175	0.023031742	-0.517141289	-1.120605469	0.262207031	0.591064453	892.66	-63.72552346	-57.51482114	-135.9912124	-70
17053	0	0.450195313	-0.127990723	0.046447754	0.999874115	-0.005057335	-0.005054474	-0.01410675	11.25488281	-3.199768066	1.161193848	-0.252877288	-0.25273423	-0.705366931	-1.133300781	0.212890625	0.6328125	892.64	-63.99249727	-59.25666541	-136.3662675	-75
17054	0	0.616651535	-0.130126953	0.021008492	0.999744415	-0.007369041	-0.004696846	-0.020833015	15.41628838	-3.253173828	0.525212288	-0.368483421	-0.234862281	-1.041739398	-1.143310547	0.158935547	0.677490234	892.6	-63.83901943	-61.68301307	-137.5199401	-74
17055	0	0.41015625	-0.145202637	0.080078125	0.999601364	-0.009589195	-0.008598328	-0.025123596	10.25390625	-3.630065918	2.001953125	-0.47952348	-0.429973515	-1.256346749	-1.152832031	0.083251953	0.727050781	892.6	-64.19222556	-64.74989206	-138.361408	-69
17056	0	0.392539978	-0.107841492	0.063144684	0.999732018	-0.01224041	-0.01363945	-0.01410675	9.813499451	-2.696037292	1.578617096	-0.612075064	-0.682033312	-0.705400416	-1.145996094	0.004882813	0.79296875	892.66	-67.28825802	-66.9150105	-136.5150594	-71
17057	0	0.379821777	-0.161315918	0.098327637	0.999801636	-0.005103111	-0.017566681	-0.007797241	9.495544434	-4.032897949	2.458190918	-0.255172382	-0.878391942	-0.389887759	-1.124511719	-0.0390625	0.869384766	892.6	-71.70981042	-68.50475938	-132.3773348	-67
17058	0	0.274637222	-0.159162521	0.090922356	0.999736786	0.011769295	-0.016781807	-0.010222435	6.865930557	-3.979063034	2.273058891	0.588516205	-0.839163735	-0.511166453	-1.092529297	-0.056884766	0.954589844	892.66	-74.34054149	-70.23016968	-128.1319468	-61
17059	0	0.225524902	-0.095336914	0.083190918	0.999855042	0.009400368	-0.012371063	-0.006896973	5.638122559	-2.383422852	2.079772949	0.470041027	-0.618582957	-0.344865244	-1.059570313	-0.042236328	1.036865234	892.58	-76.63826535	-71.3908129	-124.559093	-58
17060	0	0.231962204	-0.11614418	0.105919838	0.999933243	-0.005952835	-0.008812904	-0.004430771	5.799055099	-2.903604507	2.647995949	-0.297648339	-0.440654967	-0.221543445	-1.030761719	-0.036132813	1.108886719	892.64	-80.00293088	-72.12881484	-121.73039	-58
17061	0	0.265686035	-0.147766113	0.094299316	0.999958038	-0.005644798	-0.004268646	-0.005664825	6.642150879	-3.694152832	2.35748291	-0.28224378	-0.213435235	-0.283245151	-1.003662109	-0.04296875	1.179199219	892.64	-81.84248171	-72.87894496	-120.4742611	-58
17062	0	0.325917244	-0.159140587	0.09826088	0.99995327	-0.000806808	-0.000268936	-0.009589195	8.147931099	-3.978514671	2.456521988	-0.040341047	-0.013447016	-0.479467169	-0.983642578	-0.043212891	1.243652344	892.6	-81.47302352	-73.99853545	-120.9492898	-57
17063	0	0.402893066	-0.17767334	0.096008301	0.999919891	0.001763344	0.000270844	-0.012466431	10.07232666	-4.441833496	2.40020752	0.088169521	0.013542533	-0.62333801	-0.968994141	-0.032226563	1.307617188	892.66	-80.28502428	-75.42775854	-121.9633424	-57
17064	0	0.495123863	-0.191384315	0.071336746	0.999890327	0.002200127	0.004156113	-0.014001846	12.37809658	-4.784607887	1.783418655	0.110010333	0.20781319	-0.700117774	-0.952148438	-0.008544922	1.361572266	892.7	-76.77762984	-76.92523675	-125.3065693	-56
17065	0	0.513122559	-0.176452637	0.056152344	0.999923706	-0.003005028	0.006725311	-0.00989151	12.82806396	-4.411315918	1.403808594	-0.150255198	0.336274089	-0.494588039	-0.947265625	0.022216797	1.407226563	892.64	-72.38266864	-77.82816942	-130.1534258	-55
17066	0	0.601102829	-0.255597115	0.103961945	0.99997139	-0.000437737	0.002379417	-0.007092476	15.02757072	-6.389927864	2.599048615	-0.02188703	0.118971984	-0.354627114	-0.947021484	0.055419922	1.447265625	892.6	-69.85775365	-78.51495849	-132.7737771	-56
17067	0	0.451599121	-0.188537598	0.022033691	0.999857903	0.014602661	0.007447243	0.003875732	11.28997803	-4.713439941	0.550842285	0.730167587	0.372379747	0.193795786	-0.946044922	0.134033203	1.469238281	892.7	-65.16096583	-77.77815993	-135.8537544	-57
17068	0	0.364784241	-0.081121445	0.017049789	0.999489784	0.011116982	0.012634277	0.027136803	9.119606018	-2.028036118	0.426244736	0.555943578	0.631821268	1.357070816	-0.961425781	0.278564453	1.458251953	892.66	-63.94334121	-74.34731829	-135.7843607	-56
17069	0	0.393371582	-0.091064453	0.034057617	0.999258041	0.002297401	0.013027191	0.03616333	9.834289551	-2.276611328	0.85144043	0.114898478	0.651520635	1.808613652	-0.960693359	0.448486328	1.415771484	892.66	-65.00038161	-69.9637471	-134.3832554	-55
17070	0	0.320977211	-0.116792679	0.015057564	0.999520302	-0.005083084	0.013502121	0.027371407	8.024430275	-2.919816971	0.376439095	-0.254194775	0.675213813	1.368788786	-0.947265625	0.589599609	1.366455078	892.7	-65.33590621	-66.46803409	-134.6332442	-54
17071	0	0.258422852	-0.072937012	0.00177002	0.999610901	-0.004778862	0.013332367	0.02399826	6.460571289	-1.823425293	0.044250488	-0.238974034	0.66670465	1.200068369	-0.936035156	0.682861328	1.309814453	892.58	-65.34757669	-63.33441565	-135.2149858	-55
17072	0	0.230585098	-0.072546005	0.008301735	0.999624252	-0.0054245	0.009539604	0.025084496	5.764627457	-1.813650131	0.207543373	-0.271258875	0.477039825	1.254381537	-0.914794922	0.755859375	1.245605469	892.58	-66.2901316	-60.2697163	-134.84593	-56
17073	0	0.260437012	-0.082641602	0.003601074	0.999722481	0.00019455	0.00452137	0.023117065	6.510925293	-2.066040039	0.090026855	0.009728378	0.226089409	1.155960191	-0.871826172	0.815185547	1.189941406	892.7	-67.20434614	-57.64003063	-133.7516651	-55
17074	0	0.327987671	-0.087277412	-0.006020546	0.999833107	0.009050369	0.002716064	0.015607834	8.199691772	-2.18193531	-0.150513649	0.452543573	0.135810758	0.780434997	-0.823974609	0.872070313	1.125732422	892.66	-66.7910941	-55.88657471	-133.006843	-56
17075	0	0.421081543	-0.097045898	0.003723145	0.999933243	0.010907173	0.000606537	0.003761292	10.52703857	-2.426147461	0.093078613	0.545370791	0.030327518	0.188068759	-0.785400391	0.920410156	1.062744141	892.6	-65.70031066	-55.48652684	-132.8159495	-57
17076	0	0.454544067	-0.093774796	0.01995945	0.999948502	0.007585526	-0.001795769	-0.006350517	11.36360168	-2.344369888	0.498986244	0.379282666	-0.08978995	-0.317531214	-0.763916016	0.938720703	0.994628906	892.72	-64.65509354	-56.26445349	-133.0308021	-58
17077	0	0.441772461	-0.103881836	0.049865723	0.999923706	0.001820564	-0.003898621	-0.011566162	11.04431152	-2.597045898	1.246643066	0.091030524	-0.194935978	-0.578322785	-0.7578125	0.925048828	0.944091797	892.7	-64.18418421	-57.69076552	-133.3473038	-57
17078	0	0.595476151	-0.092625618	0.017883301	0.999881744	-0.003851891	-0.003321648	-0.014512062	14.88690376	-2.31564045	0.44708252	-0.192602119	-0.166088928	-0.725631704	-0.755859375	0.894287109	0.909667969	892.64	-63.99641951	-59.40231818	-134.0897907	-55
17079	0	0.430908203	-0.107299805	0.070373535	0.999680519	-0.015632629	-0.002104759	-0.019714355	10.77270508	-2.682495117	1.759338379	-0.781714537	-0.105249145	-0.98582253	-0.771728516	0.835693359	0.892333984	892.64	-64.42942696	-61.59558197	-135.6554312	-57
17080	0	0.377388	-0.119315147	0.069505692	0.999491692	-0.025530815	-0.007047653	-0.017719269	9.434700012	-2.982878685	1.737642288	-1.276756902	-0.352442326	-0.886113453	-0.793701172	0.746826172	0.892333984	892.64	-67.16095632	-63.83468926	-135.8857352	-59
17081	0	0.377746582	-0.179199219	0.105957031	0.999612808	-0.018431664	-0.012153625	-0.016899109	9.443664551	-4.479980469	2.648925781	-0.92170195	-0.607759593	-0.845064343	-0.797119141	0.651123047	0.914550781	892.64	-70.5506141	-66.19759738	-134.4932242	-57
17082	0	0.305269241	-0.204167366	0.107493401	0.999692917	0.004668236	-0.013079643	-0.020510674	7.631731033	-5.104184151	2.687335014	0.233435664	-0.654049057	-1.025638576	-0.794189453	0.579101563	0.926025391	892.54	-71.58949577	-68.95638989	-132.8087995	-57
17083	0	0.229675293	-0.128662109	0.085083008	0.999773026	0.007966042	-0.008529663	-0.017822266	5.741882324	-3.216552734	2.127075195	0.398332212	-0.426515421	-0.8911807	-0.794677734	0.537597656	0.915283203	892.52	-71.42762076	-71.24827941	-132.0238605	-60
17084	0	0.24869442	-0.145010948	0.102396965	0.99991703	-0.002512932	-0.004953384	-0.011544228	6.217360497	-3.625273705	2.559924126	-0.125650028	-0.247675995	-0.57722717	-0.794677734	0.493652344	0.895996094	892.6	-72.06900673	-72.72219036	-131.6626042	-55
17085	0	0.270202637	-0.163330078	0.085144043	0.999977112	-0.000357628	0.000385284	-0.006622314	6.755065918	-4.083251953	2.128601074	-0.017881525	0.019264363	-0.331118158	-0.795166016	0.449951172	0.888183594	892.58	-71.14634386	-73.462524	-132.6788997	-63
17086	0	0.300024986	-0.153697968	0.091487885	0.999982834	-0.00032711	0.002322197	-0.005313873	7.500624657	-3.842449188	2.287197113	-0.016355606	0.116110501	-0.265695159	-0.797851563	0.415039063	0.871337891	892.66	-69.57640621	-73.97557834	-134.3604353	-66
17087	0	0.361206055	-0.17956543	0.100280762	0.999979973	-0.002243042	0.000542641	-0.005878448	9.030151367	-4.489135742	2.507019043	-0.112152845	0.027132215	-0.293924378	-0.802978516	0.377929688	0.854736328	892.54	-68.71631539	-74.60610357	-135.5262695	-60
17088	0	0.448522568	-0.190060616	0.083299637	0.999975204	-0.000329971	0.001973152	-0.006656647	11.21306419	-4.751515388	2.082490921	-0.016498699	0.098658402	-0.332835017	-0.805908203	0.336425781	0.843994141	892.64	-66.84256207	-75.24500051	-137.5106485	-60
17089	0	0.485229492	-0.181213379	0.07635498	0.999982834	-0.001814842	0.004138947	-0.003540039	12.1307373	-4.530334473	1.908874512	-0.09074261	0.206948463	-0.177002925	-0.815429688	0.29296875	0.831054688	892.66	-64.69439508	-75.43413166	-139.9506915	-62
17090	0	0.558947563	-0.211112976	0.096989632	0.999987602	-0.004753113	0.000144958	0.000758171	13.97368908	-5.277824402	2.424740791	-0.237656558	0.007247953	0.037908701	-0.832275391	0.252197266	0.826904297	892.66	-65.25635779	-75.35742649	-139.9378293	-74
17091	0	0.502563477	-0.250976563	0.10736084	0.999865532	0.016021729	-0.002146721	0.002731323	12.56408691	-6.274414063	2.684020996	0.801122314	-0.107340853	0.13657228	-0.845214844	0.224365234	0.835449219	892.66	-64.70843905	-75.17994595	-138.6136354	-60
17092	0	0.362747192	-0.104604721	0.023073196	0.99960041	0.01954174	0.005741119	0.019595146	9.06867981	-2.615118027	0.57682991	0.977217152	0.2870942	0.979887796	-0.869873047	0.249023438	0.837646484	892.72	-63.75581183	-72.87335755	-137.2825012	-53
17093	0	0.408813477	-0.068725586	0.032409668	0.999252319	0.004010201	0.01153183	0.03666687	10.22033691	-1.718139648	0.810241699	0.20055997	0.576735114	1.83380017	-0.895751953	0.315429688	0.830810547	892.7	-65.03599179	-68.51619841	-135.4445947	-58
17094	0	0.41139698	-0.108484268	0.016978264	0.999240875	-0.008181572	0.015227318	0.034901619	10.28492451	-2.712106705	0.424456596	-0.409182093	0.761558512	1.745522444	-0.917724609	0.392578125	0.825683594	892.54	-66.09476799	-64.15976262	-135.3139046	-79
17095	0	0.300598145	-0.096679688	0.003295898	0.999382973	-0.013256073	0.014840126	0.028938293	7.514953613	-2.416992188	0.082397461	-0.662939973	0.742158916	1.44721227	-0.941162109	0.456542969	0.807373047	892.6	-67.12854807	-60.45070303	-135.8628111	-66
17096	0	0.238847733	-0.08686924	0.021352768	0.999490738	-0.009710312	0.007826805	0.029346466	5.971193314	-2.171730995	0.533819199	-0.485597908	0.391406603	1.467572071	-0.957275391	0.513671875	0.795166016	892.6	-68.92901241	-57.00842347	-135.060902	-69
17097	0	0.240905762	-0.101013184	0.01550293	0.999662399	-0.001471519	0.001094818	0.025882721	6.022644043	-2.52532959	0.387573242	-0.073584232	0.05474705	1.294281311	-0.945800781	0.578857422	0.786132813	892.6	-70.4203957	-54.19806222	-133.4609908	-73
17098	0	0.262321472	-0.102173805	0.007256508	0.999786377	0.009425163	-0.000401497	0.018377304	6.558036804	-2.554345131	0.181412697	0.471291686	-0.020076272	0.918930566	-0.922607422	0.641357422	0.774169922	892.64	-70.33765578	-52.24837638	-132.2193293	-63
17099	0	0.314086914	-0.095275879	0.008972168	0.999866486	0.013627052	-0.000469208	0.008987427	7.852172852	-2.381896973	0.224304199	0.681382904	-0.023461431	0.449391314	-0.901123047	0.697265625	0.754150391	892.54	-69.28750523	-51.32461981	-131.5719628	-65
17100	0	0.392744064	-0.096619606	0.014318466	0.999966621	0.007950783	-0.000322342	-0.001289368	9.818601608	-2.41549015	0.357961655	0.397543444	-0.016117271	-0.064469082	-0.885986328	0.733642578	0.73046875	892.6	-68.3503129	-51.50815025	-131.6076695	-63
17101	0	0.454956055	-0.130187988	0.026184082	0.999905586	-0.000148773	0.000439644	-0.013687134	11.37390137	-3.254699707	0.654602051	-0.007438892	0.02198288	-0.684378083	-0.885986328	0.739990234	0.712890625	892.6	-67.54514113	-52.9838734	-132.6472899	-55
17102	0	0.446746826	-0.141094208	0.035380363	0.999787331	-0.001197815	-0.00053978	-0.020578384	11.16867065	-3.527355194	0.884509087	-0.059894992	-0.026990896	-1.028992149	-0.903320313	0.709960938	0.704833984	892.66	-66.48675952	-55.2269909	-134.1235388	-54
17103	0	0.566894531	-0.157470703	0.056884766	0.999554634	-0.008705139	-0.002635002	-0.028404236	14.17236328	-3.936767578	1.422119141	-0.435321512	-0.131769647	-1.420422428	-0.924316406	0.660400391	0.690185547	892.6	-65.89343033	-58.38365967	-136.0236974	-56
17104	0	0.392110825	-0.185535431	0.104113579	0.999379158	-0.011160851	-0.00957489	-0.032011032	9.802770615	-4.638385773	2.60283947	-0.558158008	-0.478843578	-1.600882824	-0.953857422	0.582763672	0.697998047	892.64	-66.31553981	-62.23881993	-137.0134149	-54
17105	0	0.331359863	-0.14263916	0.081420898	0.999634743	-0.011405945	-0.013468742	-0.020465851	8.283996582	-3.565979004	2.035522461	-0.570366684	-0.67351912	-1.023417143	-0.967041016	0.500488281	0.725585938	892.66	-68.67555446	-65.05210795	-135.8500856	-51
17106	0	0.370014191	-0.189825058	0.117241859	0.999830246	-0.000529289	-0.015189171	-0.010404587	9.250354767	-4.74562645	2.931046486	-0.026465959	-0.759501489	-0.520258758	-0.960693359	0.450195313	0.743408203	892.6	-71.47527754	-66.81926955	-132.8651608	-51
17107	0	0.321411133	-0.165039063	0.090454102	0.999840736	0.00933075	-0.009837151	-0.01153183	8.03527832	-4.125976563	2.261352539	0.466562113	-0.491883504	-0.576621942	-0.948486328	0.432373047	0.758544922	892.66	-71.98495427	-68.47698032	-131.1661208	-52
17108	0	0.266537666	-0.104941368	0.072504997	0.99993515	-0.005332947	-0.000967979	-0.010004044	6.663441658	-2.623534203	1.812624931	-0.266653092	-0.048400016	-0.500212972	-0.945556641	0.419189453	0.753662109	892.66	-71.92088974	-69.64872029	-131.8901087	-52
17109	0	0.284484863	-0.161254883	0.093505859	0.999844551	-0.015533447	0.001973152	-0.00799942	7.112121582	-4.03137207	2.337646484	-0.77671239	0.098662692	-0.399991621	-0.950927734	0.382080078	0.745605469	892.6	-72.29912992	-70.49427965	-133.382637	-53
17110	0	0.285408974	-0.178487778	0.07403183	0.999952316	-0.005871773	0.003111839	-0.007118225	7.135224342	-4.462194443	1.850795746	-0.293593279	0.155594424	-0.35591688	-0.9609375	0.343261719	0.746582031	892.64	-71.2238204	-71.19456665	-135.236596	-55
17111	0	0.304199219	-0.161193848	0.074279785	0.999974251	0.00025177	0.0029459	-0.006454468	7.604980469	-4.029846191	1.856994629	0.012588607	0.147296236	-0.3227261	-0.968994141	0.323730469	0.720214844	892.6	-69.45540813	-71.80995635	-137.0743286	-57
17112	0	0.347425461	-0.162484169	0.069689751	0.999980927	-0.00233078	0.001826286	-0.005393982	8.68563652	-4.062104225	1.742243767	-0.116539737	0.091314892	-0.269700799	-0.975097656	0.308349609	0.707519531	892.72	-68.38110834	-72.3397178	-138.4861877	-57
17113	0	0.398498535	-0.177307129	0.060852051	0.999977112	-0.003046989	0.002796173	-0.005195618	9.962463379	-4.432678223	1.52130127	-0.152350592	0.139809682	-0.259782793	-0.985839844	0.291259766	0.689453125	892.72	-67.01476247	-72.79338278	-140.2862809	-55
17114	0	0.428991318	-0.183695793	0.066325188	0.999985695	-0.001512527	0.00179863	-0.004622459	10.72478294	-4.592394829	1.658129692	-0.075626712	0.089931891	-0.231124006	-0.991455078	0.271728516	0.668701172	892.64	-65.82398162	-73.21689546	-141.7151559	-57
17115	0	0.491271973	-0.181518555	0.057495117	0.999991417	-0.003932953	-0.000666618	-0.000961304	12.28179932	-4.537963867	1.43737793	-0.196648196	-0.033331011	-0.04806532	-0.999755859	0.254394531	0.653320313	892.66	-66.30864861	-73.36652988	-141.6828234	-66
17116	0	0.536811829	-0.232468605	0.081437111	0.999965668	0.007961273	-0.002169609	-0.000315666	13.42029572	-5.811715126	2.035927773	0.398068184	-0.108481686	-0.015783489	-1.003662109	0.241210938	0.640380859	892.54	-66.06615358	-73.51357274	-140.9884354	-65
17117	0	0.375549316	-0.114746094	0.032958984	0.99985218	0.013896942	0.001915932	0.009887695	9.38873291	-2.868652344	0.823974609	0.694881224	0.095801289	0.49440904	-1.005859375	0.247558594	0.614501953	892.58	-65.30185246	-72.40362059	-140.1276675	-69
17118	0	0.379133224	-0.078315735	0.047917366	0.999715805	0.001515388	0.00314045	0.023581505	9.478330612	-1.957893372	1.197934151	0.075776602	0.157037351	1.179186937	-1.006591797	0.273681641	0.583740234	892.72	-67.30163452	-69.79835531	-137.8363638	-67
17119	0	0.454650879	-0.114562988	0.031005859	0.999731064	-0.000914574	0.005821228	0.022403717	11.36627197	-2.864074707	0.775146484	-0.045732775	0.291087441	1.120286067	-0.998291016	0.3125	0.563232422	892.7	-68.27396186	-67.18610798	-136.90844	-57
17120	0	0.360667229	-0.08852005	0.006149292	0.99982357	-0.001826286	0.009843826	0.015871048	9.016680717	-2.213001251	0.1537323	-0.091319676	0.492220205	0.793598978	-0.994384766	0.338378906	0.53515625	892.66	-67.6407966	-65.09675269	-137.8334019	-54
17121	0	0.293457031	-0.079223633	0.031311035	0.999850273	-0.002063751	0.006299019	0.015968323	7.336425781	-1.98059082	0.782775879	-0.103192703	0.314966636	0.798455921	-0.996582031	0.349121094	0.503173828	892.66	-67.9073175	-63.15163628	-137.805291	-54
17122	0	0.277874947	-0.093514442	0.029275894	0.999874115	0.002253532	0.000100136	0.015704155	6.946873665	-2.337861061	0.731897354	0.112681348	0.005007	0.785240693	-0.992431641	0.364257813	0.493164063	892.64	-68.87626094	-61.4976911	-136.4253796	-54
17123	0	0.293640137	-0.096313477	0.011535645	0.99985981	0.009254456	-0.001376152	0.013866425	7.341003418	-2.407836914	0.288391113	0.462744361	-0.068810811	0.693353566	-0.983642578	0.383544922	0.48828125	892.66	-69.08734211	-60.09699386	-134.9750476	-55
17124	0	0.323087692	-0.086026192	0.013130188	0.999899864	0.008048058	6.29E-05	0.011621475	8.077192307	-2.150654793	0.3282547	0.402416281	0.00314723	0.581093116	-0.974853516	0.400634766	0.477783203	892.6	-68.95471183	-58.88097937	-134.0656175	-56
17125	0	0.344787598	-0.094360352	0.015197754	0.999974251	-0.000835419	0.001442909	0.006885529	8.619689941	-2.359008789	0.379943848	-0.041771284	0.072146066	0.344279308	-0.970458984	0.406982422	0.474121094	892.66	-69.25237026	-58.11932177	-133.836092	-55
17126	0	0.370573997	-0.105041504	0.00865078	0.999949455	-0.008752823	0.003868103	0.002801895	9.264349937	-2.626037598	0.216269493	-0.437648396	0.193408356	0.140097079	-0.974609375	0.396240234	0.475341797	892.64	-69.76992374	-57.70278417	-134.4172441	-60
17127	0	0.383483887	-0.134216309	0.043151855	0.999926567	-0.01121521	0.002892494	-0.003364563	9.587097168	-3.355407715	1.078796387	-0.560774094	0.144628217	-0.168232228	-0.983154297	0.370361328	0.486328125	892.6	-70.34739306	-57.99519961	-135.260885	-63
17128	0	0.392912865	-0.140028954	0.052640915	0.999911308	-0.010272026	0.000833511	-0.008364677	9.822821617	-3.500723839	1.316022873	-0.513616385	0.041676791	-0.418246153	-0.99609375	0.338134766	0.501220703	892.66	-70.85485811	-58.91394771	-136.0532941	-66
17129	0	0.545959473	-0.164855957	0.039855957	0.999712944	-0.015563965	0.004181862	-0.017684937	13.64898682	-4.121398926	0.996398926	-0.778272512	0.209113049	-0.884331217	-1.008300781	0.288574219	0.517333984	892.66	-70.70776427	-60.72261553	-138.2896521	-60
17130	0	0.356461525	-0.180195808	0.065664291	0.999621391	-0.014862061	0.005996704	-0.022363663	8.911538124	-4.50489521	1.641607285	-0.743196811	0.299873046	-1.118324257	-1.026611328	0.219482422	0.532470703	892.6	-69.56524059	-62.95190057	-141.5185333	-53
17131	0	0.295898438	-0.153930664	0.101989746	0.999779701	-0.01587677	-0.002589226	-0.013469696	7.397460938	-3.848266602	2.549743652	-0.793896755	-0.129470789	-0.673534224	-1.042480469	0.147949219	0.536376953	892.8	-70.87082532	-64.55385145	-142.0996353	-54
17132	0	0.390820503	-0.211071014	0.107632637	0.999912262	-0.000740051	-0.010926247	-0.007422447	9.770512581	-5.27677536	2.690815926	-0.037003643	-0.54632827	-0.371133187	-1.041015625	0.104492188	0.5625	892.66	-72.93324168	-65.79751769	-139.9299758	-52
17133	0	0.393981934	-0.21472168	0.066040039	0.999743462	0.018566132	-0.006621361	-0.011131287	9.84954834	-5.368041992	1.651000977	0.928385883	-0.331096321	-0.556611877	-1.033935547	0.084716797	0.600830078	892.66	-71.55107463	-67.28672011	-139.1220698	-51
17134	0	0.339256287	-0.132047653	0.080038071	0.999818802	0.017971992	-0.00247097	-0.005700111	8.481407166	-3.30119133	2.000951767	0.898653787	-0.123555955	-0.285022748	-1.029296875	0.082519531	0.617919922	892.66	-69.58380741	-68.0382942	-139.0252902	-57
17135	0	0.312866211	-0.110961914	0.079528809	0.99998188	-0.002410889	-0.002280235	0.004871368	7.821655273	-2.774047852	1.988220215	-0.120545132	-0.114012425	0.243569831	-1.029785156	0.084960938	0.631835938	892.6	-70.89467397	-67.64151596	-137.9098684	-60
17136	0	0.311215401	-0.157528877	0.07698822	0.999944687	-0.004571915	-0.001366615	0.009295464	7.780385017	-3.938221931	1.924705505	-0.228599893	-0.068332008	0.464781636	-1.025634766	0.089111328	0.651367188	892.64	-72.53444413	-66.71673193	-136.700334	-64
17137	0	0.32019043	-0.154663086	0.07800293	0.999966621	0.003925323	-0.000582695	0.007053375	8.004760742	-3.866577148	1.950073242	0.196268317	-0.029135068	0.352672612	-1.01953125	0.104492188	0.666748047	892.72	-72.74889737	-66.00062036	-135.9749259	-54
17138	0	0.32796669	-0.145249367	0.080207825	0.999980927	0.004452705	-0.001416206	0.004038811	8.199167252	-3.631234169	2.005195618	0.222636685	-0.070810768	0.20194182	-1.020263672	0.119873047	0.679931641	892.6	-72.85448182	-65.64052614	-135.2986442	-52
17139	0	0.331420898	-0.150695801	0.075622559	0.999977112	0.004940987	-0.000808716	0.004417419	8.285522461	-3.76739502	1.890563965	0.247051167	-0.040436091	0.220872613	-1.016601563	0.130859375	0.701416016	892.64	-72.7731768	-65.21699608	-134.7635696	-52
17140	0	0.341795921	-0.146437645	0.076625824	0.999978065	0.002802849	-0.000614166	0.005860329	8.544898033	-3.660941124	1.915645599	0.140143435	-0.030708531	0.293018513	-1.010498047	0.150390625	0.713867188	892.66	-72.98075992	-64.6278399	-134.1767342	-51
17141	0	0.366821289	-0.171386719	0.084838867	0.999987602	0.002292633	-0.002791405	0.003421783	9.170532227	-4.284667969	2.12097168	0.114632126	-0.139570812	0.171089878	-1.009033203	0.161376953	0.729980469	892.58	-73.55799398	-64.37519396	-133.2431528	-49
17142	0	0.381796837	-0.187433243	0.07867527	0.999965668	0.007180214	-0.003676414	-0.00174427	9.544920921	-4.68583107	1.966881752	0.359014772	-0.183822811	-0.087214506	-0.998291016	0.174072266	0.750976563	892.66	-73.42423116	-64.71606411	-132.4758449	-47
17143	0	0.376342773	-0.17175293	0.074035645	0.999952316	0.00855732	-0.002719879	-0.003772736	9.408569336	-4.293823242	1.850891113	0.427872747	-0.135996108	-0.188639762	-0.991699219	0.180664063	0.767333984	892.6	-72.7707642	-65.24896393	-132.1108783	-48
17144	0	0.421415329	-0.172389984	0.066616058	0.999977112	0.004339218	-0.002135277	-0.0045681	10.53538322	-4.309749603	1.665401459	0.216962507	-0.106764627	-0.228406684	-0.987548828	0.187255859	0.783691406	892.54	-72.39814302	-65.85018719	-131.9693909	-47
17145	0	0.487609863	-0.188842773	0.059326172	0.99991703	0.007968903	-0.001856804	-0.009857178	12.19024658	-4.721069336	1.483154297	0.398456029	-0.092842734	-0.492872369	-0.983154297	0.185058594	0.800537109	892.64	-71.0913892	-67.01834485	-132.3942709	-47
17146	0	0.4077425	-0.144637108	0.038949966	0.999882698	0.011770248	-0.000823975	-0.009734154	10.19356251	-3.615927696	0.973749161	0.588535372	-0.041200337	-0.486726669	-0.983154297	0.182861328	0.809326172	892.66	-68.98786354	-68.12801834	-133.20783	-48
17147	0	0.331604004	-0.105285645	0.037963867	0.99995327	0.009494781	-0.000182152	-0.001277924	8.290100098	-2.632141113	0.94909668	0.47474634	-0.009107729	-0.063897157	-0.98828125	0.189697266	0.812011719	892.6	-67.76494891	-68.30089102	-133.3522453	-48
17148	0	0.329162598	-0.089637756	0.038094521	0.999947548	0.008107185	-0.00164032	0.005887985	8.229064941	-2.240943909	0.952363014	0.405366233	-0.0820174	0.29440432	-0.989257813	0.211425781	0.818603516	892.66	-67.852518	-67.77718457	-132.2558015	-47
17149	0	0.398193359	-0.078979492	0.020629883	0.999951363	0.006748199	-0.00127697	0.007034302	9.954833984	-1.974487305	0.51574707	0.337415409	-0.063849524	0.351720754	-0.979248047	0.243896484	0.829833984	892.64	-68.09165467	-67.11831728	-131.1574264	-48
17150	0	0.403546333	-0.071312904	0.012404442	0.999991417	0.001319885	0.001178741	0.003721237	10.08865833	-1.782822609	0.310111046	0.065994449	0.05893724	0.186062386	-0.970947266	0.272216797	0.829833984	892.66	-67.98284438	-66.70989644	-131.1065889	-48
17151	0	0.372375488	-0.082336426	0.015380859	0.999998093	8.49E-05	1.91E-05	0.001419067	9.309387207	-2.058410645	0.384521484	0.004243852	0.000953675	0.070953393	-0.971435547	0.281005859	0.837646484	892.66	-68.07482144	-66.59870478	-130.9923278	-48
17152	0	0.357555389	-0.103305817	0.026580811	0.999954224	0.008775711	-0.003624916	-0.00100708	8.938884735	-2.582645416	0.664520264	0.43879222	-0.181248558	-0.050354769	-0.967529297	0.291748047	0.842285156	892.7	-67.83277184	-66.90346737	-130.1604883	-48
17153	0	0.352966309	-0.082946777	0.023071289	0.999868393	0.014912605	-0.006000519	-0.002189636	8.824157715	-2.073669434	0.576782227	0.745662975	-0.300039102	-0.109486614	-0.958984375	0.311035156	0.843017578	892.7	-67.37803078	-67.44150445	-128.8006164	-48
17154	0	0.36873436	-0.073586464	0.019227982	0.999934196	0.010677338	-0.004112244	-0.000362396	9.218358994	-1.839661598	0.480699539	0.533878543	-0.205616674	-0.018120208	-0.948242188	0.334716797	0.849121094	892.72	-67.14277106	-67.70871297	-127.7307508	-47
17155	0	0.383117676	-0.056762695	0.012329102	0.999992371	0.000973701	-0.000534058	0.003559113	9.577941895	-1.419067383	0.308227539	0.048685187	-0.026702943	0.17795604	-0.9375	0.354003906	0.849853516	892.6	-67.52571205	-67.40639033	-127.1927946	-47
17156	0	0.378026009	-0.077410698	0.025805473	0.99995327	-0.00852108	0.000717163	0.004405975	9.450650215	-1.935267448	0.645136833	-0.426060572	0.035858707	0.220302165	-0.932861328	0.358398438	0.849121094	892.66	-68.74746313	-66.96019783	-126.923283	-47
17157	0	0.364318848	-0.1015625	0.034667969	0.999976158	-0.006519318	-0.000781059	0.001934052	9.107971191	-2.5390625	0.866699219	-0.325968427	-0.039053268	0.096703331	-0.928222656	0.3515625	0.855224609	892.66	-69.85609812	-66.83869174	-126.5290893	-47
17158	0	0.371762276	-0.112305641	0.038493156	0.999995232	-0.002624512	-0.001037598	0.000132561	9.294056892	-2.807641029	0.962328911	-0.131225761	-0.051879952	0.006628045	-0.918701172	0.344726563	0.860839844	892.64	-70.41380991	-66.91975751	-126.2498189	-47
17159	0	0.386169434	-0.12322998	0.039611816	0.999999046	0.000205994	4.67E-05	-0.000930786	9.65423584	-3.080749512	0.99029541	0.010299684	0.002336502	-0.046539314	-0.918457031	0.342529297	0.858154297	892.6	-70.27741889	-67.07376882	-126.3736397	-46
17160	0	0.394271851	-0.125041962	0.045069695	0.999996185	-0.001764297	0.000756264	-0.001526833	9.856796265	-3.126049042	1.126742363	-0.088214963	0.037813225	-0.076341706	-0.918457031	0.340332031	0.858398438	892.6	-70.12800445	-67.26470004	-126.7548124	-46
17161	0	0.381286621	-0.120605469	0.053833008	0.999972343	-0.007400513	5.05E-05	0.000282288	9.532165527	-3.015136719	1.345825195	-0.370029017	0.00252726	0.014114509	-0.915527344	0.331542969	0.856201172	892.64	-70.96991586	-67.28801535	-126.7610361	-46
17162	0	0.35014534	-0.121295929	0.061235428	0.999941826	-0.010282516	-0.000881195	0.002914429	8.753633499	-3.032398224	1.530885696	-0.514135679	-0.044060598	0.145724229	-0.915283203	0.318603516	0.862792969	892.64	-72.60393705	-67.05754352	-126.2674999	-46
17163	0	0.355163574	-0.13885498	0.066345215	0.999975204	-0.006659508	-0.000823975	0.001670837	8.879089355	-3.471374512	1.658630371	-0.332978041	-0.041199059	0.083542536	-0.909912109	0.305175781	0.866455078	892.6	-73.68940522	-66.95573227	-125.9194529	-46
17164	0	0.370502472	-0.136875153	0.064107895	0.999996185	-0.000703812	0.000199318	-0.002280235	9.262561798	-3.421878815	1.602697372	-0.035190616	0.009965906	-0.114011873	-0.907470703	0.298583984	0.872558594	892.48	-73.51940022	-67.25323386	-126.191703	-46
17165	0	0.380615234	-0.14050293	0.061096191	0.999984741	-0.000472069	0.001426697	-0.005302429	9.515380859	-3.512573242	1.527404785	-0.023603559	0.0713352	-0.265122802	-0.909423828	0.292236328	0.864746094	892.6	-72.73992597	-67.83959139	-127.0924246	-46
17166	0	0.379840851	-0.141907692	0.057768822	0.99998188	-0.001752853	0.002254486	-0.005117416	9.496021271	-3.547692299	1.444220543	-0.087643171	0.112724949	-0.255872284	-0.915771484	0.279296875	0.86328125	892.64	-71.85169128	-68.37072072	-128.2651825	-46
17167	0	0.364013672	-0.143310547	0.059082031	0.999984741	-0.003764153	0.002216339	-0.003181458	9.100341797	-3.582763672	1.477050781	-0.188208542	0.110817495	-0.15907365	-0.922363281	0.266357422	0.858886719	892.7	-71.34043857	-68.68564034	-129.2776354	-46
17168	0	0.358485222	-0.14712429	0.055464745	0.999992371	-0.002721786	0.002224922	-0.00148201	8.962130547	-3.678107262	1.386618614	-0.136089655	0.111246379	-0.074100674	-0.928710938	0.255615234	0.857421875	892.66	-70.85069244	-68.81076092	-130.1380155	-46
17169	0	0.356689453	-0.140869141	0.0546875	0.999996185	-0.001219749	0.002082825	-0.001224518	8.917236328	-3.521728516	1.3671875	-0.060987547	0.104141362	-0.061225966	-0.933105469	0.247070313	0.858398438	892.6	-70.24551805	-68.90879965	-130.9369789	-46
17170	0	0.361152649	-0.139560699	0.051515579	0.999994278	-0.001254082	0.002430916	-0.001590729	9.028816223	-3.489017487	1.287889481	-0.062704191	0.121545994	-0.079536571	-0.939941406	0.242919922	0.859130859	892.76	-69.50224633	-69.0276381	-131.8863209	-46
17171	0	0.370544434	-0.137329102	0.047851563	0.99998951	-0.00271225	0.00301075	-0.001834869	9.26361084	-3.433227539	1.196289063	-0.135612935	0.150537987	-0.091743772	-0.944335938	0.238525391	0.854003906	892.6	-68.72863576	-69.14323863	-133.0453834	-46
17172	0	0.363712311	-0.139714241	0.044884682	0.999978065	-0.005511284	0.003383636	-0.001140594	9.09280777	-3.492856026	1.122117043	-0.275566174	0.16918304	-0.057030134	-0.950683594	0.227783203	0.846679688	892.7	-68.24187128	-69.16319431	-134.2409861	-46
17173	0	0.370788574	-0.153381348	0.046508789	0.999988556	-0.003592491	0.002700806	-0.001266479	9.269714355	-3.834533691	1.162719727	-0.17962521	0.135040774	-0.063324205	-0.959472656	0.217285156	0.842285156	892.64	-67.7108666	-69.22022123	-135.249487	-46
17174	0	0.366176605	-0.15050602	0.043495178	0.999997139	0.000520706	0.001123428	-0.001830101	9.154415131	-3.76265049	1.087379456	0.02603533	0.056171463	-0.091505125	-0.963867188	0.208496094	0.837402344	892.64	-67.07994864	-69.40104746	-135.861664	-46
17175	0	0.365234375	-0.144104004	0.045593262	0.999998093	0.001000404	-4.20E-05	-0.001052856	9.130859375	-3.602600098	1.139831543	0.050020235	-0.002098084	-0.052642841	-0.966064453	0.206542969	0.840576172	892.66	-66.80944207	-69.54911088	-136.0290617	-46
17176	0	0.369997978	-0.144142151	0.049818039	0.999999046	0.000790596	-0.000278473	0.000457764	9.249949455	-3.603553772	1.245450974	0.039529806	-0.013923647	0.022888187	-0.963867188	0.206542969	0.840576172	892.66	-66.81332724	-69.54718195	-135.929333	-46
17177	0	0.362731934	-0.136291504	0.053466797	0.999998093	-6.39E-05	-0.0001297	0.001754761	9.06829834	-3.407287598	1.336669922	-0.003194811	-0.006484989	0.087738082	-0.963867188	0.208740234	0.840332031	892.6	-67.02971164	-69.40054365	-135.7072916	-46
17178	0	0.361282349	-0.139338493	0.05603981	0.999997139	-0.001199722	-0.000219345	0.001758575	9.032058716	-3.483462334	1.400995255	-0.05998616	-0.010967263	0.087928839	-0.963867188	0.210693359	0.837402344	892.6	-67.39902911	-69.25571915	-135.4607546	-46
17179	0	0.360046387	-0.149108887	0.059570313	0.999997139	0.001815796	-0.000952721	0.000530243	9.001159668	-3.727722168	1.489257813	0.090789863	-0.047636068	0.026512166	-0.961669922	0.212890625	0.83984375	892.66	-67.48369571	-69.27099366	-135.1491456	-46
17180	0	0.364092827	-0.143975258	0.057749748	0.999985695	0.005148888	-0.001041412	-0.000431061	9.102320671	-3.599381447	1.443743706	0.257445574	-0.052070859	-0.021553139	-0.959472656	0.219482422	0.836425781	892.64	-67.10058958	-69.39071797	-134.9296884	-46
17181	0	0.361755371	-0.134399414	0.057678223	0.999988556	0.004513741	-0.000808716	0.000209808	9.043884277	-3.359985352	1.441955566	0.22568782	-0.040435933	0.010490454	-0.957763672	0.228027344	0.838378906	892.64	-66.80131292	-69.43189379	-134.6982043	-46
17182	0	0.365633965	-0.135267258	0.056477547	0.999998093	0.00142765	-0.000323296	0.001091003	9.140849113	-3.381681442	1.411938667	0.071382562	-0.016164789	0.054550201	-0.957763672	0.232421875	0.838134766	892.64	-66.82588275	-69.35759515	-134.4987324	-46
17183	0	0.369873047	-0.136535645	0.057617188	0.999998093	0.001049995	-0.000400543	0.001335144	9.246826172	-3.413391113	1.440429688	0.052499798	-0.020027171	0.066757236	-0.953369141	0.238769531	0.834472656	892.6	-66.94388409	-69.26004044	-134.2453898	-46
17184	0	0.366209984	-0.132629395	0.059309959	0.999998093	3.05E-05	-0.000460625	0.001560211	9.155249596	-3.315734863	1.482748985	0.00152588	-0.023031245	0.078010594	-0.955810547	0.243164063	0.831298828	892.54	-67.21963755	-69.14031748	-133.9483843	-46
17185	0	0.362182617	-0.133972168	0.061157227	0.999997139	-0.000602722	-0.000197411	0.001865387	9.05456543	-3.349304199	1.528930664	-0.030136128	-0.009870536	0.093269408	-0.951416016	0.245361328	0.836669922	892.58	-67.52639778	-68.97528055	-133.6953559	-46
17186	0	0.365073204	-0.131989479	0.059267044	0.999997139	-0.00075531	7.63E-05	0.001945496	9.126830101	-3.299736977	1.481676102	-0.03776553	0.0038147	0.097274851	-0.951416016	0.247558594	0.833740234	892.6	-67.77999875	-68.78874307	-133.5180556	-46
17187	0	0.362670898	-0.13104248	0.05847168	0.999997139	-0.00100708	0.000271797	0.001670837	9.066772461	-3.276062012	1.461791992	-0.050354036	0.013589868	0.083541924	-0.946777344	0.249511719	0.833251953	892.6	-67.97504686	-68.62212344	-133.4341171	-46
17188	0	0.362800598	-0.134754181	0.058519363	0.999999046	-0.000676155	0.000118256	0.000742912	9.070014954	-3.368854523	1.462984085	-0.03380776	0.005912782	0.037145621	-0.94921875	0.249511719	0.836181641	892.58	-68.07051211	-68.55997495	-133.4164666	-46
17189	0	0.361755371	-0.136535645	0.058166504	0.999999046	-0.000160217	9.25E-05	-2.67E-05	9.043884277	-3.413391113	1.454162598	-0.008010864	0.00462532	-0.001335144	-0.946777344	0.249511719	0.836181641	892.64	-68.02963826	-68.58003228	-133.4816757	-46
17190	0	0.362056732	-0.137207031	0.057333946	0.999999046	-0.000289917	0.000141144	-0.000416756	9.051418304	-3.430175781	1.433348656	-0.01449585	0.00705719	-0.020837785	-0.94921875	0.249511719	0.833251953	892.64	-67.94755086	-68.63872446	-133.6072132	-46
17191	0	0.364624023	-0.139160156	0.057006836	0.999999046	-0.000896454	0.000355721	-0.000511169	9.115600586	-3.479003906	1.425170898	-0.044822702	0.01778603	-0.025558477	-0.948974609	0.245117188	0.830810547	892.64	-67.86584605	-68.69739997	-133.8071793	-46
17192	0	0.36265564	-0.143345833	0.055786133	0.999999046	-0.000834465	0.000320435	-0.000554085	9.066390991	-3.583645821	1.39465332	-0.041723259	0.016021731	-0.027704244	-0.951171875	0.245361328	0.833740234	892.6	-67.78169055	-68.76112182	-134.0017584	-46
17193	0	0.364196777	-0.144226074	0.055480957	0.999999046	-0.000289917	0.000252724	-0.000743866	9.104919434	-3.605651855	1.387023926	-0.014495851	0.012636186	-0.037193303	-0.953613281	0.243164063	0.834228516	892.58	-67.63206436	-68.84683663	-134.1998053	-46
17194	0	0.362067223	-0.146773338	0.057225227	0.999999046	-0.00018692	4.58E-05	-0.000691414	9.051680565	-3.669333458	1.430630684	-0.009346009	0.002288819	-0.034570697	-0.953369141	0.238769531	0.831542969	892.6	-67.53274332	-68.93477068	-134.3315504	-46
17195	0	0.362121582	-0.146362305	0.056762695	0.999999046	0.000137329	-6.01E-05	-0.000358582	9.053039551	-3.659057617	1.419067383	0.006866455	-0.003004074	-0.017929078	-0.953369141	0.240966797	0.828613281	892.64	-67.46334387	-68.99095803	-134.3911627	-46
17196	0	0.364612579	-0.145353317	0.056635857	0.999999046	0.000182152	0.000102997	4.48E-05	9.115314484	-3.633832932	1.415896416	0.00910759	0.005149841	0.002241135	-0.955810547	0.238769531	0.834472656	892.6	-67.39057392	-68.99627997	-134.4491458	-46
17197	0	0.364562988	-0.144714355	0.05670166	0.999999046	5.72E-05	0.000248909	0.000221252	9.114074707	-3.617858887	1.417541504	0.002861023	0.01244545	0.011062622	-0.953369141	0.238769531	0.834472656	892.58	-67.31294451	-68.97554733	-134.527663	-46
17198	0	0.363006592	-0.144197464	0.055920601	0.999999046	-0.000238419	9.54E-05	0.000792503	9.075164795	-3.6049366	1.398015022	-0.01192093	0.004768372	0.039625172	-0.955566406	0.238769531	0.831787109	892.64	-67.37781384	-68.90028779	-134.4900699	-46
17199	0	0.363098145	-0.144042969	0.056274414	0.999999046	0.000205994	-6.01E-05	0.001022339	9.077453613	-3.601074219	1.406860352	0.010299684	-0.003004075	0.051116953	-0.955810547	0.240966797	0.831542969	892.76	-67.46072094	-68.80669421	-134.3785263	-46
17200	0	0.362634659	-0.140489578	0.056348801	0.999999046	0.000441551	-0.000154495	0.000873566	9.06586647	-3.512239456	1.408720016	0.022077564	-0.007724763	0.043678291	-0.951171875	0.243164063	0.833984375	892.54	-67.52526004	-68.73230386	-134.2575697	-46
17201	0	0.360778809	-0.141967773	0.05682373	0.999999046	0.000545502	-0.000277519	0.000720978	9.019470215	-3.549194336	1.420593262	0.02727509	-0.013875963	0.036048895	-0.953613281	0.245361328	0.833984375	892.6	-67.59403632	-68.67870481	-134.1194012	-46
17202	0	0.36274147	-0.142003059	0.055616379	0.999999046	0.001049042	-0.00028038	0.000845909	9.068536758	-3.550076485	1.39040947	0.052452104	-0.014019017	0.042295469	-0.953613281	0.247558594	0.828125	892.6	-67.61988071	-68.6113469	-133.9655089	-46
17203	0	0.36328125	-0.141662598	0.055786133	0.999999046	0.000995636	-0.00039959	0.000621796	9.08203125	-3.541564941	1.39465332	0.049781812	-0.019979482	0.031089791	-0.951660156	0.251708984	0.833251953	892.64	-67.65915714	-68.57236072	-133.8035248	-46
17204	0	0.364735603	-0.141640663	0.054981232	0.999999046	0.000662804	-0.000427246	0.000545502	9.118390083	-3.541016579	1.374530792	0.033140188	-0.021362308	0.02727509	-0.951660156	0.251708984	0.833251953	892.64	-67.73578715	-68.54213153	-133.6426052	-46
17205	0	0.360290527	-0.141113281	0.055603027	0.999999046	0.000675201	-0.000552177	0.000442505	9.007263184	-3.527832031	1.390075684	0.033760076	-0.027608876	0.022125248	-0.947021484	0.256103516	0.832763672	892.6	-67.83347462	-68.52762874	-133.4573031	-46
17206	0	0.362913132	-0.141541481	0.056490898	0.999999046	0.00078392	-0.000589371	0.000189781	9.072828293	-3.538537025	1.412272453	0.039196021	-0.029468541	0.009489061	-0.94921875	0.256103516	0.830078125	892.52	-67.9012052	-68.54096966	-133.2911059	-46
17207	0	0.362976074	-0.140930176	0.055480957	0.999999046	0.000904083	-0.000693321	-0.000213623	9.074401855	-3.523254395	1.387023926	0.045204173	-0.034666069	-0.010681155	-0.947265625	0.260498047	0.832275391	892.6	-67.9396763	-68.60113226	-133.1413615	-46
17208	0	0.360001564	-0.140857697	0.05627346	0.999999046	0.000613213	-0.000551224	-0.000434875	9.000039101	-3.521442413	1.40683651	0.030660634	-0.027561192	-0.021743778	-0.944824219	0.260253906	0.832275391	892.7	-67.94930723	-68.67814363	-133.0585637	-46
17209	0	0.362731934	-0.143737793	0.055969238	0.999999046	0.000507355	-0.000506401	-0.000709534	9.06829834	-3.593444824	1.399230957	0.025367741	-0.025320057	-0.035476691	-0.944824219	0.260253906	0.835205078	892.64	-67.92920042	-68.78180135	-133.0208029	-46
17210	0	0.362259865	-0.143777847	0.055808067	0.999999046	0.000494003	-0.000505447	-0.000774384	9.05649662	-3.594446182	1.395201683	0.024700169	-0.025272374	-0.038719184	-0.944824219	0.260253906	0.832275391	892.6	-67.90363866	-68.89168466	-132.9906483	-46
17211	0	0.363098145	-0.145996094	0.057373047	0.999999046	0.000247955	-0.000288963	-0.000549316	9.077453613	-3.649902344	1.434326172	0.012397767	-0.014448167	-0.027465822	-0.945068359	0.260253906	0.837890625	892.66	-67.87213122	-68.96758461	-132.997102	-46
17212	0	0.36359787	-0.147155762	0.056929588	0.999999046	0.000596046	-0.000358582	-0.000359535	9.089946747	-3.678894043	1.423239708	0.029802325	-0.017929079	-0.017976763	-0.944824219	0.256103516	0.838378906	892.7	-67.84164253	-69.02554936	-132.9600769	-46
17213	0	0.364990234	-0.147399902	0.055908203	0.999999046	0.000572205	-0.000208855	-9.16E-05	9.124755859	-3.684997559	1.397705078	0.028610231	-0.010442734	-0.004577637	-0.942626953	0.258056641	0.835205078	892.6	-67.80324143	-69.04784528	-132.9343356	-46
17214	0	0.362232208	-0.145682335	0.056838036	0.999999046	0.000522614	-0.000213623	0.00031662	9.055805206	-3.642058372	1.42095089	0.026130678	-0.010681153	0.015830995	-0.944824219	0.256103516	0.838378906	892.64	-67.81830471	-69.02629738	-132.8576802	-45
17215	0	0.361206055	-0.144165039	0.057800293	0.999999046	0.000610352	-0.000208855	0.000663757	9.030151367	-3.604125977	1.445007324	0.030517582	-0.010442735	0.033187871	-0.942626953	0.260253906	0.840576172	892.56	-67.86103909	-68.96700393	-132.7403529	-45
17216	0	0.362690926	-0.140428543	0.056170464	0.999999046	0.000267982	0.000240326	0.000967979	9.06727314	-3.510713577	1.404261589	0.013399127	0.012016299	0.04839898	-0.940429688	0.262451172	0.837402344	892.56	-67.85305416	-68.8555808	-132.7193998	-46
17217	0	0.363037109	-0.141113281	0.056335449	0.999999046	-0.000167847	0.000401497	0.001155853	9.075927734	-3.527832031	1.40838623	-0.008392336	0.020074849	0.057792678	-0.942871094	0.266845703	0.837402344	892.64	-67.87184738	-68.71685296	-132.7232277	-46
17218	0	0.363585472	-0.139715195	0.055664063	0.999999046	-6.68E-05	0.000383377	0.00113678	9.089636803	-3.492879868	1.391601563	-0.003337861	0.019168858	0.056839003	-0.940673828	0.268798828	0.831298828	892.56	-67.8819741	-68.58067183	-132.724012	-46
17219	0	0.361206055	-0.13861084	0.054931641	0.999999046	-3.81E-06	0.000206947	0.000911713	9.030151367	-3.465270996	1.373291016	-0.000190735	0.010347368	0.045585639	-0.940429688	0.266601563	0.831542969	892.54	-67.90792014	-68.4758051	-132.7003008	-46
17220	0	0.361053467	-0.138293266	0.053735733	0.999999046	0.00026989	8.20E-05	0.000541687	9.02633667	-3.457331657	1.343393326	0.013494492	0.0041008	0.027084352	-0.943115234	0.271240234	0.833984375	892.54	-67.89588633	-68.41549524	-132.6834819	-46
17221	0	0.361022949	-0.138183594	0.054321289	0.999999046	-0.000156403	0.000199318	4.96E-05	9.02557373	-3.454589844	1.358032227	-0.007820129	0.009965897	0.002479553	-0.940673828	0.269042969	0.834228516	892.6	-67.84784335	-68.40226485	-132.7580348	-46
17222	0	0.361474991	-0.14037323	0.054237366	0.999999046	-0.000514984	0.000202179	-0.000161171	9.036874771	-3.50933075	1.355934143	-0.025749208	0.010108948	-0.008058548	-0.943115234	0.2734375	0.836669922	892.54	-67.81751476	-68.41108308	-132.8574732	-46
17223	0	0.363220215	-0.142333984	0.055175781	0.999999046	-0.000659943	1.62E-05	-0.000305176	9.080505371	-3.558349609	1.379394531	-0.032997134	0.000810623	-0.01525879	-0.942871094	0.269042969	0.828613281	892.6	-67.83822634	-68.44297811	-132.9202744	-46
17224	0	0.360925674	-0.144446373	0.056033134	0.999999046	-0.000407219	-5.72E-05	-0.000336647	9.023141861	-3.611159325	1.400828362	-0.020360948	-0.002861023	-0.016832352	-0.942871094	0.269042969	0.834228516	892.6	-67.84654985	-68.48099387	-132.9651249	-46
17225	0	0.362854004	-0.145568848	0.057128906	0.999999046	2.67E-05	-0.000319481	-0.00031662	9.071350098	-3.639221191	1.428222656	0.001335144	-0.015974045	-0.015830994	-0.942871094	0.266845703	0.834472656	892.66	-67.87821604	-68.52777963	-132.9316159	-46
17226	0	0.362006187	-0.144299507	0.058246613	0.999999046	0.000102997	-0.000289917	-0.000275612	9.050154686	-3.607487679	1.456165314	0.005149841	-0.01449585	-0.013780594	-0.942871094	0.266845703	0.834472656	892.54	-67.89778285	-68.56851105	-132.9016832	-46
17227	0	0.361206055	-0.14630127	0.05859375	0.999999046	-0.000228882	-0.000102043	-0.000141144	9.030151367	-3.657531738	1.46484375	-0.011444092	-0.005102158	-0.00705719	-0.940673828	0.266845703	0.837158203	892.64	-67.91945311	-68.58633245	-132.9102531	-46
17228	0	0.362112999	-0.147629738	0.056985855	0.999999046	0.000346184	-9.92E-05	-0.00023365	9.052824974	-3.690743446	1.424646378	0.017309189	-0.004959107	-0.011682511	-0.942871094	0.264648438	0.837402344	892.64	-67.86457276	-68.61331357	-132.9305488	-46
17229	0	0.361206055	-0.145812988	0.057128906	0.999999046	3.81E-05	-4.10E-05	-7.25E-05	9.030151367	-3.645324707	1.428222656	0.001907349	-0.0020504	-0.003623962	-0.942871094	0.264648438	0.834716797	892.64	-67.84716282	-68.62019885	-132.9484847	-46
17230	0	0.361903191	-0.147587776	0.055949211	0.999999046	0.000530243	-0.000160217	-9.54E-07	9.047579765	-3.689694405	1.398730278	0.026512147	-0.008010865	-4.77E-05	-0.942626953	0.264648438	0.831787109	892.6	-67.81402817	-68.62413974	-132.9228462	-46
17231	0	0.362609863	-0.145263672	0.05682373	0.999999046	0.000751495	-0.00026989	0.000144958	9.065246582	-3.631591797	1.420593262	0.037574772	-0.013494493	0.007247926	-0.940429688	0.264648438	0.837402344	892.64	-67.80159419	-68.61695429	-132.8477333	-46
17232	0	0.364732742	-0.144618034	0.053424835	0.999999046	0.000447273	-0.000236511	0.000614166	9.118318558	-3.615450859	1.33562088	0.022363665	-0.011825563	0.030708316	-0.940673828	0.269042969	0.836914063	892.6	-67.86719895	-68.55826522	-132.7261005	-46
17233	0	0.361877441	-0.142211914	0.055664063	0.999999046	0.00012207	-0.000304222	0.000904083	9.046936035	-3.555297852	1.391601563	0.006103517	-0.015211108	0.04520417	-0.938232422	0.266601563	0.837158203	892.72	-68.01948402	-68.47140028	-132.5516501	-46
17234	0	0.364709854	-0.140356064	0.055475235	0.999999046	2.29E-05	-0.000240326	0.001091003	9.117746353	-3.508901596	1.386880875	0.001144409	-0.012016299	0.054550182	-0.938476563	0.270996094	0.833740234	892.56	-68.18477503	-68.36171319	-132.3750985	-46
17235	0	0.362487793	-0.139404297	0.056274414	0.999999046	0.000141144	-0.000273705	0.000793457	9.062194824	-3.485107422	1.406860352	0.007057191	-0.013685228	0.039672856	-0.938232422	0.273193359	0.827880859	892.64	-68.31200988	-68.28493177	-132.2248121	-46
