Counter	Temperature	VelInc_X	VelInc_Y	VelInc_Z	OriInc_w	OriInc_x	OriInc_y	OriInc_z	Acc_X	Acc_Y	Acc_Z	Gyr_X	Gyr_Y	Gyr_Z	Mag_X	Mag_Y	Mag_Z	Pressure	Roll	Pitch	Yaw	RSSI
12418	0	0.367578506	-0.140965462	0.04690361	0.999994278	-0.003129005	0.000800133	-0.000429153	9.189462662	-3.524136543	1.172590256	-0.156450548	0.040006708	-0.02145771	-0.743652344	0.006835938	0.849121094	892.6	-67.58848669	-67.30236605	-120.78902	-71
12419	0	0.35369873	-0.144226074	0.046447754	0.999979973	-0.005901337	0.000477791	0.002075195	8.842468262	-3.605651855	1.161193848	-0.295068769	0.023889698	0.103760446	-0.740966797	0.002197266	0.84375	892.7	-68.3098406	-67.07761018	-120.7363871	-70
12420	0	0.349246979	-0.148724556	0.055779457	0.999991417	-0.001889229	-0.001394272	0.003274918	8.731174469	-3.718113899	1.394486427	-0.094461697	-0.069713781	0.163746323	-0.745361328	-0.004150391	0.847412109	892.6	-69.15141377	-66.80141282	-120.0546068	-69
12421	0	0.364868164	-0.139892578	0.056335449	0.999983788	0.003734589	-0.003424644	0.002365112	9.121704102	-3.497314453	1.40838623	0.186730404	-0.171233116	0.118256232	-0.738769531	0.002197266	0.854980469	892.64	-69.75715678	-66.70116847	-118.9270195	-69
12422	0	0.365854263	-0.122750282	0.058218956	0.999987602	0.003475189	-0.003124237	0.001410484	9.146356583	-3.068757057	1.4554739	0.17376015	-0.156212473	0.070524496	-0.729980469	0.012939453	0.856445313	892.58	-70.22503035	-66.68862694	-117.9806917	-69
12423	0	0.368286133	-0.123901367	0.061096191	0.999995232	-4.20E-05	-0.002200127	0.002090454	9.20715332	-3.09753418	1.527404785	-0.002098087	-0.110006501	0.104522866	-0.725585938	0.017089844	0.861572266	892.64	-70.92055009	-66.56433241	-117.224548	-69
12424	0	0.369448662	-0.129115105	0.066354752	0.999994278	0.000377655	-0.001862526	0.002627373	9.236216545	-3.227877617	1.65886879	0.018882785	-0.09312646	0.131368867	-0.718994141	0.021240234	0.866455078	892.6	-71.51900406	-66.36642098	-116.5204642	-69
12425	0	0.372314453	-0.121520996	0.066711426	0.999993324	0.001274109	-0.001677513	0.002738953	9.307861328	-3.038024902	1.667785645	0.063705571	-0.083875823	0.136947904	-0.714599609	0.027832031	0.871337891	892.66	-71.96537955	-66.14810471	-115.8685823	-69
12426	0	0.375133514	-0.117365837	0.065808296	0.999996185	5.63E-05	-0.000870705	0.002594948	9.37833786	-2.934145927	1.645207405	0.002813343	-0.043535287	0.129747553	-0.712402344	0.034179688	0.865234375	892.7	-72.32984761	-65.91654194	-115.4573402	-69
12427	0	0.375549316	-0.123168945	0.066101074	0.999998093	-0.000243187	-9.16E-05	0.001678467	9.38873291	-3.079223633	1.652526855	-0.012159353	-0.004577639	0.08392338	-0.710449219	0.038574219	0.864746094	892.72	-72.46021963	-65.75837088	-115.3388232	-69
12428	0	0.368556976	-0.123217583	0.062616348	0.999999046	-1.81E-05	0.000226974	0.000453949	9.213924408	-3.080439568	1.565408707	-0.000905991	0.011348725	0.02269745	-0.712890625	0.040771484	0.870361328	892.64	-72.39103199	-65.72385037	-115.4102844	-69
12429	0	0.361328125	-0.128479004	0.06072998	0.999999046	-0.000907898	0.000927925	-0.000331879	9.033203125	-3.211975098	1.518249512	-0.045394911	0.046396269	-0.016593938	-0.710449219	0.038574219	0.870605469	892.64	-72.19201952	-65.7511452	-115.7356357	-70
12430	0	0.362160683	-0.135306358	0.060483932	0.999998093	-0.00064373	0.001210213	-0.001304626	9.054017067	-3.382658958	1.512098312	-0.032186527	0.060510671	-0.065231362	-0.715087891	0.038574219	0.864990234	892.58	-71.81510212	-65.87399509	-116.2224712	-69
12431	0	0.361633301	-0.13470459	0.057983398	0.999995232	-0.001354218	0.001828194	-0.001911163	9.04083252	-3.367614746	1.449584961	-0.067710976	0.091409818	-0.095558307	-0.719482422	0.030029297	0.863037109	892.66	-71.31390346	-66.0390419	-116.9345773	-69
12432	0	0.360634804	-0.143122673	0.056530952	0.999992371	-0.00211525	0.002211571	-0.002121925	9.015870094	-3.578066826	1.413273811	-0.105762726	0.110578793	-0.106096513	-0.723876953	0.025878906	0.860839844	892.66	-70.77968414	-66.20976054	-117.7766317	-69
12433	0	0.358276367	-0.14453125	0.055297852	0.999995232	-0.001281738	0.001984596	-0.001941681	8.95690918	-3.61328125	1.382446289	-0.064087014	0.099229967	-0.097084197	-0.728271484	0.017333984	0.864746094	892.66	-70.21207722	-66.36598545	-118.5503257	-70
12434	0	0.36388588	-0.14410305	0.051119804	0.999992371	-0.002392769	0.002381325	-0.001420975	9.097146988	-3.602576256	1.27799511	-0.11963871	0.119066505	-0.071048895	-0.732421875	0.010742188	0.856933594	892.66	-69.71445709	-66.44741406	-119.3861913	-70
12435	0	0.374938965	-0.149414063	0.050476074	0.99998951	-0.003398895	0.002655983	-0.001331329	9.373474121	-3.735351563	1.261901855	-0.16994534	0.1327996	-0.066566693	-0.736816406	0.004394531	0.854736328	892.64	-69.26996583	-66.50513436	-120.2892752	-71
12436	0	0.379356384	-0.150564194	0.048778534	0.999987602	-0.00398159	0.002534866	-0.001376152	9.483909607	-3.764104843	1.219463348	-0.199080316	0.126743827	-0.068807879	-0.740966797	-0.004150391	0.853027344	892.7	-68.91624627	-66.56982568	-121.1661311	-71
12437	0	0.368530273	-0.154174805	0.049255371	0.999993324	-0.003231049	0.001473427	-0.000598907	9.213256836	-3.854370117	1.231384277	-0.161552778	0.0736715	-0.029945438	-0.745117188	-0.012695313	0.845214844	892.6	-68.81225111	-66.59325789	-121.6779953	-71
12438	0	0.354025841	-0.148844719	0.053058624	0.999999046	-0.001085281	-0.000297546	0.000653267	8.850646019	-3.721117973	1.326465607	-0.054264084	-0.014877324	0.032663355	-0.749755859	-0.019287109	0.846191406	892.64	-69.0201286	-66.55530043	-121.5830635	-71
12439	0	0.354614258	-0.145080566	0.055419922	0.999999046	0.000686646	-0.000826836	0.000774384	8.865356445	-3.62701416	1.385498047	0.034332285	-0.041341794	0.038719189	-0.747314453	-0.019287109	0.8515625	892.58	-69.16749563	-66.52544594	-121.3324083	-71
12440	0	0.363161087	-0.138484955	0.05696106	0.999999046	0.000580788	-2.86E-05	0.000346184	9.079027176	-3.462123871	1.424026489	0.029039385	-0.001430512	0.01730919	-0.749755859	-0.014892578	0.848632813	892.64	-69.09020221	-66.50880769	-121.3395207	-71
12441	0	0.364624023	-0.137512207	0.054321289	0.999998093	-0.001811028	0.000530243	0.000164032	9.115600586	-3.437805176	1.358032227	-0.09055143	0.026512162	0.008201604	-0.75	-0.014892578	0.851318359	892.64	-69.13294509	-66.48893444	-121.5142088	-71
12442	0	0.361524582	-0.143882751	0.057478905	0.999997139	-0.002103806	0.000139236	0.000365257	9.038114548	-3.597068787	1.436972618	-0.105190357	0.006961828	0.018262877	-0.749755859	-0.019287109	0.846191406	892.64	-69.32479328	-66.46321056	-121.5636235	-72
12443	0	0.359741211	-0.145324707	0.059020996	0.999999046	0.000102997	-0.000563622	0.000507355	8.993530273	-3.633117676	1.475524902	0.005149842	-0.028181079	0.025367739	-0.747314453	-0.021484375	0.848876953	892.58	-69.45013808	-66.45025479	-121.4100458	-71
12444	0	0.365218163	-0.140435219	0.057721138	0.999998093	0.00148201	-0.000840187	0.000628471	9.130454063	-3.51088047	1.44302845	0.074100535	-0.042009377	0.031423586	-0.749755859	-0.017089844	0.848632813	892.64	-69.49688928	-66.43532927	-121.1698347	-71
12445	0	0.366210938	-0.136901855	0.057983398	0.999999046	0.000473022	-0.000617027	0.000759125	9.155273438	-3.422546387	1.449584961	0.023651128	-0.03085137	0.037956245	-0.747558594	-0.014892578	0.854248047	892.64	-69.61615676	-66.39749164	-120.9762744	-72
12446	0	0.363022804	-0.137154579	0.057785988	0.999999046	-0.000659943	7.63E-06	0.001026154	9.075570107	-3.428864479	1.444649696	-0.03299714	0.00038147	0.051307691	-0.745361328	-0.012695313	0.851074219	892.72	-69.73556045	-66.30603214	-120.9240981	-72
12447	0	0.364379883	-0.138244629	0.058654785	0.999999046	-0.000686646	4.67E-05	0.000808716	9.10949707	-3.456115723	1.466369629	-0.034332282	0.002336503	0.040435799	-0.747558594	-0.014892578	0.851318359	892.58	-69.82821463	-66.2364397	-120.9049437	-71
12448	0	0.363361359	-0.136102676	0.056059837	0.999999046	-0.000464439	0.000232697	0.000358582	9.084033966	-3.40256691	1.401495934	-0.023221971	0.011634827	0.017929078	-0.747558594	-0.012695313	0.848388672	892.64	-69.80956367	-66.2081161	-120.9792445	-72
12449	0	0.362792969	-0.135620117	0.055969238	0.999999046	-0.000713348	0.000309944	6.48E-05	9.069824219	-3.39050293	1.399230957	-0.035667423	0.015497209	0.003242493	-0.747558594	-0.014892578	0.851318359	892.66	-69.7743681	-66.20852894	-121.1028811	-72
12450	0	0.365181923	-0.137699127	0.054777145	0.999999046	-0.000823975	0.000541687	-0.00030899	9.129548073	-3.44247818	1.369428635	-0.041198738	0.027084355	-0.015449527	-0.749755859	-0.017089844	0.848632813	892.64	-69.66180442	-66.24004021	-121.3251659	-72
12451	0	0.362243652	-0.141235352	0.054626465	0.999999046	-0.000431061	0.000355721	-0.000675201	9.056091309	-3.530883789	1.365661621	-0.021553042	0.017786028	-0.033760075	-0.751953125	-0.016845703	0.845947266	892.7	-69.51616967	-66.31807128	-121.5342516	-72
12452	0	0.360748291	-0.1416502	0.053904533	0.999999046	-3.34E-05	0.000110626	-0.000499725	9.018707275	-3.541254997	1.347613335	-0.00166893	0.005531311	-0.024986268	-0.751953125	-0.021240234	0.852050781	892.72	-69.40073751	-66.38684246	-121.6608967	-72
12453	0	0.366394043	-0.145751953	0.050476074	0.999999046	-8.01E-05	-2.86E-06	-0.000339508	9.159851074	-3.643798828	1.261901855	-0.004005432	-0.000143051	-0.016975403	-0.751953125	-0.021240234	0.849121094	892.66	-69.33406719	-66.44281998	-121.7403302	-72
12454	0	0.362222672	-0.148688316	0.051364899	0.999999046	-0.000360489	6.68E-05	-0.000236511	9.055566788	-3.717207909	1.284122467	-0.018024445	0.00333786	-0.011825562	-0.751953125	-0.021240234	0.852050781	892.7	-69.29298924	-66.48454861	-121.826894	-72
12455	0	0.361328125	-0.15057373	0.052307129	0.999999046	-0.00063324	-0.000361443	0.00069809	9.033203125	-3.764343262	1.307678223	-0.031661993	-0.018072131	0.034904486	-0.754150391	-0.0234375	0.852294922	892.72	-69.47656465	-66.44287369	-121.7033033	-72
12456	0	0.360608101	-0.148884773	0.051612854	0.999998093	-0.000904083	-0.000393867	0.001617432	9.015202522	-3.722119331	1.29032135	-0.04520419	-0.019693386	0.08087163	-0.751953125	-0.0234375	0.849365234	892.7	-69.78324034	-66.30313572	-121.4794022	-72
12457	0	0.362365723	-0.148254395	0.052062988	0.999997139	-0.000827789	-0.000296593	0.001914978	9.059143066	-3.706359863	1.301574707	-0.041389496	-0.014829647	0.095748972	-0.749511719	-0.0234375	0.852050781	892.6	-70.08169891	-66.12680386	-121.2547291	-72
12458	0	0.360741615	-0.146309853	0.054474831	0.999997139	-0.000730515	-0.000577927	0.001955986	9.018540382	-3.657746315	1.361870766	-0.036525755	-0.028896354	0.097799378	-0.747314453	-0.021484375	0.851806641	892.64	-70.43737744	-65.95623714	-120.9549518	-72
12459	0	0.361633301	-0.146606445	0.052612305	0.999996185	-0.000567436	-0.000797272	0.002220154	9.04083252	-3.665161133	1.315307617	-0.028371839	-0.039863626	0.111007799	-0.749755859	-0.016845703	0.8515625	892.7	-70.84537403	-65.76455123	-120.5770356	-72
12460	0	0.362296104	-0.146265984	0.054920197	0.999997139	0.000308037	-0.000974655	0.002001762	9.057402611	-3.65664959	1.373004913	0.015401853	-0.048732799	0.100088204	-0.747802734	-0.014892578	0.856933594	892.64	-71.17214732	-65.60214569	-120.1777396	-72
12461	0	0.361450195	-0.144836426	0.05670166	0.999997139	0.000751495	-0.00127697	0.001499176	9.036254883	-3.620910645	1.417541504	0.037574796	-0.063848543	0.074958857	-0.745361328	-0.012695313	0.851074219	892.6	-71.47537551	-65.50456671	-119.7484194	-72
12462	0	0.363183022	-0.14333725	0.057208061	0.999998093	0.00061512	-0.000905037	0.00108242	9.079575539	-3.583431244	1.43020153	0.030756009	-0.045251864	0.054121039	-0.740966797	-0.008544922	0.858886719	892.72	-71.66971558	-65.43825805	-119.4549204	-72
12463	0	0.362976074	-0.143310547	0.056640625	0.999999046	0.000389099	-0.000441551	0.00069809	9.074401855	-3.582763672	1.416015625	0.019454959	-0.022077563	0.034904485	-0.740966797	-0.006347656	0.855957031	892.6	-71.74807497	-65.39702611	-119.3175034	-72
12464	0	0.36361599	-0.144995689	0.0558815	0.999999046	0.000344276	-8.20E-05	0.000220299	9.090399742	-3.624892235	1.397037506	0.017213822	-0.0041008	0.011014939	-0.740966797	-0.006347656	0.858886719	892.64	-71.7081823	-65.39501927	-119.3157479	-72
12465	0	0.36517334	-0.145812988	0.0546875	0.999999046	0.000431061	5.05E-05	6.48E-05	9.129333496	-3.645324707	1.3671875	0.02155304	0.002527237	0.003242493	-0.741210938	-0.006347656	0.864501953	892.7	-71.61448538	-65.40532145	-119.3621161	-72
12466	0	0.361243248	-0.142825127	0.051855087	0.999999046	0.000419617	0.000387192	-3.53E-05	9.0310812	-3.570628166	1.296377182	0.020980836	0.01935959	-0.001764298	-0.738769531	-0.001953125	0.85546875	892.6	-71.43424324	-65.41449457	-119.5048795	-72
12467	0	0.362487793	-0.144714355	0.051391602	0.999999046	0.000183105	0.000546455	-0.000350952	9.062194824	-3.617858887	1.284790039	0.009155274	0.027322771	-0.017547609	-0.741210938	-0.001953125	0.858398438	892.64	-71.21801943	-65.45207966	-119.7171163	-72
12468	0	0.360827446	-0.145908356	0.049091339	0.999999046	0.000290871	0.000368118	-0.000808716	9.02068615	-3.647708893	1.227283478	0.014543535	0.018405917	-0.040435797	-0.743408203	-0.004150391	0.855957031	892.72	-70.99435435	-65.54569198	-119.9243924	-72
12469	0	0.359558105	-0.146850586	0.050537109	0.999999046	0.000152588	0.000279427	-0.000850677	8.988952637	-3.671264648	1.263427734	0.007629396	0.013971331	-0.04253388	-0.745849609	-0.00390625	0.855957031	892.58	-70.80322332	-65.64685889	-120.1131193	-72
12470	0	0.360941887	-0.147625923	0.049257278	0.999999046	-6.87E-05	-7.06E-05	-0.000527382	9.023547173	-3.690648079	1.231431961	-0.003433228	-0.003528595	-0.026369096	-0.745605469	-0.006103516	0.853271484	892.66	-70.74788063	-65.7260582	-120.1809234	-73
12471	0	0.362426758	-0.149047852	0.048095703	0.999999046	-0.000297546	-6.77E-05	-0.000461578	9.060668945	-3.726196289	1.202392578	-0.01487732	-0.003385544	-0.02307892	-0.743164063	-0.008544922	0.856201172	892.72	-70.72427015	-65.79794738	-120.2426827	-73
12472	0	0.361839294	-0.150270462	0.051129341	0.999999046	-0.000437737	-0.000120163	-0.00055027	9.045982361	-3.756761551	1.278233528	-0.021886827	-0.006008149	-0.027513506	-0.745605469	-0.008300781	0.859130859	892.7	-70.72232487	-65.88120618	-120.2982324	-74
12473	0	0.360656738	-0.151428223	0.053039551	0.999999046	-0.000499725	-0.000247002	-0.000396729	9.016418457	-3.785705566	1.32598877	-0.024986269	-0.012350083	-0.019836427	-0.745605469	-0.012695313	0.859619141	892.7	-70.77153197	-65.95232312	-120.3060634	-74
12474	0	0.360253334	-0.150465012	0.054601669	0.999999046	-0.000297546	-0.000150681	-6.20E-05	9.006333351	-3.76162529	1.365041733	-0.01487732	-0.007534027	-0.003099442	-0.743164063	-0.012695313	0.859375	892.66	-70.80283286	-65.98325228	-120.3079378	-74
12475	0	0.35925293	-0.150634766	0.054138184	0.999999046	-0.000461578	2.77E-05	-5.34E-05	8.981323242	-3.765869141	1.35345459	-0.023078919	0.001382828	-0.002670288	-0.743164063	-0.014892578	0.859619141	892.6	-70.81061808	-66.00617387	-120.356375	-75
12476	0	0.359326363	-0.151197433	0.055726051	0.999999046	-6.58E-05	0.000152588	-8.77E-05	8.983159065	-3.779935837	1.393151283	-0.003290176	0.007629395	-0.004386902	-0.743164063	-0.014892578	0.859619141	892.64	-70.73978667	-66.02767989	-120.4411727	-75
12477	0	0.359802246	-0.151916504	0.053955078	0.999999046	0.000366211	0.000119209	-0.00025177	8.995056152	-3.797912598	1.348876953	0.018310548	0.005960465	-0.012588501	-0.745361328	-0.014892578	0.856933594	892.64	-70.61377068	-66.06773739	-120.5324528	-75
12478	0	0.360536575	-0.150842667	0.052441597	0.999999046	0.000497818	5.72E-05	-7.25E-05	9.013414383	-3.771066666	1.311039925	0.024890901	0.002861023	-0.003623963	-0.743164063	-0.014892578	0.859619141	892.76	-70.50346043	-66.09040356	-120.5899769	-74
12479	0	0.361572266	-0.151367188	0.053405762	0.999999046	0.000484467	0.000100136	0.000156403	9.039306641	-3.784179688	1.335144043	0.024223329	0.00500679	0.00782013	-0.745361328	-0.014892578	0.854003906	892.64	-70.40441944	-66.08634364	-120.6373132	-74
12480	0	0.361392975	-0.147829056	0.052399635	0.999999046	0.000590324	3.81E-05	0.000389099	9.034824371	-3.695726395	1.309990883	0.029516223	0.001907349	0.019454958	-0.745361328	-0.012695313	0.853759766	892.72	-70.32907774	-66.05938495	-120.6453225	-73
12481	0	0.360046387	-0.147460938	0.052062988	0.999999046	-4.96E-05	0.0001688	0.00088501	9.001159668	-3.686523438	1.301574707	-0.002479554	0.008440019	0.044250494	-0.743164063	-0.010742188	0.850830078	892.66	-70.33895587	-65.9737359	-120.6403054	-73
12482	0	0.363921165	-0.145914078	0.051926613	0.999999046	2.67E-05	0.000226974	0.001033783	9.098029137	-3.647851944	1.298165321	0.001335144	0.011348726	0.051689158	-0.745605469	-0.010498047	0.859375	892.66	-70.33930021	-65.86983246	-120.6362085	-73
12483	0	0.361083984	-0.142150879	0.050354004	0.999999046	-0.000167847	1.24E-05	0.000911713	9.027099609	-3.553771973	1.258850098	-0.008392335	0.000619888	0.045585639	-0.747802734	-0.008300781	0.853515625	892.66	-70.40339578	-65.78757197	-120.5869051	-72
12484	0	0.360024452	-0.145328522	0.052327156	0.999999046	-0.00024128	0	0.000723839	9.000611305	-3.633213043	1.308178902	-0.012063981	0	0.036191944	-0.745605469	-0.006103516	0.853271484	892.76	-70.46285067	-65.72609028	-120.5516839	-72
12485	0	0.359924316	-0.145202637	0.052612305	0.999999046	0.000411987	-0.000216484	0.000183105	8.99810791	-3.630065918	1.315307617	0.020599366	-0.010824204	0.009155274	-0.743408203	-0.006347656	0.858886719	892.6	-70.45350088	-65.73135518	-120.5098665	-72
12486	0	0.360931396	-0.146145821	0.053002357	0.999999046	0.000482559	-0.000333786	-7.63E-06	9.023284912	-3.653645515	1.325058937	0.024127962	-0.016689301	-0.00038147	-0.743408203	-0.006347656	0.855957031	892.66	-70.44825816	-65.76175107	-120.4550233	-72
12487	0	0.360717773	-0.147827148	0.055175781	0.999999046	0.000511169	-0.000338554	-0.000209808	9.017944336	-3.695678711	1.379394531	0.025558473	-0.01692772	-0.010490418	-0.743408203	-0.004150391	0.855957031	892.6	-70.42380183	-65.81407832	-120.4175251	-72
12488	0	0.361488342	-0.147801399	0.05593586	0.999999046	0.000164986	-0.000102997	-5.82E-05	9.037208557	-3.695034981	1.398396492	0.008249283	-0.005149841	-0.002908707	-0.740966797	-0.006347656	0.858886719	892.76	-70.39534475	-65.84089019	-120.4280324	-71
12489	0	0.361083984	-0.149230957	0.056030273	0.999999046	1.53E-05	8.11E-05	0.000144958	9.027099609	-3.730773926	1.400756836	0.000762939	0.004053116	0.007247925	-0.745849609	-0.006103516	0.859130859	892.66	-70.3571869	-65.83850649	-120.4681409	-71
12490	0	0.359872818	-0.147258759	0.054444313	0.999999046	-0.000324249	0.000427246	0.00045681	8.99682045	-3.681468964	1.361107826	-0.016212465	0.021362306	0.022840502	-0.745849609	-0.006103516	0.859130859	892.72	-70.30173784	-65.78901064	-120.5697702	-71
12491	0	0.360229492	-0.148803711	0.054260254	0.999999046	-0.00050354	0.000409126	0.000423431	9.005737305	-3.720092773	1.356506348	-0.025177004	0.020456316	0.021171572	-0.745849609	-0.00390625	0.853271484	892.66	-70.26883198	-65.74364817	-120.6691745	-71
12492	0	0.360062599	-0.14696312	0.051293373	0.999999046	-0.000235558	0.000417709	0.000350952	9.00156498	-3.674077988	1.282334328	-0.011777879	0.020885469	0.017547608	-0.750488281	-0.006103516	0.856445313	892.7	-70.19771148	-65.70573923	-120.7772203	-72
12493	0	0.360229492	-0.146850586	0.050292969	0.999999046	-0.000667572	0.000248909	0.000339508	9.005737305	-3.671264648	1.257324219	-0.033378605	0.012445451	0.016975405	-0.745605469	-0.006103516	0.850585938	892.76	-70.21622724	-65.67563966	-120.8411593	-72
12494	0	0.360042572	-0.148322105	0.050272942	0.999999046	-0.00060463	9.35E-05	0.000361443	9.001064301	-3.708052635	1.25682354	-0.030231478	0.004673005	0.01807213	-0.748046875	-0.006103516	0.853515625	892.64	-70.2671712	-65.64919834	-120.8616825	-72
12495	0	0.359619141	-0.148132324	0.052307129	0.999999046	-0.000385284	-8.68E-05	0.000255585	8.990478516	-3.703308105	1.307678223	-0.019264222	-0.004339218	0.012779236	-0.748046875	-0.006103516	0.850585938	892.64	-70.32725214	-65.64111386	-120.8447595	-73
12496	0	0.359796524	-0.146525383	0.051215172	0.999999046	-0.000527382	-0.000156403	0.000174522	8.994913101	-3.663134575	1.280379295	-0.026369096	-0.00782013	0.00872612	-0.745605469	-0.008300781	0.853515625	892.7	-70.4137195	-65.64451043	-120.8167936	-74
12497	0	0.361022949	-0.147705078	0.054260254	0.999999046	-0.000442505	-0.00026226	2.67E-05	9.02557373	-3.692626953	1.356506348	-0.022125245	-0.013113022	0.001335144	-0.747802734	-0.008300781	0.850830078	892.6	-70.50330703	-65.66789425	-120.7748606	-74
12498	0	0.360798836	-0.148139954	0.054610252	0.999999046	-0.000207901	-0.000312805	-0.000409126	9.019970894	-3.70349884	1.36525631	-0.010395051	-0.01564026	-0.020456315	-0.745605469	-0.010498047	0.859375	892.66	-70.54138568	-65.74022323	-120.7597648	-75
12499	0	0.359436035	-0.148864746	0.0546875	0.999999046	-0.00044632	-0.000132561	-0.000213623	8.985900879	-3.721618652	1.3671875	-0.02231598	-0.006628037	-0.010681153	-0.745605469	-0.008300781	0.856445313	892.66	-70.58025783	-65.78441096	-120.7736749	-74
12500	0	0.360308647	-0.151995659	0.05500412	0.999999046	-0.000277519	-7.44E-05	-6.87E-05	9.007716179	-3.799891472	1.375102997	-0.013875962	-0.00371933	-0.003433228	-0.747802734	-0.010498047	0.851074219	892.84	-70.59821257	-65.8104443	-120.7898587	-74
12501	0	0.361572266	-0.151306152	0.053100586	0.999999046	-0.000133514	-0.000193596	8.77E-05	9.039306641	-3.782653809	1.327514648	-0.00667572	-0.009679794	0.004386902	-0.747558594	-0.014892578	0.854248047	892.66	-70.64192353	-65.82391878	-120.7599379	-75
12502	0	0.361505508	-0.150957108	0.053956985	0.999999046	-0.000175476	-7.82E-05	0.000400543	9.037637711	-3.773927689	1.348924637	-0.008773804	-0.003910065	0.020027161	-0.743164063	-0.012939453	0.853759766	892.66	-70.68926899	-65.79899677	-120.7308746	-74
12503	0	0.359924316	-0.148803711	0.05291748	0.999999046	-0.000305176	3.91E-05	0.000431061	8.99810791	-3.720092773	1.322937012	-0.01525879	0.001955032	0.021553041	-0.742919922	-0.014892578	0.856689453	892.6	-70.72593693	-65.76622798	-120.7299933	-75
12504	0	0.359912872	-0.149329185	0.051693916	0.999999046	-0.000273705	0.00015831	0.000488281	8.997821808	-3.733229637	1.292347908	-0.013685227	0.007915497	0.024414064	-0.747802734	-0.012695313	0.856933594	892.64	-70.73546975	-65.72267423	-120.7549305	-74
12505	0	0.359558105	-0.150878906	0.051269531	0.999999046	-0.000175476	-1.43E-05	0.000179291	8.988952637	-3.771972656	1.281738281	-0.008773804	-0.000715256	0.008964539	-0.745361328	-0.012695313	0.853759766	892.66	-70.74968162	-65.71893478	-120.7624877	-74
12506	0	0.360176086	-0.152247429	0.051937103	0.999999046	0.000383377	-0.000249863	-1.62E-05	9.004402161	-3.806185722	1.298427582	0.019168854	-0.012493134	-0.000810623	-0.745361328	-0.012695313	0.851074219	892.64	-70.74038401	-65.74505857	-120.7258169	-74
12507	0	0.360290527	-0.151672363	0.052368164	0.999999046	0.000396729	-0.000250816	0.000202179	9.007263184	-3.791809082	1.309204102	0.019836427	-0.012540818	0.010108948	-0.745605469	-0.012695313	0.862304688	892.66	-70.7484563	-65.74742407	-120.668251	-75
12508	0	0.361841202	-0.151046753	0.050840378	0.999999046	7.72E-05	7.63E-06	0.000254631	9.046030045	-3.776168823	1.271009445	0.003862381	0.00038147	0.012731552	-0.743164063	-0.010742188	0.853515625	892.6	-70.73595132	-65.73426528	-120.6735893	-75
12509	0	0.361022949	-0.15020752	0.052001953	0.999999046	-0.000270844	-7.15E-05	0.00063324	9.02557373	-3.755187988	1.300048828	-0.013542176	-0.003576279	0.03166199	-0.745605469	-0.010498047	0.856445313	892.7	-70.81422722	-65.68305192	-120.6231873	-75
12510	0	0.360842705	-0.148129463	0.052052498	0.999999046	-0.000141144	-5.15E-05	0.000544548	9.021067619	-3.70323658	1.301312447	-0.00705719	-0.002574921	0.027227403	-0.745605469	-0.008300781	0.853515625	892.7	-70.86539117	-65.64069228	-120.5861783	-75
12511	0	0.36114502	-0.146484375	0.052734375	0.999999046	-0.000289917	-1.05E-05	7.63E-05	9.028625488	-3.662109375	1.318359375	-0.01449585	-0.000524521	0.003814697	-0.743164063	-0.010498047	0.859130859	892.66	-70.88484948	-65.64759167	-120.6026318	-75
12512	0	0.361428261	-0.147485733	0.051358223	0.999999046	-0.00026226	0.000106812	-0.000404358	9.03570652	-3.687143326	1.283955574	-0.013113022	0.005340576	-0.020217896	-0.745605469	-0.010498047	0.856445313	892.68	-70.83323003	-65.70220324	-120.6937241	-75
12513	0	0.359558105	-0.147888184	0.051513672	0.999999046	-0.000362396	0.000157356	-0.000221252	8.988952637	-3.69720459	1.287841797	-0.018119813	0.007867813	-0.011062622	-0.747802734	-0.012695313	0.856933594	892.66	-70.7961492	-65.73507177	-120.7815839	-75
12514	0	0.36253643	-0.14788723	0.050909042	0.999999046	-0.000286102	6.29E-05	-0.000142097	9.063410759	-3.697180748	1.272726059	-0.014305115	0.003147125	-0.007104874	-0.745605469	-0.012695313	0.859619141	892.7	-70.77973198	-65.76298588	-120.8369368	-75
12515	0	0.359863281	-0.14642334	0.049743652	0.999999046	-0.000652313	0.000218391	-0.000274658	8.996582031	-3.660583496	1.243591309	-0.032615665	0.010919572	-0.013732911	-0.745361328	-0.014892578	0.854003906	892.64	-70.75698531	-65.79944818	-120.9455149	-75
12516	0	0.360107422	-0.150500298	0.048482895	0.999999046	-0.00064373	0.000209808	-0.000412941	9.002685547	-3.762507439	1.212072372	-0.032186512	0.010490419	-0.020647051	-0.745361328	-0.017089844	0.859863281	892.66	-70.72406001	-65.8510836	-121.0640567	-76
12517	0	0.35949707	-0.150512695	0.049987793	0.999999046	-0.000492096	-2.86E-06	-0.000167847	8.987426758	-3.762817383	1.249694824	-0.024604798	-0.000143051	-0.008392334	-0.745117188	-0.017089844	0.854248047	892.6	-70.74601823	-65.88410154	-121.1035599	-75
12518	0	0.360280037	-0.151357651	0.050079346	0.999999046	-0.000663757	-5.53E-05	0.000170708	9.007000923	-3.783941269	1.251983643	-0.033187869	-0.002765656	0.008535386	-0.747558594	-0.019287109	0.854492188	892.56	-70.82934272	-65.88230752	-121.0976306	-75
12519	0	0.358947754	-0.150939941	0.050720215	0.999999046	-0.000499725	-1.81E-05	-0.000125885	8.973693848	-3.773498535	1.268005371	-0.024986268	-0.000905991	-0.006294251	-0.745117188	-0.019287109	0.860107422	892.64	-70.86026871	-65.91103485	-121.1282093	-75
12520	0	0.359476089	-0.153343201	0.05140686	0.999999046	-0.000668526	0.000108719	-0.000102997	8.986902237	-3.833580017	1.285171509	-0.033426287	0.005435944	-0.005149842	-0.747314453	-0.021484375	0.851806641	892.7	-70.882049	-65.93223204	-121.1905074	-75
12521	0	0.359863281	-0.154663086	0.051818848	0.999999046	-0.000301361	-7.53E-05	0.000335693	8.996582031	-3.866577148	1.295471191	-0.015068055	-0.003767014	0.016784669	-0.744873047	-0.023681641	0.851806641	892.64	-70.94349736	-65.91248865	-121.163328	-75
12522	0	0.359402657	-0.152433395	0.051610947	0.999999046	-0.000583649	-5.72E-06	0.000724792	8.985066414	-3.810834885	1.290273666	-0.029182438	-0.000286102	0.036239629	-0.749755859	-0.0234375	0.857910156	892.7	-71.05298111	-65.84773231	-121.1188821	-75
12523	0	0.358947754	-0.152160645	0.051940918	0.999999046	-0.000404358	-6.77E-05	0.001091003	8.973693848	-3.804016113	1.298522949	-0.0202179	-0.003385545	0.054550183	-0.747314453	-0.021484375	0.854736328	892.66	-71.18675065	-65.74531498	-121.0252085	-75
12524	0	0.361492157	-0.151770592	0.050059319	0.999999046	-0.00014019	-4.01E-05	0.000933647	9.037303925	-3.794264793	1.251482964	-0.007009507	-0.002002716	0.046682365	-0.747314453	-0.021484375	0.857421875	892.7	-71.27023968	-65.65880428	-120.9535205	-75
12525	0	0.361206055	-0.151977539	0.05279541	0.999999046	-0.000259399	-0.000300407	0.000850677	9.030151367	-3.799438477	1.319885254	-0.012969973	-0.015020373	0.042533881	-0.745117188	-0.019287109	0.854492188	892.66	-71.42238434	-65.59068697	-120.8213481	-75
12526	0	0.360430717	-0.151153564	0.051584244	0.999999046	3.81E-06	-0.000299454	0.001029015	9.010767937	-3.778839111	1.289606094	0.000190735	-0.01497269	0.051450739	-0.745117188	-0.019287109	0.854492188	892.64	-71.55760554	-65.50298756	-120.6747523	-74
12527	0	0.359680176	-0.151062012	0.052001953	0.999999046	-2.67E-05	-0.000109673	0.000759125	8.992004395	-3.776550293	1.300048828	-0.001335144	-0.005483628	0.037956242	-0.745361328	-0.017089844	0.856933594	892.76	-71.62880123	-65.4376389	-120.6020834	-73
12528	0	0.360498428	-0.151674271	0.051913261	0.999999046	0.000159264	-0.000139236	0.000472069	9.012460709	-3.791856766	1.297831535	0.007963181	-0.006961823	0.02360344	-0.742919922	-0.017089844	0.859863281	892.7	-71.6627124	-65.40454699	-120.5469277	-73
12529	0	0.362121582	-0.150939941	0.049316406	0.999999046	0.00038147	-0.000212669	0.000293732	9.053039551	-3.773498535	1.232910156	0.019073487	-0.010633469	0.014686585	-0.742919922	-0.017089844	0.854003906	892.7	-71.67468238	-65.39360461	-120.4882408	-72
12530	0	0.360221863	-0.151115417	0.048605919	0.999999046	0.000228882	-7.63E-06	0.000430107	9.00554657	-3.777885437	1.215147972	0.011444092	-0.00038147	0.021505357	-0.745361328	-0.014892578	0.856933594	892.7	-71.66641435	-65.36051486	-120.4708626	-72
12531	0	0.361328125	-0.15020752	0.050231934	0.999999046	0.000289917	-1.81E-05	-5.72E-05	9.033203125	-3.755187988	1.25579834	0.01449585	-0.000905991	-0.002861023	-0.742919922	-0.014892578	0.856689453	892.64	-71.61534777	-65.38093438	-120.4928266	-73
12532	0	0.359087944	-0.150688171	0.047924995	0.999999046	0.000329018	-0.000207901	-0.000434875	8.977198601	-3.767204285	1.198124886	0.016450883	-0.010395051	-0.021743776	-0.740722656	-0.012939453	0.850830078	892.76	-71.57530648	-65.44935566	-120.4977302	-73
12533	0	0.357849121	-0.15222168	0.049133301	0.999999046	0.000572205	-0.00020504	-0.000492096	8.946228027	-3.805541992	1.22833252	0.028610232	-0.010252	-0.0246048	-0.743164063	-0.014892578	0.859619141	892.64	-71.50227226	-65.52383325	-120.5083996	-73
12534	0	0.356310844	-0.152117729	0.051540375	0.999999046	-3.05E-05	-0.00034523	-0.000106812	8.907771111	-3.80294323	1.288509369	-0.001525879	-0.017261506	-0.005340576	-0.742919922	-0.017089844	0.859863281	892.66	-71.56251359	-65.56137699	-120.4487458	-73
12535	0	0.361633301	-0.153930664	0.050170898	0.999999046	-0.000301361	8.58E-06	-0.000141144	9.04083252	-3.848266602	1.254272461	-0.015068054	0.000429153	-0.00705719	-0.740722656	-0.015136719	0.859375	892.72	-71.56668192	-65.58971597	-120.4844127	-72
12536	0	0.361858368	-0.153738022	0.051181793	0.999999046	-0.000554085	0.000209808	-0.000389099	9.046459198	-3.843450546	1.27954483	-0.027704241	0.010490418	-0.019454958	-0.742919922	-0.017089844	0.856933594	892.66	-71.53169864	-65.63759359	-120.5951462	-72
12537	0	0.360656738	-0.156433105	0.051391602	0.999999046	-0.000293732	6.96E-05	-5.34E-05	9.016418457	-3.910827637	1.284790039	-0.014686585	0.003480911	-0.002670288	-0.740478516	-0.01953125	0.856933594	892.68	-71.52742201	-65.65378568	-120.6394929	-71
12538	0	0.360970497	-0.153312683	0.052388191	0.999999046	0.000392914	-0.000106812	-1.24E-05	9.024262428	-3.832817078	1.309704781	0.019645691	-0.005340576	-0.000619888	-0.742919922	-0.017089844	0.859863281	892.64	-71.4900235	-65.6717857	-120.6336176	-70
12539	0	0.357788086	-0.151184082	0.051452637	0.999999046	-0.000137329	0.000325203	-6.87E-05	8.944702148	-3.779602051	1.286315918	-0.006866455	0.016260147	-0.003433228	-0.745117188	-0.019287109	0.857177734	892.66	-71.40494424	-65.68004584	-120.747117	-70
12540	0	0.359240532	-0.153468132	0.050849915	0.999999046	-0.0004282	0.000581741	-0.00011158	8.981013298	-3.8367033	1.271247864	-0.02140999	0.029087069	-0.005578995	-0.742919922	-0.019287109	0.857177734	892.6	-71.28815858	-65.6833156	-120.9316522	-71
12541	0	0.360046387	-0.153747559	0.049133301	0.999999046	5.34E-05	0.000523567	-0.000171661	9.001159668	-3.843688965	1.22833252	0.002670288	0.026178361	-0.008583069	-0.745117188	-0.021484375	0.857421875	892.62	-71.1255603	-65.69493323	-121.1062217	-71
12542	0	0.360168457	-0.153679848	0.050257683	0.999999046	-0.000104904	0.00034523	1.05E-05	9.004211426	-3.841996193	1.25644207	-0.005245209	0.017261506	0.000524521	-0.747314453	-0.021484375	0.854736328	892.68	-71.03910937	-65.69313171	-121.2172374	-71
12543	0	0.359130859	-0.152770996	0.047729492	0.999999046	0.000110626	0.00017643	-2.29E-05	8.978271484	-3.819274902	1.193237305	0.005531311	0.008821487	-0.001144409	-0.745117188	-0.021484375	0.857421875	892.72	-70.96629235	-65.70109898	-121.2859984	-71
12544	0	0.358265877	-0.152439117	0.049231529	0.999999046	0.000313759	9.16E-05	-4.96E-05	8.956646919	-3.810977936	1.230788231	0.015687943	0.004577637	-0.002479553	-0.749755859	-0.019042969	0.851806641	892.64	-70.88871919	-65.71499105	-121.3347011	-72
12545	0	0.359741211	-0.151916504	0.049072266	0.999999046	0.00030899	-6.01E-05	6.10E-05	8.993530273	-3.797912598	1.226806641	0.015449524	-0.003004074	0.003051758	-0.749755859	-0.019042969	0.851806641	892.66	-70.85768266	-65.72252724	-121.3330389	-72
12546	0	0.358995438	-0.152539253	0.051074982	0.999999046	0.000326157	-0.000110626	7.25E-05	8.974885941	-3.813481331	1.276874542	0.016307831	-0.005531311	0.003623962	-0.747558594	-0.019287109	0.854492188	892.7	-70.8379933	-65.73059733	-121.3166704	-72
12547	0	0.358703613	-0.151245117	0.05065918	0.999999046	0.000225067	-4.48E-05	0.000255585	8.967590332	-3.78112793	1.266479492	0.011253357	-0.002241135	0.012779236	-0.747558594	-0.017089844	0.857177734	892.76	-70.82959307	-65.71630415	-121.3003765	-72
12548	0	0.361193657	-0.151895523	0.051364899	0.999999046	-0.000227928	-1.53E-05	0.000331879	9.029841423	-3.797388077	1.284122467	-0.011396408	-0.000762939	0.016593934	-0.749755859	-0.019042969	0.854492188	892.68	-70.8725073	-65.69258764	-121.2853487	-72
12549	0	0.360351563	-0.151916504	0.052978516	0.999999046	4.58E-05	4.77E-06	0.000118256	9.008789063	-3.797912598	1.324462891	0.002288818	0.000238419	0.005912781	-0.749755859	-0.019042969	0.851806641	892.66	-70.86142354	-65.69116032	-121.2951934	-72
12550	0	0.360131264	-0.152607918	0.053177834	0.999999046	-9.16E-05	0.000232697	0.000254631	9.003281593	-3.815197945	1.329445839	-0.004577637	0.011634827	0.012731552	-0.747314453	-0.019287109	0.8515625	892.68	-70.82280402	-65.66627865	-121.3523173	-72
12551	0	0.364685059	-0.152526855	0.051269531	0.999999046	0.000431061	0.000256538	7.63E-05	9.117126465	-3.813171387	1.281738281	0.02155304	0.01282692	0.003814697	-0.749755859	-0.016845703	0.8515625	892.68	-70.70402237	-65.65978054	-121.4315406	-72
12552	0	0.366466522	-0.152906418	0.050123215	0.999999046	0.000407219	-2.29E-05	7.63E-05	9.161663055	-3.822660446	1.253080368	0.020360947	-0.001144409	0.003814697	-0.747558594	-0.019287109	0.854492188	892.62	-70.65519716	-65.66388914	-121.437258	-72
12553	0	0.362792969	-0.15222168	0.05255127	0.999999046	0.001026154	-0.000376701	3.05E-05	9.069824219	-3.805541992	1.313781738	0.051307688	-0.018835072	0.001525879	-0.747558594	-0.017089844	0.848632813	892.74	-70.61630909	-65.68636095	-121.3544824	-72
12554	0	0.357392311	-0.148165703	0.054171562	0.999998093	0.001452446	-0.00083065	5.34E-05	8.934807777	-3.70414257	1.354289055	0.072622333	-0.041532536	0.002670289	-0.747558594	-0.014892578	0.851318359	892.66	-70.63908302	-65.72362332	-121.15037	-73
12555	0	0.360351563	-0.146484375	0.054443359	0.999999046	0.001144409	-0.000452995	-0.000236511	9.008789063	-3.662109375	1.361083984	0.057220474	-0.022649771	-0.011825565	-0.745361328	-0.012695313	0.853759766	892.7	-70.58209159	-65.77800562	-121.0721034	-73
12556	0	0.360407829	-0.146741867	0.05335331	0.999999046	6.39E-05	0.000226974	-0.000355721	9.010195732	-3.668546677	1.333832741	0.003194809	0.011348725	-0.017786027	-0.745361328	-0.010498047	0.853759766	892.62	-70.47513301	-65.81944861	-121.1839215	-73
12557	0	0.359985352	-0.147460938	0.051391602	0.999999046	-0.000259399	0.000203133	7.63E-06	8.999633789	-3.686523438	1.284790039	-0.012969971	0.010156632	0.00038147	-0.745361328	-0.010498047	0.853759766	892.66	-70.4418484	-65.82259179	-121.2556226	-73
12558	0	0.359230042	-0.144257545	0.049508095	0.999999046	-0.00022316	7.06E-05	2.19E-05	8.980751038	-3.606438637	1.23770237	-0.01115799	0.003528595	0.001096725	-0.742919922	-0.012939453	0.850830078	892.6	-70.43769184	-65.82949832	-121.2913263	-73
12559	0	0.357299805	-0.141235352	0.047668457	0.999999046	-0.001277924	0.0004282	8.01E-05	8.932495117	-3.530883789	1.191711426	-0.063896199	0.021409995	0.004005433	-0.747802734	-0.010498047	0.853759766	892.62	-70.47360743	-65.81676319	-121.4148867	-73
12560	0	0.356747627	-0.144161224	0.047482491	0.999999046	-0.001326561	0.000297546	-0.000149727	8.918690681	-3.604030609	1.187062263	-0.066328069	0.014877324	-0.007486346	-0.747558594	-0.017089844	0.848632813	892.64	-70.52727946	-65.83409507	-121.5262667	-74
12561	0	0.357910156	-0.144226074	0.046386719	0.999999046	-0.001190186	-4.48E-05	-0.000652313	8.947753906	-3.605651855	1.159667969	-0.059509296	-0.002241135	-0.032615672	-0.747558594	-0.017089844	0.848632813	892.66	-70.60541947	-65.91907595	-121.5930395	-76
12562	0	0.358898163	-0.146313667	0.047591209	0.999998093	-0.001120567	-0.000323296	-0.000927925	8.972454071	-3.657841682	1.189780235	-0.056028387	-0.016164786	-0.046396273	-0.744873047	-0.021484375	0.848876953	892.6	-70.72007904	-66.04457684	-121.6112171	-77
12563	0	0.362243652	-0.1484375	0.049560547	0.999998093	-0.001204491	-0.000331879	-0.001010895	9.056091309	-3.7109375	1.239013672	-0.060224559	-0.01659394	-0.050544761	-0.747070313	-0.025878906	0.852050781	892.62	-70.84004452	-66.17939964	-121.6343187	-79
12564	0	0.36270237	-0.14977932	0.049995422	0.999998093	-0.001426697	-0.000275612	-0.000595093	9.067559242	-3.744482994	1.249885559	-0.071334868	-0.0137806	-0.029754651	-0.744628906	-0.030273438	0.846679688	892.6	-71.00778014	-66.26700905	-121.6334668	-79
12565	0	0.36315918	-0.149963379	0.054748535	0.999998093	-0.001482964	-0.00030899	-0.000198364	9.078979492	-3.749084473	1.368713379	-0.074148207	-0.01544953	-0.009918217	-0.746826172	-0.036621094	0.855957031	892.68	-71.22388532	-66.3126425	-121.5869189	-81
12566	0	0.35934639	-0.148889542	0.055975914	0.999998093	-0.001431465	-0.000134468	-8.77E-05	8.983659744	-3.722238541	1.39939785	-0.071573282	-0.006723406	-0.004386903	-0.741943359	-0.036865234	0.849853516	892.68	-71.39982519	-66.33953863	-121.5771544	-82
12567	0	0.359375	-0.151062012	0.056640625	0.999999046	-0.000801086	8.87E-05	-0.000370026	8.984375	-3.776550293	1.416015625	-0.040054327	0.004434586	-0.018501284	-0.741699219	-0.041259766	0.850341797	892.68	-71.42393236	-66.3885707	-121.6545967	-83
12568	0	0.361124039	-0.150030136	0.055486679	0.999999046	-0.000699043	0.000473022	-0.000587463	9.028100967	-3.750753403	1.387166977	-0.03495217	0.023651127	-0.029373174	-0.744140625	-0.043212891	0.853515625	892.56	-71.32159177	-66.44685042	-121.8568395	-84
12569	0	0.362854004	-0.152404785	0.052246094	0.999999046	-0.000869751	0.000889778	-0.000358582	9.071350098	-3.810119629	1.306152344	-0.043487561	0.044488919	-0.017929082	-0.746337891	-0.045410156	0.848144531	892.54	-71.15362883	-66.46443286	-122.152254	-83
12570	0	0.362203598	-0.152414322	0.049388885	0.999998093	-0.001084328	0.001395226	-5.34E-05	9.055089951	-3.810358047	1.234722137	-0.054216413	0.069761313	-0.002670289	-0.748535156	-0.049804688	0.851318359	892.62	-70.9109282	-66.42941539	-122.5560511	-82
12571	0	0.361816406	-0.15411377	0.047058105	0.999997139	-0.001506805	0.001515388	2.67E-05	9.045410156	-3.852844238	1.176452637	-0.075340328	0.075769482	0.001335145	-0.748291016	-0.052001953	0.845947266	892.62	-70.6955512	-66.3802513	-122.9829142	-82
12572	0	0.360574722	-0.154450417	0.044693947	0.999998093	-0.000934601	0.001259804	-1.14E-05	9.014368057	-3.861260414	1.117348671	-0.046730061	0.062990214	-0.000572205	-0.750488281	-0.054199219	0.840332031	892.64	-70.47668981	-66.34401663	-123.3426066	-81
12573	0	0.358215332	-0.151672363	0.046020508	0.999999046	-0.000854492	0.00086689	0.000152588	8.955383301	-3.791809082	1.150512695	-0.04272462	0.043344509	0.007629396	-0.755126953	-0.053955078	0.843505859	892.62	-70.36145223	-66.3045365	-123.5788022	-82
12574	0	0.356992722	-0.151247978	0.044915199	0.999999046	-0.000965118	0.000965118	-0.000180244	8.924818039	-3.781199455	1.122879982	-0.048255936	0.048255936	-0.009012225	-0.757324219	-0.055908203	0.84375	892.62	-70.20688308	-66.29676585	-123.8718896	-83
12575	0	0.357666016	-0.151672363	0.043518066	0.999998093	-0.001223564	0.001205444	-0.000682831	8.941650391	-3.791809082	1.08795166	-0.061178242	0.060272251	-0.03414156	-0.757324219	-0.056152344	0.838134766	892.6	-69.97926943	-66.33323055	-124.2767761	-82
12576	0	0.359238625	-0.155743599	0.043513298	0.999997139	-0.00178051	0.00084877	-0.00091362	8.980965614	-3.893589973	1.087832451	-0.089025568	0.042438541	-0.045681036	-0.759521484	-0.060302734	0.838623047	892.54	-69.88268569	-66.4078037	-124.6083115	-81
12577	0	0.35534668	-0.159362793	0.047546387	0.999998093	-0.001372337	0.000320435	-0.00113678	8.883666992	-3.984069824	1.188659668	-0.068616905	0.016021737	-0.05683902	-0.761474609	-0.066894531	0.833496094	892.62	-69.84914556	-66.52645766	-124.8211716	-81
12578	0	0.353855133	-0.16364193	0.050374031	0.999999046	-0.000629425	2.29E-05	-0.001168251	8.846378326	-4.091048241	1.259350777	-0.031471262	0.00114441	-0.058412569	-0.758789063	-0.073486328	0.836914063	892.76	-69.80111845	-66.6592883	-124.9571938	-81
12579	0	0.361328125	-0.165039063	0.051025391	0.999999046	0.000198364	0.000130653	-0.001235962	9.033203125	-4.125976563	1.275634766	0.009918216	0.006532671	-0.061798112	-0.761230469	-0.073486328	0.833984375	892.66	-69.62459595	-66.79415561	-125.1297444	-84
12580	0	0.363250732	-0.165282249	0.048193932	0.999999046	0.000201225	0.000637054	-0.000908852	9.081268311	-4.132056236	1.204848289	0.010061266	0.031852729	-0.045442591	-0.760986328	-0.075683594	0.834228516	892.62	-69.35074026	-66.8725081	-125.4077842	-89
12581	0	0.355407715	-0.166015625	0.053283691	0.999999046	0.000839233	0.000172615	-0.000732422	8.885192871	-4.150390625	1.332092285	0.041961679	0.008630754	-0.036621102	-0.760986328	-0.073486328	0.831298828	892.56	-69.13643441	-66.94926444	-125.5412747	-91
12582	0	0.346412659	-0.1638937	0.053555489	0.999997139	0.001932144	0.000469208	-0.000805855	8.660316467	-4.097342491	1.338887215	0.096607282	0.023460406	-0.040292771	-0.758789063	-0.073486328	0.833984375	892.62	-68.7144586	-67.02017792	-125.7643281	-83
12583	0	0.3515625	-0.162780762	0.051574707	0.999994278	0.002224922	0.001773834	-0.001743317	8.7890625	-4.069519043	1.289367676	0.111246315	0.088691876	-0.087165994	-0.761230469	-0.071289063	0.831054688	892.56	-67.83481059	-67.1335649	-126.4476339	-79
12584	0	0.355028152	-0.161293983	0.043421745	0.999992371	0.001361847	0.002243996	-0.002608299	8.875703812	-4.032349586	1.085543633	0.068092502	0.112200039	-0.13041526	-0.761230469	-0.069091797	0.830810547	892.66	-66.83822533	-67.31258312	-127.3631442	-76
12585	0	0.351867676	-0.157653809	0.040039063	0.999993324	0.001197815	0.001534462	-0.003017426	8.796691895	-3.941345215	1.000976563	0.059890876	0.076723264	-0.150871601	-0.765625	-0.071044922	0.825683594	892.74	-65.98177685	-67.56076429	-128.1468575	-75
12586	0	0.353204727	-0.139742851	0.040725708	0.99998951	0.002017975	0.000415802	-0.00387764	8.830118179	-3.493571281	1.0181427	0.100899067	0.020790167	-0.193882612	-0.765625	-0.073242188	0.825683594	892.72	-65.19917298	-67.94749594	-128.7477287	-73
12587	0	0.363952637	-0.117553711	0.042419434	0.999976158	0.00352478	0.000790596	-0.005859375	9.098815918	-2.938842773	1.06048584	0.176240405	0.039530113	-0.292971064	-0.765625	-0.073242188	0.825683594	892.6	-63.87181074	-68.51767479	-129.7464566	-73
12588	0	0.353204727	-0.09688282	0.043674469	0.999979973	0.000323296	0.001569748	-0.005990982	8.830118179	-2.422070503	1.091861725	0.016164883	0.078487899	-0.299551023	-0.763183594	-0.075683594	0.822998047	892.68	-62.62879614	-69.05426314	-131.0426966	-72
12589	0	0.337158203	-0.083496094	0.037841797	0.99996376	-0.006682396	0.002033234	-0.004673004	8.428955078	-2.087402344	0.946044922	-0.33412373	0.101662879	-0.233652958	-0.767333984	-0.086425781	0.82421875	892.66	-62.19926312	-69.42731383	-132.3216815	-72
12590	0	0.396927834	-0.122339249	0.055253983	0.999930382	-0.009464264	-0.001491547	-0.006759644	9.923195839	-3.058481216	1.381349564	-0.47322404	-0.074579041	-0.337989923	-0.764160156	-0.106201172	0.816894531	892.62	-62.72607201	-70.20029979	-132.9168821	-72
12591	0	0.4140625	-0.145751953	0.070800781	0.999910355	-0.004515648	-0.005046844	-0.011501312	10.3515625	-3.643798828	1.770019531	-0.225789098	-0.252349717	-0.575082688	-0.756103516	-0.130371094	0.815673828	892.56	-62.99726726	-71.64351666	-133.1802603	-69
12592	0	0.349117279	-0.142374992	0.081786156	0.999904633	-0.004161835	-0.003623009	-0.012594223	8.727931976	-3.559374809	2.044653893	-0.208098293	-0.181156145	-0.629730995	-0.743652344	-0.154541016	0.828369141	892.6	-62.55931704	-73.1210686	-134.1418792	-66
12593	0	0.314086914	-0.145202637	0.088195801	0.999880791	-0.010803223	0.000187874	-0.011013031	7.852172852	-3.630065918	2.20489502	-0.540182564	0.009394065	-0.550673398	-0.735351563	-0.181152344	0.824462891	892.72	-61.71699898	-74.22760412	-136.3101586	-64
12594	0	0.318924904	-0.177339554	0.096757889	0.99988842	-0.008453369	-0.000110626	-0.012296677	7.973122597	-4.433488846	2.41894722	-0.422684145	-0.005531516	-0.614856653	-0.731445313	-0.216064453	0.818603516	892.72	-60.19836207	-75.46137954	-138.8902005	-64
12595	0	0.334411621	-0.184814453	0.090087891	0.999897003	-0.002211571	-0.000450134	-0.014156342	8.360290527	-4.620361328	2.252197266	-0.110582325	-0.022507485	-0.707841322	-0.725830078	-0.242431641	0.823242188	892.68	-57.20958085	-76.86474499	-142.2331471	-68
12596	0	0.337864876	-0.187657356	0.096381187	0.999916077	0.001626968	-0.000548363	-0.012795448	8.446621895	-4.691433907	2.409529686	0.081350679	-0.027418898	-0.639790188	-0.718261719	-0.255859375	0.826660156	892.62	-53.51038924	-78.09107523	-145.835238	-64
12597	0	0.33795166	-0.175964355	0.086608887	0.999954224	0.000229836	0.000938416	-0.009483337	8.448791504	-4.399108887	2.165222168	0.01149195	0.046921487	-0.474174051	-0.708740234	-0.264892578	0.829833984	892.6	-49.78528825	-78.85519035	-149.6124462	-66
12598	0	0.37274456	-0.195802689	0.094292641	0.999964714	-0.002109528	0.001419067	-0.007923126	9.318614006	-4.895067215	2.357316017	-0.105477597	0.070954188	-0.396160883	-0.7109375	-0.266845703	0.830078125	892.66	-46.28137939	-79.39422234	-153.4229122	-66
12599	0	0.428222656	-0.216003418	0.087646484	0.999956131	0.003365517	0.000652313	-0.008678436	10.70556641	-5.400085449	2.191162109	0.168278275	0.032616135	-0.433928111	-0.708740234	-0.264892578	0.832763672	892.66	-41.75574854	-79.99901894	-157.6211144	-72
12600	0	0.47746563	-0.20494175	0.082228661	0.99996376	0.005283356	-0.000388145	-0.006526947	11.93664074	-5.123543739	2.055716515	0.264170897	-0.019407501	-0.326351195	-0.707275391	-0.247314453	0.839599609	892.6	-38.10626557	-80.47667561	-160.6812125	-66
12601	0	0.481628418	-0.204589844	0.078125	0.999991417	0.003604889	-0.00190258	-0.000362396	12.04071045	-5.114746094	1.953125	0.180244949	-0.095129279	-0.018119863	-0.706298828	-0.218994141	0.8515625	892.56	-38.47227058	-80.63280651	-159.8293612	-64
12602	0	0.464261055	-0.215535164	0.094394684	0.999871254	0.013624191	-0.005653381	0.006250381	11.60652637	-5.388379097	2.359867096	0.681238706	-0.28268116	0.312532443	-0.701416016	-0.173339844	0.853271484	892.76	-42.9339399	-80.60858109	-153.672915	-65
12603	0	0.441650391	-0.148193359	0.074035645	0.99969101	0.020562172	-0.003307343	0.013507843	11.04125977	-3.704833984	1.850891113	1.028214213	-0.165384114	0.675461533	-0.6953125	-0.090820313	0.848876953	892.56	-48.51854073	-79.70801472	-145.5696104	-68
12604	0	0.37630558	-0.08730793	0.048838615	0.999633789	0.009046555	0.004368782	0.025099754	9.407639503	-2.18269825	1.220965385	0.452382849	0.218465721	1.25514065	-0.691894531	0.007080078	0.820800781	892.56	-54.39406285	-77.08382779	-138.462595	-72
12605	0	0.366333008	-0.087341309	0.043762207	0.999355316	0.000596046	0.006652832	0.035274506	9.158325195	-2.183532715	1.094055176	0.029808728	0.3327131	1.76410438	-0.699707031	0.098388672	0.776855469	892.56	-60.19083806	-73.20642142	-132.3559659	-75
12606	0	0.38484478	-0.076195717	0.027141571	0.999306679	0.000598907	0.007406235	0.036465645	9.621119499	-1.904892921	0.678539276	0.02995229	0.370397268	1.823703365	-0.695068359	0.180664063	0.715820313	892.62	-63.70446108	-69.06107403	-128.5477845	-76
12607	0	0.343383789	-0.07220459	0.016174316	0.999511719	0.001099586	0.008731842	0.029972076	8.584594727	-1.805114746	0.40435791	0.05498827	0.436663136	1.498847646	-0.685302734	0.25390625	0.649658203	892.6	-64.98835284	-65.47983911	-127.0031633	-74
12608	0	0.311050415	-0.077907562	0.011237144	0.999681473	0.003978729	0.007634163	0.023690224	7.776260376	-1.947689056	0.280928612	0.198957534	0.381748576	1.184636648	-0.670166016	0.305419922	0.587646484	892.62	-65.25965095	-62.60191935	-126.1912593	-69
12609	0	0.297790527	-0.077209473	0.015991211	0.999794006	0.005513191	0.004444122	0.018985748	7.444763184	-1.930236816	0.399780273	0.275678429	0.222221325	0.94935239	-0.649902344	0.345703125	0.529296875	892.62	-65.45669198	-60.3698921	-125.2524498	-66
12610	0	0.264009476	-0.080517769	0.01832962	0.99985981	0.004812241	0.001998901	0.015904427	6.600236893	-2.012944221	0.458240509	0.240623264	0.099949735	0.795258458	-0.614746094	0.370117188	0.468505859	892.54	-65.83642948	-58.57708893	-124.1804854	-66
12611	0	0.278381348	-0.094116211	0.021789551	0.999913216	0.005413055	0.001786232	0.011837006	6.959533691	-2.352905273	0.54473877	0.270660558	0.089314169	0.591867308	-0.581542969	0.381835938	0.408935547	892.56	-65.81443241	-57.22214445	-123.4866384	-68
12612	0	0.306500435	-0.112380028	0.036030769	0.999933243	0.009813309	0.000344276	0.006070137	7.662510872	-2.809500694	0.900769234	0.490676335	0.017214204	0.303513593	-0.554443359	0.371582031	0.345703125	892.66	-65.08828213	-56.54370727	-123.0299239	-73
12613	0	0.372802734	-0.12109375	0.033081055	0.999931335	0.011487007	0.000404358	-0.001899719	9.320068359	-3.02734375	0.827026367	0.57436335	0.020218353	-0.094988111	-0.537841797	0.342285156	0.270507813	892.56	-63.576941	-56.6964434	-123.2866194	-80
12614	0	0.48806572	-0.143351555	0.041622162	0.999878883	0.007659912	-0.000183105	-0.013542175	12.20164299	-3.583788872	1.040554047	0.383011061	-0.009155643	-0.677136089	-0.543701172	0.282958984	0.207275391	892.62	-61.62596395	-58.0685995	-124.5860337	-70
12615	0	0.490722656	-0.16217041	0.068664551	0.999708176	0.005543709	-0.003662109	-0.02318573	12.26806641	-4.054260254	1.71661377	0.277212321	-0.183123226	-1.159398925	-0.5703125	0.211669922	0.169189453	892.62	-59.41738314	-60.57939691	-126.4381355	-66
12616	0	0.530230522	-0.127539635	0.031809807	0.999702454	-0.004209518	-0.00404644	-0.023665428	13.25576305	-3.188490868	0.795245171	-0.210496769	-0.202342046	-1.183388612	-0.603759766	0.129882813	0.155029297	892.62	-58.0276908	-63.13759774	-128.5826764	-66
12617	0	0.471801758	-0.152587891	0.058776855	0.999633789	-0.015303612	-0.00409317	-0.021907806	11.79504395	-3.814697266	1.469421387	-0.765273831	-0.204683448	-1.095523802	-0.638183594	0.052734375	0.166015625	892.72	-57.85988853	-65.51804749	-130.7352622	-64
12618	0	0.31870842	-0.128170013	0.067409515	0.999812126	-0.010034561	-0.007377625	-0.01484108	7.967710495	-3.204250336	1.685237885	-0.501759453	-0.368904308	-0.742100419	-0.670654297	-0.009277344	0.181396484	892.54	-58.63066996	-67.41285799	-131.1673521	-67
12619	0	0.35559082	-0.098999023	0.054992676	0.99974823	-0.020007133	-0.00730896	-0.006919861	8.889770508	-2.474975586	1.374816895	-1.000440321	-0.365478556	-0.346021973	-0.694824219	-0.053955078	0.206298828	892.56	-61.77203491	-68.52279868	-130.2675657	-67
12620	0	0.377696991	-0.150185585	0.090147972	0.999744415	-0.019454956	-0.008069038	-0.008168221	9.442424774	-3.754639626	2.253699303	-0.972830558	-0.403486243	-0.408445771	-0.716796875	-0.096679688	0.225097656	892.68	-65.09960704	-69.77804768	-129.1062671	-74
12621	0	0.305541992	-0.138793945	0.088684082	0.999873161	-0.010097504	-0.007903099	-0.009437561	7.638549805	-3.469848633	2.217102051	-0.504896515	-0.395171649	-0.47189799	-0.736328125	-0.137451172	0.246582031	892.62	-67.38712829	-71.13495143	-127.9184841	-66
12622	0	0.257647514	-0.130102158	0.107318878	0.999879837	-0.011990547	-0.008465767	-0.00496006	6.441187859	-3.25255394	2.682971954	-0.599551347	-0.423305282	-0.248012929	-0.756347656	-0.171386719	0.267578125	892.62	-70.88927397	-72.01042709	-125.685095	-68
12623	0	0.251647949	-0.143249512	0.090148926	0.999939919	-0.009746552	-0.004584312	-0.001644135	6.29119873	-3.581237793	2.253723145	-0.487337218	-0.229220157	-0.082208353	-0.771728516	-0.203369141	0.293701172	892.66	-73.38930389	-72.34583839	-124.2406312	-69
12624	0	0.261343002	-0.14094162	0.085811615	0.999974251	-0.006409645	0.00043869	-0.003144264	6.533575058	-3.523540497	2.145290375	-0.320484987	0.021934696	-0.157214552	-0.794189453	-0.230957031	0.30859375	892.72	-73.64635045	-72.66869356	-124.748993	-69
12625	0	0.286254883	-0.165710449	0.103942871	0.999950409	-0.005957603	-0.000328064	-0.007957458	7.15637207	-4.14276123	2.598571777	-0.297885084	-0.016403469	-0.397879485	-0.81640625	-0.258544922	0.312011719	892.62	-73.59153583	-73.54139873	-125.5272968	-78
12626	0	0.358233452	-0.198225021	0.094483376	0.999913216	-0.001302719	-0.001512527	-0.013014793	8.955836296	-4.955625534	2.362084389	-0.065137838	-0.075628559	-0.650758474	-0.8359375	-0.299072266	0.327636719	892.62	-72.78162216	-75.00153659	-126.5319403	-73
12627	0	0.455627441	-0.233520508	0.098937988	0.999887466	-0.000433922	-0.000923157	-0.014957428	11.39068604	-5.838012695	2.473449707	-0.021696904	-0.046159566	-0.747899418	-0.851074219	-0.33984375	0.354736328	892.6	-71.10427764	-76.64050518	-128.3209198	-73
12628	0	0.515133858	-0.214787483	0.063436508	0.999943733	-0.006529808	0.001724243	-0.00814724	12.87834644	-5.36968708	1.585912704	-0.326496496	0.086213767	-0.407369588	-0.868408203	-0.378173828	0.375732422	892.62	-69.66461885	-77.42570386	-130.5749805	-76
12629	0	0.548217773	-0.238708496	0.068115234	0.99988842	-0.014568329	0.003151894	0.000823975	13.70544434	-5.967712402	1.702880859	-0.7284435	0.157600535	0.041200261	-0.885986328	-0.406005859	0.384765625	892.66	-69.96424189	-77.17907976	-131.9898049	-79
12630	0	0.511920929	-0.284264565	0.065665245	0.999950409	0.005702019	0.003655434	0.007235527	12.79802322	-7.106614113	1.641631126	0.285105605	0.182774675	0.361782275	-0.90234375	-0.4140625	0.406005859	892.6	-68.88546834	-76.21472898	-132.4439187	-76
12631	0	0.366149902	-0.128356934	0.00994873	0.999530792	0.014466286	0.008644104	0.025558472	9.153747559	-3.20892334	0.248718262	0.723427318	0.432272741	1.278123286	-0.922851563	-0.382568359	0.436035156	892.66	-67.81679596	-73.08519192	-131.851452	-71
12632	0	0.386631966	-0.079411507	0.028761864	0.999115944	0.003546715	0.007518768	0.041204453	9.665799141	-1.985287666	0.719046593	0.177388004	0.376049212	2.060829816	-0.957275391	-0.298339844	0.465087891	892.68	-69.97581572	-68.32845224	-129.1400638	-69
12633	0	0.400634766	-0.128173828	0.013916016	0.999223709	-0.003043175	0.009223938	0.038158417	10.01586914	-3.204345703	0.347900391	-0.152198083	0.461316156	1.908414191	-0.984863281	-0.19921875	0.47265625	892.62	-71.34512746	-63.81505025	-128.0162692	-66
12634	0	0.296995163	-0.083342552	0.006072044	0.999448776	-0.002627373	0.009587288	0.031669617	7.424879074	-2.083563805	0.151801109	-0.131392772	0.479452465	1.583771755	-1.01171875	-0.115478516	0.469970703	892.66	-71.84533676	-59.99204459	-127.7842566	-64
12635	0	0.230957031	-0.084472656	0.028625488	0.999547958	-0.000273705	0.003833771	0.029788971	5.773925781	-2.111816406	0.715637207	-0.013687285	0.191717371	1.489672591	-1.033691406	-0.038574219	0.476318359	892.6	-72.87778528	-56.57613253	-126.6068703	-65
12636	0	0.221587181	-0.105261803	0.026753426	0.999650002	0.008641243	-0.001649857	0.024921417	5.539679527	-2.631545067	0.66883564	0.432112462	-0.082502435	1.246215965	-1.060546875	0.04296875	0.482421875	892.6	-73.34644603	-53.87127295	-124.8348596	-67
12637	0	0.251159668	-0.096435547	0.014709473	0.999635696	0.019089699	-0.002689362	0.018878937	6.278991699	-2.410888672	0.367736816	0.954600798	-0.134484401	0.944061418	-1.081054688	0.12890625	0.5078125	892.66	-72.39253394	-51.87198855	-123.2900861	-67
12638	0	0.316133499	-0.094579697	0.018530846	0.999734879	0.020226479	-0.001389503	0.010845184	7.903337479	-2.364492416	0.463271141	1.011413058	-0.069481297	0.542307006	-1.099121094	0.218994141	0.529785156	892.6	-70.7563843	-50.72734911	-122.4163184	-67
12639	0	0.418640137	-0.10168457	0.006347656	0.999932289	0.011367798	0.001786232	-0.001655579	10.46600342	-2.542114258	0.158691406	0.568402697	0.089313612	-0.082780795	-1.112060547	0.293701172	0.547119141	892.66	-69.14313028	-50.8294746	-122.8157047	-66
12640	0	0.48286438	-0.134478569	0.003822327	0.99985218	-0.000767708	0.00507164	-0.016387939	12.0716095	-3.361964226	0.095558167	-0.038387278	0.253594465	-0.819437248	-1.117919922	0.322265625	0.556640625	892.66	-67.6852581	-52.3670284	-124.7892236	-63
12641	0	0.447021484	-0.160400391	0.034545898	0.999721527	-0.004630089	0.002994537	-0.022922516	11.17553711	-4.010009766	0.863647461	-0.231525893	0.149740742	-1.146231998	-1.126220703	0.298583984	0.550537109	892.68	-66.41243346	-54.66502941	-127.0376594	-66
12642	0	0.523255348	-0.130049706	0.017120361	0.999693871	-0.01083374	-0.000988007	-0.022198677	13.08138371	-3.251242638	0.428009033	-0.5417422	-0.049405363	-1.110046936	-1.124267578	0.252685547	0.548339844	892.6	-66.31377347	-57.06386308	-128.6646037	-66
12643	0	0.407165527	-0.186767578	0.071777344	0.999539375	-0.014289856	-0.005785942	-0.026119232	10.17913818	-4.669189453	1.794433594	-0.714602386	-0.289341476	-1.306161916	-1.121337891	0.185058594	0.545166016	892.62	-67.01840131	-60.10043172	-129.7671509	-66
12644	0	0.371930122	-0.16750145	0.069025993	0.999627113	-0.009711266	-0.011083603	-0.022969246	9.298253059	-4.18753624	1.725649834	-0.485623568	-0.554248955	-1.148604895	-1.109130859	0.108398438	0.556640625	892.66	-68.47251399	-63.04413219	-129.3906221	-66
12645	0	0.384399414	-0.173583984	0.089355469	0.999699593	-0.008213043	-0.014979362	-0.017520905	9.609985352	-4.339599609	2.233886719	-0.410693156	-0.749042894	-0.876132682	-1.085693359	0.044677734	0.577636719	892.62	-71.33997998	-65.54592982	-127.2647503	-74
12646	0	0.331977844	-0.191594124	0.08975029	0.999764442	0.00107193	-0.014652252	-0.015919685	8.299446106	-4.789853096	2.243757248	0.053600689	-0.732669921	-0.796046537	-1.065673828	-0.003662109	0.611816406	892.66	-73.66899153	-67.8138997	-124.6054353	-66
12647	0	0.249023438	-0.13848877	0.09362793	0.99985981	0.00302124	-0.01217556	-0.011047363	6.225585938	-3.462219238	2.340698242	0.151069047	-0.608806354	-0.552393891	-1.043701172	-0.037109375	0.633056641	892.56	-75.91736477	-69.42131711	-121.8278067	-67
12648	0	0.24062252	-0.122879028	0.104766846	0.999911308	-0.008042336	-0.009061813	-0.005404472	6.015563011	-3.071975708	2.619171143	-0.402128572	-0.45310396	-0.270231545	-1.022216797	-0.059326172	0.662353516	892.66	-79.23356153	-70.26621834	-119.2824967	-79
12649	0	0.224365234	-0.134765625	0.070251465	0.999840736	-0.017406464	-0.000872612	-0.003807068	5.609130859	-3.369140625	1.756286621	-0.87036935	-0.043632914	-0.190363491	-1.01171875	-0.090087891	0.675537109	892.62	-81.28683199	-70.72642736	-119.2242087	-70
12650	0	0.282646179	-0.183760643	0.103304863	0.999876976	-0.013986588	0.002513885	-0.006594658	7.06615448	-4.594016075	2.582621574	-0.699357986	0.125699417	-0.329746384	-1.012939453	-0.122802734	0.684082031	892.6	-81.70892378	-71.43980082	-120.474395	-66
12651	0	0.374267578	-0.205871582	0.098815918	0.999904633	-0.00222683	0.002159119	-0.013401031	9.356689453	-5.146789551	2.470397949	-0.111344988	0.107959337	-0.670072706	-1.016113281	-0.157470703	0.684082031	892.62	-80.42535764	-72.92245395	-122.0919664	-66
12652	0	0.471050262	-0.225564003	0.085766792	0.999786377	0.002580643	0.003079414	-0.020267487	11.77625656	-5.639100075	2.144169807	0.129041318	0.153981676	-1.013446446	-1.017089844	-0.192382813	0.689941406	892.68	-77.30261476	-75.13282239	-125.0322976	-66
12653	0	0.488464355	-0.229431152	0.075622559	0.999795914	0.00237751	0.005168915	-0.019374847	12.21160889	-5.735778809	1.890563965	0.118883584	0.258463307	-0.968808218	-1.015869141	-0.227050781	0.698486328	892.66	-72.29758447	-77.11452263	-129.9061792	-67
12654	0	0.561024666	-0.250918388	0.088907242	0.999919891	0.003849983	0.002133369	-0.011799812	14.02561665	-6.272959709	2.222681046	0.19250425	0.106671292	-0.590006213	-1.017089844	-0.255371094	0.709228516	892.6	-68.65977559	-78.29274627	-133.1787113	-68
12655	0	0.555175781	-0.270385742	0.068969727	0.99974823	0.021916389	0.003307343	-0.003330231	13.87939453	-6.759643555	1.724243164	1.095911243	0.165380975	-0.16652548	-1.015136719	-0.253173828	0.729003906	892.66	-63.65592999	-78.46518984	-135.7279646	-70
12656	0	0.361276627	-0.128752708	0.004239082	0.999555588	0.021944046	0.011494637	0.016553879	9.031915665	-3.218817711	0.105977058	1.097364697	0.574816892	0.827816445	-1.022705078	-0.1875	0.735351563	892.6	-59.93194933	-76.14501887	-136.9687071	-67
12657	0	0.423950195	-0.089294434	0.020263672	0.999154091	0.011768341	0.01138401	0.037704468	10.59875488	-2.23236084	0.506591797	0.588582889	0.569360936	1.885754708	-1.041259766	-0.075683594	0.71875	892.54	-61.89432957	-71.70783581	-133.5223363	-64
12658	0	0.390625	-0.105818748	0.00434494	0.998990059	0.000310898	0.013666153	0.042785645	9.765625	-2.645468712	0.108623505	0.015550123	0.683537616	2.140002204	-1.053222656	0.063720703	0.670898438	892.66	-64.03604919	-66.60456217	-131.1850782	-67
12659	0	0.229553223	-0.055725098	0.000671387	0.998950005	-0.013881683	0.011937141	0.041988373	5.738830566	-1.393127441	0.016784668	-0.69432712	0.597065991	2.100153508	-1.049804688	0.174316406	0.604736328	892.66	-67.15110928	-61.63741973	-129.4888061	-65
12660	0	0.204493523	-0.072811127	0.0346241	0.999042511	-0.015487671	0.004021645	0.040698051	5.112338066	-1.820278168	0.865602493	-0.774630576	0.201146376	2.035551714	-1.033691406	0.256347656	0.5546875	892.6	-71.00638114	-57.09860355	-127.0765852	-64
12661	0	0.236755371	-0.110168457	0.020202637	0.999551773	-0.000845909	-0.000473022	0.029899597	5.918884277	-2.754211426	0.505065918	-0.042301767	-0.023654652	1.495202931	-1.017333984	0.322998047	0.528320313	892.54	-72.72303944	-53.84536063	-125.1161966	-61
12662	0	0.291716576	-0.083677292	-0.006569862	0.999695778	0.016563416	0.001533508	0.018164635	7.292914391	-2.091932297	-0.164246559	0.828254535	0.07668317	0.90832359	-1.000732422	0.381347656	0.505615234	892.62	-71.44539715	-51.80344525	-124.3427542	-62
12663	0	0.374389648	-0.078796387	-0.002563477	0.999851227	0.015721321	0.003738403	0.005897522	9.359741211	-1.969909668	-0.064086914	0.786104829	0.186929386	0.294890644	-0.995605469	0.435302734	0.478027344	892.72	-69.420574	-51.0249852	-124.6336935	-66
12664	0	0.458170891	-0.104686737	0.008165359	0.999939919	0.006819725	0.003772736	-0.007641792	11.45427227	-2.617168427	0.204133987	0.340993023	0.188640526	-0.382097202	-1.003173828	0.463623047	0.447753906	892.66	-67.73650643	-51.69468586	-125.7954795	-72
12665	0	0.441467285	-0.101379395	0.019775391	0.999851227	-0.001799583	0.003574371	-0.01675415	11.03668213	-2.534484863	0.494384766	-0.089983622	0.178727406	-0.837748952	-1.016113281	0.453125	0.418212891	892.62	-66.47833447	-53.32626647	-127.6477328	-69
12666	0	0.51710701	-0.0936203	0.034261703	0.999796867	-0.008392334	0.000146866	-0.018316269	12.92767525	-2.340507507	0.856542587	-0.419645094	0.007343789	-0.915875418	-1.037841797	0.423095703	0.401855469	892.62	-66.24751067	-55.2757987	-129.1231989	-67
12667	0	0.576721191	-0.164978027	0.049377441	0.999427795	-0.016051292	-0.001064301	-0.02973175	14.41802979	-4.124450684	1.234436035	-0.802717555	-0.053225167	-1.486870804	-1.059082031	0.375976563	0.395507813	892.6	-66.14935007	-58.48549998	-131.4406431	-64
12668	0	0.371230125	-0.174025536	0.10057354	0.999380112	-0.009342194	-0.008418083	-0.032866478	9.280753136	-4.35063839	2.514338493	-0.467206141	-0.420991079	-1.643663255	-1.081298828	0.291503906	0.397949219	892.72	-66.08027263	-62.3632474	-132.7586626	-64
12669	0	0.36895752	-0.121826172	0.094055176	0.999653816	-0.007896423	-0.015589714	-0.01966095	9.223937988	-3.045654297	2.351379395	-0.394866714	-0.779575624	-0.98316089	-1.090087891	0.215820313	0.421630859	892.62	-68.55593371	-65.17514623	-131.0217965	-63
12670	0	0.342198372	-0.171386719	0.109679222	0.999791145	-0.004232407	-0.014507294	-0.013718605	8.554959297	-4.284667969	2.741980553	-0.211635026	-0.725415056	-0.685977885	-1.084228516	0.170166016	0.453369141	892.72	-71.34760641	-67.26353834	-128.512288	-64
12671	0	0.236328125	-0.143188477	0.083190918	0.99988842	-0.001937866	-0.005717278	-0.013595581	5.908203125	-3.579711914	2.079772949	-0.096896884	-0.28587442	-0.679804126	-1.078125	0.130859375	0.473388672	892.66	-71.87531096	-68.98606605	-128.1899155	-65
12672	0	0.221906662	-0.139048576	0.092032433	0.999878883	-0.010163307	-0.001028061	-0.011734962	5.54766655	-3.476214409	2.300810814	-0.508185863	-0.05140512	-0.586771797	-1.081298828	0.09375	0.4765625	892.62	-72.19613202	-70.33462456	-129.0943096	-63
12673	0	0.255554199	-0.197998047	0.089233398	0.999909401	-0.005134583	0.001770973	-0.012260437	6.38885498	-4.949951172	2.230834961	-0.256736821	0.088551314	-0.613040224	-1.086425781	0.052490234	0.471679688	892.66	-70.90071149	-71.62943513	-131.0907294	-69
12674	0	0.28777504	-0.19453907	0.076922417	0.999876022	0.00653553	0.0034132	-0.013859749	7.194375992	-4.863476753	1.923060417	0.326789929	0.17066703	-0.69301591	-1.096435547	0.013671875	0.467041016	892.62	-67.18235978	-72.99266772	-134.2108502	-76
12675	0	0.340209961	-0.194091797	0.091064453	0.999908447	0.004883766	0.001556396	-0.012500763	8.505249023	-4.852294922	2.276611328	0.244195738	0.077822192	-0.625057165	-1.108886719	-0.018798828	0.456054688	892.6	-64.00692707	-74.23671199	-136.9402771	-87
12676	0	0.440573692	-0.215459824	0.086166382	0.999950409	0.002140045	0.000193596	-0.009670258	11.01434231	-5.38649559	2.154159546	0.107004008	0.009679953	-0.483520787	-1.114501953	-0.053466797	0.461914063	892.66	-61.78853933	-75.21995016	-138.988457	-71
12677	0	0.454223633	-0.207763672	0.076843262	0.999988556	0.001229286	0.002243042	-0.003868103	11.35559082	-5.194091797	1.921081543	0.06146453	0.112152502	-0.193405845	-1.118164063	-0.081542969	0.467285156	892.68	-59.91497223	-75.48316515	-140.782573	-70
12678	0	0.535812378	-0.218613625	0.086256027	0.999994278	0.001721382	-0.001605034	0.002191544	13.39530945	-5.465340614	2.156400681	0.086069255	-0.080251832	0.109577368	-1.122314453	-0.098632813	0.48046875	892.62	-60.76901137	-75.35251352	-139.700188	-67
12679	0	0.589172363	-0.262084961	0.09387207	0.999830246	0.018105507	-0.001773834	0.002799988	14.72930908	-6.552124023	2.346801758	0.90532647	-0.08869672	0.140007296	-1.118164063	-0.098632813	0.508544922	892.72	-59.93719409	-75.16504456	-138.4202703	-65
12680	0	0.361001015	-0.080864906	0.018100739	0.999591827	0.021669388	0.006102562	0.01757431	9.025025368	-2.021622658	0.452518463	1.083616735	0.305169593	0.878835015	-1.114990234	-0.072509766	0.534667969	892.72	-58.91230049	-73.06701576	-136.9103313	-66
12681	0	0.422912598	-0.02557373	0.022521973	0.99935627	0.003730774	0.008881569	0.034557343	10.57281494	-0.639343262	0.563049316	0.186578732	0.444173756	1.728237972	-1.113525391	-0.000488281	0.548583984	892.6	-61.61840377	-69.11812993	-133.6038562	-67
12682	0	0.385643005	-0.07384491	0.034629822	0.999436378	-0.004241943	0.01281929	0.030730247	9.641075134	-1.846122742	0.865745544	-0.212137016	0.641084929	1.536801047	-1.110107422	0.084472656	0.538574219	892.66	-62.89526738	-65.31739269	-132.747599	-69
12683	0	0.248779297	-0.059082031	0.023925781	0.999684334	-0.009811401	0.01157093	0.020023346	6.219482422	-1.477050781	0.598144531	-0.490621682	0.578607393	1.001272631	-1.109619141	0.140869141	0.516845703	892.66	-63.69177813	-62.6746204	-133.1135535	-69
12684	0	0.214979172	-0.070467949	0.043094635	0.999819756	-0.00483036	0.005435944	0.017515182	5.374479294	-1.761698723	1.077365875	-0.241532501	0.271813475	0.87581163	-1.110351563	0.162597656	0.50390625	892.62	-64.80859498	-60.60065047	-132.477205	-65
12685	0	0.233459473	-0.083007813	0.028625488	0.999834061	0.009324074	0.000400543	0.015602112	5.836486816	-2.075195313	0.715637207	0.466229375	0.020028264	0.780148571	-1.108886719	0.182128906	0.505126953	892.74	-64.96128265	-58.96877479	-131.0693921	-64
12686	0	0.319869041	-0.066212654	-0.00183773	0.999795914	0.014906883	0.002207756	0.013410568	7.996726036	-1.655316353	-0.04594326	0.745394722	0.11039529	0.670573897	-1.114501953	0.204101563	0.511962891	892.78	-63.94760125	-57.485379	-130.2592893	-67
12687	0	0.388549805	-0.054199219	0.000427246	0.999919891	0.008397102	0.004268646	0.008369446	9.713745117	-1.354980469	0.010681152	0.419866229	0.213437961	0.418483365	-1.122558594	0.224121094	0.522216797	892.72	-62.96731984	-56.42924534	-130.2885534	-73
12688	0	0.435540199	-0.074419022	0.007353783	0.999974251	-0.006487846	0.002872467	-0.000113487	10.88850498	-1.86047554	0.183844566	-0.324395041	0.143624557	-0.00567441	-1.136962891	0.224853516	0.537109375	892.66	-63.25864429	-56.32128294	-130.8393073	-77
12689	0	0.436279297	-0.100952148	0.02545166	0.999895096	-0.011870384	0.000648499	-0.00818634	10.90698242	-2.523803711	0.636291504	-0.593539822	0.032426053	-0.409331231	-1.154785156	0.190673828	0.569335938	892.72	-63.88007084	-57.16504315	-131.7311518	-83
12690	0	0.577581406	-0.120415688	0.018350601	0.999801636	-0.011780739	-0.003300667	-0.015713692	14.43953514	-3.010392189	0.45876503	-0.589075884	-0.165044251	-0.785736529	-1.167236328	0.141357422	0.608154297	892.66	-64.5198836	-58.99801255	-132.5758836	-79
12691	0	0.473571777	-0.147216797	0.03704834	0.999542236	-0.014842033	-0.002868652	-0.026180267	11.83929443	-3.680419922	0.926208496	-0.742214753	-0.143454474	-1.309212838	-1.178955078	0.065673828	0.654785156	892.74	-64.46638046	-61.90000722	-134.5965288	-64
12692	0	0.343466759	-0.130623817	0.053806305	0.999549866	-0.015968323	-0.011630058	-0.022557259	8.586668968	-3.265595436	1.345157623	-0.798535826	-0.581590086	-1.128032004	-1.176025391	-0.0234375	0.698974609	892.66	-66.57976671	-64.85802046	-134.2903945	-68
12693	0	0.414672852	-0.152404785	0.07989502	0.999676704	-0.007606506	-0.020121574	-0.013530731	10.36682129	-3.810119629	1.997375488	-0.380366266	-1.006187042	-0.676609401	-1.155273438	-0.093261719	0.760498047	892.72	-71.02865989	-67.19180666	-130.3948677	-67
12694	0	0.375980377	-0.191678047	0.111177444	0.999592781	0.005680084	-0.02381897	-0.014603615	9.39950943	-4.79195118	2.779436111	0.284042702	-1.191109894	-0.730279701	-1.118164063	-0.12890625	0.852294922	892.74	-75.79040908	-69.62718846	-124.5874286	-65
12695	0	0.274597168	-0.108886719	0.08807373	0.999742508	0.001255989	-0.019428253	-0.011592865	6.864929199	-2.722167969	2.201843262	0.062804829	-0.971495803	-0.579692862	-1.067871094	-0.143066406	0.938964844	892.66	-81.074808	-71.42377034	-118.8309403	-60
12696	0	0.261624336	-0.124922752	0.096915245	0.99977684	-0.014726639	-0.014056206	-0.005556107	6.540608406	-3.12306881	2.422881126	-0.736386601	-0.702862461	-0.277825951	-1.026367188	-0.165527344	1.018066406	892.62	-87.46804083	-72.26156733	-113.8713553	-60
12697	0	0.273376465	-0.17956543	0.083312988	0.999950409	-0.007514	-0.005500793	-0.003513336	6.834411621	-4.489135742	2.082824707	-0.3757062	-0.275044214	-0.17566971	-0.993164063	-0.198974609	1.075927734	892.68	-90.30766118	-72.71354965	-111.7931303	-60
12698	0	0.273700714	-0.17930603	0.095071793	0.999977112	0.002558708	-0.000487328	-0.006171227	6.842517853	-4.482650757	2.376794815	0.127936366	-0.024366561	-0.308563633	-0.977539063	-0.205566406	1.126708984	892.72	-90.19936744	-73.45229708	-111.5959812	-59
12699	0	0.321350098	-0.18157959	0.087158203	0.999962807	0.002456665	-0.000967979	-0.008163452	8.033752441	-4.539489746	2.178955078	0.122834759	-0.048399565	-0.408177615	-0.957763672	-0.199462891	1.179199219	892.62	-90.29118762	-74.41428282	-111.2008319	-59
12700	0	0.437591553	-0.210755348	0.067347527	0.999940872	0.004535675	0.002022743	-0.009661674	10.93978882	-5.268883705	1.683688164	0.226788213	0.101139151	-0.483093227	-0.940429688	-0.190917969	1.234375	892.78	-88.83462857	-75.54170728	-112.1634538	-57
12701	0	0.471984863	-0.198669434	0.043640137	0.999912262	0.004445076	0.008293152	-0.009319305	11.79962158	-4.96673584	1.091003418	0.222260297	0.414669714	-0.465978893	-0.930664063	-0.166748047	1.283203125	892.68	-84.18577131	-76.56762728	-116.4199031	-57
12702	0	0.512975693	-0.198832512	0.040566444	0.999921799	-0.004891396	0.009993553	-0.005576134	12.82439232	-4.970812798	1.01416111	-0.244576092	0.499690558	-0.278813884	-0.937255859	-0.140136719	1.323974609	892.68	-79.45165925	-77.04927899	-121.8477534	-57
12703	0	0.602050781	-0.281982422	0.057739258	0.999950409	0.004376411	0.007671356	-0.004535675	15.05126953	-7.049560547	1.443481445	0.218824167	0.383574112	-0.226787478	-0.947998047	-0.115722656	1.351074219	892.66	-74.58951839	-77.36116538	-126.3095479	-58
12704	0	0.398590088	-0.167928696	-0.013287544	0.999769211	0.013885498	0.014163017	0.008211136	9.964752197	-4.198217392	-0.332188606	0.694328236	0.708205263	0.410588332	-0.961181641	-0.034423828	1.370605469	892.66	-67.74514972	-75.94292474	-131.6977665	-58
12705	0	0.379211426	-0.103515625	0.032043457	0.999446869	0.010182381	0.008960724	0.030345917	9.480285645	-2.587890625	0.801086426	0.50921283	0.448118737	1.517575374	-0.9921875	0.093017578	1.370361328	892.68	-67.81612393	-72.33132634	-130.4013568	-60
12706	0	0.435921669	-0.142572403	0.025968552	0.999221802	0.010401726	0.00496769	0.037714958	10.89804173	-3.564310074	0.649213791	0.520221197	0.248448906	1.886237067	-0.989501953	0.260742188	1.353759766	892.66	-69.49363792	-68.09333319	-127.3401383	-62
12707	0	0.324035645	-0.120666504	-0.012817383	0.999361038	0.003174782	0.008361816	0.03459549	8.100891113	-3.016662598	-0.32043457	0.15877289	0.418179844	1.730142796	-0.963378906	0.425292969	1.324462891	892.72	-70.1658179	-64.03920919	-126.1911457	-58
12708	0	0.247723579	-0.082878113	0.013511658	0.999258041	0.00164032	0.007061958	0.037802696	6.193089485	-2.07195282	0.337791443	0.082036257	0.353185166	1.890601862	-0.935302734	0.5546875	1.275390625	892.66	-71.21619985	-59.68266592	-124.7792297	-56
12709	0	0.248840332	-0.090759277	0.010437012	0.999221802	0.004612923	0.003078461	0.039031982	6.221008301	-2.268981934	0.260925293	0.230705922	0.153962935	1.952105021	-0.883300781	0.672363281	1.217529297	892.66	-72.34931015	-55.32550934	-122.807381	-60
12710	0	0.284142494	-0.098801613	-0.003279686	0.999392509	0.009298325	0.002151489	0.033492088	7.103562355	-2.470040321	-0.081992149	0.465010256	0.107596219	1.674943096	-0.814453125	0.778564453	1.162353516	892.68	-72.52578911	-51.59891181	-121.2617824	-61
12711	0	0.315917969	-0.086181641	-0.005737305	0.99963665	0.010887146	0.00275898	0.024486542	7.897949219	-2.154541016	-0.143432617	0.544423164	0.137965681	1.224475225	-0.746826172	0.860839844	1.098144531	892.72	-71.94437541	-48.84440168	-120.396916	-62
12712	0	0.380812645	-0.083776474	-0.007867813	0.999915123	0.002024651	0.003623962	0.012278557	9.520316124	-2.09441185	-0.196695328	0.101235363	0.181203194	0.613945032	-0.697021484	0.917724609	1.039550781	892.66	-71.76349742	-47.40192075	-120.3297827	-61
12713	0	0.442443848	-0.124938965	0.007507324	0.999959946	-0.007071495	0.004219055	-0.003326416	11.06109619	-3.123474121	0.187683105	-0.353579401	0.210955532	-0.166322987	-0.668212891	0.920654297	0.9921875	892.68	-71.94682901	-47.64779843	-121.1801521	-60
12714	0	0.387346268	-0.139028549	0.022277832	0.999843597	-0.010155678	0.004397392	-0.013742447	9.683656693	-3.47571373	0.556945801	-0.507810241	0.219881024	-0.687158004	-0.675537109	0.883789063	0.964355469	892.66	-72.02944812	-49.03137783	-122.6301704	-62
12715	0	0.507080078	-0.147460938	0.024902344	0.999641418	-0.015322685	0.002174377	-0.021850586	12.67700195	-3.686523438	0.622558594	-0.76622584	0.108731867	-1.092659889	-0.696044922	0.823242188	0.944824219	892.66	-72.59112784	-51.39370635	-124.1892735	-62
12716	0	0.391318321	-0.203344345	0.074631691	0.999360085	-0.01472187	-0.002513885	-0.03249836	9.782958031	-5.083608627	1.865792274	-0.736250546	-0.125721088	-1.625264615	-0.734375	0.739501953	0.9453125	892.72	-73.18062039	-55.09348093	-125.5678199	-62
12717	0	0.352111816	-0.190490723	0.073120117	0.999463081	-0.007457733	-0.009234428	-0.030525208	8.80279541	-4.762268066	1.82800293	-0.372953355	-0.461804007	-1.526533373	-0.765380859	0.648925781	0.940185547	892.74	-74.07831356	-58.80407571	-125.5377984	-72
12718	0	0.397278786	-0.183469772	0.087961197	0.999659538	0.000944138	-0.012889862	-0.02265358	9.931969643	-4.586744308	2.199029922	0.047212232	-0.644566192	-1.132807438	-0.778808594	0.577392578	0.940917969	892.72	-75.25772907	-61.75485007	-124.084307	-67
12719	0	0.349304199	-0.20513916	0.086486816	0.999682426	0.006450653	-0.012278557	-0.021034241	8.73260498	-5.128479004	2.16217041	0.322566788	-0.613992815	-1.051823341	-0.774414063	0.529296875	0.936279297	892.62	-76.0210777	-64.49280699	-122.424362	-65
12720	0	0.265258789	-0.137084961	0.073669434	0.999840736	0.003411293	-0.008563995	-0.015254974	6.631469727	-3.427124023	1.84173584	0.170573684	-0.428222444	-0.762789111	-0.772705078	0.496582031	0.927490234	892.62	-76.81086606	-66.47379752	-121.1447965	-63
12721	0	0.241943359	-0.150634766	0.110534668	0.999874115	-0.008780479	-0.008415222	-0.010112762	6.048583984	-3.765869141	2.763366699	-0.43904228	-0.420778655	-0.505659208	-0.7734375	0.457275391	0.925048828	892.66	-79.47466	-67.85326667	-119.3592079	-64
12722	0	0.235527992	-0.156859398	0.074098587	0.999902725	-0.010773659	-0.00231266	-0.008530617	5.888199806	-3.921484947	1.852464676	-0.538700374	-0.115636754	-0.426544644	-0.764404297	0.406982422	0.92578125	892.66	-80.92523048	-68.90448809	-119.1372021	-58
12723	0	0.266662598	-0.176757813	0.070495605	0.999855042	-0.011130333	0.005130768	-0.011795044	6.666564941	-4.418945313	1.762390137	-0.556543487	0.256550764	-0.58978064	-0.769287109	0.359130859	0.921386719	892.66	-80.01427258	-70.17824096	-121.4763121	-55
12724	0	0.359819412	-0.206903458	0.076747894	0.999812126	-0.006422997	0.006713867	-0.016958237	8.995485306	-5.172586441	1.918697357	-0.321169843	0.335714283	-0.847964684	-0.78515625	0.300537109	0.898681641	892.62	-77.39343435	-71.96632196	-125.0315501	-54
12725	0	0.469299316	-0.216552734	0.060974121	0.999775887	-0.005382538	0.006260872	-0.019470215	11.73248291	-5.413818359	1.524353027	-0.269146958	0.313066934	-0.973583325	-0.801025391	0.244384766	0.881347656	892.58	-73.872455	-73.97815648	-129.3637409	-56
12726	0	0.478394508	-0.215722084	0.047464371	0.999820709	-0.009459496	0.00638485	-0.015104294	11.95986271	-5.393052101	1.186609268	-0.473003033	0.319261549	-0.755259808	-0.818847656	0.177246094	0.867919922	892.68	-70.39919173	-75.42335919	-134.0942547	-58
12727	0	0.538330078	-0.239379883	0.08380127	0.999959946	-0.006159782	-0.00088501	-0.006340027	13.45825195	-5.98449707	2.095031738	-0.307993172	-0.04425107	-0.317005513	-0.837158203	0.118896484	0.853759766	892.68	-70.44458277	-76.15608792	-134.7836651	-56
12728	0	0.515381813	-0.253288269	0.060325623	0.999926567	0.011536598	-0.003545761	0.000828743	12.88454533	-6.332206726	1.508140564	0.576843981	-0.17729238	0.04143816	-0.842773438	0.088623047	0.845214844	892.62	-70.73758914	-76.20910663	-133.131105	-53
12729	0	0.392883301	-0.140869141	0.004150391	0.999792099	0.012589455	0.003269196	0.015666962	9.82208252	-3.521728516	0.103759766	0.629516241	0.163471076	0.783402228	-0.854980469	0.09765625	0.847900391	892.56	-70.18092679	-74.39756731	-132.2246663	-54
12730	0	0.423347473	-0.112359047	0.025467873	0.999512672	0.003509521	0.00528717	0.03055954	10.58368683	-2.808976173	0.636696815	0.175504577	0.26440146	1.52822518	-0.877441406	0.137695313	0.843017578	892.66	-71.5740737	-70.8956248	-130.3520321	-59
12731	0	0.366394043	-0.10925293	0.01965332	0.999433517	-0.003623009	0.006031036	0.03288269	9.159851074	-2.731323242	0.491333008	-0.181184594	0.301608679	1.644444536	-0.900634766	0.190673828	0.834228516	892.62	-73.21050034	-67.10142642	-129.0496417	-61
12732	0	0.240784645	-0.093569756	0.020448685	0.99948597	-0.007027626	0.004903793	0.030885696	6.019616127	-2.339243889	0.511217117	-0.351441496	0.245231669	1.544549366	-0.919189453	0.245849609	0.833496094	892.72	-74.92935825	-63.55108587	-128.0476148	-58
12733	0	0.229980469	-0.098266602	0.035705566	0.999599457	-9.06E-05	0.000659943	0.028274536	5.749511719	-2.456665039	0.89263916	-0.004530557	0.033001532	1.413915346	-0.928466797	0.300537109	0.832519531	892.68	-76.29323184	-60.40186893	-126.5169687	-57
12734	0	0.248516083	-0.089144707	0.011912346	0.999691963	0.008399963	-0.001010895	0.02331543	6.212902069	-2.228617668	0.297808647	0.420041244	-0.050549923	1.165891046	-0.924316406	0.367919922	0.832275391	892.62	-76.54993497	-57.84267246	-125.0978598	-57
12735	0	0.293151855	-0.089538574	0.003051758	0.999816895	0.009099007	0.000598907	0.016803741	7.328796387	-2.238464355	0.076293945	0.454978052	0.029947198	0.840238265	-0.917724609	0.433105469	0.826660156	892.72	-76.08917608	-55.9705597	-124.4041977	-58
12736	0	0.330226898	-0.095565796	0.000875473	0.999934196	0.005806923	0.002120972	0.009584427	8.255672455	-2.389144897	0.021886826	0.290352441	0.106050883	0.479231734	-0.912841797	0.487304688	0.819091797	892.66	-75.46201617	-54.8665633	-124.3578892	-57
12737	0	0.419433594	-0.121826172	-0.00189209	0.999992371	-0.001906395	0.003311157	-0.00038147	10.48583984	-3.045654297	-0.047302246	-0.095319982	0.165558268	-0.019073533	-0.908935547	0.511230469	0.808349609	892.62	-75.13496514	-54.83986719	-125.0242929	-54
12738	0	0.459635735	-0.15407753	0.003492355	0.999928474	-0.001823425	0.003940582	-0.01110363	11.49089336	-3.851938248	0.087308884	-0.091173425	0.197033782	-0.555194657	-0.91796875	0.507080078	0.80078125	892.66	-74.21834217	-55.98169898	-126.3904899	-54
12739	0	0.459289551	-0.161804199	0.023010254	0.99984169	0.0014925	0.001163483	-0.017662048	11.48223877	-4.04510498	0.575256348	0.07462894	0.058177193	-0.883148864	-0.933105469	0.485595703	0.783447266	892.68	-72.96530747	-57.92504195	-127.681789	-58
12740	0	0.55520916	-0.16089344	0.006920815	0.999705315	-0.003350258	-6.87E-05	-0.024038315	13.880229	-4.022336006	0.173020363	-0.167529344	-0.003433565	-1.202033774	-0.947753906	0.451171875	0.778564453	892.72	-71.96019949	-60.60105671	-129.2958737	-58
12741	0	0.37322998	-0.182006836	0.054199219	0.999667168	-0.002994537	-0.003706932	-0.025333405	9.330749512	-4.550170898	1.354980469	-0.149743455	-0.185367136	-1.266810551	-0.96875	0.397460938	0.772705078	892.66	-71.33084858	-63.53690939	-130.3998511	-57
12742	0	0.344805717	-0.133115768	0.070474625	0.999807358	-0.002980232	-0.012303352	-0.014966965	8.620142937	-3.327894211	1.761865616	-0.149021157	-0.615207022	-0.748396172	-0.973632813	0.347412109	0.765625	892.56	-73.3951403	-65.64535744	-128.5066226	-60
12743	0	0.369018555	-0.16027832	0.082214355	0.999830246	-0.001784325	-0.016647339	-0.007675171	9.225463867	-4.006958008	2.055358887	-0.089221277	-0.832414011	-0.383780245	-0.9609375	0.318847656	0.784423828	892.62	-77.29249217	-67.02504199	-124.4888148	-61
12744	0	0.292550087	-0.154929161	0.052879333	0.999894142	0.004475594	-0.012153625	-0.006548882	7.313752174	-3.873229027	1.321983337	0.223787535	-0.607702609	-0.327455573	-0.937255859	0.302734375	0.795654297	892.68	-79.71325924	-68.08113005	-121.3259326	-58
12745	0	0.268920898	-0.116760254	0.08392334	0.999949455	0.002292633	-0.009028435	-0.003707886	6.723022461	-2.919006348	2.098083496	0.114633573	-0.451429301	-0.185397393	-0.923339844	0.300292969	0.803710938	892.56	-81.84529982	-68.70737041	-118.7569209	-57
12746	0	0.273674965	-0.118849754	0.073203087	0.999939919	-0.009233475	-0.005456924	-0.001846313	6.841874123	-2.971243858	1.830077171	-0.461682851	-0.272851608	-0.092317496	-0.913818359	0.293457031	0.812255859	892.62	-84.42809429	-69.03142938	-117.1243486	-57
12747	0	0.275939941	-0.152648926	0.062255859	0.999940872	-0.010085106	0.000617981	-0.003814697	6.898498535	-3.816223145	1.556396484	-0.504265098	0.030899649	-0.190738571	-0.908203125	0.271484375	0.811035156	892.56	-85.27193397	-69.49654653	-117.4593767	-55
12748	0	0.304634094	-0.174017906	0.080414772	0.999954224	-0.002630234	0.002375603	-0.008794785	7.615852356	-4.350447655	2.010369301	-0.131513659	0.118781916	-0.439745817	-0.911865234	0.249755859	0.804443359	892.62	-84.54912879	-70.50841068	-118.5505553	-54
12749	0	0.353942871	-0.174377441	0.06262207	0.999922752	-0.00025177	0.002835274	-0.012084961	8.848571777	-4.359436035	1.565551758	-0.012588824	0.141767329	-0.604263572	-0.919921875	0.228027344	0.792480469	892.66	-83.14906815	-71.87916198	-120.060839	-52
12750	0	0.419109344	-0.193376541	0.042790413	0.99988842	-0.000923157	0.006484985	-0.013381958	10.47773361	-4.834413528	1.069760323	-0.046159545	0.324261265	-0.669122658	-0.932373047	0.199951172	0.772705078	892.62	-80.14338295	-73.3134056	-123.3224783	-56
12751	0	0.434326172	-0.206298828	0.049072266	0.999895096	0.001263618	0.006530762	-0.012821198	10.8581543	-5.157470703	1.226806641	0.063183121	0.326549441	-0.641082168	-0.951904297	0.172119141	0.747558594	892.66	-76.34099402	-74.61887345	-127.1298596	-59
12752	0	0.537452698	-0.233042717	0.056052208	0.999938011	0.004042625	0.000972748	-0.010318756	13.43631744	-5.826067924	1.401305199	0.202135441	0.048638393	-0.515948448	-0.969238281	0.150878906	0.718994141	892.72	-74.26292872	-75.7475289	-128.8033071	-56
12753	0	0.560546875	-0.254760742	0.036071777	0.999732971	0.02216053	0.000156403	-0.006416321	14.01367188	-6.369018555	0.901794434	1.108124825	0.007820823	-0.320844508	-0.977783203	0.140136719	0.700439453	892.72	-70.68870871	-76.44995384	-129.8750964	-57
12754	0	0.36297226	-0.073440552	-0.026463509	0.999804497	0.013261795	0.008205414	0.012104988	9.074306488	-1.836013794	-0.661587715	0.663132831	0.410297345	0.605288726	-0.989746094	0.159667969	0.662597656	892.62	-67.60656956	-74.8260468	-131.4940658	-60
12755	0	0.391662598	-0.06854248	0.030029297	0.999438286	-0.006309509	0.005269051	0.032485962	9.791564941	-1.713562012	0.750732422	-0.315534536	0.26350186	1.62460224	-1	0.194824219	0.631835938	892.66	-70.76144124	-71.13913202	-128.9591894	-55
12756	0	0.391518593	-0.110481262	0.009581566	0.999331474	-0.011679649	0.003740311	0.034430504	9.787964821	-2.762031555	0.239539146	-0.584112566	0.187057196	1.72190871	-0.994628906	0.244628906	0.604736328	892.58	-74.12603755	-67.25744294	-126.7989729	-54
12757	0	0.301879883	-0.095458984	0.000427246	0.999548912	-0.01171875	0.004712105	0.027217865	7.54699707	-2.386474609	0.010681152	-0.58602546	0.235640609	1.361097545	-0.986572266	0.283447266	0.583984375	892.66	-76.0671456	-64.11677748	-126.1473826	-52
12758	0	0.277402878	-0.089508057	0.020924568	0.999757767	-0.002554893	0.001700401	0.021759987	6.935071945	-2.237701416	0.523114204	-0.127754959	0.08502691	1.088086932	-0.978027344	0.306884766	0.567382813	892.58	-77.10069652	-61.66054481	-125.319962	-52
12759	0	0.279602051	-0.089538574	0.010314941	0.999854088	0.007087708	-0.001158714	0.015476227	6.99005127	-2.238464355	0.257873535	0.354402571	-0.057938526	0.773848887	-0.971923828	0.332763672	0.556396484	892.68	-77.21044624	-59.97819833	-124.268727	-54
12760	0	0.308322906	-0.076397896	-0.003060341	0.999903679	0.008242607	-3.81E-06	0.011158943	7.708072662	-1.909947395	-0.076508522	0.412143577	-0.000190741	0.557965058	-0.960693359	0.351806641	0.540039063	892.66	-76.74081108	-58.75408189	-123.7221067	-54
12761	0	0.342590332	-0.082580566	0.001464844	0.999965668	0.001965523	0.002639771	0.007484436	8.564758301	-2.06451416	0.036621094	0.098277233	0.131989996	0.374225971	-0.963134766	0.362792969	0.527832031	892.58	-76.35218098	-57.87629431	-123.9201257	-54
12762	0	0.370357513	-0.098283768	-0.003037453	0.999960899	-0.006816864	0.004440308	0.003242493	9.258937836	-2.457094193	-0.075936317	-0.340847558	0.222018219	0.162126706	-0.967285156	0.352050781	0.520507813	892.68	-76.48259483	-57.42771441	-124.6977267	-52
12763	0	0.402160645	-0.125305176	0.002685547	0.999926567	-0.010318756	0.005921364	-0.002155304	10.05401611	-3.132629395	0.067138672	-0.515950376	0.296075405	-0.107767824	-0.98046875	0.328369141	0.523193359	892.72	-76.53342589	-57.54678751	-126.0474883	-54
12764	0	0.381019592	-0.157962799	0.024125099	0.999925613	-0.006391525	0.004500389	-0.009311676	9.525489807	-3.949069977	0.60312748	-0.319584137	0.225024999	-0.465595272	-0.994873047	0.287597656	0.518798828	892.68	-76.05167021	-58.50127288	-127.4882876	-56
12765	0	0.44909668	-0.143798828	0.02923584	0.99990654	-0.005667686	0.001586914	-0.012290955	11.22741699	-3.594970703	0.730895996	-0.283393095	0.079348159	-0.614566752	-1.014160156	0.242431641	0.526367188	892.66	-75.82360456	-59.8680169	-128.5204289	-60
12766	0	0.553520203	-0.179537773	0.002871513	0.999691963	-0.01366806	0.005395889	-0.019993782	13.83800507	-4.488444328	0.071787834	-0.683473161	0.269822156	-0.999791713	-1.028320313	0.188476563	0.540039063	892.66	-75.27733483	-61.98300225	-130.9416117	-69
12767	0	0.32824707	-0.186340332	0.035888672	0.999670029	-0.014277458	0.005371094	-0.020652771	8.206176758	-4.658508301	0.897216797	-0.713951367	0.268584203	-1.032752041	-1.051025391	0.113037109	0.544677734	892.66	-74.51819799	-64.15642305	-133.6357269	-58
12768	0	0.322307587	-0.177809715	0.11295414	0.999913216	-0.003935814	-0.009233475	-0.008527756	8.057689667	-4.445242882	2.823853493	-0.196796385	-0.461687085	-0.426400115	-1.055175781	0.045654297	0.547607422	892.66	-76.60716468	-65.41183048	-131.8463897	-55
12769	0	0.396972656	-0.189880371	0.08782959	0.999795914	0.010270119	-0.017276764	-0.001972198	9.924316406	-4.747009277	2.195739746	0.513540848	-0.863896926	-0.098616629	-1.045898438	0.025878906	0.593994141	892.66	-79.6074751	-66.08501304	-127.2821632	-50
12770	0	0.343513489	-0.154275894	0.017034531	0.999938965	0.007918358	-0.00716877	-0.00278759	8.587837219	-3.856897354	0.425863266	0.395925934	-0.358445772	-0.139382332	-1.030273438	0.025878906	0.64453125	892.62	-80.40543513	-66.58499197	-125.4250163	-49
12771	0	0.313537598	-0.143737793	0.06829834	0.999994278	0.002797127	-0.001247406	0.000968933	7.838439941	-3.593444824	1.707458496	0.139856579	-0.062370408	0.048446739	-1.025878906	0.019287109	0.664550781	892.62	-80.43447914	-66.54035714	-125.0479299	-49
12772	0	0.307362556	-0.14382267	0.058691025	0.999979019	0.004085541	-0.00165081	0.00454998	7.684063911	-3.59556675	1.46727562	0.204278405	-0.082541064	0.227500529	-1.028564453	0.021728516	0.678955078	892.66	-80.5665175	-66.0966614	-124.3973986	-49
12773	0	0.316833496	-0.16418457	0.044921875	0.999958038	0.00886631	2.67E-05	0.002025604	7.920837402	-4.104614258	1.123046875	0.443321618	0.001335162	0.101281609	-1.027099609	0.034912109	0.700439453	892.72	-79.61088827	-65.90457062	-124.3326342	-54
12774	0	0.325174332	-0.155169487	0.054095268	0.999940872	0.010737419	-0.00124836	0.000160217	8.129358292	-3.879237175	1.352381706	0.536881415	-0.0624192	0.00801102	-1.027832031	0.045898438	0.722412109	892.68	-78.67726785	-65.94887072	-124.00815	-54
12775	0	0.346740723	-0.149230957	0.041748047	0.99996376	0.007592201	-0.002254486	0.002929688	8.668518066	-3.730773926	1.043701172	0.379614573	-0.112725644	0.146486116	-1.023925781	0.056884766	0.73828125	892.72	-78.49358565	-65.70552452	-123.2572288	-56
12776	0	0.356642723	-0.159038544	0.04699707	0.999946594	0.008880615	-0.001267433	0.004944801	8.916068077	-3.975963593	1.174926758	0.444038527	-0.063372767	0.24724439	-1.020751953	0.078613281	0.764648438	892.68	-78.01387523	-65.21399792	-122.6655255	-54
12777	0	0.352294922	-0.140441895	0.045959473	0.999957085	0.007644653	-0.001631737	0.004924774	8.807373047	-3.511047363	1.148986816	0.382238104	-0.081587998	0.246242212	-1.012695313	0.104736328	0.782226563	892.62	-77.75669799	-64.73515923	-121.9807693	-61
12778	0	0.366272926	-0.146710396	0.04649353	0.999992371	0.00152874	-0.000645638	0.0033741	9.156823158	-3.667759895	1.162338257	0.076437177	-0.032281952	0.168705384	-1.007080078	0.126464844	0.799804688	892.66	-77.8785055	-64.40675058	-121.6477967	-56
12779	0	0.372375488	-0.153747559	0.03717041	0.999998093	-0.000185966	0.00018692	0.001750946	9.309387207	-3.843688965	0.929260254	-0.009298329	0.009346013	0.087547348	-1.000732422	0.135009766	0.812988281	892.68	-77.91743386	-64.24021797	-121.6245745	-53
12780	0	0.467504501	-0.178045273	0.038865089	0.999997139	0.000254631	-0.000822067	-0.001950264	11.68761253	-4.451131821	0.971627235	0.012731562	-0.041103394	-0.097513273	-0.996337891	0.137207031	0.829833984	892.62	-77.95693013	-64.51385736	-121.54481	-51
12781	0	0.480957031	-0.183898926	0.035644531	0.999958038	0.006169319	0.000205994	-0.006679535	12.02392578	-4.597473145	0.891113281	0.30847021	0.010299825	-0.33398135	-0.991943359	0.137207031	0.840820313	892.72	-76.81767225	-65.29213277	-122.0188962	-50
12782	0	0.34344101	-0.116752625	0.021264076	0.999992371	0.002484322	0.00165081	-0.002211571	8.586025238	-2.918815613	0.531601906	0.124216365	0.082540702	-0.110578791	-0.994384766	0.139404297	0.846435547	892.66	-75.97417137	-65.53127119	-122.6313271	-49
12783	0	0.32824707	-0.119873047	0.04675293	0.999984741	0.000809669	-0.001121521	0.005191803	8.206176758	-2.996826172	1.168823242	0.04048367	-0.05607632	0.259591398	-0.994628906	0.141601563	0.852050781	892.66	-76.43227091	-65.02161111	-122.0268657	-49
12784	0	0.375512123	-0.123850822	0.030908585	0.999959946	0.007804871	-0.001563072	0.003883362	9.387803078	-3.096270561	0.772714615	0.390248632	-0.078154632	0.194170629	-0.988769531	0.163330078	0.864257813	892.62	-76.10672305	-64.67073039	-121.3987513	-47
12785	0	0.39831543	-0.102111816	0.004577637	0.999973297	0.006627083	0.002861023	-0.00038147	9.957885742	-2.55279541	0.114440918	0.331357027	0.143052393	-0.019073652	-0.985351563	0.187255859	0.873291016	892.66	-74.62984394	-64.67217652	-122.1874442	-46
12786	0	0.404711723	-0.098021507	0.006240845	0.999986649	0.002562523	0.004069328	-0.001473427	10.11779308	-2.450537682	0.156021118	0.128126685	0.203467273	-0.073671652	-0.988037109	0.198242188	0.869873047	892.58	-73.26575903	-64.75063632	-123.3655734	-46
12787	0	0.375610352	-0.11151123	0.013061523	0.999993324	0.002231598	0.001759529	-0.002204895	9.390258789	-2.787780762	0.326538086	0.111580136	0.087976645	-0.110244989	-0.995117188	0.202880859	0.864013672	892.68	-72.41813147	-64.97952076	-124.0164139	-45
12788	0	0.342773438	-0.115751266	0.025344849	0.999965668	0.007749557	-0.001738548	-0.001996994	8.569335938	-2.893781662	0.633621216	0.387482206	-0.086928386	-0.099850817	-0.995117188	0.207275391	0.860839844	892.66	-71.7656299	-65.30619973	-123.7590072	-46
12789	0	0.351806641	-0.107971191	0.026062012	0.999944687	0.009724617	-0.003803253	-0.000225067	8.795166016	-2.699279785	0.651550293	0.486239691	-0.190166116	-0.011253562	-0.989013672	0.222167969	0.864990234	892.72	-71.51769834	-65.51682686	-122.8088864	-47
12790	0	0.361916542	-0.086683273	0.015539169	0.999983788	0.004337311	-0.001651764	0.003069878	9.047913551	-2.167081833	0.388479233	0.216866659	-0.082588622	0.153494673	-0.978271484	0.241455078	0.871337891	892.62	-71.63943569	-65.29422028	-122.1270978	-48
12791	0	0.368835449	-0.089355469	0.016845703	0.999979973	-0.003757477	0.001206398	0.004821777	9.22088623	-2.233886719	0.421142578	-0.187875056	0.060320291	0.241090427	-0.971679688	0.254394531	0.864257813	892.66	-72.14293826	-64.77993889	-122.0427631	-48
12792	0	0.366823196	-0.097634315	0.021100044	0.999965668	-0.007236481	0.001254082	0.003639221	9.17057991	-2.440857887	0.527501106	-0.361828087	0.062704788	0.181963097	-0.969238281	0.256591797	0.864013672	892.74	-72.93498963	-64.39505806	-122.0795156	-48
12793	0	0.357788086	-0.118835449	0.031799316	0.999988556	-0.004649162	-0.000663757	-0.000324249	8.944702148	-2.97088623	0.79498291	-0.232458973	-0.033187989	-0.016212523	-0.964599609	0.251953125	0.866943359	892.58	-73.58651192	-64.5095882	-121.944451	-48
12794	0	0.384705544	-0.122493744	0.032102585	0.99998951	-0.000112534	-0.002586365	-0.003632545	9.617638588	-3.062343597	0.802564621	-0.005626697	-0.129318666	-0.181627876	-0.95703125	0.242919922	0.864501953	892.58	-73.94600162	-65.05046715	-121.5621837	-49
12795	0	0.410827637	-0.134338379	0.036621094	0.999976158	0.000919342	-0.00284481	-0.006195068	10.27069092	-3.358459473	0.915527344	0.045967465	-0.142241646	-0.309755861	-0.952148438	0.234130859	0.870605469	892.66	-74.08901438	-65.88208626	-121.2890365	-48
12796	0	0.370877266	-0.136078835	0.045939445	0.999974251	3.15E-05	-0.002674103	-0.006624222	9.271931648	-3.401970863	1.148486137	0.001573576	-0.133706276	-0.331213907	-0.947021484	0.223144531	0.871337891	892.62	-74.27488656	-66.7549937	-121.0821998	-48
12797	0	0.356994629	-0.125854492	0.058349609	0.999979973	-0.003734589	-0.004027367	-0.003032684	8.924865723	-3.146362305	1.458740234	-0.186730656	-0.201369653	-0.151635211	-0.944335938	0.212158203	0.869140625	892.68	-75.52668104	-67.26923431	-120.1901258	-48
12798	0	0.365550041	-0.133120537	0.057642937	0.999967575	-0.006999016	-0.003815651	-0.000589371	9.13875103	-3.32801342	1.441073418	-0.349954517	-0.190784579	-0.02946885	-0.934326172	0.194335938	0.872802734	892.66	-77.29687917	-67.49536551	-119.1463457	-48
12799	0	0.369567871	-0.146789551	0.058044434	0.999982834	-0.005377769	-0.001850128	-0.000663757	9.239196777	-3.66973877	1.45111084	-0.268889943	-0.092506914	-0.033188048	-0.929199219	0.183349609	0.879150391	892.66	-78.36150669	-67.67084554	-118.664015	-48
12800	0	0.367801666	-0.142673492	0.064061165	0.999992371	-0.003484726	-0.001181602	-0.001285553	9.195041656	-3.566837311	1.601529121	-0.174236739	-0.059080273	-0.064277812	-0.926513672	0.172363281	0.8828125	892.62	-78.996227	-67.89701545	-118.4126683	-48
12801	0	0.359802246	-0.146850586	0.063293457	0.999992371	-0.003523827	-0.000896454	-0.001411438	8.995056152	-3.671264648	1.582336426	-0.176191777	-0.044822807	-0.070572078	-0.923828125	0.163574219	0.880615234	892.68	-79.55241556	-68.12850614	-118.2507223	-48
12802	0	0.359302521	-0.15170002	0.060235023	0.999998093	-0.000695229	1.24E-05	-0.001682281	8.982563019	-3.792500496	1.505875587	-0.034761448	0.000619889	-0.084114121	-0.923339844	0.152587891	0.881347656	892.72	-79.51333242	-68.36931475	-118.3829393	-48
12803	0	0.365844727	-0.146484375	0.056945801	0.999997139	0.000461578	0.001236916	-0.001926422	9.146118164	-3.662109375	1.42364502	0.023078939	0.061845836	-0.096321194	-0.920898438	0.150390625	0.881347656	892.62	-78.97035019	-68.6095268	-118.9103931	-48
12804	0	0.371535301	-0.148118019	0.053789139	0.999995232	-0.000329018	0.002054214	-0.001951218	9.28838253	-3.702950478	1.34472847	-0.016450904	0.102710863	-0.097561015	-0.925292969	0.145996094	0.876464844	892.66	-78.26511369	-68.83027883	-119.7084417	-48
12805	0	0.358032227	-0.14263916	0.049621582	0.999995232	-0.000255585	0.002514839	-0.001289368	8.950805664	-3.565979004	1.240539551	-0.012779253	0.125742127	-0.06446847	-0.9296875	0.141845703	0.874023438	892.62	-77.44232701	-68.96024578	-120.6222921	-47
12806	0	0.360373497	-0.147472382	0.047939301	0.999996185	0.001101494	0.002213478	-0.00111866	9.009337425	-3.68680954	1.198482513	0.055074759	0.11067404	-0.055933067	-0.936523438	0.139892578	0.868896484	892.66	-76.55134676	-69.07217408	-121.4426751	-47
12807	0	0.361816406	-0.145874023	0.042724609	0.999991417	0.00271225	0.002366066	-0.001739502	9.045410156	-3.646850586	1.068115234	0.135612849	0.118303614	-0.086975329	-0.94140625	0.142333984	0.871826172	892.58	-75.37505173	-69.24195487	-122.3678929	-47
12808	0	0.359074593	-0.138383865	0.037913322	0.999993324	0.000962257	0.003252029	-0.00083828	8.976864815	-3.459596634	0.947833061	0.048112967	0.162601802	-0.041914071	-0.948242188	0.142333984	0.866455078	892.66	-74.19915521	-69.27735647	-123.5069431	-47
12809	0	0.388977051	-0.145690918	0.036010742	0.99998951	-0.001865387	0.003983498	-0.000900269	9.72442627	-3.642272949	0.900268555	-0.093269662	0.19917555	-0.045013579	-0.952880859	0.140380859	0.864013672	892.62	-73.12777621	-69.28700227	-124.8788177	-47
12810	0	0.389048576	-0.155036926	0.027359962	0.999979973	-0.003225327	0.005054474	-0.001968384	9.726214409	-3.875923157	0.683999062	-0.161267397	0.252725371	-0.098419843	-0.964111328	0.134277344	0.856689453	892.62	-71.80403083	-69.36484564	-126.6867932	-47
12811	0	0.358032227	-0.161010742	0.035095215	0.999992371	-0.000910759	0.003421783	-0.001571655	8.950805664	-4.025268555	0.877380371	-0.045538063	0.1710896	-0.07858296	-0.972900391	0.123535156	0.849609375	892.62	-70.71705416	-69.44399096	-127.9609134	-48
12812	0	0.342992783	-0.159582138	0.042459488	0.99998951	0.004513741	-0.000169754	-0.000419617	8.574819565	-3.989553452	1.061487198	0.225687801	-0.008487731	-0.020980907	-0.977294922	0.121337891	0.844238281	892.62	-70.15775808	-69.5276398	-128.0099409	-48
12813	0	0.356079102	-0.148925781	0.036987305	0.999970436	0.007522583	-0.00133419	0.000389099	8.901977539	-3.723144531	0.924682617	0.376132819	-0.066710169	0.019455146	-0.977539063	0.130126953	0.843505859	892.52	-69.67684304	-69.56840218	-127.6068541	-48
12814	0	0.374310493	-0.142101288	0.035441399	0.999979973	0.006164551	-2.10E-05	0.001132011	9.357762337	-3.552532196	0.886034966	0.308229557	-0.001049049	0.056600941	-0.976074219	0.145263672	0.844970703	892.62	-69.05725768	-69.4770041	-127.5154764	-48
12815	0	0.366088867	-0.13269043	0.036437988	0.999996185	0.001137733	0.000415802	0.002315521	9.15222168	-3.317260742	0.910949707	0.056886738	0.020790124	0.115776194	-0.976318359	0.154052734	0.847167969	892.62	-69.02209759	-69.24066843	-127.4143595	-48
12816	0	0.358880043	-0.139569283	0.042118073	0.999991417	-0.001132011	-0.000886917	0.003791809	8.972001076	-3.489232063	1.052951813	-0.056600726	-0.044345977	0.189590974	-0.974365234	0.160644531	0.84375	892.64	-69.76482917	-68.89724163	-126.7594407	-48
12817	0	0.356872559	-0.141479492	0.04486084	0.999992371	0.000782967	-0.001834869	0.003166199	8.921813965	-3.536987305	1.121520996	0.039148422	-0.091743683	0.158310306	-0.972412109	0.166992188	0.848632813	892.62	-70.46934884	-68.65415825	-125.9093827	-48
12818	0	0.362215042	-0.139732361	0.048080444	0.999992371	0.002305031	-0.002043724	0.002011299	9.055376053	-3.493309021	1.202011108	0.115251801	-0.102186434	0.100565184	-0.968261719	0.177978516	0.856201172	892.62	-70.93271985	-68.53993361	-125.1291551	-48
12819	0	0.366943359	-0.137573242	0.046142578	0.999995232	0.001926422	-0.001536369	0.001724243	9.173583984	-3.439331055	1.153564453	0.096321251	-0.076818582	0.086212288	-0.966064453	0.184326172	0.852783203	892.58	-71.26758666	-68.43545914	-124.5341197	-47
12820	0	0.363451958	-0.134617805	0.046822548	0.999997139	0.000107765	-0.000995636	0.002099037	9.086298943	-3.365445137	1.170563698	0.005388265	-0.049781844	0.104951953	-0.959228516	0.188476563	0.854736328	892.68	-71.69193999	-68.26867143	-124.0662402	-48
12821	0	0.366516113	-0.139892578	0.049133301	0.999997139	-0.000385284	-0.001009941	0.001964569	9.162902832	-3.497314453	1.22833252	-0.019264237	-0.050497097	0.098228537	-0.959472656	0.192871094	0.857421875	892.62	-72.1579161	-68.11508876	-123.6139624	-48
12822	0	0.364063263	-0.138067245	0.049938202	0.999998093	0.000998497	-0.001070976	0.001058578	9.101581573	-3.451681137	1.248455048	0.049924878	-0.053548842	0.052928953	-0.957275391	0.195068359	0.862792969	892.62	-72.39838826	-68.06097666	-123.233725	-48
12823	0	0.362915039	-0.138427734	0.049743652	0.999999046	0.000896454	-0.000662804	-0.000263214	9.072875977	-3.460693359	1.243591309	0.044822703	-0.03314019	-0.013160708	-0.955078125	0.19921875	0.859375	892.58	-72.42531709	-68.13626861	-123.095897	-48
12824	0	0.364211082	-0.140043259	0.047252655	0.999999046	0.000102043	0.000444412	-0.001011848	9.105277061	-3.501081467	1.181316376	0.005102159	0.022220616	-0.050592433	-0.952880859	0.197021484	0.865234375	892.62	-72.17617652	-68.25426495	-123.3533736	-48
12825	0	0.362365723	-0.145263672	0.044189453	0.999997139	-0.00120163	0.001252174	-0.001125336	9.059143066	-3.631591797	1.104736328	-0.060081525	0.062608764	-0.056266825	-0.952880859	0.19921875	0.862060547	892.58	-71.84278471	-68.35474344	-123.8614035	-48
12826	0	0.361562729	-0.151939392	0.043445587	0.999998093	-0.000460625	0.000786781	-0.001369476	9.039068222	-3.798484802	1.086139679	-0.023031245	0.039339083	-0.068473847	-0.957275391	0.190673828	0.863037109	892.72	-71.52691732	-68.49634111	-124.2604774	-48
12827	0	0.360778809	-0.149841309	0.040161133	0.999998093	-0.000376701	0.000705719	-0.001285553	9.019470215	-3.746032715	1.00402832	-0.018835075	0.035285963	-0.064277673	-0.961914063	0.188720703	0.863525391	892.68	-71.2286591	-68.62999128	-124.6297982	-48
12828	0	0.361542702	-0.152176857	0.039212227	0.999998093	-0.000997543	0.0008955	-0.000641823	9.038567543	-3.804421425	0.980305672	-0.049877185	0.044775026	-0.032091153	-0.961669922	0.184326172	0.863769531	892.64	-71.00858882	-68.68508862	-124.9914858	-48
12829	0	0.364318848	-0.151794434	0.039611816	0.999998093	-0.001315117	0.00069809	4.96E-05	9.107971191	-3.79486084	0.99029541	-0.065755868	0.034904493	0.002479554	-0.966064453	0.179931641	0.861572266	892.7	-70.94692351	-68.67129815	-125.2226922	-48
12830	0	0.3643713	-0.150286674	0.039236069	0.999997139	-0.001813889	-1.91E-06	0.000886917	9.109282494	-3.757166862	0.980901718	-0.090694489	-9.54E-05	0.044345886	-0.966064453	0.182128906	0.861328125	892.74	-71.21805062	-68.59197374	-125.1574792	-48
12831	0	0.361083984	-0.150878906	0.044250488	0.999998093	-0.001128197	-0.000659943	0.00125885	9.027099609	-3.771972656	1.106262207	-0.056409867	-0.032997149	0.062942539	-0.965820313	0.177734375	0.855957031	892.62	-71.62647079	-68.49509471	-124.861286	-48
12832	0	0.360833168	-0.14749527	0.04447937	0.999998093	-0.000562668	-0.000718117	0.001151085	9.020829201	-3.687381744	1.111984253	-0.028133402	-0.035905851	0.057554266	-0.963623047	0.179931641	0.861572266	892.68	-71.97410023	-68.41048319	-124.5600371	-48
12833	0	0.359741211	-0.147399902	0.045532227	0.999999046	-0.000331879	-0.000506401	0.000804901	8.993530273	-3.684997559	1.138305664	-0.016593936	-0.025320057	0.040245063	-0.959228516	0.179931641	0.866943359	892.68	-72.20452109	-68.35478868	-124.3561792	-48
12834	0	0.361138344	-0.148258209	0.04775238	0.999999046	-0.000207901	-0.000366211	0.000273705	9.028458595	-3.706455231	1.193809509	-0.01039505	-0.018310548	0.013685227	-0.961425781	0.179931641	0.866943359	892.74	-72.33474604	-68.35112855	-124.2450096	-48
12835	0	0.361328125	-0.149902344	0.046142578	0.999999046	-6.48E-05	-0.00039196	-2.67E-05	9.033203125	-3.747558594	1.153564453	-0.003242493	-0.019598008	-0.001335144	-0.959228516	0.179931641	0.866943359	892.62	-72.4296907	-68.38024944	-124.1541176	-48
12836	0	0.362226486	-0.150744438	0.046569824	0.999999046	0.000313759	-0.000303268	0.000189781	9.055662155	-3.768610954	1.164245605	0.015687943	-0.015163422	0.00948906	-0.959228516	0.182128906	0.863769531	892.64	-72.4760117	-68.38175562	-124.068898	-49
12837	0	0.362670898	-0.149658203	0.046691895	0.999999046	0.000869751	-0.000380516	0.000209808	9.066772461	-3.741455078	1.167297363	0.043487556	-0.019025806	0.010490419	-0.956787109	0.1796875	0.866699219	892.64	-72.48178369	-68.38294547	-123.9590502	-49
12838	0	0.363741875	-0.146071434	0.044898033	0.999999046	0.000423431	-4.20E-05	0.00045681	9.093546867	-3.651785851	1.122450829	0.021171571	-0.002098084	0.022840501	-0.95703125	0.184082031	0.866455078	892.62	-72.46702635	-68.34491519	-123.9259875	-49
12839	0	0.364257813	-0.147644043	0.043273926	0.999999046	3.81E-06	0.000195503	0.000671387	9.106445313	-3.691101074	1.081848145	0.000190735	0.009775163	0.033569339	-0.95703125	0.184082031	0.866455078	892.68	-72.4541503	-68.27468078	-123.9428224	-48
12840	0	0.362826347	-0.144835472	0.040547371	0.999999046	0.000231743	1.91E-06	0.000724792	9.070658684	-3.620886803	1.013684273	0.011587144	9.54E-05	0.036239628	-0.95703125	0.188476563	0.86328125	892.64	-72.47350949	-68.20491295	-123.8967362	-48
12841	0	0.364074707	-0.144042969	0.042053223	0.999999046	0.000144958	-0.000201225	0.000354767	9.101867676	-3.601074219	1.051330566	0.007247925	-0.010061264	0.017738343	-0.957275391	0.186279297	0.872070313	892.62	-72.52665832	-68.18226257	-123.8251518	-48
12842	0	0.36331749	-0.144227982	0.042618752	0.999999046	5.72E-06	-8.58E-05	-0.0001297	9.082937241	-3.605699539	1.065468788	0.000286102	-0.004291534	-0.006484985	-0.954833984	0.188476563	0.871582031	892.58	-72.52288552	-68.20825848	-123.8318514	-48
12843	0	0.362304688	-0.145202637	0.043395996	0.999999046	3.81E-06	-0.00014782	-0.000255585	9.057617188	-3.630065918	1.084899902	0.000190735	-0.007390976	-0.012779236	-0.957275391	0.188476563	0.868896484	892.64	-72.52570183	-68.24974711	-123.8318969	-48
12844	0	0.363368034	-0.145933151	0.043593407	0.999999046	-6.77E-05	-0.000299454	-0.000225067	9.084200859	-3.648328781	1.089835167	-0.003385544	-0.014972687	-0.011253357	-0.954833984	0.188476563	0.865966797	892.62	-72.58125484	-68.29268983	-123.7839937	-48
12845	0	0.361816406	-0.147094727	0.04498291	0.999999046	0.000125885	-0.00014782	-0.000545502	9.045410156	-3.677368164	1.124572754	0.006294251	-0.007390976	-0.027275087	-0.954833984	0.186279297	0.871826172	892.64	-72.54546532	-68.36492978	-123.8105753	-48
12846	0	0.360831261	-0.147789001	0.04540062	0.999999046	-9.35E-05	0.000123978	-0.000699043	9.020781517	-3.694725037	1.135015488	-0.004673005	0.006198884	-0.034952167	-0.957275391	0.186279297	0.872070313	892.68	-72.4461775	-68.44397837	-123.9324338	-48
12847	0	0.361755371	-0.149963379	0.043884277	0.999999046	-0.000179291	0.000260353	-0.000534058	9.043884277	-3.749084473	1.097106934	-0.008964539	0.013017655	-0.026702883	-0.95703125	0.184082031	0.872070313	892.68	-72.33311744	-68.49953331	-124.0797128	-48
12848	0	0.362139702	-0.152889252	0.044383049	0.999999046	0.000195503	6.10E-05	-0.000362396	9.053492546	-3.822231293	1.109576225	0.009775162	0.003051758	-0.018119813	-0.95703125	0.181884766	0.872314453	892.68	-72.24752476	-68.54240708	-124.1514173	-48
12849	0	0.359741211	-0.150939941	0.043334961	0.999999046	0.000114441	3.53E-05	0.000190735	8.993530273	-3.773498535	1.083374023	0.005722046	0.001764298	0.009536743	-0.959228516	0.182128906	0.869628906	892.62	-72.22797729	-68.52506208	-124.1622213	-48
12850	0	0.359924316	-0.150396347	0.042660713	0.999999046	-0.000167847	0.000144958	0.00051403	8.99810791	-3.759908676	1.06651783	-0.008392334	0.007247925	0.025701524	-0.95703125	0.184082031	0.872070313	892.74	-72.23975658	-68.46793369	-124.1739468	-48
12851	0	0.360961914	-0.148986816	0.042297363	0.999999046	-0.000579834	0.000275612	0.000530243	9.024047852	-3.72467041	1.057434082	-0.028991703	0.013780595	0.026512149	-0.95703125	0.184082031	0.869384766	892.68	-72.26469413	-68.403932	-124.2224257	-48
12852	0	0.363038063	-0.150579453	0.041223526	0.999999046	-0.000668526	0.000156403	0.00045681	9.075951576	-3.764486313	1.03058815	-0.033426289	0.00782013	0.022840502	-0.95703125	0.184082031	0.872070313	892.64	-72.32697662	-68.35159322	-124.2417052	-48
12853	0	0.36114502	-0.15057373	0.040466309	0.999999046	7.63E-06	-0.000128746	0.000656128	9.028625488	-3.764343262	1.011657715	0.00038147	-0.006437302	0.032806399	-0.95703125	0.184082031	0.872070313	892.64	-72.40823987	-68.28687885	-124.1573784	-48
12854	0	0.360656738	-0.147994995	0.041900635	0.999999046	0.000520706	-0.000574112	0.000697136	9.016418457	-3.699874878	1.047515869	0.026035314	-0.028705602	0.034856803	-0.95703125	0.184082031	0.869384766	892.62	-72.55622165	-68.23258664	-123.9381044	-48
12855	0	0.363464355	-0.14831543	0.042602539	0.999999046	0.000549316	-0.000761986	0.000289917	9.086608887	-3.707885742	1.065063477	0.027465825	-0.038099295	0.014495852	-0.957275391	0.186279297	0.872070313	892.62	-72.71716761	-68.22869831	-123.701166	-48
12856	0	0.361183167	-0.149944305	0.041971207	0.999999046	0.000340462	-0.000289917	0.000220299	9.029579163	-3.748607635	1.049280167	0.017023087	-0.01449585	0.011014939	-0.954833984	0.186279297	0.871826172	892.62	-72.76711756	-68.21578144	-123.6095355	-48
12857	0	0.360168457	-0.150634766	0.044555664	0.999999046	0.000385284	-0.000494957	0.000679016	9.004211426	-3.765869141	1.113891602	0.019264224	-0.024747852	0.03395081	-0.955078125	0.190673828	0.871582031	892.74	-72.90664887	-68.15901057	-123.4157337	-48
12858	0	0.363549232	-0.149447441	0.044248581	0.999999046	0.000707626	-0.000692368	0.000689507	9.088730812	-3.736186028	1.106214523	0.035381326	-0.034618386	0.034475335	-0.952636719	0.190673828	0.871337891	892.68	-73.0631579	-68.10717044	-123.1639733	-48
12859	0	0.361694336	-0.147155762	0.044616699	0.999999046	-0.000106812	-0.000155449	0.000614166	9.042358398	-3.678894043	1.11541748	-0.005340577	-0.007772446	0.030708315	-0.952880859	0.192871094	0.874023438	892.68	-73.1593489	-68.04524995	-123.0775647	-48
12860	0	0.362071037	-0.15157795	0.044898033	0.999999046	3.53E-05	0.000249863	0.000297546	9.051775932	-3.789448738	1.122450829	0.001764298	0.012493134	0.01487732	-0.955322266	0.192871094	0.879882813	892.64	-73.1026951	-68.00413508	-123.1384171	-48
12861	0	0.361328125	-0.14831543	0.042785645	0.999999046	0.000415802	0.000100136	0.00025177	9.033203125	-3.707885742	1.069641113	0.020790101	0.00500679	0.012588501	-0.950683594	0.194824219	0.876464844	892.64	-73.03957107	-67.9727713	-123.1591372	-48
12862	0	0.361366272	-0.148768425	0.041881561	0.999999046	7.82E-05	0.000110626	0.000357628	9.034156799	-3.719210625	1.047039032	0.003910065	0.005531311	0.017881394	-0.952880859	0.197021484	0.870849609	892.72	-73.02137843	-67.92921898	-123.1732586	-48
12863	0	0.359680176	-0.147338867	0.041564941	0.999999046	0.000289917	0.000103951	0.000144958	8.992004395	-3.68347168	1.039123535	0.01449585	0.005197525	0.007247925	-0.950683594	0.197021484	0.879150391	892.58	-72.96349041	-67.90901998	-123.2039425	-48
12864	0	0.362070084	-0.148885727	0.040016174	0.999999046	-8.68E-05	0.000133514	5.25E-05	9.05175209	-3.722143173	1.000404358	-0.004339218	0.00667572	0.002622604	-0.955322266	0.195068359	0.876708984	892.64	-72.93370866	-67.89779082	-123.2512889	-48
12865	0	0.360473633	-0.149597168	0.040649414	0.999999046	4.20E-05	-6.01E-05	-0.000148773	9.01184082	-3.739929199	1.016235352	0.002098084	-0.003004074	-0.00743866	-0.955566406	0.197265625	0.879394531	892.68	-72.92521481	-67.91488711	-123.2594606	-48
12866	0	0.361132622	-0.149791718	0.039152145	0.999999046	0.000148773	-0.000350952	-0.000347137	9.028315544	-3.744792938	0.978803635	0.00743866	-0.017547608	-0.017356873	-0.950683594	0.194824219	0.879394531	892.68	-72.96731098	-67.96328976	-123.1999821	-48
12867	0	0.361083984	-0.15020752	0.041015625	0.999999046	0.000110626	-0.000475883	-0.000141144	9.027099609	-3.755187988	1.025390625	0.005531311	-0.023794175	-0.00705719	-0.952880859	0.195068359	0.873779297	892.64	-73.06531688	-67.99301212	-123.085119	-48
12868	0	0.360494614	-0.149364471	0.04192543	0.999999046	-0.000153542	-0.000417709	-0.000175476	9.012365341	-3.734111786	1.048135757	-0.007677079	-0.020885468	-0.008773804	-0.950683594	0.197021484	0.873535156	892.68	-73.17546791	-68.02423866	-122.989541	-48
12869	0	0.36328125	-0.151672363	0.040771484	0.999999046	-0.000175476	-0.000449181	-0.000152588	9.08203125	-3.791809082	1.019287109	-0.008773804	-0.022459031	-0.007629395	-0.952880859	0.195068359	0.876708984	892.64	-73.29925979	-68.05363445	-122.8822409	-48
12870	0	0.361351967	-0.151883125	0.043321609	0.999999046	3.81E-06	-0.000522614	-8.49E-05	9.033799171	-3.797078133	1.083040237	0.000190735	-0.026130677	-0.004243851	-0.950683594	0.192626953	0.879638672	892.62	-73.42835077	-68.0775456	-122.7471817	-48
12871	0	0.360961914	-0.151184082	0.044189453	0.999999046	1.14E-05	-0.000281334	0.000179291	9.024047852	-3.779602051	1.104736328	0.000572205	-0.014066696	0.008964539	-0.950683594	0.194824219	0.876464844	892.64	-73.51208958	-68.06411923	-122.6599198	-48
12872	0	0.362762451	-0.151618958	0.043621063	0.999999046	-7.92E-05	-0.000164032	0.000209808	9.069061279	-3.790473938	1.090526581	-0.003957748	-0.008201599	0.010490418	-0.946044922	0.194824219	0.876464844	892.64	-73.57645716	-68.04316913	-122.6046088	-48
12873	0	0.361450195	-0.151306152	0.043212891	0.999999046	0.000511169	-0.000235558	0.000141144	9.036254883	-3.782653809	1.080322266	0.025558473	-0.011777878	0.00705719	-0.948242188	0.192626953	0.879394531	892.64	-73.5869797	-68.03175724	-122.5348084	-48
12874	0	0.361061096	-0.150327682	0.042157173	0.999999046	0.000499725	-0.000274658	0.000236511	9.026527405	-3.758192062	1.053929329	0.024986269	-0.013732911	0.011825562	-0.948486328	0.194824219	0.882080078	892.62	-73.61703671	-68.01086712	-122.4451216	-48
12875	0	0.362854004	-0.148925781	0.041442871	0.999999046	0.000247955	1.62E-05	0.000202179	9.071350098	-3.723144531	1.036071777	0.012397766	0.000810623	0.010108948	-0.948242188	0.194824219	0.876464844	892.62	-73.59398167	-67.98421287	-122.4439943	-48
12876	0	0.362059593	-0.149356842	0.042626381	0.999999046	6.01E-05	-6.48E-05	7.63E-05	9.05148983	-3.733921051	1.065659523	0.003004074	-0.003242493	0.003814697	-0.946044922	0.194824219	0.882080078	892.64	-73.60433516	-67.97385613	-122.4297851	-48
12877	0	0.361633301	-0.15057373	0.041748047	0.999999046	0.000354767	-4.48E-05	-3.81E-05	9.04083252	-3.764343262	1.043701172	0.017738343	-0.002241135	-0.001907349	-0.950683594	0.192626953	0.879638672	892.58	-73.56637529	-67.97522233	-122.431829	-48
12878	0	0.361404419	-0.150272369	0.042187691	0.999999046	0.000583649	-0.000200272	-6.87E-05	9.035110474	-3.756809235	1.054692268	0.029182436	-0.010013581	-0.003433228	-0.948486328	0.19921875	0.87890625	892.68	-73.54198844	-67.98478524	-122.3900553	-48
12879	0	0.362792969	-0.150634766	0.041442871	0.999999046	0.000255585	-6.39E-05	-0.000144958	9.069824219	-3.765869141	1.036071777	0.012779236	-0.003194809	-0.007247925	-0.948486328	0.197021484	0.879150391	892.64	-73.51210432	-67.99812775	-122.395196	-48
12880	0	0.361376762	-0.151668549	0.042144775	0.999999046	0.000164986	-1.53E-05	0.000254631	9.03441906	-3.791713715	1.053619385	0.008249283	-0.000762939	0.012731552	-0.948486328	0.197021484	0.879150391	892.52	-73.51159821	-67.96572011	-122.3799426	-48
12881	0	0.361206055	-0.151184082	0.042785645	0.999999046	0.000663757	-0.000296593	0.000179291	9.030151367	-3.779602051	1.069641113	0.033187869	-0.014829637	0.008964539	-0.948486328	0.197021484	0.882080078	892.62	-73.5241777	-67.95050238	-122.2890082	-48
12882	0	0.363312721	-0.151137352	0.04203701	0.999999046	0.000358582	-7.63E-06	0.000155449	9.082818031	-3.7784338	1.050925255	0.017929078	-0.00038147	0.007772446	-0.946289063	0.201416016	0.881591797	892.58	-73.49145731	-67.92834012	-122.2840744	-48
12883	0	0.360778809	-0.151672363	0.043395996	0.999999046	0.000347137	-1.43E-05	0.00043869	9.019470215	-3.791809082	1.084899902	0.017356873	-0.000715256	0.02193451	-0.948486328	0.19921875	0.876220703	892.52	-73.4844859	-67.87502721	-122.2536577	-48
12884	0	0.362905502	-0.150923729	0.042634964	0.999999046	0.000647545	-0.000200272	0.000610352	9.072637558	-3.773093224	1.0658741	0.032377248	-0.010013582	0.030517582	-0.946289063	0.201416016	0.878662109	892.62	-73.5068675	-67.80876701	-122.154055	-48
12885	0	0.360717773	-0.148681641	0.042907715	0.999999046	0	0.000138283	0.000694275	9.017944336	-3.717041016	1.072692871	0	0.006914139	0.034713748	-0.946289063	0.203613281	0.878417969	892.62	-73.51859506	-67.72220841	-122.145876	-48
12886	0	0.358909607	-0.150706291	0.043250084	0.999999046	-0.000217438	0.000217438	0.000926018	8.972740173	-3.76765728	1.081252098	-0.010871889	0.010871889	0.046300895	-0.946289063	0.203369141	0.875732422	892.64	-73.55218348	-67.60745869	-122.1413229	-48
12887	0	0.362121582	-0.149841309	0.041442871	0.999999046	0.00038147	-3.34E-05	0.000667572	9.053039551	-3.746032715	1.036071777	0.019073488	-0.00166893	0.033378604	-0.948730469	0.205810547	0.878417969	892.58	-73.56358392	-67.52926433	-122.0864198	-48
12888	0	0.360521317	-0.148887634	0.041591644	0.999999046	0.000281334	-0.000101089	0.00038147	9.013032913	-3.722190857	1.039791107	0.014066697	-0.005054474	0.019073487	-0.946533203	0.207763672	0.881103516	892.64	-73.58186769	-67.48475712	-122.0360743	-48
12889	0	0.359375	-0.149047852	0.041442871	0.999999046	-3.43E-05	-1.43E-05	0.000423431	8.984375	-3.726196289	1.036071777	-0.001716614	-0.000715256	0.02117157	-0.946777344	0.209960938	0.880859375	892.58	-73.61650565	-67.43285972	-122.0070354	-48
12890	0	0.359921455	-0.148257256	0.041543007	0.999999046	9.54E-06	-7.06E-05	0.000281334	8.998036385	-3.706431389	1.038575172	0.000476837	-0.003528595	0.014066696	-0.946533203	0.209960938	0.877929688	892.64	-73.64982778	-67.39849772	-121.974289	-48
