Counter	Temperature	VelInc_X	VelInc_Y	VelInc_Z	OriInc_w	OriInc_x	OriInc_y	OriInc_z	Acc_X	Acc_Y	Acc_Z	Gyr_X	Gyr_Y	Gyr_Z	Mag_X	Mag_Y	Mag_Z	Pressure	Roll	Pitch	Yaw	RSSI
12984	0	0.389183998	0.040388107	0.054121971	0.999999046	0.000912666	0.000635147	0.000292778	9.729599953	1.009702682	1.353049278	0.045633326	0.031757362	0.014638904	-0.432861328	-0.829345703	-0.431396484	891.64	50.18109742	-81.71829676	25.06192371	-72
12985	0	0.388000488	0.040039063	0.055480957	0.999999046	0.000728607	0.000519753	2.29E-05	9.700012207	1.000976563	1.387023926	0.036430364	0.025987629	0.001144409	-0.430175781	-0.831787109	-0.434326172	891.74	49.8186463	-81.65667022	25.51182181	-72
12986	0	0.38702774	0.040041924	0.056799889	0.999999046	0.000705719	0.000494003	-7.63E-06	9.675693512	1.001048088	1.419997215	0.035285954	0.024700168	-0.00038147	-0.435058594	-0.831542969	-0.428222656	891.68	49.48731068	-81.59365296	25.92899629	-72
12987	0	0.387451172	0.042358398	0.055969238	0.999999046	0.000556946	0.000344276	-1.14E-05	9.686279297	1.058959961	1.399230957	0.027847292	0.017213823	-0.000572205	-0.432861328	-0.831542969	-0.425537109	891.68	49.23187776	-81.54088942	26.25202679	-72
12988	0	0.386253357	0.040779114	0.053930283	0.999999046	0.000369072	8.39E-05	9.92E-05	9.656333923	1.019477844	1.348257065	0.018453598	0.004196167	0.004959107	-0.432617188	-0.831542969	-0.431152344	891.7	49.05206056	-81.51691275	26.47489903	-72
12989	0	0.38671875	0.038391113	0.053833008	0.999999046	0.000614166	-0.000124931	7.63E-05	9.66796875	0.959777832	1.345825195	0.030708315	-0.006246567	0.003814698	-0.435058594	-0.833740234	-0.427978516	891.68	49.03170471	-81.50656927	26.56625046	-72
12990	0	0.388385773	0.041204453	0.053012848	0.999999046	0.000663757	-8.96E-05	7.15E-05	9.709644318	1.030111313	1.325321198	0.033187869	-0.00448227	0.003576279	-0.432617188	-0.8359375	-0.425048828	891.76	48.99813375	-81.49306472	26.67712312	-72
12991	0	0.387512207	0.044006348	0.052856445	0.999999046	0.000358582	-0.000250816	0.000106812	9.687805176	1.100158691	1.321411133	0.017929078	-0.012540818	0.005340576	-0.435058594	-0.833740234	-0.427978516	891.68	49.00485315	-81.49453022	26.71037428	-72
12992	0	0.387121201	0.042985916	0.054095268	0.999999046	-0.000220299	-0.000320435	0.000152588	9.678030014	1.074647903	1.352381706	-0.011014939	-0.016021729	0.007629395	-0.434814453	-0.8359375	-0.427978516	891.68	48.96147357	-81.50501878	26.72787488	-72
12993	0	0.385559082	0.042541504	0.057922363	0.999999046	-0.000469208	-0.000529289	-3.81E-05	9.638977051	1.063537598	1.448059082	-0.02346039	-0.026464464	-0.001907349	-0.434814453	-0.8359375	-0.427978516	891.7	49.10456675	-81.5144222	26.52812603	-72
12994	0	0.388114929	0.041970253	0.053765297	0.999999046	-0.00069809	-0.000928879	1.43E-05	9.70287323	1.049256325	1.344132423	-0.034904488	-0.04644395	0.000715256	-0.432617188	-0.8359375	-0.427978516	891.64	49.42793717	-81.55805682	26.11965864	-72
12995	0	0.391235352	0.046325684	0.048950195	0.999999046	-0.000984192	-0.000506401	0.00018692	9.780883789	1.15814209	1.223754883	-0.049209605	-0.025320058	0.00934601	-0.435058594	-0.833740234	-0.430908203	891.64	49.38693944	-81.58498739	26.04575144	-72
12996	0	0.387944221	0.045351028	0.048951149	0.999999046	-0.001078606	-0.000505447	0.000293732	9.698605537	1.133775711	1.223778725	-0.053930296	-0.025272376	0.014686588	-0.4375	-0.833496094	-0.425048828	891.68	49.28119225	-81.62108967	26.02875291	-72
12997	0	0.385437012	0.043395996	0.053222656	0.999998093	-0.00158596	-0.000518799	0.000328064	9.635925293	1.084899902	1.330566406	-0.079298058	-0.025939954	0.016403206	-0.437255859	-0.831542969	-0.433837891	891.68	49.10628472	-81.66102329	26.01984066	-72
12998	0	0.38716507	0.041390419	0.051548958	0.999998093	-0.001793861	-0.000502586	-7.63E-06	9.67912674	1.034760475	1.288723946	-0.089693121	-0.025129333	-0.00038147	-0.435058594	-0.831542969	-0.434082031	891.68	49.06848468	-81.67067871	25.84965723	-72
12999	0	0.388183594	0.041442871	0.050598145	0.999998093	-0.001532555	-0.000720978	0.000114441	9.704589844	1.036071777	1.264953613	-0.076627768	-0.036048906	0.005722049	-0.4375	-0.829345703	-0.436767578	891.74	49.12726235	-81.70732336	25.61168932	-72
13000	0	0.38795948	0.043703079	0.049684525	0.999998093	-0.001523972	-0.000685692	7.25E-05	9.698987007	1.092576981	1.242113113	-0.076198613	-0.034284608	0.003623964	-0.439941406	-0.826904297	-0.434082031	891.64	49.188956	-81.73761136	25.37312349	-72
13001	0	0.386901855	0.043762207	0.048278809	0.999998093	-0.001826286	-0.000385284	5.72E-05	9.672546387	1.094055176	1.206970215	-0.091314369	-0.019264232	0.002861025	-0.439697266	-0.829345703	-0.442626953	891.7	49.04547508	-81.74405853	25.30482755	-72
13002	0	0.387127876	0.042681694	0.04954052	0.999997139	-0.001932144	-0.000602722	-1.24E-05	9.678196907	1.067042351	1.238512993	-0.096607274	-0.030136129	-0.000619889	-0.4375	-0.824951172	-0.440185547	891.68	49.05566987	-81.7608217	25.07062983	-72
13003	0	0.387817383	0.042053223	0.046569824	0.999997139	-0.001968384	-0.001063347	1.91E-05	9.69543457	1.051330566	1.164245605	-0.098419272	-0.053167387	0.000953675	-0.4375	-0.822753906	-0.448974609	891.68	49.3240486	-81.8148491	24.5689023	-72
13004	0	0.388648033	0.041918755	0.045480728	0.999997139	-0.002072334	-0.001075745	7.63E-06	9.716200829	1.047968864	1.137018204	-0.103616809	-0.05378728	0.00038147	-0.439941406	-0.820556641	-0.448974609	891.62	49.59974001	-81.86861531	24.04949367	-72
13005	0	0.38848877	0.040222168	0.043273926	0.999996185	-0.002463341	-0.000907898	-0.000144958	9.712219238	1.005554199	1.081848145	-0.12316718	-0.04539495	-0.007247933	-0.439941406	-0.820556641	-0.451904297	891.68	49.81200534	-81.89656362	23.54925781	-73
13006	0	0.390940666	0.0391922	0.045808792	0.999996185	-0.002346992	-0.000668526	-0.000110626	9.773516655	0.979804993	1.145219803	-0.117349741	-0.033426318	-0.005531317	-0.442382813	-0.818115234	-0.451904297	891.7	49.87383825	-81.90989448	23.21524709	-73
13007	0	0.390930176	0.03692627	0.048156738	0.999998093	-0.001700401	-0.000488281	-3.81E-06	9.773254395	0.923156738	1.203918457	-0.08502011	-0.024414075	-0.000190735	-0.442138672	-0.816162109	-0.460693359	891.64	49.84216222	-81.91947186	23.04795041	-73
13008	0	0.390014648	0.038208008	0.049438477	0.999999046	-0.001032829	-0.000144958	-1.91E-05	9.750366211	0.955200195	1.235961914	-0.051641474	-0.007247926	-0.000953674	-0.439941406	-0.813964844	-0.458007813	891.68	49.68209713	-81.90242663	23.0895593	-73
13009	0	0.38848877	0.040771484	0.049865723	0.999999046	-0.000392914	-0.000170708	6.87E-05	9.712219238	1.019287109	1.246643066	-0.019645692	-0.008535385	0.003433228	-0.439941406	-0.813964844	-0.4609375	891.62	49.56511576	-81.89487732	23.16072729	-73
13010	0	0.387657166	0.040067673	0.050740242	0.999999046	-0.000459671	-0.000305176	6.39E-05	9.691429138	1.001691818	1.26850605	-0.022983552	-0.01525879	0.003194809	-0.442138672	-0.813964844	-0.466552734	891.7	49.52447445	-81.89682182	23.14581354	-73
13011	0	0.389526367	0.041442871	0.049621582	0.999999046	-0.000640869	-0.000372887	0.000213623	9.73815918	1.036071777	1.240539551	-0.03204346	-0.018644335	0.010681153	-0.439941406	-0.813964844	-0.463867188	891.68	49.42584419	-81.91677964	23.17056487	-73
13012	0	0.388420105	0.040297508	0.049199104	0.999999046	-0.00067234	-0.000478745	0.000227928	9.710502625	1.007437706	1.229977608	-0.033617024	-0.023937228	0.011396409	-0.442382813	-0.813964844	-0.463623047	891.74	49.38037976	-81.94584795	23.13816784	-73
13013	0	0.388977051	0.039916992	0.048828125	0.999999046	-0.000431061	-0.000319481	0.000236511	9.72442627	0.997924805	1.220703125	-0.021553041	-0.015974046	0.011825562	-0.439941406	-0.811767578	-0.464111328	891.76	49.25954112	-81.96376625	23.20922283	-73
13014	0	0.388660431	0.040850639	0.048552513	0.999999046	-0.000392914	-0.000272751	0.000320435	9.716510773	1.021265984	1.213812828	-0.019645692	-0.013637543	0.016021729	-0.442382813	-0.809570313	-0.467041016	891.64	49.0692245	-81.98538508	23.35388027	-73
13015	0	0.390014648	0.039855957	0.047485352	0.999999046	-0.000476837	0.000309944	0.000263214	9.750366211	0.996398926	1.187133789	-0.023841859	0.015497209	0.013160706	-0.439941406	-0.811767578	-0.466796875	891.74	48.54289811	-81.95799314	23.82944785	-73
13016	0	0.391227722	0.038264275	0.044833183	0.999999046	-0.000311852	0.000400543	5.34E-05	9.780693054	0.956606865	1.120829582	-0.015592576	0.020027162	0.002670288	-0.440185547	-0.809570313	-0.464111328	891.64	48.09823419	-81.90537146	24.24245529	-73
13017	0	0.390625	0.039794922	0.044799805	0.999999046	0.000156403	0.000340462	0.000209808	9.765625	0.994873047	1.119995117	0.00782013	0.017023087	0.010490418	-0.440185547	-0.807373047	-0.467285156	891.68	47.665012	-81.87035726	24.69627743	-73
13018	0	0.389328003	0.040011406	0.0465765	0.999999046	0.000549316	0.000932693	1.91E-05	9.733200073	1.000285149	1.164412498	0.027465826	0.046634683	0.000953675	-0.440185547	-0.807373047	-0.467285156	891.74	47.03946425	-81.77274538	25.39037431	-73
13019	0	0.388427734	0.038696289	0.050415039	0.999998093	0.000332832	0.001567841	0.000164032	9.710693359	0.967407227	1.260375977	0.016641624	0.078392063	0.008201603	-0.437744141	-0.807373047	-0.464599609	891.7	45.96828624	-81.63561541	26.51126163	-72
13020	0	0.38993454	0.039027214	0.04959774	0.999998093	0.000473022	0.001303673	1.14E-05	9.748363495	0.975680351	1.239943504	0.023651131	0.06518366	0.000572205	-0.435302734	-0.809814453	-0.470214844	891.68	45.17520649	-81.5046517	27.36562918	-72
13021	0	0.390014648	0.037719727	0.04901123	0.999998093	0.000798225	0.001365662	0.000167847	9.750366211	0.942993164	1.225280762	0.039911287	0.06828311	0.008392338	-0.433105469	-0.807617188	-0.46484375	891.7	44.32759082	-81.37964627	28.31508304	-72
13022	0	0.389159203	0.043100357	0.050676346	0.999997139	0.000736237	0.002138138	2.57E-05	9.728980064	1.077508926	1.266908646	0.03681186	0.106906982	0.001287461	-0.432861328	-0.809814453	-0.467529297	891.76	43.18444653	-81.17695626	29.55579897	-72
13023	0	0.385864258	0.042785645	0.051696777	0.999998093	0.000275612	0.001567841	-0.000350952	9.646606445	1.069641113	1.292419434	0.0137806	0.078392064	-0.017547615	-0.430664063	-0.809814453	-0.470458984	891.7	42.52300653	-80.98987516	30.25544789	-71
13024	0	0.385071754	0.037833214	0.050075531	0.999999046	0.000332832	0.001115799	-0.00044632	9.626793861	0.945830345	1.251888275	0.016641621	0.055789962	-0.022315985	-0.428222656	-0.807861328	-0.470703125	891.64	42.16152627	-80.8330495	30.65845292	-70
13025	0	0.385681152	0.038635254	0.049743652	0.999998093	0.001282692	0.000915527	-0.000179291	9.642028809	0.965881348	1.243591309	0.064134625	0.045776386	-0.008964542	-0.423339844	-0.810302734	-0.473632813	891.7	41.8764595	-80.71371256	31.09352966	-70
13026	0	0.386303902	0.043787003	0.051315308	0.999998093	0.001757622	0.000622749	0.000244141	9.657597542	1.094675064	1.28288269	0.08788114	0.031137485	0.012207038	-0.423339844	-0.812255859	-0.467773438	891.7	41.57170845	-80.65143913	31.60587152	-70
13027	0	0.38684082	0.044555664	0.051940918	0.999998093	0.001667976	0.000362396	0.000198364	9.671020508	1.113891602	1.298522949	0.08339886	0.018119821	0.009918218	-0.423339844	-0.814453125	-0.464599609	891.7	41.40731711	-80.60776529	31.96568062	-69
13028	0	0.384623528	0.04359436	0.050608635	0.999998093	0.001443863	0.000161171	0.000190735	9.615588188	1.089859009	1.265215874	0.072193172	0.008058551	0.009536747	-0.420898438	-0.814697266	-0.467773438	891.7	41.31769655	-80.580848	32.22168324	-69
13029	0	0.386230469	0.044677734	0.049682617	0.999998093	0.001511574	-0.00018692	0.000171661	9.655761719	1.116943359	1.24206543	0.075578719	-0.009346012	0.008583072	-0.423339844	-0.814453125	-0.464599609	891.62	41.40796725	-80.58259498	32.30421301	-69
13030	0	0.38980484	0.04603672	0.049641609	0.999999046	0.001159668	-0.00019455	0.00031662	9.745121002	1.150918007	1.24104023	0.057983413	-0.00972748	0.015830998	-0.420898438	-0.816894531	-0.461669922	891.68	41.38934004	-80.59614899	32.45698363	-69
13031	0	0.390380859	0.044555664	0.050292969	0.999998093	0.001423836	0.000171661	0.000362396	9.759521484	1.113891602	1.257324219	0.071191814	0.008583072	0.018119819	-0.423583984	-0.816650391	-0.455810547	891.68	41.21258959	-80.58177631	32.8016667	-69
13032	0	0.387706757	0.041618347	0.053420067	0.999999046	0.001080513	0.00053978	0.000197411	9.692668915	1.040458679	1.335501671	0.054025664	0.02698899	0.009870532	-0.421142578	-0.816650391	-0.456054688	891.7	40.91854563	-80.52309443	33.22431121	-69
13033	0	0.386413574	0.040039063	0.054260254	0.999999046	0.000965118	0.000657082	-5.72E-05	9.660339355	1.000976563	1.356506348	0.048255931	0.032854088	-0.002861024	-0.420898438	-0.819091797	-0.458740234	891.68	40.69614157	-80.43503662	33.5602536	-69
13034	0	0.386642456	0.040187836	0.054506302	0.999998093	0.001526833	5.82E-05	-3.81E-05	9.666061401	1.004695892	1.362657547	0.076341659	0.002908708	-0.001907349	-0.418457031	-0.821289063	-0.455810547	891.68	40.79715179	-80.40052428	33.63421094	-69
13035	0	0.387939453	0.038696289	0.053527832	0.999997139	0.001914978	-0.000567436	0.00012207	9.698486328	0.967407227	1.338195801	0.095748965	-0.02837183	0.00610352	-0.418701172	-0.819091797	-0.450195313	891.7	41.13878476	-80.43250646	33.50955602	-69
13036	0	0.385993958	0.03910923	0.052573204	0.999997139	0.002041817	-0.000946045	0.000228882	9.649848938	0.977730751	1.314330101	0.102090923	-0.047302286	0.011444102	-0.418457031	-0.823486328	-0.449951172	891.68	41.61391541	-80.50525031	33.26347077	-69
13037	0	0.385437012	0.040771484	0.052307129	0.999996185	0.002362251	-0.000801086	0.000377655	9.635925293	1.019287109	1.307678223	0.118112689	-0.040054364	0.018882771	-0.421142578	-0.821044922	-0.44140625	891.58	41.98929781	-80.57683753	33.15693553	-69
13038	0	0.387868881	0.041391373	0.050879478	0.999997139	0.002103806	-0.000991821	0.000415802	9.696722031	1.034784317	1.271986961	0.105190375	-0.049591111	0.020790119	-0.423339844	-0.825439453	-0.437988281	891.64	42.4097216	-80.66762328	32.97461255	-69
13039	0	0.390563965	0.041625977	0.047790527	0.999997139	0.001750946	-0.000891685	0.000404358	9.764099121	1.040649414	1.194763184	0.087547361	-0.044584304	0.020217909	-0.423339844	-0.827636719	-0.437744141	891.62	42.75548747	-80.74916954	32.82616504	-69
13040	0	0.389830589	0.040934563	0.049269676	0.999998093	0.001617432	-0.000481606	0.000258446	9.745764732	1.023364067	1.231741905	0.080871621	-0.024080288	0.012922293	-0.423339844	-0.829833984	-0.434814453	891.64	42.96936426	-80.78500382	32.79631884	-69
13041	0	0.389465332	0.04107666	0.049499512	0.999999046	0.001277924	-0.000281334	0.000389099	9.736633301	1.026916504	1.237487793	0.063896199	-0.014066701	0.019454962	-0.423339844	-0.829589844	-0.431884766	891.68	42.98177485	-80.81443888	32.93136874	-69
13042	0	0.387815475	0.041021347	0.048625946	0.999999046	0.001134872	-0.000207901	0.000170708	9.695386887	1.025533676	1.215648651	0.056743635	-0.010395052	0.008535387	-0.423339844	-0.829589844	-0.428955078	891.7	43.05657038	-80.820871	32.9868035	-69
13043	0	0.387695313	0.04107666	0.048950195	0.999999046	0.001045227	-0.000124931	8.01E-05	9.692382813	1.026916504	1.223754883	0.052261362	-0.006246568	0.004005433	-0.42578125	-0.831787109	-0.42578125	891.68	43.12896115	-80.81346523	33.03467004	-69
13044	0	0.388689995	0.0415411	0.04766655	0.999999046	0.00106144	-0.000183105	0.000205994	9.71724987	1.038527489	1.191663742	0.053071986	-0.009155275	0.010299685	-0.428222656	-0.831787109	-0.422851563	891.76	43.16768453	-80.82102233	33.11846315	-69
13045	0	0.387573242	0.042236328	0.047729492	0.999999046	0.001110077	-0.000216484	0.000236511	9.689331055	1.055908203	1.193237305	0.055503858	-0.010824206	0.011825564	-0.42578125	-0.833984375	-0.419921875	891.7	43.21387126	-80.83395297	33.20037227	-69
13046	0	0.387553215	0.042284966	0.049541473	0.999999046	0.000692368	-0.000486374	4.20E-05	9.688830376	1.057124138	1.238536835	0.034618382	-0.024318698	0.002098084	-0.423339844	-0.831787109	-0.420166016	891.68	43.44556275	-80.8542253	33.04502025	-69
13047	0	0.388977051	0.041992188	0.048095703	0.999999046	0.000347137	-0.000540733	4.20E-05	9.72442627	1.049804688	1.202392578	0.017356874	-0.027036669	0.002098084	-0.42578125	-0.833984375	-0.416992188	891.68	43.66644739	-80.879093	32.86146756	-69
13048	0	0.391107559	0.045898438	0.047639847	0.999999046	6.20E-05	-0.000465393	0.000171661	9.77768898	1.147460938	1.19099617	0.003099442	-0.023269654	0.008583069	-0.42578125	-0.836181641	-0.4140625	891.7	43.75342589	-80.90798125	32.78090848	-69
13049	0	0.389892578	0.045532227	0.045593262	0.999999046	-0.000537872	-0.000361443	0.000339508	9.747314453	1.138305664	1.139831543	-0.026893618	-0.01807213	0.016975404	-0.42578125	-0.833984375	-0.416992188	891.62	43.63558834	-80.94169862	32.83712855	-69
13050	0	0.38690567	0.044668198	0.047801971	0.999999046	-0.000822067	-0.00031662	0.000209808	9.672641754	1.116704941	1.195049286	-0.041103369	-0.015830996	0.010490419	-0.427978516	-0.833984375	-0.419677734	891.62	43.53149686	-80.96149738	32.8463995	-69
13051	0	0.388793945	0.041992188	0.047058105	0.999999046	-0.001342773	0.000161171	0.00019455	9.719848633	1.049804688	1.176452637	-0.067138693	0.00805855	0.009727481	-0.430419922	-0.831542969	-0.422607422	891.68	43.14026512	-80.94046876	33.08607729	-69
13052	0	0.389832497	0.042570114	0.04638195	0.999999046	-0.001076698	-2.67E-05	1.81E-05	9.745812416	1.064252853	1.159548759	-0.053834926	-0.001335144	0.000905991	-0.428222656	-0.831542969	-0.416992188	891.68	42.96676171	-80.92139754	33.13783589	-69
13053	0	0.388244629	0.040222168	0.045593262	0.999999046	-0.001033783	0.000321388	-0.000339508	9.706115723	1.005554199	1.139831543	-0.051689159	0.016069416	-0.016975406	-0.427978516	-0.831787109	-0.42578125	891.64	42.81768031	-80.84551449	33.16781472	-69
13054	0	0.385315895	0.044355392	0.046236038	0.999999046	-0.000196457	0.00044632	-0.00044632	9.632897377	1.108884811	1.155900955	-0.009822846	0.022315981	-0.022315981	-0.428222656	-0.831787109	-0.422851563	891.64	42.76303859	-80.75093313	33.2004567	-69
13055	0	0.388000488	0.043701172	0.046691895	0.999999046	-0.000694275	-0.000281334	-4.96E-05	9.700012207	1.092529297	1.167297363	-0.034713748	-0.014066697	-0.002479553	-0.425537109	-0.831787109	-0.428710938	891.6	42.79610464	-80.74862357	33.08531871	-69
13056	0	0.385519028	0.044955254	0.046658516	0.999999046	-9.82E-05	-0.00060463	0.000136375	9.637975693	1.12388134	1.166462898	-0.004911423	-0.030231478	0.006818772	-0.42578125	-0.831787109	-0.422851563	891.74	42.95863979	-80.78804648	32.90970156	-69
13057	0	0.383361816	0.044311523	0.043884277	0.999999046	-3.81E-06	-0.000216484	0.000228882	9.58404541	1.107788086	1.097106934	-0.000190735	-0.010824204	0.011444092	-0.42578125	-0.829589844	-0.423095703	891.72	42.90019185	-80.8023053	32.96838031	-69
13058	0	0.388222694	0.046452522	0.04292202	0.999999046	-0.00022316	-0.000442505	0.000125885	9.70556736	1.161313057	1.073050499	-0.01115799	-0.022125245	0.006294251	-0.428222656	-0.829589844	-0.42578125	891.74	42.98203723	-80.82768556	32.85911121	-69
13059	0	0.389465332	0.047790527	0.044128418	0.999999046	-0.000102997	-0.00032711	0.000347137	9.736633301	1.194763184	1.103210449	-0.005149842	-0.016355515	0.017356873	-0.428222656	-0.831787109	-0.422851563	891.7	42.90992796	-80.86075757	32.92066661	-69
13060	0	0.388425827	0.043665886	0.044614792	0.999999046	-0.0002985	-0.000362396	0.00038147	9.710645676	1.091647148	1.115369797	-0.014925004	-0.018119813	0.019073487	-0.430419922	-0.831542969	-0.422607422	891.68	42.81584464	-80.89966203	32.98167515	-69
13061	0	0.389709473	0.041137695	0.046447754	0.999999046	-0.000160217	-0.000185966	0.000278473	9.742736816	1.028442383	1.161193848	-0.008010864	-0.009298325	0.013923645	-0.430419922	-0.831542969	-0.428466797	891.68	42.70611344	-80.91591451	33.0735341	-69
13062	0	0.389810562	0.041149139	0.046375275	0.999999046	7.63E-06	5.53E-05	0.000339508	9.745264053	1.028728485	1.159381866	0.00038147	0.002765656	0.016975403	-0.430419922	-0.831542969	-0.428466797	891.74	42.46681906	-80.91670372	33.31654506	-69
13063	0	0.38885498	0.044067383	0.049743652	0.999999046	4.20E-05	-4.48E-05	0.000511169	9.721374512	1.10168457	1.243591309	0.002098084	-0.002241135	0.025558473	-0.432861328	-0.829345703	-0.428466797	891.7	42.1892971	-80.93901217	33.60236867	-69
13064	0	0.387009621	0.041478157	0.048422813	0.999999046	-0.000100136	-0.000419617	0.000423431	9.675240517	1.036953926	1.210570335	-0.00500679	-0.020980836	0.021171571	-0.430419922	-0.829345703	-0.428710938	891.64	42.1226423	-80.98635799	33.65822482	-69
13065	0	0.387268066	0.040649414	0.044799805	0.999999046	-4.58E-05	-4.48E-05	0.000232697	9.68170166	1.016235352	1.119995117	-0.002288818	-0.002241135	0.011634827	-0.432861328	-0.829345703	-0.422851563	891.68	41.98369708	-80.98738643	33.79460399	-69
13066	0	0.388877869	0.041623116	0.045377731	0.999999046	0.000114441	4.01E-05	9.06E-05	9.721946716	1.040577888	1.134443283	0.005722046	0.002002716	0.004529953	-0.432861328	-0.829345703	-0.422851563	891.7	41.89987743	-80.97044067	33.89327894	-69
13067	0	0.390930176	0.040710449	0.045593262	0.999999046	-3.05E-05	-0.000182152	0.00025177	9.773254395	1.01776123	1.139831543	-0.001525879	-0.00910759	0.012588501	-0.435302734	-0.831542969	-0.422363281	891.64	41.82104377	-80.98498598	33.97011567	-69
13068	0	0.390295982	0.041547775	0.046794891	0.999999046	4.67E-05	-8.20E-05	0.000159264	9.757399559	1.038694382	1.169872284	0.002336502	-0.0041008	0.007963181	-0.432861328	-0.831542969	-0.422607422	891.64	41.75349016	-80.98403128	34.04424081	-69
13069	0	0.388671875	0.041564941	0.046569824	0.999999046	1.14E-05	0.000245094	0.000152588	9.716796875	1.039123535	1.164245605	0.000572205	0.012254715	0.007629395	-0.432861328	-0.831542969	-0.428222656	891.68	41.52993518	-80.95465485	34.27149218	-69
13070	0	0.389148712	0.040470123	0.047369003	0.999999046	9.16E-05	0.000371933	-6.48E-05	9.728717804	1.011753082	1.184225082	0.004577637	0.01859665	-0.003242493	-0.432861328	-0.829345703	-0.422851563	891.74	41.37460443	-80.89791085	34.44002623	-69
13071	0	0.390014648	0.040527344	0.049072266	0.999999046	-0.00031662	0.000527382	-0.000209808	9.750366211	1.013183594	1.226806641	-0.015830995	0.026369097	-0.010490418	-0.432861328	-0.829345703	-0.428466797	891.7	41.17968468	-80.81684555	34.60050886	-69
13072	0	0.390006065	0.039987564	0.049935341	0.999999046	-0.000256538	0.000333786	-0.000119209	9.750151634	0.999689102	1.248383522	-0.01282692	0.016689301	-0.005960465	-0.432861328	-0.829345703	-0.428466797	891.7	41.03608174	-80.75936003	34.71636165	-70
13073	0	0.388916016	0.040344238	0.050292969	0.999999046	-0.000190735	0.000588417	3.43E-05	9.722900391	1.008605957	1.257324219	-0.009536744	0.029420855	0.001716614	-0.432861328	-0.831542969	-0.422607422	891.68	40.70399139	-80.69133879	35.03189351	-70
13074	0	0.388309479	0.040602684	0.050764084	0.999999046	-0.000303268	0.000642776	6.77E-05	9.707736969	1.015067101	1.269102097	-0.015163423	0.032138827	0.003385544	-0.432617188	-0.831542969	-0.431152344	891.7	40.32180124	-80.62084417	35.38367955	-70
13075	0	0.389404297	0.040405273	0.051147461	0.999999046	-0.000598907	0.000504494	3.05E-05	9.735107422	1.010131836	1.278686523	-0.029945377	0.025224688	0.001525879	-0.430419922	-0.831542969	-0.428466797	891.6	39.99234996	-80.55946786	35.64857301	-70
13076	0	0.387159348	0.040870667	0.049938202	0.999999046	-0.000561714	0.00053215	4.96E-05	9.678983688	1.021766663	1.248455048	-0.028085711	0.026607516	0.002479553	-0.427978516	-0.831787109	-0.431396484	891.64	39.64943892	-80.49695232	35.93112904	-70
13077	0	0.387512207	0.038635254	0.051269531	0.999999046	-0.000534058	0.000405312	0.000141144	9.687805176	0.965881348	1.281738281	-0.026702883	0.020265581	0.00705719	-0.430419922	-0.829589844	-0.434326172	891.68	39.32020732	-80.45224357	36.20280184	-71
13078	0	0.389009476	0.04018116	0.049489975	0.999999046	-0.000331879	0.000501633	0.000125885	9.725236893	1.004528999	1.237249374	-0.016593934	0.025081636	0.006294251	-0.430419922	-0.829589844	-0.434326172	891.7	38.98458146	-80.39784193	36.50480261	-71
13079	0	0.389160156	0.039916992	0.050720215	0.999999046	-0.000247955	0.000290871	0.000102997	9.729003906	0.997924805	1.268005371	-0.012397766	0.014543534	0.005149841	-0.432861328	-0.827148438	-0.431640625	891.74	38.76359825	-80.36055762	36.70063176	-71
13080	0	0.387246132	0.039017677	0.051268578	0.999999046	-0.000502586	0.000396729	2.96E-05	9.681153297	0.975441933	1.281714439	-0.02512932	0.019836427	0.001478195	-0.432861328	-0.829345703	-0.431396484	891.74	38.50964749	-80.30861337	36.90040535	-71
13081	0	0.387451172	0.040222168	0.05090332	0.999999046	-0.000171661	0.000344276	0.000114441	9.686279297	1.005554199	1.272583008	-0.008583069	0.017213822	0.005722046	-0.430419922	-0.827392578	-0.4375	891.58	38.273838	-80.26747672	37.11926487	-72
13082	0	0.390293121	0.041213036	0.052588463	0.999999046	-0.0004673	-2.86E-05	0.000357628	9.757328033	1.03032589	1.314711571	-0.023365022	-0.001430512	0.017881394	-0.430419922	-0.827392578	-0.434570313	891.68	38.03236807	-80.27713107	37.31030607	-72
13083	0	0.388305664	0.044128418	0.052185059	0.999999046	-0.000427246	1.62E-05	0.000392914	9.707641602	1.103210449	1.304626465	-0.021362306	0.000810623	0.019645692	-0.430175781	-0.829589844	-0.440185547	891.7	37.75954008	-80.28510502	37.5373378	-72
13084	0	0.38571167	0.041946411	0.054918289	0.999999046	-0.000418663	0.000392914	0.000213623	9.642791748	1.048660278	1.37295723	-0.020933153	0.019645692	0.010681153	-0.430419922	-0.827392578	-0.440185547	891.74	37.4297542	-80.24610285	37.82345163	-72
13085	0	0.384338379	0.041564941	0.053222656	0.999999046	-0.000629425	0.000390053	0.000164032	9.608459473	1.039123535	1.330566406	-0.031471255	0.019502642	0.0082016	-0.430419922	-0.827392578	-0.440185547	891.68	37.10658164	-80.20369373	38.07866935	-72
13086	0	0.385958672	0.041859627	0.052782059	0.999999046	-0.000701904	0.000114441	-0.000142097	9.648966789	1.046490669	1.319551468	-0.035095218	0.005722046	-0.007104874	-0.430419922	-0.827392578	-0.4375	891.7	37.04990466	-80.16527545	38.05545948	-71
13087	0	0.387756348	0.041870117	0.049865723	0.999999046	-0.000659943	-0.00045681	-0.000106812	9.693908691	1.04675293	1.246643066	-0.032997135	-0.022840502	-0.005340577	-0.428222656	-0.825195313	-0.437744141	891.7	37.20894565	-80.18171962	37.81789392	-72
13088	0	0.389867783	0.044327736	0.05048275	0.999999046	-0.000647545	-0.000722885	1.05E-05	9.746694565	1.108193398	1.262068748	-0.032377248	-0.036144262	0.000524521	-0.427978516	-0.825195313	-0.440673828	891.7	37.41765985	-80.23057014	37.53114165	-72
13089	0	0.389831543	0.042724609	0.048828125	0.999999046	-0.001033783	-0.000712395	9.16E-05	9.745788574	1.068115234	1.220703125	-0.051689162	-0.035619745	0.004577638	-0.430419922	-0.825195313	-0.443359375	891.68	37.53906993	-80.28421167	37.28817216	-72
13090	0	0.391926765	0.040835381	0.051893234	0.999999046	-0.000825882	-0.000579834	1.05E-05	9.798169136	1.020884514	1.297330856	-0.041294105	-0.028991704	0.000524521	-0.430419922	-0.822998047	-0.443603516	891.64	37.67564876	-80.32021857	37.05412573	-72
13091	0	0.388793945	0.040710449	0.053039551	0.999999046	-0.000724792	-0.000353813	-1.53E-05	9.719848633	1.01776123	1.32598877	-0.036239628	-0.01769066	-0.00076294	-0.430419922	-0.822998047	-0.446289063	891.6	37.74592957	-80.33393225	36.89900253	-72
13092	0	0.384923935	0.041498184	0.053436279	0.999999046	-0.0007658	-0.000246048	3.43E-05	9.623098373	1.037454605	1.335906982	-0.038290028	-0.0123024	0.001716614	-0.430419922	-0.822998047	-0.443603516	891.7	37.74141617	-80.34133313	36.81552878	-72
13093	0	0.386108398	0.039916992	0.051696777	0.999999046	-0.000602722	-0.000472069	-0.000102997	9.652709961	0.997924805	1.292419434	-0.030136111	-0.023603442	-0.005149842	-0.428222656	-0.822998047	-0.443603516	891.68	37.92270692	-80.35963498	36.56241566	-71
13094	0	0.388773918	0.038957596	0.051802635	0.999999046	-0.00063324	-0.000642776	-0.000107765	9.719347954	0.973939896	1.29506588	-0.031661992	-0.032138829	-0.005388261	-0.430419922	-0.822998047	-0.44921875	891.58	38.17530476	-80.393003	36.23284004	-72
13095	0	0.388916016	0.04083252	0.051147461	0.999999046	-0.00031662	-0.000681877	-1.53E-05	9.722900391	1.020812988	1.278686523	-0.015830995	-0.03409386	-0.00076294	-0.430419922	-0.820800781	-0.449462891	891.64	38.43416308	-80.43631962	35.93386534	-71
13096	0	0.389656067	0.041238785	0.051434517	0.999999046	-0.000155449	-0.000703812	0.000197411	9.741401672	1.03096962	1.285862923	-0.007772446	-0.035190586	0.00987053	-0.430419922	-0.820800781	-0.449462891	891.62	38.61043138	-80.49666121	35.73756285	-71
13097	0	0.38848877	0.040710449	0.050354004	0.999999046	-0.000114441	-0.000338554	0.000217438	9.712219238	1.01776123	1.258850098	-0.005722046	-0.01692772	0.010871888	-0.432861328	-0.820556641	-0.443603516	891.7	38.6264724	-80.52577177	35.7091918	-71
13098	0	0.389149666	0.040529251	0.049427032	0.999999046	7.06E-05	-0.000284195	6.39E-05	9.728741646	1.013231277	1.235675812	0.003528595	-0.014209748	0.003194809	-0.432861328	-0.820800781	-0.446533203	891.64	38.72364335	-80.53915238	35.61945303	-71
13099	0	0.389648438	0.039672852	0.04876709	0.999999046	0.000144958	-0.000113487	0.000144958	9.741210938	0.991821289	1.219177246	0.007247925	-0.005674362	0.007247925	-0.430419922	-0.820800781	-0.449462891	891.7	38.71307874	-80.54325059	35.64727941	-71
13100	0	0.387779236	0.040978432	0.049886703	0.999999046	0.000378609	6.68E-05	9.06E-05	9.694480896	1.024460793	1.247167587	0.018930436	0.00333786	0.004529953	-0.432861328	-0.820800781	-0.446533203	891.7	38.68164765	-80.52740134	35.72389469	-71
13101	0	0.388122559	0.040161133	0.048400879	0.999999046	0.000205994	2.00E-05	0.000240326	9.703063965	1.00402832	1.210021973	0.010299683	0.001001358	0.012016297	-0.432861328	-0.820800781	-0.44921875	891.7	38.5710435	-80.52659426	35.86038521	-70
13102	0	0.38832283	0.041275978	0.049435616	0.999999046	0.000137329	0.00021553	1.81E-05	9.708070755	1.031899452	1.235890388	0.006866455	0.01077652	0.000905991	-0.430664063	-0.820800781	-0.443603516	891.68	38.48933008	-80.49244424	35.96033304	-70
13103	0	0.38684082	0.04083252	0.050048828	0.999999046	0.000110626	-9.06E-05	0.000106812	9.671020508	1.020812988	1.251220703	0.005531311	-0.004529953	0.005340576	-0.430419922	-0.822998047	-0.44921875	891.6	38.48831636	-80.49213912	35.97464103	-70
13104	0	0.388934135	0.041553497	0.050883293	0.999999046	0.000199318	-4.01E-05	0.000109673	9.723353386	1.038837433	1.272082329	0.009965897	-0.002002716	0.005483627	-0.430664063	-0.820800781	-0.443603516	891.74	38.47501975	-80.48753243	36.01234246	-70
13105	0	0.389282227	0.042297363	0.047119141	0.999999046	5.34E-05	1.24E-05	4.96E-05	9.732055664	1.057434082	1.177978516	0.002670288	0.000619888	0.002479553	-0.432861328	-0.820800781	-0.44921875	891.6	38.45637936	-80.47409951	36.03784345	-70
13106	0	0.390017509	0.043056488	0.047550201	0.999999046	4.77E-05	0	0.000102043	9.750437737	1.076412201	1.188755035	0.002384186	0	0.005102158	-0.430419922	-0.820800781	-0.446533203	891.76	38.41594001	-80.46563998	36.08533661	-70
13107	0	0.388916016	0.040466309	0.048156738	0.999999046	0.000164032	0.000210762	6.48E-05	9.722900391	1.011657715	1.203918457	0.008201599	0.010538101	0.003242493	-0.430664063	-0.818603516	-0.449707031	891.74	38.32050572	-80.43576781	36.20167007	-70
13108	0	0.387802124	0.040919304	0.048610687	0.999999046	0.000149727	0.000291824	-7.72E-05	9.695053101	1.022982597	1.215267181	0.007486344	0.014591217	-0.003862381	-0.430664063	-0.820800781	-0.443603516	891.76	38.26653532	-80.38862692	36.27525483	-70
13109	0	0.388366699	0.041564941	0.048095703	0.999999046	0.000190735	0.000306129	-3.81E-05	9.70916748	1.039123535	1.202392578	0.009536743	0.015306473	-0.001907349	-0.428222656	-0.820800781	-0.446777344	891.68	38.19226366	-80.34311804	36.37357966	-70
13110	0	0.389677048	0.041185379	0.047340393	0.999999046	0.000106812	0.000226974	-5.82E-05	9.741926193	1.029634476	1.183509827	0.005340576	0.011348724	-0.002908707	-0.428222656	-0.822998047	-0.443603516	891.68	38.15363969	-80.30352906	36.42650227	-70
13111	0	0.388183594	0.040893555	0.047546387	0.999999046	0.000350952	0.000191689	-2.67E-05	9.704589844	1.022338867	1.188659668	0.017547608	0.009584427	-0.001335144	-0.427978516	-0.822998047	-0.449462891	891.62	38.14227353	-80.26956747	36.47932311	-70
13112	0	0.386697769	0.040642738	0.048336029	0.999999046	0.000254631	0.00030899	0.00014019	9.667444229	1.016068459	1.208400726	0.012731553	0.015449524	0.007009506	-0.427978516	-0.822998047	-0.446533203	891.7	37.98518284	-80.23698961	36.66937001	-70
13113	0	0.386779785	0.040527344	0.04876709	0.999999046	0.000465393	0.0001688	0.000118256	9.669494629	1.013183594	1.219177246	0.023269654	0.008440018	0.005912781	-0.428222656	-0.820800781	-0.446777344	891.64	37.92264962	-80.21565652	36.78775909	-70
13114	0	0.388298035	0.04145813	0.050201416	0.999999046	0.000366211	0.000154495	5.63E-05	9.707450867	1.036453247	1.2550354	0.018310547	0.007724762	0.002813339	-0.428222656	-0.820800781	-0.443847656	891.66	37.88804584	-80.19134801	36.86662716	-70
13115	0	0.386962891	0.04107666	0.050170898	0.999999046	0.000282288	0.000222206	2.67E-05	9.674072266	1.026916504	1.254272461	0.01411438	0.011110306	0.001335144	-0.428222656	-0.822998047	-0.443603516	891.68	37.83263073	-80.15894452	36.95685941	-69
13116	0	0.388590813	0.04090023	0.050075531	0.999999046	0.000384331	0.000267029	0.000164032	9.714770317	1.02250576	1.251888275	0.019216538	0.013351441	0.008201599	-0.428222656	-0.822998047	-0.443603516	891.7	37.70025829	-80.13224692	37.13693962	-69
13117	0	0.388549805	0.042907715	0.050720215	0.999999046	0.000499725	0.00023365	9.16E-05	9.713745117	1.072692871	1.268005371	0.024986268	0.011682511	0.004577637	-0.42578125	-0.822998047	-0.443847656	891.68	37.63392989	-80.10351785	37.26332686	-69
13118	0	0.388350487	0.041176796	0.050065994	0.999999046	0.000169754	0.000133514	0.000128746	9.708762169	1.029419899	1.251649857	0.008487702	0.00667572	0.006437302	-0.423339844	-0.825439453	-0.440917969	891.7	37.55164602	-80.08660876	37.36796866	-69
13119	0	0.389770508	0.041503906	0.050292969	0.999999046	0.000324249	0.000309944	9.54E-05	9.744262695	1.037597656	1.257324219	0.016212464	0.015497208	0.004768372	-0.423339844	-0.825439453	-0.443603516	891.6	37.43519114	-80.05145323	37.52481011	-70
13120	0	0.38944149	0.044330597	0.051176071	0.999999046	0.000121117	0.000320435	0.000372887	9.736037254	1.108264923	1.279401779	0.006055832	0.016021729	0.018644334	-0.42578125	-0.825195313	-0.440673828	891.64	37.14949694	-80.03454754	37.83034946	-70
13121	0	0.387145996	0.045898438	0.050598145	0.999999046	-0.000183105	0.000500679	0.000537872	9.678649902	1.147460938	1.264953613	-0.009155274	0.025033953	0.026893618	-0.430419922	-0.825195313	-0.446289063	891.68	36.67545474	-80.01212938	38.29129401	-70
13122	0	0.385921478	0.044792175	0.052220345	0.999999046	-0.000413895	-3.81E-05	0.000407219	9.648036957	1.119804382	1.305508614	-0.020694734	-0.001907349	0.020360948	-0.42578125	-0.823242188	-0.446533203	891.7	36.45455536	-80.02986094	38.46856803	-69
13123	0	0.387329102	0.041870117	0.053344727	0.999999046	-0.000747681	-0.000296593	0.000171661	9.683227539	1.04675293	1.333618164	-0.037384037	-0.014829637	0.00858307	-0.427978516	-0.825195313	-0.443359375	891.68	36.41912583	-80.05532685	38.4193857	-68
13124	0	0.386762619	0.04013443	0.051098824	0.999999046	-0.000384331	-0.000123978	9.54E-05	9.669065475	1.003360748	1.277470589	-0.019216538	-0.006198883	0.004768372	-0.430175781	-0.825195313	-0.44921875	891.68	36.39890346	-80.0598327	38.39626489	-69
13125	0	0.38861084	0.040649414	0.050720215	0.999999046	-0.000110626	-4.10E-05	4.20E-05	9.715270996	1.016235352	1.268005371	-0.005531311	-0.0020504	0.002098084	-0.428222656	-0.822998047	-0.443603516	891.6	36.40656539	-80.05320692	38.37733075	-70
13126	0	0.38886261	0.040909767	0.052466393	0.999999046	-8.96E-05	-0.000352859	0.000121117	9.721565247	1.022744179	1.311659813	-0.004482269	-0.017642975	0.006055832	-0.428222656	-0.822998047	-0.443603516	891.6	36.49653187	-80.08078696	38.27707521	-69
13127	0	0.388244629	0.041870117	0.053833008	0.999999046	-6.48E-05	6.58E-05	0.000144958	9.706115723	1.04675293	1.345825195	-0.003242493	0.003290176	0.007247925	-0.430419922	-0.822998047	-0.443603516	891.74	36.41423038	-80.07137338	38.35458115	-69
13128	0	0.387700081	0.041995049	0.050958633	0.999999046	7.92E-05	4.77E-05	0.000324249	9.692502022	1.049876213	1.273965836	0.003957748	0.002384186	0.016212464	-0.427978516	-0.822998047	-0.446533203	891.7	36.2618654	-80.07586643	38.5196229	-69
13129	0	0.389648438	0.043640137	0.05279541	0.999999046	-9.92E-05	1.62E-05	0.00031662	9.741210938	1.091003418	1.319885254	-0.004959107	0.000810623	0.015830994	-0.430419922	-0.822998047	-0.443603516	891.64	36.10607185	-80.08265042	38.66797145	-69
13130	0	0.387598991	0.04387188	0.051350594	0.999999046	-0.000242233	-4.20E-05	0.00026989	9.689974785	1.096796989	1.283764839	-0.012111664	-0.002098084	0.013494492	-0.430419922	-0.820800781	-0.446533203	891.64	35.98218949	-80.09161939	38.76688542	-69
13131	0	0.38848877	0.04119873	0.052124023	0.999999046	-0.000263214	-1.43E-05	9.16E-05	9.712219238	1.029968262	1.303100586	-0.013160706	-0.000715256	0.004577637	-0.430419922	-0.822998047	-0.443603516	891.72	35.94035606	-80.08605623	38.7806745	-69
13132	0	0.387702942	0.037926674	0.051521301	0.999999046	-0.000136375	9.92E-05	-3.05E-05	9.692573547	0.948166847	1.288032532	-0.006818771	0.004959106	-0.001525879	-0.427978516	-0.820800781	-0.452392578	891.68	35.93400513	-80.06193318	38.77198298	-69
13133	0	0.388183594	0.038208008	0.052001953	0.999999046	0.000183105	0.000203133	-7.63E-06	9.704589844	0.955200195	1.300048828	0.009155274	0.010156632	-0.00038147	-0.428222656	-0.820800781	-0.446777344	891.64	35.91218029	-80.02985836	38.81715931	-69
13134	0	0.39041996	0.040124893	0.052022934	0.999999046	0.000303268	4.96E-05	9.54E-05	9.760499001	1.00312233	1.300573349	0.015163422	0.002479553	0.004768372	-0.430419922	-0.820800781	-0.449462891	891.62	35.90886719	-80.01908337	38.85709525	-69
13135	0	0.386901855	0.042358398	0.05255127	0.999999046	0.000278473	4.29E-05	0.000347137	9.672546387	1.058959961	1.313781738	0.013923645	0.002145767	0.017356873	-0.430419922	-0.822998047	-0.443603516	891.64	35.77314097	-80.02581903	39.02940893	-69
13136	0	0.387291908	0.042118073	0.052620888	0.999999046	0.000271797	0.000108719	0.000178337	9.682297707	1.052951813	1.315522194	0.013589859	0.005435944	0.008916855	-0.430419922	-0.822998047	-0.452148438	891.64	35.70148981	-80.01509825	39.13470294	-69
13137	0	0.388916016	0.040649414	0.053527832	0.999999046	0.000205994	-0.000163078	0.000274658	9.722900391	1.016235352	1.338195801	0.010299683	-0.008153916	0.01373291	-0.430419922	-0.822998047	-0.443603516	891.68	35.67483155	-80.03613208	39.18786131	-69
13138	0	0.388588905	0.041677475	0.051368713	0.999999046	1.53E-05	-6.87E-05	0.000137329	9.714722633	1.041936874	1.284217834	0.000762939	-0.003433228	0.006866455	-0.430419922	-0.822998047	-0.446289063	891.68	35.66389178	-80.03928312	39.20231616	-69
13139	0	0.389282227	0.039245605	0.050598145	0.999999046	0.000343323	4.77E-06	0.000144958	9.732055664	0.981140137	1.264953613	0.017166138	0.000238419	0.007247925	-0.427978516	-0.822998047	-0.446533203	891.66	35.65890673	-80.03629954	39.24879603	-69
13140	0	0.388438225	0.040267944	0.053502083	0.999999046	0.000475883	-1.91E-06	0.000202179	9.71095562	1.006698608	1.337552071	0.023794175	-9.54E-05	0.010108948	-0.428222656	-0.820800781	-0.449462891	891.64	35.64138796	-80.03778904	39.32301647	-69
13141	0	0.388671875	0.039855957	0.052246094	0.999999046	0.00038147	-2.19E-05	7.25E-05	9.716796875	0.996398926	1.306152344	0.019073487	-0.001096725	0.003623962	-0.430419922	-0.822998047	-0.440673828	891.7	35.68961626	-80.03257429	39.32074427	-69
13142	0	0.388435364	0.039227486	0.051342964	0.999999046	0.000806808	-0.000291824	3.43E-05	9.710884094	0.980687141	1.283574104	0.040340429	-0.014591219	0.001716614	-0.428222656	-0.822998047	-0.440673828	891.74	35.90990784	-80.05003694	39.19262521	-69
13143	0	0.387512207	0.039916992	0.052429199	0.999999046	0.00075531	-0.000403404	-1.14E-05	9.687805176	0.997924805	1.31072998	0.037765508	-0.020170214	-0.000572205	-0.430419922	-0.825195313	-0.443359375	891.68	36.19222216	-80.07472002	38.99515134	-69
13144	0	0.388162613	0.040247917	0.051688194	0.999999046	0.000603676	-0.000606537	4.96E-05	9.704065323	1.006197929	1.292204857	0.030183796	-0.030326847	0.002479554	-0.430419922	-0.822998047	-0.446289063	891.64	36.5055568	-80.12220204	38.74817252	-69
13145	0	0.389343262	0.038391113	0.052307129	0.999999046	0.000701904	-0.000292778	0.000244141	9.733581543	0.959777832	1.307678223	0.035095219	-0.014638902	0.012207033	-0.430664063	-0.825195313	-0.434814453	891.64	36.60544678	-80.15402935	38.73076203	-69
13146	0	0.388295174	0.041387558	0.052325249	0.999999046	0.000797272	0.000123978	0.000178337	9.707379341	1.03468895	1.308131218	0.039863591	0.006198884	0.008916856	-0.430419922	-0.827392578	-0.4375	891.7	36.58751577	-80.14300817	38.84324724	-69
13147	0	0.389831543	0.041748047	0.050964355	0.999999046	0.000869751	-0.000102043	0.000225067	9.745788574	1.043701172	1.274108887	0.043487555	-0.005102158	0.011253358	-0.430419922	-0.827392578	-0.4375	891.7	36.64260366	-80.1560292	38.88988285	-68
13148	0	0.390164375	0.039278984	0.050082207	0.999999046	0.000527382	0.0001297	0.000144005	9.754109383	0.981974602	1.252055168	0.026369096	0.006484986	0.007200241	-0.430419922	-0.825195313	-0.4375	891.74	36.61022855	-80.14235898	38.98536631	-68
13149	0	0.389099121	0.040649414	0.050109863	0.999999046	0.000736237	0.000405312	0.000106812	9.727478027	1.016235352	1.252746582	0.036811833	0.020265582	0.005340577	-0.430419922	-0.827148438	-0.431640625	891.7	36.5141699	-80.10087145	39.17052858	-67
13150	0	0.387845039	0.041191101	0.051888466	0.999999046	0.000597	0.000106812	0.000152588	9.696125984	1.029777527	1.297211647	0.029850008	0.005340577	0.007629395	-0.430419922	-0.827148438	-0.431640625	891.76	36.49550101	-80.08998835	39.26058233	-67
13151	0	0.386230469	0.041259766	0.051818848	0.999999046	0.000675201	9.63E-05	3.05E-05	9.655761719	1.031494141	1.295471191	0.033760073	0.004816056	0.001525879	-0.430419922	-0.829589844	-0.437255859	891.68	36.55453118	-80.07176196	39.28022202	-67
13152	0	0.386833191	0.041851997	0.049699783	0.999999046	0.00039196	-5.15E-05	-1.91E-05	9.670829773	1.046299934	1.242494583	0.019598008	-0.002574921	-0.000953674	-0.430664063	-0.827148438	-0.428710938	891.74	36.66548883	-80.06383669	39.21524631	-67
13153	0	0.388549805	0.042114258	0.048400879	0.999999046	0.000102997	-0.000208855	3.81E-05	9.713745117	1.052856445	1.210021973	0.005149841	-0.010442734	0.001907349	-0.430419922	-0.827148438	-0.431640625	891.64	36.77581748	-80.07441362	39.11672092	-68
13154	0	0.388572693	0.04172802	0.048228264	0.999999046	-5.34E-05	-7.63E-05	4.20E-05	9.714317322	1.043200493	1.205706596	-0.002670288	-0.003814697	0.002098083	-0.427978516	-0.829589844	-0.431640625	891.64	36.81524759	-80.07322467	39.07217693	-68
13155	0	0.388977051	0.042114258	0.048095703	0.999999046	-0.000137329	-0.000216484	-7.63E-05	9.72442627	1.052856445	1.202392578	-0.006866455	-0.010824204	-0.003814697	-0.430419922	-0.829345703	-0.428710938	891.6	36.963083	-80.07688801	38.90816233	-68
13156	0	0.38880825	0.041366577	0.048425674	0.999999046	-0.000266075	-0.000230789	-3.81E-06	9.720206261	1.034164429	1.210641861	-0.013303757	-0.011539459	-0.000190735	-0.430419922	-0.829345703	-0.431396484	891.6	37.06469652	-80.0869521	38.77567804	-68
13157	0	0.387878418	0.041503906	0.049133301	0.999999046	-0.000190735	-0.000208855	-1.53E-05	9.696960449	1.037597656	1.22833252	-0.009536743	-0.010442734	-0.000762939	-0.428222656	-0.827392578	-0.431884766	891.7	37.1729816	-80.09428216	38.6451255	-68
13158	0	0.388507843	0.041191101	0.050206184	0.999999046	-0.000305176	-0.000135422	1.14E-05	9.712696075	1.029777527	1.25515461	-0.015258789	-0.006771088	0.000572205	-0.430664063	-0.827148438	-0.428710938	891.68	37.22537735	-80.09679647	38.55849352	-68
13159	0	0.387817383	0.042053223	0.049560547	0.999999046	-0.000461578	-0.000166893	-1.53E-05	9.69543457	1.051330566	1.239013672	-0.023078919	-0.008344651	-0.000762939	-0.430664063	-0.827148438	-0.428710938	891.6	37.28685008	-80.10037298	38.44436921	-68
13160	0	0.387221336	0.04232502	0.048492432	0.999999046	-0.000542641	-0.000221252	-0.000103951	9.680533409	1.058125496	1.212310791	-0.027132036	-0.011062623	-0.005197525	-0.427978516	-0.827392578	-0.434570313	891.68	37.40778332	-80.10279023	38.25983182	-68
13161	0	0.389709473	0.041931152	0.049072266	0.999999046	-0.000530243	-0.000266075	-3.81E-05	9.742736816	1.048278809	1.226806641	-0.026512148	-0.013303757	-0.001907349	-0.427978516	-0.827392578	-0.434570313	891.64	37.51435587	-80.11389926	38.09166556	-68
13162	0	0.389305115	0.0415411	0.049762726	0.999999046	-0.00041008	-0.000232697	-0.000130653	9.732627869	1.038527489	1.244068146	-0.020503999	-0.011634827	-0.006532669	-0.427978516	-0.827392578	-0.434570313	891.7	37.66996215	-80.11551083	37.88782761	-67
13163	0	0.389892578	0.041015625	0.04901123	0.999999046	-0.000270844	6.20E-05	-1.91E-05	9.747314453	1.025390625	1.225280762	-0.013542175	0.003099442	-0.000953674	-0.430664063	-0.825195313	-0.434814453	891.64	37.66516807	-80.09827693	37.86295431	-68
13164	0	0.389761925	0.041552544	0.049874306	0.999999046	-0.000119209	0.000162125	3.05E-05	9.744048119	1.038813591	1.246857643	-0.005960465	0.008106232	0.001525879	-0.428222656	-0.827392578	-0.431884766	891.68	37.6120131	-80.07549712	37.90523849	-68
13165	0	0.387268066	0.039550781	0.049255371	0.999999046	-0.000190735	0.000107765	0	9.68170166	0.988769531	1.231384277	-0.009536743	0.00538826	0	-0.430419922	-0.827148438	-0.431640625	891.58	37.58811294	-80.05565522	37.90932833	-68
13166	0	0.387196541	0.040203094	0.048254013	0.999999046	-0.000110626	0.000160217	-3.05E-05	9.679913521	1.005077362	1.206350327	-0.005531311	0.008010864	-0.001525879	-0.42578125	-0.825195313	-0.435058594	891.6	37.5684579	-80.02908161	37.91782353	-68
13167	0	0.386108398	0.040527344	0.04876709	0.999999046	8.77E-05	-3.34E-05	0.000164032	9.652709961	1.013183594	1.219177246	0.004386902	-0.00166893	0.008201599	-0.42578125	-0.825195313	-0.435058594	891.72	37.54807739	-80.03381254	37.9503007	-68
13168	0	0.388077736	0.041018486	0.050136566	0.999999046	0.000275612	-1.91E-06	0.000124931	9.701943398	1.025462151	1.253414154	0.013780594	-9.54E-05	0.006246567	-0.423583984	-0.825439453	-0.435058594	891.64	37.55687686	-80.0330255	37.97502518	-68
13169	0	0.389099121	0.041809082	0.050354004	0.999999046	0.000255585	-8.68E-05	2.67E-05	9.727478027	1.045227051	1.258850098	0.012779236	-0.004339218	0.001335144	-0.42578125	-0.827392578	-0.434814453	891.64	37.64799559	-80.03312668	37.91398661	-68
13170	0	0.389292717	0.041935921	0.050263405	0.999999046	0.000125885	9.92E-05	4.86E-05	9.732317924	1.048398018	1.256585121	0.006294251	0.004959106	0.00243187	-0.427978516	-0.827392578	-0.4375	891.64	37.63899438	-80.01792854	37.93923585	-68
13171	0	0.389648438	0.041931152	0.048828125	0.999999046	0.000419617	0.000187874	0.000144958	9.741210938	1.048278809	1.220703125	0.020980836	0.009393692	0.007247925	-0.42578125	-0.827392578	-0.431884766	891.7	37.57926968	-80.00152519	38.0508251	-68
13172	0	0.388175964	0.041921616	0.050768852	0.999999046	0.000315666	0.00018692	0.000197411	9.704399109	1.04804039	1.269221306	0.01578331	0.009346009	0.009870529	-0.42578125	-0.827392578	-0.434814453	891.68	37.48129531	-79.9888697	38.18859565	-68
13173	0	0.387390137	0.041931152	0.052734375	0.999999046	9.54E-05	0.00036335	0.000167847	9.684753418	1.048278809	1.318359375	0.004768372	0.018167496	0.008392334	-0.42578125	-0.827392578	-0.434814453	891.68	37.30403844	-79.95797754	38.38136848	-68
13174	0	0.386633873	0.042970657	0.052578926	0.999999046	0.000108719	0.000356674	0.000175476	9.665846825	1.074266434	1.314473152	0.005435944	0.01783371	0.008773804	-0.42578125	-0.827392578	-0.431884766	891.64	37.12817781	-79.92803963	38.5746695	-68
13175	0	0.388916016	0.044677734	0.051879883	0.999999046	0.000156403	0.000321388	0.000289917	9.722900391	1.116943359	1.29699707	0.00782013	0.016069413	0.01449585	-0.42578125	-0.827392578	-0.434814453	891.6	36.91427315	-79.90904195	38.81172871	-68
13176	0	0.388419151	0.042942047	0.051504135	0.999999046	-0.00048542	-0.000171661	0.000166893	9.710478783	1.073551178	1.287603378	-0.024271013	-0.008583069	0.008344651	-0.42578125	-0.825195313	-0.437744141	891.64	36.88162991	-79.92667435	38.78975948	-68
13177	0	0.388977051	0.043151855	0.051513672	0.999999046	-0.000511169	9.63E-05	0.000156403	9.72442627	1.078796387	1.287841797	-0.025558473	0.004816056	0.00782013	-0.425537109	-0.827392578	-0.440429688	891.64	36.74821875	-79.91899658	38.86730728	-68
13178	0	0.389224052	0.04163456	0.051141739	0.999999046	-0.00019455	0.000192642	0.000263214	9.730601311	1.040863991	1.278543472	-0.009727478	0.009632111	0.013160706	-0.425537109	-0.827392578	-0.440429688	891.64	36.55920298	-79.90979023	39.03840514	-68
13179	0	0.389648438	0.042785645	0.05267334	0.999999046	-0.00050354	0.000130653	0.000301361	9.741210938	1.069641113	1.316833496	-0.025177003	0.006532669	0.015068055	-0.423339844	-0.827636719	-0.434814453	891.7	36.33925493	-79.90875317	39.20581221	-68
13180	0	0.387646675	0.04353714	0.051840782	0.999999046	-0.000361443	0.000270844	0.000171661	9.691166878	1.088428497	1.296019554	-0.018072129	0.013542176	0.008583069	-0.42578125	-0.825195313	-0.437744141	891.64	36.15041817	-79.88582926	39.35744403	-68
13181	0	0.388671875	0.041503906	0.05267334	0.999999046	-0.000549316	0.000405312	0.000133514	9.716796875	1.037597656	1.316833496	-0.027465823	0.020265581	0.006675721	-0.425537109	-0.827392578	-0.440429688	891.58	35.91012285	-79.84777901	39.5394416	-68
13182	0	0.390228271	0.042990685	0.051570892	0.999999046	-0.000133514	0.000572205	0	9.755706787	1.074767113	1.289272308	-0.006675721	0.028610231	0	-0.42578125	-0.822998047	-0.443847656	891.6	35.72660583	-79.78518544	39.7116463	-68
13183	0	0.388977051	0.040222168	0.05670166	0.999999046	0.000232697	0.001069069	-8.39E-05	9.72442627	1.005554199	1.417541504	0.011634829	0.053453456	-0.004196168	-0.423339844	-0.823242188	-0.443847656	891.64	35.4474576	-79.67048825	40.02404952	-68
13184	0	0.385492325	0.037993431	0.056897163	0.999999046	0.000388145	0.000892639	-7.63E-06	9.637308121	0.949835777	1.422429085	0.019407275	0.044631965	-0.00038147	-0.423339844	-0.825439453	-0.443603516	891.6	35.21571395	-79.57708239	40.30670401	-68
13185	0	0.386291504	0.042297363	0.055541992	0.999999046	0.000873566	0.000653267	0.000106812	9.657287598	1.057434082	1.388549805	0.043678292	0.032663352	0.005340577	-0.423339844	-0.827636719	-0.440673828	891.7	35.07093323	-79.51345037	40.5579375	-68
13186	0	0.387815475	0.044996262	0.055358887	0.999999046	0.001199722	0.000595093	0.00031662	9.695386887	1.12490654	1.383972168	0.059986133	0.029754648	0.015830999	-0.423339844	-0.825439453	-0.440917969	891.58	34.88100131	-79.4688623	40.89255831	-69
13187	0	0.386901855	0.044433594	0.05657959	0.999999046	0.000648499	0.000401497	0.000305176	9.672546387	1.110839844	1.414489746	0.03242493	0.020074847	0.015258791	-0.423339844	-0.827636719	-0.434814453	891.54	34.70410985	-79.44145497	41.15078169	-69
13188	0	0.386758804	0.041891098	0.057505608	0.999999046	0.00049305	0.000404358	0.000285149	9.668970108	1.047277451	1.43764019	0.024652483	0.020217897	0.014257432	-0.420898438	-0.827636719	-0.435058594	891.58	34.5195039	-79.4122754	41.39819869	-68
13189	0	0.385986328	0.043823242	0.054870605	0.999999046	0.000610352	0.000294685	0.000366211	9.649658203	1.095581055	1.371765137	0.030517581	0.01473427	0.018310549	-0.420898438	-0.827636719	-0.440673828	891.6	34.34712574	-79.3985819	41.64573006	-68
13190	0	0.386838913	0.042141914	0.055290222	0.999999046	0.000383377	0.00019455	0.000323296	9.670972824	1.053547859	1.382255554	0.019168855	0.009727478	0.01616478	-0.420898438	-0.827636719	-0.435058594	891.58	34.20575492	-79.39152756	41.83650683	-69
13191	0	0.388793945	0.042053223	0.05682373	0.999999046	0.000267029	0.000119209	0.000179291	9.719848633	1.051330566	1.420593262	0.013351441	0.005960465	0.008964539	-0.420898438	-0.827636719	-0.437988281	891.6	34.150136	-79.38229372	41.92577676	-69
13192	0	0.388916969	0.041210175	0.055062294	0.999999046	0.000275612	0.000425339	0.000105858	9.722924232	1.030254364	1.37655735	0.013780594	0.021266938	0.005292893	-0.420898438	-0.827636719	-0.437988281	891.6	34.02846419	-79.33937674	42.08340764	-69
13193	0	0.38684082	0.044433594	0.055664063	0.999999046	9.92E-05	0.000435829	0.000293732	9.671020508	1.110839844	1.391601563	0.004959107	0.021791459	0.014686585	-0.420898438	-0.829833984	-0.440673828	891.64	33.79044646	-79.30736692	42.3387534	-68
13194	0	0.387001038	0.043423653	0.055624962	0.999999046	-8.77E-05	0.000347137	0.000216484	9.67502594	1.085591316	1.390624046	-0.004386902	0.017356873	0.010824204	-0.423339844	-0.827636719	-0.434814453	891.7	33.6019062	-79.27875408	42.52320021	-68
13195	0	0.386047363	0.041564941	0.05480957	0.999999046	-0.000358582	0.000195503	0.000144958	9.651184082	1.039123535	1.370239258	-0.017929078	0.009775162	0.007247925	-0.420898438	-0.829833984	-0.437744141	891.64	33.47037977	-79.26011542	42.61746628	-68
13196	0	0.385792732	0.042510033	0.05718708	0.999999046	-0.000599861	-0.000225067	0.000185966	9.644818306	1.062750816	1.42967701	-0.029993059	-0.011253358	0.009298325	-0.420898438	-0.827636719	-0.440673828	891.64	33.43126567	-79.28423661	42.58892608	-69
13197	0	0.385559082	0.04107666	0.056030273	0.999999046	-0.000514984	-0.000590324	0.00012207	9.638977051	1.026916504	1.400756836	-0.025749209	-0.029516223	0.006103516	-0.420898438	-0.827636719	-0.435058594	891.76	33.55708031	-79.33928046	42.40379688	-68
13198	0	0.385879517	0.041595459	0.056287766	0.999999046	-0.000436783	-0.001174927	9.06E-05	9.646987915	1.039886475	1.407194138	-0.021839148	-0.058746353	0.004529954	-0.423339844	-0.825439453	-0.440917969	891.7	33.90950389	-79.44790809	41.99557403	-68
13199	0	0.38671875	0.040405273	0.054260254	0.999998093	-0.000731468	-0.001514435	6.48E-05	9.66796875	1.010131836	1.356506348	-0.036573427	-0.075721776	0.003242494	-0.423339844	-0.825439453	-0.437988281	891.64	34.36856357	-79.58665285	41.44563523	-69
13200	0	0.387923241	0.041314125	0.052779198	0.999998093	-0.000581741	-0.001494408	2.57E-05	9.698081017	1.032853127	1.319479942	-0.029087079	-0.074720415	0.001287461	-0.423583984	-0.825439453	-0.435058594	891.7	34.87199689	-79.72021737	40.86879312	-68
13201	0	0.389099121	0.041259766	0.052734375	0.999998093	-0.000655174	-0.001667023	0.000167847	9.727478027	1.031494141	1.318359375	-0.03275873	-0.08335118	0.008392339	-0.42578125	-0.825195313	-0.437744141	891.66	35.37134593	-79.87847966	40.28696904	-68
13202	0	0.38977623	0.039898872	0.052280426	0.999998093	-0.000908852	-0.001467705	0.000137329	9.744405746	0.997471809	1.307010651	-0.045442604	-0.073385275	0.006866459	-0.428222656	-0.825195313	-0.437744141	891.6	35.79837649	-80.01536236	39.74954589	-68
13203	0	0.38848877	0.039611816	0.051025391	0.999999046	-0.000682831	-0.000704765	0.000118256	9.712219238	0.99029541	1.275634766	-0.034141546	-0.035238272	0.005912782	-0.430664063	-0.820556641	-0.435058594	891.76	35.97880927	-80.07970158	39.48931225	-68
13204	0	0.389426231	0.041339874	0.05175209	0.999999046	-0.000395775	-0.000600815	0.000323296	9.735655785	1.033496857	1.293802261	-0.019788744	-0.030040744	0.016164781	-0.428222656	-0.822998047	-0.440673828	891.6	36.04556312	-80.14809503	39.37669607	-68
13205	0	0.389831543	0.039672852	0.051513672	0.999999046	-0.000423431	-0.000617027	0.000354767	9.745788574	0.991821289	1.287841797	-0.021171572	-0.030851368	0.017738344	-0.430664063	-0.820800781	-0.437988281	891.64	36.09955344	-80.22010746	39.27466146	-68
13206	0	0.387481689	0.03898716	0.051921844	0.999999046	-0.000185013	-0.000448227	0.000243187	9.687042236	0.974678993	1.298046112	-0.009250641	-0.022411348	0.012159348	-0.430664063	-0.822753906	-0.434814453	891.68	36.17513445	-80.26891067	39.17939548	-68
13207	0	0.390686035	0.0390625	0.050598145	0.999999046	-0.000152588	-0.000300407	0.000267029	9.767150879	0.9765625	1.264953613	-0.007629395	-0.015020371	0.013351441	-0.433105469	-0.820556641	-0.437744141	891.64	36.18344663	-80.30568004	39.15489979	-68
13208	0	0.390188217	0.04219532	0.048910141	0.999999046	0.000126839	0.000234604	0.000105858	9.754705429	1.054883003	1.222753525	0.006341934	0.011730194	0.005292893	-0.433105469	-0.820556641	-0.440673828	891.76	36.10022054	-80.28204598	39.25508886	-68
13209	0	0.390075684	0.041931152	0.04876709	0.999999046	-0.000236511	0.000508308	0.00019455	9.75189209	1.048278809	1.219177246	-0.011825562	0.025415422	0.009727479	-0.430664063	-0.820800781	-0.437988281	891.58	35.82164211	-80.2389579	39.5125134	-68
13210	0	0.390956879	0.041632652	0.049610138	0.999999046	-0.000167847	0.001312256	-1.91E-05	9.773921967	1.040816307	1.240253448	-0.008392336	0.065612812	-0.000953675	-0.430664063	-0.820800781	-0.440917969	891.6	35.3608276	-80.10644113	39.96248302	-69
13211	0	0.389343262	0.044433594	0.053344727	0.999999046	-0.000431061	0.001095772	-8.77E-05	9.733581543	1.110839844	1.333618164	-0.021553045	0.054788602	-0.004386903	-0.428466797	-0.818603516	-0.435302734	891.64	34.99983674	-79.98892919	40.28247871	-69
13212	0	0.385861397	0.039937973	0.053918839	0.999999046	-0.000422478	0.000642776	-6.20E-05	9.64653492	0.998449326	1.347970963	-0.021123888	0.032138828	-0.003099442	-0.428466797	-0.818603516	-0.438232422	891.7	34.79977336	-79.91534228	40.43914918	-69
13213	0	0.383789063	0.039916992	0.05078125	0.999999046	6.10E-05	0.000329018	4.58E-05	9.594726563	0.997924805	1.26953125	0.003051758	0.016450882	0.002288818	-0.428466797	-0.818603516	-0.441162109	891.78	34.71538507	-79.87834163	40.5336482	-69
13214	0	0.388154984	0.04006958	0.048893929	0.999999046	-0.000188828	3.81E-05	5.63E-05	9.703874588	1.001739502	1.222348213	-0.009441376	0.001907349	0.002813339	-0.428222656	-0.818603516	-0.444091797	891.64	34.70414932	-79.86961273	40.52414696	-69
13215	0	0.389587402	0.041442871	0.049926758	0.999999046	-0.000106812	-2.57E-05	0.000167847	9.739685059	1.036071777	1.248168945	-0.005340576	-0.00128746	0.008392334	-0.428222656	-0.818603516	-0.444091797	891.7	34.66760652	-79.87430948	40.55026559	-69
13216	0	0.386184692	0.039531708	0.051745415	0.999999046	-0.000349998	0.000816345	0.000270844	9.65461731	0.988292694	1.293635368	-0.017499926	0.040817267	0.013542177	-0.428466797	-0.81640625	-0.438476563	891.64	34.24423677	-79.8061685	40.94317448	-69
13217	0	0.387451172	0.040710449	0.049865723	0.999999046	-0.000175476	0.000805855	0.00030899	9.686279297	1.01776123	1.246643066	-0.008773805	0.040292745	0.015449526	-0.428466797	-0.818603516	-0.441162109	891.6	33.83061628	-79.74111874	41.34596735	-69
13218	0	0.389595985	0.041916847	0.048981667	0.999999046	-0.000276566	0.001014709	0.000395775	9.739899635	1.047921181	1.224541664	-0.01382828	0.050735484	0.019788746	-0.428222656	-0.81640625	-0.447021484	891.6	33.29413171	-79.66122872	41.85999907	-70
13219	0	0.387207031	0.042907715	0.049804688	0.999999046	-0.00056839	0.001049995	0.000442505	9.680175781	1.072692871	1.245117188	-0.028419502	0.052499785	0.02212525	-0.428466797	-0.814208984	-0.444335938	891.68	32.69757949	-79.58009173	42.40297074	-70
13220	0	0.389453888	0.040673256	0.051766396	0.999999046	-0.000676155	0.000896454	0.000483513	9.736347198	1.016831398	1.294159889	-0.033807763	0.044822704	0.02417565	-0.426025391	-0.81640625	-0.447265625	891.6	32.12749285	-79.5154942	42.9064534	-71
13221	0	0.38885498	0.0390625	0.052246094	0.999999046	-0.000675201	0.000702858	0.000534058	9.721374512	0.9765625	1.306152344	-0.033760078	0.035142906	0.026702886	-0.426025391	-0.814453125	-0.453125	891.6	31.60070077	-79.47211883	43.36424925	-71
13222	0	0.386561394	0.037905693	0.05375576	0.999999046	-0.000667572	0.000921249	0.000598907	9.664034843	0.947642326	1.343894005	-0.03337861	0.046062482	0.029945382	-0.426025391	-0.812255859	-0.453369141	891.64	30.97589252	-79.4105269	43.92352403	-72
13223	0	0.383178711	0.03894043	0.055358887	0.999999046	-0.000518799	5.82E-05	0.000598907	9.579467773	0.973510742	1.383972168	-0.025939944	0.002908707	0.029945377	-0.426025391	-0.812011719	-0.450439453	891.7	30.64366595	-79.43306493	44.20432958	-72
13224	0	0.383401871	0.038425446	0.053367615	0.999999046	-0.000962257	-0.000530243	0.000685692	9.585046768	0.960636139	1.334190369	-0.048112883	-0.026512153	0.034284601	-0.428466797	-0.812011719	-0.453125	891.72	30.39754339	-79.51860978	44.34514985	-72
13225	0	0.384643555	0.038696289	0.05670166	0.999999046	-0.000938416	-7.15E-05	0.000652313	9.616088867	0.967407227	1.417541504	-0.046920787	-0.003576279	0.032615669	-0.430908203	-0.809814453	-0.453125	891.72	30.02591115	-79.5566189	44.61677407	-72
13226	0	0.382078171	0.038696289	0.059343338	0.999998093	-0.001629829	-4.10E-05	0.000152588	9.551954269	0.967407227	1.48358345	-0.081491507	-0.002050401	0.007629398	-0.433349609	-0.807373047	-0.450439453	891.6	29.83351057	-79.5625812	44.62767338	-72
13227	0	0.380737305	0.036804199	0.059326172	0.999996185	-0.00215435	0.000782013	-0.001018524	9.518432617	0.92010498	1.483154297	-0.107717627	0.039100688	-0.050926262	-0.430908203	-0.807617188	-0.453369141	891.66	29.95467635	-79.41972065	44.25861908	-72
13228	0	0.379161835	0.037864685	0.06081295	0.999996185	-0.001102448	0.000489235	-0.002292633	9.479045868	0.946617126	1.520323753	-0.055122437	0.024461774	-0.114631781	-0.428466797	-0.805419922	-0.459472656	891.66	30.94103968	-79.23091136	43.12843914	-72
13229	0	0.379455566	0.040771484	0.06060791	0.999995232	-0.000713348	0.000638008	-0.002605438	9.48638916	1.019287109	1.515197754	-0.035667465	0.031900447	-0.130272079	-0.426025391	-0.810058594	-0.459228516	891.7	32.0450486	-79.00484207	41.92485469	-72
13230	0	0.38390255	0.046225548	0.060916901	0.999997139	-4.01E-05	0.000530243	-0.00207901	9.597563744	1.155638695	1.522922516	-0.002002718	0.026512166	-0.10395058	-0.418945313	-0.810302734	-0.465332031	891.72	32.95832494	-78.81739996	40.98977505	-72
13231	0	0.395935059	0.041992188	0.057189941	0.999999046	0.000110626	0.000721931	-0.001171112	9.898376465	1.049804688	1.429748535	0.005531313	0.036096584	-0.058555622	-0.416503906	-0.810302734	-0.462646484	891.64	33.36608249	-78.66667188	40.58897348	-72
13232	0	0.400639534	0.039891243	0.05928421	0.999998093	-0.000635147	0.001162529	-0.000794411	10.01598835	0.997281075	1.482105255	-0.031757367	0.058126473	-0.039720551	-0.4140625	-0.8125	-0.459716797	891.64	33.36331751	-78.49755057	40.52270231	-72
13233	0	0.395385742	0.039123535	0.058349609	0.999997139	-0.001693726	0.001572609	-0.00037384	9.884643555	0.978088379	1.458740234	-0.084686357	0.078630519	-0.018692034	-0.411621094	-0.812744141	-0.468261719	891.66	32.91877305	-78.31583693	40.78082781	-72
13234	0	0.379225731	0.034004211	0.045984268	0.999997139	-0.002225876	0.000154495	5.34E-05	9.480643272	0.850105286	1.149606705	-0.111293885	0.007724768	0.00267029	-0.411621094	-0.810546875	-0.471435547	891.7	32.64733958	-78.29783489	40.80028616	-71
13235	0	0.394165039	0.022155762	0.025268555	0.999999046	-0.000774384	0.000699043	0.000610352	9.854125977	0.553894043	0.631713867	-0.038719187	0.034952172	0.030517586	-0.411621094	-0.808349609	-0.474365234	891.64	32.12239891	-78.26355064	41.247555	-70
13236	0	0.407829285	0.029360771	0.031498909	0.999997139	0.000834465	0.00097084	0.001698494	10.19573212	0.734019279	0.787472725	0.041723283	0.048542059	0.084924762	-0.4140625	-0.808349609	-0.474365234	891.64	31.19584586	-78.26896974	42.29326591	-70
13237	0	0.393127441	0.038574219	0.038208008	0.999994278	0.000905037	-1.53E-05	0.003078461	9.828186035	0.964355469	0.955200195	0.045251924	-0.000762941	0.153923299	-0.416503906	-0.808105469	-0.471435547	891.64	29.88854842	-78.44913162	43.73695113	-72
13238	0	0.389707565	0.038015366	0.03897953	0.999994278	-0.000157356	0.001128197	0.003183365	9.742689133	0.95038414	0.974488258	-0.007867828	0.056409943	0.159168547	-0.423583984	-0.805664063	-0.471191406	891.7	28.05968074	-78.51350195	45.58962817	-73
13239	0	0.387084961	0.036376953	0.038269043	0.999993324	-0.000621796	0.002133369	0.002746582	9.677124023	0.909423828	0.956726074	-0.031089847	0.106668694	0.137329387	-0.430908203	-0.805419922	-0.468017578	891.7	26.13256663	-78.44143969	47.49569084	-75
13240	0	0.379875183	0.028015137	0.040046692	0.999992371	-0.001693726	0.002272606	0.002385139	9.496879578	0.700378418	1.001167297	-0.084686473	0.113630555	0.119257246	-0.433105469	-0.803222656	-0.479492188	891.66	24.26100172	-78.32586449	49.21269571	-73
13241	0	0.378601074	0.022033691	0.036621094	0.999994278	-0.001322746	0.002010345	0.002010345	9.465026855	0.550842285	0.915527344	-0.066137422	0.100517438	0.100517438	-0.442626953	-0.802978516	-0.473144531	891.76	22.71386132	-78.21188889	50.65804969	-70
13242	0	0.383387566	0.020290375	0.030589104	0.999996185	-0.00014782	0.002007484	0.001810074	9.58468914	0.507259369	0.764727592	-0.007390985	0.100374344	0.090503803	-0.444824219	-0.805175781	-0.475830078	891.6	21.4325845	-78.08422238	51.97107388	-69
13243	0	0.389648438	0.025939941	0.028381348	0.999992371	2.77E-05	0.003108978	0.002262115	9.741210938	0.648498535	0.709533691	0.001382831	0.155449297	0.113106053	-0.447021484	-0.804931641	-0.478515625	891.76	19.77314595	-77.85168067	53.6935621	-69
13244	0	0.389472008	0.025948524	0.029335976	0.999995232	-0.000945091	0.001909256	0.002132416	9.736800194	0.648713112	0.733399391	-0.047254634	0.095462944	0.10662095	-0.454101563	-0.806884766	-0.480957031	891.66	18.33130931	-77.73658423	55.08759739	-69
13245	0	0.400268555	0.005187988	0.02545166	0.999994278	-0.000266075	0.002815247	0.001411438	10.00671387	0.129699707	0.636291504	-0.013303779	0.140762563	0.070572017	-0.458740234	-0.8046875	-0.483642578	891.7	17.21155241	-77.4934443	56.23445868	-68
13246	0	0.402736664	0.002570152	0.030405998	0.999983788	0.002733231	0.004701614	0.001412392	10.0684166	0.064253807	0.760149956	0.136662249	0.235081956	0.070619955	-0.463378906	-0.811035156	-0.479980469	891.66	16.20776615	-77.04124341	57.63462332	-67
13247	0	0.403198242	-0.003845215	0.033630371	0.999977112	0.00483799	0.004417419	0.00163269	10.07995605	-0.096130371	0.840759277	0.241901328	0.22087265	0.081635142	-0.467773438	-0.819824219	-0.476318359	891.66	15.44920233	-76.62512793	59.04478135	-68
13248	0	0.421030998	-0.001312256	0.021060944	0.999965668	0.006439209	0.004860878	0.001523018	10.52577496	-0.032806396	0.52652359	0.321964067	0.24304663	0.07615175	-0.476806641	-0.828125	-0.472167969	891.72	14.92890088	-76.15652651	60.41001052	-67
13249	0	0.434509277	0.016906738	0.036132813	0.999962807	0.00605011	0.005810738	0.001567841	10.86273193	0.422668457	0.903320313	0.302509165	0.290540407	0.07839298	-0.481445313	-0.838867188	-0.456542969	891.66	14.30005174	-75.58348048	61.90970472	-67
13250	0	0.420405388	0.029018402	0.063066483	0.999977112	0.004511833	0.004487038	0.001940727	10.5101347	0.725460052	1.576662064	0.225593324	0.224353538	0.097037077	-0.485839844	-0.849609375	-0.441162109	891.6	13.54787726	-75.16514519	63.4430923	-66
13251	0	0.388305664	0.01940918	0.080078125	0.999992371	0.003533363	0.000320435	0.001544952	9.707641602	0.485229492	2.001953125	0.176668608	0.016021769	0.077247812	-0.497558594	-0.855712891	-0.431396484	891.7	13.29745039	-75.19792075	64.39395582	-69
13252	0	0.3822155	0.022637367	0.088521957	0.999986649	0.004831314	-0.000523567	0.001643181	9.555387497	0.565934181	2.213048935	0.241566764	-0.026178475	0.082159403	-0.509521484	-0.861816406	-0.407226563	891.6	13.23033002	-75.32653015	65.41747106	-65
13253	0	0.364501953	0.020935059	0.103820801	0.999952316	0.009091377	-0.002937317	0.001747131	9.112548828	0.523376465	2.59552002	0.45457601	-0.146868154	0.087357941	-0.523925781	-0.867919922	-0.385986328	891.64	13.84370063	-75.72605917	66.26228099	-68
13254	0	0.341980934	0.062972069	0.106840134	0.999932289	0.011219025	-0.000123978	0.002813339	8.549523354	1.57430172	2.671003342	0.560963743	-0.006199021	0.140670099	-0.540771484	-0.873535156	-0.344238281	891.72	13.93066021	-75.84005429	67.98460461	-64
13255	0	0.350097656	0.082885742	0.098815918	0.999958038	0.003773689	0.00585556	0.005844116	8.752441406	2.072143555	2.470397949	0.188687064	0.29278205	0.292209837	-0.553222656	-0.870605469	-0.312255859	891.68	11.27771143	-75.35177098	71.65570997	-66
13256	0	0.406165123	0.045351028	0.098335266	0.999986649	-0.002069473	0.004200935	0.001882553	10.15412807	1.133775711	2.458381653	-0.103474103	0.21004766	0.094128055	-0.5703125	-0.861328125	-0.303466797	891.66	9.942129884	-74.93818929	73.07784292	-64
13257	0	0.401977539	0.032958984	0.086914063	0.999979973	0.003170013	-0.002524376	-0.004764557	10.04943848	0.823974609	2.172851563	0.158501705	-0.126219619	-0.238229398	-0.575927734	-0.845458984	-0.298828125	891.64	12.56515568	-75.13501505	70.79047736	-66
13258	0	0.359697342	0.060006142	0.075695038	0.999976158	0.004131317	-0.000688553	-0.005425453	8.992433548	1.500153542	1.892375946	0.206567474	-0.034427912	-0.271274783	-0.573974609	-0.843261719	-0.276123047	891.64	15.43538643	-75.07973618	68.33636079	-65
13259	0	0.347167969	0.064025879	0.070495605	0.999980927	0.002041817	0.002597809	-0.00510788	8.679199219	1.600646973	1.762390137	0.102091465	0.129891243	-0.255395557	-0.569824219	-0.836669922	-0.259521484	891.7	17.49845673	-74.64577361	66.46091516	-67
13260	0	0.351557732	0.047859192	0.063957214	0.999986649	-0.001195908	0.003048897	-0.003858566	8.788943291	1.196479797	1.598930359	-0.059795635	0.15244549	-0.192929138	-0.560791016	-0.828125	-0.255126953	891.66	18.55182208	-74.19396769	65.23937929	-69
13261	0	0.350219727	0.04901123	0.058410645	0.999982834	-0.004183769	0.001888275	-0.003425598	8.755493164	1.225280762	1.460266113	-0.209189605	0.094414274	-0.171280844	-0.559326172	-0.810546875	-0.256591797	891.66	19.20055416	-73.87973147	64.07762591	-79
13262	0	0.359830856	0.054059029	0.042513847	0.999978065	-0.004957199	-0.000530243	-0.004227638	8.995771408	1.351475716	1.062846184	-0.24786172	-0.026512335	-0.211383418	-0.555175781	-0.793212891	-0.261230469	891.66	20.35771723	-73.79148126	62.28977509	-90
13263	0	0.373779297	0.058654785	0.02911377	0.999977112	-0.005419731	-0.002269745	-0.003223419	9.344482422	1.466369629	0.727844238	-0.270988586	-0.113488093	-0.161172166	-0.548828125	-0.775878906	-0.268798828	891.58	21.34045752	-73.92316169	60.62394423	-75
13264	0	0.412420273	0.077658653	0.028862953	0.999980927	-0.005689621	-0.002209663	-0.000347137	10.31050682	1.941466331	0.72157383	-0.284482821	-0.110483858	-0.017356981	-0.547119141	-0.756103516	-0.276123047	891.58	21.2441555	-74.16654914	60.04791815	-71
13265	0	0.424926758	0.081115723	0.043273926	0.999968529	-0.006694794	-0.004195213	0.000293732	10.62316895	2.027893066	1.081848145	-0.334743172	-0.209762851	0.014686737	-0.545654297	-0.727539063	-0.287109375	891.58	21.1048221	-74.65022863	59.39092366	-71
13266	0	0.400994301	0.045301437	0.016470909	0.999960899	-0.004579544	-0.007326126	-0.00138092	10.02485752	1.132535934	0.411772728	-0.228980125	-0.366310979	-0.069046901	-0.549072266	-0.701171875	-0.291992188	891.7	22.42379138	-75.39685969	57.47296029	-69
13267	0	0.491149902	0.05090332	0.141479492	0.999958992	-0.00863266	0.001141548	-0.002124786	12.27874756	1.272583008	3.536987305	-0.431638775	0.057078172	-0.106240741	-0.547851563	-0.677001953	-0.294189453	891.64	22.2347275	-75.20613564	56.65264874	-73
13268	0	0.495836258	0.01974678	0.156262398	0.999884605	-0.003472328	-0.011302948	-0.009449005	12.39590645	0.49366951	3.906559944	-0.173623039	-0.565168981	-0.472468298	-0.541503906	-0.648681641	-0.319824219	891.64	27.91548606	-75.94036337	50.34380877	-72
13269	0	0.3203125	0.019287109	0.143371582	0.999921799	-0.001669884	-0.0076828	-0.009685516	8.0078125	0.482177734	3.584289551	-0.083496352	-0.384149979	-0.48428838	-0.534912109	-0.635742188	-0.315429688	891.76	33.50103782	-76.14293575	44.37892145	-70
13270	0	0.332661629	0.063120842	0.130288124	0.999896049	-0.005607605	0.004592896	-0.01246357	8.316540718	1.578021049	3.257203102	-0.280389964	0.229652733	-0.623200075	-0.523193359	-0.627441406	-0.331054688	891.6	36.34550496	-74.89917811	40.7729231	-69
13271	0	0.401000977	0.086486816	0.128662109	0.999938011	-0.004192352	0.003933907	-0.009468079	10.02502441	2.16217041	3.216552734	-0.209621902	0.19669935	-0.473413612	-0.499755859	-0.6171875	-0.356201172	891.72	38.08971114	-73.88546699	38.45235154	-68
13272	0	0.365440369	0.018361092	0.101273537	0.999996185	-0.000463486	-0.002539635	0.000490189	9.136009216	0.45902729	2.531838417	-0.023174313	-0.126981881	0.024509458	-0.492675781	-0.606689453	-0.377685547	891.66	38.60736895	-74.14994972	37.84383823	-73
13273	0	0.364501953	-0.040893555	0.079162598	0.999968529	0.004199982	-0.003123283	0.005874634	9.112548828	-1.022338867	1.979064941	0.210001251	-0.156165781	0.29373472	-0.495361328	-0.593505859	-0.387207031	891.72	38.06364286	-74.85276829	38.89544985	-74
13274	0	0.364699364	-0.002137184	0.079938889	0.999929428	0.010182381	-4.77E-06	0.005972862	9.117484093	-0.053429604	1.998472214	0.509130859	-0.000238424	0.298650049	-0.503173828	-0.577880859	-0.387939453	891.72	37.26837774	-75.27789813	40.91769903	-75
13275	0	0.363891602	0.056762695	0.053283691	0.999886513	0.013008118	0.002781868	0.006958008	9.097290039	1.419067383	1.332092285	0.650430316	0.139098624	0.347913459	-0.508056641	-0.568847656	-0.394287109	891.64	35.63971555	-75.502838	44.13183444	-74
13276	0	0.331106186	0.048586845	0.050704002	0.999876022	0.013065338	0.002375603	0.008368492	8.277654648	1.214671135	1.26760006	0.653293735	0.118785014	0.41844179	-0.513183594	-0.562011719	-0.397460938	891.72	33.50785694	-75.83169402	47.86879466	-72
13277	0	0.309082031	0.016601563	0.049072266	0.999884605	0.013515472	0.001347542	0.006729126	7.727050781	0.415039063	1.226806641	0.675799501	0.067379671	0.336469184	-0.518066406	-0.555419922	-0.403320313	891.76	32.18641974	-76.13055873	50.81659381	-71
13278	0	0.35574913	0.038440704	0.029770851	0.999890327	0.013057709	0.005098343	0.004740715	8.893728256	0.961017609	0.744271278	0.652909267	0.254926449	0.237044403	-0.520263672	-0.551025391	-0.415039063	891.64	30.65386952	-75.92747251	53.92517511	-70
13279	0	0.36895752	0.059448242	0.039978027	0.99990654	0.012475014	0.003761292	0.004024506	9.223937988	1.486206055	0.999450684	0.623770021	0.188070405	0.201231518	-0.517578125	-0.553222656	-0.426513672	891.7	29.70012536	-75.80026152	56.36805649	-70
13280	0	0.390638351	0.047292709	0.050684929	0.999956131	0.007209778	0.004580498	0.00370121	9.765958786	1.182317734	1.267123222	0.360494099	0.229028195	0.185063174	-0.519775391	-0.555664063	-0.437744141	891.64	28.13549944	-75.56083362	58.8233716	-72
13281	0	0.428405762	0.048217773	0.028259277	0.999987602	0.004253387	0.000157356	0.002357483	10.71014404	1.205444336	0.706481934	0.212670212	0.007867844	0.117874611	-0.516845703	-0.558105469	-0.457763672	891.66	27.71961711	-75.68912539	59.73719561	-72
13282	0	0.477940559	0.034362793	0.028046608	0.999968529	0.006786346	-0.002407074	0.003043175	11.94851398	0.859069824	0.701165199	0.339320778	-0.120354925	0.152160287	-0.520996094	-0.564453125	-0.471435547	891.76	27.84423993	-76.11679002	60.38743702	-75
13283	0	0.557495117	0.067749023	0.177429199	0.99988842	0.010299683	0.008755684	0.006328583	13.93737793	1.693725586	4.43572998	0.515003256	0.437800453	0.316440889	-0.522460938	-0.577880859	-0.490234375	891.64	24.73882274	-75.55620072	64.78560893	-79
13284	0	0.36608696	0.136674881	0.198488235	0.999824524	0.001577377	-0.011593819	0.01458931	9.152173996	3.416872025	4.962205887	0.078873464	-0.57972473	0.729508013	-0.53125	-0.590820313	-0.500244141	891.6	20.68991258	-77.43973252	69.1129239	-77
13285	0	0.307067871	0.044799805	0.152587891	0.999908447	-0.011351585	0.000301361	0.007335663	7.676696777	1.119995117	3.814697266	-0.567596559	0.015068513	0.366794315	-0.561767578	-0.58984375	-0.504394531	891.64	15.77583778	-77.67690706	72.81268973	-80
13286	0	0.42209816	0.02432251	0.12963295	0.999964714	-0.006212234	0.005344391	0.001646042	10.55245399	0.608062744	3.240823746	-0.310615342	0.267222655	0.082303052	-0.568603516	-0.58984375	-0.527099609	891.7	13.60263044	-77.13730722	74.30899382	-79
13287	0	0.390380859	0.039489746	0.12298584	0.999973297	-0.006838799	-0.001895905	-0.001628876	9.759521484	0.987243652	3.074645996	-0.341942948	-0.094796065	-0.081444506	-0.5703125	-0.598632813	-0.540527344	891.64	13.89827958	-77.30670763	73.2015127	-79
13288	0	0.342399597	0.071614265	0.075425148	0.999912262	-0.010982513	-0.003790855	-0.006277084	8.559989929	1.790356636	1.8856287	-0.549141633	-0.18954828	-0.31386334	-0.576660156	-0.607421875	-0.553955078	891.66	16.32678951	-77.53993544	69.42455883	-85
13289	0	0.333251953	0.039001465	0.057495117	0.999897003	-0.010375023	-0.000175476	-0.009895325	8.331298828	0.975036621	1.43737793	-0.518768921	-0.008774104	-0.49478319	-0.578369141	-0.620605469	-0.564208984	891.64	20.04768208	-77.20514041	64.39642732	-82
13290	0	0.352108002	0.034887314	0.05522728	0.999917984	-0.00965023	0.00142765	-0.008206367	8.802700043	0.872182846	1.380681992	-0.48252459	0.071384456	-0.410329489	-0.565673828	-0.634277344	-0.575195313	891.7	22.54115661	-76.71075597	60.70597683	-81
13291	0	0.345947266	0.03729248	0.037536621	0.999919891	-0.011706352	0.001174927	-0.004558563	8.648681641	0.932312012	0.938415527	-0.585333143	0.058747897	-0.22793421	-0.562744141	-0.643310547	-0.591796875	891.86	23.0697933	-76.38461548	58.78756262	-76
13292	0	0.323188782	0.018604279	0.033090591	0.999931335	-0.010690689	0.000966072	-0.004607201	8.079719543	0.465106964	0.827264786	-0.534546611	0.048304703	-0.23036527	-0.562255859	-0.647949219	-0.603027344	891.7	23.71703782	-76.07512879	56.865533	-76
13293	0	0.316589355	0.011352539	0.034301758	0.999961853	-0.007052422	-0.003887177	-0.003349304	7.914733887	0.283813477	0.857543945	-0.352625549	-0.19436129	-0.167467333	-0.566650391	-0.652099609	-0.611083984	891.78	25.15557686	-76.32497272	54.55644303	-80
13294	0	0.372215271	0.025901794	0.03102684	0.999979019	-0.006321907	-0.000588417	-0.000704765	9.305381775	0.647544861	0.775671005	-0.316097502	-0.029421053	-0.035238506	-0.575927734	-0.658447266	-0.612792969	891.6	24.92610533	-76.35676975	54.0545265	-78
13295	0	0.448913574	0.039855957	0.040466309	0.99998951	-0.003639221	0.002533913	-1.53E-05	11.22283936	0.996398926	1.011657715	-0.181961656	0.126696048	-0.000762942	-0.582763672	-0.658203125	-0.624023438	891.66	24.10332143	-76.09911692	54.47751829	-72
13296	0	0.459353447	0.054690361	0.036417007	0.999999046	0.000460625	-0.000583649	0.000567436	11.48383617	1.367259026	0.910425186	0.023031238	-0.029182438	0.028371815	-0.591796875	-0.664550781	-0.625732422	891.6	24.11138187	-76.19647337	54.52796597	-69
13297	0	0.446594238	0.048034668	0.084411621	0.999974251	-0.006011963	-0.003890038	-0.000423431	11.16485596	1.200866699	2.110290527	-0.300600722	-0.194503545	-0.021171751	-0.608398438	-0.668457031	-0.618896484	891.72	24.45019183	-76.59258514	53.48080506	-70
13298	0	0.52973938	0.048974991	0.170431137	0.999925613	-0.008299828	-0.002322197	-0.008535385	13.2434845	1.224374771	4.260778427	-0.415001556	-0.116112695	-0.426779723	-0.617919922	-0.666015625	-0.621337891	891.7	27.72952624	-76.40716188	49.13952891	-70
13299	0	0.376525879	-0.022460938	0.162841797	0.999786377	-0.003821373	-0.012619019	-0.015914917	9.413146973	-0.561523438	4.071044922	-0.191082254	-0.630995852	-0.795802508	-0.619384766	-0.681396484	-0.622802734	891.6	37.03194615	-76.65396436	39.12725415	-71
13300	0	0.311442375	0.04387188	0.12497139	0.999918938	-0.002026558	0.003084183	-0.012185097	7.78605938	1.096796989	3.124284744	-0.101330634	0.154213303	-0.609271298	-0.618896484	-0.698730469	-0.610107422	891.6	40.35706785	-75.5014028	35.47222689	-69
13301	0	0.400695801	0.116210938	0.116760254	0.999960899	-0.004440308	0.003899574	-0.006439209	10.01739502	2.905273438	2.919006348	-0.222018207	0.194981196	-0.321964548	-0.599365234	-0.717041016	-0.612548828	891.7	40.90792335	-74.67474389	34.38442965	-68
13302	0	0.364746094	0.044815063	0.110590935	0.999975204	-0.004281044	-0.004687309	0.002895355	9.118652344	1.120376587	2.764773369	-0.214053937	-0.234367365	0.144768936	-0.6015625	-0.717041016	-0.620849609	891.7	40.83297015	-75.29008207	33.95841417	-71
13303	0	0.332275391	-0.04107666	0.081237793	0.999949455	-0.00056839	-0.006567955	0.007534027	8.306884766	-1.026916504	2.030944824	-0.028419969	-0.328403237	0.376707648	-0.620361328	-0.714355469	-0.620117188	891.82	40.12554308	-76.41765409	34.62447938	-70
13304	0	0.32202816	-0.000166893	0.07011795	0.999966621	0.003493309	-0.003627777	0.006383896	8.050704002	-0.004172325	1.752948761	0.174667376	-0.181390854	0.319198311	-0.64453125	-0.706787109	-0.607910156	891.64	39.27313425	-77.20053883	35.91546876	-70
13305	0	0.335693359	0.063476563	0.042785645	0.999983788	0.002414703	-0.000193596	0.005027771	8.392333984	1.586914063	1.069641113	0.120735795	-0.009679845	0.251389855	-0.658935547	-0.706054688	-0.592773438	891.6	37.61668973	-77.57189877	37.90235902	-69
13306	0	0.337964058	0.040994644	0.029020309	0.999979019	0.001656532	0.000121117	0.0061903	8.449101448	1.024866104	0.725507736	0.082827181	0.006055873	0.309517119	-0.670898438	-0.703613281	-0.595214844	891.72	35.15879637	-77.97864435	40.61615499	-70
13307	0	0.331787109	-0.014404297	0.010498047	0.999979019	0.003926277	-0.000770569	0.004947662	8.294677734	-0.360107422	0.262451172	0.196315183	-0.038528702	0.247384787	-0.685058594	-0.703125	-0.588867188	891.72	33.63455842	-78.37232079	42.63847119	-71
13308	0	0.369643211	0.010457993	0.009587288	0.999928474	0.011055946	0.003526688	0.002803802	9.241080284	0.261449814	0.239682198	0.55281045	0.17633857	0.140193455	-0.697021484	-0.704833984	-0.582275391	891.7	32.55954929	-78.21253699	45.03462618	-72
13309	0	0.429260254	0.030761719	0.042175293	0.999900818	0.01290226	0.003940582	0.004009247	10.73150635	0.769042969	1.054382324	0.64513429	0.197035619	0.20046896	-0.701171875	-0.722167969	-0.572021484	891.72	31.06414372	-78.07586009	48.07858602	-72
13310	0	0.427550316	0.038916588	0.0266819	0.999957085	0.0057621	-0.003744125	0.006155968	10.6887579	0.972914696	0.667047501	0.288109098	-0.187208924	0.307802752	-0.712646484	-0.732666016	-0.559082031	891.76	29.83701641	-78.81027129	50.01127685	-71
13311	0	0.505126953	0.050598145	0.107971191	0.999899864	0.00945282	0.007752419	0.007099152	12.62817383	1.264953613	2.699279785	0.472656736	0.387633838	0.354969405	-0.729003906	-0.736572266	-0.554931641	891.6	25.31614855	-78.40454873	55.73450149	-70
13312	0	0.540838242	0.113306999	0.175397873	0.99977684	0.01039505	-0.009633064	0.01563549	13.52095604	2.83267498	4.384946823	0.519791086	-0.481688969	0.781832556	-0.735839844	-0.745117188	-0.556640625	891.76	20.05588532	-80.11741213	62.29759557	-71
13313	0	0.329956055	0.055297852	0.144836426	0.999872208	-0.000201225	-0.006351471	0.014656067	8.248901367	1.382446289	3.620910645	-0.010061692	-0.317587055	0.732834515	-0.781738281	-0.736572266	-0.514648438	891.7	11.38983439	-81.27223544	71.06322986	-71
13314	0	0.415577888	0.007387161	0.124010086	0.999925613	0.002995491	0.0079813	0.008720398	10.38944721	0.184679031	3.100252151	0.149778264	0.39907491	0.436030706	-0.808105469	-0.72265625	-0.522949219	891.66	4.788470434	-80.49899947	78.10159124	-72
13315	0	0.428527832	0.007263184	0.103210449	0.999962807	0.007816315	-0.00077343	0.003364563	10.7131958	0.18157959	2.58026123	0.390820491	-0.038671964	0.168230197	-0.814941406	-0.724609375	-0.51953125	891.66	3.44241904	-80.60676439	80.37661791	-73
13316	0	0.328181267	0.079479218	0.082470894	0.999979973	0.00250721	-0.00510025	-0.002606392	8.20453167	1.986980438	2.061772346	0.125361306	-0.255014174	-0.130320444	-0.828857422	-0.737060547	-0.503417969	891.7	5.938829236	-81.15471935	78.14213009	-77
13317	0	0.307800293	0.092834473	0.044189453	0.99994278	-0.003455162	-0.001556396	-0.009933472	7.695007324	2.320861816	1.104736328	-0.172761357	-0.07782129	-0.496682941	-0.830810547	-0.754638672	-0.481933594	891.76	13.0245368	-81.13156767	70.57457504	-81
13318	0	0.325801849	0.043545723	0.041194916	0.999928474	-0.00651741	0.003932953	-0.009179115	8.145046234	1.088643074	1.029872894	-0.325878238	0.196652305	-0.458966643	-0.820556641	-0.774902344	-0.486572266	891.72	17.86055789	-80.40340911	64.92208638	-79
13319	0	0.322265625	0.020507813	0.038818359	0.999951363	-0.00718689	0.005726814	-0.003433228	8.056640625	0.512695313	0.970458984	-0.359350246	0.286345306	-0.17166413	-0.808105469	-0.786376953	-0.494873047	891.58	18.08670498	-79.64497186	63.85964089	-74
13320	0	0.332691193	0.056920052	0.022988319	0.999941826	-0.010449409	0.001558304	-0.002159119	8.317279816	1.423001289	0.574707985	-0.5224806	0.077916702	-0.107958025	-0.803222656	-0.791015625	-0.500488281	891.66	17.94477727	-79.38683705	62.78950748	-69
13321	0	0.333679199	0.022460938	0.009643555	0.999856949	-0.016032219	-0.003875732	-0.003677368	8.34197998	0.561523438	0.241088867	-0.801649105	-0.193795846	-0.183877161	-0.80078125	-0.784423828	-0.509765625	891.72	19.11900914	-79.664332	59.730188	-67
13322	0	0.382462502	0.013831139	0.012943268	0.999897957	-0.01386261	-0.000583649	-0.003321648	9.561562538	0.345778465	0.323581696	-0.693154009	-0.029183424	-0.166088017	-0.801025391	-0.775634766	-0.516113281	891.72	19.70191204	-79.59330451	57.52675247	-66
13323	0	0.467468262	0.045959473	0.052368164	0.99997139	-0.005385399	0.002037048	-0.004745483	11.68670654	1.148986816	1.309204102	-0.269272442	0.101853362	-0.237276372	-0.796875	-0.764892578	-0.517333984	891.7	21.45557169	-79.1763939	55.11781125	-66
13324	0	0.453989029	0.023226738	0.024050713	0.999977112	0.002061844	-0.004279137	-0.004715919	11.34972572	0.580668449	0.601267815	0.103092963	-0.213958431	-0.235797735	-0.790039063	-0.764892578	-0.509033203	891.72	25.43809813	-79.40605423	51.30659304	-69
13325	0	0.540710449	0.055419922	0.157043457	0.999967575	-0.003733635	0.00094986	-0.006958008	13.51776123	1.385498047	3.926086426	-0.186683716	0.047493482	-0.347904059	-0.783203125	-0.765136719	-0.495117188	891.64	28.54930818	-78.93716436	47.70734712	-73
13326	0	0.445672989	0.010293961	0.139331818	0.99975872	0.002204895	-0.015619278	-0.015275955	11.14182472	0.257349014	3.483295441	0.110253613	-0.781026672	-0.763859154	-0.773681641	-0.769775391	-0.483642578	891.64	41.74422335	-79.38231892	34.53056772	-79
13327	0	0.325927734	0.020141602	0.122253418	0.999894142	0.00107193	0.002457619	-0.014247894	8.148193359	0.503540039	3.056335449	0.053598374	0.122885241	-0.712419673	-0.764160156	-0.787353516	-0.445556641	891.66	46.76242813	-78.02292847	29.54360506	-79
13328	0	0.427987099	0.087547302	0.11124897	0.999883652	-0.002283096	0.009305	-0.011821747	10.69967747	2.188682556	2.781224251	-0.114159222	0.465267972	-0.591110155	-0.735107422	-0.803955078	-0.45703125	891.7	47.15018658	-76.28540793	28.87982223	-70
13329	0	0.379821777	0.090515137	0.108215332	0.999995232	-0.002426147	-0.000864983	-0.001571655	9.495544434	2.262878418	2.705383301	-0.121307557	-0.043249196	-0.078582883	-0.715576172	-0.811279297	-0.466308594	891.66	47.67433926	-76.19804893	28.0534788	-69
13330	0	0.313344955	-0.018562317	0.065710068	0.999967575	-0.003499031	-0.003594398	0.006193161	7.833623886	-0.464057922	1.642751694	-0.174953405	-0.179721828	0.309661329	-0.720947266	-0.800048828	-0.461181641	891.66	46.50515833	-76.97902502	28.84389517	-68
13331	0	0.317687988	-0.053894043	0.058410645	0.999960899	0.0051651	-0.001162529	0.006984711	7.942199707	-1.347351074	1.460266113	0.258258311	-0.058127194	0.349240006	-0.733642578	-0.781982422	-0.456054688	891.72	45.01787202	-77.62994484	30.9759263	-66
13332	0	0.330413818	0.01685524	0.057141304	0.999932289	0.010245323	0.001075745	0.005357742	8.260345459	0.421380997	1.4285326	0.512277671	0.05378844	0.267893136	-0.748779297	-0.768066406	-0.436279297	891.72	43.73537805	-77.95654342	33.490932	-66
13333	0	0.336730957	0.070556641	0.020080566	0.999921799	0.009152412	0.004806519	0.006999969	8.418273926	1.763916016	0.50201416	0.45763251	0.240332171	0.350007567	-0.758544922	-0.763183594	-0.421875	891.7	40.22274166	-78.06907579	38.15642626	-66
13334	0	0.326328278	0.03842926	0.005990982	0.99992466	0.009309769	0.003103256	0.007356644	8.15820694	0.960731506	0.149774551	0.465500105	0.155166702	0.367841406	-0.766357422	-0.749511719	-0.408203125	891.72	37.07295747	-78.30515148	42.4668321	-67
13335	0	0.331359863	0.015136719	0.019775391	0.99992466	0.010673523	0.004429817	0.003986359	8.283996582	0.378417969	0.494384766	0.53368944	0.221496377	0.199322897	-0.776611328	-0.738037109	-0.391357422	891.66	35.08668227	-78.153067	45.74852903	-68
13336	0	0.397595406	0.063793182	0.04431057	0.999945641	0.008847237	0.003944397	0.003685951	9.939885139	1.594829559	1.107764244	0.442369752	0.19722338	0.184300861	-0.782226563	-0.724609375	-0.383544922	891.7	33.24844352	-78.00585955	48.66609225	-69
13337	0	0.44128418	0.04888916	0.033508301	0.999990463	0.001954079	-0.001155853	0.003501892	11.03210449	1.222229004	0.83770752	0.097704217	-0.057792831	0.175095113	-0.787353516	-0.715576172	-0.381103516	891.7	32.21639385	-78.32579362	49.95190872	-71
13338	0	0.451038361	0.018743515	0.012610435	0.99998951	0.001022339	-0.002775192	0.00327301	11.27595901	0.468587875	0.315260887	0.051117109	-0.138760063	0.163651043	-0.797363281	-0.697753906	-0.385009766	891.66	31.60796015	-78.78912182	50.69432883	-72
13339	0	0.598632813	0.057067871	0.162902832	0.999826431	0.013436317	0.007076263	0.010734558	14.96582031	1.426696777	4.072570801	0.671854602	0.353833568	0.536758847	-0.802490234	-0.684326172	-0.388671875	891.78	25.78615584	-78.66062298	58.20168135	-75
13340	0	0.397752762	0.12382412	0.179740906	0.999699593	0.002915382	-0.011350632	0.02148819	9.943819046	3.095602989	4.493522644	0.145783678	-0.567588267	1.07451679	-0.8203125	-0.661621094	-0.378173828	891.72	16.02468903	-80.74855412	68.45983286	-72
13341	0	0.369689941	0.04876709	0.148681641	0.999898911	-0.007658958	0.004772186	0.010974884	9.242248535	1.219177246	3.717041016	-0.382960808	0.238617343	0.548762667	-0.850097656	-0.623291016	-0.376708984	891.7	7.086703614	-80.44588635	76.63206351	-69
13342	0	0.444430351	-0.010453224	0.102561951	0.999997139	-0.000749588	0.002153397	-0.000292778	11.11075878	-0.261330605	2.564048767	-0.037479434	0.107669925	-0.014638914	-0.850341797	-0.607910156	-0.406738281	891.7	7.066222775	-80.17837412	76.56482593	-69
13343	0	0.343688965	0.056762695	0.102416992	0.99997139	-0.00121212	-0.005996704	-0.004314423	8.592224121	1.419067383	2.560424805	-0.060606569	-0.299838006	-0.215723145	-0.847412109	-0.616943359	-0.414794922	891.66	10.52331498	-80.76109875	72.91676342	-71
13344	0	0.294518471	0.085615158	0.071318626	0.999916077	-0.007900238	-0.006220818	-0.008097649	7.362961769	2.140378952	1.78296566	-0.395022876	-0.31104952	-0.40489368	-0.844482422	-0.630371094	-0.416748047	891.72	16.43322693	-81.21521549	66.01544143	-71
13345	0	0.314208984	0.047546387	0.053527832	0.999866486	-0.013129234	2.67E-05	-0.009693146	7.855224609	1.188659668	1.338195801	-0.656490859	0.001335203	-0.484678804	-0.836425781	-0.645996094	-0.427246094	891.76	21.63718804	-80.82411849	59.22391779	-69
13346	0	0.332203865	0.037736893	0.040793419	0.999902725	-0.012488365	0.003861427	-0.004864693	8.305096626	0.943422318	1.019835472	-0.624438506	0.193077626	-0.243242521	-0.825927734	-0.664306641	-0.452148438	891.64	22.36342804	-80.17955192	57.03658702	-69
13347	0	0.342895508	0.024353027	0.022216797	0.99987793	-0.01469326	0.004486084	-0.002498627	8.572387695	0.608825684	0.555419922	-0.734692676	0.224313257	-0.12493638	-0.822753906	-0.671142578	-0.48046875	891.66	21.15894868	-79.5724356	56.54993373	-66
13348	0	0.332239151	0.013376236	0.012144089	0.99988842	-0.014153481	-0.000387192	-0.004610062	8.305978775	0.334405899	0.303602219	-0.70770018	-0.019360304	-0.230511601	-0.815185547	-0.671630859	-0.512451172	891.72	22.32520316	-79.39688734	53.71326789	-65
13349	0	0.363342285	0.006286621	0.008239746	0.999922752	-0.011985779	8.11E-05	-0.003234863	9.083557129	0.157165527	0.205993652	-0.599304336	0.00405322	-0.161747319	-0.814453125	-0.678466797	-0.529296875	891.66	22.79921582	-79.22801846	51.83368065	-64
13350	0	0.43396759	0.026812553	0.042865753	0.999969482	-0.006846428	0.00306797	-0.00191021	10.84918976	0.670313835	1.071643829	-0.342324815	0.153400046	-0.095511437	-0.811523438	-0.680908203	-0.554931641	891.66	22.41183382	-78.80304085	51.42915451	-65
13351	0	0.460266113	0.015319824	0.007995605	0.999985695	0.004425049	-0.001288414	-0.002372742	11.50665283	0.382995605	0.199890137	0.221253432	-0.064420989	-0.118637616	-0.80859375	-0.694335938	-0.562744141	891.72	24.5298985	-78.81780537	49.78685654	-64
13352	0	0.515564919	0.017422676	0.146725655	0.999987602	-0.001130104	0.003170013	-0.003499985	12.88912296	0.435566902	3.668141365	-0.056505425	0.158501294	-0.174999925	-0.810302734	-0.711669922	-0.549560547	891.66	25.47570681	-78.30449915	48.69267091	-65
13353	0	0.500488281	0.047546387	0.156555176	0.999809265	0.00407505	-0.012878418	-0.014076233	12.51220703	1.188659668	3.913879395	0.203765445	-0.643961751	-0.703856298	-0.795166016	-0.725585938	-0.569335938	891.72	36.52629041	-78.72253853	37.89054013	-66
13354	0	0.320306778	0.066760063	0.110339165	0.999855995	-0.000185013	-0.0057621	-0.015936852	8.007669449	1.669001579	2.758479118	-0.009251084	-0.288118804	-0.796880725	-0.789306641	-0.767578125	-0.543212891	891.66	45.31697471	-78.00150465	28.89506183	-67
13355	0	0.404663086	0.103942871	0.103088379	0.999799728	-0.005755424	0.013988495	-0.013092041	10.11657715	2.598571777	2.577209473	-0.287790423	0.699471404	-0.654645721	-0.761474609	-0.799316406	-0.565185547	891.66	44.36702301	-75.78259497	29.19420021	-68
13356	0	0.41577816	0.065136909	0.113100052	0.99998188	-0.003333092	0.002422333	-0.004276276	10.394454	1.628422737	2.827501297	-0.166655566	0.12111735	-0.213815038	-0.729248047	-0.820556641	-0.602539063	891.66	44.57536055	-75.21617938	28.58114639	-68
13357	0	0.318847656	-0.014099121	0.091552734	0.999973297	-0.00057888	-0.003479004	0.006347656	7.971191406	-0.352478027	2.288818359	-0.02894427	-0.173951724	0.317385602	-0.723876953	-0.83203125	-0.619140625	891.7	43.52796134	-75.98518186	29.59033037	-69
13358	0	0.305755615	-0.053659439	0.080147743	0.999929428	0.006278038	-0.000157356	0.010010719	7.643890381	-1.341485977	2.003693581	0.313909208	-0.007867996	0.500547616	-0.739990234	-0.833740234	-0.629638672	891.7	40.74689449	-76.74788959	33.18876954	-68
13359	0	0.323547363	0.02142334	0.065063477	0.999895096	0.011857033	0.002796173	0.007789612	8.088684082	0.535583496	1.626586914	0.5928723	0.139813527	0.389494165	-0.751220703	-0.846435547	-0.630859375	891.72	38.225486	-77.0478352	37.16991564	-68
13360	0	0.366252899	0.052272797	0.036026955	0.999878883	0.011258125	0.005844116	0.008958817	9.156322479	1.306819916	0.900673866	0.562928893	0.292217557	0.447958833	-0.757324219	-0.866210938	-0.640380859	891.66	34.14898133	-77.0935448	42.67417264	-66
13361	0	0.338256836	0.032043457	0.017150879	0.999830246	0.014286995	0.003623962	0.01102066	8.456420898	0.801086426	0.428771973	0.714390079	0.181208351	0.551064131	-0.763427734	-0.890136719	-0.646484375	891.6	30.06198405	-77.39513217	48.54160664	-66
13362	0	0.312729836	0.029571533	0.009930611	0.999803543	0.017924309	0.002047539	0.008111	7.818245888	0.73928833	0.248265266	0.896273892	0.102383615	0.405576454	-0.780761719	-0.922607422	-0.642822266	891.72	27.92107423	-77.62431708	52.83717778	-70
13363	0	0.375915527	0.054321289	0.036560059	0.999854088	0.015132904	0.006585121	0.004234314	9.397888184	1.358032227	0.914001465	0.756681816	0.32927199	0.211725943	-0.785888672	-0.973144531	-0.638427734	891.6	26.18923528	-77.15761122	56.38965083	-73
13364	0	0.440243721	0.070033073	0.043190956	0.99997139	0.006134033	-0.000920296	0.004200935	11.00609303	1.750826836	1.079773903	0.306704529	-0.046015216	0.210048733	-0.788085938	-1.028076172	-0.642333984	891.72	25.18301055	-77.44771995	58.14338698	-72
13365	0	0.448303223	0.059326172	0.036376953	0.999985695	0.00245285	-0.000788689	0.004611969	11.20758057	1.483154297	0.909423828	0.122643088	-0.039434616	0.230599522	-0.804443359	-1.084960938	-0.6484375	891.64	23.46905342	-77.73642011	60.18934372	-77
13366	0	0.61328125	0.120680809	0.208450317	0.99988842	0.00910759	0.005479813	0.010493279	15.33203125	3.017020226	5.211257935	0.455396419	0.274000819	0.524683435	-0.811035156	-1.150878906	-0.656982422	891.7	18.39168151	-77.56281991	66.45758034	-79
13367	0	0.367553711	0.001708984	0.146728516	0.999684334	0.003620148	-0.018523216	0.016544342	9.188842773	0.042724609	3.668212891	0.181026394	-0.926258076	0.827303975	-0.863525391	-1.206054688	-0.612060547	891.6	12.43938162	-80.0987453	72.9510945	-79
13368	0	0.354452133	-0.011004448	0.11766243	0.999937057	0.001829147	0.00467205	0.009993553	8.861303329	-0.275111198	2.941560745	0.091459273	0.233607393	0.499688072	-0.935791016	-1.245117188	-0.564697266	891.52	5.851409961	-79.73136381	79.86854005	-88
13369	0	0.472106934	0.048522949	0.126464844	0.99988842	0.011470795	0.00854969	0.004180908	11.80267334	1.21307373	3.161621094	0.573560972	0.427500342	0.209053151	-0.964599609	-1.296630859	-0.538818359	891.76	4.254553082	-78.77572465	82.84533846	-87
13370	0	0.34044075	0.06854248	0.129201889	0.999972343	0.006162643	-0.004045486	-0.000889778	8.511018753	1.713562012	3.230047226	0.308135003	-0.202276181	-0.044489316	-0.991699219	-1.352539063	-0.480957031	891.72	5.764488762	-79.20400336	82.04357071	-83
13371	0	0.299804688	0.079956055	0.069885254	0.999964714	-0.001777649	-0.001868248	-0.007972717	7.495117188	1.998901367	1.747131348	-0.088883486	-0.093413492	-0.398640529	-1.012207031	-1.397705078	-0.413085938	891.6	10.56496942	-79.26006619	76.97445716	-85
13372	0	0.313008308	0.042191505	0.060493469	0.999911308	-0.000700951	0.003461838	-0.01282692	7.82520771	1.054787636	1.512336731	-0.035048565	0.173096995	-0.6413649	-1.00390625	-1.441650391	-0.366699219	891.78	17.33522527	-78.4915516	70.01740267	-82
13373	0	0.345336914	0.040405273	0.064147949	0.999950409	-0.000948906	0.003368378	-0.00925827	8.633422852	1.010131836	1.60369873	-0.047446072	0.168421634	-0.462921072	-0.981933594	-1.477539063	-0.333496094	891.72	21.43900873	-77.74598019	65.73351154	-81
13374	0	0.302859306	0.042152405	0.046368599	0.999982834	-0.002820015	-0.001532555	-0.004772186	7.571482658	1.05381012	1.159214973	-0.141001525	-0.076628154	-0.238610629	-0.969970703	-1.499511719	-0.286376953	891.72	23.80116814	-77.66905477	63.00572128	-75
13375	0	0.30090332	0.064147949	0.011413574	0.999928474	-0.010387421	-0.004626274	-0.003440857	7.522583008	1.60369873	0.285339355	-0.519383251	-0.231319147	-0.172046894	-0.968261719	-1.503662109	-0.245849609	891.64	25.35871026	-77.95992803	60.21711912	-73
13376	0	0.379494667	0.073783875	0.031080246	0.99988842	-0.014552116	-0.002861023	-0.001253128	9.487366676	1.844596863	0.777006149	-0.727632686	-0.143056429	-0.062658716	-0.966552734	-1.492675781	-0.226806641	891.72	25.04279437	-78.16925292	58.85750016	-68
13377	0	0.436767578	0.026489258	0.048400879	0.999921799	-0.011839867	-0.003662109	-0.001571655	10.91918945	0.662231445	1.210021973	-0.592008731	-0.183110232	-0.078584808	-0.965332031	-1.47265625	-0.217041016	891.7	25.41394615	-78.44789822	57.10879741	-69
13378	0	0.430997849	-0.007764816	0.040600777	0.999987602	-0.00229454	-0.003398895	-0.00267601	10.77494621	-0.194120407	1.015019417	-0.114727479	-0.169945442	-0.133801041	-0.962158203	-1.446289063	-0.193603516	891.76	27.42855383	-78.63873285	54.79443019	-70
13379	0	0.580810547	0.044372559	0.182861328	0.999952316	-0.001833916	0.001495361	-0.009456635	14.52026367	1.109313965	4.571533203	-0.091697238	0.074769251	-0.472839215	-0.954101563	-1.424316406	-0.164306641	891.72	31.41252522	-77.93141955	50.52177124	-75
13380	0	0.419855118	0.023991585	0.119311333	0.999682426	0.001202583	-0.017061234	-0.018505096	10.49637794	0.599789619	2.982783318	0.060135531	-0.85315198	-0.925352768	-0.919921875	-1.416259766	-0.123779297	891.72	45.16537537	-78.12644341	36.61167148	-74
13381	0	0.346191406	0.083740234	0.119506836	0.999828339	-0.004508018	0.007820129	-0.016159058	8.654785156	2.093505859	2.987670898	-0.225413797	0.391028799	-0.807999021	-0.875732422	-1.415283203	-0.0859375	891.72	47.40660075	-76.13775683	33.79742085	-78
13382	0	0.466611862	0.127873421	0.102119446	0.99985218	-0.00979805	0.005729675	-0.012907982	11.66529655	3.196835518	2.552986145	-0.489926623	0.286497873	-0.645430878	-0.828613281	-1.410400391	-0.106201172	891.7	48.2142188	-74.56842425	31.81115131	-71
13383	0	0.356994629	0.070556641	0.086486816	0.999946594	-0.00972271	-0.003398895	-0.000484467	8.924865723	1.763916016	2.16217041	-0.486144097	-0.169947775	-0.024223757	-0.805419922	-1.387207031	-0.132324219	891.76	48.28009172	-74.75422931	30.58784616	-69
13384	0	0.319145203	-0.073740959	0.058539391	0.999914169	-0.006530762	-0.005360603	0.009991646	7.978630066	-1.843523979	1.463484764	-0.326547405	-0.268037816	0.499596548	-0.813964844	-1.347412109	-0.149414063	891.6	46.25107257	-75.98561143	31.90783477	-69
13385	0	0.31628418	-0.056030273	0.056884766	0.999930382	0.006160736	-0.003340721	0.009468079	7.907104492	-1.400756836	1.422119141	0.308043928	-0.16703992	0.47341488	-0.844238281	-1.304443359	-0.136962891	891.66	44.8835609	-77.0060405	34.03637669	-69
13386	0	0.326963425	0.038232803	0.046628952	0.999939919	0.008365631	0.002458572	0.006617546	8.174085617	0.955820084	1.165723801	0.418289909	0.122931074	0.330883912	-0.863037109	-1.263916016	-0.102050781	891.72	42.53648987	-77.30447873	37.42817265	-68
13387	0	0.334472656	0.065979004	0.007873535	0.999930382	0.007030487	0.005478859	0.007671356	8.361816406	1.649475098	0.196838379	0.351532456	0.273949262	0.383576652	-0.871582031	-1.239257813	-0.086425781	891.82	38.51894287	-77.377345	42.37297017	-70
13388	0	0.326733589	0.009747505	0.000964165	0.99991703	0.00965023	0.005008698	0.006831169	8.168339729	0.24368763	0.024104118	0.482524781	0.250441758	0.341567843	-0.885009766	-1.201171875	-0.074462891	891.76	35.26931411	-77.37005164	46.8368957	-69
13389	0	0.346740723	0.025512695	0.020202637	0.99987793	0.013176918	0.007644653	0.003398895	8.668518066	0.637817383	0.505065918	0.658872656	0.382248188	0.169951664	-0.88671875	-1.170166016	-0.056884766	891.76	33.20430431	-76.84858007	50.50504637	-71
13390	0	0.422456741	0.072232246	0.068387032	0.999956131	0.007279396	0.004338264	0.003867149	10.56141853	1.80580616	1.709675789	0.363975066	0.21691636	0.193360264	-0.87890625	-1.141601563	-0.036621094	891.6	31.31538078	-76.64849712	53.30467402	-77
13391	0	0.426818848	0.051696777	0.022644043	0.999948502	-0.003653526	-0.007854462	0.005191803	10.67047119	1.292419434	0.566101074	-0.182679421	-0.39272976	0.259594562	-0.875488281	-1.11328125	-0.033447266	891.6	30.69827276	-77.71307627	53.50951295	-75
13392	0	0.528521538	0.021087646	0.093815804	0.999947548	0.00445652	0.007425308	0.005382538	13.21303844	0.527191162	2.345395088	0.222829865	0.371271845	0.269131556	-0.872070313	-1.082519531	-0.0390625	891.72	26.9269404	-77.25229313	57.89659224	-72
13393	0	0.545715332	0.102355957	0.194580078	0.999725342	0.010834694	-0.010341644	0.017993927	13.6428833	2.558898926	4.864501953	0.541784197	-0.517129463	0.899778561	-0.875488281	-1.051513672	-0.047119141	891.72	21.49063409	-79.16506144	64.71137644	-76
13394	0	0.329956055	0.067383766	0.172659874	0.999783516	-0.003080368	-0.007699966	0.01906395	8.248901367	1.684594154	4.316496849	-0.154029499	-0.38502606	0.953266157	-0.911376953	-0.997314453	-0.015136719	891.66	10.75884717	-80.60274761	75.25376849	-74
13395	0	0.450439453	0.015075684	0.128051758	0.999916077	-0.000258446	0.010440826	0.007591248	11.26098633	0.37689209	3.201293945	-0.012922646	0.522055826	0.379572925	-0.936279297	-0.959228516	-0.037109375	891.72	4.92346429	-79.51034862	81.14938155	-65
13396	0	0.400593758	0.011965752	0.12228775	0.999990463	0.004085541	-0.00099659	0.000377655	10.01484394	0.299143791	3.057193756	0.204277646	-0.049829631	0.018882808	-0.943359375	-0.943603516	-0.063720703	891.66	5.261936365	-79.60184468	81.27581333	-65
13397	0	0.305908203	0.080932617	0.088745117	0.99997139	-0.002200127	-0.005458832	-0.004676819	7.647705078	2.02331543	2.21862793	-0.110007369	-0.27294416	-0.233843145	-0.94140625	-0.939208984	-0.05859375	891.7	8.473224786	-80.13100938	77.75658441	-67
13398	0	0.291455269	0.079927444	0.05600071	0.999909401	-0.008090973	-0.001190186	-0.010660172	7.286381721	1.998186111	1.400017738	-0.404560818	-0.059511068	-0.533024613	-0.929199219	-0.944335938	-0.0703125	891.7	14.6114558	-79.99043585	70.5850058	-65
13399	0	0.309082031	0.054382324	0.055541992	0.999866486	-0.011855125	0.003726959	-0.010601044	7.727050781	1.359558105	1.388549805	-0.592782634	0.186356249	-0.530075759	-0.909179688	-0.958251953	-0.095947266	891.78	18.98120469	-79.19867528	64.76336817	-64
13400	0	0.326544762	0.03356266	0.044606209	0.999883652	-0.01401329	0.003329277	-0.005001068	8.163619041	0.839066505	1.11515522	-0.70069167	0.166470302	-0.250063095	-0.891845703	-0.965820313	-0.133789063	891.66	19.54841135	-78.61893859	62.54957771	-64
13401	0	0.328979492	0.022949219	0.020202637	0.999835014	-0.017570496	-0.002223015	-0.00390625	8.224487305	0.573730469	0.505065918	-0.878572949	-0.111156836	-0.195323209	-0.884033203	-0.961914063	-0.174560547	891.78	20.11642615	-78.67860917	59.91568697	-66
13402	0	0.346452713	0.010709763	-0.007748604	0.999798775	-0.017528534	-0.008626938	-0.004562378	8.661317825	0.267744064	-0.193715096	-0.876485499	-0.431375834	-0.228134202	-0.879150391	-0.955810547	-0.209960938	891.76	22.52888855	-79.38561243	55.41021509	-65
13403	0	0.403320313	0.020629883	0.018676758	0.999854088	-0.016529083	-0.002448082	-0.003295898	10.08300781	0.51574707	0.466918945	-0.826494122	-0.122410017	-0.16480289	-0.876464844	-0.947265625	-0.239501953	891.72	23.13534655	-79.47583626	52.86642072	-69
13404	0	0.472942352	0.024832726	0.027337074	0.999978065	-0.005612373	0.001174927	-0.003259659	11.82355881	0.620818138	0.683426857	-0.280620702	0.058746764	-0.162984122	-0.873779297	-0.940917969	-0.271728516	891.72	24.07429135	-79.18383479	51.25552812	-72
13405	0	0.483276367	0.014221191	0.029541016	0.999994278	-0.000449181	-0.001716614	-0.002597809	12.08190918	0.355529785	0.738525391	-0.022459067	-0.08583083	-0.129890656	-0.876220703	-0.938720703	-0.277587891	891.72	25.92177607	-79.22026298	49.32255754	-75
13406	0	0.551123619	0.051182747	0.156599998	0.999958992	-0.004138947	0.000148773	-0.00805378	13.77809048	1.279568672	3.914999962	-0.206950156	0.007438761	-0.402694485	-0.875976563	-0.936767578	-0.294921875	891.7	29.63982601	-78.75540717	45.05144294	-71
13407	0	0.398620605	0.003601074	0.132629395	0.999704361	0.001259804	-0.016506195	-0.017780304	9.965515137	0.090026855	3.315734863	0.062996386	-0.825390955	-0.889102668	-0.866210938	-0.947998047	-0.285888672	891.76	43.90761001	-79.03150084	30.65820699	-69
13408	0	0.307022095	0.035959244	0.118679047	0.999865532	0.000370979	0.005371094	-0.015488625	7.675552368	0.898981094	2.966976166	0.018549797	0.268566724	-0.774465938	-0.849365234	-0.970458984	-0.259033203	891.78	47.72122855	-77.30529883	26.80886313	-69
13409	0	0.420837402	0.095153809	0.105285645	0.999899864	-0.002052307	0.008095741	-0.011356354	10.52093506	2.378845215	2.632141113	-0.102618755	0.404800471	-0.567836496	-0.822265625	-0.984619141	-0.279541016	891.72	48.21428123	-75.6922067	26.06029648	-66
13410	0	0.382519722	0.075995445	0.105208397	0.999998093	-0.000674248	-0.001511574	0.000529289	9.56299305	1.899886131	2.630209923	-0.033712404	-0.075578728	0.026464476	-0.807617188	-0.991943359	-0.299804688	891.66	48.45304025	-75.82632248	25.7299961	-65
13411	0	0.332519531	-0.032897949	0.066223145	0.999947548	0.002414703	-0.004118919	0.009059906	8.312988281	-0.82244873	1.655578613	0.120737279	-0.205949569	0.453003219	-0.817871094	-0.976074219	-0.294921875	891.78	47.25074652	-76.88998454	27.24761169	-64
13412	0	0.322319031	-0.048630714	0.061711311	0.999881744	0.01121521	-0.002415657	0.010146141	8.057975769	-1.21576786	1.542782784	0.560782422	-0.120787574	0.507326887	-0.844726563	-0.953125	-0.283691406	891.7	45.78676316	-77.90467363	30.05880468	-66
13413	0	0.342895508	0.035705566	0.040771484	0.999868393	0.01378727	0.001075745	0.00844574	8.572387695	0.89263916	1.019287109	0.689393652	0.053789586	0.42230547	-0.869384766	-0.938720703	-0.2578125	891.76	43.59153043	-78.47850091	33.91274274	-62
13414	0	0.352117538	0.070375443	0.004533768	0.999865532	0.01266861	0.00485611	0.009141922	8.802938461	1.759386063	0.113344193	0.633458741	0.242816313	0.457116493	-0.884521484	-0.927001953	-0.232177734	891.72	39.26522324	-78.73540061	39.807175	-66
13415	0	0.321105957	0.02331543	-0.003234863	0.999883652	0.012307167	0.002658844	0.00850296	8.027648926	0.582885742	-0.080871582	0.61538203	0.132947315	0.425164369	-0.902099609	-0.908691406	-0.215332031	891.7	35.75019781	-79.06978321	44.82626151	-63
13416	0	0.326910973	0.019423485	0.00131321	0.999885559	0.013719559	0.004500389	0.004418373	8.172774315	0.48558712	0.032830238	0.686004006	0.225028007	0.220927051	-0.912353516	-0.897216797	-0.198486328	891.64	33.64456614	-78.91851132	48.57313799	-68
13417	0	0.404174805	0.0546875	0.038757324	0.99992466	0.010559082	0.005314827	0.003063202	10.10437012	1.3671875	0.968933105	0.527967224	0.265747953	0.153163902	-0.915039063	-0.892822266	-0.187255859	891.66	31.69982386	-78.58032585	51.79026354	-63
13418	0	0.424679756	0.050455093	0.043042183	0.999988556	-0.000542641	-0.002997398	0.003480911	10.6169939	1.261377335	1.076054573	-0.027132131	-0.149870453	0.174046183	-0.920410156	-0.883544922	-0.176269531	891.7	30.80579994	-79.06709728	52.63948963	-66
13419	0	0.452026367	0.011657715	0.037353516	0.999998093	0.000908852	-0.000850677	0.000926971	11.30065918	0.291442871	0.933837891	0.045442599	-0.042533892	0.04634859	-0.921142578	-0.868164063	-0.166015625	891.66	30.68497081	-79.19386457	52.87003465	-63
13420	0	0.601629257	0.084201813	0.161847115	0.999826431	0.014938354	0.003317833	0.010554314	15.04073143	2.105045319	4.046177864	0.746960748	0.165901203	0.52774608	-0.921875	-0.856933594	-0.161132813	891.76	25.79104372	-79.41654255	59.5915825	-66
13421	0	0.363525391	0.111633301	0.19140625	0.999662399	0.003487587	-0.014442444	0.021297455	9.088134766	2.79083252	4.78515625	0.174398953	-0.722203375	1.064992457	-0.9453125	-0.81640625	-0.125976563	891.76	15.95548642	-81.81970319	69.96274984	-65
13422	0	0.400538445	0.015728951	0.122667313	0.999923706	-0.003714561	0.005076408	0.01060009	10.01346111	0.393223763	3.066682816	-0.185732776	0.253826847	0.530017923	-0.976318359	-0.760009766	-0.108886719	891.7	6.675507061	-81.46135219	78.91769689	-69
13423	0	0.461730957	0.012268066	0.10345459	0.999978065	0.005622864	0.002697945	0.00207901	11.54327393	0.30670166	2.586364746	0.281145214	0.134898204	0.103951249	-0.981933594	-0.731445313	-0.128173828	891.7	5.605801474	-81.15340022	80.65087568	-67
13424	0	0.343055725	0.064876556	0.100057602	0.999983788	-0.000123024	-0.004673004	-0.003129005	8.576393127	1.62191391	2.501440048	-0.006151232	-0.23365144	-0.156451097	-0.978027344	-0.713867188	-0.126953125	891.7	8.441284286	-81.6127047	77.76771102	-70
13425	0	0.295410156	0.087890625	0.052978516	0.999929428	-0.007464409	-0.003585815	-0.008415222	7.385253906	2.197265625	1.324462891	-0.373229115	-0.179294937	-0.420770884	-0.966552734	-0.707763672	-0.127929688	891.64	14.71628511	-81.7919946	70.56340984	-68
13426	0	0.31308651	0.057634354	0.040752411	0.999885559	-0.011473656	0.003424644	-0.009170532	7.827162743	1.440858841	1.018810272	-0.573704537	0.171238716	-0.458543997	-0.951904297	-0.710449219	-0.142822266	891.66	19.3838858	-81.07656695	64.51700507	-67
13427	0	0.352844238	0.028015137	0.036437988	0.99990654	-0.011328697	0.006866455	-0.003181458	8.821105957	0.700378418	0.910949707	-0.566452384	0.343333375	-0.159077797	-0.934814453	-0.709228516	-0.178466797	891.64	18.68109054	-80.18343252	63.91448887	-67
13428	0	0.340309143	0.021146774	0.021492958	0.999895096	-0.013795853	0.00423336	-0.000585556	8.507728577	0.528669357	0.537323952	-0.689816616	0.211675374	-0.029278819	-0.922851563	-0.696533203	-0.220214844	891.7	16.69269114	-79.67274826	64.32722601	-69
13429	0	0.316162109	0.02166748	-0.00012207	0.999897957	-0.012302399	-0.005892754	-0.004089355	7.904052734	0.541687012	-0.003051758	-0.615140727	-0.29464764	-0.204474685	-0.915771484	-0.684082031	-0.259033203	891.66	19.01915233	-80.14685812	60.52810235	-66
13430	0	0.368124008	0.015200615	-0.006263733	0.999900818	-0.012761116	-0.00498867	-0.003184319	9.203100204	0.380015373	-0.156593323	-0.638076846	-0.249441744	-0.159221178	-0.908447266	-0.679931641	-0.271240234	891.64	20.78313877	-80.53830763	57.25486077	-67
13431	0	0.442565918	0.044372559	0.032226563	0.999936104	-0.010887146	0.001534462	-0.002449036	11.06414795	1.109313965	0.805664063	-0.544368812	0.076724721	-0.122454372	-0.903808594	-0.671386719	-0.295166016	891.7	20.78918332	-80.25370877	55.98423581	-64
13432	0	0.436489105	0.016090393	0.027184486	0.999992371	0.000501633	-0.000149727	-0.00361824	10.91222763	0.402259827	0.67961216	0.02508169	-0.00748636	-0.180912421	-0.889404297	-0.665527344	-0.328125	891.76	23.17235789	-80.09597373	53.62260203	-71
13433	0	0.446655273	0.014648438	0.102722168	0.999991417	-0.003002167	5.44E-05	-0.002578735	11.16638184	0.366210938	2.568054199	-0.150108729	0.002717979	-0.128937104	-0.884277344	-0.670166016	-0.333740234	891.72	24.40632502	-79.9513312	52.0211472	-63
13434	0	0.51720047	0.047392845	0.144804001	0.999899864	-0.001216888	-0.005847931	-0.012770653	12.93001175	1.184821129	3.620100021	-0.060846437	-0.292406233	-0.638553794	-0.872070313	-0.670654297	-0.357177734	891.6	33.30711663	-79.80826926	42.83602699	-69
13435	0	0.36920166	-0.028259277	0.126708984	0.999777794	0.003440857	-0.009078026	-0.018669128	9.230041504	-0.706481934	3.167724609	0.172055546	-0.453934794	-0.933525322	-0.856933594	-0.697753906	-0.353027344	891.7	46.18944836	-79.21209084	30.13398127	-66
13436	0	0.373859406	0.057291985	0.130261421	0.999862671	0.001390457	0.00914669	-0.013691902	9.346485138	1.432299614	3.25653553	0.069526022	0.457355335	-0.684626268	-0.829589844	-0.727294922	-0.357910156	891.76	47.77187057	-77.32303072	28.67957488	-69
13437	0	0.443847656	0.13848877	0.11505127	0.999970436	-0.002170563	0.004014015	-0.006069183	11.09619141	3.462219238	2.876281738	-0.10852918	0.200702689	-0.303462084	-0.802246094	-0.750488281	-0.388916016	891.66	48.02402909	-76.46844852	28.1610185	-64
13438	0	0.358742714	0.020667076	0.097507477	0.999980927	-0.001980782	-0.005011559	0.002826691	8.968567848	0.516676903	2.43768692	-0.099039689	-0.250579473	0.141335406	-0.796875	-0.755126953	-0.406005859	891.64	48.65664052	-77.06289282	27.27067596	-66
13439	0	0.329040527	-0.065429688	0.070678711	0.99994278	0.005497932	-0.005821228	0.007061005	8.226013184	-1.635742188	1.766967773	0.274901844	-0.29106693	0.353056939	-0.806640625	-0.74609375	-0.415039063	891.72	49.07599709	-78.08624022	27.47553545	-64
13440	0	0.335924149	-0.010953903	0.060276985	0.999904633	0.012031555	-0.002825737	0.006129265	8.398103714	-0.27384758	1.506924629	0.601596842	-0.141291332	0.306472963	-0.823242188	-0.747558594	-0.40234375	891.72	49.31641282	-78.80670612	28.62902453	-65
13441	0	0.357421875	0.067626953	0.035461426	0.999904633	0.01265049	0.000320435	0.005439758	8.935546875	1.690673828	0.886535645	0.632544493	0.016022235	0.271996516	-0.832519531	-0.751708984	-0.398681641	891.66	48.42278306	-79.22883433	31.00866514	-67
13442	0	0.342435837	0.057709694	0.010251045	0.999920845	0.011123657	-0.002033234	0.005476952	8.56089592	1.442742348	0.256276131	0.556197496	-0.101664357	0.273854786	-0.844238281	-0.7578125	-0.391845703	891.76	48.30497102	-79.8299053	32.41900389	-63
13443	0	0.335388184	0.026916504	0.010131836	0.999921799	0.012318611	-0.000431061	0.001792908	8.38470459	0.672912598	0.253295898	0.615946485	-0.021553597	0.089647704	-0.853271484	-0.768554688	-0.390380859	891.72	49.0872212	-79.99568568	33.05253219	-66
13444	0	0.36348629	0.051167488	0.023197174	0.999941826	0.010605812	0.001588821	0.001123428	9.087157249	1.279187202	0.579929352	0.53030088	0.07944261	0.056172506	-0.856933594	-0.792480469	-0.382568359	891.72	48.97850029	-79.95284382	34.39398431	-68
13445	0	0.377868652	0.06817627	0.041564941	0.999970436	0.006855011	0.000622749	0.003299713	9.446716309	1.704406738	1.039123535	0.342753878	0.031137769	0.164987259	-0.86328125	-0.812255859	-0.386230469	891.72	47.96688835	-80.16721738	36.21549897	-63
13446	0	0.376015663	0.020039558	0.031184196	0.999994278	0.00231266	-0.001833916	0.001123428	9.400391579	0.50098896	0.779604912	0.115633203	-0.091695938	0.056171511	-0.8671875	-0.829833984	-0.384521484	891.72	48.58372114	-80.38331	35.85656055	-66
13447	0	0.460510254	0.033508301	0.026855469	0.999965668	0.006871223	0.00446701	-1.91E-05	11.51275635	0.83770752	0.671386719	0.343565019	0.223353025	-0.000953685	-0.873291016	-0.8515625	-0.388183594	891.7	47.12228622	-80.02003907	38.13700537	-63
13448	0	0.550144196	0.110753059	0.127127647	0.999840736	0.013360023	0.004024506	0.01106739	13.75360489	2.768826485	3.178191185	0.668036492	0.20123592	0.553398779	-0.869628906	-0.880371094	-0.391845703	891.72	41.40646915	-80.55361441	45.48558808	-64
13449	0	0.396179199	0.057189941	0.171264648	0.999749184	0.007171631	-0.011572838	0.017745972	9.90447998	1.429748535	4.281616211	0.358611448	-0.57869015	0.887372584	-0.905273438	-0.883300781	-0.369384766	891.6	37.11599065	-82.8413935	50.64701415	-64
13450	0	0.359301567	0.002357483	0.109704018	0.999911308	0.009122849	0.003936768	0.008845329	8.982539177	0.058937073	2.742600441	0.45615588	0.196844185	0.44227951	-0.948486328	-0.875	-0.339111328	891.64	29.26185297	-82.98749484	59.61804724	-63
13451	0	0.413574219	0.064941406	0.139526367	0.999809265	0.015248299	0.01007843	0.006774902	10.33935547	1.623535156	3.48815918	0.762463225	0.503953428	0.338766574	-0.959960938	-0.883544922	-0.340576172	891.76	21.72151622	-82.23888983	68.98235796	-66
13452	0	0.416148186	0.089187622	0.120456696	0.999978065	0.00465107	-0.001399994	0.004337311	10.40370464	2.229690552	3.011417389	0.232555126	-0.07000019	0.216867072	-0.971679688	-0.889648438	-0.325195313	891.7	19.20279073	-82.52105756	72.06317714	-64
13453	0	0.373046875	0.090820313	0.085083008	0.999992371	-0.00165844	3.05E-05	-0.003414154	9.326171875	2.270507813	2.127075195	-0.082922181	0.001525883	-0.170708113	-0.983398438	-0.895751953	-0.321044922	891.66	21.79490796	-82.33629157	69.26226771	-69
13454	0	0.367882729	0.077320099	0.080535889	0.99995327	-0.003288269	0.004144669	-0.008047104	9.197068214	1.933002472	2.013397217	-0.164415994	0.207236632	-0.402361414	-0.975585938	-0.911376953	-0.317382813	891.7	26.02289096	-81.48107841	64.62362696	-68
13455	0	0.372009277	0.059143066	0.09185791	0.999956131	-0.004858971	0.004932404	-0.006206512	9.300231934	1.47857666	2.296447754	-0.242952033	0.246623732	-0.310330094	-0.960205078	-0.931884766	-0.333740234	891.78	27.87546357	-80.60622575	62.19195525	-64
13456	0	0.350962639	0.048851967	0.065447807	0.999969482	-0.006448746	-0.000170708	-0.004302025	8.774065971	1.221299171	1.636195183	-0.322440517	-0.008535471	-0.215103398	-0.950195313	-0.943359375	-0.344970703	891.76	29.76961537	-80.33694899	59.52601118	-62
13457	0	0.3359375	0.060302734	0.060668945	0.999954224	-0.008761406	-0.001377106	-0.003562927	8.3984375	1.507568359	1.516723633	-0.438076967	-0.068856334	-0.178149075	-0.942871094	-0.945800781	-0.356445313	891.66	31.28532102	-80.2165098	56.97314337	-63
13458	0	0.341820717	0.057409286	0.067313194	0.999948502	-0.009222984	-0.00335598	-0.00248909	8.545517921	1.435232162	1.682829857	-0.461157096	-0.167801863	-0.124456625	-0.937744141	-0.950439453	-0.367919922	891.72	32.8239803	-80.34177546	54.34177463	-63
13459	0	0.381896973	0.031860352	0.049865723	0.999945641	-0.00976944	-0.003184319	-0.001354218	9.547424316	0.796508789	1.246643066	-0.48848073	-0.159218778	-0.067712089	-0.935302734	-0.952880859	-0.370605469	891.66	33.64374292	-80.51404912	52.38188344	-64
13460	0	0.389634132	0.035755157	0.050522804	0.999970436	-0.006749153	-0.003637314	-0.000159264	9.74085331	0.893878937	1.263070107	-0.337460964	-0.181867475	-0.007963259	-0.930419922	-0.950927734	-0.379882813	891.76	34.35654761	-80.8027636	50.87698016	-64
13461	0	0.382324219	0.038330078	0.066894531	0.999979019	-0.005057335	-0.003452301	0.001609802	9.558105469	0.958251953	1.672363281	-0.252868434	-0.172616205	0.08049065	-0.932861328	-0.946289063	-0.379882813	891.64	34.19285515	-81.18713733	50.45844279	-64
