Counter	Temperature	VelInc_X	VelInc_Y	VelInc_Z	OriInc_w	OriInc_x	OriInc_y	OriInc_z	Acc_X	Acc_Y	Acc_Z	Gyr_X	Gyr_Y	Gyr_Z	Mag_X	Mag_Y	Mag_Z	Pressure	Roll	Pitch	Yaw	RSSI
9961	0	0.390869141	0.050354004	0.03503418	0.999964714	0.003334045	0.002739906	0.007144928	9.771728516	1.258850098	0.875854492	0.166704206	0.136996906	0.357250547	-0.436279297	-0.865234375	-0.373291016	891.66	46.97740327	-81.43536663	21.72212493	-69
9962	0	0.375391006	0.047446251	0.048535347	0.999970436	0.00296402	0.003873825	0.005923271	9.384775162	1.186156273	1.213383675	0.148202443	0.193693154	0.296166465	-0.448486328	-0.860351563	-0.364257813	891.7	42.03232227	-81.58642344	27.07345941	-69
9963	0	0.362915039	0.042358398	0.0546875	0.999983788	0.00194931	0.00376606	0.003780365	9.072875977	1.058959961	1.3671875	0.097466039	0.188304007	0.189019266	-0.455322266	-0.860107422	-0.366943359	891.76	38.19672469	-81.52691409	31.1810546	-69
9964	0	0.367871284	0.041294098	0.050455093	0.999994278	0.000558853	0.002223015	0.002446175	9.196782112	1.032352448	1.261377335	0.02794271	0.11115095	0.12230896	-0.460205078	-0.857666016	-0.364013672	891.72	35.78481383	-81.48350414	33.69713353	-69
9965	0	0.379516602	0.045593262	0.047302246	0.999997139	-0.000419617	0.001862526	0.001152039	9.487915039	1.139831543	1.182556152	-0.020980852	0.093126374	0.057601976	-0.46484375	-0.859863281	-0.369140625	891.78	34.26073081	-81.37581888	35.20018951	-69
9966	0	0.380537033	0.043699265	0.048999786	0.999999046	-0.000402451	0.000431061	0.000338554	9.513425827	1.092481613	1.224994659	-0.02012253	0.021553041	0.01692772	-0.462402344	-0.859863281	-0.366455078	891.76	33.87811596	-81.34785861	35.55886028	-69
9967	0	0.385803223	0.038818359	0.050170898	0.999999046	-0.000183105	-0.000723839	0.000286102	9.645080566	0.970458984	1.254272461	-0.009155274	-0.036191944	0.014305116	-0.467041016	-0.859863281	-0.372070313	891.72	34.04172817	-81.42607221	35.37810391	-69
9968	0	0.384133339	0.038578033	0.053594589	0.999998093	-0.000112534	-0.001595497	0.000349998	9.603333473	0.964450836	1.339864731	-0.005626681	-0.079774892	0.017499932	-0.467285156	-0.859863281	-0.369140625	891.72	34.55531836	-81.59044941	34.85510507	-69
9969	0	0.381652832	0.041870117	0.051635742	0.999998093	-0.000723839	-0.001373291	-3.43E-05	9.541320801	1.04675293	1.290893555	-0.036191955	-0.068664578	-0.001716614	-0.469482422	-0.859619141	-0.366210938	891.72	35.16692334	-81.70756952	34.16887301	-69
9970	0	0.381670952	0.03962326	0.051560402	0.999998093	-0.00074482	-0.001502037	-0.000538826	9.541773796	0.990581512	1.289010048	-0.037241001	-0.075101891	-0.026941313	-0.471923828	-0.859619141	-0.368896484	891.72	36.17991172	-81.80109189	33.06868416	-69
9971	0	0.387573242	0.037231445	0.050964355	0.999998093	-0.00020504	-0.001556396	-0.000370026	9.689331055	0.930786133	1.274108887	-0.010252003	-0.077819858	-0.01850129	-0.474121094	-0.861816406	-0.368652344	891.7	37.19621327	-81.90808987	32.02768129	-69
9972	0	0.390256882	0.039635658	0.047629356	0.999998093	0.000198364	-0.001807213	-0.000172615	9.756422043	0.990891457	1.19073391	0.009918218	-0.090360692	-0.008630757	-0.474121094	-0.864013672	-0.362548828	891.76	38.28679105	-82.0487738	30.9685929	-69
9973	0	0.389770508	0.040893555	0.047058105	0.999997139	0.001110077	-0.001616478	0.000144958	9.744262695	1.022338867	1.176452637	0.055503881	-0.08082395	0.007247929	-0.474121094	-0.864013672	-0.365478516	891.76	39.21557994	-82.19220328	30.16344146	-69
9974	0	0.389818192	0.04033947	0.048271179	0.999997139	0.001571655	-0.001392365	0.000425339	9.745454788	1.008486748	1.20677948	0.078582824	-0.069618278	0.021266954	-0.474121094	-0.866210938	-0.362548828	891.84	39.92394607	-82.33435905	29.6327857	-69
9975	0	0.390014648	0.040222168	0.050354004	0.999998093	0.001271248	-0.001110077	0.000297546	9.750366211	1.005554199	1.258850098	0.063562424	-0.055503872	0.014877327	-0.478759766	-0.868164063	-0.356201172	891.76	40.5446104	-82.44106988	29.16424449	-69
9976	0	0.388568878	0.042869568	0.051762581	0.999998093	0.001394272	-0.00086689	-4.67E-05	9.714221954	1.071739197	1.294064522	0.069713624	-0.043344517	-0.002336503	-0.481201172	-0.870117188	-0.350341797	891.78	41.28025573	-82.49944482	28.60041148	-69
9977	0	0.38873291	0.044555664	0.051025391	0.999999046	0.000637054	-0.000811577	-0.000125885	9.718322754	1.113891602	1.275634766	0.031852728	-0.040578849	-0.006294252	-0.481201172	-0.870117188	-0.353027344	891.7	41.95732163	-82.54531999	27.99720216	-69
9978	0	0.390752792	0.043433189	0.047527313	0.999999046	5.15E-05	-0.000684738	-0.000175476	9.768819809	1.085829735	1.188182831	0.002574921	-0.034236911	-0.008773804	-0.481201172	-0.872314453	-0.347167969	891.76	42.53094155	-82.57527805	27.44330537	-69
9979	0	0.391418457	0.041687012	0.044250488	0.999999046	-0.000835419	-0.000494957	0.000167847	9.785461426	1.042175293	1.106262207	-0.041770942	-0.024747853	0.008392335	-0.478759766	-0.872314453	-0.344482422	891.72	42.67040405	-82.61513722	27.23244393	-69
9980	0	0.391780853	0.038244247	0.045207024	0.999998093	-0.001567841	-0.000182152	0.0001297	9.794521332	0.956106186	1.130175591	-0.078392062	-0.009107594	0.006484988	-0.478759766	-0.872558594	-0.350097656	891.76	42.56195788	-82.6254251	27.18067063	-69
9981	0	0.39263916	0.033569336	0.044677734	0.999998093	-0.001555443	0.000522614	0.000160217	9.815979004	0.839233398	1.116943359	-0.077772176	0.026130688	0.008010868	-0.481201172	-0.870117188	-0.353027344	891.7	42.01206199	-82.57840361	27.57485001	-69
9982	0	0.390405655	0.032754898	0.04494381	0.999998093	-0.001040459	0.000979424	0.000199318	9.760141373	0.818872452	1.123595238	-0.052022952	0.048971193	0.0099659	-0.483398438	-0.870117188	-0.355957031	891.76	41.23390048	-82.49472588	28.25902096	-69
9983	0	0.388671875	0.033630371	0.044555664	0.999999046	-0.000411987	0.001069069	0.000167847	9.716796875	0.840759277	1.113891602	-0.02059937	0.053453457	0.008392336	-0.478759766	-0.868164063	-0.359130859	891.78	40.51109992	-82.39982998	28.95462398	-69
9984	0	0.390543938	0.035110474	0.04389286	0.999999046	5.63E-05	0.000841141	0.000350952	9.763598442	0.877761841	1.09732151	0.00281334	0.042057043	0.01754761	-0.481201172	-0.868164063	-0.361816406	891.78	39.86221451	-82.33742777	29.62589161	-69
9985	0	0.389892578	0.037414551	0.044921875	0.999999046	0.000644684	0.000344276	0.000350952	9.747314453	0.93536377	1.123046875	0.032234195	0.017213823	0.017547609	-0.478759766	-0.868164063	-0.362060547	891.84	39.55769524	-82.31804498	30.01479069	-68
9986	0	0.389277458	0.038726807	0.046481133	0.999999046	0.000656128	0.000368118	0.000288963	9.731936455	0.968170166	1.162028313	0.0328064	0.018405916	0.014448167	-0.480957031	-0.870361328	-0.361816406	891.7	39.28382236	-82.29162085	30.37478811	-68
9987	0	0.390014648	0.042663574	0.043151855	0.999999046	0.000450134	0.000622749	0.00038147	9.750366211	1.066589355	1.078796387	0.022506717	0.03113747	0.019073489	-0.478759766	-0.870361328	-0.358886719	891.72	38.79540968	-82.24878189	30.93302411	-69
9988	0	0.390542984	0.043319702	0.04353714	0.999999046	5.44E-05	0.001098633	0.000498772	9.7635746	1.082992554	1.088428497	0.002717972	0.054931654	0.024938589	-0.481201172	-0.868164063	-0.361816406	891.82	37.94762113	-82.17050323	31.80267857	-69
9989	0	0.390197754	0.040344238	0.046875	0.999999046	-0.000797272	0.001004219	0.000240326	9.754943848	1.008605957	1.171875	-0.039863598	0.050210967	0.0120163	-0.478515625	-0.870361328	-0.361816406	891.84	37.2372047	-82.08101091	32.44241695	-69
9990	0	0.386637688	0.037454605	0.049541473	0.999999046	-0.000751495	0.000881195	-9.54E-07	9.665942192	0.936365128	1.238536835	-0.037574776	0.044059763	-4.77E-05	-0.480957031	-0.868164063	-0.364746094	891.76	36.7634223	-81.98506185	32.84575089	-69
9991	0	0.387145996	0.036499023	0.051452637	0.999999046	-0.000843048	0.000466347	-0.0001297	9.678649902	0.912475586	1.286315918	-0.042152411	0.023317341	-0.006484986	-0.478515625	-0.870361328	-0.367675781	891.82	36.56994217	-81.91792226	32.95492785	-69
9992	0	0.385565758	0.038349152	0.047786713	0.999999046	-0.000502586	0.000198364	-0.000252724	9.639143944	0.95872879	1.194667816	-0.02512932	0.009918213	-0.012636185	-0.478759766	-0.865966797	-0.367919922	891.84	36.62496168	-81.86694635	32.85059372	-69
9993	0	0.385437012	0.037719727	0.046447754	0.999999046	2.67E-05	0.000248909	-0.000350952	9.635925293	0.942993164	1.161193848	0.001335144	0.01244545	-0.017547608	-0.476318359	-0.865966797	-0.370849609	891.76	36.77841111	-81.80459638	32.70138734	-69
9994	0	0.388865471	0.039154053	0.045722008	0.999999046	0.000247955	0.000179291	-0.000343323	9.721636772	0.978851318	1.143050194	0.012397767	0.008964539	-0.017166138	-0.476074219	-0.870605469	-0.376220703	891.88	36.98420087	-81.74914427	32.51632707	-69
9995	0	0.389587402	0.040222168	0.046020508	0.999999046	0.000915527	-1.43E-05	-4.58E-05	9.739685059	1.005554199	1.150512695	0.045776374	-0.000715256	-0.002288819	-0.471435547	-0.870605469	-0.367919922	891.76	37.17036886	-81.73198615	32.4417309	-69
9996	0	0.387265205	0.039978981	0.048131943	0.999999046	0.001099586	-0.000270844	1.91E-05	9.681630135	0.999474525	1.203298569	0.054979336	-0.013542178	0.000953675	-0.473876953	-0.868408203	-0.373779297	891.76	37.45991313	-81.74254275	32.2643694	-69
9997	0	0.387451172	0.040039063	0.047607422	0.999998093	0.001393318	-0.000282288	6.87E-05	9.686279297	1.000976563	1.190185547	0.069665932	-0.014114385	0.003433229	-0.471435547	-0.870605469	-0.367919922	891.72	37.75885777	-81.75750032	32.11939163	-69
9998	0	0.389129639	0.039197922	0.045935631	0.999998093	0.001599312	-0.000185966	0.000185966	9.728240967	0.979948044	1.14839077	0.079965626	-0.009298329	0.009298329	-0.471435547	-0.872802734	-0.364990234	891.76	37.96273263	-81.77201707	32.09539666	-69
9999	0	0.389221191	0.040100098	0.046508789	0.999998093	0.001812935	-0.000400543	0.000328064	9.730529785	1.002502441	1.162719727	0.090646797	-0.020027173	0.016403208	-0.473876953	-0.875	-0.358886719	891.76	38.20865211	-81.81598406	32.0606418	-69
10000	0	0.389406204	0.039891243	0.04654026	0.999997139	0.001906395	-0.000619888	0.000278473	9.735155106	0.997281075	1.163506508	0.095319813	-0.030994436	0.013923655	-0.473876953	-0.872802734	-0.364746094	891.92	38.60819385	-81.87601565	31.85743818	-69
10001	0	0.389648438	0.039794922	0.047485352	0.999997139	0.002132416	-0.000594139	0.000148773	9.741210938	0.994873047	1.187133789	0.106620876	-0.029706979	0.007438666	-0.473876953	-0.872558594	-0.353271484	891.78	39.1065448	-81.92423745	31.59550505	-69
10002	0	0.390263557	0.040603638	0.045016289	0.999997139	0.002128601	-0.000507355	0.000201225	9.756588936	1.015090942	1.125407219	0.106430139	-0.025367757	0.010061272	-0.473876953	-0.874755859	-0.355957031	891.76	39.53238217	-81.96825935	31.39224754	-69
10003	0	0.388122559	0.042724609	0.045410156	0.999998093	0.001664162	-0.00043869	0.000225067	9.703063965	1.068115234	1.135253906	0.083208126	-0.02193452	0.011253363	-0.473876953	-0.876953125	-0.350097656	891.72	39.85865593	-82.00771671	31.24286308	-68
10004	0	0.388912201	0.042452812	0.044317245	0.999999046	0.000977516	-0.000118256	0.000212669	9.722805023	1.061320305	1.107931137	0.048875817	-0.005912782	0.01063347	-0.471435547	-0.877197266	-0.350341797	891.7	39.94892695	-82.01794726	31.24766167	-68
10005	0	0.389587402	0.042419434	0.044616699	0.999999046	0.000114441	9.63E-05	0.000247955	9.739685059	1.06048584	1.11541748	0.005722046	0.004816055	0.012397766	-0.471679688	-0.876953125	-0.344482422	891.72	39.80662112	-82.01186904	31.40051265	-68
10006	0	0.388622284	0.041137695	0.043887138	0.999999046	-0.000936508	3.81E-06	0.00020504	9.715557098	1.028442383	1.097178459	-0.046825416	0.000190735	0.010252	-0.473876953	-0.876953125	-0.344482422	891.76	39.61988977	-82.01075278	31.48138144	-67
10007	0	0.388671875	0.040710449	0.043640137	0.999999046	-0.001251221	0.000386238	0.000221252	9.716796875	1.01776123	1.091003418	-0.062561054	0.019311911	0.011062625	-0.473876953	-0.874755859	-0.347412109	891.76	39.18984707	-81.97690903	31.76992203	-67
10008	0	0.387862206	0.038966179	0.043242455	0.999998093	-0.001680374	-0.000311852	0.000139236	9.696555138	0.974154472	1.081061363	-0.084018748	-0.015592583	0.006961826	-0.469238281	-0.872802734	-0.353515625	891.72	39.12273266	-81.99906855	31.63353998	-67
10009	0	0.38873291	0.03729248	0.04083252	0.999997139	-0.002193451	-0.00064373	6.10E-05	9.718322754	0.932312012	1.020812988	-0.109672642	-0.032186536	0.00305176	-0.471679688	-0.870605469	-0.353515625	891.78	39.21848225	-82.04535204	31.28054858	-67
10010	0	0.390861511	0.034633636	0.038283348	0.999997139	-0.002122879	-0.000572205	-7.63E-05	9.771537781	0.865840912	0.957083702	-0.106144037	-0.028610253	-0.0038147	-0.471679688	-0.870605469	-0.359375	891.66	39.37480383	-82.07569955	30.86999872	-66
10011	0	0.393554688	0.033325195	0.04095459	0.999999046	-0.001209259	-0.000403404	-8.01E-05	9.838867188	0.833129883	1.023864746	-0.060462968	-0.020170217	-0.004005433	-0.471679688	-0.868408203	-0.359619141	891.66	39.55032572	-82.09110048	30.5480805	-66
10012	0	0.393644333	0.034872055	0.042367935	0.999999046	-0.000267982	2.29E-05	-6.10E-05	9.841108322	0.871801376	1.05919838	-0.013399124	0.001144409	-0.003051758	-0.469482422	-0.866210938	-0.362792969	891.7	39.59702455	-82.07041464	30.45750029	-66
10013	0	0.389526367	0.038146973	0.044921875	0.999999046	0.000301361	0.000222206	2.67E-05	9.73815918	0.953674316	1.123046875	0.015068055	0.011110306	0.001335144	-0.469238281	-0.866210938	-0.365478516	891.72	39.54848696	-82.03851402	30.5227254	-66
10014	0	0.388165474	0.038518906	0.044886589	0.999999046	0.000127792	1.34E-05	7.63E-06	9.704136848	0.962972641	1.122164726	0.006389618	0.000667572	0.00038147	-0.469482422	-0.866210938	-0.362792969	891.76	39.60089198	-82.02367904	30.47189533	-66
10015	0	0.389892578	0.037841797	0.043395996	0.999999046	0.000289917	9.25E-05	3.05E-05	9.747314453	0.946044922	1.084899902	0.01449585	0.004625321	0.001525879	-0.467041016	-0.868652344	-0.362548828	891.78	39.61597699	-82.00364024	30.47903033	-66
10016	0	0.390558243	0.037475586	0.041736603	0.999999046	0.000664711	0.000333786	-8.58E-06	9.76395607	0.936889648	1.04341507	0.033235553	0.016689302	-0.000429153	-0.467041016	-0.866210938	-0.359863281	891.72	39.57377603	-81.95966276	30.58946547	-66
10017	0	0.391052246	0.038452148	0.039855957	0.999998093	0.001255989	0.000659943	0.000198364	9.776306152	0.961303711	0.996398926	0.062799475	0.032997143	0.009918216	-0.467041016	-0.868408203	-0.359863281	891.72	39.30549086	-81.90212593	30.99489922	-66
10018	0	0.389672279	0.038945198	0.039417267	0.999999046	0.001218796	0.000499725	0.000232697	9.741806984	0.973629951	0.985431671	0.060939807	0.024986275	0.01163483	-0.467041016	-0.866455078	-0.365722656	891.7	39.09890406	-81.8613186	31.3158551	-66
10019	0	0.387939453	0.037841797	0.042541504	0.999998093	0.001290321	0.000656128	9.16E-05	9.698486328	0.946044922	1.063537598	0.06451609	0.032806408	0.004577638	-0.464599609	-0.870849609	-0.359619141	891.78	38.91296621	-81.79645513	31.63736181	-66
10020	0	0.385023117	0.03934288	0.041968346	0.999998093	0.001403809	0.000346184	-8.77E-05	9.625577927	0.983572006	1.049208641	0.070190454	0.017309195	-0.004386903	-0.464599609	-0.868652344	-0.356933594	891.76	39.00877319	-81.74640444	31.6866523	-66
10021	0	0.387634277	0.04083252	0.043579102	0.999998093	0.001481056	-5.34E-05	4.20E-05	9.690856934	1.020812988	1.089477539	0.074052838	-0.002670289	0.002098084	-0.467041016	-0.870605469	-0.356689453	891.72	39.23348257	-81.74133246	31.61118372	-66
10022	0	0.388916016	0.039855957	0.042358398	0.999998093	0.00168705	-0.000346184	0.000102997	9.722900391	0.996398926	1.058959961	0.084352535	-0.017309197	0.005149844	-0.464599609	-0.873046875	-0.350830078	891.72	39.59233165	-81.76676082	31.43087457	-66
10023	0	0.389282227	0.041625977	0.041992188	0.999998093	0.001637459	-0.000492096	7.63E-06	9.732055664	1.040649414	1.049804688	0.08187298	-0.024604809	0.00038147	-0.464599609	-0.875	-0.347900391	891.7	40.08120038	-81.79794887	31.11364978	-66
10024	0	0.387615204	0.040719986	0.041965485	0.999998093	0.001480103	-0.001166344	3.91E-05	9.690380096	1.017999649	1.049137115	0.074005171	-0.058317219	0.001955034	-0.464599609	-0.875	-0.347900391	891.66	40.88875152	-81.88983518	30.44787241	-66
10025	0	0.390319824	0.041137695	0.036376953	0.999998093	0.001282692	-0.001060486	-2.29E-05	9.757995605	1.028442383	0.909423828	0.064134627	-0.053024316	-0.00114441	-0.464599609	-0.875	-0.347900391	891.7	41.67306421	-81.96694876	29.77574878	-66
10026	0	0.388749123	0.041434288	0.037033081	0.999999046	0.00100708	-0.000911713	-1.14E-05	9.718728065	1.035857201	0.925827026	0.050354019	-0.045585646	-0.000572205	-0.464599609	-0.877197266	-0.342041016	891.76	42.352158	-82.03134653	29.18710005	-66
10027	0	0.389038086	0.041320801	0.037597656	0.999999046	0.000812531	-0.000670433	9.92E-05	9.725952148	1.03302002	0.939941406	0.040626533	-0.033521658	0.004959107	-0.466796875	-0.879394531	-0.341796875	891.76	42.81809911	-82.08332924	28.78946918	-66
10028	0	0.389463425	0.041549683	0.038288116	0.999999046	0.000569344	-0.000404358	0.000227928	9.736585617	1.038742065	0.957202911	0.028467181	-0.020217897	0.011396409	-0.464599609	-0.879394531	-0.338867188	891.76	43.0339291	-82.12282463	28.61974186	-66
10029	0	0.390380859	0.041748047	0.037963867	0.999999046	-7.63E-06	-0.000445366	4.20E-05	9.759521484	1.043701172	0.94909668	-0.00038147	-0.022268296	0.002098084	-0.464599609	-0.879394531	-0.336181641	891.84	43.3222905	-82.15116534	28.31557704	-66
10030	0	0.39169693	0.043239594	0.034318924	0.999999046	-0.000286102	-0.000156403	0.000110626	9.792423248	1.080989838	0.857973099	-0.014305115	-0.00782013	0.005531311	-0.467041016	-0.877197266	-0.330322266	891.78	43.37583255	-82.16090062	28.22909506	-66
10031	0	0.388244629	0.040771484	0.038208008	0.999999046	-0.000705719	-0.000185966	0.000114441	9.706115723	1.019287109	0.955200195	-0.035285953	-0.009298325	0.005722046	-0.467041016	-0.877197266	-0.339111328	891.76	43.3964918	-82.17343395	28.11085211	-66
10032	0	0.38601017	0.039039612	0.039827347	0.999999046	-0.001172066	-0.000602722	9.82E-05	9.65025425	0.975990295	0.99568367	-0.058603304	-0.030136117	0.004911424	-0.467041016	-0.877197266	-0.341796875	891.72	43.61314673	-82.21933003	27.73930363	-66
10033	0	0.388061523	0.038452148	0.035827637	0.999999046	-0.000785828	-0.000544548	1.91E-05	9.701538086	0.961303711	0.895690918	-0.039291388	-0.027227406	0.000953674	-0.467041016	-0.877197266	-0.336181641	891.76	43.89159378	-82.25417534	27.36503681	-66
10034	0	0.390786171	0.037955284	0.03448391	0.999999046	-0.00062561	-0.0004673	9.44E-05	9.769654274	0.948882103	0.86209774	-0.031280521	-0.023365023	0.004720688	-0.467041016	-0.877197266	-0.336181641	891.72	44.10039746	-82.28875118	27.08142563	-66
10035	0	0.390991211	0.038879395	0.032043457	0.999999046	-0.000808716	-0.000433922	0.000141144	9.774780273	0.971984863	0.801086426	-0.040435797	-0.021696094	0.007057191	-0.469238281	-0.877197266	-0.341796875	891.76	44.24355176	-82.32455061	26.83371808	-66
10036	0	0.391213417	0.038532257	0.032619476	0.999999046	-0.000666618	-0.000196457	0.000286102	9.780335426	0.963306427	0.815486908	-0.03333092	-0.009822846	0.014305116	-0.469238281	-0.877197266	-0.338867188	891.76	44.17545309	-82.35273926	26.8248376	-66
10037	0	0.391174316	0.037658691	0.03527832	0.999999046	-0.00062561	0.000126839	0.000228882	9.77935791	0.941467285	0.881958008	-0.03128052	0.006341935	0.011444093	-0.471679688	-0.876953125	-0.344482422	891.72	43.9546463	-82.34997231	26.9658635	-66
10038	0	0.389228821	0.039201736	0.03902626	0.999999046	-0.000522614	0.000165939	0.000202179	9.73072052	0.980043411	0.975656509	-0.026130678	0.008296967	0.010108948	-0.471679688	-0.876953125	-0.341552734	891.72	43.73829279	-82.34175891	27.12358598	-66
10039	0	0.388305664	0.039306641	0.039306641	0.999999046	-0.000324249	-2.96E-05	0.000198364	9.707641602	0.982666016	0.982666016	-0.016212464	-0.001478195	0.009918213	-0.469482422	-0.875	-0.341796875	891.7	43.66165498	-82.34934289	27.16234471	-66
10040	0	0.38875103	0.041201591	0.038882256	0.999999046	-0.000443459	-0.000278473	0.000250816	9.718775749	1.030039787	0.972056389	-0.022172929	-0.013923646	0.012540818	-0.471679688	-0.876953125	-0.344482422	891.78	43.68588529	-82.38160114	27.0830103	-66
10041	0	0.390014648	0.039611816	0.038269043	0.999999046	-0.000389099	-0.00045681	0.000225067	9.750366211	0.99029541	0.956726074	-0.019454957	-0.022840501	0.011253358	-0.471679688	-0.876953125	-0.341552734	891.72	43.83879906	-82.42655256	26.88734578	-67
10042	0	0.390312195	0.038611412	0.039955139	0.999999046	-0.000368118	-0.000638962	0.000300407	9.757804871	0.965285301	0.998878479	-0.018405916	-0.031948093	0.015020372	-0.473876953	-0.874755859	-0.347412109	891.7	44.05811558	-82.49237668	26.61336127	-67
10043	0	0.39050293	0.038024902	0.038696289	0.999999046	-0.000331879	-0.000395775	0.000164032	9.762573242	0.950622559	0.967407227	-0.016593934	-0.019788743	0.0082016	-0.476318359	-0.876953125	-0.341308594	891.76	44.22158699	-82.52720037	26.41599192	-67
10044	0	0.391827583	0.038724899	0.038166046	0.999999046	-0.000254631	-2.67E-05	6.48E-05	9.795689583	0.968122482	0.954151154	-0.012731552	-0.001335144	0.003242493	-0.476318359	-0.876953125	-0.341308594	891.76	44.23132991	-82.52373684	26.38346188	-67
10045	0	0.389953613	0.039611816	0.040405273	0.999999046	-7.63E-06	0.000191689	0.000179291	9.748840332	0.99029541	1.010131836	-0.00038147	0.009584427	0.008964539	-0.478515625	-0.879150391	-0.346923828	891.82	44.06403906	-82.51129863	26.54825653	-68
10046	0	0.388425827	0.039288521	0.041163445	1	1.43E-05	-4.29E-05	4.20E-05	9.710645676	0.98221302	1.029086113	0.000715256	-0.002145767	0.002098083	-0.476318359	-0.876953125	-0.341308594	891.78	44.12639258	-82.50701515	26.49395898	-68
10047	0	0.389953613	0.040222168	0.039855957	0.999999046	5.72E-05	0.000138283	8.39E-05	9.748840332	1.005554199	0.996398926	0.002861023	0.006914139	0.004196167	-0.476318359	-0.879150391	-0.341308594	891.78	44.057086	-82.49101989	26.57897122	-68
10048	0	0.390498161	0.040282249	0.038432121	0.999999046	5.63E-05	0.00018692	0.000121117	9.762454033	1.007056236	0.960803032	0.002813339	0.009346008	0.006055832	-0.476318359	-0.879150391	-0.343994141	891.72	43.93551729	-82.47389162	26.71079069	-68
10049	0	0.390319824	0.039855957	0.039733887	0.999999046	-0.000305176	0.000267982	7.63E-06	9.757995605	0.996398926	0.993347168	-0.015258789	0.013399125	0.00038147	-0.478515625	-0.879150391	-0.346923828	891.7	43.79495355	-82.44091514	26.81581556	-69
10050	0	0.389565468	0.038665771	0.040330887	0.999999046	-0.000167847	0.000244141	-0.000106812	9.739136696	0.966644287	1.008272171	-0.008392334	0.012207031	-0.005340576	-0.478515625	-0.881347656	-0.346679688	891.7	43.75531844	-82.40074606	26.83834147	-69
10051	0	0.390197754	0.038879395	0.041687012	0.999999046	-0.000167847	0.000100136	4.20E-05	9.754943848	0.971984863	1.042175293	-0.008392334	0.00500679	0.002098084	-0.478515625	-0.879150391	-0.349609375	891.7	43.70785545	-82.38417353	26.86168978	-69
10052	0	0.386957169	0.040113449	0.042325974	0.999999046	-0.000454903	-0.000526428	-8.58E-06	9.673929214	1.002836227	1.058149338	-0.022745134	-0.026321413	-0.000429153	-0.478515625	-0.87890625	-0.341064453	891.7	44.03011876	-82.41513585	26.49786774	-69
10053	0	0.388305664	0.038269043	0.03894043	0.999997139	-0.0013237	-0.001769066	-0.000209808	9.707641602	0.956726074	0.973510742	-0.066185052	-0.088453365	-0.010490426	-0.478515625	-0.881103516	-0.34375	891.76	45.13943831	-82.53071897	25.23711299	-69
10054	0	0.392361641	0.041405678	0.029359818	0.999999046	-0.000984192	-0.000547409	2.38E-05	9.809041023	1.035141945	0.733995438	-0.049209605	-0.027370459	0.001192093	-0.480712891	-0.881103516	-0.349365234	891.76	45.40961818	-82.56506153	24.85318186	-69
10055	0	0.391174316	0.042114258	0.032897949	0.999999046	-0.000431061	0.000119209	0.000202179	9.77935791	1.052856445	0.82244873	-0.02155304	0.005960465	0.010108948	-0.478515625	-0.87890625	-0.343994141	891.72	45.21979346	-82.56023328	25.00869892	-69
10056	0	0.387580872	0.043388367	0.038458824	0.999999046	-0.000731468	0.000144958	0.000151634	9.68952179	1.084709167	0.961470604	-0.036573414	0.007247926	0.007581712	-0.480957031	-0.87890625	-0.346679688	891.76	45.01160824	-82.54889901	25.14570995	-69
10057	0	0.388000488	0.041503906	0.041137695	0.999999046	-0.001148224	0.000393867	0.000225067	9.700012207	1.037597656	1.028442383	-0.057411208	0.01969338	0.01125336	-0.478515625	-0.879150391	-0.349609375	891.72	44.55654994	-82.5228748	25.48271287	-69
10058	0	0.388961792	0.040072441	0.042084694	0.999999046	-0.001094818	0.000350952	7.92E-05	9.7240448	1.001811028	1.052117348	-0.054740918	0.017547611	0.003957749	-0.480712891	-0.87890625	-0.355224609	891.7	44.22575424	-82.48814793	25.69388816	-69
10059	0	0.389892578	0.041564941	0.039794922	0.999999046	-0.001281738	0.000226021	-3.43E-05	9.747314453	1.039123535	0.994873047	-0.064086932	0.011301044	-0.001716614	-0.480957031	-0.876708984	-0.352539063	891.76	44.02154001	-82.45433693	25.76558794	-69
10060	0	0.389810562	0.041367531	0.03964901	0.999999046	-0.001202583	0.000173569	9.44E-05	9.745264053	1.034188271	0.991225243	-0.060129181	0.008678438	0.004720689	-0.483154297	-0.87890625	-0.355224609	891.76	43.77878591	-82.43491522	25.88683507	-69
10061	0	0.390686035	0.039306641	0.039550781	0.999998093	-0.00159359	0.000236511	0	9.767150879	0.982666016	0.988769531	-0.079679524	0.011825567	0	-0.480712891	-0.876708984	-0.35546875	891.72	43.51298113	-82.40270873	25.99038986	-69
10062	0	0.389748573	0.038126945	0.044434547	0.999998093	-0.001606941	0.000306129	-2.29E-05	9.743714333	0.953173637	1.110863686	-0.080347097	0.01530648	-0.00114441	-0.480712891	-0.876953125	-0.361328125	891.66	43.21809464	-82.36266003	26.11648266	-69
10063	0	0.389465332	0.038818359	0.042663574	0.999998093	-0.001666069	6.10E-05	8.39E-05	9.736633301	0.970458984	1.066589355	-0.08330349	0.003051759	0.004196169	-0.480712891	-0.874755859	-0.361328125	891.72	42.99306865	-82.351284	26.17031324	-69
10064	0	0.38916111	0.039465904	0.042476654	0.999998093	-0.00169754	0.00023365	7.25E-05	9.729027748	0.986647606	1.061916351	-0.084877056	0.011682516	0.003623964	-0.480712891	-0.874755859	-0.364257813	891.76	42.67104187	-82.32434948	26.31942912	-69
10065	0	0.389709473	0.039672852	0.042236328	0.999998093	-0.001566887	0.000370026	-7.63E-06	9.742736816	0.991821289	1.055908203	-0.078344379	0.01850129	-0.00038147	-0.480712891	-0.874755859	-0.372802734	891.78	42.33703448	-82.27948893	26.48472002	-69
10066	0	0.390348434	0.040219307	0.041918755	0.999998093	-0.001439095	0.000330925	0.000109673	9.758710861	1.005482674	1.047968864	-0.071954753	0.016546255	0.005483629	-0.480712891	-0.872558594	-0.373046875	891.68	41.96894111	-82.24674281	26.70350537	-69
10067	0	0.389221191	0.039306641	0.042724609	0.999998093	-0.001368523	0	0.00018692	9.730529785	0.982666016	1.068115234	-0.068426154	0	0.009346011	-0.480957031	-0.868164063	-0.370605469	891.76	41.74732104	-82.24790958	26.78960574	-69
10068	0	0.389723778	0.039105415	0.042282104	0.999999046	-0.001048088	2.10E-05	0.000213623	9.743094444	0.977635384	1.057052612	-0.052404414	0.001049042	0.010681154	-0.478515625	-0.865966797	-0.376464844	891.72	41.53349462	-82.24923654	26.8945001	-69
10069	0	0.388671875	0.038635254	0.042175293	0.999999046	-0.000743866	0.000153542	0.000225067	9.716796875	0.965881348	1.054382324	-0.037193302	0.007677079	0.011253358	-0.475830078	-0.868408203	-0.385009766	891.66	41.27323967	-82.23996192	27.06867337	-69
10070	0	0.389286995	0.039981842	0.043269157	0.999999046	-0.000659943	0.000267029	5.72E-05	9.732174873	0.999546051	1.081728935	-0.032997134	0.013351442	0.002861023	-0.478271484	-0.868408203	-0.385009766	891.68	41.06648566	-82.20800672	27.2024135	-69
10071	0	0.389648438	0.040283203	0.042541504	0.999999046	-0.000667572	-2.96E-05	-0.000141144	9.741210938	1.007080078	1.063537598	-0.033378604	-0.001478195	-0.00705719	-0.478515625	-0.863769531	-0.379638672	891.78	41.14777554	-82.18659631	27.05446693	-69
10072	0	0.390432358	0.041007996	0.042327881	0.999999046	-0.000500679	1.34E-05	2.29E-05	9.760808945	1.02519989	1.058197021	-0.025033952	0.000667572	0.001144409	-0.478271484	-0.866210938	-0.387939453	891.84	41.12178903	-82.1737615	27.02077801	-69
10073	0	0.390197754	0.037963867	0.041992188	0.999999046	-0.000137329	0.000195503	1.14E-05	9.754943848	0.94909668	1.049804688	-0.006866455	0.009775162	0.000572205	-0.478515625	-0.866210938	-0.385253906	891.78	41.0445746	-82.14438176	27.08752577	-69
10074	0	0.389633179	0.037149429	0.041237831	0.999999046	-0.000179291	3.81E-05	-7.72E-05	9.740829468	0.928735733	1.030945778	-0.008964539	0.001907349	-0.003862381	-0.476074219	-0.864013672	-0.388427734	891.78	41.10371918	-82.12205233	27.0036283	-69
10075	0	0.39050293	0.03729248	0.041748047	0.999999046	0.000427246	-1.81E-05	3.81E-06	9.762573242	0.932312012	1.043701172	0.021362305	-0.000905991	0.000190735	-0.476318359	-0.861816406	-0.3828125	891.72	41.21157833	-82.11077794	26.94879332	-69
10076	0	0.391358376	0.037385941	0.041578293	0.999999046	0.001069069	0.0001297	0.000109673	9.783959389	0.934648514	1.039457321	0.053453456	0.006484987	0.005483628	-0.476074219	-0.864013672	-0.388427734	891.72	41.2463764	-82.09489401	27.02782247	-69
10077	0	0.390930176	0.036865234	0.04510498	0.999998093	0.001759529	0.00043869	0.000137329	9.773254395	0.921630859	1.127624512	0.087976504	0.021934521	0.006866459	-0.476074219	-0.864013672	-0.385498047	891.66	41.17451867	-82.05445157	27.2943197	-69
10078	0	0.388578415	0.037108421	0.04757309	0.999997139	0.002096176	0.000106812	0.000217438	9.714460373	0.927710533	1.18932724	0.104808885	0.00534058	0.010871895	-0.473876953	-0.866210938	-0.376708984	891.72	41.26996315	-82.04853076	27.44243943	-69
10079	0	0.387451172	0.038879395	0.04699707	0.999996185	0.002404213	-3.05E-05	0.000389099	9.686279297	0.971984863	1.174926758	0.120210766	-0.00152588	0.019454975	-0.473632813	-0.866210938	-0.382568359	891.72	41.36822746	-82.06730316	27.60097713	-69
10080	0	0.386813164	0.040010452	0.043911934	0.999996185	0.002576828	-0.000317574	0.000335693	9.670329094	1.000261307	1.097798347	0.128841547	-0.015878696	0.016784687	-0.476318359	-0.868164063	-0.367919922	891.66	41.67584719	-82.10661957	27.58995956	-69
10081	0	0.389282227	0.038696289	0.041381836	0.999997139	0.002109528	-0.000178337	0.000408173	9.732055664	0.967407227	1.034545898	0.105476461	-0.008916862	0.020408646	-0.476318359	-0.868408203	-0.370849609	891.76	41.81000131	-82.13965419	27.68496269	-69
10082	0	0.390304565	0.039153099	0.039000511	0.999996185	0.002480507	0.000247002	0.000425339	9.757614136	0.978827477	0.975012779	0.124025477	0.012350096	0.02126696	-0.476318359	-0.868164063	-0.367919922	891.72	41.74192285	-82.13782719	28.02367966	-69
10083	0	0.388366699	0.038208008	0.04095459	0.999996185	0.002472878	0.000141144	0.00056839	9.70916748	0.955200195	1.023864746	0.123644008	0.007057198	0.028419525	-0.476318359	-0.870361328	-0.359130859	891.72	41.64246086	-82.15597308	28.40409233	-68
10084	0	0.389008522	0.037780762	0.040143967	0.999997139	0.002263069	0.000322342	0.000361443	9.725213051	0.944519043	1.003599167	0.113153559	0.01611711	0.018072144	-0.476318359	-0.872558594	-0.355957031	891.66	41.54760443	-82.14290143	28.7555071	-68
10085	0	0.38861084	0.036865234	0.039855957	0.999997139	0.002285004	0.000245094	0.000202179	9.715270996	0.921630859	0.996398926	0.114250284	0.012254726	0.010108957	-0.476318359	-0.872558594	-0.355957031	891.76	41.59758877	-82.12452331	28.95442702	-68
10086	0	0.389888763	0.037917137	0.037735939	0.999997139	0.002382278	2.10E-05	0.000125885	9.747219086	0.947928429	0.943398476	0.119114035	0.001049043	0.006294256	-0.473876953	-0.874755859	-0.347412109	891.68	41.83032429	-82.11981281	28.99003223	-68
10087	0	0.391967773	0.039428711	0.036560059	0.999996185	0.002705574	4.96E-05	0.000331879	9.799194336	0.985717773	0.914001465	0.135278869	0.002479556	0.016593954	-0.476318359	-0.874755859	-0.347167969	891.72	41.95907499	-82.12871492	29.15792467	-68
10088	0	0.39229393	0.038827896	0.038707733	0.999996185	0.002609253	0.0004282	0.000368118	9.807348251	0.970697403	0.967693329	0.130462801	0.021410014	0.018405936	-0.476318359	-0.876953125	-0.341308594	891.76	41.84611152	-82.1082793	29.563309	-68
10089	0	0.390441895	0.039672852	0.040649414	0.999997139	0.00189209	0.000874519	0.000225067	9.761047363	0.991821289	1.016235352	0.094604561	0.043725999	0.011253365	-0.476318359	-0.87890625	-0.335449219	891.72	41.49810409	-82.03855037	30.13128793	-68
10090	0	0.390266418	0.040139198	0.041117668	0.999998093	0.001591682	0.000983238	2.57E-05	9.756660461	1.003479958	1.027941704	0.079584168	0.04916194	0.001287461	-0.476318359	-0.879150391	-0.338378906	891.76	41.18854421	-81.94397794	30.61523229	-67
10091	0	0.389160156	0.039794922	0.041687012	0.999998093	0.001461983	0.000370026	0.000164032	9.729003906	0.994873047	1.042175293	0.073099164	0.018501289	0.008201602	-0.473876953	-0.883544922	-0.332275391	891.78	41.11248922	-81.91254583	30.8592708	-67
10092	0	0.389142036	0.041069984	0.041671753	0.999999046	0.001242638	-2.29E-05	0.000156403	9.728550911	1.026749611	1.041793823	0.062131898	-0.001144409	0.007820131	-0.474121094	-0.881347656	-0.326904297	891.76	41.22573275	-81.91444362	30.89151663	-67
10093	0	0.388916016	0.041320801	0.040100098	0.999999046	0.000896454	-0.000224113	0.000133514	9.722900391	1.03302002	1.002502441	0.044822699	-0.011205675	0.006675721	-0.474121094	-0.881347656	-0.326904297	891.76	41.42184229	-81.932005	30.79575535	-67
10094	0	0.390349388	0.041960716	0.04082489	0.999999046	0.000354767	3.62E-05	3.34E-05	9.758734703	1.049017906	1.020622253	0.017738343	0.001811981	0.00166893	-0.474121094	-0.881347656	-0.326904297	891.72	41.47875685	-81.91958431	30.77657165	-67
10095	0	0.388305664	0.043884277	0.040649414	0.999999046	-8.01E-05	-0.000174522	-5.34E-05	9.707641602	1.097106934	1.016235352	-0.004005432	-0.00872612	-0.002670288	-0.473876953	-0.883544922	-0.326660156	891.72	41.65259731	-81.91854586	30.59107887	-67
10096	0	0.387337685	0.043491364	0.039543152	0.999999046	-0.000906944	-0.000108719	7.63E-05	9.683442116	1.087284088	0.988578796	-0.04534722	-0.005435944	0.003814698	-0.474121094	-0.881347656	-0.329589844	891.68	41.61994277	-81.92169102	30.51439225	-67
10097	0	0.387329102	0.041992188	0.040100098	0.999998093	-0.001486778	-0.00044632	2.29E-05	9.683227539	1.049804688	1.002502441	-0.074338943	-0.022315988	0.00114441	-0.474121094	-0.881347656	-0.326904297	891.72	41.73566806	-81.94963591	30.23199659	-67
10098	0	0.388522148	0.040342331	0.035295486	0.999998093	-0.001595497	-0.000697136	-2.38E-05	9.713053703	1.008558273	0.882387161	-0.079774897	-0.034856814	-0.001192093	-0.471679688	-0.879150391	-0.332763672	891.72	42.00711162	-81.99555462	29.77043437	-67
10099	0	0.38873291	0.041748047	0.035583496	0.999998093	-0.001700401	-0.000400543	8.77E-05	9.718322754	1.043701172	0.889587402	-0.085020109	-0.020027171	0.004386904	-0.474121094	-0.879150391	-0.335693359	891.66	42.04175658	-82.02478616	29.53653777	-67
10100	0	0.387732506	0.04197979	0.037307739	0.999997139	-0.001908302	-0.000986099	0.000109673	9.693312645	1.049494743	0.932693481	-0.095415189	-0.049305	0.005483632	-0.474365234	-0.874755859	-0.333007813	891.68	42.36625185	-82.1053576	28.99459061	-67
10101	0	0.385498047	0.042053223	0.039733887	0.999996185	-0.00234127	-0.001392365	4.96E-05	9.637451172	1.051330566	0.993347168	-0.117063667	-0.069618311	0.002479556	-0.474121094	-0.874755859	-0.338867188	891.72	42.91876825	-82.2148293	28.16677427	-67
10102	0	0.384572029	0.039940834	0.038239479	0.999994278	-0.002755165	-0.001601219	-8.01E-05	9.614300728	0.998520851	0.955986977	-0.137758488	-0.080061094	-0.004005439	-0.4765625	-0.874755859	-0.341552734	891.66	43.64561813	-82.33024892	27.11820315	-67
10103	0	0.388916016	0.037719727	0.033813477	0.999995232	-0.002464294	-0.001662254	-0.000255585	9.722900391	0.942993164	0.845336914	-0.123214904	-0.08311284	-0.012779255	-0.474121094	-0.872558594	-0.341796875	891.68	44.57818969	-82.43488084	25.90011195	-67
10104	0	0.391689301	0.038431168	0.031784058	0.999996185	-0.002082825	-0.001698494	2.57E-05	9.792232513	0.96077919	0.79460144	-0.104141361	-0.0849248	0.001287462	-0.4765625	-0.870361328	-0.341796875	891.66	45.43597793	-82.56297377	24.80545625	-67
10105	0	0.391174316	0.037658691	0.033447266	0.999997139	-0.001838684	-0.001460075	0.000137329	9.77935791	0.941467285	0.836181641	-0.091934289	-0.073003836	0.006866461	-0.4765625	-0.868164063	-0.347900391	891.66	46.13343521	-82.67940483	23.8907325	-67
10106	0	0.390732765	0.036084175	0.033231735	0.999998093	-0.00146389	-0.001076698	0.000118256	9.76831913	0.902104378	0.830793381	-0.073194544	-0.053834945	0.005912784	-0.4765625	-0.868164063	-0.347900391	891.72	46.65802995	-82.76289488	23.19767891	-67
10107	0	0.392700195	0.033996582	0.03515625	0.999999046	-0.000812531	-0.000666618	0.000274658	9.817504883	0.849914551	0.87890625	-0.040626534	-0.033330924	0.013732913	-0.481445313	-0.865722656	-0.344970703	891.76	46.89850376	-82.82686394	22.87309045	-68
10108	0	0.392035484	0.035797119	0.036155701	0.999999046	-0.000273705	-0.000699997	0.000460625	9.800887108	0.894927979	0.903892517	-0.013685228	-0.034999852	0.023031238	-0.479003906	-0.865722656	-0.347900391	891.76	47.11048883	-82.90892758	22.6325726	-68
10109	0	0.39050293	0.03704834	0.037475586	0.999999046	0.000167847	-9.44E-05	0.000656128	9.762573242	0.926208496	0.936889648	0.008392335	-0.004720688	0.032806399	-0.479003906	-0.865722656	-0.347900391	891.76	46.84035225	-82.9599437	22.92815748	-67
10110	0	0.390130997	0.036792755	0.037143707	0.999999046	0.000131607	-0.000125885	0.000598907	9.753274918	0.919818878	0.928592682	0.006580353	-0.006294251	0.029945375	-0.483886719	-0.863525391	-0.344970703	891.76	46.61814469	-83.00840748	23.17555443	-68
10111	0	0.391052246	0.037109375	0.03692627	0.999999046	0.0001297	-5.25E-05	0.000583649	9.776306152	0.927734375	0.923156738	0.006484986	-0.002622605	0.029182436	-0.483886719	-0.865722656	-0.344726563	891.68	46.35085762	-83.04957623	23.46979245	-68
10112	0	0.390853882	0.036417961	0.03650856	0.999999046	0.000288963	-7.06E-05	0.000472069	9.771347046	0.910449028	0.912714005	0.014448167	-0.003528595	0.023603441	-0.483886719	-0.863525391	-0.344970703	891.66	46.18260019	-83.0827422	23.67894063	-68
10113	0	0.390930176	0.036376953	0.035705566	0.999999046	0.000495911	8.87E-05	0.000415802	9.773254395	0.909423828	0.89263916	0.024795534	0.004434586	0.020790102	-0.483886719	-0.863525391	-0.350585938	891.72	45.96394764	-83.09849389	23.94897797	-68
10114	0	0.391503334	0.036817551	0.034882545	0.999999046	0.000537872	0.000211716	0.000277519	9.787583351	0.920438766	0.872063637	0.026893618	0.010585786	0.013875962	-0.486328125	-0.86328125	-0.344726563	891.72	45.75635255	-83.09287608	24.22375764	-68
10115	0	0.390869141	0.036743164	0.036376953	0.999999046	0.000572205	0.000260353	0.000259399	9.771728516	0.918579102	0.909423828	0.028610232	0.013017655	0.012969972	-0.483886719	-0.863525391	-0.347900391	891.66	45.53144458	-83.08167299	24.51131885	-68
10116	0	0.390685081	0.036704063	0.037025452	0.999999046	0.000649452	0.000318527	0.000212669	9.767127037	0.917601585	0.925636292	0.032472614	0.015926363	0.01063347	-0.486328125	-0.86328125	-0.344726563	891.68	45.30713205	-83.06171347	24.81222351	-68
10117	0	0.389160156	0.036987305	0.039733887	0.999999046	0.000759125	0.000275612	0.000190735	9.729003906	0.924682617	0.993347168	0.037956242	0.013780595	0.009536744	-0.486328125	-0.86328125	-0.339111328	891.68	45.13807047	-83.04305167	25.07954766	-68
10118	0	0.389335632	0.037322998	0.038181305	0.999999046	0.000297546	0.000139236	-8.49E-05	9.733390808	0.933074951	0.954532623	0.01487732	0.006961823	-0.004243851	-0.486328125	-0.86328125	-0.342041016	891.78	45.18896085	-83.01281697	25.06450488	-68
10119	0	0.390625	0.037719727	0.034973145	0.999999046	0.000141144	8.49E-05	-0.00018692	9.765625	0.942993164	0.874328613	0.00705719	0.004243851	-0.009346008	-0.483886719	-0.865722656	-0.341796875	891.72	45.32464568	-82.97861917	24.94756809	-68
10120	0	0.390788078	0.037446976	0.032402992	0.999999046	0.000321388	5.34E-05	-0.000152588	9.769701958	0.936174393	0.810074806	0.016069413	0.002670288	-0.007629395	-0.483886719	-0.863525391	-0.342041016	891.78	45.47915047	-82.94982156	24.82882931	-69
10121	0	0.390319824	0.037475586	0.033081055	0.999999046	0.000377655	0.00011158	-0.000137329	9.757995605	0.936889648	0.827026367	0.018882752	0.005578995	-0.006866455	-0.483886719	-0.863525391	-0.342041016	891.72	45.59144187	-82.91764497	24.75771424	-69
10122	0	0.390057564	0.038156509	0.032772064	0.999999046	0.000724792	4.96E-05	-8.39E-05	9.751439095	0.953912735	0.819301605	0.036239627	0.002479553	-0.004196167	-0.481689453	-0.865722656	-0.339111328	891.82	45.74997826	-82.89484933	24.68485182	-69
10123	0	0.391540527	0.038574219	0.031921387	0.999999046	0.000713348	-0.000159264	0.000240326	9.788513184	0.964355469	0.798034668	0.035667423	-0.007963181	0.012016298	-0.484130859	-0.865478516	-0.333251953	891.72	45.8376916	-82.91544407	24.69132911	-69
10124	0	0.391508102	0.038553238	0.031618118	0.999999046	0.000515938	-8.01E-05	0.000380516	9.78770256	0.963830948	0.790452957	0.025796892	-0.004005432	0.019025804	-0.483886719	-0.865478516	-0.336181641	891.72	45.76154637	-82.94135363	24.83136858	-69
10125	0	0.390197754	0.037841797	0.034729004	0.999999046	6.48E-05	0.000142097	0.000358582	9.754943848	0.946044922	0.868225098	0.003242493	0.007104874	0.017929078	-0.484130859	-0.865478516	-0.333251953	891.66	45.49982523	-82.94758352	25.11270454	-69
10126	0	0.389847755	0.03750515	0.036054611	0.999999046	-0.000236511	0.000167847	0.000254631	9.746193886	0.937628746	0.90136528	-0.011825562	0.008392334	0.012731552	-0.481689453	-0.865722656	-0.339111328	891.74	45.25355888	-82.94307069	25.33226099	-69
10127	0	0.390991211	0.038391113	0.033752441	0.999999046	-0.000419617	0.000470161	0.000282288	9.774780273	0.959777832	0.843811035	-0.020980837	0.023508074	0.014114381	-0.481689453	-0.865722656	-0.339111328	891.68	44.77205766	-82.91613544	25.77070161	-69
10128	0	0.390978813	0.038322449	0.035982132	0.999999046	-0.000662804	0.000583649	0.000308037	9.774470329	0.958061218	0.899553299	-0.033140187	0.029182438	0.015401842	-0.481689453	-0.863525391	-0.336425781	891.68	44.17656065	-82.88139363	26.30414587	-69
10129	0	0.391601563	0.038757324	0.035522461	0.999999046	-0.000919342	0.000882149	0.000297546	9.790039063	0.968933105	0.888061523	-0.045967115	0.04410745	0.014877324	-0.483886719	-0.863525391	-0.342041016	891.66	43.37746042	-82.82029355	27.00717214	-69
10130	0	0.390825272	0.038210869	0.038173676	0.999998093	-0.001328468	0.000946999	0.000323296	9.77063179	0.955271721	0.954341888	-0.066423447	0.047349952	0.016164787	-0.484130859	-0.86328125	-0.339111328	891.68	42.48743513	-82.75433625	27.7684752	-69
10131	0	0.390686035	0.037353516	0.03918457	0.999998093	-0.001601219	0.001056671	0.000244141	9.767150879	0.933837891	0.979614258	-0.080061009	0.05283359	0.012207039	-0.483886719	-0.861328125	-0.347900391	891.76	41.56853914	-82.67141701	28.51585261	-69
10132	0	0.386955261	0.037155151	0.041219711	0.999998093	-0.001758575	0.000756264	8.68E-05	9.673881531	0.928878784	1.030492783	-0.087928826	0.03781321	0.004339221	-0.484130859	-0.856933594	-0.345458984	891.82	40.92779423	-82.6010171	28.97532806	-69
10133	0	0.386535645	0.034301758	0.043273926	0.999997139	-0.002326965	8.49E-05	-0.000198364	9.663391113	0.857543945	1.081848145	-0.116348373	0.004243855	-0.009918222	-0.481689453	-0.856933594	-0.354248047	891.74	40.80319892	-82.56691999	28.83901284	-69
10134	0	0.389016151	0.036655426	0.038931847	0.999998093	-0.001887321	-0.000201225	-0.000184059	9.725403786	0.916385651	0.973296165	-0.094366131	-0.01006127	-0.009202963	-0.479492188	-0.854980469	-0.354492188	891.68	40.88346934	-82.55869267	28.55169904	-69
10135	0	0.387207031	0.035949707	0.036987305	0.999998093	-0.001387596	-0.000335693	0	9.680175781	0.898742676	0.924682617	-0.06937983	-0.016784674	0	-0.481689453	-0.854736328	-0.357177734	891.66	40.97677919	-82.57597031	28.3081933	-69
10136	0	0.387840271	0.036156654	0.035118103	0.999999046	-0.000700951	-0.000696182	0.000216484	9.696006775	0.903916359	0.877952576	-0.035047537	-0.034809118	0.010824205	-0.481689453	-0.852539063	-0.363037109	891.66	41.21701802	-82.64078594	27.98293678	-69
10137	0	0.390686035	0.035339355	0.033630371	0.999999046	-0.00087738	-0.000697136	0.000144958	9.767150879	0.883483887	0.840759277	-0.043869028	-0.034856804	0.007247926	-0.479248047	-0.852783203	-0.36328125	891.74	41.49161708	-82.70034113	27.6044301	-69
10138	0	0.393368721	0.033942223	0.034910202	0.999999046	-0.000535965	-0.000427246	4.86E-05	9.834218025	0.848555565	0.872755051	-0.02679825	-0.021362306	0.00243187	-0.479492188	-0.850585938	-0.363525391	891.68	41.71379447	-82.72948326	27.31730693	-69
10139	0	0.392578125	0.03314209	0.036987305	0.999999046	7.25E-05	-4.48E-05	0.000164032	9.814453125	0.828552246	0.924682617	0.003623962	-0.002241135	0.008201599	-0.481933594	-0.850341797	-0.360351563	891.74	41.69990448	-82.7348007	27.34500841	-69
10140	0	0.391737938	0.033873558	0.039204597	0.999999046	0.000504494	0.000246048	0.000296593	9.793448448	0.846838951	0.980114937	0.025224687	0.0123024	0.014829637	-0.481689453	-0.850585938	-0.366210938	891.74	41.47194127	-82.72532113	27.62456913	-69
10141	0	0.392272949	0.036499023	0.037414551	0.999999046	0.000144958	0.000283241	0.000350952	9.80682373	0.912475586	0.93536377	0.007247925	0.014162064	0.017547608	-0.484130859	-0.852539063	-0.357177734	891.74	41.14505971	-82.71656145	27.98389641	-69
10142	0	0.391601563	0.037475586	0.037597656	0.999999046	-8.77E-05	0.000404358	0.000347137	9.790039063	0.936889648	0.939941406	-0.004386902	0.020217896	0.017356873	-0.481689453	-0.852539063	-0.360351563	891.8	40.72506874	-82.69672459	28.40422029	-69
10143	0	0.390258789	0.035949707	0.038452148	0.999999046	-9.54E-05	0.000794411	0.000141144	9.756469727	0.898742676	0.961303711	-0.004768372	0.03972054	0.007057191	-0.484130859	-0.850341797	-0.36328125	891.78	40.22235307	-82.62714055	28.90138024	-69
10144	0	0.387886047	0.036015511	0.040172577	0.999999046	1.81E-05	0.000654221	0.000217438	9.697151184	0.900387764	1.004314423	0.000905991	0.032711032	0.010871888	-0.484130859	-0.850341797	-0.360351563	891.74	39.76896202	-82.57486633	29.36962084	-69
10145	0	0.390197754	0.037658691	0.039672852	0.999999046	4.96E-05	0.000325203	0.000217438	9.754943848	0.941467285	0.991821289	0.002479553	0.016260148	0.010871887	-0.484130859	-0.850341797	-0.36328125	891.72	39.50915435	-82.55119122	29.64045938	-69
10146	0	0.391411781	0.038346291	0.034978867	0.999999046	-0.000204086	0.000137329	0.00052166	9.785294533	0.958657265	0.874471664	-0.010204316	0.006866455	0.026082994	-0.484375	-0.848144531	-0.36328125	891.72	39.12188586	-82.56619545	30.01012247	-69
10147	0	0.391906738	0.036376953	0.036987305	0.999999046	-0.000518799	0.000676155	0.000480652	9.797668457	0.909423828	0.924682617	-0.025939946	0.03380776	0.024032597	-0.484375	-0.848144531	-0.360595703	891.74	38.43156186	-82.52976463	30.65861789	-69
10148	0	0.390849113	0.036325455	0.040421486	0.999999046	-0.000685692	0.000961304	0.000453949	9.771227837	0.908136368	1.010537148	-0.034284601	0.048065198	0.022697455	-0.484375	-0.848144531	-0.360595703	891.72	37.5961393	-82.46455724	31.43911416	-69
10149	0	0.389648438	0.03515625	0.042785645	0.999997139	-0.001350403	0.001423836	0.000175476	9.741210938	0.87890625	1.069641113	-0.067520185	0.071191834	0.008773809	-0.484130859	-0.845947266	-0.372070313	891.72	36.65281202	-82.33621777	32.23391548	-69
10150	0	0.39198494	0.036982536	0.041742325	0.999997139	-0.001699448	0.00138855	0.000197411	9.799623489	0.924563408	1.043558121	-0.08497245	0.069427546	0.009870537	-0.484375	-0.84375	-0.369384766	891.66	35.70183846	-82.2108406	33.01050661	-68
10151	0	0.391174316	0.037414551	0.039550781	0.999996185	-0.002108574	0.001274109	0.000408173	9.77935791	0.93536377	0.988769531	-0.105428805	0.063705511	0.020408652	-0.481933594	-0.843994141	-0.378173828	891.72	34.64475539	-82.10841899	33.83980299	-68
10152	0	0.393185616	0.037670135	0.037477493	0.999996185	-0.001934052	0.001906395	0.000439644	9.829640388	0.941753387	0.936937332	-0.096702698	0.095319868	0.021982221	-0.484375	-0.841552734	-0.378173828	891.68	33.32898522	-81.94585698	34.96150972	-68
10153	0	0.393737793	0.036682129	0.043151855	0.999995232	-0.002101898	0.002038002	0.000278473	9.843444824	0.917053223	1.078796387	-0.105095061	0.101900248	0.013923665	-0.481689453	-0.841796875	-0.386962891	891.68	32.09667406	-81.75733658	35.97412276	-68
10154	0	0.392891884	0.036932945	0.048692703	0.999992371	-0.002932549	0.002480507	6.01E-05	9.822297096	0.923323631	1.217317581	-0.146627787	0.12402565	0.003004081	-0.481933594	-0.837402344	-0.387451172	891.74	30.79015077	-81.50923691	36.97873242	-68
10155	0	0.390991211	0.031188965	0.05670166	0.999988556	-0.003123283	0.00334549	-0.000392914	9.774780273	0.779724121	1.417541504	-0.156164719	0.167275063	-0.01964576	-0.479492188	-0.835449219	-0.396240234	891.72	29.49938196	-81.14588962	37.94489171	-68
10156	0	0.386296272	0.026784897	0.061224937	0.999992371	-0.002246857	0.002949715	-0.000502586	9.657406807	0.669622421	1.530623436	-0.112343097	0.147486077	-0.025129377	-0.477294922	-0.831054688	-0.399658203	891.82	28.59376578	-80.81314915	38.62693698	-68
10157	0	0.379882813	0.031921387	0.058227539	0.999995232	-0.001441956	0.002404213	-4.58E-05	9.497070313	0.798034668	1.455688477	-0.072097873	0.120210805	-0.002288821	-0.474853516	-0.831298828	-0.405517578	891.78	27.73011073	-80.55849313	39.35841964	-68
10158	0	0.378868103	0.033619881	0.058925629	0.999997139	-0.000753403	0.001890182	0.000423431	9.471702576	0.840497017	1.473140717	-0.037670163	0.094509193	0.021171585	-0.472412109	-0.829101563	-0.414306641	891.78	26.86087901	-80.3789898	40.1618265	-68
10159	0	0.381713867	0.034301758	0.058898926	0.999998093	-0.001139641	0.001159668	0.000534058	9.54284668	0.857543945	1.472473145	-0.056982068	0.057983427	0.026702894	-0.470214844	-0.824707031	-0.414794922	891.78	26.12676297	-80.27816428	40.78529573	-68
10160	0	0.388754845	0.031740189	0.058103561	0.999998093	-0.001623154	0.000611305	0.000333786	9.718871117	0.793504715	1.452589035	-0.081157727	0.030565278	0.016689309	-0.474853516	-0.824707031	-0.420410156	891.72	25.62836511	-80.22290055	41.11099888	-68
10161	0	0.386413574	0.026306152	0.060913086	0.999998093	-0.001646996	0.000400543	0.000202179	9.660339355	0.657653809	1.522827148	-0.082349817	0.02002717	0.010108953	-0.472412109	-0.824707031	-0.420410156	891.72	25.26819804	-80.18267466	41.30072697	-68
10162	0	0.383748055	0.026062965	0.063686371	0.999999046	-0.000810623	0.000181198	0.000208855	9.593701363	0.651574135	1.592159271	-0.040531163	0.009059907	0.010442735	-0.47265625	-0.822509766	-0.417724609	891.68	25.06102977	-80.16533884	41.43945384	-68
10163	0	0.38482666	0.02935791	0.067626953	0.999999046	-0.000457764	-0.000136375	0.000331879	9.620666504	0.733947754	1.690673828	-0.022888185	-0.006818772	0.016593934	-0.474853516	-0.824707031	-0.423095703	891.62	24.9081125	-80.18659403	41.55669121	-68
10164	0	0.385233879	0.033309937	0.070298195	0.999999046	-0.000500679	-0.00019455	0.000201225	9.630846977	0.832748413	1.757454872	-0.025033952	-0.009727479	0.010061265	-0.474853516	-0.8203125	-0.426513672	891.6	24.84420095	-80.20704851	41.56860866	-68
10165	0	0.385437012	0.032104492	0.07208252	0.999999046	-0.000827789	-0.000227928	-0.000431061	9.635925293	0.802612305	1.802062988	-0.041389472	-0.01139641	-0.021553043	-0.47265625	-0.822509766	-0.420654297	891.68	25.13136102	-80.19976448	41.20263046	-68
10166	0	0.38184166	0.032370567	0.074768066	0.999998093	-0.00117588	6.58E-05	-0.000923157	9.546041489	0.809264183	1.86920166	-0.058794044	0.003290178	-0.046157854	-0.474853516	-0.8203125	-0.423583984	891.72	25.58622176	-80.13673757	40.62227778	-68
10167	0	0.38079834	0.031066895	0.077148438	0.999998093	-0.001067162	0.000236511	-0.001117706	9.519958496	0.776672363	1.928710938	-0.0533581	0.011825566	-0.055885338	-0.47265625	-0.8203125	-0.423583984	891.68	26.10916167	-80.04470811	39.9886928	-67
10168	0	0.391383171	0.027511597	0.073789597	0.999998093	-0.000650406	0.000943184	-0.000904083	9.784579277	0.687789917	1.844739914	-0.032520306	0.047159212	-0.045204179	-0.467773438	-0.820556641	-0.432617188	891.72	26.3388733	-79.88975755	39.68498474	-67
10169	0	0.395629883	0.032043457	0.072387695	0.999998093	-0.00039196	0.00151062	-0.000480652	9.89074707	0.801086426	1.809692383	-0.019598016	0.075531039	-0.024032603	-0.465332031	-0.820800781	-0.432617188	891.66	26.1891444	-79.69763568	39.80094753	-67
10170	0	0.391712189	0.027721405	0.076217651	0.999996185	-0.000763893	0.002318382	-0.000382423	9.792804718	0.693035126	1.905441284	-0.038194695	0.115919231	-0.019121189	-0.463134766	-0.818603516	-0.432861328	891.82	25.7265324	-79.42677834	40.1963751	-67
10171	0	0.379882813	0.028442383	0.068237305	0.999996185	-0.001963615	0.001396179	-0.000946045	9.497070313	0.71105957	1.705932617	-0.098180881	0.069809038	-0.047302299	-0.460693359	-0.818603516	-0.433105469	891.74	25.69131074	-79.22286504	40.026714	-67
10172	0	0.383366585	0.030462265	0.043791771	0.999995232	-0.002215385	0.000961304	-0.001703262	9.584164619	0.761556625	1.094794273	-0.110769433	0.048065256	-0.08516324	-0.458251953	-0.816650391	-0.439208984	891.74	26.14172655	-79.02709437	39.32793961	-67
10173	0	0.395751953	0.034973145	0.038513184	0.999998093	-0.001170158	0.001262665	-0.000854492	9.893798828	0.874328613	0.96282959	-0.058507955	0.063133279	-0.042724636	-0.451171875	-0.816894531	-0.447998047	891.76	26.17519098	-78.84435371	39.16259502	-67
10174	0	0.404510498	0.024575233	0.044229507	0.999999046	-0.000886917	0.000757217	0.000510216	10.11276245	0.614380836	1.105737686	-0.044345868	0.037860881	0.025510795	-0.451171875	-0.814697266	-0.448242188	891.78	25.66010488	-78.78400542	39.59226101	-67
10175	0	0.391967773	0.021972656	0.046569824	0.999998093	-0.000784874	0.000648499	0.001522064	9.799194336	0.549316406	1.164245605	-0.03924372	0.032424945	0.076103253	-0.451171875	-0.814697266	-0.451171875	891.82	24.65873499	-78.78473873	40.52874162	-68
10176	0	0.38694191	0.033230782	0.048344612	0.999996185	-0.001255035	0.001576424	0.001842499	9.673547745	0.830769539	1.208615303	-0.062751848	0.07882128	0.092125053	-0.453613281	-0.8125	-0.454101563	891.68	23.22417767	-78.70047027	41.85397242	-69
10177	0	0.385009766	0.02947998	0.045410156	0.999994278	-0.002203941	0.002037048	0.001022339	9.625244141	0.736999512	1.135253906	-0.110197252	0.101852588	0.051117029	-0.456054688	-0.810302734	-0.454101563	891.72	22.03772573	-78.52681288	42.82838088	-69
10178	0	0.38889122	0.02682209	0.035517693	0.999994278	-0.002455711	0.002194405	0.000464439	9.722280502	0.670552254	0.887942314	-0.122785795	0.109720432	0.023222012	-0.458251953	-0.808105469	-0.465576172	891.72	21.11499092	-78.31146912	43.49445295	-69
10179	0	0.39440918	0.02355957	0.031616211	0.999992371	-0.001505852	0.003475189	4.96E-05	9.860229492	0.588989258	0.790405273	-0.075292767	0.173759876	0.002479559	-0.455810547	-0.808105469	-0.465820313	891.72	20.29986095	-77.94245039	44.17495575	-69
10180	0	0.388810158	0.02144146	0.043172836	0.999995232	-0.001069069	0.002759933	0.000205994	9.720253944	0.536036491	1.079320908	-0.053453524	0.137996876	0.010299698	-0.455810547	-0.810302734	-0.468505859	891.78	19.62701134	-77.65670956	44.76859773	-69
10181	0	0.392150879	0.019226074	0.027282715	0.999994278	-0.000575066	0.003032684	0.000171661	9.803771973	0.480651855	0.682067871	-0.028753326	0.151634458	0.008583083	-0.455566406	-0.810302734	-0.474121094	891.78	19.01087633	-77.34170569	45.35938313	-70
10182	0	0.386552811	0.023088455	0.02977562	0.999990463	0.00140667	0.003912926	0.000494003	9.663820267	0.57721138	0.744390488	0.070333686	0.195646858	0.024700237	-0.455566406	-0.8125	-0.476806641	891.78	18.3603964	-76.94429028	46.21775308	-69
10183	0	0.380249023	0.025146484	0.030883789	0.999992371	0.001214027	0.003566742	0.000934601	9.506225586	0.628662109	0.772094727	0.060701523	0.178337545	0.046730159	-0.457519531	-0.819091797	-0.476318359	891.72	17.58283313	-76.60046857	47.19593868	-68
10184	0	0.383155823	0.011179924	0.02455616	0.999991417	0.001992226	0.003572464	0.000490189	9.578895569	0.2794981	0.613903999	0.099611564	0.178623705	0.024509499	-0.462158203	-0.821289063	-0.478759766	891.68	17.13457513	-76.24180463	47.9256951	-68
10185	0	0.386230469	0.017456055	0.022888184	0.999987602	0.003284454	0.003464699	0.00094223	9.655761719	0.436401367	0.57220459	0.164223365	0.173235623	0.047111697	-0.462158203	-0.827636719	-0.469482422	891.74	16.67881681	-75.91208064	48.83485812	-69
10186	0	0.383338928	0.007908821	0.033120155	0.999990463	0.003199577	0.002465248	0.001223564	9.583473206	0.197720528	0.828003883	0.159979342	0.123262771	0.061178389	-0.466552734	-0.836181641	-0.462890625	891.66	16.24408616	-75.70268222	49.72722049	-66
10187	0	0.400512695	-0.00958252	0.046813965	0.999982834	0.005368233	0.001987457	0.001132965	10.01281738	-0.239562988	1.170349121	0.26841316	0.099373428	0.056648576	-0.473388672	-0.844726563	-0.453125	891.72	16.1638786	-75.54478303	50.52084142	-66
10188	0	0.448951721	0.013702393	0.075733185	0.999961853	0.0070858	0.004141808	0.002795219	11.22379303	0.342559814	1.89332962	0.354294448	0.207092973	0.139762722	-0.480224609	-0.85546875	-0.440429688	891.78	15.33465222	-75.20101579	52.30845005	-69
10189	0	0.440063477	0.050354004	0.089233398	0.999979019	0.003552437	0.001537323	0.005062103	11.00158691	1.258850098	2.230834961	0.177623044	0.07686667	0.253106877	-0.491943359	-0.863769531	-0.424804688	891.74	13.48383675	-75.20125021	54.76557237	-66
10190	0	0.401317596	0.018977165	0.06498909	0.999987602	-0.000595093	-0.003234863	0.003584862	10.03293991	0.474429131	1.624727249	-0.029754756	-0.161743802	0.179243795	-0.510986328	-0.865234375	-0.406494141	891.74	12.22334804	-75.6821596	56.15378219	-67
10191	0	0.378723145	0.0078125	0.061645508	0.999980927	0.001782417	-0.005661011	0.00112915	9.468078613	0.1953125	1.541137695	0.089121407	-0.283052259	0.056457863	-0.528076172	-0.860107422	-0.388671875	891.8	12.50916634	-76.37281463	56.22281239	-65
10192	0	0.373690605	0.032834053	0.096670151	0.999962807	0.007634163	-0.003808975	0.000142097	9.342265129	0.820851326	2.416753769	0.381712777	-0.190451072	0.00710496	-0.544921875	-0.863769531	-0.361572266	891.78	13.7697061	-76.82927832	55.94955084	-66
10193	0	0.362792969	0.063720703	0.127380371	0.999949455	0.009479523	-0.003001213	0.000808716	9.069824219	1.593017578	3.184509277	0.473983997	-0.150063143	0.040436462	-0.5546875	-0.867431641	-0.323486328	891.68	14.88091381	-77.20911375	55.98656752	-66
10194	0	0.359921455	0.06755352	0.112052917	0.999980927	0.005425453	0.000874519	0.00255394	8.998036385	1.688838005	2.801322937	0.27127432	0.043726235	0.127697773	-0.569580078	-0.864501953	-0.291503906	891.82	14.1980143	-77.20608856	57.34969185	-65
10195	0	0.393981934	0.038635254	0.084411621	0.999990463	0.001694679	0.003406525	0.001873016	9.84954834	0.965881348	2.110290527	0.084734217	0.170326743	0.093651099	-0.577392578	-0.855224609	-0.268798828	891.66	13.13869318	-76.89747134	58.64748812	-66
10196	0	0.402071953	0.024827957	0.082060814	0.999992371	0.003131866	0.000407219	-0.002065659	10.05179882	0.620698929	2.051520348	0.156593694	0.020360995	-0.103283174	-0.582763672	-0.843994141	-0.258056641	891.72	14.4887382	-76.81545582	57.63469333	-66
10197	0	0.381774902	0.053466797	0.071777344	0.999978065	0.004657745	0.001847267	-0.004295349	9.544372559	1.336669922	1.794433594	0.232888959	0.092364028	-0.214769015	-0.583251953	-0.837402344	-0.247070313	891.78	16.84320782	-76.49785962	55.76750437	-69
10198	0	0.34105587	0.063611984	0.07349968	0.999986649	0.002699852	0.002562523	-0.00340271	8.526396751	1.590299606	1.837491989	0.134993172	0.128126688	-0.170136219	-0.581542969	-0.828369141	-0.230712891	891.72	18.38603177	-76.11766678	54.50285742	-71
10199	0	0.345825195	0.053894043	0.059509277	0.99998951	-0.001567841	0.003205299	-0.002597809	8.645629883	1.347351074	1.487731934	-0.078392283	0.160265489	-0.129890864	-0.577636719	-0.815429688	-0.220458984	891.76	18.93994422	-75.69189403	53.75202046	-75
10200	0	0.358273506	0.04990387	0.038034439	0.999986649	-0.003732681	0.001948357	-0.00267601	8.956837654	1.247596741	0.950860977	-0.186634838	0.097418236	-0.133801062	-0.573486328	-0.797851563	-0.227783203	891.74	19.43553571	-75.3990963	52.80373889	-80
10201	0	0.360046387	0.049316406	0.028076172	0.999984741	-0.004115105	0.001701355	-0.003143311	9.001159668	1.232910156	0.701904297	-0.205756253	0.08506817	-0.157166306	-0.567138672	-0.780517578	-0.235351563	891.66	20.0929779	-75.11456161	51.64179613	-81
10202	0	0.345123291	0.053872108	0.037316322	0.999988556	-0.003813744	0.000945091	-0.002612114	8.628082275	1.346802711	0.932908058	-0.190687887	0.047254738	-0.130606182	-0.562988281	-0.763183594	-0.239990234	891.74	20.66223379	-74.93063581	50.60619723	-81
10203	0	0.378295898	0.074829102	0.035766602	0.999976158	-0.006656647	0.000199318	-0.001811981	9.457397461	1.870727539	0.894165039	-0.332834979	0.009965976	-0.090599779	-0.556640625	-0.741455078	-0.250732422	891.68	20.69917693	-74.85906216	49.78450996	-75
10204	0	0.431002617	0.070703506	0.04267025	0.999941826	-0.010281563	0.000764847	-0.003136635	10.77506542	1.767587662	1.066756248	-0.514088091	0.03824308	-0.156834777	-0.552978516	-0.715332031	-0.26171875	891.72	20.76148608	-74.67470379	48.50647989	-77
10205	0	0.43927002	0.066467285	0.047790527	0.999961853	-0.007220268	-0.001312256	-0.00472641	10.98175049	1.661682129	1.194763184	-0.361017997	-0.065613626	-0.236323497	-0.544189453	-0.69140625	-0.278320313	891.68	22.10192834	-74.64288855	46.26619103	-72
10206	0	0.418897629	0.052837372	0.026064873	0.99994278	-0.008063316	-0.005520821	-0.004146576	10.47244072	1.320934296	0.651621819	-0.40317339	-0.276046216	-0.207332691	-0.537841797	-0.667724609	-0.292236328	891.68	23.84885599	-75.0678479	43.50695676	-79
10207	0	0.50793457	0.042358398	0.145080566	0.999896049	-0.012916565	8.49E-05	-0.006393433	12.69836426	1.058959961	3.62701416	-0.645850608	0.004243998	-0.319682699	-0.529296875	-0.639404297	-0.309326172	891.74	24.97065818	-74.78078293	40.82009446	-85
10208	0	0.460821152	0.008075714	0.149551392	0.999845505	-0.003362656	-0.011475563	-0.012877464	11.52052879	0.201892853	3.73878479	-0.168141437	-0.573807689	-0.64390636	-0.515869141	-0.615966797	-0.329101563	891.74	31.91323935	-75.2555287	33.24059818	-82
10209	0	0.301269531	0.057312012	0.129394531	0.99991703	-0.001018524	-0.009531975	-0.008544922	7.531738281	1.432800293	3.234863281	-0.050927608	-0.47661184	-0.427257838	-0.506835938	-0.605224609	-0.333496094	891.72	37.42569276	-75.60958547	27.43085626	-70
10210	0	0.315395355	0.085398674	0.117575645	0.999913216	-0.008010864	0.001245499	-0.010323524	7.884883881	2.13496685	2.939391136	-0.400554716	0.062276721	-0.516191048	-0.498046875	-0.587890625	-0.341064453	891.72	39.80051093	-74.76496284	24.03233252	-66
10211	0	0.417236328	0.069580078	0.136657715	0.999909401	-0.006690979	0.005051613	-0.010498047	10.4309082	1.739501953	3.416442871	-0.334559015	0.252588242	-0.524918136	-0.479248047	-0.573486328	-0.377685547	891.62	41.05387591	-73.54576884	21.93895356	-66
10212	0	0.381017685	0.010012627	0.117166519	0.999987602	-0.001046181	-0.004804611	-0.000507355	9.525442123	0.250315666	2.929162979	-0.052309249	-0.240231539	-0.02536784	-0.465332031	-0.558837891	-0.405517578	891.8	42.43548381	-73.9196349	20.37970133	-66
10213	0	0.333862305	-0.007202148	0.08972168	0.999945641	0.003295898	-0.007170677	0.006752014	8.346557617	-0.180053711	2.243041992	0.164797885	-0.358540305	0.337606778	-0.475341797	-0.538818359	-0.418212891	891.78	42.85295472	-75.05138163	20.34205505	-68
10214	0	0.342418671	0.00199604	0.083937645	0.999946594	0.006342888	-0.003556252	0.007275581	8.560466766	0.049901009	2.098441124	0.317149987	-0.177815712	0.363785484	-0.485107422	-0.522949219	-0.427490234	891.84	42.35005229	-75.92043696	21.61499827	-69
10215	0	0.373291016	0.036743164	0.055603027	0.999925613	0.008908272	-0.002983093	0.007766724	9.332275391	0.918579102	1.390075684	0.44542462	-0.149158357	0.388345799	-0.490234375	-0.511962891	-0.433837891	891.66	41.6647194	-76.77653802	23.37310203	-69
10216	0	0.359323502	0.05115509	0.024001122	0.99988842	0.010836601	-0.002729416	0.009831429	8.98308754	1.278877258	0.600028038	0.541850071	-0.136475834	0.491589579	-0.497802734	-0.498535156	-0.443115234	891.8	40.12606947	-77.75934476	26.22568893	-72
10217	0	0.330566406	0.036132813	0.017944336	0.999908447	0.010392189	-0.001113892	0.008579254	8.264160156	0.903320313	0.448608398	0.519625287	-0.055696277	0.428975781	-0.509765625	-0.489257813	-0.446044922	891.72	38.16213534	-78.49017689	29.45158102	-75
10218	0	0.340254784	0.052289963	0.005664825	0.999917984	0.011017799	0.002644539	0.005927086	8.506369591	1.307249069	0.141620636	0.550904983	0.132230548	0.296362371	-0.514648438	-0.482666016	-0.460693359	891.72	35.93347409	-78.67091681	33.01524171	-73
10219	0	0.39440918	0.037231445	0.025634766	0.999919891	0.011120796	0.00435257	0.004177094	9.860229492	0.930786133	0.640869141	0.556054645	0.217634285	0.208860247	-0.514160156	-0.485107422	-0.480712891	891.68	33.93623273	-78.55196959	36.35421595	-74
10220	0	0.434366226	0.013501167	0.025541306	0.999927521	0.010585785	0.002512932	0.005141258	10.85915565	0.337529182	0.638532639	0.52930202	0.125649624	0.257069116	-0.513427734	-0.489746094	-0.509033203	891.74	32.00676252	-78.65063517	39.560834	-73
10221	0	0.445251465	0.034240723	-0.010375977	0.999943733	0.008609772	-0.000964165	0.006031036	11.13128662	0.856018066	-0.259399414	0.430496582	-0.048209132	0.30155742	-0.515136719	-0.498535156	-0.525390625	891.74	30.36567403	-79.12738221	42.23981568	-75
10222	0	0.491434097	0.044469833	0.075882912	0.999886513	0.011808395	0.006908417	0.006196976	12.28585243	1.111745834	1.897072792	0.590441968	0.345433825	0.309860435	-0.523681641	-0.509521484	-0.543945313	891.68	26.6629193	-78.79524441	47.39185526	-77
10223	0	0.528259277	0.125488281	0.158996582	0.999896049	0.010387421	-0.002501488	0.009590149	13.20648193	3.137207031	3.974914551	0.519388877	-0.125078684	0.479523921	-0.519775391	-0.536132813	-0.564941406	891.78	23.36471198	-79.54017162	51.96266399	-77
10224	0	0.326127052	0.061570168	0.124801636	0.999909401	0.001849174	-0.007873535	0.010728836	8.153176308	1.539254189	3.120040894	0.092461507	-0.393688603	0.536457944	-0.540283203	-0.555175781	-0.565185547	891.72	18.90903424	-80.84209263	56.70108374	-75
10225	0	0.343566895	0.011901855	0.12121582	0.999936104	0.001811981	0.007199287	0.00844574	8.589172363	0.297546387	3.030395508	0.090600969	0.359971957	0.422295887	-0.560546875	-0.572021484	-0.568359375	891.72	12.22623954	-80.3192013	63.68788206	-72
10226	0	0.433067322	0.023563385	0.105264664	0.999977112	0.004563332	0.003180504	0.003669739	10.82668304	0.589084625	2.631616592	0.228168269	0.159026369	0.183488297	-0.568847656	-0.593994141	-0.586181641	891.72	10.01593771	-80.05418016	66.46338979	-73
10227	0	0.363830566	0.067871094	0.086853027	0.99998188	0.001396179	-0.004885674	-0.003135681	9.09576416	1.696777344	2.171325684	0.069809375	-0.244285128	-0.156784989	-0.574951172	-0.620117188	-0.572265625	891.78	12.96459091	-80.54056767	63.63731631	-75
10228	0	0.313749313	0.101870537	0.059762001	0.999955177	-0.003022194	-0.003673553	-0.008171082	7.843732834	2.54676342	1.494050026	-0.151111947	-0.18368041	-0.408560165	-0.585693359	-0.648193359	-0.560791016	891.72	18.88212937	-80.69466465	57.29321636	-75
10229	0	0.317810059	0.040161133	0.058654785	0.99995327	-0.004962921	0.001568794	-0.008117676	7.945251465	1.00402832	1.466369629	-0.248149903	0.078440928	-0.40589008	-0.589599609	-0.674316406	-0.549804688	891.66	23.20691793	-80.19538823	52.33640665	-85
10230	0	0.346974373	0.034287453	0.053649902	0.999961853	-0.004714012	0.005114555	-0.005105972	8.674359322	0.857186317	1.341247559	-0.235703532	0.255730941	-0.255301783	-0.586181641	-0.694335938	-0.551269531	891.74	24.44041086	-79.4244235	50.53979897	-80
10231	0	0.338867188	0.055358887	0.02947998	0.999951363	-0.009010315	0.002930641	-0.002468109	8.471679688	1.383972168	0.736999512	-0.450522946	0.1465344	-0.123407428	-0.588134766	-0.703125	-0.553222656	891.66	24.1526426	-79.00385925	49.78760578	-81
10232	0	0.331963539	0.06407547	0.02200985	0.999921799	-0.011835098	-0.000502586	-0.003789902	8.299088478	1.601886749	0.550246239	-0.59177017	-0.025129966	-0.189499972	-0.59765625	-0.700683594	-0.561523438	891.7	25.06690318	-78.8776422	47.48016751	-84
10233	0	0.348999023	0.049804688	0.024902344	0.999889374	-0.013739586	-0.004653931	-0.003269196	8.724975586	1.245117188	0.622558594	-0.687004614	-0.23270511	-0.163465803	-0.609619141	-0.693603516	-0.567138672	891.68	26.57049519	-79.19721987	44.35093848	-83
10234	0	0.429950714	0.05900383	0.048380852	0.999855995	-0.016798019	0.000825882	-0.002081871	10.74876785	1.475095749	1.209521294	-0.839941177	0.041296075	-0.104098535	-0.624023438	-0.679931641	-0.576171875	891.72	25.68774372	-79.00952952	43.29607757	-81
10235	0	0.47052002	0.032043457	0.030273438	0.999976158	-0.005119324	0.000687599	-0.004577637	11.76300049	0.801086426	0.756835938	-0.255968219	0.034380232	-0.228883653	-0.633789063	-0.668945313	-0.59375	891.78	27.45046116	-78.70874053	40.90673295	-81
10236	0	0.439921379	0.022275925	0.012469292	0.999979973	-0.003760338	-0.003046036	-0.003845215	10.99803448	0.556898117	0.311732292	-0.188018089	-0.152302758	-0.192261966	-0.640869141	-0.670654297	-0.587402344	891.78	29.95534586	-78.80998263	37.9193404	-81
10237	0	0.526977539	0.098510742	0.13079834	0.999934196	-0.00951004	-0.000315666	-0.006290436	13.17443848	2.462768555	3.269958496	-0.475512326	-0.015783652	-0.31452861	-0.647705078	-0.672851563	-0.592529297	891.78	32.18213146	-78.47042332	34.54297231	-80
10238	0	0.420127869	-0.012276649	0.156033516	0.999769211	-0.004321098	-0.012989998	-0.016554832	10.50319672	-0.306916237	3.900837898	-0.216071537	-0.649549858	-0.8278053	-0.654541016	-0.679199219	-0.591796875	891.8	43.65121242	-78.47502895	22.33822375	-83
10239	0	0.298278809	0.003479004	0.137756348	0.999883652	-0.001620293	0.002567291	-0.014915466	7.456970215	0.086975098	3.443908691	-0.081017762	0.12836952	-0.745802116	-0.653808594	-0.701171875	-0.581298828	891.8	48.0578864	-77.03307241	17.64365827	-84
10240	0	0.406394005	0.117918968	0.106768608	0.999897003	-0.005971909	0.008107185	-0.010221481	10.15985012	2.947974205	2.669215202	-0.298605675	0.405373178	-0.511091603	-0.626708984	-0.719726563	-0.595703125	891.78	47.82913096	-75.52746056	17.1793129	-80
10241	0	0.379089355	0.101196289	0.101745605	0.99997139	-0.006651878	-0.003414154	-0.000465393	9.477233887	2.529907227	2.543640137	-0.332597029	-0.170709299	-0.023269871	-0.619384766	-0.724365234	-0.604248047	891.74	48.40340802	-75.73291608	15.80391177	-75
10242	0	0.344402313	-0.039340973	0.071043968	0.999958992	-0.004337311	-0.004379272	0.006512642	8.610057831	-0.983524323	1.776099205	-0.216868446	-0.218966557	0.325636459	-0.62890625	-0.719726563	-0.604003906	891.78	47.4299333	-76.61121024	16.29750454	-75
10243	0	0.330871582	-0.073120117	0.076477051	0.999940872	0.006028175	-0.003311157	0.008319855	8.271789551	-1.82800293	1.91192627	0.301414621	-0.165561077	0.416000816	-0.648193359	-0.710205078	-0.601074219	891.72	46.51146163	-77.56004077	17.94904369	-71
10244	0	0.338844299	0.032224655	0.055567741	0.999900818	0.010635376	0.001332283	0.009078979	8.471107483	0.805616379	1.389193535	0.531786288	0.066616342	0.453963904	-0.667236328	-0.713867188	-0.591064453	891.72	43.82812249	-78.1843567	21.94067537	-72
10245	0	0.358154297	0.07244873	0.014160156	0.999910355	0.009350777	0.003238678	0.008960724	8.953857422	1.811218262	0.354003906	0.467552722	0.161938709	0.448049503	-0.681396484	-0.715576172	-0.575683594	891.68	40.004274	-78.58937108	26.93978583	-70
10246	0	0.34022522	0.014312744	0.00871563	0.999909401	0.009553909	0.004356384	0.00833416	8.505630493	0.357818604	0.217890739	0.477709774	0.217825739	0.416720475	-0.695556641	-0.717041016	-0.569091797	891.7	35.83258222	-78.7809272	32.31199911	-70
10247	0	0.32623291	0.005981445	0.017272949	0.999891281	0.013466835	0.003307343	0.005008698	8.155822754	0.149536133	0.43182373	0.673366149	0.165373118	0.25044395	-0.704833984	-0.723388672	-0.568115234	891.74	33.93838853	-78.79951261	35.81686988	-69
10248	0	0.398794174	0.025712013	0.043410301	0.99988842	0.014088631	0.002994537	0.003840446	9.969854355	0.642800331	1.08525753	0.704457625	0.149732413	0.192029436	-0.713623047	-0.742919922	-0.557373047	891.74	32.77929007	-78.75769716	38.64535872	-70
10249	0	0.450622559	0.038513184	0.033569336	0.999948502	0.007439613	-0.003757477	0.005748749	11.26556396	0.96282959	0.839233398	0.371987023	-0.18787705	0.28744235	-0.720214844	-0.7578125	-0.544433594	891.74	31.97169347	-79.47917782	40.33712693	-74
10250	0	0.435487747	0.036820412	0.019644737	0.999977112	0.003386497	-0.001286507	0.00558567	10.88719368	0.920510292	0.491118431	0.169326126	-0.064325808	0.279285587	-0.745849609	-0.768066406	-0.533447266	891.74	29.7923227	-79.9418369	42.94846869	-72
10251	0	0.586303711	0.073547363	0.161315918	0.999787331	0.017398834	0.004384041	0.010162354	14.65759277	1.838684082	4.032897949	0.870003375	0.219217579	0.508153692	-0.754638672	-0.780761719	-0.531982422	891.78	24.64976167	-80.03145464	50.19576217	-71
10252	0	0.395237923	0.097912788	0.169695854	0.999733925	0.00666523	-0.012023926	0.018474579	9.880948067	2.44781971	4.242396355	0.333290952	-0.601249438	0.923810606	-0.790039063	-0.796875	-0.494384766	891.78	15.86862186	-82.06142734	59.85889171	-71
10253	0	0.337402344	0.040222168	0.137939453	0.999904633	-0.003046989	0.005554199	0.012207031	8.435058594	1.005554199	3.448486328	-0.152354275	0.277718716	0.610370805	-0.830810547	-0.784423828	-0.478759766	891.7	5.119750186	-81.68158192	70.36709767	-70
10254	0	0.458729744	0.008040428	0.088985443	0.999995232	0.002626419	7.82E-05	0.001219749	11.4682436	0.201010704	2.224636078	0.131321137	0.00391007	0.060987558	-0.847167969	-0.783935547	-0.486572266	891.66	4.523484114	-81.67690729	71.27577917	-71
10255	0	0.371582031	0.059082031	0.080749512	0.99996376	0.001797676	-0.007793427	-0.002700806	9.289550781	1.477050781	2.018737793	0.089884872	-0.389675954	-0.135041887	-0.861083984	-0.798828125	-0.461669922	891.68	7.717451746	-82.52286327	68.26201534	-69
10256	0	0.308584213	0.12635994	0.048084259	0.999939919	-0.005713463	-0.006250381	-0.006879807	7.714605331	3.158998489	1.202106476	-0.28567881	-0.312525274	-0.343997151	-0.870361328	-0.815673828	-0.430908203	891.72	14.41128367	-83.06377037	60.85990694	-69
10257	0	0.31427002	0.063903809	0.037841797	0.999848366	-0.014419556	0.000229836	-0.00970459	7.856750488	1.597595215	0.946044922	-0.721014096	0.011492354	-0.485253931	-0.863037109	-0.829101563	-0.41015625	891.68	21.3139599	-82.68180744	52.24463943	-69
10258	0	0.33681488	0.028738022	0.04350853	0.999817848	-0.015949249	0.007709503	-0.007071495	8.420372009	0.718450546	1.087713242	-0.797510827	0.385498537	-0.353596196	-0.850830078	-0.833984375	-0.427734375	891.7	22.64755128	-81.54245682	49.05873317	-69
10259	0	0.33972168	0.023925781	0.033447266	0.99985981	-0.015071869	0.006463051	-0.003372192	8.493041992	0.598144531	0.836181641	-0.753628655	0.323167641	-0.168617497	-0.83203125	-0.825927734	-0.449462891	891.74	21.53802499	-80.69514146	48.43826536	-73
10260	0	0.337687492	0.046323776	0.013730049	0.999833107	-0.01775074	-3.81E-05	-0.004179955	8.442187309	1.158094406	0.343251228	-0.887586203	-0.001907454	-0.209009312	-0.820800781	-0.806640625	-0.460205078	891.84	22.31083678	-80.5060503	45.59768732	-77
10261	0	0.350341797	0.033325195	0.00592041	0.999807358	-0.018755913	-0.004566193	-0.00346756	8.758544922	0.833129883	0.148010254	-0.937855771	-0.228324271	-0.173389108	-0.812011719	-0.787353516	-0.470947266	891.7	23.74885314	-80.81987572	41.96635534	-72
10262	0	0.42412281	0.015950203	0.035514832	0.999850273	-0.017097473	0.001865387	-0.001379967	10.60307026	0.398755074	0.887870789	-0.85491608	0.093273977	-0.069001761	-0.808105469	-0.760986328	-0.484863281	891.66	22.28145216	-80.55040496	41.47185548	-69
10263	0	0.469970703	0.026916504	0.018859863	0.999986649	-0.003153801	0.000991821	-0.003860474	11.74926758	0.672912598	0.471496582	-0.157690727	0.049591278	-0.193024513	-0.799560547	-0.737304688	-0.501464844	891.74	24.17455015	-80.26330978	39.18774868	-66
10264	0	0.463602066	0.004353523	0.061544418	0.999990463	-0.002492905	-0.00070858	-0.003351212	11.59005165	0.108838081	1.538610458	-0.124645606	-0.035429107	-0.167561079	-0.79296875	-0.730957031	-0.490966797	891.7	26.20567575	-80.16587902	36.8397476	-66
10265	0	0.525695801	0.063293457	0.145446777	0.99995327	-0.004249573	-0.001387596	-0.008506775	13.14239502	1.582336426	3.636169434	-0.212481908	-0.069380874	-0.425345292	-0.786132813	-0.722412109	-0.491943359	891.68	31.09362768	-79.82550093	31.38447103	-68
10266	0	0.370492935	-0.018036842	0.140703201	0.999749184	0.000257492	-0.013595581	-0.01775074	9.26232338	-0.450921059	3.517580032	0.012875676	-0.679835713	-0.88761098	-0.776611328	-0.731445313	-0.48046875	891.72	45.44607037	-79.77213712	16.83439887	-70
10267	0	0.319091797	0.029602051	0.120849609	0.999818802	0.005085945	0.009757996	-0.015529633	7.977294922	0.74005127	3.021240234	0.254312612	0.487929242	-0.776528517	-0.757080078	-0.756103516	-0.453613281	891.8	48.06917581	-77.68972098	14.75606422	-75
10268	0	0.437098503	0.103106499	0.103308678	0.999921799	0.002985001	0.008370399	-0.008768082	10.92746258	2.577662468	2.582716942	0.149253908	0.418530846	-0.438415472	-0.723144531	-0.777099609	-0.468017578	891.58	48.22550702	-76.27924204	14.94727163	-86
10269	0	0.364318848	0.064880371	0.08782959	0.999985695	0.00333786	-0.002558708	0.003147125	9.107971191	1.622009277	2.195739746	0.166893773	-0.127935998	0.157356986	-0.716064453	-0.779541016	-0.462402344	891.78	48.52300045	-76.72093335	15.03472727	-81
10270	0	0.335511208	-0.042219162	0.062278748	0.999934196	0.006381989	-0.002241135	0.009207726	8.38778019	-1.05547905	1.556968689	0.319106369	-0.11205917	0.460396293	-0.726318359	-0.763671875	-0.448974609	891.7	46.95234931	-77.65626746	17.39444947	-74
10271	0	0.325317383	-0.034606934	0.067138672	0.999867439	0.014102936	0.000515938	0.008102417	8.13293457	-0.86517334	1.678466797	0.705177915	0.025798029	0.405138732	-0.746337891	-0.745117188	-0.423583984	891.68	45.31729492	-78.2692653	20.71709752	-74
10272	0	0.33705616	0.047559738	0.048446655	0.999826431	0.015426636	0.005322456	0.008888245	8.426403999	1.188993454	1.211166382	0.771376186	0.266138136	0.444437812	-0.756835938	-0.733642578	-0.395263672	891.74	41.41249456	-78.50954832	26.50739806	-71
10273	0	0.360656738	0.062255859	0.014526367	0.999824524	0.014775276	0.005687714	0.009944916	9.016418457	1.556396484	0.36315918	0.738806856	0.284402252	0.497274763	-0.76953125	-0.717529297	-0.381591797	891.78	36.6629194	-78.70630142	33.07914027	-69
10274	0	0.345007896	0.025039673	-0.005468369	0.999827385	0.015869141	0.005342484	0.007956505	8.625197411	0.625991821	-0.136709213	0.793502487	0.267139479	0.397848032	-0.780029297	-0.697509766	-0.374023438	891.74	32.98486342	-78.71261986	38.68373084	-67
10275	0	0.335327148	0.056396484	0.0078125	0.999821663	0.017688751	0.004330635	0.00497818	8.383178711	1.409912109	0.1953125	0.884490109	0.216544619	0.248923785	-0.785400391	-0.684082031	-0.36328125	891.68	31.31244853	-78.58598906	42.4570229	-66
10276	0	0.410089493	0.051222801	0.040753365	0.999893188	0.013204575	0.004279137	0.004441261	10.25223732	1.28057003	1.018834114	0.660252103	0.213964408	0.222070926	-0.788330078	-0.672851563	-0.352539063	891.72	29.47968583	-78.41198256	45.87210227	-65
10277	0	0.440795898	0.059082031	0.020446777	0.999962807	0.005805969	-0.002985954	0.005569458	11.01989746	1.477050781	0.511169434	0.290302025	-0.149299547	0.278476318	-0.791259766	-0.659667969	-0.359375	891.78	28.21670147	-79.01398175	47.83886802	-65
10278	0	0.467834473	0.05215168	0.081049919	0.999949455	0.005897522	0.005001068	0.006403923	11.69586182	1.303792	2.026247978	0.294881053	0.250057607	0.320201531	-0.803222656	-0.650390625	-0.365234375	891.68	24.28723784	-78.81891448	52.53259153	-65
10279	0	0.558166504	0.074279785	0.164611816	0.999793053	0.013694763	-0.003302574	0.014621735	13.9541626	1.856994629	4.11529541	0.684785215	-0.165140056	0.731136972	-0.805419922	-0.645996094	-0.388427734	891.66	18.37668948	-79.77455267	60.14400452	-66
10280	0	0.336427689	0.058472633	0.161943436	0.999781609	0.003954887	-0.009578705	0.018115044	8.410692215	1.461815834	4.048585892	0.197758727	-0.478970015	0.905817945	-0.832519531	-0.631835938	-0.367919922	891.74	8.277240654	-81.31487617	70.84146107	-73
10281	0	0.401062012	0.036010742	0.12677002	0.999930382	-0.001060486	0.008816719	0.00774765	10.02655029	0.900268555	3.169250488	-0.053025519	0.440846158	0.387391475	-0.851806641	-0.615966797	-0.374023438	891.78	2.189091203	-80.37369754	76.88734394	-77
10282	0	0.43699646	0.033352852	0.1028862	0.99998951	0.004489899	-0.000276566	-0.000224113	10.9249115	0.833821297	2.572154999	0.224495693	-0.013828324	-0.011205711	-0.853515625	-0.624755859	-0.393310547	891.66	2.965768896	-80.38888149	76.62322514	-86
10283	0	0.327148438	0.072265625	0.084716797	0.999975204	0.000554085	-0.005626678	-0.004070282	8.178710938	1.806640625	2.117919922	0.027704463	-0.281336199	-0.203515745	-0.857177734	-0.648925781	-0.391113281	891.68	6.305630786	-80.97665164	73.30586132	-79
10284	0	0.293941498	0.084245682	0.058062553	0.999929428	-0.006246567	-0.002800941	-0.009631157	7.348537445	2.106142044	1.451563835	-0.312335607	-0.140050333	-0.481569053	-0.856201172	-0.673095703	-0.383300781	891.74	12.97517173	-81.08833887	65.83360354	-84
10285	0	0.311828613	0.036804199	0.057006836	0.999886513	-0.01027298	0.000817299	-0.010948181	7.795715332	0.92010498	1.425170898	-0.513668342	0.040866484	-0.547429685	-0.847900391	-0.701904297	-0.390136719	891.72	19.26055353	-80.6259131	58.27979512	-72
10286	0	0.338788033	0.017910004	0.039548874	0.999928474	-0.009283066	0.002946854	-0.006853104	8.469700813	0.447750092	0.988721848	-0.464164262	0.147346165	-0.342663282	-0.834960938	-0.726806641	-0.403076172	891.58	21.91871927	-80.0096651	54.50849329	-69
10287	0	0.347351074	0.056335449	0.025878906	0.999913216	-0.011943817	0.002148628	-0.005062103	8.683776855	1.40838623	0.646972656	-0.597208067	0.107434508	-0.253112458	-0.831542969	-0.742431641	-0.422119141	891.68	23.10589986	-79.53696673	51.91585348	-66
10288	0	0.339866638	0.06582737	0.001283646	0.999838829	-0.016451836	-0.004867554	-0.005111694	8.496665955	1.645684242	0.032091141	-0.822635726	-0.243390687	-0.255598371	-0.826171875	-0.749267578	-0.441894531	891.68	25.52325452	-79.7827487	47.54649957	-64
10289	0	0.396606445	0.051025391	0.02166748	0.999836922	-0.017608643	-0.003096581	-0.002296448	9.915161133	1.275634766	0.541687012	-0.880479815	-0.154837411	-0.114828607	-0.825683594	-0.751708984	-0.458984375	891.74	25.81777099	-79.96828189	45.20218977	-63
10290	0	0.463683128	0.03149128	0.031909943	0.999951363	-0.009262085	-0.000734329	-0.003083229	11.59207821	0.78728199	0.797748566	-0.463111645	-0.036717048	-0.154163916	-0.827636719	-0.751708984	-0.481689453	891.68	26.86993412	-79.8685927	43.05921353	-64
10291	0	0.447570801	-0.02734375	0.053527832	0.999984741	-6.01E-05	-0.001434326	-0.005290985	11.18927002	-0.68359375	1.338195801	-0.003004089	-0.071716668	-0.264550581	-0.822265625	-0.765136719	-0.492431641	891.74	30.3538609	-79.70620325	39.51476771	-66
10292	0	0.55046463	0.021183014	0.169137955	0.999938011	0.000638008	0.00044632	-0.011106491	13.76161575	0.529575348	4.228448868	0.031901065	0.02231644	-0.555336028	-0.806884766	-0.787841797	-0.511474609	891.74	35.99728349	-78.94581066	33.84769474	-65
10293	0	0.385375977	0.01385498	0.114440918	0.999673843	0.006573677	-0.014698029	-0.019802094	9.634399414	0.346374512	2.861022949	0.328719546	-0.734981234	-0.990212194	-0.791015625	-0.827880859	-0.503173828	891.74	50.93825852	-78.58168836	19.38512033	-64
10294	0	0.335694313	0.091517448	0.118177414	0.9998312	0.001432419	0.009914398	-0.01537323	8.392357826	2.287936211	2.954435349	0.071624961	0.495747731	-0.768704638	-0.767822266	-0.881591797	-0.494384766	891.8	52.04145529	-76.4687316	18.42502534	-65
10295	0	0.447021484	0.138000488	0.106018066	0.999896049	-0.008975983	0.004376411	-0.010387421	11.17553711	3.450012207	2.65045166	-0.448814665	0.218828145	-0.519389006	-0.725585938	-0.920654297	-0.527832031	891.68	52.33207273	-75.19083024	17.06528712	-65
10296	0	0.3565588	0.063606262	0.082281113	0.999950409	-0.008420944	-0.005179405	-0.001000404	8.913969994	1.590156555	2.057027817	-0.42105414	-0.258974523	-0.050021041	-0.705078125	-0.947998047	-0.558349609	891.64	53.42597713	-75.42811538	14.93623954	-66
10297	0	0.324768066	-0.05078125	0.069274902	0.999946594	-0.004630089	-0.004962921	0.007781982	8.11920166	-1.26953125	1.731872559	-0.231508555	-0.248150467	0.389106036	-0.711425781	-0.956542969	-0.571533203	891.66	52.53300612	-76.45834216	15.30811314	-65
10298	0	0.329165459	-0.021426201	0.058511734	0.999967575	0.00197506	-0.002301216	0.007433891	8.229136467	-0.535655022	1.46279335	0.098754036	-0.115062042	0.371698558	-0.734375	-0.968994141	-0.580810547	891.68	51.35330061	-77.27120286	16.7494191	-66
10299	0	0.340087891	0.031860352	0.041442871	0.999960899	0.003219604	0.004628181	0.00667572	8.502197266	0.796508789	1.036071777	0.160982273	0.231412018	0.333790258	-0.744873047	-0.992919922	-0.586914063	891.68	47.65649696	-77.48945207	20.91433863	-67
10300	0	0.35874176	0.020334244	0.01696682	0.999895096	0.006597519	0.007603645	0.010367393	8.968544006	0.508356094	0.424170494	0.329887428	0.380195499	0.518387718	-0.752929688	-1.019287109	-0.598632813	891.74	41.75024206	-77.68937452	27.73463428	-70
10301	0	0.324951172	-0.005371094	0.018554688	0.999850273	0.013473511	0.004799843	0.009727478	8.123779297	-0.134277344	0.463867188	0.673709135	0.240004111	0.486398158	-0.765625	-1.049560547	-0.606689453	891.7	37.65568391	-77.96454372	33.50059486	-78
10302	0	0.34194088	0.034687042	0.024357796	0.999836922	0.01700592	0.002368927	0.005472183	8.548521996	0.867176056	0.608944893	0.850342051	0.118452762	0.273623973	-0.780273438	-1.104003906	-0.590087891	891.74	36.4468787	-78.11307953	36.72722774	-77
10303	0	0.430908203	0.069641113	0.045471191	0.999944687	0.008187294	-0.001571655	0.006412506	10.77270508	1.741027832	1.136779785	0.409372248	-0.078584213	0.320631217	-0.792236328	-1.167236328	-0.558349609	891.74	34.98007866	-78.67625197	39.18449074	-82
10304	0	0.415682793	0.06942749	-0.013291359	0.999931335	-0.003845215	-0.008177757	0.007431984	10.39206982	1.735687256	-0.332283974	-0.192265129	-0.408897193	0.371607676	-0.818603516	-1.221191406	-0.53515625	891.74	33.62112538	-79.92140493	40.12387155	-74
10305	0	0.521240234	0.007324219	0.147521973	0.99990654	0.007718086	0.009208679	0.006462097	13.03100586	0.183105469	3.688049316	0.385916284	0.460448244	0.323114882	-0.844970703	-1.268554688	-0.521240234	891.64	28.04838076	-79.38308901	46.69160186	-72
10306	0	0.508507729	0.127043724	0.179019928	0.999763489	0.005648613	-0.012156487	0.017082214	12.71269321	3.176093102	4.475498199	0.282452847	-0.607872099	0.854177849	-0.874023438	-1.324462891	-0.472167969	891.74	21.64490957	-81.4561853	53.8461766	-72
10307	0	0.332885742	0.098815918	0.159729004	0.99984169	-0.009062767	0.000392914	0.015304565	8.322143555	2.470397949	3.993225098	-0.453162259	0.019646727	0.765268645	-0.947509766	-1.341308594	-0.409179688	891.68	9.02411208	-81.85460655	65.5647372	-71
10308	0	0.46569252	-0.01150322	0.107298851	0.999965668	-0.006660461	0.003445625	0.003264427	11.642313	-0.28758049	2.682471275	-0.333026784	0.172283186	0.163223179	-0.992431641	-1.337402344	-0.404296875	891.74	5.446927214	-81.48552342	68.41940963	-74
10309	0	0.403991699	0.014038086	0.096252441	0.999976158	0.002056122	-0.006098747	-0.002490997	10.09979248	0.350952148	2.406311035	0.102806907	-0.304939783	-0.124550854	-1.015625	-1.360595703	-0.366699219	891.68	8.293718998	-82.11959716	65.79002236	-80
10310	0	0.305464745	0.081261635	0.064548492	0.999973297	-0.001357079	-0.005164146	-0.004937172	7.636618614	2.031540871	1.613712311	-0.067854526	-0.258209597	-0.246860773	-1.027587891	-1.381835938	-0.309814453	891.7	13.17929724	-82.56830871	60.71488171	-73
10311	0	0.295654297	0.044921875	0.037841797	0.999938965	-0.007300377	0.001255035	-0.008113861	7.391357422	1.123046875	0.946044922	-0.365026188	0.062753033	-0.405701216	-1.025390625	-1.396972656	-0.265625	891.74	18.78910861	-82.14477433	54.2245448	-71
10312	0	0.332479477	0.013931274	0.038905144	0.999934196	-0.00685215	0.005399704	-0.00742054	8.311986923	0.34828186	0.972628593	-0.342614989	0.269991102	-0.371035105	-1.008544922	-1.410644531	-0.250976563	891.74	22.03785208	-81.23935845	50.15969325	-68
10313	0	0.325683594	0.028442383	0.034362793	0.999960899	-0.006225586	0.004239082	-0.004619598	8.142089844	0.71105957	0.859069824	-0.311283347	0.211956875	-0.230982925	-0.994384766	-1.413085938	-0.240234375	891.74	23.25177458	-80.55958769	48.21765914	-67
10314	0	0.316457748	0.062015533	0.015891075	0.999915123	-0.012622833	-0.001550674	-0.002551079	7.91144371	1.550388336	0.397276878	-0.631159362	-0.077535896	-0.127557517	-0.988037109	-1.406738281	-0.226806641	891.74	23.90192096	-80.57922015	46.10265924	-68
10315	0	0.344787598	0.03729248	-0.007080078	0.999832153	-0.017558098	-0.004817963	-0.001869202	8.619689941	0.932312012	-0.177001953	-0.877953915	-0.240911584	-0.093465302	-0.984130859	-1.386962891	-0.225585938	891.68	24.5518542	-80.97171479	43.41546476	-68
10316	0	0.439138412	0.03092289	0.028399467	0.999865532	-0.016076088	0.002103806	-0.002102852	10.97846031	0.773072243	0.709986687	-0.80384021	0.105194964	-0.105147278	-0.977783203	-1.365234375	-0.239257813	891.74	23.52835382	-80.632358	42.5945929	-72
10317	0	0.471740723	-0.010375977	0.021606445	0.999986649	-0.001326561	0.001499176	-0.004753113	11.79351807	-0.259399414	0.540161133	-0.066328343	0.074959134	-0.237656693	-0.964355469	-1.339355469	-0.250732422	891.74	25.93931343	-80.23108929	39.99886273	-75
10318	0	0.485991478	0.007541656	0.095953941	0.999983788	-0.002016068	0.001701355	-0.00496006	12.14978695	0.188541412	2.398848534	-0.100803905	0.085068197	-0.248004311	-0.949462891	-1.322021484	-0.215820313	891.8	28.1150814	-79.78151529	37.56092886	-79
10319	0	0.537414551	0.065246582	0.162231445	0.999895096	-0.001029015	-0.006748199	-0.012763977	13.43536377	1.631164551	4.055786133	-0.051452526	-0.337421756	-0.63822114	-0.928955078	-1.302978516	-0.212646484	891.78	37.0997565	-79.62234598	28.31164232	-70
10320	0	0.339179993	0.020730019	0.115519524	0.999726295	-0.001894951	-0.013034821	-0.019305229	8.479499817	0.518250465	2.887988091	-0.09475617	-0.651800371	-0.96534935	-0.892089844	-1.301757813	-0.171875	891.74	50.914024	-79.13242563	14.03999553	-68
10321	0	0.351806641	0.069702148	0.123291016	0.999760628	-0.005672455	0.012440681	-0.017055511	8.795166016	1.742553711	3.082275391	-0.283645334	0.622083622	-0.852843503	-0.844970703	-1.305419922	-0.162597656	891.7	50.81304429	-76.69064956	13.4822327	-69
10322	0	0.447076797	0.102198601	0.108956337	0.999921799	-0.005490303	0.004670143	-0.010131836	11.17691994	2.554965019	2.723908424	-0.274522226	0.233513174	-0.506604852	-0.795166016	-1.305175781	-0.194091797	891.74	51.39687038	-75.42346339	12.23098208	-67
10323	0	0.341003418	0.027832031	0.08984375	0.999980927	-0.002886772	-0.004581451	0.002883911	8.525085449	0.695800781	2.24609375	-0.144339513	-0.229074008	0.144196461	-0.777099609	-1.283935547	-0.202392578	891.68	51.81881182	-75.98249581	11.44995513	-69
10324	0	0.326814651	-0.07365799	0.060856819	0.99992466	0.003788948	-0.004499435	0.010707855	8.170366287	-1.841449738	1.521420479	0.189452116	-0.224977368	0.535406081	-0.792724609	-1.250244141	-0.195800781	891.7	50.63268709	-77.24203739	13.10951107	-67
10325	0	0.321716309	-0.025512695	0.063354492	0.999842644	0.014396667	-0.000742912	0.010303497	8.042907715	-0.637817383	1.583862305	0.719871048	-0.037147559	0.515201828	-0.818359375	-1.211669922	-0.166015625	891.68	48.98355774	-78.18144077	16.47967614	-69
10326	0	0.351648331	0.06645298	0.037453651	0.999849319	0.014292717	0.00291729	0.009318352	8.791208267	1.661324501	0.936341286	0.714671541	0.145871772	0.465940857	-0.839355469	-1.177734375	-0.127441406	891.8	45.78574027	-78.72221718	21.41182871	-70
10327	0	0.351989746	0.069458008	-0.004272461	0.999864578	0.012555122	0.004566193	0.009555817	8.799743652	1.736450195	-0.106811523	0.62778435	0.228319899	0.477812319	-0.852783203	-1.150634766	-0.103271484	891.74	41.26933927	-79.07827387	27.47824568	-69
10328	0	0.326981544	0.022350311	-0.007302284	0.999873161	0.013501167	0.004686356	0.007000923	8.174538612	0.558757782	-0.182557106	0.675086862	0.234327671	0.350060935	-0.866210938	-1.119384766	-0.087890625	891.64	37.76574025	-79.15740565	32.61913452	-71
10329	0	0.342163086	0.037414551	0.012329102	0.999876022	0.013478279	0.007022858	0.003993988	8.554077148	0.93536377	0.308227539	0.673941694	0.351157337	0.199707622	-0.865234375	-1.090576172	-0.067382813	891.78	34.93792399	-78.76433674	37.07258065	-66
10330	0	0.423600197	0.072840691	0.051506042	0.99993515	0.009421349	0.004715919	0.004183769	10.59000492	1.821017265	1.287651062	0.471077518	0.235801025	0.209192942	-0.861572266	-1.070800781	-0.057617188	891.78	32.51086316	-78.5647845	40.64796328	-67
10331	0	0.428955078	0.046691895	0.021972656	0.999976158	-0.001953125	-0.005087852	0.004150391	10.72387695	1.167297363	0.549316406	-0.097657014	-0.254394614	0.207521154	-0.857666016	-1.051269531	-0.0625	891.7	31.80665013	-79.29784892	41.13624469	-69
10332	0	0.469902992	0.004166603	0.05786705	0.999973297	0.004293442	0.004912376	0.003119469	11.74757481	0.104165077	1.446676254	0.21467396	0.245620961	0.155974794	-0.856201172	-1.031494141	-0.064208984	891.7	29.18975668	-78.98264126	44.30079694	-69
10333	0	0.572937012	0.06036377	0.154296875	0.999790192	0.015835762	-0.00188446	0.012813568	14.32342529	1.509094238	3.857421875	0.79184334	-0.094229596	0.640723103	-0.854248047	-1.016357422	-0.071289063	891.78	24.50494401	-79.82522099	50.9084042	-67
10334	0	0.359737396	0.13449955	0.170296669	0.999774933	0.00416851	-0.006260872	0.019820213	8.993434906	3.362488747	4.257416725	0.208441137	-0.313067047	0.99108491	-0.884521484	-0.979736328	-0.041015625	891.68	13.51452103	-81.2280828	62.53297156	-66
10335	0	0.389160156	0.031921387	0.14630127	0.999911308	-0.00328064	0.008831978	0.009346008	9.729003906	0.798034668	3.657531738	-0.164036798	0.441611855	0.467314133	-0.921386719	-0.941162109	-0.05078125	891.78	5.616878377	-80.38005496	70.15445892	-64
10336	0	0.434387207	-0.000366211	0.098937988	0.999985695	0.005131721	-0.000610352	0.000305176	10.85968018	-0.009155273	2.473449707	0.256587221	-0.030517714	0.015258857	-0.93359375	-0.923339844	-0.074462891	891.74	6.092930173	-80.42684233	70.26690736	-64
10337	0	0.325866699	0.07208252	0.086486816	0.999960899	0.001857758	-0.007704735	-0.003833771	8.14666748	1.802062988	2.16217041	0.092889078	-0.385241717	-0.191691014	-0.938476563	-0.920898438	-0.062988281	891.78	9.825556881	-81.21252283	66.70200554	-64
10338	0	0.271752357	0.103779793	0.050361633	0.999912262	-0.007653236	-0.006447792	-0.00865078	6.793808937	2.59449482	1.259040833	-0.38267298	-0.322399005	-0.432551602	-0.933837891	-0.925537109	-0.057128906	891.7	16.58269848	-81.67622697	58.98486478	-65
10339	0	0.317077637	0.045166016	0.035339355	0.999858856	-0.013251305	0.001083374	-0.010204315	7.926940918	1.129150391	0.883483887	-0.662596254	0.054171237	-0.510239649	-0.921386719	-0.934814453	-0.07421875	891.68	22.17339615	-81.13909719	51.79841787	-66
10340	0	0.355461121	0.015623093	0.028075218	0.999907494	-0.012408257	0.003143311	-0.004422188	8.886528015	0.390577316	0.701880455	-0.620431792	0.157170332	-0.221116149	-0.908447266	-0.944335938	-0.1171875	891.74	22.86193553	-80.58261578	49.66182103	-67
10341	0	0.34777832	0.032653809	0.018493652	0.999885559	-0.015025139	-0.001171112	-0.00120163	8.694458008	0.816345215	0.462341309	-0.751285565	-0.058557834	-0.060083771	-0.905517578	-0.940185547	-0.149169922	891.7	22.27965464	-80.62626674	48.5078331	-70
10342	0	0.337943077	0.026702881	-0.002444267	0.999875069	-0.014520645	-0.005344391	-0.002989769	8.448576927	0.667572021	-0.061106682	-0.726062312	-0.267230605	-0.149494637	-0.907958984	-0.931640625	-0.17578125	891.68	24.1252669	-81.03002017	44.95361607	-69
10343	0	0.394042969	0.014587402	0.018920898	0.999886513	-0.01480484	9.63E-05	-0.002593994	9.851074219	0.364685059	0.473022461	-0.74026988	0.004816237	-0.129704591	-0.909912109	-0.929443359	-0.198730469	891.74	24.16478081	-80.87644715	43.19754963	-68
10344	0	0.466480255	0.024644852	0.043403625	0.999957085	-0.007903099	0.003599167	-0.003110886	11.66200638	0.616121292	1.085090637	-0.395160557	0.179960896	-0.155546487	-0.907226563	-0.918945313	-0.234130859	891.7	24.25930265	-80.3339766	42.18441002	-67
10345	0	0.460571289	0.000183105	0.030822754	0.99998188	0.003089905	-0.002131462	-0.004520416	11.51428223	0.004577637	0.770568848	0.154496128	-0.106573718	-0.226022114	-0.904785156	-0.918945313	-0.248535156	891.64	28.01865688	-80.30785018	38.72928146	-66
10346	0	0.516055107	0.037583351	0.130578995	0.999960899	-0.003171921	0.0007267	-0.00812912	12.90137768	0.939583778	3.264474869	-0.158598066	0.036335456	-0.406461188	-0.899902344	-0.921386719	-0.248535156	891.68	32.0359931	-79.74941337	34.28206646	-64
10347	0	0.445861816	0.055358887	0.13067627	0.999756813	-6.87E-05	-0.014246941	-0.016799927	11.14654541	1.383972168	3.266906738	-0.003433505	-0.71240465	-0.840064283	-0.885498047	-0.930664063	-0.248779297	891.74	46.04553569	-79.78207936	20.03831552	-66
10348	0	0.319830894	0.04297924	0.121476173	0.999849319	-0.005315781	0.000100136	-0.016521454	7.995772362	1.07448101	3.036904335	-0.265802378	0.005007042	-0.826114171	-0.865722656	-0.955322266	-0.233398438	891.78	51.78998688	-78.31988333	13.56792112	-62
10349	0	0.397460938	0.083740234	0.108764648	0.999800682	-0.007923126	0.011532784	-0.014198303	9.936523438	2.093505859	2.719116211	-0.396182553	0.576677372	-0.709962186	-0.836425781	-0.969726563	-0.256835938	891.7	50.77768739	-76.19659815	13.67449332	-64
10350	0	0.395108223	0.085166931	0.103578568	0.99998188	-0.00535202	-0.001092911	-0.002169609	9.877705574	2.129173279	2.589464188	-0.267602554	-0.054645853	-0.108481078	-0.812255859	-0.977539063	-0.283203125	891.68	51.14627545	-76.05404553	12.65991104	-60
10351	0	0.337219238	-0.034667969	0.064331055	0.999951363	-0.003101349	-0.005476952	0.007545471	8.430480957	-0.866699219	1.608276367	-0.155069939	-0.273851987	0.377279631	-0.814941406	-0.964111328	-0.289794922	891.84	50.47632731	-77.09697283	12.97887166	-65
10352	0	0.33141613	-0.060751915	0.060826302	0.999926567	0.006678581	-0.002206802	0.009810448	8.285403252	-1.518797874	1.520657539	0.333937172	-0.110342798	0.490534298	-0.834960938	-0.937011719	-0.285400391	891.78	48.71692964	-78.09795826	15.55812855	-61
10353	0	0.347290039	0.022705078	0.049194336	0.999898911	0.0120821	0.001499176	0.00725174	8.682250977	0.567626953	1.229858398	0.604125216	0.07496131	0.362599112	-0.854980469	-0.923095703	-0.262451172	891.68	46.68456513	-78.57848276	19.04293009	-63
10354	0	0.358811378	0.071142197	0.014188766	0.999908447	0.010666847	0.00348568	0.007543564	8.970284462	1.778554916	0.354719162	0.533358615	0.174289293	0.377189687	-0.869873047	-0.911376953	-0.242431641	891.64	43.34578135	-78.88871521	23.69136662	-61
10355	0	0.325012207	0.036804199	0.010070801	0.99990654	0.011006355	0.002105713	0.007797241	8.125305176	0.92010498	0.25177002	0.55033486	0.105288915	0.389874171	-0.880126953	-0.895507813	-0.231689453	891.64	40.25578737	-79.28652852	28.12027533	-61
10356	0	0.319329262	0.007154465	0.008336067	0.999893188	0.013328552	0.00347805	0.004831314	7.983231544	0.178861618	0.20840168	0.666451283	0.173908688	0.241574284	-0.892822266	-0.884033203	-0.211914063	891.62	38.12487496	-79.31145572	31.84156071	-64
10357	0	0.38873291	0.043579102	0.024291992	0.99988842	0.013969421	0.003659248	0.003585815	9.718322754	1.089477539	0.607299805	0.698496845	0.182969169	0.179297388	-0.895751953	-0.877197266	-0.195068359	891.8	36.61914615	-79.21264385	35.00198465	-60
10358	0	0.442528725	0.05014801	0.039404869	0.999957085	0.007234573	-0.001291275	0.005637169	11.06321812	1.253700256	0.985121727	0.36173384	-0.064564674	0.281862474	-0.898925781	-0.865966797	-0.178710938	891.68	35.06785612	-79.697037	37.4221681	-66
10359	0	0.41595459	0.041137695	-0.007629395	0.99995327	-6.87E-05	-0.007510185	0.00598526	10.39886475	1.028442383	-0.190734863	-0.00343328	-0.375515035	0.299267601	-0.909423828	-0.845703125	-0.156982422	891.68	34.62732273	-80.78455771	37.86129944	-63
10360	0	0.506094933	0.006083488	0.081824303	0.999895096	0.012376785	0.00534153	0.005209923	12.65237331	0.152087212	2.045607567	0.618860808	0.26708579	0.260505208	-0.915283203	-0.825439453	-0.146728516	891.74	30.93361865	-80.58271097	43.04103683	-66
10361	0	0.497192383	0.125854492	0.163452148	0.999790192	0.007985115	-0.00756073	0.01725769	12.42980957	3.146362305	4.086303711	0.399283623	-0.378062888	0.862944756	-0.926025391	-0.80078125	-0.133789063	891.64	22.73477629	-82.236444	52.25597454	-64
10362	0	0.335086823	0.071659088	0.154275894	0.9998703	-0.002371788	-0.000123024	0.015896797	8.377170563	1.791477203	3.856897354	-0.118594508	-0.006151464	0.794874087	-0.954345703	-0.749023438	-0.113525391	891.8	9.212326355	-82.73067209	65.62221779	-69
10363	0	0.452880859	0.00177002	0.094177246	0.999956131	0.001217842	0.006801605	0.006183624	11.32202148	0.044250488	2.354431152	0.060892978	0.340085135	0.309185644	-0.967529297	-0.70703125	-0.136474609	891.62	3.497238374	-82.00890107	71.52942946	-69
10364	0	0.414992332	0.030913353	0.094863892	0.999984741	0.004665375	-0.002827644	0.000240326	10.37480831	0.772833824	2.37159729	0.233269897	-0.14138292	0.012016356	-0.968505859	-0.682861328	-0.141357422	891.7	4.054394411	-82.30816871	71.50611692	-67
10365	0	0.331054688	0.086486816	0.070373535	0.999982834	-0.000739098	-0.003814697	-0.00421524	8.276367188	2.16217041	1.759338379	-0.036955082	-0.190735908	-0.210763178	-0.966552734	-0.674072266	-0.133544922	891.68	8.059319671	-82.66461965	67.38224665	-66
10366	0	0.317430496	0.055872917	0.057473183	0.999938011	-0.006053925	0.002653122	-0.008883476	7.935762405	1.396822929	1.436829567	-0.302702414	0.132658808	-0.44418289	-0.952392578	-0.672363281	-0.148681641	891.7	14.50170864	-82.13691089	60.18438685	-68
10367	0	0.34564209	0.026489258	0.051452637	0.999927521	-0.006468773	0.006000519	-0.008167267	8.641052246	0.662231445	1.286315918	-0.323446437	0.300033169	-0.408373181	-0.937255859	-0.681884766	-0.174560547	891.74	18.61296518	-81.17997336	55.28106754	-67
10368	0	0.349842072	0.031476021	0.040222168	0.999958992	-0.006743431	0.00396347	-0.004487038	8.746051788	0.78690052	1.005554199	-0.337176124	0.198176209	-0.224354924	-0.920166016	-0.682861328	-0.215576172	891.7	19.98259136	-80.55158461	53.11026197	-66
10369	0	0.325134277	0.063110352	0.027832031	0.999920845	-0.010894775	-0.005038261	-0.003677368	8.128356934	1.577758789	0.695800781	-0.544753079	-0.251919688	-0.183873238	-0.907958984	-0.683349609	-0.233398438	891.7	22.48740171	-80.90823324	49.30710117	-65
10370	0	0.331205368	0.041936874	0.001088142	0.999837875	-0.015511513	-0.008591652	-0.002859116	8.280134201	1.04842186	0.02720356	-0.775617344	-0.429605696	-0.142963467	-0.903076172	-0.681396484	-0.250976563	891.76	25.33509565	-81.64907716	44.62796506	-64
10371	0	0.410339355	0.024902344	0.015563965	0.999856949	-0.016810417	-0.000545502	-0.001487732	10.25848389	0.622558594	0.389099121	-0.840560803	-0.027276382	-0.074390132	-0.898193359	-0.675292969	-0.274902344	891.7	24.70849052	-81.60884115	43.31518831	-63
10372	0	0.44240284	0.029078484	0.042243958	0.999968529	-0.00722599	0.000875473	-0.003087044	11.06007099	0.72696209	1.056098938	-0.361303279	0.043774107	-0.154353796	-0.893066406	-0.668945313	-0.310058594	891.68	25.79783005	-81.34359415	41.37610648	-65
10373	0	0.409606934	0.005493164	0.049072266	0.999993324	-0.001655579	-0.000948906	-0.003070831	10.24017334	0.137329102	1.226806641	-0.082779111	-0.047445401	-0.153541899	-0.885498047	-0.671630859	-0.327392578	891.64	28.03552725	-81.25874806	38.9200257	-72
10374	0	0.51516819	0.015680313	0.127120018	0.999946594	-0.005576134	0.001839638	-0.008460999	12.87920475	0.392007828	3.17800045	-0.278811615	0.091983514	-0.423057406	-0.875732422	-0.674316406	-0.344970703	891.62	32.01343892	-80.56592677	34.24406709	-65
10375	0	0.447692871	-0.001831055	0.116088867	0.99973774	0.003967285	-0.013895988	-0.017711639	11.19232178	-0.045776367	2.90222168	0.198381537	-0.694859948	-0.885659114	-0.855957031	-0.694824219	-0.355712891	891.64	47.92280989	-80.45635176	18.57354728	-63
10376	0	0.321789742	0.042693138	0.112677574	0.999901772	0.001013756	-0.002454758	-0.013731956	8.044743538	1.067328453	2.816939354	0.050689443	-0.122741887	-0.686620211	-0.843017578	-0.726074219	-0.342529297	891.64	54.74150254	-79.37524971	11.76409377	-61
10377	0	0.381958008	0.119567871	0.106140137	0.999861717	-0.007312775	0.008419991	-0.012329102	9.548950195	2.989196777	2.653503418	-0.365655578	0.421018922	-0.616483478	-0.820556641	-0.750976563	-0.358886719	891.7	54.02466582	-77.63486202	11.63905282	-62
10378	0	0.404081345	0.099513054	0.098562241	0.999936104	-0.009347916	0.001626968	-0.006057739	10.10203362	2.487826347	2.464056015	-0.467405655	0.081350137	-0.302893361	-0.798095703	-0.765380859	-0.396240234	891.64	54.02640508	-76.93167744	10.53545236	-63
10379	0	0.374206543	-0.012573242	0.064147949	0.999966621	-0.007133484	-0.003428459	0.001674652	9.355163574	-0.314331055	1.60369873	-0.356678085	-0.171424828	0.083733518	-0.790283203	-0.770263672	-0.424804688	891.68	54.02685248	-77.29010302	9.690919367	-64
10380	0	0.358638763	-0.050697327	0.066596031	0.999978065	0.001040459	-0.002973557	0.005750656	8.965969086	-1.267433167	1.66490078	0.052023307	-0.148678891	0.287534867	-0.797363281	-0.765625	-0.43359375	891.64	53.52128182	-78.00048088	10.32410885	-62
10381	0	0.362548828	0.024841309	0.053588867	0.999972343	0.004310608	-0.000117302	0.006027222	9.063720703	0.621032715	1.33972168	0.215532368	-0.005865151	0.301363843	-0.809326172	-0.760986328	-0.438964844	891.62	51.94323606	-78.53696238	12.43417112	-62
10382	0	0.368382454	0.061142921	0.024208069	0.99996376	0.004649162	0.000880241	0.007033348	9.209561348	1.528573036	0.605201721	0.232460899	0.044012597	0.351671616	-0.818359375	-0.762939453	-0.449707031	891.74	49.39901611	-79.07527618	15.56542738	-64
10383	0	0.337646484	0.012451172	0.014038086	0.99994278	0.007740974	-0.002346039	0.006961823	8.441162109	0.311279297	0.350952148	0.387056069	-0.117304168	0.348097733	-0.832763672	-0.760009766	-0.446289063	891.76	48.45876501	-79.83409241	17.41930325	-62
10384	0	0.335043907	0.005466461	0.006975174	0.999908447	0.012735367	-0.001105309	0.004285812	8.376097679	0.13666153	0.174379349	0.636787635	-0.055267101	0.214297112	-0.846435547	-0.768554688	-0.444824219	891.74	48.50125006	-80.26899807	18.85291788	-61
10385	0	0.37902832	0.05065918	0.022644043	0.999912262	0.012509346	-0.001018524	0.00415802	9.475708008	1.266479492	0.566101074	0.625485525	-0.050927692	0.207907059	-0.852783203	-0.787841797	-0.434326172	891.7	48.47749301	-80.68676812	20.32705806	-63
10386	0	0.383836746	0.037020683	0.047522545	0.999957085	0.007305145	-0.001440048	0.005454063	9.595918655	0.925517082	1.188063622	0.365262449	-0.072003433	0.272707043	-0.864257813	-0.802978516	-0.423828125	891.74	47.35082553	-81.2447489	22.31329345	-63
10387	0	0.363342285	0.001342773	0.012878418	0.999990463	0.001637459	-0.001598358	0.003681183	9.083557129	0.033569336	0.321960449	0.081873196	-0.079918158	0.184059719	-0.880371094	-0.813232422	-0.419189453	891.7	46.40691394	-81.66366592	23.4561128	-62
10388	0	0.485641479	0.004123688	0.057693481	0.999854088	0.014088631	0.009475708	0.001819611	12.14103699	0.103092194	1.442337036	0.704465772	0.473808429	0.090984952	-0.886230469	-0.833007813	-0.428710938	891.68	41.96055858	-81.0158345	29.58380411	-63
10389	0	0.54699707	0.119262695	0.114868164	0.999849319	0.012555122	-0.005355835	0.010688782	13.67492676	2.981567383	2.871704102	0.62778757	-0.267805165	0.534465863	-0.887695313	-0.859375	-0.420898438	891.62	39.72998746	-82.26268853	33.28932044	-63
10390	0	0.378212929	0.084604263	0.11138916	0.999885559	0.00067234	-0.010251045	0.011064529	9.455323219	2.115106583	2.784729004	0.033618297	-0.512571737	0.553247492	-0.92578125	-0.860107422	-0.395751953	891.74	37.58067421	-83.94787321	35.53124731	-61
10391	0	0.359436035	0.036010742	0.08190918	0.999988556	0.001091957	0.003566742	0.002677917	8.985900879	0.900268555	2.047729492	0.054598046	0.178337724	0.133896345	-0.949707031	-0.859130859	-0.383056641	891.8	33.07237613	-83.76418213	40.19303734	-63
10392	0	0.416693687	0.054889679	0.110822678	0.999966621	0.00502491	0.006004333	0.002040863	10.41734219	1.372241974	2.77056694	0.25124824	0.300219951	0.102044265	-0.955810547	-0.874267578	-0.390136719	891.8	28.68951311	-83.26101223	45.1842018	-63
10393	0	0.416748047	0.072265625	0.096801758	0.999993324	-0.00062561	0.002530098	0.002407074	10.41870117	1.806640625	2.420043945	-0.031280583	0.126505163	0.120353951	-0.962646484	-0.880615234	-0.392089844	891.7	25.41168746	-83.09212941	48.41450821	-63
10394	0	0.372390747	0.057497978	0.077701569	0.999990463	-0.00225544	0.000576973	-0.003564835	9.309768677	1.437449455	1.942539215	-0.112772329	0.028848735	-0.178242268	-0.964599609	-0.885009766	-0.397216797	891.7	27.83058514	-82.81184936	45.7174555	-66
10395	0	0.365356445	0.062988281	0.07611084	0.99997139	-0.000987053	0.004291534	-0.006088257	9.133911133	1.574707031	1.902770996	-0.04935311	0.21457874	-0.304415706	-0.961425781	-0.902832031	-0.404541016	891.64	30.45503755	-82.00256481	42.95677624	-61
10396	0	0.381807327	0.059202194	0.07346344	0.999974251	-0.000922203	0.006067276	-0.003500938	9.545183182	1.480054855	1.836585999	-0.046110537	0.303366324	-0.175048377	-0.948974609	-0.920898438	-0.409423828	891.7	30.28062686	-81.15892341	43.02834988	-62
10397	0	0.364074707	0.053466797	0.057373047	0.999995232	-0.001232147	0.001866341	-0.001792908	9.101867676	1.336669922	1.434326172	-0.061607445	0.09331716	-0.089645508	-0.94140625	-0.927734375	-0.41796875	891.7	30.55097705	-80.82935677	42.61231896	-65
10398	0	0.33833313	0.058451653	0.05523777	0.99998951	-0.003967285	-0.001754761	-0.00101757	8.458328247	1.461291313	1.380944252	-0.198364914	-0.087738327	-0.050878693	-0.938720703	-0.934570313	-0.423339844	891.74	31.34435698	-80.9004694	41.34886372	-63
10399	0	0.339233398	0.063842773	0.046203613	0.999973297	-0.005450249	-0.004764557	-0.000919342	8.480834961	1.596069336	1.155090332	-0.272514855	-0.238229959	-0.04596751	-0.940673828	-0.938964844	-0.42578125	891.76	33.13098571	-81.2648138	38.90888165	-61
10400	0	0.378168106	0.043534279	0.038251877	0.999974251	-0.00673008	-0.001245499	-0.001794815	9.454202652	1.088356972	0.956296921	-0.336506791	-0.062275453	-0.089741502	-0.940673828	-0.941162109	-0.422607422	891.76	33.97037243	-81.22991736	37.28202637	-63
10401	0	0.366577148	0.055847168	0.044372559	0.999985695	-0.005184174	-0.001093864	-0.000423431	9.164428711	1.396179199	1.109313965	-0.2592099	-0.05469348	-0.02117167	-0.937988281	-0.943359375	-0.431152344	891.78	34.0826447	-81.26683573	36.56899636	-64
10402	0	0.374954224	0.057581902	0.057394028	0.999968529	-0.007555008	-0.001073837	0.001699448	9.373855591	1.439547539	1.434850693	-0.377754245	-0.053692411	0.084973247	-0.935791016	-0.943603516	-0.431396484	891.76	32.58863647	-81.43655529	37.20782862	-62
10403	0	0.420593262	0.041259766	0.092163086	0.999970436	-0.007453918	-0.000357628	-0.00169754	10.51483154	1.031494141	2.304077148	-0.372699561	-0.017881568	-0.084877843	-0.937988281	-0.937011719	-0.446044922	891.7	32.95147675	-81.32455681	35.97834474	-60
10404	0	0.417524338	0.005254745	0.086386681	0.99995327	-0.003470421	-0.004886627	-0.007516861	10.43810844	0.131368637	2.159667015	-0.173523715	-0.244335124	-0.375848838	-0.926025391	-0.941894531	-0.446289063	891.68	39.20342592	-81.22920587	29.25044438	-60
10405	0	0.36541748	0.047790527	0.087280273	0.999972343	-0.000621796	-0.003294945	-0.006523132	9.135437012	1.194763184	2.182006836	-0.031090061	-0.164748715	-0.326159541	-0.916259766	-0.955322266	-0.437011719	891.76	44.23077813	-80.97232046	24.08959738	-58
10406	0	0.360951424	0.068194389	0.090719223	0.999979019	-0.004229546	-0.002234459	-0.004165649	9.023785591	1.704859734	2.267980576	-0.211478698	-0.111723695	-0.208283867	-0.906494141	-0.966552734	-0.430908203	891.84	46.87370137	-80.76848349	20.92300027	-60
10407	0	0.359008789	0.04284668	0.092590332	0.999957085	-0.008010864	0.000554085	-0.004440308	8.975219727	1.071166992	2.314758301	-0.400548834	0.027704628	-0.222018496	-0.896728516	-0.971191406	-0.436767578	891.78	47.64094112	-80.3089722	19.21581851	-63
10408	0	0.391472816	0.01188755	0.084896088	0.999948502	-0.005966187	0.004893303	-0.00656414	9.786820412	0.297188759	2.122402191	-0.298314429	0.244669331	-0.32821263	-0.882324219	-0.971923828	-0.448974609	891.8	47.36715126	-79.33420441	18.79906306	-63
10409	0	0.417785645	0.020751953	0.061523438	0.999985695	-0.001960754	0.002137184	-0.004489899	10.44464111	0.518798828	1.538085938	-0.098038187	0.106859716	-0.224496003	-0.860351563	-0.981689453	-0.472412109	891.74	47.88230925	-78.75001706	18.04054425	-63
10410	0	0.425316811	0.053766251	0.04322052	0.999999046	-0.000597	0.001216888	8.58E-06	10.63292027	1.344156265	1.080513	-0.029850015	0.06084444	0.000429154	-0.853271484	-0.984130859	-0.469726563	891.74	47.18793585	-78.61926518	18.67608092	-63
10411	0	0.437561035	0.047851563	0.048034668	0.999987602	-0.001384735	0.002953529	0.003536224	10.93902588	1.196289063	1.200866699	-0.069237022	0.147677038	0.1768119	-0.853515625	-0.981689453	-0.467041016	891.68	44.31768181	-78.63732683	21.44106033	-64
10412	0	0.390716553	0.029990196	0.075026512	0.999982834	-0.000745773	0.001955986	0.005325317	9.767913818	0.749754906	1.875662804	-0.037288869	0.097799835	0.266267322	-0.855957031	-0.972900391	-0.481933594	891.74	41.11788097	-78.85059762	24.61264474	-65
10413	0	0.359008789	0.007019043	0.08404541	0.999980927	-0.000349998	0.002059937	0.005760193	8.975219727	0.175476074	2.101135254	-0.017500033	0.102997471	0.288011446	-0.865722656	-0.963867188	-0.482177734	891.7	37.59764617	-79.05043075	28.1557414	-65
10414	0	0.368414879	0.021771431	0.065804482	0.999979973	0.003463745	0.002380371	0.004562378	9.210371971	0.544285774	1.645112038	0.173188367	0.119019318	0.228120359	-0.875488281	-0.952636719	-0.48828125	891.7	34.88057384	-79.10315675	31.32253931	-64
10415	0	0.388671875	0.039123535	0.057739258	0.999979019	0.005204201	0.001811981	0.003227234	9.716796875	0.978088379	1.443481445	0.260211806	0.090599676	0.161362791	-0.8828125	-0.952148438	-0.4765625	891.68	33.19963335	-79.10195501	33.63924055	-63
10416	0	0.376958847	0.056984901	0.067901611	0.999994278	0.002067566	0.001532555	0.001765251	9.423971176	1.424622536	1.697540283	0.103378464	0.076627856	0.088262701	-0.887451172	-0.954345703	-0.473144531	891.62	31.99539251	-79.02620852	35.10558238	-62
10417	0	0.372741699	0.065734863	0.077514648	0.999990463	-0.002604485	0.003204346	-0.000423431	9.31854248	1.643371582	1.937866211	-0.130224602	0.160217745	-0.021171631	-0.889892578	-0.951904297	-0.476074219	891.64	30.87867906	-78.64980943	35.93940289	-63
10418	0	0.412272453	0.067914963	0.071722984	0.999980927	-0.005896568	0.001513481	0.00069809	10.30681133	1.697874069	1.793074608	-0.29483026	0.075674531	0.034904698	-0.882568359	-0.952392578	-0.488037109	891.7	29.38494298	-78.50212711	36.77386979	-62
10419	0	0.381530762	0.026855469	0.06842041	0.999962807	-0.005851746	-0.005755424	0.002555847	9.538269043	0.671386719	1.710510254	-0.292590884	-0.287774769	0.127793932	-0.887451172	-0.943603516	-0.502685547	891.74	29.00369282	-79.18398994	36.47595245	-62
10420	0	0.350690842	-0.002402306	0.05533886	0.999979973	-0.002785683	-0.005220413	0.002094269	8.767271042	-0.06005764	1.383471489	-0.139285049	-0.261022374	0.104714128	-0.899658203	-0.934326172	-0.497070313	891.68	29.06253453	-79.78872234	36.089272	-62
10421	0	0.362731934	0.026306152	0.059448242	0.999995232	-0.000896454	-0.002390862	0.001571655	9.06829834	0.657653809	1.486206055	-0.04482276	-0.119543255	0.078582881	-0.906982422	-0.9296875	-0.494140625	891.84	28.76013047	-80.08162157	36.29035957	-62
10422	0	0.387602806	0.048595428	0.062321663	0.99998951	-0.002925873	-0.00330162	0.000961304	9.690070152	1.214885712	1.558041573	-0.146294137	-0.165081585	0.048065349	-0.914306641	-0.927001953	-0.491210938	891.64	28.87161187	-80.43238708	35.83628753	-62
10423	0	0.38885498	0.034851074	0.058105469	0.999992371	-0.002505302	-0.002822876	-0.000461578	9.721374512	0.871276855	1.452636719	-0.125265423	-0.141144139	-0.023078974	-0.916503906	-0.927001953	-0.490966797	891.74	29.75822705	-80.65546453	34.64557245	-62
10424	0	0.393453598	0.02879715	0.061460495	0.999997139	4.29E-05	-0.002155304	-0.000329971	9.836339951	0.719928741	1.536512375	0.002145769	-0.107765283	-0.016498579	-0.916503906	-0.927001953	-0.48828125	891.68	30.66720648	-80.81747295	33.72829289	-61
10425	0	0.399780273	0.035461426	0.06048584	0.999996185	0.001782417	-0.001670837	0.000839233	9.994506836	0.886535645	1.512145996	0.089120964	-0.083541963	0.041961717	-0.918945313	-0.931396484	-0.481933594	891.7	30.90891598	-80.99919262	33.6895017	-61
10426	0	0.393204689	0.037453651	0.058426857	0.999994278	0.00288868	-0.00086689	0.000926971	9.830117226	0.936341286	1.460671425	0.144434215	-0.04334457	0.046348649	-0.923583984	-0.933349609	-0.475830078	891.7	30.92922803	-81.10720858	34.00316395	-61
10427	0	0.386779785	0.036437988	0.058837891	0.999994278	0.00331974	9.54E-05	0.000175476	9.669494629	0.910949707	1.470947266	0.165987321	0.00476838	0.00877382	-0.928466797	-0.933105469	-0.467041016	891.8	31.11085438	-81.07649959	34.20384733	-61
10428	0	0.387513161	0.035950661	0.05739212	0.999990463	0.004196167	0.001078606	-0.000110626	9.687829018	0.898766518	1.434803009	0.209809006	0.053930451	-0.005531328	-0.923583984	-0.939697266	-0.4609375	891.8	31.20721376	-80.93263391	34.59263213	-61
10429	0	0.390930176	0.033874512	0.05480957	0.999984741	0.005455971	0.000492096	2.29E-05	9.773254395	0.846862793	1.370239258	0.272799903	0.02460492	0.001144415	-0.92578125	-0.944091797	-0.457519531	891.7	31.58971314	-80.85474901	34.83704531	-61
10430	0	0.390336037	0.035587311	0.046751022	0.999979973	0.00617218	-0.000110626	0.000361443	9.758400917	0.88968277	1.168775558	0.308610976	-0.005531346	0.018072243	-0.923339844	-0.952880859	-0.445556641	891.68	32.07899142	-80.85700895	35.05716001	-61
10431	0	0.390625	0.038330078	0.044128418	0.999978065	0.006587982	0.0001688	0.000457764	9.765625	0.958251953	1.103210449	0.329401505	0.008440079	0.02288835	-0.92578125	-0.95703125	-0.430664063	891.74	32.45905361	-80.83907576	35.43671793	-61
10432	0	0.390093803	0.036795616	0.044874191	0.999980927	0.006156921	0.000248909	9.44E-05	9.752345085	0.919890404	1.121854782	0.307848018	0.012445529	0.004720718	-0.928222656	-0.959228516	-0.421875	891.7	32.9820508	-80.79211172	35.62099566	-61
10433	0	0.387207031	0.035949707	0.045471191	0.999979973	0.006278992	-0.000109673	-0.000720978	9.680175781	0.898742676	1.136779785	0.313951676	-0.005483664	-0.036049129	-0.928222656	-0.965576172	-0.409912109	891.74	34.13929386	-80.72886659	35.17711651	-61
10434	0	0.385333061	0.036434174	0.042676926	0.999979019	0.006409645	-0.000529289	-0.00053978	9.63332653	0.91085434	1.066923141	0.320484479	-0.026464646	-0.026989171	-0.927978516	-0.974365234	-0.403320313	891.7	35.37009905	-80.71628399	34.67324968	-61
10435	0	0.389587402	0.042724609	0.040588379	0.999982834	0.00565052	-0.000797272	8.39E-05	9.739685059	1.068115234	1.014709473	0.28252755	-0.039863803	0.00419619	-0.925537109	-0.980957031	-0.388671875	891.7	36.27500004	-80.7696255	34.41238769	-61
10436	0	0.391973495	0.044791222	0.036956787	0.99998951	0.004548073	-0.000379562	5.91E-05	9.799337387	1.11978054	0.923919678	0.22740443	-0.018978185	0.002956401	-0.925292969	-0.989746094	-0.376464844	891.8	36.90465573	-80.78306499	34.30309151	-61
10437	0	0.387817383	0.046936035	0.039978027	0.999994278	0.003228188	0	0.000133514	9.69543457	1.173400879	0.999450684	0.161409659	0	0.006675732	-0.927978516	-0.989501953	-0.362060547	891.76	37.18717002	-80.76732554	34.39300406	-61
10438	0	0.390026093	0.045512199	0.041332245	0.999999046	0.001314163	-8.20E-05	-1.53E-05	9.750652313	1.137804985	1.033306122	0.065708179	-0.004100801	-0.00076294	-0.927978516	-0.991699219	-0.361816406	891.62	37.37385646	-80.74936129	34.35707243	-60
