Counter	Temperature	VelInc_X	VelInc_Y	VelInc_Z	OriInc_w	OriInc_x	OriInc_y	OriInc_z	Acc_X	Acc_Y	Acc_Z	Gyr_X	Gyr_Y	Gyr_Z	Mag_X	Mag_Y	Mag_Z	Pressure	Roll	Pitch	Yaw	RSSI
5258	0	0.355662346	-0.120902061	0.119300842	0.999999046	0.000183105	-0.00012207	9.91821E-05	8.891558647	-3.022551537	2.982521057	0.009155274	-0.006103516	0.004959106	-0.72265625	0.573974609	0.314208984	890.2	-45.22864053	-64.26632166	-100.8534045	-51
5259	0	0.355102539	-0.12097168	0.119445801	0.999999046	0.000160217	-3.71933E-05	9.15527E-05	8.877563477	-3.024291992	2.98614502	0.008010864	-0.001859665	0.004577637	-0.725097656	0.57421875	0.311523438	890.14	-45.21460647	-64.26653356	-100.8518027	-51
5260	0	0.35405159	-0.120693207	0.119579315	0.999999046	0.000193596	-0.000169754	0.000114441	8.851289749	-3.01733017	2.98948288	0.009679794	-0.008487702	0.005722046	-0.72265625	0.573974609	0.308349609	890.2	-45.22301615	-64.27558434	-100.8166968	-50
5261	0	0.35534668	-0.120300293	0.118164063	0.999999046	0.000106812	-0.000117302	0.000228882	8.883666992	-3.007507324	2.954101563	0.005340576	-0.005865097	0.011444092	-0.725097656	0.57421875	0.314453125	890.2	-45.25182715	-64.27117053	-100.7781037	-51
5262	0	0.353671074	-0.120986938	0.119631767	0.999999046	1.33514E-05	-0.00019455	0.000125885	8.841776848	-3.024673462	2.990794182	0.000667572	-0.009727478	0.006294251	-0.725097656	0.57421875	0.30859375	890.14	-45.2872207	-64.28133795	-100.7384651	-51
5263	0	0.355285645	-0.12286377	0.120178223	0.999999046	0.000495911	-0.000124931	0.000179291	8.882141113	-3.071594238	3.004455566	0.024795533	-0.006246567	0.008964539	-0.725097656	0.576416016	0.311279297	890.14	-45.26465653	-64.28147246	-100.7022226	-51
5264	0	0.356126785	-0.121588707	0.123077393	0.999999046	0.000323296	-0.000293732	0.000183105	8.903169632	-3.039717674	3.076934814	0.01616478	-0.014686585	0.009155274	-0.725097656	0.57421875	0.311523438	890.16	-45.29087942	-64.2948068	-100.6380616	-51
5265	0	0.355163574	-0.121948242	0.12097168	0.999999046	0.000106812	-0.000254631	0.000507355	8.879089355	-3.048706055	3.024291992	0.005340576	-0.012731553	0.025367738	-0.72265625	0.573974609	0.314208984	890.22	-45.389567	-64.27846337	-100.5231308	-51
5266	0	0.355284691	-0.121733665	0.121242523	0.999999046	0.000175476	-0.000162125	0.000479698	8.882117271	-3.043341637	3.03106308	0.008773804	-0.008106232	0.02398491	-0.72265625	0.576171875	0.308349609	890.2	-45.45990198	-64.25680191	-100.423359	-51
5267	0	0.355407715	-0.121826172	0.121459961	0.999999046	0.000179291	-1.81198E-05	0.000362396	8.885192871	-3.045654297	3.036499023	0.008964539	-0.000905991	0.018119813	-0.722900391	0.578613281	0.311035156	890.14	-45.48565681	-64.23305878	-100.3728719	-51
5268	0	0.355201721	-0.121369362	0.120573997	0.999999046	0.000342369	-0.000104904	0.000328064	8.88004303	-3.034234047	3.014349937	0.017118455	-0.005245209	0.016403199	-0.72265625	0.576416016	0.311279297	890.14	-45.50158278	-64.21907622	-100.3173103	-51
5269	0	0.354858398	-0.12097168	0.120544434	0.999999046	0.000293732	6.58035E-05	0.000324249	8.871459961	-3.024291992	3.01361084	0.014686585	0.003290176	0.016212464	-0.72265625	0.578613281	0.308105469	890.2	-45.49343278	-64.19169503	-100.289639	-51
5270	0	0.355129242	-0.12180233	0.121272087	0.999999046	0.000427246	0.000200272	0.000304222	8.878231049	-3.04505825	3.031802177	0.021362306	0.010013581	0.015211106	-0.720458984	0.578369141	0.310791016	890.2	-45.44387335	-64.15511691	-100.2937909	-51
5271	0	0.354248047	-0.121154785	0.121337891	0.999999046	7.62939E-05	0.000187874	0.000377655	8.856201172	-3.028869629	3.033447266	0.003814697	0.009393692	0.018882752	-0.72265625	0.576171875	0.308349609	890.16	-45.44870652	-64.11351942	-100.2862635	-51
5272	0	0.354781151	-0.122869492	0.119962692	0.999999046	-4.1008E-05	0.000282288	0.000380516	8.86952877	-3.071737289	2.999067307	-0.0020504	0.01411438	0.019025803	-0.720458984	0.578369141	0.307861328	890.1	-45.45168668	-64.06409369	-100.2910783	-51
5273	0	0.356079102	-0.124023438	0.11932373	0.999999046	0.000427246	0.000332832	0.000377655	8.901977539	-3.100585938	2.983093262	0.021362306	0.016641618	0.018882753	-0.720458984	0.580566406	0.304931641	890.22	-45.39239588	-64.01086009	-100.3014779	-51
5274	0	0.355236053	-0.122421265	0.118808746	0.999999046	0.000535965	0.00015831	0.000362396	8.880901337	-3.060531616	2.970218658	0.02679825	0.007915497	0.018119813	-0.72265625	0.578613281	0.305175781	890.2	-45.34762389	-63.97300759	-100.2891657	-51
5275	0	0.352539063	-0.120056152	0.11730957	0.999999046	0.000350952	7.34329E-05	0.000488281	8.813476563	-3.001403809	2.932739258	0.017547608	0.003671646	0.024414064	-0.720458984	0.580566406	0.304931641	890.14	-45.35908988	-63.93189718	-100.2347831	-51
5276	0	0.355271339	-0.121663094	0.118361473	0.999999046	0.000237465	0.000228882	0.000418663	8.881783485	-3.041577339	2.959036827	0.011873246	0.011444092	0.020933152	-0.722900391	0.583007813	0.304931641	890.14	-45.34631551	-63.88409761	-100.2220049	-52
5277	0	0.355407715	-0.121582031	0.119689941	0.999999046	4.95911E-05	0.00024128	0.000408173	8.885192871	-3.039550781	2.992248535	0.002479553	0.012063981	0.020408631	-0.718261719	0.582763672	0.307373047	890.14	-45.35133042	-63.83628372	-100.2134326	-52
5278	0	0.354517937	-0.121982574	0.118590355	0.999999046	9.53674E-06	7.24792E-05	0.000376701	8.862948418	-3.049564362	2.964758873	0.000476837	0.003623962	0.018835068	-0.720458984	0.582763672	0.301757813	890.22	-45.38391377	-63.8047688	-100.1768022	-51
5279	0	0.353881836	-0.121643066	0.119567871	0.999999046	3.43323E-05	-0.00014019	0.000328064	8.847045898	-3.04107666	2.989196777	0.001716614	-0.007009506	0.016403199	-0.720458984	0.585205078	0.298583984	890.1	-45.44095238	-63.79443607	-100.1037641	-51
5280	0	0.352370262	-0.122903824	0.119842529	0.999999046	0.000170708	-0.000261307	-1.23978E-05	8.809256554	-3.072595596	2.996063232	0.008535385	-0.013065338	-0.000619888	-0.720458984	0.582763672	0.301757813	890.14	-45.44694441	-63.82165905	-100.0769238	-51
5281	0	0.354431152	-0.124572754	0.12121582	0.999999046	0.000667572	-0.00039959	-0.000160217	8.860778809	-3.114318848	3.030395508	0.033378605	-0.019979479	-0.008010865	-0.720458984	0.582763672	0.301757813	890.14	-45.39492193	-63.8720458	-100.0515557	-51
5282	0	0.354325294	-0.123562813	0.123476982	0.999999046	0.000583649	-0.000366211	-5.72205E-05	8.858132362	-3.08907032	3.086924553	0.029182436	-0.018310548	-0.002861023	-0.720703125	0.585205078	0.304443359	890.16	-45.3637268	-63.91126587	-100.0131972	-51
5283	0	0.354125977	-0.123657227	0.120849609	0.999999046	0.000347137	-0.00033474	8.39233E-05	8.853149414	-3.091430664	3.021240234	0.017356873	-0.016736985	0.004196167	-0.720458984	0.582763672	0.301757813	890.2	-45.37776033	-63.9364227	-99.95603058	-51
5284	0	0.353575706	-0.122656822	0.121124268	0.999999046	0.000248909	-0.0001297	0.000311852	8.839392662	-3.066420555	3.028106689	0.01244545	-0.006484986	0.015592576	-0.718261719	0.584960938	0.304443359	890.22	-45.40639142	-63.92645693	-99.893623	-51
5285	0	0.353637695	-0.121032715	0.120788574	0.999999046	8.39233E-05	-8.29697E-05	0.000228882	8.840942383	-3.025817871	3.019714355	0.004196167	-0.004148483	0.011444092	-0.720458984	0.582763672	0.301757813	890.14	-45.43235982	-63.91954184	-99.85840986	-51
5286	0	0.354517937	-0.12074852	0.119466782	0.999999046	9.53674E-06	-0.000114441	8.39233E-05	8.862948418	-3.018712997	2.98666954	0.000476837	-0.005722046	0.004196167	-0.718017578	0.584960938	0.301513672	890.14	-45.44825098	-63.92710919	-99.83808946	-51
5287	0	0.354492188	-0.119750977	0.118408203	0.999999046	-6.10352E-05	-0.000163078	-3.43323E-05	8.862304688	-2.993774414	2.960205078	-0.003051758	-0.008153915	-0.001716614	-0.720703125	0.585205078	0.307373047	890.14	-45.46089705	-63.94842374	-99.83740501	-51
5288	0	0.354722023	-0.120351791	0.117422104	0.999999046	-0.000206947	-0.000188828	-4.19617E-05	8.868050575	-3.008794785	2.935552597	-0.010347366	-0.009441376	-0.002098084	-0.718017578	0.582763672	0.304443359	890.06	-45.49342935	-63.97261683	-99.83070918	-50
5289	0	0.353820801	-0.12109375	0.118835449	0.999999046	-6.86646E-05	-0.00039196	-0.000293732	8.84552002	-3.02734375	2.97088623	-0.003433228	-0.019598008	-0.014686585	-0.718261719	0.585205078	0.307373047	890.16	-45.50274502	-64.03378586	-99.82983142	-50
5290	0	0.354474068	-0.120536804	0.120065689	0.999999046	-5.14984E-05	-0.000473022	-0.000409126	8.861851692	-3.013420105	3.001642227	-0.002574921	-0.023651125	-0.020456315	-0.720458984	0.583007813	0.307617188	890.14	-45.50454193	-64.11095127	-99.83848171	-51
5291	0	0.355773926	-0.120666504	0.122253418	0.999999046	-0.000144958	-0.000483513	-0.000267029	8.894348145	-3.016662598	3.056335449	-0.007247925	-0.024175645	-0.013351441	-0.718261719	0.582763672	0.307373047	890.1	-45.54209711	-64.17732187	-99.81559316	-50
5292	0	0.355774879	-0.120696068	0.123276711	0.999999046	-0.000470161	-0.000432968	-0.000404358	8.894371986	-3.017401695	3.081917763	-0.023508074	-0.021648409	-0.020217897	-0.720703125	0.583007813	0.313476563	890.14	-45.58532061	-64.25079143	-99.83244416	-50
5293	0	0.356750488	-0.121032715	0.122436523	0.999999046	-0.000385284	-0.000395775	-0.000331879	8.918762207	-3.025817871	3.060913086	-0.019264223	-0.019788743	-0.016593934	-0.720458984	0.578369141	0.307861328	890.16	-45.62433328	-64.315287	-99.84200229	-50
5294	0	0.35619545	-0.120892525	0.123280525	0.999999046	-0.000131607	-0.000240326	-0.00042057	8.904886246	-3.022313118	3.08201313	-0.006580353	-0.012016297	-0.02102852	-0.720458984	0.578369141	0.310791016	890.2	-45.59257687	-64.37446591	-99.89841968	-50
5295	0	0.353515625	-0.118164063	0.122375488	0.999999046	-0.000213623	-9.05991E-05	-0.000465393	8.837890625	-2.954101563	3.059387207	-0.010681153	-0.004529953	-0.023269654	-0.720458984	0.580810547	0.313720703	890.14	-45.53641735	-64.42520541	-99.98894957	-50
5296	0	0.354559898	-0.114895821	0.122505188	0.999999046	-0.001015663	0.000238419	-0.000507355	8.863997459	-2.872395515	3.0626297	-0.050783169	0.011920932	-0.025367743	-0.720458984	0.578369141	0.307861328	890.14	-45.50788907	-64.45296229	-100.1448639	-50
5297	0	0.354492188	-0.11920166	0.119445801	0.999995232	-0.002849579	0.00048542	-0.00075531	8.862304688	-2.980041504	2.98614502	-0.142479155	0.024271047	-0.037765559	-0.722900391	0.576416016	0.317138672	890.2	-45.60527695	-64.48120162	-100.3999605	-51
5298	0	0.354388237	-0.12757206	0.116498947	0.999997139	-0.002088547	0.000499725	-0.000598907	8.859705925	-3.189301491	2.912473679	-0.104427424	0.024986288	-0.029945398	-0.725097656	0.57421875	0.317382813	890.2	-45.63988511	-64.49539405	-100.6274792	-51
5299	0	0.355651855	-0.126220703	0.114440918	0.999999046	4.95911E-05	6.96182E-05	-0.000465393	8.891296387	-3.155517578	2.861022949	0.002479553	0.003480911	-0.023269654	-0.724853516	0.572021484	0.311767578	890.1	-45.52634936	-64.53300965	-100.7441092	-51
5300	0	0.354529381	-0.122828484	0.114806175	0.999999046	4.76837E-06	-0.000268936	-0.00044632	8.86323452	-3.07071209	2.870154381	0.000238419	-0.013446808	-0.02231598	-0.724853516	0.569824219	0.317626953	890.14	-45.47952581	-64.59617398	-100.7997	-51
5301	0	0.353820801	-0.123962402	0.113037109	0.999999046	-0.000240326	-0.000144005	-9.15527E-05	8.84552002	-3.099060059	2.825927734	-0.012016297	-0.007200241	-0.004577637	-0.72265625	0.569580078	0.320556641	890.06	-45.49997053	-64.62027964	-100.812125	-51
5302	0	0.355891228	-0.123954773	0.117695808	0.999999046	-9.53674E-05	-0.00022316	0.000372887	8.897280693	-3.098869324	2.94239521	-0.004768372	-0.01115799	0.018644334	-0.727294922	0.569824219	0.314941406	890.1	-45.59640577	-64.61261294	-100.7208228	-51
5303	0	0.355102539	-0.123046875	0.118164063	0.999999046	-0.000350952	-6.00815E-05	0.000617981	8.877563477	-3.076171875	2.954101563	-0.017547609	-0.003004074	0.03089905	-0.724853516	0.569580078	0.314697266	890.06	-45.73538391	-64.57158273	-100.6138862	-52
5304	0	0.355696678	-0.123326302	0.118582726	0.999999046	-0.000304222	-6.29425E-05	0.000723839	8.892416954	-3.083157539	2.964568138	-0.015211107	-0.003147126	0.036191944	-0.727294922	0.572021484	0.314697266	890.2	-45.88698187	-64.52184145	-100.4866812	-51
5305	0	0.356079102	-0.122131348	0.118408203	0.999999046	1.52588E-05	3.52859E-05	0.00075531	8.901977539	-3.053283691	2.960205078	0.00076294	0.001764298	0.037765507	-0.725097656	0.572021484	0.317626953	890.2	-45.98975417	-64.46150818	-100.3760795	-51
5306	0	0.355337143	-0.121932983	0.117764473	0.999999046	7.24792E-05	0.000188828	0.000777245	8.883428574	-3.048324585	2.944111824	0.003623963	0.009441377	0.038862233	-0.72265625	0.571777344	0.314453125	890.14	-46.06265515	-64.38705606	-100.2890624	-51
5307	0	0.355224609	-0.120483398	0.115844727	0.999999046	0.00043869	0.000107765	0.000526428	8.880615234	-3.012084961	2.896118164	0.021934511	0.00538826	0.026321413	-0.72265625	0.57421875	0.317138672	890.2	-46.06567475	-64.33983454	-100.2341267	-52
5308	0	0.355987549	-0.120941162	0.114622116	0.999999046	0.000498772	-0.000135422	0.000400543	8.899688721	-3.023529053	2.865552902	0.024938585	-0.006771088	0.020027162	-0.72265625	0.573974609	0.314208984	890.1	-46.0828151	-64.32249741	-100.1554087	-51
5309	0	0.355957031	-0.121704102	0.114868164	0.999999046	0.000827789	-0.000353813	0.0001297	8.898925781	-3.042602539	2.871704102	0.041389471	-0.017690661	0.006484986	-0.722900391	0.576416016	0.314208984	890.2	-46.05514776	-64.34501236	-100.0825854	-51
5310	0	0.35692215	-0.120875359	0.114570618	0.999999046	0.001169205	-0.000654221	0.000179291	8.923053741	-3.021883965	2.864265442	0.058460253	-0.032711039	0.008964541	-0.725097656	0.57421875	0.317382813	890.14	-46.04846006	-64.38751636	-99.9535747	-51
5311	0	0.355529785	-0.11907959	0.114379883	0.999999046	0.000835419	-0.000502586	0.000278473	8.888244629	-2.976989746	2.85949707	0.041770942	-0.025129323	0.013923647	-0.720458984	0.576171875	0.319824219	890.14	-46.07058301	-64.40996677	-99.83218675	-51
5312	0	0.357774734	-0.121649742	0.115321159	0.999999046	0.000422478	-0.000318527	9.53674E-05	8.944368362	-3.041243553	2.883028984	0.021123887	-0.015926362	0.004768372	-0.72265625	0.576416016	0.311279297	890.16	-46.07814932	-64.43300134	-99.77326517	-51
5313	0	0.358520508	-0.120544434	0.115661621	0.999999046	0.000553131	-0.000201225	-3.8147E-06	8.963012695	-3.01361084	2.891540527	0.027656557	-0.010061265	-0.000190735	-0.720214844	0.576171875	0.311035156	890.2	-46.03406213	-64.45504779	-99.75374774	-51
5314	0	0.356492043	-0.11827755	0.115831375	0.999999046	0.000457764	-7.62939E-06	0.000185966	8.912301064	-2.956938744	2.895784378	0.022888185	-0.00038147	0.009298325	-0.720458984	0.578613281	0.316650391	890.2	-45.99890708	-64.44620702	-99.7395143	-51
5315	0	0.355773926	-0.11920166	0.116455078	0.999999046	6.48499E-05	5.05447E-05	4.95911E-05	8.894348145	-2.980041504	2.911376953	0.003242493	0.002527237	0.002479553	-0.718017578	0.576171875	0.316894531	890.16	-45.9759146	-64.44407171	-99.76358026	-51
5316	0	0.356848717	-0.12062645	0.117360115	0.999999046	0.000130653	0.000196457	-0.000287056	8.921217918	-3.01566124	2.934002876	0.006532669	0.009822846	-0.014352799	-0.72265625	0.57421875	0.317138672	890.14	-45.86403056	-64.45804759	-99.8840763	-51
5317	0	0.355712891	-0.120361328	0.115783691	0.999999046	0.00025177	0.000164986	-0.000255585	8.892822266	-3.009033203	2.894592285	0.012588501	0.008249283	-0.012779236	-0.720458984	0.576171875	0.313964844	890.14	-45.74888892	-64.47192629	-99.98423725	-51
5318	0	0.357139587	-0.12085247	0.117731094	0.999999046	-7.82013E-05	0.000177383	-4.76837E-06	8.928489685	-3.02131176	2.943277359	-0.003910065	0.008869171	-0.000238419	-0.722900391	0.578613281	0.316894531	890.2	-45.71136222	-64.46419125	-100.0410401	-51
5319	0	0.356262207	-0.122192383	0.116577148	0.999999046	-0.000141144	0.000306129	-6.86646E-05	8.906555176	-3.05480957	2.914428711	-0.00705719	0.015306473	-0.003433228	-0.72265625	0.573974609	0.314208984	890.2	-45.6484946	-64.45135815	-100.1376894	-51
5320	0	0.354987144	-0.121871948	0.116393089	0.999999046	-0.000252724	0.000333786	0.000109673	8.874678612	-3.046798706	2.909827232	-0.012636185	0.016689301	0.005483627	-0.72265625	0.576416016	0.311279297	890.2	-45.62385187	-64.42165455	-100.1993343	-51
5321	0	0.355163574	-0.121826172	0.11706543	0.999999046	-0.000343323	0.000317574	0.000164032	8.879089355	-3.045654297	2.926635742	-0.017166138	0.015878678	0.008201599	-0.720214844	0.573974609	0.314208984	890.14	-45.62170034	-64.38877144	-100.2518725	-51
5322	0	0.354376793	-0.122694969	0.118120193	0.999999046	0	0.000173569	6.48499E-05	8.859419823	-3.067374229	2.953004837	0	0.008678436	0.003242493	-0.72265625	0.576171875	0.308349609	890.22	-45.58841002	-64.37546008	-100.2884292	-51
5323	0	0.354553223	-0.123535156	0.11706543	0.999999046	0.000392914	0.000161171	8.7738E-05	8.863830566	-3.088378906	2.926635742	0.019645692	0.008058548	0.004386902	-0.72265625	0.573974609	0.314208984	890.16	-45.51638427	-64.36118404	-100.3280306	-51
5324	0	0.354981422	-0.121613503	0.117884636	0.999999046	0.000330925	-2.86102E-05	5.34058E-05	8.874535561	-3.040337563	2.947115898	0.01654625	-0.001430512	0.002670288	-0.72265625	0.573974609	0.314208984	890.26	-45.47816183	-64.36492538	-100.3384231	-51
5325	0	0.354614258	-0.122558594	0.116699219	0.999999046	0.000217438	-2.57492E-05	0.000171661	8.865356445	-3.063964844	2.917480469	0.010871887	-0.00128746	0.008583069	-0.722900391	0.576416016	0.314208984	890.14	-45.47253008	-64.35875517	-100.3241388	-51
5326	0	0.354516983	-0.122079849	0.118136406	0.999999046	0.000478745	-5.53131E-05	0.000227928	8.862924576	-3.051996231	2.953410149	0.023937226	-0.002765656	0.011396409	-0.72265625	0.576416016	0.311279297	890.06	-45.45151597	-64.35031717	-100.2920021	-51
5327	0	0.354492188	-0.122070313	0.118835449	0.999999046	0.000366211	-0.000109673	0.000202179	8.862304688	-3.051757813	2.97088623	0.018310547	-0.005483627	0.010108948	-0.72265625	0.576171875	0.308349609	890.16	-45.44838768	-64.34828651	-100.2528673	-52
5328	0	0.354651451	-0.122127533	0.118479729	0.999999046	0.000384331	-0.000160217	0.000225067	8.866286278	-3.053188324	2.961993217	0.019216538	-0.008010865	0.011253357	-0.725097656	0.576416016	0.308349609	890.1	-45.45570226	-64.34839617	-100.2026148	-51
5329	0	0.35559082	-0.121032715	0.11730957	0.999999046	0.000411987	-0.000227928	0.000209808	8.889770508	-3.025817871	2.932739258	0.020599366	-0.011396409	0.010490418	-0.720214844	0.578369141	0.304931641	890.2	-45.46891463	-64.35523257	-100.1328556	-51
5330	0	0.354189873	-0.120840073	0.11822319	0.999999046	0.000255585	-0.000289917	0.000328064	8.854746819	-3.021001816	2.955579758	0.012779236	-0.01449585	0.016403199	-0.722900391	0.578613281	0.311035156	890.2	-45.53040834	-64.35734922	-100.0383601	-51
5331	0	0.356140137	-0.120849609	0.117675781	0.999999046	0.000587463	-0.000403404	0.000259399	8.903503418	-3.021240234	2.941894531	0.029373172	-0.020170214	0.012969972	-0.720458984	0.580566406	0.307861328	890.14	-45.56179653	-64.37420073	-99.92830127	-51
5332	0	0.357027054	-0.120286942	0.117711067	0.999999046	0.000201225	-0.00018692	9.15527E-05	8.925676346	-3.007173538	2.94277668	0.010061264	-0.009346008	0.004577637	-0.72265625	0.580810547	0.302001953	890.1	-45.57246385	-64.38747707	-99.88645876	-51
5333	0	0.354370117	-0.118652344	0.117919922	0.999999046	0.000282288	-0.000266075	0.000263214	8.85925293	-2.966308594	2.947998047	0.01411438	-0.013303757	0.013160706	-0.718017578	0.578369141	0.313720703	890.2	-45.61591165	-64.39309622	-99.81013093	-51
5334	0	0.355347633	-0.118894577	0.119261742	0.999999046	0.000120163	-0.000213623	0.000205994	8.883690834	-2.972364426	2.981543541	0.006008148	-0.010681153	0.010299683	-0.718017578	0.578369141	0.310791016	890.16	-45.65913473	-64.39919815	-99.75208466	-51
5335	0	0.35534668	-0.120056152	0.119506836	0.999999046	0	8.4877E-05	-7.62939E-05	8.883666992	-3.001403809	2.987670898	0	0.004243851	-0.003814697	-0.720214844	0.578369141	0.304931641	890.16	-45.61765486	-64.40448615	-99.79885377	-51
5336	0	0.356016159	-0.118476868	0.118162155	0.999999046	0.000109673	4.57764E-05	2.67029E-05	8.900403976	-2.961921692	2.954053879	0.005483627	0.002288818	0.001335144	-0.722900391	0.580810547	0.310791016	890.14	-45.58728864	-64.4045458	-99.82364451	-51
5337	0	0.358703613	-0.12109375	0.11895752	0.999999046	-1.52588E-05	0.000161171	-9.53674E-05	8.967590332	-3.02734375	2.973937988	-0.000762939	0.008058548	-0.004768372	-0.722900391	0.580810547	0.310791016	890.1	-45.53101812	-64.40535577	-99.89247702	-52
5338	0	0.3568573	-0.120663643	0.117053986	0.999999046	-0.000230789	0.000192642	-7.72476E-05	8.921432495	-3.016591072	2.92634964	-0.011539459	0.009632111	-0.003862381	-0.72265625	0.578613281	0.308105469	890.1	-45.49719355	-64.4021972	-99.96348792	-51
5339	0	0.355224609	-0.118286133	0.115356445	0.999999046	-0.000473022	0.000374794	9.91821E-05	8.880615234	-2.95715332	2.883911133	-0.023651125	0.018739701	0.004959107	-0.720458984	0.580566406	0.304931641	890.16	-45.4897218	-64.37013657	-100.0274813	-51
5340	0	0.354809761	-0.117489815	0.115143776	0.999999046	-0.000807762	0.000232697	-6.19888E-05	8.870244026	-2.937245369	2.878594398	-0.040388112	0.011634828	-0.003099442	-0.720458984	0.578369141	0.307861328	890.14	-45.51786756	-64.36285699	-100.0989133	-51
5341	0	0.354064941	-0.117919922	0.116027832	0.999999046	-0.000751495	-2.86102E-06	-0.000434875	8.851623535	-2.947998047	2.900695801	-0.037574773	-0.000143051	-0.021743777	-0.72265625	0.576171875	0.308349609	890.26	-45.51716387	-64.40511356	-100.1976885	-51
5342	0	0.354473114	-0.118271828	0.113893509	0.999999046	-0.00038147	-0.000114441	-0.00067997	8.86182785	-2.956795692	2.847337723	-0.019073488	-0.005722046	-0.033998493	-0.72265625	0.576171875	0.305419922	890.14	-45.45181113	-64.47651306	-100.3149121	-51
5343	0	0.353271484	-0.11920166	0.116149902	0.999999046	-0.000495911	-0.000281334	-0.000888824	8.831787109	-2.980041504	2.903747559	-0.024795537	-0.014066699	-0.044441231	-0.725097656	0.576416016	0.308349609	890.2	-45.39235644	-64.57834254	-100.4402495	-52
5344	0	0.354593277	-0.122472763	0.117536545	0.999999046	-0.000536919	-0.000429153	-0.000832558	8.864831924	-3.061819077	2.93841362	-0.026845937	-0.021457676	-0.041627892	-0.725097656	0.572021484	0.314697266	890.14	-45.37209133	-64.68730012	-100.5359023	-51
5345	0	0.355041504	-0.123474121	0.118347168	0.999999046	-0.000377655	-0.000388145	-0.000766754	8.876037598	-3.086853027	2.958679199	-0.018882754	-0.019407275	-0.038337713	-0.72265625	0.571777344	0.317382813	890.14	-45.33744948	-64.78734866	-100.6242112	-51
5346	0	0.356483459	-0.124482155	0.117731094	0.999999046	-0.000541687	-0.000249863	-0.000385284	8.912086487	-3.112053871	2.943277359	-0.027084353	-0.012493135	-0.019264223	-0.724853516	0.569824219	0.317626953	890.14	-45.36304354	-64.84492606	-100.6689846	-50
5347	0	0.356018066	-0.124755859	0.117675781	0.999999046	-0.000495911	-0.000231743	1.52588E-05	8.90045166	-3.118896484	2.941894531	-0.024795533	-0.011587144	0.000762939	-0.724853516	0.569580078	0.314697266	890.14	-45.44934181	-64.86811476	-100.6370392	-51
5348	0	0.355092049	-0.12482357	0.117996216	0.999999046	-0.000105858	-0.000341415	0.000319481	8.877301216	-3.120589256	2.949905396	-0.005292893	-0.017070771	0.015974045	-0.724853516	0.567382813	0.312011719	890.2	-45.5625889	-64.87492341	-100.5271438	-51
5349	0	0.355834961	-0.122802734	0.117431641	0.999999046	0.000167847	-0.000288963	0.000484467	8.895874023	-3.070068359	2.935791016	0.008392334	-0.014448167	0.024223329	-0.727294922	0.569824219	0.317871094	890.1	-45.66369758	-64.86373668	-100.4012921	-51
5350	0	0.358287811	-0.121340752	0.118057251	0.999999046	0.000198364	-0.000211716	0.00051403	8.957195282	-3.033518791	2.951431274	0.009918213	-0.010585786	0.025701524	-0.72265625	0.569580078	0.317626953	890.14	-45.75268615	-64.84374778	-100.2827259	-51
5351	0	0.355224609	-0.118164063	0.114807129	0.999999046	0.000148773	-0.000170708	0.000808716	8.880615234	-2.954101563	2.870178223	0.007438661	-0.008535386	0.040435796	-0.72265625	0.569580078	0.317626953	890.14	-45.88993737	-64.79621302	-100.1195034	-50
5352	0	0.357394218	-0.11669445	0.115023613	0.999999046	0.000144005	-0.00022316	0.00069046	8.934855461	-2.917361259	2.875590324	0.007200242	-0.011157991	0.034523013	-0.72265625	0.571777344	0.314453125	890.16	-46.01615061	-64.76258543	-99.96447923	-50
5353	0	0.358337402	-0.117858887	0.115600586	0.999999046	0.000133514	-2.86102E-06	0.000217438	8.958435059	-2.946472168	2.890014648	0.00667572	-0.000143051	0.010871887	-0.72265625	0.571777344	0.314453125	890.14	-46.02474435	-64.75047825	-99.941442	-51
5354	0	0.35737133	-0.116458893	0.113553047	0.999999046	0.000152588	0.000104904	2.86102E-06	8.934283257	-2.911472321	2.83882618	0.007629395	0.005245209	0.000143051	-0.72265625	0.571777344	0.317382813	890.16	-45.97593224	-64.74769792	-99.98236152	-51
5355	0	0.359130859	-0.117553711	0.11340332	0.999999046	6.10352E-05	-4.86374E-05	4.19617E-05	8.978271484	-2.938842773	2.835083008	0.003051758	-0.00243187	0.002098083	-0.72265625	0.57421875	0.317138672	890.2	-45.97098798	-64.75413289	-99.98220083	-51
5356	0	0.358704567	-0.117264748	0.114724159	0.999999046	-8.86917E-05	9.53674E-06	-0.000228882	8.967614174	-2.93161869	2.868103981	-0.004434586	0.000476837	-0.011444092	-0.72265625	0.571777344	0.317382813	890.14	-45.92705474	-64.77840563	-100.0469075	-51
5357	0	0.357055664	-0.1171875	0.11517334	0.999999046	-0.000461578	0.000161171	-8.7738E-05	8.926391602	-2.9296875	2.879333496	-0.023078919	0.008058548	-0.004386902	-0.72265625	0.571777344	0.317382813	890.2	-45.92296566	-64.77906756	-100.1133041	-51
5358	0	0.355818748	-0.118941307	0.11548233	0.999999046	-0.000530243	0.000108719	-8.4877E-05	8.895468712	-2.973532677	2.887058258	-0.026512147	0.005435944	-0.004243851	-0.725097656	0.572021484	0.314697266	890.2	-45.93630106	-64.78368694	-100.1666164	-51
5359	0	0.35546875	-0.119934082	0.11517334	0.999999046	-0.000190735	4.673E-05	-0.00031662	8.88671875	-2.998352051	2.879333496	-0.009536743	0.002336502	-0.015830994	-0.725097656	0.572021484	0.317626953	890.16	-45.88228552	-64.81229126	-100.2525278	-51
5360	0	0.356511116	-0.121522903	0.115952492	0.999999046	0.000401497	4.57764E-05	-0.000499725	8.912777901	-3.038072586	2.898812294	0.020074846	0.002288819	-0.024986269	-0.724853516	0.569580078	0.314697266	890.14	-45.72930728	-64.85586114	-100.3725618	-50
5361	0	0.357788086	-0.120422363	0.116333008	0.999999046	0.000499725	3.91006E-05	-0.000339508	8.944702148	-3.010559082	2.908325195	0.024986269	0.001955032	-0.016975404	-0.72265625	0.571777344	0.314453125	890.14	-45.59321105	-64.88665483	-100.455683	-51
5362	0	0.357006073	-0.119821548	0.114709854	0.999999046	0.000265121	8.7738E-05	-2.38419E-05	8.925151825	-2.995538712	2.867746353	0.013256073	0.004386902	-0.001192093	-0.72265625	0.571777344	0.314453125	890.14	-45.52954066	-64.88764815	-100.488923	-51
5363	0	0.356567383	-0.119812012	0.112915039	0.999999046	0.000331879	3.14713E-05	8.01086E-05	8.91418457	-2.995300293	2.822875977	0.016593933	0.001573563	0.004005432	-0.727294922	0.569824219	0.312011719	890.22	-45.48618561	-64.88469136	-100.4967337	-51
5364	0	0.355319977	-0.118330956	0.111610413	0.999999046	0.00026989	-0.000101089	-2.67029E-05	8.88299942	-2.958273888	2.790260315	0.013494492	-0.005054474	-0.001335144	-0.725097656	0.572021484	0.317626953	890.2	-45.45506191	-64.90121856	-100.4991944	-51
5365	0	0.355224609	-0.120056152	0.112243652	0.999999046	0.000434875	-0.000300407	-4.95911E-05	8.880615234	-3.001403809	2.806091309	0.021743775	-0.015020371	-0.002479553	-0.724853516	0.569824219	0.317626953	890.2	-45.43628426	-64.93565889	-100.4706548	-51
5366	0	0.354753494	-0.118703842	0.111522675	0.999999046	0.000804901	-0.000576019	-1.90735E-05	8.868837357	-2.967596054	2.788066864	0.040245063	-0.028800969	-0.000953674	-0.724853516	0.569824219	0.317626953	890.16	-45.42894415	-64.9898385	-100.3835367	-51
5367	0	0.358337402	-0.11907959	0.114074707	0.999999046	0.000514984	-0.000693321	2.67029E-05	8.958435059	-2.976989746	2.851867676	0.02574921	-0.034666066	0.001335144	-0.72265625	0.571777344	0.317382813	890.06	-45.48373049	-65.04971885	-100.2596908	-51
5368	0	0.35793972	-0.11861515	0.114310265	0.999999046	0.000187874	-0.000297546	0.000244141	8.948493004	-2.965378761	2.857756615	0.009393692	-0.01487732	0.012207032	-0.725097656	0.572021484	0.314697266	890.28	-45.54438167	-65.05999573	-100.1704625	-50
5369	0	0.356079102	-0.117553711	0.114746094	0.999999046	-1.52588E-05	-0.00026226	0.000591278	8.901977539	-2.938842773	2.868652344	-0.00076294	-0.013113023	0.029563906	-0.724853516	0.569580078	0.314697266	890.14	-45.68187118	-65.0389358	-100.0271037	-50
5370	0	0.35667038	-0.118590355	0.114737511	0.999999046	-4.57764E-05	-0.000141144	0.000473022	8.916759491	-2.964758873	2.868437767	-0.002288818	-0.00705719	0.023651124	-0.72265625	0.569580078	0.317626953	890.22	-45.78097048	-65.0177344	-99.93186319	-51
5371	0	0.357666016	-0.11730957	0.113037109	0.999999046	0.000213623	3.14713E-05	0.000217438	8.941650391	-2.932739258	2.825927734	0.010681153	0.001573563	0.010871887	-0.72265625	0.571777344	0.3203125	890.1	-45.77598418	-65.00378793	-99.91860353	-51
5372	0	0.357424736	-0.116806984	0.113108635	0.999999046	3.71933E-05	1.90735E-05	0.000315666	8.935618401	-2.920174599	2.827715874	0.001859665	0.000953674	0.01578331	-0.722900391	0.57421875	0.320068359	890.16	-45.81014702	-64.98286865	-99.88131422	-50
5373	0	0.357849121	-0.117919922	0.114196777	0.999999046	-0.000144958	-4.86374E-05	0.000453949	8.946228027	-2.947998047	2.854919434	-0.007247925	-0.00243187	0.02269745	-0.72265625	0.573974609	0.314208984	890.22	-45.90058601	-64.95601454	-99.8001833	-51
5374	0	0.3577528	-0.117912292	0.113698959	0.999999046	-0.000209808	0.000106812	0.000205994	8.94382	-2.947807312	2.842473984	-0.010490418	0.005340576	0.010299683	-0.720458984	0.573974609	0.317138672	890.1	-45.92860353	-64.93721507	-99.797206	-50
5375	0	0.35736084	-0.118896484	0.114624023	0.999999046	-9.91821E-05	-2.95639E-05	7.62939E-06	8.934020996	-2.972412109	2.865600586	-0.004959106	-0.001478195	0.00038147	-0.725097656	0.57421875	0.317382813	890.22	-45.93407042	-64.94562334	-99.80837244	-50
5376	0	0.357670784	-0.118803024	0.115249634	0.999999046	-0.000224113	-6.67572E-05	6.77109E-05	8.9417696	-2.970075607	2.881240845	-0.011205673	-0.00333786	0.003385544	-0.72265625	0.57421875	0.317138672	890.1	-45.9705255	-64.95204122	-99.79818126	-50
5377	0	0.357299805	-0.119995117	0.11541748	0.999999046	-0.000198364	6.96182E-05	3.43323E-05	8.932495117	-2.99987793	2.885437012	-0.009918213	0.003480911	0.001716614	-0.725097656	0.572021484	0.320556641	890.1	-45.97425491	-64.95028502	-99.82907449	-51
5378	0	0.356847763	-0.121103287	0.115783691	0.999999046	0.000171661	8.39233E-05	-6.86646E-05	8.921194077	-3.027582169	2.894592285	0.008583069	0.004196167	-0.003433228	-0.72265625	0.571777344	0.314453125	890.16	-45.91550899	-64.95574897	-99.87432353	-51
5379	0	0.35748291	-0.120056152	0.115600586	0.999999046	0.000160217	0.000130653	-9.53674E-05	8.937072754	-3.001403809	2.890014648	0.008010864	0.006532669	-0.004768372	-0.72265625	0.571777344	0.314453125	890.14	-45.84522707	-64.95959647	-99.9335992	-50
5380	0	0.35735321	-0.120500565	0.117074013	0.999999046	4.1008E-05	0.000171661	6.67572E-06	8.933830261	-3.012514114	2.926850319	0.0020504	0.008583069	0.000333786	-0.72265625	0.573974609	0.314208984	890.2	-45.7987267	-64.95162992	-99.97800998	-50
5381	0	0.356140137	-0.12097168	0.116516113	0.999999046	-1.90735E-05	0.000260353	0.00025177	8.903503418	-3.024291992	2.912902832	-0.000953674	0.013017655	0.012588501	-0.725097656	0.572021484	0.314697266	890.14	-45.78546403	-64.91628884	-99.99968359	-50
5382	0	0.356079102	-0.120728493	0.11712265	0.999999046	2.67029E-05	0.000284195	0.000221252	8.901977539	-3.018212318	2.928066254	0.001335144	0.014209748	0.011062622	-0.72265625	0.571777344	0.3203125	890.14	-45.75756366	-64.88140382	-100.0361664	-51
5383	0	0.355957031	-0.120666504	0.119018555	0.999999046	0.000247955	0.000424385	0.000144958	8.898925781	-3.016662598	2.975463867	0.012397767	0.021219254	0.007247925	-0.72265625	0.57421875	0.317138672	890.06	-45.66669976	-64.8413599	-100.1082339	-51
5384	0	0.355640411	-0.119613647	0.116631508	0.999999046	0.000346184	0.000213623	0.000419617	8.891010284	-2.990341187	2.915787697	0.01730919	0.010681153	0.020980836	-0.72265625	0.573974609	0.314208984	890.14	-45.64825193	-64.79559398	-100.0873672	-51
5385	0	0.357055664	-0.120727539	0.116455078	0.999999046	0.000499725	0.00017643	0.000320435	8.926391602	-3.018188477	2.911376953	0.024986269	0.008821488	0.01602173	-0.720214844	0.573974609	0.314208984	890.1	-45.60188039	-64.76089005	-100.0778135	-51
5386	0	0.356755257	-0.119255066	0.114990234	0.999999046	0.000423431	0.000192642	0.000178337	8.918881416	-2.981376648	2.874755859	0.021171571	0.009632111	0.008916855	-0.72265625	0.573974609	0.314208984	890.06	-45.5374046	-64.73657145	-100.1013547	-51
5387	0	0.355163574	-0.119018555	0.116943359	0.999999046	0.000362396	0.000214577	0.000366211	8.879089355	-2.975463867	2.923583984	0.018119813	0.010728837	0.018310548	-0.720214844	0.576171875	0.311035156	890.2	-45.50803492	-64.69509592	-100.0870279	-51
5388	0	0.355635643	-0.119805336	0.116266251	0.999999046	0.000351906	0.000221252	0.000357628	8.890891075	-2.9951334	2.906656265	0.017595292	0.011062623	0.017881394	-0.722900391	0.576416016	0.317138672	890.2	-45.47733057	-64.6537814	-100.0851822	-50
5389	0	0.355285645	-0.119506836	0.116638184	0.999999046	0.000587463	3.52859E-05	0.000297546	8.882141113	-2.987670898	2.91595459	0.029373171	0.001764298	0.01487732	-0.72265625	0.57421875	0.317138672	890.16	-45.44153233	-64.63232132	-100.0640831	-51
5390	0	0.356122017	-0.119400978	0.115337372	0.999999046	0.000577927	-0.000143051	0.000278473	8.903050423	-2.985024452	2.883434296	0.028896334	-0.007152558	0.013923646	-0.720458984	0.578369141	0.307861328	890.1	-45.43440597	-64.62683275	-99.99668031	-51
5391	0	0.356628418	-0.119018555	0.115966797	0.999999046	0.000377655	-2.19345E-05	0.000274658	8.915710449	-2.975463867	2.899169922	0.018882752	-0.001096726	0.013732911	-0.720214844	0.576171875	0.308105469	890.04	-45.42874328	-64.61199099	-99.957934	-51
5392	0	0.355042458	-0.118638039	0.116405487	0.999999046	0.000109673	-0.000133514	0.000282288	8.87606144	-2.965950966	2.910137177	0.005483627	-0.00667572	0.01411438	-0.720214844	0.578369141	0.304931641	890.2	-45.47420662	-64.60553068	-99.89081952	-51
5393	0	0.354858398	-0.119384766	0.11706543	0.999999046	0.00018692	-0.000132561	0.000236511	8.871459961	-2.984619141	2.926635742	0.009346008	-0.006628037	0.011825562	-0.720458984	0.578369141	0.307861328	890.1	-45.50283486	-64.60270966	-99.83645369	-51
5394	0	0.355931282	-0.119143486	0.116586685	0.999999046	0.000249863	-0.00015831	5.24521E-05	8.898282051	-2.978587151	2.91466713	0.012493134	-0.007915497	0.002622604	-0.720458984	0.578369141	0.307861328	890.04	-45.49750686	-64.61703567	-99.81198291	-51
5395	0	0.356201172	-0.118347168	0.115112305	0.999999046	0.00019455	-0.000102043	3.8147E-05	8.905029297	-2.958679199	2.877807617	0.009727478	-0.005102158	0.001907349	-0.720458984	0.578369141	0.307861328	890.1	-45.48642771	-64.62812508	-99.80107845	-51
5396	0	0.356520653	-0.118085861	0.115267754	0.999999046	0.000123024	-0.000167847	0.0001297	8.913016319	-2.95214653	2.88169384	0.006151199	-0.008392334	0.006484985	-0.720214844	0.576171875	0.308105469	890.1	-45.51039173	-64.63713333	-99.76414065	-50
5397	0	0.355773926	-0.117797852	0.116638184	0.999999046	-0.000167847	7.34329E-05	-6.10352E-05	8.894348145	-2.944946289	2.91595459	-0.008392334	0.003671646	-0.003051758	-0.720458984	0.578369141	0.313720703	890.16	-45.49360975	-64.64241229	-99.81063288	-50
5398	0	0.356076241	-0.117916107	0.116588593	0.999999046	-0.000335693	-9.15527E-05	-0.000214577	8.901906013	-2.947902679	2.914714813	-0.016784668	-0.004577637	-0.010728836	-0.72265625	0.576416016	0.311279297	890.14	-45.49831594	-64.6735518	-99.85523427	-51
5399	0	0.35559082	-0.118286133	0.117736816	0.999999046	-0.000492096	-5.24521E-05	-0.000209808	8.889770508	-2.95715332	2.94342041	-0.024604799	-0.002622604	-0.010490418	-0.720214844	0.576171875	0.308105469	890.2	-45.51475018	-64.70115512	-99.89971598	-51
5400	0	0.355347633	-0.119900703	0.116786957	0.999999046	-0.000342369	-0.000236511	-0.000306129	8.883690834	-2.997517586	2.91967392	-0.017118455	-0.011825562	-0.015306473	-0.722900391	0.576416016	0.314208984	890.1	-45.52946836	-64.75137037	-99.93279649	-51
5401	0	0.354248047	-0.120544434	0.1171875	0.999999046	6.10352E-05	-0.000277519	-0.00043869	8.856201172	-3.01361084	2.9296875	0.003051758	-0.013875962	-0.02193451	-0.72265625	0.573974609	0.314208984	890.2	-45.48239228	-64.81558971	-99.9847564	-51
5402	0	0.355762482	-0.12211132	0.116087914	0.999999046	0.00030899	-0.000377655	-0.000512123	8.894062042	-3.052783012	2.902197838	0.015449525	-0.018882753	-0.025606158	-0.72265625	0.576416016	0.311279297	890.16	-45.41173066	-64.89371096	-100.0230424	-51
5403	0	0.358581543	-0.121032715	0.11706543	0.999999046	0.000350952	-0.00033474	-0.000453949	8.964538574	-3.025817871	2.926635742	0.017547609	-0.016736985	-0.02269745	-0.725341797	0.576416016	0.317138672	890.2	-45.33856337	-64.96352632	-100.065517	-51
5404	0	0.357487679	-0.120077133	0.117214203	0.999999046	-0.000247002	-0.000219345	4.19617E-05	8.937191963	-3.001928329	2.930355072	-0.012350083	-0.010967255	0.002098084	-0.725097656	0.57421875	0.317382813	890.14	-45.39922454	-64.98350656	-100.0384031	-50
5405	0	0.356018066	-0.120666504	0.117553711	0.999999046	-0.000526428	-8.67844E-05	0.000335693	8.90045166	-3.016662598	2.938842773	-0.026321413	-0.004339218	0.016784669	-0.72265625	0.573974609	0.311279297	890.26	-45.51939378	-64.96865266	-99.97284274	-51
5406	0	0.356812477	-0.120175362	0.116936684	0.999999046	-4.19617E-05	-9.53674E-06	0.00026226	8.920311928	-3.004384041	2.923417091	-0.002098084	-0.000476837	0.013113022	-0.72265625	0.57421875	0.317138672	890.14	-45.5578292	-64.95346278	-99.94205575	-51
5407	0	0.355163574	-0.118347168	0.116638184	0.999999046	0.000221252	6.19888E-05	8.39233E-05	8.879089355	-2.958679199	2.91595459	0.011062622	0.003099442	0.004196167	-0.725097656	0.572021484	0.314697266	890.14	-45.52281196	-64.94705376	-99.96251744	-51
5408	0	0.357692719	-0.117197037	0.115756989	0.999999046	0.000287056	0.000133514	0.000121117	8.942317963	-2.929925919	2.893924713	0.014352799	0.00667572	0.006055832	-0.725341797	0.576416016	0.317138672	890.14	-45.474019	-64.93191572	-99.9863059	-50
5409	0	0.357788086	-0.11706543	0.115722656	0.999999046	0.000125885	0.000142097	3.05176E-05	8.944702148	-2.926635742	2.893066406	0.006294251	0.007104874	0.001525879	-0.72265625	0.57421875	0.317138672	890.14	-45.42654165	-64.92354979	-100.0302958	-50
5410	0	0.357076645	-0.116997719	0.113960266	0.999999046	7.05719E-05	0.000102997	0.000163078	8.926916122	-2.92494297	2.849006653	0.003528595	0.005149841	0.008153915	-0.725097656	0.576416016	0.311279297	890.14	-45.41506449	-64.90761643	-100.0348702	-50
5411	0	0.357299805	-0.116699219	0.114013672	0.999999046	0.00019455	0.000138283	0.000190735	8.932495117	-2.917480469	2.850341797	0.009727478	0.006914139	0.009536743	-0.72265625	0.576171875	0.308349609	890.2	-45.38801411	-64.88671752	-100.0373361	-50
5412	0	0.357834816	-0.115999222	0.113180161	0.999999046	9.25064E-05	4.00543E-05	-3.05176E-05	8.945870399	-2.899980545	2.829504013	0.00462532	0.002002716	-0.001525879	-0.72265625	0.576416016	0.311279297	890.14	-45.35180478	-64.8919636	-100.0652785	-50
5413	0	0.35723877	-0.115539551	0.111816406	0.999999046	-0.000133514	1.62125E-05	-0.000148773	8.930969238	-2.88848877	2.795410156	-0.00667572	0.000810623	-0.00743866	-0.72265625	0.573974609	0.311279297	890.1	-45.32540844	-64.90899691	-100.1138127	-50
5414	0	0.357574463	-0.115647316	0.113870621	0.999999046	-9.91821E-05	-8.01086E-05	-0.000153542	8.939361572	-2.891182899	2.846765518	-0.004959106	-0.004005432	-0.007677078	-0.720214844	0.573974609	0.314208984	890.16	-45.31092865	-64.93433395	-100.1445884	-51
5415	0	0.356750488	-0.11529541	0.111999512	0.999999046	-0.000164032	-0.000170708	-0.000328064	8.918762207	-2.882385254	2.799987793	-0.008201599	-0.008535385	-0.016403199	-0.725097656	0.57421875	0.311523438	890.14	-45.28959456	-64.98138695	-100.1903894	-51
5416	0	0.357170105	-0.116014481	0.112692833	0.999999046	-0.000348091	-7.05719E-05	-0.000411987	8.929252625	-2.900362015	2.817320824	-0.017404557	-0.003528595	-0.020599366	-0.725097656	0.572021484	0.314697266	890.14	-45.25730743	-65.02733238	-100.2756497	-51
5417	0	0.358398438	-0.115356445	0.11517334	0.999999046	-0.000228882	-0.000212669	-0.000396729	8.959960938	-2.883911133	2.879333496	-0.011444092	-0.010633469	-0.019836427	-0.724853516	0.569580078	0.314697266	890.12	-45.23848539	-65.08357666	-100.3322037	-51
5418	0	0.357806206	-0.115369797	0.115516663	0.999999046	-0.000423431	-0.000169754	-0.000289917	8.945155144	-2.884244919	2.887916565	-0.021171571	-0.008487702	-0.01449585	-0.725097656	0.572021484	0.314697266	890.06	-45.25270444	-65.12771213	-100.3709122	-50
5419	0	0.357299805	-0.115661621	0.116638184	0.999999046	-0.000579834	4.29153E-05	-0.000450134	8.932495117	-2.891540527	2.91595459	-0.028991702	0.002145767	-0.022506716	-0.727294922	0.569824219	0.314941406	890.16	-45.21923237	-65.16769221	-100.4844464	-51
5420	0	0.360261917	-0.115226746	0.114520073	0.999999046	-0.000775337	0.000246048	-0.00043869	9.006547928	-2.88066864	2.863001823	-0.038766866	0.0123024	-0.021934512	-0.727294922	0.569824219	0.314941406	890.16	-45.17414744	-65.19041238	-100.6322814	-50
5421	0	0.359985352	-0.114074707	0.1171875	0.999998093	-0.001353264	0.000648499	-0.000347137	8.999633789	-2.851867676	2.9296875	-0.06766322	0.03242494	-0.017356879	-0.727294922	0.569824219	0.312011719	890.1	-45.14011359	-65.17317071	-100.8343858	-50
5422	0	0.359424591	-0.114201546	0.11636734	0.999998093	-0.001374245	0.000662804	-0.000305176	8.985614777	-2.855038643	2.909183502	-0.068712262	0.033140196	-0.015258795	-0.729492188	0.565429688	0.315429688	890.12	-45.11318441	-65.1513741	-101.0398629	-50
5423	0	0.358703613	-0.111694336	0.119750977	0.999999046	-0.00087738	0.000821114	-4.19617E-05	8.967590332	-2.792358398	2.993774414	-0.043869029	0.041055689	-0.002098084	-0.727050781	0.565185547	0.318115234	890.14	-45.04712622	-65.09535799	-101.2249933	-51
5424	0	0.361816406	-0.108633995	0.116796494	0.999997139	-0.001799583	0.001152039	-0.000145912	9.045410156	-2.715849876	2.919912338	-0.089979241	0.057601973	-0.007295614	-0.729492188	0.563232422	0.318603516	890.16	-45.01080741	-65.02119564	-101.4958554	-51
5425	0	0.363525391	-0.112365723	0.122558594	0.999997139	-0.001911163	0.001320839	-0.000473022	9.088134766	-2.809143066	3.063964844	-0.095558256	0.066042008	-0.023651145	-0.731933594	0.563232422	0.315673828	890.16	-44.90116685	-64.95972712	-101.8562818	-51
5426	0	0.366718292	-0.110603333	0.124874115	0.999998093	-0.000861168	0.001503944	-0.00083065	9.167957306	-2.765083313	3.121852875	-0.043058422	0.075197266	-0.041532542	-0.731445313	0.556396484	0.316162109	890.16	-44.57751972	-64.91172619	-102.3274528	-51
5427	0	0.358581543	-0.099365234	0.123474121	0.999997139	-0.000934601	0.001832008	-0.000610352	8.964538574	-2.484130859	3.086853027	-0.046730077	0.091600488	-0.030517602	-0.736328125	0.558837891	0.31640625	890.1	-44.24472913	-64.81841876	-102.8155731	-51
5428	0	0.357930183	-0.098251343	0.127775192	0.999996185	-0.001455307	0.00222683	-0.00049305	8.948254585	-2.456283569	3.194379807	-0.072765439	0.111341612	-0.024652511	-0.736328125	0.556640625	0.310791016	890.1	-43.92659323	-64.68233027	-103.3487291	-51
5429	0	0.361755371	-0.088562012	0.132629395	0.999993324	-0.001392365	0.003048897	-0.000595093	9.043884277	-2.214050293	3.315734863	-0.06961836	0.152445134	-0.029754696	-0.740966797	0.552246094	0.314208984	890.22	-43.44893866	-64.48511021	-104.0620194	-50
5430	0	0.367534637	-0.077979088	0.149425507	0.999984741	-0.002366066	0.004689217	-0.001664162	9.188365936	-1.949477196	3.735637665	-0.118303898	0.234462017	-0.083208505	-0.743164063	0.552246094	0.305664063	890.1	-42.63491006	-64.23113115	-105.2596978	-49
5431	0	0.365783691	-0.065307617	0.161987305	0.999950409	-0.004759789	0.008060455	-0.003288269	9.144592285	-1.63269043	4.049682617	-0.23799333	0.403029379	-0.16441615	-0.75	0.548095703	0.300537109	890.06	-41.30041149	-63.80491295	-107.337329	-49
5432	0	0.359007835	-0.058419228	0.181822777	0.999890327	-0.007113457	0.012231827	-0.004318237	8.975195885	-1.46048069	4.54556942	-0.355685812	0.611613651	-0.215919742	-0.759033203	0.537109375	0.290283203	890.06	-39.49925245	-63.06574562	-110.2449001	-48
5433	0	0.339111328	-0.05871582	0.18371582	0.999832153	-0.008044243	0.015472412	-0.005466461	8.477783203	-1.467895508	4.592895508	-0.402234535	0.773663675	-0.273338276	-0.775146484	0.526367188	0.27734375	890.14	-37.30124137	-62.0710441	-113.7395075	-48
5434	0	0.339841843	-0.06388855	0.179415703	0.999788284	-0.00675106	0.018403053	-0.006203651	8.496046066	-1.597213745	4.48539257	-0.337576811	0.920217507	-0.31020443	-0.788574219	0.513183594	0.26171875	890.28	-34.6866502	-60.78632175	-117.5766455	-49
5435	0	0.369689941	-0.055175781	0.186523438	0.999759674	-0.003573418	0.020816803	-0.005760193	9.242248535	-1.379394531	4.663085938	-0.178685159	1.040923311	-0.288032655	-0.809326172	0.500244141	0.240722656	890.16	-31.81920589	-59.1560182	-121.3512939	-51
5436	0	0.407039642	-0.039434433	0.184034348	0.999749184	-0.005545616	0.021318436	-0.003822327	10.17599106	-0.985860825	4.600858688	-0.277303912	1.066010602	-0.191132258	-0.824951172	0.491699219	0.204345703	890.14	-29.76793414	-57.28548498	-124.4958872	-53
5437	0	0.435241699	-0.031066895	0.162109375	0.999763489	-0.005740166	0.020870209	-0.001873016	10.88104248	-0.776672363	4.052734375	-0.287030869	1.043592548	-0.093658187	-0.838378906	0.485107422	0.170654297	890.14	-28.34207734	-55.3067086	-126.9845323	-52
5438	0	0.418704987	-0.031430244	0.161905289	0.999791145	-0.005519867	0.019552231	-0.002109528	10.46762466	-0.785756111	4.047632217	-0.276012542	0.977679533	-0.105483715	-0.847412109	0.480712891	0.142333984	890.14	-27.158745	-53.44809508	-129.1979277	-51
5439	0	0.399658203	-0.060974121	0.143920898	0.999791145	-0.004272461	0.018116951	-0.008377075	9.991455078	-1.524353027	3.598022461	-0.213637884	0.905910465	-0.418882851	-0.858642578	0.474121094	0.111572266	890.1	-25.25165084	-52.02469136	-132.1671825	-54
5440	0	0.392814636	-0.067849159	0.105409622	0.999703407	-0.001614571	0.020452499	-0.013077736	9.820365906	-1.696228981	2.635240555	-0.080736497	1.022725885	-0.653951322	-0.871582031	0.456298828	0.075683594	890.16	-22.48872363	-50.50769006	-135.8888481	-61
5441	0	0.284851074	-0.106750488	0.038696289	0.999564171	-0.011451721	0.022812843	-0.014812469	7.121276855	-2.668762207	0.967407227	-0.57266921	1.14080781	-0.740731027	-0.888916016	0.434326172	0.037841797	890.1	-20.76396664	-48.72605791	-139.8075323	-52
5442	0	0.037246704	-0.162504196	0.005431175	0.999721527	0.004460335	0.017575264	-0.015054703	0.931167603	-4.062604904	0.135779381	0.223037389	0.878844568	-0.752804837	-0.906494141	0.405517578	0.011962891	890.1	-17.6641403	-47.41182874	-143.2341162	-52
5443	0	-0.063903809	-0.123901367	0.026489258	0.99980545	0.010216713	0.012451172	-0.01134491	-1.597595215	-3.09753418	0.662231445	0.510868698	0.622598872	-0.567282183	-0.916503906	0.378662109	-0.031982422	890.16	-14.70528545	-46.41770598	-145.6417889	-55
5444	0	0.012192726	-0.123610497	-0.037629128	0.999810219	0.013865471	0.010848999	-0.008232117	0.304818153	-3.090262413	-0.940728188	0.693317196	0.542484106	-0.411631751	-0.925048828	0.360839844	-0.053222656	890.14	-11.85520303	-45.43765729	-147.3715243	-51
5445	0	0.072021484	0.061645508	-0.030456543	0.999847412	0.009797096	0.01279068	-0.006614685	1.800537109	1.541137695	-0.761413574	0.489879581	0.639566334	-0.330750976	-0.928466797	0.344970703	-0.089599609	890.1	-9.699673903	-44.15578619	-148.8108072	-53
5446	0	0.053483009	0.014663696	-0.07469368	0.999840736	-0.006759644	0.014024734	-0.008722305	1.337075233	0.366592407	-1.867341995	-0.33800012	0.70127395	-0.436138416	-0.927490234	0.3359375	-0.112304688	890.1	-9.268393696	-42.75514107	-150.5181459	-53
5447	0	0.013549805	0.064819336	-0.04107666	0.999986649	0.002728462	-0.000892639	-0.004264832	0.338745117	1.620483398	-1.026916504	0.136423712	-0.044632155	-0.213242516	-0.929199219	0.322509766	-0.122802734	890.2	-8.497736727	-42.95301504	-151.1467231	-53
5448	0	-0.026979446	-0.031181335	0.088841438	0.999940872	-0.007465363	-0.006539345	0.004300117	-0.67448616	-0.779533386	2.221035957	-0.373275406	-0.326973615	0.215010067	-0.9296875	0.322509766	-0.102294922	890.22	-9.901148952	-43.63053913	-150.3368335	-55
5449	0	0.151916504	-0.042541504	0.222045898	0.999882698	-0.010334015	-0.005763054	0.009632111	3.797912598	-1.063537598	5.551147461	-0.516720793	-0.288163875	0.481624217	-0.923339844	0.3359375	-0.077636719	890.16	-12.22569623	-44.08116401	-148.7071693	-54
5450	0	0.778595924	-0.132832527	0.921173096	0.998419762	-0.047655106	0.009799957	0.028122902	19.46489811	-3.320813179	23.02932739	-2.384011167	0.490256129	1.406886238	-0.910888672	0.364990234	-0.045654297	890.12	-20.26777676	-42.11098667	-145.0622901	-55
5451	0	1.066223145	-0.542358398	1.81652832	0.975152969	-0.205172539	0.048782349	0.067821503	26.65557861	-13.55895996	45.41320801	-10.34444338	2.459521369	3.419442479	-0.874511719	0.440429688	0.018798828	890.1	-46.63372379	-33.13756297	-141.1174742	-55
5452	0	0.587755203	-0.656545639	0.135529518	0.98291111	-0.166363716	-0.027532578	0.07381916	14.69388008	-16.41364098	3.388237953	-8.365892719	-1.384524193	3.712126607	-0.788818359	0.566162109	0.149414063	890.14	-70.03061579	-27.58196987	-133.1841077	-56
5453	0	0.452819824	-1.280029297	0.004638672	0.997531891	0.054440498	-0.018939972	0.040081024	11.32049561	-32.00073242	0.115966797	2.724266026	-0.947778283	2.005701192	-0.704589844	0.582763672	0.356445313	890.16	-65.6209366	-24.14233798	-129.0092159	-57
5454	0	0.305368423	-0.311993599	-0.18300724	0.977405548	0.206963539	-0.014683723	0.040352821	7.634210587	-7.799839973	-4.575181007	10.42682441	-0.73976608	2.032975394	-0.645263672	0.718505859	0.189941406	890.2	-43.44710198	-21.35357993	-124.5919665	-57
5455	0	0.201538086	0.061279297	0.234741211	0.99801445	0.05801487	0.009212494	0.022716522	5.038452148	1.531982422	5.868530273	2.902664614	0.460929761	1.136578356	-0.588378906	0.788330078	-0.075927734	890.1	-37.29299105	-18.86979108	-123.1689391	-58
5456	0	0.022855759	-0.112328529	0.332357407	0.999166489	0.011135101	0.02500248	0.030282021	0.571393967	-2.808213234	8.308935165	0.556909785	1.25047138	1.514521788	-0.547363281	0.811035156	-0.141357422	890.06	-36.35128274	-14.49679791	-122.0676392	-60
5457	0	0.041564941	-0.074279785	0.153381348	0.999120712	-0.012167931	0.023864746	0.032222748	1.039123535	-1.856994629	3.834533691	-0.608574717	1.19358678	1.61160926	-0.488037109	0.844482422	-0.185302734	890.2	-38.04315357	-10.0859053	-120.7708966	-61
5458	0	0.011755943	-0.112089157	0.138840675	0.998810768	-0.024202347	0.021877289	0.036208153	0.293898582	-2.802228928	3.471016884	-1.210596938	1.094297965	1.811125146	-0.422851563	0.8828125	-0.174560547	890.28	-41.0548279	-5.509458776	-119.1810835	-61
5459	0	0.024169922	-0.111816406	0.159362793	0.999087334	-0.017345428	0.016263008	0.035469055	0.604248047	-2.795410156	3.984069824	-0.867535204	0.813397726	1.773992155	-0.345703125	0.922851563	-0.153076172	890.12	-43.1657587	-1.400716119	-117.4247184	-61
5460	0	0.05560112	-0.115686417	0.201840401	0.999502182	-0.013116837	0.008313179	0.027450562	1.390028	-2.892160416	5.046010017	-0.655950603	0.415727891	1.372755719	-0.277587891	0.949707031	-0.138671875	890.06	-44.68108399	1.464885845	-115.8207787	-61
5461	0	-0.024291992	-0.153198242	0.268859863	0.999775887	-0.016670227	0.000649452	0.012985229	-0.607299805	-3.829956055	6.721496582	-0.833573453	0.03247503	0.649309847	-0.228515625	0.963867188	-0.110595703	890.12	-46.56525134	2.578043831	-114.8216761	-63
5462	0	-0.019850731	-0.204871178	0.274603844	0.999883652	-0.014258385	-0.004677773	-0.00266552	-0.496268272	-5.121779442	6.865096092	-0.712946839	-0.233897682	-0.133281146	-0.212646484	0.97265625	-0.07421875	890.22	-48.1971882	1.9877633	-114.6152619	-64
5463	0	-0.074829102	-0.263916016	0.276123047	0.999790192	0.009095192	-0.008808136	-0.016075134	-1.870727539	-6.597900391	6.903076172	0.45479134	-0.440437539	-0.803812815	-0.227294922	0.96875	-0.052734375	890.2	-47.16679765	-0.053486634	-115.0837236	-65
5464	0	-0.003350258	-0.253371239	0.246759415	0.999158859	0.027822495	-0.012469292	-0.027411461	-0.083756447	-6.334280968	6.168985367	1.391514759	-0.623639387	-1.370957315	-0.264892578	0.958740234	-0.075927734	890.16	-43.94511163	-3.296287711	-116.2351268	-65
5465	0	0.004638672	-0.240539551	0.260803223	0.998867035	0.029435158	-0.013839722	-0.034721375	0.115966797	-6.01348877	6.520080566	1.472313686	-0.692247407	-1.736724337	-0.324951172	0.931396484	-0.128662109	890.22	-40.39905845	-7.141982468	-118.1040933	-63
5466	0	0.059443474	-0.221426964	0.245689392	0.999082565	0.015898705	-0.016312599	-0.036243439	1.486086845	-5.535674095	6.142234802	0.795178208	-0.815879266	-1.812725847	-0.394775391	0.897460938	-0.162841797	890.16	-38.24961387	-11.21989209	-120.1430153	-61
5467	0	0.110046387	-0.262390137	0.312561035	0.999516487	-0.001987457	-0.013525963	-0.02791214	2.751159668	-6.559753418	7.814025879	-0.09938887	-0.676407072	-1.395831783	-0.462646484	0.861816406	-0.167724609	890.16	-38.12542418	-14.41611421	-121.7356541	-60
5468	0	0.123811722	-0.178629875	0.285964966	0.998892784	-0.042197227	-0.003629684	-0.020446777	3.095293045	-4.46574688	7.149124146	-2.110639932	-0.181551192	-1.02271612	-0.510253906	0.839111328	-0.134033203	890.2	-42.54714131	-16.25205192	-123.3185425	-60
5469	0	0.092895508	-0.522827148	0.308349609	0.998680115	-0.050311089	0.004024506	-0.00945282	2.322387695	-13.07067871	7.708740234	-2.516661227	0.201313816	-0.472848945	-0.540283203	0.827392578	-0.038085938	890.16	-48.00182128	-16.69635693	-124.4679356	-60
5470	0	0.085018158	-0.464259148	0.304769516	0.99990654	-0.012887001	0.0043993	0.000729561	2.125453949	-11.60647869	7.6192379	-0.644370024	0.219971799	0.036479173	-0.550537109	0.819091797	0.018798828	890.16	-49.39617898	-16.29692243	-124.8173928	-60
5471	0	0.065307617	-0.459960938	0.219726563	0.99995327	-0.004688263	0.004620552	0.006965637	1.63269043	-11.49902344	5.493164063	-0.234416736	0.23103114	0.348287192	-0.546142578	0.823486328	0.026855469	890.16	-49.98544276	-15.33834821	-124.7128441	-59
5472	0	0.071130753	-0.388948441	0.17094326	0.999864578	0.013713837	-0.002436638	0.008685112	1.778268814	-9.723711014	4.273581505	0.685722629	-0.121837366	0.434275103	-0.531982422	0.83203125	0.01953125	890.16	-48.6709213	-14.75614408	-123.8317419	-57
5473	0	0.097045898	-0.289733887	0.188049316	0.999558449	0.026870728	-0.009001732	0.008926392	2.426147461	-7.243347168	4.70123291	1.343734123	-0.450152839	0.446385271	-0.517578125	0.840332031	-0.002441406	890.16	-46.0001403	-14.69359119	-122.3392013	-55
5474	0	0.106618881	-0.192820549	0.213227272	0.99960041	0.0246315	-0.012088776	0.00670433	2.665472031	-4.820513725	5.330681801	1.231738829	-0.604519181	0.335261111	-0.505126953	0.846191406	-0.038574219	890.16	-43.60744723	-15.12652405	-120.7739584	-55
5475	0	0.106567383	-0.098693848	0.200195313	0.999829292	-0.004367828	-0.017539024	0.003799438	2.66418457	-2.467346191	5.004882813	-0.218403837	-0.877001085	0.189982726	-0.495605469	0.852539063	-0.057128906	890.14	-44.6097734	-16.26010786	-119.0072799	-54
5476	0	0.165732384	-0.201750755	0.292459488	0.999768257	-0.013415337	-0.014602661	-0.00836277	4.143309593	-5.043768883	7.311487198	-0.670818618	-0.730189428	-0.418170787	-0.493896484	0.852783203	-0.016357422	890.1	-46.32517297	-18.11350285	-118.4626526	-54
5477	0	0.23815918	-0.342346191	0.440673828	0.999519348	0.030522346	0.000427246	-0.005386353	5.953979492	-8.558654785	11.0168457	1.526361815	0.021365727	-0.269360773	-0.512695313	0.842285156	-0.002929688	890.16	-42.68171557	-18.51063837	-118.9657798	-54
5478	0	0.183509827	-0.144496918	0.359922409	0.999951363	0.008216858	0.005304337	-0.00083065	4.587745667	-3.612422943	8.998060226	0.410849493	0.265221086	-0.041533183	-0.518554688	0.835449219	-0.060302734	890.14	-41.58582261	-18.12588508	-119.4823542	-54
5479	0	0.127319336	-0.265258789	0.286376953	0.999757767	-0.02175045	0.002590179	0.001873016	3.182983398	-6.631469727	7.159423828	-1.087610126	0.129519406	0.093658363	-0.518798828	0.837646484	-0.0546875	890.16	-44.06856937	-17.7645585	-119.5459456	-54
5480	0	0.089301109	-0.315944672	0.262618065	0.999998093	0.000198364	-0.001616478	8.29697E-05	2.232527733	-7.898616791	6.565451622	0.009918217	-0.080823934	0.004148485	-0.514892578	0.842285156	-0.020263672	890.26	-44.09626539	-17.89150547	-119.4128717	-54
5481	0	0.111633301	-0.28894043	0.302734375	0.999961853	0.00817585	-0.001365662	0.002651215	2.79083252	-7.223510742	7.568359375	0.408797656	-0.068283943	0.132562403	-0.514404297	0.83984375	-0.037597656	890.16	-43.2712853	-17.79418025	-119.0820042	-54
5482	0	0.099182129	-0.237605095	0.265851021	0.999988556	0.004612923	-0.000849724	-0.00063324	2.479553223	-5.940127373	6.64627552	0.230646995	-0.042486349	-0.031662106	-0.509765625	0.842041016	-0.041015625	890.2	-42.75272518	-17.91347784	-119.0769562	-52
5483	0	0.124328613	-0.247497559	0.278015137	0.999995232	-0.001255035	0.000107765	-0.002620697	3.108215332	-6.187438965	6.950378418	-0.062751858	0.005388267	-0.131035036	-0.51171875	0.837402344	-0.049072266	890.16	-42.82736718	-18.10730707	-119.3267086	-54
5484	0	0.130368233	-0.255513191	0.278438568	0.999997139	-0.000855446	0.00078392	-0.001777649	3.259205818	-6.387829781	6.960964203	-0.042772325	0.039196044	-0.088882513	-0.516601563	0.83984375	-0.046142578	890.2	-42.86140368	-18.17931647	-119.5567649	-54
5485	0	0.130126953	-0.251098633	0.274230957	0.999996185	-0.001898766	0.001205444	-0.001091003	3.253173828	-6.27746582	6.855773926	-0.094938377	0.06027228	-0.054550228	-0.521484375	0.835693359	-0.039794922	890.26	-43.02277091	-18.1632279	-119.7633177	-54
5486	0	0.130383492	-0.256015778	0.276259422	0.999998093	-0.001412392	0.001105309	0.000156403	3.259587288	-6.40039444	6.906485558	-0.070619621	0.055265456	0.007820134	-0.521484375	0.835693359	-0.039794922	890.22	-43.16513685	-18.05879977	-119.8520655	-54
5487	0	0.122802734	-0.251586914	0.272521973	0.999998093	-0.001044273	0.000892639	0.000919342	3.070068359	-6.289672852	6.813049316	-0.052213693	0.044631978	0.045967123	-0.521484375	0.835693359	-0.042724609	890.22	-43.2912637	-17.91260564	-119.8580659	-54
5488	0	0.123064041	-0.254891396	0.274590492	0.999998093	-0.001199722	0.000782967	0.000933647	3.076601028	-6.372284889	6.864762306	-0.059986144	0.03914835	0.046682381	-0.519042969	0.835449219	-0.042724609	890.1	-43.43800299	-17.77459289	-119.8540883	-54
5489	0	0.119140625	-0.258239746	0.273803711	0.999995232	-0.002559662	0.001431465	0.000644684	2.978515625	-6.455993652	6.845092773	-0.127983286	0.071573365	0.03223424	-0.519287109	0.837890625	-0.037109375	890.12	-43.71626626	-17.60553932	-119.9294322	-54
5490	0	0.117077827	-0.25888443	0.262625694	0.999994278	-0.00259304	0.001706123	5.34058E-05	2.926945686	-6.472110748	6.565642357	-0.129652232	0.085306305	0.002670292	-0.516845703	0.837646484	-0.037353516	890.16	-43.97619189	-17.46112523	-120.0784672	-52
5491	0	0.119018555	-0.263977051	0.273254395	0.999997139	-0.001064301	0.001782417	-9.91821E-05	2.975463867	-6.59942627	6.831359863	-0.053215065	0.089120929	-0.00495911	-0.519287109	0.840087891	-0.031494141	890.16	-44.05525488	-17.32303812	-120.2471417	-54
5492	0	0.115085602	-0.259543419	0.278606415	0.999997139	-0.001505852	0.001365662	-0.000230789	2.877140045	-6.488585472	6.96516037	-0.07529264	0.068283129	-0.011539467	-0.519287109	0.837890625	-0.034179688	890.26	-44.19168124	-17.22992392	-120.3935331	-52
5493	0	0.110168457	-0.262573242	0.27545166	0.999999046	-0.001098633	0.000256538	-0.000240326	2.754211426	-6.564331055	6.886291504	-0.054931653	0.012826922	-0.012016299	-0.519042969	0.835693359	-0.033935547	890.2	-44.30848027	-17.22860392	-120.4485245	-52
5494	0	0.11265564	-0.265387535	0.277062416	0.999999046	0.000484467	-0.000551224	0.000121117	2.816390991	-6.634688377	6.926560402	0.02422333	-0.02756119	0.006055832	-0.516845703	0.835449219	-0.03125	890.16	-44.27285296	-17.26442499	-120.4031266	-53
5495	0	0.116394043	-0.261413574	0.268798828	0.999999046	3.43323E-05	-0.000689507	-0.000179291	2.909851074	-6.535339355	6.719970703	0.001716614	-0.034475329	-0.008964539	-0.519287109	0.837890625	-0.03125	890.2	-44.28451915	-17.3357029	-120.3722112	-53
5496	0	0.121801376	-0.264526367	0.267122269	0.999999046	0.000483513	-0.000366211	-0.0002985	3.045034409	-6.61315918	6.678056717	0.024175646	-0.018310548	-0.014925004	-0.516845703	0.837646484	-0.034423828	890.2	-44.23368388	-17.39028744	-120.3767084	-53
5497	0	0.120422363	-0.262145996	0.272033691	0.999999046	0.000133514	0.000142097	-6.48499E-05	3.010559082	-6.553649902	6.800842285	0.00667572	0.007104874	-0.003242493	-0.519042969	0.835693359	-0.033935547	890.22	-44.21604905	-17.38462055	-120.4058292	-53
5498	0	0.118610382	-0.260595322	0.267191887	0.999999046	-0.000574112	0.000593185	-6.58035E-05	2.965259552	-6.514883041	6.679797173	-0.0287056	0.029659275	-0.003290177	-0.521728516	0.837890625	-0.03125	890.22	-44.26816789	-17.34215646	-120.4732376	-53
5499	0	0.118408203	-0.262023926	0.270568848	0.999999046	-0.00030899	0.000618935	5.72205E-05	2.960205078	-6.550598145	6.764221191	-0.015449525	0.030946734	0.002861023	-0.519287109	0.837890625	-0.034179688	890.2	-44.29233058	-17.28788241	-120.5308334	-53
5500	0	0.11663723	-0.262816429	0.272259712	0.999999046	-0.000149727	0.000589371	0.000347137	2.915930748	-6.570410728	6.806492805	-0.007486344	0.029468539	0.017356874	-0.519287109	0.837890625	-0.028320313	890.2	-44.30625256	-17.21285301	-120.5607809	-53
5501	0	0.115783691	-0.258666992	0.269836426	0.999999046	-0.000602722	0.000908852	0.000408173	2.894592285	-6.466674805	6.745910645	-0.030136115	0.045442591	0.020408635	-0.517089844	0.840087891	-0.031494141	890.2	-44.36552657	-17.106829	-120.6107849	-53
5502	0	0.11623764	-0.26378727	0.269668579	0.999999046	-0.000497818	0.000711441	0.000666618	2.90594101	-6.59468174	6.741714478	-0.024890905	0.035572059	0.033330924	-0.516845703	0.837646484	-0.034423828	890.22	-44.42413416	-16.99635867	-120.6246766	-52
5503	0	0.116760254	-0.264831543	0.27331543	0.999999046	-0.000289917	0.000592232	0.000652313	2.919006348	-6.620788574	6.832885742	-0.014495852	0.029611592	0.032615666	-0.516845703	0.837890625	-0.028564453	890.2	-44.46130309	-16.89687392	-120.6300064	-53
5504	0	0.115362167	-0.263858795	0.271529198	0.999999046	-0.000655174	0.000534058	0.000559807	2.884054184	-6.596469879	6.788229942	-0.032758718	0.026702885	0.027990346	-0.514404297	0.837646484	-0.034423828	890.16	-44.53928136	-16.80964662	-120.6385168	-53
5505	0	0.114379883	-0.26361084	0.270507813	0.999999046	-0.000217438	0.000443459	0.000541687	2.85949707	-6.590270996	6.762695313	-0.010871888	0.02217293	0.027084353	-0.512207031	0.83984375	-0.034667969	890.2	-44.56869464	-16.73134633	-120.6391705	-52
5506	0	0.115069389	-0.2660532	0.274155617	0.999999046	5.53131E-05	0.000135422	0.000347137	2.876734734	-6.651329994	6.853890419	0.002765656	0.006771088	0.017356873	-0.516845703	0.840087891	-0.034423828	890.16	-44.56931844	-16.69389205	-120.6346123	-53
5507	0	0.114135742	-0.264953613	0.270507813	0.999999046	-0.000461578	0.000115395	0.000144958	2.853393555	-6.623840332	6.762695313	-0.023078919	0.00576973	0.007247925	-0.512207031	0.842041016	-0.034912109	890.14	-44.62461671	-16.6744155	-120.6411929	-53
5508	0	0.114545822	-0.266457558	0.270470619	0.999999046	-5.05447E-05	-0.000112534	0.000121117	2.863645554	-6.661438942	6.76176548	-0.002527237	-0.005626678	0.006055832	-0.514648438	0.83984375	-0.034667969	890.16	-44.63766972	-16.67553003	-120.6338441	-53
5509	0	0.114624023	-0.263244629	0.267883301	0.999999046	4.57764E-05	-0.000121117	0.00019455	2.865600586	-6.581115723	6.69708252	0.002288818	-0.006055832	0.009727478	-0.514648438	0.83984375	-0.031738281	890.12	-44.64160619	-16.67157596	-120.619261	-54
5510	0	0.115745544	-0.264303207	0.268855095	0.999999046	8.01086E-05	6.67572E-05	0.000151634	2.893638611	-6.607580185	6.721377373	0.004005432	0.00333786	0.007581711	-0.514648438	0.840087891	-0.025878906	890.26	-44.63595656	-16.65593625	-120.6231683	-52
5511	0	0.114746094	-0.264404297	0.271118164	0.999999046	5.34058E-05	0.000191689	0.000255585	2.868652344	-6.610107422	6.777954102	0.002670288	0.009584427	0.012779236	-0.514648438	0.842285156	-0.034912109	890.22	-44.63274368	-16.62184391	-120.6293344	-53
5512	0	0.113836288	-0.264494896	0.269968987	0.999999046	-2.95639E-05	0.000205994	0.000247002	2.845907211	-6.612372398	6.749224663	-0.001478195	0.010299683	0.012350083	-0.514648438	0.840087891	-0.028808594	890.22	-44.63838802	-16.58735622	-120.6379109	-53
5513	0	0.113037109	-0.264526367	0.270996094	0.999999046	0.000167847	3.91006E-05	7.62939E-05	2.825927734	-6.61315918	6.774902344	0.008392334	0.001955032	0.003814697	-0.512207031	0.842041016	-0.034912109	890.26	-44.62113594	-16.58026365	-120.6447767	-52
5514	0	0.113829613	-0.268115044	0.270850182	0.999999046	0.000366211	-8.96454E-05	-0.000255585	2.845740318	-6.702876091	6.771254539	0.018310548	-0.004482269	-0.012779236	-0.509765625	0.842041016	-0.032226563	890.16	-44.57618734	-16.61042381	-120.6657527	-54
5515	0	0.112976074	-0.26361084	0.270751953	0.999999046	0.000778198	-0.000201225	-0.000339508	2.824401855	-6.590270996	6.768798828	0.038909917	-0.010061265	-0.016975405	-0.514648438	0.840087891	-0.028808594	890.16	-44.48449078	-16.65645165	-120.6883916	-52
5516	0	0.113508224	-0.261033058	0.27404213	0.999999046	0.000336647	-0.000265121	-0.000289917	2.837705612	-6.525826454	6.851053238	0.016832352	-0.013256074	-0.01449585	-0.514648438	0.842041016	-0.037841797	890.22	-44.44579055	-16.70374139	-120.7011743	-52
5517	0	0.115112305	-0.266235352	0.272033691	0.999999046	-0.000110626	-0.000220299	-0.000236511	2.877807617	-6.655883789	6.800842285	-0.005531311	-0.011014939	-0.011825562	-0.517089844	0.840087891	-0.031494141	890.26	-44.45853401	-16.74314275	-120.7147802	-52
5518	0	0.115232468	-0.263737679	0.267346382	0.999999046	8.01086E-05	-8.39233E-05	2.57492E-05	2.880811691	-6.593441963	6.683659554	0.004005432	-0.004196167	0.00128746	-0.514648438	0.83984375	-0.031738281	890.16	-44.45262869	-16.75047617	-120.7152056	-52
5519	0	0.115844727	-0.26373291	0.272399902	0.999999046	0.000514984	-6.00815E-05	-3.05176E-05	2.896118164	-6.593322754	6.809997559	0.025749208	-0.003004074	-0.001525879	-0.516845703	0.840087891	-0.037353516	890.28	-44.39478585	-16.76047311	-120.7249126	-54
5520	0	0.113207817	-0.260333061	0.272409439	0.999999046	-8.10623E-05	0.000150681	-1.62125E-05	2.830195427	-6.50832653	6.810235977	-0.004053116	0.007534027	-0.000810623	-0.514404297	0.837646484	-0.034423828	890.26	-44.40026671	-16.7520688	-120.749524	-54
5521	0	0.114257813	-0.263122559	0.271240234	0.999999046	3.05176E-05	8.86917E-05	-8.01086E-05	2.856445313	-6.578063965	6.781005859	0.001525879	0.004434586	-0.004005432	-0.514404297	0.837646484	-0.034423828	890.14	-44.39279425	-16.75390365	-120.7740592	-52
5522	0	0.115533829	-0.266139984	0.273656845	0.999999046	0.00022316	0.000228882	-0.000102997	2.888345718	-6.653499603	6.841421127	0.01115799	0.011444092	-0.005149841	-0.514404297	0.83984375	-0.037597656	890.14	-44.35924261	-16.74612811	-120.8110769	-54
5523	0	0.114318848	-0.263793945	0.273498535	0.999999046	8.7738E-05	0.000164986	-6.48499E-05	2.857971191	-6.594848633	6.837463379	0.004386902	0.008249283	-0.003242493	-0.514404297	0.837646484	-0.037353516	890.16	-44.34356417	-16.74052995	-120.8404245	-54
5524	0	0.11401844	-0.261473656	0.274435997	0.999999046	0.000128746	7.24792E-05	3.8147E-05	2.850461006	-6.536841393	6.860899925	0.006437302	0.003623962	0.001907349	-0.516845703	0.840087891	-0.034423828	890.2	-44.32771299	-16.73427223	-120.8535027	-54
5525	0	0.114868164	-0.263427734	0.273132324	0.999999046	-0.000331879	-0.000178337	0.0001297	2.871704102	-6.585693359	6.828308105	-0.016593934	-0.008916855	0.006484986	-0.516845703	0.840087891	-0.037353516	890.26	-44.37283318	-16.74128709	-120.8385711	-54
5526	0	0.115018845	-0.265470505	0.27236557	0.999999046	0.000207901	-0.000131607	7.15256E-05	2.875471115	-6.636762619	6.809139252	0.01039505	-0.006580353	0.003576279	-0.516845703	0.840087891	-0.034423828	890.26	-44.35352483	-16.7491734	-120.8318954	-54
5527	0	0.114929199	-0.262023926	0.273071289	0.999999046	0.00012207	4.673E-05	0.000179291	2.87322998	-6.550598145	6.826782227	0.006103516	0.002336502	0.008964539	-0.516845703	0.837646484	-0.037353516	890.26	-44.34224263	-16.73387641	-120.8331611	-52
5528	0	0.114260674	-0.261449814	0.273449898	0.999999046	-0.000184059	7.24792E-05	0.000346184	2.856516838	-6.536245346	6.836247444	-0.009202957	0.003623962	0.017309189	-0.511962891	0.837646484	-0.034667969	890.1	-44.3693363	-16.70313569	-120.8176355	-54
5529	0	0.114501953	-0.263122559	0.273681641	0.999999046	-0.000183105	5.43594E-05	0.000370026	2.862548828	-6.578063965	6.842041016	-0.009155274	0.002717972	0.018501282	-0.516845703	0.840087891	-0.037353516	890.2	-44.3971832	-16.67199719	-120.8032538	-54
5530	0	0.113970757	-0.265321732	0.274389267	0.999999046	-0.000190735	0.000160217	0.000259399	2.849268913	-6.633043289	6.859731674	-0.009536743	0.008010864	0.012969971	-0.511962891	0.83984375	-0.040527344	890.2	-44.42055145	-16.64104895	-120.8034717	-54
5531	0	0.114013672	-0.263427734	0.271484375	0.999999046	-3.05176E-05	-1.43051E-05	0.000209808	2.850341797	-6.585693359	6.787109375	-0.001525879	-0.000715256	0.010490418	-0.512207031	0.83984375	-0.034667969	890.2	-44.42846613	-16.62841514	-120.7928027	-52
5532	0	0.114215851	-0.264102936	0.273478508	0.999999046	-1.43051E-05	7.43866E-05	0.00012207	2.855396271	-6.602573395	6.8369627	-0.000715256	0.00371933	0.006103516	-0.514648438	0.83984375	-0.034667969	890.1	-44.43014039	-16.61559947	-120.7997137	-53
5533	0	0.113342285	-0.264099121	0.272827148	0.999999046	-0.000118256	-1.81198E-05	0.000156403	2.833557129	-6.602478027	6.820678711	-0.005912781	-0.000905991	0.007820129	-0.514404297	0.83984375	-0.037597656	890.16	-44.4466939	-16.60760573	-120.7964984	-54
5534	0	0.113512993	-0.264931679	0.271904945	0.999999046	-1.33514E-05	-0.000123978	8.67844E-05	2.837824821	-6.623291969	6.797623634	-0.000667572	-0.006198883	0.004339218	-0.512207031	0.83984375	-0.034667969	890.1	-44.45203913	-16.6138765	-120.7874976	-52
5535	0	0.113891602	-0.26348877	0.272705078	0.999999046	-3.8147E-05	-0.00026226	0.00019455	2.847290039	-6.587219238	6.817626953	-0.001907349	-0.013113022	0.009727478	-0.514648438	0.83984375	-0.034667969	890.14	-44.46606052	-16.62284805	-120.7606598	-54
5536	0	0.11417675	-0.263676643	0.274577141	0.999999046	-0.000115395	-0.000156403	8.01086E-05	2.854418755	-6.591916084	6.86442852	-0.00576973	-0.007820129	0.004005432	-0.514404297	0.83984375	-0.040527344	890.2	-44.48343388	-16.6323737	-120.7534433	-52
5537	0	0.113708496	-0.262390137	0.270202637	0.999999046	-3.8147E-06	1.23978E-05	0.000209808	2.842712402	-6.559753418	6.755065918	-0.000190735	0.000619888	0.010490418	-0.514648438	0.842285156	-0.034912109	890.2	-44.48708027	-16.61774407	-120.7470919	-54
5538	0	0.114872932	-0.262318611	0.27130127	0.999999046	-0.000255585	0.000167847	0.000285149	2.871823311	-6.557965279	6.782531738	-0.012779236	0.008392334	0.014257431	-0.514648438	0.83984375	-0.031738281	890.16	-44.51758219	-16.5844664	-120.7489236	-52
5539	0	0.114501953	-0.265563965	0.271728516	0.999999046	-0.000400543	0.000283241	0.000362396	2.862548828	-6.639099121	6.793212891	-0.020027162	0.014162064	0.018119813	-0.511962891	0.83984375	-0.037597656	890.22	-44.56380175	-16.5356179	-120.7529474	-52
5540	0	0.112324715	-0.265741348	0.271761894	0.999999046	-0.000281334	0.000261307	0.000320435	2.808117867	-6.643533707	6.794047356	-0.014066697	0.013065339	0.016021729	-0.512207031	0.83984375	-0.034667969	890.16	-44.59584526	-16.49190731	-120.7590438	-54
5541	0	0.113586426	-0.265319824	0.274108887	0.999999046	-0.000205994	0.000145912	3.8147E-05	2.839660645	-6.632995605	6.852722168	-0.010299683	0.007295609	0.001907349	-0.512207031	0.842041016	-0.031982422	890.22	-44.61505537	-16.48035635	-120.7773843	-52
5542	0	0.113242149	-0.265808105	0.274336815	0.999999046	-0.000236511	0.000167847	1.04904E-05	2.831053734	-6.645202637	6.858420372	-0.011825562	0.008392334	0.000524521	-0.514648438	0.83984375	-0.034667969	890.16	-44.63645182	-16.46925687	-120.8046334	-52
5543	0	0.113830566	-0.263244629	0.27142334	0.999999046	-0.000419617	-2.86102E-06	0.000137329	2.84576416	-6.581115723	6.785583496	-0.020980836	-0.000143051	0.006866455	-0.512207031	0.842041016	-0.034912109	890.16	-44.68583772	-16.46196312	-120.8028438	-52
5544	0	0.114491463	-0.265336037	0.271870613	0.999999046	-0.000153542	-1.71661E-05	0.000212669	2.862286568	-6.633400917	6.796765327	-0.007677078	-0.000858307	0.010633469	-0.514648438	0.83984375	-0.034667969	890.16	-44.70681665	-16.44986441	-120.7980873	-52
5545	0	0.112854004	-0.264404297	0.269836426	0.999999046	-0.000320435	7.34329E-05	0.000465393	2.821350098	-6.610107422	6.745910645	-0.016021729	0.003671646	0.023269655	-0.512207031	0.842041016	-0.034912109	890.1	-44.75079454	-16.41005854	-120.7762912	-52
5546	0	0.112139702	-0.26614666	0.269742966	0.999999046	-0.000240326	0.000375748	0.000469208	2.803492546	-6.653666496	6.743574142	-0.012016297	0.018787385	0.02346039	-0.512451172	0.842041016	-0.029052734	890.16	-44.77850672	-16.34535016	-120.7796153	-54
5547	0	0.113037109	-0.268493652	0.279052734	0.999999046	-0.000526428	0.000733376	0.000591278	2.825927734	-6.712341309	6.976318359	-0.026321416	0.036668785	0.02956391	-0.512207031	0.842041016	-0.034912109	890.16	-44.83320567	-16.24167295	-120.8052658	-54
5548	0	0.110992432	-0.264205933	0.265570641	0.999999046	-0.000128746	0.00091362	0.000442505	2.774810791	-6.605148315	6.639266014	-0.006437303	0.045681008	0.022125248	-0.510009766	0.842041016	-0.029296875	890.22	-44.83470479	-16.1354565	-120.855623	-54
5549	0	0.109130859	-0.269470215	0.271057129	0.999999046	-0.000579834	0.000580788	-0.000205994	2.728271484	-6.736755371	6.776428223	-0.028991703	0.029039386	-0.010299684	-0.507568359	0.842041016	-0.032226563	890.2	-44.8805631	-16.10862548	-120.930011	-54
5550	0	0.108375549	-0.269742966	0.272823334	0.999999046	0.000240326	0.00012207	-0.000286102	2.709388733	-6.743574142	6.820583344	0.012016297	0.006103516	-0.014305115	-0.512207031	0.842041016	-0.031982422	890.2	-44.84127564	-16.12540406	-120.976853	-54
5551	0	0.107849121	-0.264892578	0.273620605	0.999999046	6.10352E-05	-0.000231743	-0.000328064	2.696228027	-6.622314453	6.840515137	0.003051758	-0.011587143	-0.016403199	-0.512451172	0.842041016	-0.029052734	890.12	-44.82959629	-16.17418791	-120.9959789	-54
5552	0	0.109977722	-0.263995171	0.267314911	0.999999046	6.19888E-05	-0.000574112	-0.000465393	2.749443054	-6.599879265	6.682872772	0.003099442	-0.0287056	-0.023269655	-0.512451172	0.842041016	-0.029052734	890.16	-44.82259188	-16.26193346	-120.996485	-54
5553	0	0.113769531	-0.267333984	0.271850586	0.999999046	0.000682831	-0.00045681	-0.000324249	2.844238281	-6.683349609	6.796264648	0.034141545	-0.022840503	-0.016212465	-0.514648438	0.842285156	-0.031982422	890.22	-44.74498071	-16.32886484	-120.9967656	-54
5554	0	0.114248276	-0.263534546	0.270275116	0.999999046	0.000188828	4.3869E-05	-0.000210762	2.856206894	-6.588363647	6.756877899	0.009441376	0.002193451	-0.010538101	-0.512207031	0.842041016	-0.034912109	890.16	-44.71474654	-16.34605367	-121.0266027	-54
5555	0	0.113708496	-0.263000488	0.268371582	0.999999046	-5.34058E-05	0.000329018	-5.34058E-05	2.842712402	-6.575012207	6.709289551	-0.002670288	0.016450882	-0.002670288	-0.514648438	0.842285156	-0.031982422	890.16	-44.70926369	-16.32748303	-121.068716	-52
5556	0	0.112215042	-0.265704155	0.272871971	0.999999046	-0.000332832	0.000551224	5.62668E-05	2.805376053	-6.642603874	6.821799278	-0.016641618	0.02756119	0.002813339	-0.514648438	0.83984375	-0.034667969	890.26	-44.73310923	-16.28199693	-121.1226693	-54
5557	0	0.109985352	-0.266357422	0.272460938	0.999999046	-0.000400543	0.000382423	0.000148773	2.749633789	-6.658935547	6.811523438	-0.020027162	0.019121171	0.00743866	-0.512207031	0.83984375	-0.031982422	890.16	-44.77086249	-16.24272746	-121.1512258	-54
5558	0	0.109635353	-0.267525673	0.274283409	0.999999046	5.72205E-06	0.000200272	0.000221252	2.740883827	-6.688141823	6.857085228	0.000286102	0.01001358	0.011062622	-0.511962891	0.837646484	-0.037597656	890.28	-44.76798287	-16.2123254	-121.1614945	-54
5559	0	0.110900879	-0.265991211	0.271484375	0.999999046	-0.000152588	9.53674E-07	4.19617E-05	2.772521973	-6.649780273	6.787109375	-0.007629395	4.76837E-05	0.002098084	-0.512207031	0.842041016	-0.037841797	890.22	-44.7836442	-16.21261437	-121.1671175	-54
5560	0	0.112037659	-0.265900612	0.269632339	0.999999046	2.00272E-05	2.09808E-05	0.000305176	2.800941467	-6.647515297	6.740808487	0.001001358	0.001049042	0.015258789	-0.514404297	0.83984375	-0.037597656	890.2	-44.78530008	-16.19011228	-121.1571058	-54
5561	0	0.113464355	-0.264343262	0.270202637	0.999999046	-0.000179291	0.000107765	0.000335693	2.836608887	-6.608581543	6.755065918	-0.008964539	0.00538826	0.016784668	-0.512207031	0.83984375	-0.031982422	890.22	-44.80841754	-16.15825236	-121.1483465	-54
5562	0	0.111333847	-0.267506599	0.271717072	0.999999046	-0.000274658	0.000331879	0.00031662	2.783346176	-6.687664986	6.792926788	-0.013732911	0.016593934	0.015830994	-0.509765625	0.83984375	-0.031982422	890.12	-44.8367647	-16.10973558	-121.1577158	-52
5563	0	0.110107422	-0.265991211	0.269592285	0.999999046	-0.000106812	0.0002985	0.000247955	2.752685547	-6.649780273	6.739807129	-0.005340576	0.014925003	0.012397766	-0.512207031	0.842041016	-0.031982422	890.2	-44.8450615	-16.06949908	-121.1719562	-54
5564	0	0.111399651	-0.265922546	0.272042274	0.999999046	0.000170708	0.000257492	0.000389099	2.784991264	-6.64806366	6.801056862	0.008535385	0.012874604	0.019454957	-0.512451172	0.844238281	-0.032226563	890.16	-44.82573447	-16.02125858	-121.1702282	-54
5565	0	0.110473633	-0.267333984	0.271240234	0.999999046	-0.000190735	0.000214577	0.000362396	2.76184082	-6.683349609	6.781005859	-0.009536744	0.010728836	0.018119813	-0.512207031	0.842041016	-0.037841797	890.2	-44.84820209	-15.97869793	-121.1709258	-54
5566	0	0.108942986	-0.266845703	0.271490097	0.999999046	-0.000236511	0.000198364	0.000220299	2.723574638	-6.671142578	6.787252426	-0.011825562	0.009918213	0.011014939	-0.509765625	0.842041016	-0.038085938	890.2	-44.872951	-15.94891248	-121.179631	-52
5567	0	0.108581543	-0.266540527	0.270446777	0.999999046	3.8147E-05	6.58035E-05	0.00019455	2.714538574	-6.663513184	6.761169434	0.001907349	0.003290176	0.009727478	-0.510009766	0.844238281	-0.03515625	890.14	-44.86868076	-15.93195623	-121.1774178	-52
5568	0	0.108686447	-0.266928673	0.271945953	0.999999046	-0.000100136	-1.14441E-05	2.57492E-05	2.717161179	-6.67321682	6.798648834	-0.00500679	-0.000572205	0.00128746	-0.509765625	0.842041016	-0.038085938	890.16	-44.87807556	-15.93489611	-121.1850987	-54
5569	0	0.109436035	-0.266723633	0.268737793	0.999999046	-4.57764E-05	9.53674E-07	0.000160217	2.735900879	-6.66809082	6.718444824	-0.002288818	4.76837E-05	0.008010864	-0.509765625	0.842041016	-0.038085938	890.16	-44.88413114	-15.92600164	-121.1826696	-52
5570	0	0.109471321	-0.267821312	0.271886826	0.999999046	0.00012207	8.58307E-05	3.05176E-05	2.736783028	-6.695532799	6.797170639	0.006103516	0.004291534	0.001525879	-0.507324219	0.841796875	-0.03515625	890.2	-44.86596879	-15.92070575	-121.1942449	-54
5571	0	0.108276367	-0.266784668	0.26953125	0.999999046	-0.000160217	0.000153542	-3.05176E-05	2.70690918	-6.669616699	6.73828125	-0.008010864	0.007677078	-0.001525879	-0.509765625	0.844238281	-0.038085938	890.18	-44.87721613	-15.91482791	-121.2184523	-54
5572	0	0.110406876	-0.268818855	0.270820618	0.999999046	0.00014019	3.62396E-05	0.000102997	2.76017189	-6.720471382	6.770515442	0.007009506	0.001811981	0.005149841	-0.509765625	0.842041016	-0.032226563	890.2	-44.85989491	-15.90773803	-121.2216432	-52
5573	0	0.110351563	-0.264770508	0.269775391	0.999999046	-0.000152588	0.000164986	0.00019455	2.758789063	-6.619262695	6.744384766	-0.007629395	0.008249283	0.009727478	-0.512207031	0.842041016	-0.031982422	890.16	-44.87522958	-15.88289739	-121.2314951	-54
5574	0	0.109548569	-0.267458916	0.269363403	0.999999046	-0.000249863	0.000211716	0.000346184	2.738714218	-6.686472893	6.734085083	-0.012493134	0.010585785	0.017309189	-0.509765625	0.842041016	-0.03515625	890.22	-44.9041989	-15.84205128	-121.2309416	-53
5575	0	0.106262207	-0.266906738	0.271057129	0.999999046	-8.7738E-05	0.00017643	0.000362396	2.656555176	-6.672668457	6.776428223	-0.004386902	0.008821488	0.018119813	-0.510009766	0.844238281	-0.032470703	890.28	-44.91573357	-15.80264745	-121.2246603	-54
5576	0	0.106949806	-0.267215729	0.269582748	0.999999046	-0.000330925	0.000102997	0.000201225	2.673745155	-6.680393219	6.73956871	-0.01654625	0.005149841	0.010061264	-0.510009766	0.846435547	-0.035400391	890.22	-44.9531407	-15.78219533	-121.2253386	-52
5577	0	0.106079102	-0.268310547	0.271240234	0.999999046	0.000144958	-2.19345E-05	0.000175476	2.651977539	-6.707763672	6.781005859	0.007247925	-0.001096725	0.008773804	-0.507568359	0.844238281	-0.032470703	890.16	-44.93827728	-15.77385168	-121.2155762	-52
5578	0	0.105447769	-0.267415047	0.272289276	0.999999046	-4.76837E-05	-0.000152588	0.000217438	2.636194229	-6.685376167	6.807231903	-0.002384186	-0.007629395	0.010871887	-0.507568359	0.846435547	-0.035644531	890.16	-44.94936569	-15.7725748	-121.1909179	-54
5579	0	0.108581543	-0.267272949	0.271362305	0.999999046	-0.000232697	-0.000197411	7.24792E-05	2.714538574	-6.68182373	6.784057617	-0.011634827	-0.009870529	0.003623962	-0.509765625	0.842041016	-0.03515625	890.26	-44.97931871	-15.78670014	-121.1814135	-54
5580	0	0.109381676	-0.269673347	0.269910812	0.999999046	-0.000182152	3.62396E-05	0.000179291	2.734541893	-6.741833687	6.747770309	-0.00910759	0.001811981	0.008964539	-0.507568359	0.844238281	-0.035400391	890.16	-45.00066711	-15.77328559	-121.178094	-54
5581	0	0.109008789	-0.266845703	0.269836426	0.999999046	3.8147E-05	0.000126839	0.000179291	2.725219727	-6.671142578	6.745910645	0.001907349	0.006341934	0.008964539	-0.507568359	0.842041016	-0.032226563	890.12	-44.99467534	-15.75259974	-121.1835861	-54
5582	0	0.107562065	-0.26753521	0.270798683	0.999999046	-9.91821E-05	0.000244141	0.000220299	2.689051628	-6.688380241	6.769967079	-0.004959107	0.012207031	0.011014939	-0.510009766	0.846435547	-0.032470703	890.12	-45.002651	-15.71907451	-121.1956458	-54
5583	0	0.106262207	-0.267700195	0.269958496	0.999999046	-0.000240326	0.000191689	0.000240326	2.656555176	-6.692504883	6.748962402	-0.012016297	0.009584427	0.012016297	-0.507568359	0.844238281	-0.032470703	890.1	-45.02846115	-15.68812123	-121.2006709	-54
5584	0	0.107738495	-0.267516136	0.270786285	0.999999046	-4.29153E-05	2.86102E-05	0.000349998	2.693462372	-6.687903404	6.769657135	-0.002145767	0.001430512	0.017499924	-0.507568359	0.844238281	-0.032470703	890.16	-45.03781128	-15.66150692	-121.1836258	-54
5585	0	0.104309082	-0.26751709	0.271362305	0.999999046	-0.000144958	-1.04904E-05	0.00025177	2.607727051	-6.687927246	6.784057617	-0.007247925	-0.000524521	0.012588501	-0.507568359	0.846435547	-0.035644531	890.16	-45.05744132	-15.64587845	-121.1712613	-54
5586	0	0.105644226	-0.269663811	0.27030468	0.999999046	-3.8147E-05	1.71661E-05	0.000205994	2.641105652	-6.741595268	6.757616997	-0.001907349	0.000858307	0.010299683	-0.507568359	0.846435547	-0.032714844	890.14	-45.06321097	-15.63164375	-121.1645784	-54
5587	0	0.104919434	-0.267089844	0.271118164	0.999999046	0.000141144	-0.000109673	3.43323E-05	2.62298584	-6.677246094	6.777954102	0.00705719	-0.005483627	0.001716614	-0.505371094	0.846435547	-0.032714844	890.22	-45.0473443	-15.64150918	-121.1583701	-52
5588	0	0.107400894	-0.267998695	0.268239975	0.999999046	-0.000130653	-0.000102997	-1.14441E-05	2.685022354	-6.699967384	6.705999374	-0.006532669	-0.005149841	-0.000572205	-0.505126953	0.843994141	-0.032714844	890.06	-45.0615025	-15.6545972	-121.1581676	-52
5589	0	0.106384277	-0.267883301	0.270629883	0.999999046	-4.57764E-05	-0.000208855	0.000137329	2.659606934	-6.69708252	6.76574707	-0.002288818	-0.010442734	0.006866455	-0.505126953	0.846435547	-0.035644531	890.22	-45.07168524	-15.6641563	-121.1356169	-54
5590	0	0.105751991	-0.267327309	0.269705772	0.999999046	3.8147E-06	-0.000104904	0.000189781	2.643799782	-6.683182716	6.74264431	0.000190735	-0.005245209	0.00948906	-0.505371094	0.846435547	-0.032714844	890.18	-45.07499133	-15.6609993	-121.1172902	-52
5591	0	0.106811523	-0.266418457	0.268188477	0.999999046	0.000267029	-0.000163078	0.000236511	2.670288086	-6.660461426	6.704711914	0.013351441	-0.008153916	0.011825562	-0.502685547	0.846191406	-0.038818359	890.16	-45.0505191	-15.65879388	-121.0888462	-54
5592	0	0.110677719	-0.270356178	0.269211769	0.999999046	0.000527382	-0.000112534	0.000338554	2.766942978	-6.758904457	6.730294228	0.026369097	-0.005626679	0.01692772	-0.505371094	0.846435547	-0.029785156	890.12	-44.99749576	-15.64441164	-121.0575176	-54
5593	0	0.103393555	-0.270019531	0.275085449	0.999999046	-0.0001297	0.000191689	0.000370026	2.584838867	-6.750488281	6.87713623	-0.006484986	0.009584427	0.018501282	-0.502929688	0.846191406	-0.030029297	890.12	-45.01347684	-15.60260214	-121.0469933	-54
5594	0	0.10217762	-0.266747475	0.268707275	0.999999046	-0.000200272	-8.39233E-05	-8.10623E-05	2.554440498	-6.668686867	6.717681885	-0.01001358	-0.004196167	-0.004053116	-0.505126953	0.846435547	-0.035644531	890.22	-45.0335901	-15.61949942	-121.0555808	-52
5595	0	0.106506348	-0.268493652	0.271850586	0.999999046	1.14441E-05	-0.000380516	-0.000144958	2.662658691	-6.712341309	6.796264648	0.000572205	-0.019025803	-0.007247925	-0.502685547	0.846191406	-0.035888672	890.22	-45.03467657	-15.66557537	-121.0406937	-54
5596	0	0.108316422	-0.271019936	0.269637108	0.999999046	-0.000113487	-0.000303268	-5.72205E-05	2.707910538	-6.77549839	6.740927696	-0.005674362	-0.015163422	-0.002861023	-0.505126953	0.846435547	-0.035644531	890.16	-45.05045698	-15.69833257	-121.0278744	-54
5597	0	0.106811523	-0.267150879	0.268737793	0.999999046	0.000328064	-0.000498772	7.24792E-05	2.670288086	-6.678771973	6.718444824	0.016403199	-0.024938585	0.003623963	-0.505126953	0.843994141	-0.035644531	890.16	-45.02307529	-15.73641803	-120.9897472	-52
5598	0	0.107224464	-0.266136169	0.269170761	0.999999046	0.000389099	-0.000621796	0.000152588	2.68061161	-6.653404236	6.729269028	0.019454958	-0.031089786	0.007629395	-0.505126953	0.848632813	-0.038818359	890.2	-44.9933339	-15.77802028	-120.9315203	-52
5599	0	0.107910156	-0.269775391	0.268737793	0.999999046	0.000518799	-0.000540733	0.000175476	2.697753906	-6.744384766	6.718444824	0.025939944	-0.02703667	0.008773805	-0.505371094	0.844238281	-0.026855469	890.2	-44.94755899	-15.81124499	-120.8789282	-54
5600	0	0.106766701	-0.267823219	0.271280289	0.999999046	0.000245094	-0.000442505	0.00019455	2.669167519	-6.695580482	6.782007217	0.012254716	-0.022125245	0.009727479	-0.505126953	0.848632813	-0.038818359	890.16	-44.93133094	-15.83492262	-120.8327732	-54
5601	0	0.105773926	-0.266906738	0.269775391	0.999999046	0.000160217	-0.000346184	0.000183105	2.644348145	-6.672668457	6.744384766	0.008010864	-0.017309189	0.009155274	-0.505126953	0.843994141	-0.032714844	890.16	-44.92237329	-15.85162857	-120.798324	-52
5602	0	0.106229782	-0.26905632	0.271313667	0.999999046	9.34601E-05	-0.000444412	-0.000171661	2.655744553	-6.726408005	6.782841682	0.004673004	-0.022220612	-0.008583069	-0.505126953	0.846435547	-0.035644531	890.22	-44.91518909	-15.90490266	-120.7834001	-54
5603	0	0.108093262	-0.266540527	0.26965332	0.999999046	0.00018692	-0.000445366	3.8147E-05	2.702331543	-6.663513184	6.741333008	0.009346009	-0.022268296	0.001907349	-0.502929688	0.846191406	-0.032958984	890.16	-44.90218182	-15.94128571	-120.7467326	-54
5604	0	0.109596252	-0.267424583	0.271181107	0.999999046	0.000199318	-0.000480652	0.000137329	2.739906311	-6.685614586	6.779527664	0.009965897	-0.024032594	0.006866455	-0.505371094	0.848632813	-0.035888672	890.12	-44.89086989	-15.97256039	-120.7013086	-54
5605	0	0.107788086	-0.267700195	0.270263672	0.999999046	7.62939E-05	-0.000445366	4.95911E-05	2.694702148	-6.692504883	6.756591797	0.003814697	-0.022268296	0.002479553	-0.502685547	0.843994141	-0.032714844	890.32	-44.89085059	-16.00801797	-120.6655152	-54
5606	0	0.109100342	-0.267609596	0.269962311	0.999999046	6.86646E-05	-0.000434875	0.000118256	2.727508545	-6.690239906	6.74905777	0.003433228	-0.021743775	0.005912781	-0.505126953	0.846435547	-0.035644531	890.16	-44.8931186	-16.03707575	-120.6273342	-54
5607	0	0.109802246	-0.268920898	0.270263672	0.999999046	0.000312805	-0.000208855	-6.48499E-05	2.745056152	-6.723022461	6.756591797	0.015640259	-0.010442734	-0.003242493	-0.505126953	0.841796875	-0.035400391	890.32	-44.85796439	-16.06260748	-120.6271628	-53
5608	0	0.109583855	-0.267028809	0.270689011	0.999999046	0.0002985	-0.000247955	-1.14441E-05	2.739596367	-6.675720215	6.767225266	0.014925003	-0.012397766	-0.000572205	-0.505371094	0.846435547	-0.032714844	890.22	-44.82660232	-16.08700561	-120.6140158	-53
5609	0	0.110534668	-0.266174316	0.269836426	0.999999046	0.000289917	-0.000243187	3.43323E-05	2.763366699	-6.65435791	6.745910645	0.01449585	-0.012159348	0.001716614	-0.505371094	0.846435547	-0.032714844	890.12	-44.79719415	-16.10738479	-120.5971874	-53
5610	0	0.109487534	-0.266514778	0.269449234	0.999999046	5.72205E-06	-0.000150681	-5.72205E-05	2.737188339	-6.662869453	6.73623085	0.000286102	-0.007534027	-0.002861023	-0.505126953	0.846435547	-0.035644531	890.26	-44.79609079	-16.12763828	-120.5960081	-52
5611	0	0.109863281	-0.266113281	0.268615723	0.999999046	0.000160217	-0.000121117	0.000137329	2.746582031	-6.652832031	6.715393066	0.008010864	-0.006055832	0.006866455	-0.507568359	0.846435547	-0.035644531	890.26	-44.78122809	-16.12980732	-120.5846752	-52
5612	0	0.109978676	-0.265385628	0.271724701	0.999999046	0.000153542	-2.67029E-05	0.000182152	2.749466896	-6.634640694	6.793117523	0.007677078	-0.001335144	0.00910759	-0.505371094	0.846435547	-0.032714844	890.22	-44.76590052	-16.12068492	-120.5735533	-54
5613	0	0.106140137	-0.266418457	0.27154541	0.999999046	-0.000286102	-9.05991E-05	2.67029E-05	2.653503418	-6.660461426	6.788635254	-0.014305115	-0.004529953	0.001335144	-0.505126953	0.843994141	-0.038330078	890.22	-44.79876223	-16.12912	-120.5738905	-53
5614	0	0.107457161	-0.267495155	0.271188736	0.999999046	6.29425E-05	-0.000383377	4.86374E-05	2.686429024	-6.687378883	6.779718399	0.003147125	-0.019168854	0.00243187	-0.505126953	0.843994141	-0.035644531	890.16	-44.79900229	-16.159462	-120.5468445	-54
5615	0	0.110290527	-0.267700195	0.27166748	0.999999046	0.000286102	-0.000483513	6.10352E-05	2.757263184	-6.692504883	6.791687012	0.014305116	-0.024175645	0.003051758	-0.507568359	0.846435547	-0.032714844	890.26	-44.77632756	-16.19694896	-120.5107349	-52
5616	0	0.111495018	-0.266278267	0.269392014	0.999999046	0.000687599	-0.000659943	0.000170708	2.78737545	-6.656956673	6.734800339	0.034379964	-0.032997137	0.008535386	-0.502685547	0.846191406	-0.035888672	890.2	-44.71444203	-16.24005159	-120.4443507	-53
5617	0	0.112854004	-0.266601563	0.270812988	0.999999046	0.000785828	-0.000727654	0.000305176	2.821350098	-6.665039063	6.770324707	0.03929139	-0.036382683	0.015258792	-0.505371094	0.846435547	-0.032714844	890.22	-44.64614139	-16.27801632	-120.3644196	-52
5618	0	0.112045288	-0.265210152	0.2688694	0.999999046	0.000534058	-0.000484467	0.000338554	2.801132202	-6.630253792	6.721735001	0.026702884	-0.02422333	0.016927721	-0.505126953	0.846435547	-0.035644531	890.28	-44.60186206	-16.29362407	-120.3033087	-52
5619	0	0.112304688	-0.265441895	0.26940918	0.999999046	0.00056839	-0.000452995	0.000339508	2.807617188	-6.636047363	6.735229492	0.028419498	-0.022649767	0.016975405	-0.507568359	0.846435547	-0.032714844	890.12	-44.55301343	-16.30672104	-120.2483065	-53
5620	0	0.110659599	-0.2654562	0.269183159	0.999999046	0.000199318	-8.7738E-05	0.000266075	2.766489983	-6.636404991	6.729578972	0.009965897	-0.004386902	0.013303757	-0.502929688	0.846191406	-0.030029297	890.2	-44.53620898	-16.29592018	-120.222979	-52
5621	0	0.110290527	-0.263122559	0.26953125	0.999999046	-8.39233E-05	0.000191689	0.00018692	2.757263184	-6.578063965	6.73828125	-0.004196167	0.009584427	0.009346008	-0.505126953	0.846435547	-0.035644531	890.16	-44.54340451	-16.26866714	-120.2330626	-52
5622	0	0.112101555	-0.265285492	0.27056694	0.999999046	-7.05719E-05	0.000307083	0.000320435	2.802538872	-6.632137299	6.764173508	-0.003528595	0.015354157	0.016021729	-0.502929688	0.846191406	-0.032958984	890.16	-44.54958712	-16.22132732	-120.2383183	-52
5623	0	0.109985352	-0.266052246	0.273376465	0.999999046	-0.000106812	0.000287056	0.000286102	2.749633789	-6.651306152	6.834411621	-0.005340576	0.014352799	0.014305115	-0.505126953	0.846435547	-0.035644531	890.1	-44.55954091	-16.17833111	-120.2495635	-54
5624	0	0.105340958	-0.267820358	0.275393486	0.999999046	-0.000115395	-3.43323E-05	6.38962E-05	2.633523941	-6.695508957	6.884837151	-0.00576973	-0.001716614	0.003194809	-0.505371094	0.846435547	-0.032714844	890.1	-44.5726627	-16.1791411	-120.2522701	-52
5625	0	0.109130859	-0.267333984	0.274658203	0.999999046	9.91821E-05	-0.000689507	0.0001297	2.728271484	-6.683349609	6.866455078	0.004959107	-0.034475329	0.006484986	-0.502929688	0.848388672	-0.036132813	890.18	-44.57802124	-16.22804169	-120.1901693	-54
5626	0	0.11303997	-0.262976646	0.272601128	0.999999046	0.000545502	-0.000902176	0.000403404	2.82599926	-6.574416161	6.815028191	0.027275091	-0.045108805	0.020170216	-0.502929688	0.848388672	-0.036132813	890.32	-44.54364482	-16.27246007	-120.0880899	-54
5627	0	0.113220215	-0.264343262	0.270507813	0.999999046	0.000564575	-0.000662804	0.000518799	2.830505371	-6.608581543	6.762695313	0.028228765	-0.033140188	0.025939946	-0.502929688	0.846191406	-0.032958984	890.22	-44.50427536	-16.28825672	-119.9987866	-54
5628	0	0.107808113	-0.267385483	0.270483017	0.999999046	-2.86102E-06	-0.000522614	0.000648499	2.695202827	-6.68463707	6.762075424	-0.000143051	-0.026130679	0.032424931	-0.502929688	0.848388672	-0.033203125	890.22	-44.5298812	-16.28202989	-119.9102477	-54
5629	0	0.108581543	-0.26373291	0.269165039	0.999999046	0.000499725	-0.000510216	0.000461578	2.714538574	-6.593322754	6.729125977	0.02498627	-0.025510791	0.023078921	-0.500488281	0.848388672	-0.030273438	890.22	-44.49317968	-16.28974783	-119.8351727	-54
5630	0	0.113924026	-0.265275955	0.271510124	0.999999046	1.14441E-05	-0.000110626	0.000263214	2.848100662	-6.63189888	6.787753105	0.000572205	-0.005531311	0.013160706	-0.500488281	0.848388672	-0.0390625	890.16	-44.49833889	-16.28090743	-119.8136904	-54
5631	0	0.112487793	-0.268249512	0.272766113	0.999999046	-0.000198364	0.000325203	0.000190735	2.812194824	-6.706237793	6.819152832	-0.009918213	0.016260148	0.009536743	-0.498291016	0.850585938	-0.033447266	890.16	-44.51567355	-16.24230321	-119.8281266	-54
5632	0	0.109827042	-0.266631126	0.274195671	0.999999046	0.000119209	7.82013E-05	-3.8147E-06	2.745676041	-6.66577816	6.854891777	0.005960464	0.003910065	-0.000190735	-0.498046875	0.848388672	-0.036376953	890.22	-44.49773564	-16.23943424	-119.8407597	-52
5633	0	0.107116699	-0.263366699	0.273925781	0.999999046	9.53674E-05	-0.000369072	8.01086E-05	2.67791748	-6.58416748	6.848144531	0.004768372	-0.018453598	0.004005432	-0.500488281	0.848388672	-0.036132813	890.28	-44.49485521	-16.26621116	-119.8127088	-54
5634	0	0.110877037	-0.264920235	0.272855759	0.999999046	0.000562668	-0.000688553	0.00014019	2.771925926	-6.623005867	6.821393967	0.028133396	-0.034427647	0.007009507	-0.500488281	0.848388672	-0.036132813	890.16	-44.44733089	-16.31430565	-119.7528608	-52
5635	0	0.112609863	-0.266479492	0.273071289	0.999999046	0.000480652	-0.000491142	0.000225067	2.815246582	-6.661987305	6.826782227	0.024032595	-0.024557116	0.011253358	-0.498291016	0.850585938	-0.033447266	890.16	-44.4066559	-16.33953362	-119.6963269	-54
5636	0	0.110925674	-0.263278961	0.270284653	0.999999046	0.000264168	-0.000305176	0.000236511	2.773141861	-6.58197403	6.757116318	0.01320839	-0.01525879	0.011825562	-0.500488281	0.850585938	-0.036376953	890.22	-44.3867266	-16.34866642	-119.6592507	-53
5637	0	0.11126709	-0.264404297	0.271240234	0.999999046	0.000427246	-0.000369072	0.000156403	2.781677246	-6.610107422	6.781005859	0.021362306	-0.018453599	0.00782013	-0.495605469	0.850341797	-0.042480469	890.1	-44.34773069	-16.36948181	-119.6180723	-54
5638	0	0.110409737	-0.264388084	0.274130821	0.999999046	0.000181198	-0.000358582	8.39233E-05	2.760243416	-6.60970211	6.853270531	0.009059906	-0.017929078	0.004196167	-0.500488281	0.848388672	-0.036132813	890.22	-44.33489156	-16.39519396	-119.5918564	-54
5639	0	0.110107422	-0.263122559	0.272338867	0.999999046	0.000305176	-0.000441551	0.000190735	2.752685547	-6.578063965	6.80847168	0.01525879	-0.022077562	0.009536744	-0.498291016	0.850585938	-0.033447266	890.28	-44.3123552	-16.41910599	-119.5435509	-52
5640	0	0.112321854	-0.262512207	0.270628929	0.999999046	0.000435829	-0.000562668	0.000247002	2.808046341	-6.562805176	6.765723228	0.02179146	-0.028133395	0.012350084	-0.500488281	0.850585938	-0.039306641	890.22	-44.27910057	-16.44853937	-119.4860268	-54
