Counter	Temperature	VelInc_X	VelInc_Y	VelInc_Z	OriInc_w	OriInc_x	OriInc_y	OriInc_z	Acc_X	Acc_Y	Acc_Z	Gyr_X	Gyr_Y	Gyr_Z	Mag_X	Mag_Y	Mag_Z	Pressure	Roll	Pitch	Yaw	RSSI
30030	0	0.356541634	-0.132131577	0.109534264	0.999999046	0.000127792	-0.000509262	-0.000264168	8.91354084	-3.303289413	2.73835659	0.006389618	-0.025463106	-0.01320839	-0.409912109	0.775634766	-0.433837891	886.28	-50.50050379	-64.56709712	-10.0725939	-54
30031	0	0.351501465	-0.13293457	0.111083984	0.999999046	-1.14441E-05	-0.000498772	-0.000312805	8.787536621	-3.323364258	2.777099609	-0.000572205	-0.024938585	-0.01564026	-0.409912109	0.773193359	-0.430664063	886.28	-50.52885395	-64.63619053	-10.04489962	-54
30032	0	0.353223801	-0.135097504	0.112131119	0.999999046	0.000618935	-0.000476837	6.77109E-05	8.830595016	-3.377437592	2.803277969	0.030946735	-0.02384186	0.003385544	-0.412597656	0.775634766	-0.427978516	886.24	-50.53926919	-64.66965411	-9.966707909	-55
30033	0	0.355773926	-0.131896973	0.108337402	0.999999046	0.000473022	-6.77109E-05	9.15527E-05	8.894348145	-3.297424316	2.708435059	0.023651124	-0.003385544	0.004577637	-0.412353516	0.775634766	-0.433837891	886.32	-50.49360756	-64.67111071	-9.959460098	-54
30034	0	0.356373787	-0.133751869	0.108902931	0.999999046	-0.000392914	5.72205E-05	0.000365257	8.909344673	-3.34379673	2.72257328	-0.019645692	0.002861023	0.018262864	-0.412353516	0.7734375	-0.43359375	886.2	-50.56596356	-64.63909396	-9.928135064	-54
30035	0	0.356018066	-0.133361816	0.106628418	0.999999046	-0.000293732	0.000145912	0.000888824	8.90045166	-3.33404541	2.665710449	-0.014686587	0.00729561	0.04444123	-0.412353516	0.775634766	-0.430908203	886.24	-50.69053826	-64.5541659	-9.832540516	-54
30036	0	0.355080605	-0.132043839	0.108667374	0.999999046	-0.000306129	0.000118256	0.000861168	8.877015114	-3.301095963	2.716684341	-0.015306475	0.005912782	0.043058401	-0.409912109	0.775634766	-0.430908203	886.3	-50.8166084	-64.47353482	-9.734876901	-54
30037	0	0.352905273	-0.13092041	0.10736084	0.999999046	-0.000232697	-5.62668E-05	0.000648499	8.822631836	-3.273010254	2.684020996	-0.011634828	-0.002813339	0.032424929	-0.407714844	0.775390625	-0.431152344	886.28	-50.93378071	-64.42432921	-9.635249012	-54
30038	0	0.355433464	-0.130394936	0.108052254	0.999999046	0.000123978	-0.000169754	0.000559807	8.885836601	-3.25987339	2.701306343	0.006198883	-0.008487702	0.027990343	-0.407714844	0.775390625	-0.431152344	886.28	-51.01717009	-64.39119701	-9.527646841	-54
30039	0	0.356140137	-0.129760742	0.106384277	0.999999046	-5.72205E-05	-3.71933E-05	0.000404358	8.903503418	-3.244018555	2.659606934	-0.002861023	-0.001859665	0.020217896	-0.407714844	0.777832031	-0.428466797	886.28	-51.0728962	-64.3624758	-9.480850283	-54
30040	0	0.356042862	-0.130000114	0.106707573	0.999999046	-0.0002985	-0.00030899	0.000563622	8.901071548	-3.250002861	2.667689323	-0.014925004	-0.015449525	0.028181078	-0.405273438	0.777587891	-0.434326172	886.36	-51.23025449	-64.33917284	-9.338101667	-54
30041	0	0.354003906	-0.131713867	0.106323242	0.999999046	-0.000305176	-0.00026989	0.000289917	8.850097656	-3.29284668	2.658081055	-0.01525879	-0.013494492	0.01449585	-0.407714844	0.775390625	-0.431152344	886.3	-51.33995342	-64.33746282	-9.251742142	-54
30042	0	0.354106903	-0.131984711	0.106660843	0.999999046	-0.000123978	-0.000299454	0.00014782	8.852672577	-3.299617767	2.666521072	-0.006198883	-0.014972687	0.007390976	-0.405273438	0.777587891	-0.428466797	886.24	-51.41306492	-64.35057407	-9.188892786	-54
30043	0	0.357055664	-0.133422852	0.108703613	0.999999046	0.000217438	-0.00039196	-6.10352E-05	8.926391602	-3.335571289	2.717590332	0.010871888	-0.019598008	-0.003051758	-0.403076172	0.777587891	-0.42578125	886.2	-51.43301622	-64.38897178	-9.146516405	-54
30044	0	0.356485367	-0.133149147	0.109090805	0.999999046	-0.000185966	-0.000225067	0.000144958	8.912134171	-3.328728676	2.727270126	-0.009298325	-0.011253357	0.007247925	-0.405273438	0.777587891	-0.431396484	886.26	-51.49845807	-64.3969253	-9.093443026	-52
30045	0	0.355102539	-0.133666992	0.108215332	0.999999046	-0.000576019	4.673E-05	0.00038147	8.877563477	-3.341674805	2.705383301	-0.028800967	0.002336502	0.019073488	-0.407714844	0.780029297	-0.431396484	886.26	-51.59265292	-64.36419137	-9.058810521	-54
30046	0	0.353952408	-0.134549141	0.106993675	0.999999046	-0.000347137	0.000146866	0.000259399	8.848810196	-3.363728523	2.674841881	-0.017356873	0.007343292	0.012969971	-0.407958984	0.780029297	-0.425537109	886.2	-51.62358997	-64.33521288	-9.075393567	-54
30047	0	0.356689453	-0.134460449	0.10534668	0.999999046	0	0.00023365	9.53674E-05	8.917236328	-3.36151123	2.633666992	0	0.01168251	0.004768372	-0.405517578	0.779785156	-0.428710938	886.3	-51.57434907	-64.31482922	-9.130414795	-54
30048	0	0.357956886	-0.133369446	0.106367111	0.999999046	-0.000247002	0.000370026	8.67844E-05	8.948922157	-3.334236145	2.65917778	-0.012350083	0.018501282	0.004339218	-0.407958984	0.780029297	-0.425537109	886.3	-51.52668992	-64.28557312	-9.221585316	-54
30049	0	0.353942871	-0.133178711	0.104553223	0.999999046	-0.000511169	0.000283241	0.000305176	8.848571777	-3.329467773	2.613830566	-0.025558474	0.014162065	0.01525879	-0.403076172	0.779785156	-0.428710938	886.2	-51.55798075	-64.24296266	-9.249896151	-54
30050	0	0.354596138	-0.13295269	0.104128838	0.999999046	-0.000230789	0.000162125	0.000278473	8.86490345	-3.323817253	2.60322094	-0.01153946	0.008106232	0.013923645	-0.403076172	0.779785156	-0.428710938	886.24	-51.57581888	-64.21149973	-9.256911594	-54
30051	0	0.352905273	-0.132995605	0.102844238	0.999999046	-0.00019455	0.000306129	-0.000244141	8.822631836	-3.324890137	2.571105957	-0.009727478	0.015306473	-0.012207032	-0.403076172	0.779785156	-0.428710938	886.2	-51.48589267	-64.21677878	-9.379119492	-54
30052	0	0.354372978	-0.133472443	0.101360321	0.999999046	-0.000159264	0.000213623	-0.000378609	8.859324455	-3.336811066	2.534008026	-0.007963181	0.010681153	-0.018930436	-0.405517578	0.779785156	-0.42578125	886.2	-51.38948434	-64.24080475	-9.510278033	-54
30053	0	0.358093262	-0.135314941	0.102478027	0.999999046	-0.000339508	3.52859E-05	-0.000293732	8.952331543	-3.382873535	2.561950684	-0.016975403	0.001764298	-0.014686585	-0.405517578	0.782226563	-0.426025391	886.24	-51.35968655	-64.27007433	-9.591418622	-54
30054	0	0.353098869	-0.134994507	0.102227211	0.999999046	-0.000530243	-0.00028801	-8.86917E-05	8.827471733	-3.374862671	2.555680275	-0.026512148	-0.014400483	-0.004434586	-0.405517578	0.782226563	-0.428955078	886.34	-51.44270916	-64.30414522	-9.56362459	-54
30055	0	0.353088379	-0.136291504	0.104675293	0.999999046	1.14441E-05	-0.000491142	-0.000270844	8.827209473	-3.407287598	2.616882324	0.000572205	-0.024557115	-0.013542176	-0.405517578	0.779785156	-0.428710938	886.24	-51.47488042	-64.36894494	-9.520992651	-54
30056	0	0.355522156	-0.136219025	0.103839874	0.999999046	8.67844E-05	-0.000301361	-0.000645638	8.888053894	-3.405475616	2.595996857	0.004339219	-0.015068055	-0.032281878	-0.405517578	0.782226563	-0.426025391	886.36	-51.40737993	-64.45375233	-9.587323924	-54
30057	0	0.356323242	-0.137329102	0.105957031	0.999999046	-0.000240326	-0.000422478	-0.000427246	8.908081055	-3.433227539	2.648925781	-0.012016297	-0.021123888	-0.021362306	-0.407958984	0.780029297	-0.422607422	886.28	-51.43274761	-64.52750042	-9.595710917	-54
30058	0	0.355068207	-0.138604164	0.107786179	0.999999046	0.000541687	-0.000659943	4.48227E-05	8.87670517	-3.465104103	2.694654465	0.027084354	-0.032997135	0.002241135	-0.41015625	0.777832031	-0.428222656	886.24	-51.48431642	-64.57559317	-9.464293103	-54
30059	0	0.35345459	-0.135559082	0.107299805	0.999999046	0.001041412	-0.000811577	9.15527E-05	8.836364746	-3.388977051	2.682495117	0.052070633	-0.040578854	0.004577638	-0.410400391	0.780029297	-0.425537109	886.36	-51.51452525	-64.63006513	-9.3032849	-54
30060	0	0.354395866	-0.133328438	0.106024742	0.999999046	0.000918388	-0.000490189	-4.673E-05	8.85989666	-3.333210945	2.650618553	0.045919427	-0.024509434	-0.002336502	-0.410400391	0.777832031	-0.422363281	886.36	-51.47734748	-64.67392684	-9.239005139	-54
30061	0	0.35723877	-0.13269043	0.106079102	0.999999046	0.00043869	1.23978E-05	0.000141144	8.930969238	-3.317260742	2.651977539	0.02193451	0.000619888	0.00705719	-0.412597656	0.777832031	-0.427978516	886.26	-51.42817134	-64.6650596	-9.24003615	-54
30062	0	0.358663559	-0.13160038	0.106690407	0.999999046	-0.000144958	0.000301361	0.000315666	8.966588974	-3.290009499	2.66726017	-0.007247925	0.015068055	0.01578331	-0.41015625	0.777832031	-0.428222656	886.24	-51.41731365	-64.61994793	-9.271562789	-54
30063	0	0.356323242	-0.132568359	0.102478027	0.999999046	-0.00012207	0.000470161	0.000293732	8.908081055	-3.314208984	2.561950684	-0.006103516	0.023508073	0.014686585	-0.41015625	0.775634766	-0.427978516	886.18	-51.36903917	-64.56481364	-9.340191416	-54
30064	0	0.35425663	-0.130421638	0.103877068	0.999999046	0.00014019	0.000165939	0.000160217	8.856415749	-3.260540962	2.596926689	0.007009506	0.008296967	0.008010864	-0.407714844	0.777832031	-0.425537109	886.24	-51.32796374	-64.54348099	-9.374820653	-54
30065	0	0.354919434	-0.131469727	0.106628418	0.999999046	0.00031662	0.00011158	-0.000350952	8.87298584	-3.286743164	2.665710449	0.015830994	0.005578995	-0.017547608	-0.41015625	0.780029297	-0.428466797	886.2	-51.19967283	-64.57171625	-9.482266868	-53
30066	0	0.355659485	-0.132740021	0.106851578	0.999999046	0.00030899	0.000127792	-0.000565529	8.891487122	-3.318500519	2.671289444	0.015449525	0.006389618	-0.028276446	-0.41015625	0.775634766	-0.427978516	886.26	-51.03629528	-64.61776372	-9.627653865	-53
30067	0	0.353271484	-0.134399414	0.10748291	0.999999046	0.00038147	0.000203133	-0.000492096	8.831787109	-3.359985352	2.687072754	0.019073488	0.010156632	-0.024604799	-0.41015625	0.777832031	-0.428222656	886.2	-50.86114255	-64.65146278	-9.780697894	-54
30068	0	0.35537529	-0.136408806	0.108645439	0.999999046	0.000733376	-0.000110626	-0.000324249	8.884382248	-3.410220146	2.716135979	0.036668781	-0.005531312	-0.016212465	-0.412353516	0.775634766	-0.433837891	886.28	-50.72994693	-64.69254656	-9.830782268	-54
30069	0	0.354187012	-0.135681152	0.10925293	0.999999046	0.000911713	9.53674E-07	-0.000152588	8.854675293	-3.392028809	2.731323242	0.045585639	4.76837E-05	-0.007629396	-0.414794922	0.775634766	-0.430664063	886.28	-50.58353168	-64.70997442	-9.885308764	-55
30070	0	0.353800774	-0.135131836	0.10858345	0.999999046	0.000795364	0.000118256	0.000433922	8.845019341	-3.378295898	2.714586258	0.039768225	0.005912782	0.021696094	-0.412353516	0.7734375	-0.43359375	886.3	-50.51889334	-64.66666616	-9.858849179	-53
30071	0	0.354431152	-0.13458252	0.109436035	0.999999046	0.000869751	2.38419E-05	0.000831604	8.860778809	-3.364562988	2.735900879	0.043487559	0.001192093	0.04158021	-0.412109375	0.7734375	-0.436523438	886.24	-50.52446252	-64.5948418	-9.742636759	-54
30072	0	0.354023933	-0.131749153	0.108154297	0.999999046	0.000901222	0.000202179	0.000971794	8.850598335	-3.293728828	2.703857422	0.045061125	0.010108951	0.048589721	-0.409912109	0.773193359	-0.436523438	886.18	-50.51428164	-64.49756605	-9.642479144	-54
30073	0	0.354919434	-0.129699707	0.106323242	0.999999046	0.000762939	0.000275612	0.001052856	8.87298584	-3.242492676	2.658081055	0.038146984	0.013780598	0.052642838	-0.407470703	0.773193359	-0.439697266	886.3	-50.51826433	-64.38789099	-9.540507957	-54
30074	0	0.354159355	-0.130221367	0.107691765	0.999999046	0.000564575	0.000305176	0.00083065	8.853983879	-3.255534172	2.692294121	0.028228765	0.015258792	0.041532524	-0.407470703	0.775390625	-0.437011719	886.18	-50.50528383	-64.29580376	-9.492154483	-54
30075	0	0.353942871	-0.130371094	0.106628418	0.999999046	0.000759125	0.000115395	0.000728607	8.848571777	-3.259277344	2.665710449	0.037956245	0.005769731	0.036430366	-0.405029297	0.772949219	-0.442626953	886.2	-50.48926412	-64.22670387	-9.41145537	-54
30076	0	0.354095459	-0.129751205	0.105746269	0.999999046	0.000882149	0.000162125	0.000548363	8.852386475	-3.243780136	2.643656731	0.044107445	0.008106233	0.027418142	-0.402587891	0.775146484	-0.442871094	886.18	-50.42332453	-64.17035279	-9.375382363	-54
30077	0	0.355163574	-0.128967285	0.10723877	0.999999046	0.000312805	-0.000102043	0.000541687	8.879089355	-3.224182129	2.680969238	0.01564026	-0.005102158	0.027084352	-0.402587891	0.77734375	-0.446044922	886.24	-50.46960853	-64.13409592	-9.284185544	-54
30078	0	0.355288506	-0.129957199	0.107551575	0.999999046	0.000164032	-9.15527E-05	0.000507355	8.882212639	-3.248929977	2.688789368	0.0082016	-0.004577637	0.025367738	-0.402587891	0.775146484	-0.442871094	886.24	-50.52555014	-64.10027279	-9.205143224	-54
30079	0	0.354431152	-0.129577637	0.107666016	0.999999046	9.91821E-05	-0.000243187	0.000514984	8.860778809	-3.239440918	2.691650391	0.004959107	-0.012159348	0.025749208	-0.400146484	0.775146484	-0.443115234	886.18	-50.61734211	-64.07695628	-9.093261337	-53
30080	0	0.353739738	-0.129737854	0.108494759	0.999999046	-0.000210762	-0.000221252	0.000282288	8.843493462	-3.24344635	2.712368965	-0.010538102	-0.011062622	0.01411438	-0.402587891	0.772949219	-0.442871094	886.24	-50.70548396	-64.07274207	-9.022222356	-53
30081	0	0.354614258	-0.13104248	0.108032227	0.999999046	-3.05176E-05	-0.000212669	2.28882E-05	8.865356445	-3.276062012	2.700805664	-0.001525879	-0.010633469	0.001144409	-0.402587891	0.775146484	-0.442871094	886.26	-50.73253791	-64.09101944	-8.998023397	-54
30082	0	0.354227066	-0.131371498	0.109580994	0.999999046	0.000265121	-0.000291824	-0.000184059	8.855676651	-3.284287453	2.739524841	0.013256073	-0.014591218	-0.009202957	-0.402587891	0.775146484	-0.442871094	886.32	-50.70900165	-64.13345408	-8.993054585	-54
30083	0	0.357543945	-0.130493164	0.107421875	0.999999046	-0.000217438	-9.82285E-05	-0.000213623	8.938598633	-3.262329102	2.685546875	-0.010871887	-0.004911423	-0.010681153	-0.402587891	0.772949219	-0.442871094	886.3	-50.70076366	-64.16467002	-9.029417141	-54
30084	0	0.352739334	-0.132526398	0.108758926	0.999999046	-0.000563622	-0.000104904	-0.000106812	8.818483353	-3.313159943	2.71897316	-0.028181078	-0.005245209	-0.005340576	-0.405029297	0.775390625	-0.442871094	886.2	-50.7493209	-64.18687728	-9.04757464	-54
30085	0	0.35144043	-0.132507324	0.106445313	0.999999046	-0.00037384	-0.000288963	-6.10352E-05	8.786010742	-3.312683105	2.661132813	-0.018692017	-0.014448166	-0.003051758	-0.405029297	0.775390625	-0.437011719	886.2	-50.81690742	-64.21837981	-9.02967784	-54
30086	0	0.354875565	-0.135047913	0.107847214	0.999999046	-0.000478745	-0.000286102	-0.000320435	8.871889114	-3.376197815	2.696180344	-0.023937227	-0.014305116	-0.01602173	-0.405029297	0.772949219	-0.442626953	886.2	-50.85736032	-64.27264326	-9.040037357	-54
30087	0	0.353271484	-0.137084961	0.105712891	0.999999046	-0.000419617	-0.000346184	-0.000385284	8.831787109	-3.427124023	2.642822266	-0.020980837	-0.01730919	-0.019264223	-0.405029297	0.775390625	-0.439941406	886.28	-50.89288298	-64.3369026	-9.054266662	-54
30088	0	0.355585098	-0.136289597	0.104863167	0.999999046	-0.000155449	-0.000696182	0.000422478	8.889627457	-3.407239914	2.62157917	-0.007772447	-0.034809117	0.021123889	-0.405029297	0.775390625	-0.439941406	886.26	-51.08504489	-64.35445991	-8.859363839	-54
30089	0	0.355224609	-0.134094238	0.106384277	0.999999046	-0.000347137	-0.000548363	0.00062561	8.880615234	-3.352355957	2.659606934	-0.017356875	-0.02741814	0.031280522	-0.402587891	0.772949219	-0.439941406	886.24	-51.30230945	-64.34294809	-8.655624836	-54
30090	0	0.35389328	-0.134306908	0.107305527	0.999999046	-0.000522614	-0.000534058	0.000637054	8.847332001	-3.357672691	2.682638168	-0.02613068	-0.026702885	0.031852727	-0.405273438	0.777587891	-0.434326172	886.3	-51.53842597	-64.32899112	-8.466039351	-54
30091	0	0.356628418	-0.133117676	0.10723877	0.999999046	-0.000358582	-0.000361443	0.000656128	8.915710449	-3.327941895	2.680969238	-0.017929079	-0.01807213	0.0328064	-0.402832031	0.775390625	-0.434326172	886.24	-51.72583091	-64.30076958	-8.304549505	-55
30092	0	0.356411934	-0.132993698	0.11011982	0.999999046	-0.000548363	-6.86646E-05	0.000614166	8.910298347	-3.324842453	2.752995491	-0.02741814	-0.003433228	0.030708316	-0.402832031	0.777587891	-0.431396484	886.2	-51.87309568	-64.25534565	-8.216891706	-55
30093	0	0.356201172	-0.134643555	0.110778809	0.999999046	-0.000175476	-0.000117302	0.000431061	8.905029297	-3.366088867	2.769470215	-0.008773804	-0.005865097	0.02155304	-0.402832031	0.777587891	-0.434326172	886.24	-51.95905135	-64.2296879	-8.143102542	-54
30094	0	0.356417656	-0.132060051	0.108083725	0.999999046	0.000209808	7.82013E-05	0.000201225	8.910441399	-3.301501274	2.702093124	0.010490418	0.003910065	0.010061264	-0.403076172	0.777587891	-0.428710938	886.24	-51.93010307	-64.21103668	-8.159325487	-54
30095	0	0.355651855	-0.132446289	0.106567383	0.999999046	-0.000286102	0.000435829	0.000133514	8.891296387	-3.311157227	2.66418457	-0.014305115	0.021791459	0.006675721	-0.402832031	0.779785156	-0.4375	886.24	-51.88116006	-64.17329489	-8.24595214	-55
30096	0	0.355340004	-0.133274078	0.106189728	0.999999046	-0.000346184	0.000396729	9.44138E-05	8.883500099	-3.331851959	2.654743195	-0.01730919	0.019836427	0.004720688	-0.400390625	0.77734375	-0.4375	886.3	-51.84067994	-64.14189536	-8.327408884	-54
30097	0	0.354980469	-0.134216309	0.105224609	0.999999046	-0.000190735	0.00023365	-9.53674E-05	8.874511719	-3.355407715	2.630615234	-0.009536743	0.011682511	-0.004768372	-0.398193359	0.779541016	-0.431884766	886.24	-51.78503536	-64.1391966	-8.418348955	-55
30098	0	0.354164124	-0.134188652	0.103446007	0.999999046	-9.91821E-05	4.57764E-05	-0.000447273	8.854103088	-3.354716301	2.586150169	-0.004959107	0.002288818	-0.022363664	-0.402832031	0.777587891	-0.434326172	886.24	-51.70237329	-64.18155447	-8.521887981	-54
30099	0	0.353515625	-0.135864258	0.102966309	0.999999046	8.39233E-05	-0.000159264	-0.000537872	8.837890625	-3.396606445	2.574157715	0.004196167	-0.007963181	-0.026893617	-0.403076172	0.779785156	-0.434570313	886.3	-51.62355602	-64.24659708	-8.600201013	-54
30100	0	0.354061127	-0.135588646	0.104095459	0.999999046	0.000271797	-0.000343323	-0.00048542	8.851528168	-3.389716148	2.602386475	0.01358986	-0.017166139	-0.024271013	-0.402832031	0.777587891	-0.437255859	886.26	-51.56517178	-64.31998385	-8.625456864	-54
30101	0	0.353820801	-0.135375977	0.103271484	0.999999046	0.000114441	-0.000357628	-0.000282288	8.84552002	-3.384399414	2.581787109	0.005722046	-0.017881394	-0.01411438	-0.405273438	0.777587891	-0.434326172	886.18	-51.5577716	-64.37615191	-8.620370702	-54
30102	0	0.355251312	-0.135030746	0.101826668	0.999999046	-3.43323E-05	-0.000265121	-0.000160217	8.881282806	-3.375768661	2.545666695	-0.001716614	-0.013256073	-0.008010864	-0.405273438	0.777587891	-0.431396484	886.2	-51.56867599	-64.41484208	-8.61909479	-55
30103	0	0.356445313	-0.134643555	0.102844238	0.999999046	-0.000534058	-0.000201225	-0.000209808	8.911132813	-3.366088867	2.571105957	-0.026702883	-0.010061265	-0.010490418	-0.407714844	0.777587891	-0.431152344	886.36	-51.61782506	-64.45349646	-8.637594024	-54
30104	0	0.353430748	-0.135949135	0.103043556	0.999999046	-0.00026226	-0.00050354	-0.00017643	8.8357687	-3.398728371	2.576088905	-0.013113023	-0.025177003	-0.008821488	-0.407714844	0.777832031	-0.428466797	886.24	-51.69812425	-64.51057909	-8.590687386	-55
30105	0	0.35534668	-0.132385254	0.102233887	0.999999046	7.24792E-05	-0.000700951	-7.24792E-05	8.883666992	-3.309631348	2.555847168	0.003623963	-0.035047534	-0.003623963	-0.407714844	0.777587891	-0.431152344	886.24	-51.79332328	-64.57237742	-8.478619521	-55
30106	0	0.355449677	-0.132624626	0.103402138	0.999999046	-0.000558853	-0.000555038	-0.000427246	8.886241913	-3.315615654	2.585053444	-0.027942661	-0.027751926	-0.021362308	-0.407714844	0.777832031	-0.425537109	886.28	-51.88074401	-64.65577671	-8.463349541	-54
30107	0	0.356018066	-0.135437012	0.10333252	0.999999046	-0.000686646	-0.000536919	-0.000358582	8.90045166	-3.385925293	2.583312988	-0.03433228	-0.026845936	-0.01792908	-0.409912109	0.775634766	-0.430908203	886.26	-51.99020699	-64.73159449	-8.42459625	-55
30108	0	0.355983734	-0.134655952	0.105266571	0.999999046	-0.000433922	-0.000413895	-0.000184059	8.899593353	-3.366398811	2.631664276	-0.021696092	-0.020694734	-0.009202958	-0.41015625	0.777832031	-0.431152344	886.24	-52.07348484	-64.78281911	-8.382544463	-55
30109	0	0.355895996	-0.135925293	0.105957031	0.999999046	-0.000442505	-0.000189781	-0.000282288	8.897399902	-3.398132324	2.648925781	-0.022125245	-0.00948906	-0.014114381	-0.412597656	0.780029297	-0.428222656	886.3	-52.10003361	-64.82692019	-8.410786118	-55
30110	0	0.356257439	-0.137466431	0.106003761	0.999999046	-0.000303268	-0.000148773	-0.000329018	8.906435966	-3.436660767	2.650094032	-0.015163422	-0.00743866	-0.016450883	-0.41015625	0.777832031	-0.425292969	886.2	-52.0956856	-64.87208932	-8.457287157	-54
30111	0	0.355895996	-0.137084961	0.104797363	0.999999046	-0.00025177	3.14713E-05	-2.67029E-05	8.897399902	-3.427124023	2.619934082	-0.012588501	0.001573563	-0.001335144	-0.412597656	0.777832031	-0.425292969	886.18	-52.09610914	-64.87699125	-8.491598082	-55
30112	0	0.355895996	-0.137329102	0.103637695	0.999999046	-0.000285149	0.00019455	0.000160217	8.897399902	-3.433227539	2.590942383	-0.014257431	0.009727478	0.008010864	-0.412841797	0.780273438	-0.425292969	886.3	-52.09720851	-64.85329901	-8.531141971	-55
30113	0	0.356484413	-0.135614395	0.102688789	0.999998093	-0.000344276	0.000383377	0.000171661	8.912110329	-3.390359879	2.567219734	-0.017213822	0.019168855	0.008583069	-0.412597656	0.777832031	-0.427978516	886.18	-52.07072267	-64.81516924	-8.600450805	-55
30114	0	0.354467392	-0.136138916	0.102243423	0.999999046	-0.000558853	0.000482559	0.000411987	8.861684799	-3.4034729	2.556085587	-0.027942661	0.024127963	0.020599368	-0.412597656	0.780029297	-0.428222656	886.2	-52.08616521	-64.74819612	-8.65109152	-55
30115	0	0.354797363	-0.134094238	0.100158691	0.999999046	-0.000148773	0.000283241	0.000572205	8.869934082	-3.352355957	2.503967285	-0.00743866	0.014162065	0.028610232	-0.412841797	0.780273438	-0.425292969	886.2	-52.11702799	-64.68081697	-8.638387161	-55
30116	0	0.356905937	-0.134167671	0.10135746	0.999999046	-0.000159264	0.000225067	0.000426292	8.92264843	-3.35419178	2.533936501	-0.007963181	0.011253357	0.021314622	-0.407958984	0.782226563	-0.42578125	886.2	-52.13861172	-64.6307949	-8.637086457	-55
30117	0	0.355407715	-0.133728027	0.103088379	0.999999046	-9.91821E-05	0.000123024	0.000301361	8.885192871	-3.343200684	2.577209473	-0.004959107	0.006151199	0.015068054	-0.405517578	0.779785156	-0.42578125	886.3	-52.15418695	-64.59926851	-8.63169507	-55
30118	0	0.352981567	-0.135121346	0.102781296	0.999999046	0.000444412	-6.29425E-05	0.000598907	8.824539185	-3.378033638	2.569532394	0.022220614	-0.003147126	0.029945376	-0.407958984	0.780029297	-0.425537109	886.2	-52.18692369	-64.55381506	-8.540859454	-55
30119	0	0.354064941	-0.135742188	0.104064941	0.999999046	0.000759125	-0.000247002	0.000198364	8.851623535	-3.393554688	2.601623535	0.037956242	-0.012350084	0.009918214	-0.407958984	0.782226563	-0.422851563	886.3	-52.15934077	-64.55746822	-8.486514958	-55
30120	0	0.355526924	-0.137188911	0.105072975	0.999999046	0.000948906	-0.000185013	2.95639E-05	8.888173103	-3.429722786	2.626824379	0.047445305	-0.009250642	0.001478195	-0.407958984	0.780029297	-0.422607422	886.26	-52.07327038	-64.57191723	-8.474254221	-55
30121	0	0.356689453	-0.13659668	0.104858398	0.999999046	0.000953674	-0.000388145	0.00044632	8.917236328	-3.414916992	2.621459961	0.047683726	-0.019407276	0.022315984	-0.407958984	0.780029297	-0.428466797	886.18	-52.08701066	-64.56291187	-8.342440503	-55
30122	0	0.357442856	-0.138113976	0.107833862	0.999999046	0.000583649	-0.000202179	0.000624657	8.936071396	-3.452849388	2.695846558	0.029182438	-0.010108949	0.031232838	-0.407714844	0.777832031	-0.425537109	886.3	-52.13388076	-64.52446197	-8.225614591	-55
30123	0	0.354248047	-0.137207031	0.10736084	0.999999046	0.000850677	-0.000132561	0.000644684	8.856201172	-3.430175781	2.684020996	0.042533883	-0.006628038	0.032234198	-0.405517578	0.779785156	-0.428710938	886.3	-52.13947129	-64.47907059	-8.118751994	-55
30124	0	0.356115341	-0.135652542	0.107496262	0.999999046	0.001172066	-8.2016E-05	0.000575066	8.90288353	-3.391313553	2.68740654	0.058603303	-0.004100801	0.028753289	-0.405517578	0.777587891	-0.425537109	886.18	-52.08791983	-64.43635132	-8.041941582	-54
30125	0	0.356811523	-0.13482666	0.105834961	0.999999046	0.001037598	0.000103951	0.000598907	8.920288086	-3.370666504	2.645874023	0.051879895	0.005197526	0.029945381	-0.407714844	0.777587891	-0.431152344	886.26	-52.01993453	-64.37842655	-7.993793042	-54
30126	0	0.358643532	-0.134001732	0.10484314	0.999999046	0.000938416	0.000274658	0.000617027	8.966088295	-3.350043297	2.621078491	0.046920787	0.013732913	0.030851371	-0.405273438	0.779785156	-0.434570313	886.2	-51.93379622	-64.30698368	-7.977401975	-55
30127	0	0.35736084	-0.1328125	0.102478027	0.999999046	0.000621796	0.000325203	0.000644684	8.934020996	-3.3203125	2.561950684	0.031089787	0.01626015	0.032234197	-0.402832031	0.77734375	-0.440185547	886.2	-51.87872761	-64.2297187	-7.955928442	-54
30128	0	0.356147766	-0.131129265	0.103604317	0.999999046	0.000555992	0.000146866	0.000522614	8.903694153	-3.278231621	2.590107918	0.027799609	0.007343293	0.026130679	-0.400390625	0.77734375	-0.4375	886.24	-51.8464815	-64.17635163	-7.924285599	-54
30129	0	0.355834961	-0.129760742	0.103759766	0.999999046	0.000679016	0.000275612	0.000267029	8.895874023	-3.244018555	2.593994141	0.033950809	0.013780595	0.013351442	-0.400390625	0.77734375	-0.443359375	886.26	-51.73863358	-64.13719989	-7.952952048	-55
30130	0	0.355402946	-0.128770828	0.105471611	0.999999046	0.000267029	0.000242233	-0.000142097	8.885073662	-3.219270706	2.636790276	0.013351441	0.012111664	-0.007104874	-0.400390625	0.77734375	-0.440429688	886.18	-51.62393724	-64.13747525	-8.04875767	-55
30131	0	0.353210449	-0.130004883	0.102416992	0.999999046	-9.15527E-05	0.000256538	-0.000335693	8.83026123	-3.25012207	2.560424805	-0.004577637	0.01282692	-0.016784668	-0.400390625	0.775146484	-0.437255859	886.24	-51.51915443	-64.1543187	-8.183161244	-55
30132	0	0.355566025	-0.132349014	0.103001595	0.999999046	0.000130653	7.62939E-06	-0.000766754	8.88915062	-3.308725357	2.575039864	0.00653267	0.00038147	-0.038337711	-0.400390625	0.77734375	-0.443359375	886.26	-51.37120828	-64.22765808	-8.329062387	-55
30133	0	0.353881836	-0.133117676	0.104553223	0.999999046	-4.19617E-05	-8.29697E-05	-0.001037598	8.847045898	-3.327941895	2.613830566	-0.002098084	-0.004148484	-0.051879892	-0.402587891	0.775146484	-0.440185547	886.24	-51.21871	-64.33162184	-8.50632909	-55
30134	0	0.35241127	-0.135752678	0.106191635	0.999999046	-0.000160217	-0.000177383	-0.000831604	8.810281754	-3.393816948	2.654790878	-0.008010865	-0.008869172	-0.041580205	-0.405029297	0.775390625	-0.439941406	886.24	-51.12721341	-64.42368326	-8.631622411	-54
30135	0	0.352233887	-0.136535645	0.108581543	0.999999046	4.95911E-05	-0.00014782	-0.000549316	8.805847168	-3.413391113	2.714538574	0.002479553	-0.007390976	-0.027465822	-0.407470703	0.773193359	-0.436767578	886.18	-51.04802746	-64.48810698	-8.720906848	-55
30136	0	0.351316452	-0.136445045	0.1065979	0.999999046	-9.63211E-05	2.86102E-05	-0.000442505	8.782911301	-3.411126137	2.66494751	-0.004816055	0.001430512	-0.022125245	-0.407470703	0.773193359	-0.439697266	886.2	-50.96865847	-64.53000435	-8.823394296	-55
30137	0	0.35369873	-0.139038086	0.105163574	0.999999046	-5.34058E-05	-6.00815E-05	-0.000202179	8.842468262	-3.475952148	2.629089355	-0.002670288	-0.003004074	-0.010108948	-0.407470703	0.773193359	-0.436767578	886.24	-50.93776174	-64.55663282	-8.872161349	-55
30138	0	0.354376793	-0.137197495	0.104189873	0.999999046	1.14441E-05	-0.000146866	8.67844E-05	8.859419823	-3.429937363	2.604746819	0.000572205	-0.007343292	0.004339218	-0.407470703	0.775390625	-0.439941406	886.3	-50.96005741	-64.56366926	-8.849979056	-54
30139	0	0.35333252	-0.136230469	0.105224609	0.999999046	-0.000255585	-0.000247002	0.000484467	8.833312988	-3.405761719	2.630615234	-0.012779237	-0.012350083	0.024223329	-0.407470703	0.773193359	-0.439697266	886.14	-51.09231847	-64.54232441	-8.736573263	-55
30140	0	0.353680611	-0.134674072	0.104002953	0.999999046	-0.000323296	-0.000146866	0.000686646	8.842015266	-3.366851807	2.600073814	-0.016164781	-0.007343293	0.034332279	-0.407470703	0.773193359	-0.439697266	886.3	-51.24410882	-64.49557469	-8.608414347	-55
30141	0	0.35369873	-0.133178711	0.103271484	0.999999046	-0.000175476	-0.000212669	0.000705719	8.842468262	-3.329467773	2.581787109	-0.008773805	-0.01063347	0.035285953	-0.405029297	0.773193359	-0.436767578	886.26	-51.39385163	-64.45174408	-8.467476566	-55
30142	0	0.356059074	-0.132619858	0.104842186	0.999999046	-5.53131E-05	-0.000238419	0.000559807	8.90147686	-3.315496445	2.621054649	-0.002765656	-0.01192093	0.027990343	-0.405273438	0.775390625	-0.431152344	886.2	-51.51236774	-64.42278662	-8.357663471	-55
30143	0	0.356445313	-0.130249023	0.104675293	0.999999046	-4.95911E-05	-0.000315666	0.000473022	8.911132813	-3.256225586	2.616882324	-0.002479553	-0.015783311	0.023651124	-0.405273438	0.777587891	-0.431396484	886.26	-51.63131822	-64.40721113	-8.247177816	-54
30144	0	0.356693268	-0.130536079	0.105107307	0.999999046	-0.000409126	-0.000297546	0.000408173	8.917331696	-3.263401985	2.627682686	-0.020456316	-0.01487732	0.020408632	-0.402587891	0.772949219	-0.437011719	886.24	-51.77805278	-64.39622762	-8.133416667	-55
30145	0	0.356140137	-0.132080078	0.105102539	0.999999046	-0.000270844	-0.000224113	0.000141144	8.903503418	-3.302001953	2.627563477	-0.013542176	-0.011205673	0.00705719	-0.402832031	0.775390625	-0.431396484	886.24	-51.8553443	-64.40412474	-8.090694922	-55
30146	0	0.356516838	-0.13120079	0.105786324	0.999999046	-0.00022316	-8.7738E-05	-0.000106812	8.912920952	-3.28001976	2.644658089	-0.01115799	-0.004386902	-0.005340576	-0.405273438	0.777587891	-0.434326172	886.26	-51.86452156	-64.42482675	-8.113561145	-55
30147	0	0.356445313	-0.131958008	0.103393555	0.999999046	-0.000377655	8.58307E-06	-0.000160217	8.911132813	-3.298950195	2.584838867	-0.018882752	0.000429153	-0.008010864	-0.405273438	0.777587891	-0.428466797	886.24	-51.86522205	-64.4436905	-8.175006959	-55
30148	0	0.358621597	-0.13265419	0.103908539	0.999999046	-0.000561714	0.000228882	-0.00030899	8.965539932	-3.316354752	2.59771347	-0.028085711	0.011444093	-0.015449525	-0.402832031	0.777587891	-0.431396484	886.32	-51.82333181	-64.46050444	-8.299396982	-55
30149	0	0.35369873	-0.133728027	0.104187012	0.999999046	-0.000762939	0.000393867	-0.000408173	8.842468262	-3.343200684	2.604675293	-0.038146978	0.019693378	-0.020408633	-0.402832031	0.777587891	-0.434326172	886.26	-51.75857531	-64.47448944	-8.467190412	-55
30150	0	0.354338646	-0.134755135	0.102428436	0.999999046	-0.000450134	0.000301361	-0.000484467	8.858466148	-3.368878365	2.560710907	-0.022506716	0.015068056	-0.02422333	-0.407714844	0.777587891	-0.434082031	886.3	-51.6641155	-64.50181343	-8.628697489	-55
30151	0	0.356384277	-0.136901855	0.10357666	0.999999046	-0.000240326	0.0002985	-0.000617981	8.909606934	-3.422546387	2.589416504	-0.012016297	0.014925004	-0.030899051	-0.407714844	0.777587891	-0.431152344	886.2	-51.52617803	-64.54112466	-8.81725441	-54
30152	0	0.354415894	-0.136208534	0.102256775	0.999999046	-1.04904E-05	0.000125885	-0.00043869	8.860397339	-3.405213356	2.556419373	-0.000524521	0.006294251	-0.02193451	-0.407714844	0.777587891	-0.431152344	886.24	-51.42131137	-64.57645505	-8.94046476	-55
30153	0	0.355041504	-0.138183594	0.103942871	0.999999046	1.52588E-05	0.000126839	-8.7738E-05	8.876037598	-3.454589844	2.598571777	0.000762939	0.006341934	-0.004386902	-0.407714844	0.777587891	-0.431152344	886.32	-51.36636248	-64.58004177	-9.005516078	-54
30154	0	0.352963448	-0.13653183	0.104218483	0.999999046	-0.000200272	5.14984E-05	6.38962E-05	8.824086189	-3.413295746	2.605462074	-0.01001358	0.002574921	0.003194809	-0.407714844	0.775390625	-0.431152344	886.3	-51.37343862	-64.57526516	-9.026368507	-55
30155	0	0.353271484	-0.138183594	0.104919434	0.999999046	-0.000274658	6.58035E-05	0.000392914	8.831787109	-3.454589844	2.62298584	-0.013732911	0.003290177	0.019645692	-0.407714844	0.775390625	-0.431152344	886.3	-51.43615639	-64.53977071	-8.994020857	-55
30156	0	0.35436821	-0.139863968	0.106352806	0.999999046	0.000349998	-0.000196457	0.000422478	8.859205246	-3.496599197	2.658820152	0.017499925	-0.009822846	0.021123887	-0.407470703	0.775390625	-0.434082031	886.26	-51.48129725	-64.52004182	-8.897233468	-55
30157	0	0.355529785	-0.136474609	0.103759766	0.999999046	0.000736237	-0.000308037	0.000675201	8.888244629	-3.411865234	2.593994141	0.036811835	-0.015401843	0.033760077	-0.407714844	0.777587891	-0.434082031	886.26	-51.54108755	-64.48551054	-8.739512691	-55
30158	0	0.356572151	-0.134908676	0.106056213	0.999999046	0.000637054	-0.000358582	0.000896454	8.91430378	-3.372716904	2.651405334	0.031852729	-0.017929081	0.044822703	-0.407714844	0.777587891	-0.434082031	886.24	-51.65423705	-64.4345754	-8.536540449	-55
30159	0	0.356018066	-0.131896973	0.105041504	0.999999046	0.000812531	-0.000388145	0.001014709	8.90045166	-3.297424316	2.626037598	0.040626538	-0.019407278	0.050735489	-0.405273438	0.777587891	-0.437255859	886.26	-51.76945761	-64.37503843	-8.304408677	-55
30160	0	0.355469704	-0.130554199	0.106379509	0.999999046	0.000565529	-0.000202179	0.000842094	8.886742592	-3.26385498	2.659487724	0.028276449	-0.01010895	0.042104729	-0.405273438	0.777587891	-0.431396484	886.3	-51.8513607	-64.31784264	-8.152729827	-55
30161	0	0.355773926	-0.130493164	0.105102539	0.999999046	0.000396729	-0.000174522	0.000469208	8.894348145	-3.262329102	2.627563477	0.019836427	-0.008726121	0.02346039	-0.402832031	0.775390625	-0.431396484	886.24	-51.8918043	-64.29242185	-8.066551199	-55
30162	0	0.355993271	-0.129585266	0.104164124	0.999999046	0.000398636	-8.2016E-05	0.00014782	8.899831772	-3.239631653	2.604103088	0.019931794	-0.0041008	0.007390976	-0.402832031	0.777587891	-0.434326172	886.32	-51.8670515	-64.28968648	-8.050392057	-55
30163	0	0.358215332	-0.129821777	0.105285645	0.999999046	0.000400543	9.53674E-07	-0.000217438	8.955383301	-3.245544434	2.632141113	0.020027161	4.76837E-05	-0.010871888	-0.402832031	0.777587891	-0.434326172	886.3	-51.77234398	-64.31425123	-8.113116072	-55
30164	0	0.353816032	-0.129769325	0.102093697	0.999999046	-0.000170708	-5.53131E-05	-0.000423431	8.84540081	-3.244233131	2.552342415	-0.008535385	-0.002765656	-0.021171571	-0.402832031	0.775146484	-0.437255859	886.26	-51.72297471	-64.36155439	-8.189633003	-55
30165	0	0.353027344	-0.130065918	0.101745605	0.999999046	-0.000190735	1.23978E-05	-0.000518799	8.825683594	-3.251647949	2.543640137	-0.009536744	0.000619888	-0.025939943	-0.402587891	0.775146484	-0.440185547	886.32	-51.64877739	-64.41278652	-8.290424186	-55
30166	0	0.355603218	-0.132177353	0.101153374	0.999999046	-0.000434875	-3.62396E-05	-0.000912666	8.890080452	-3.304433823	2.528834343	-0.021743778	-0.001811982	-0.045633324	-0.405029297	0.775390625	-0.439941406	886.26	-51.55275516	-64.50296255	-8.446550376	-55
30167	0	0.354980469	-0.136291504	0.102111816	0.999999046	-0.000190735	-0.000311852	-0.00087738	8.874511719	-3.407287598	2.55279541	-0.009536745	-0.015592577	-0.043869025	-0.407470703	0.775390625	-0.434082031	886.26	-51.48549527	-64.60948599	-8.550547755	-55
30168	0	0.356443405	-0.136011124	0.102934837	0.999999046	5.05447E-05	-0.000499725	-0.000496864	8.911085129	-3.400278091	2.573370934	0.002527237	-0.024986269	-0.024843218	-0.407470703	0.773193359	-0.430908203	886.2	-51.4832771	-64.69521	-8.55525057	-55
30169	0	0.354248047	-0.134399414	0.104370117	0.999999046	-0.000537872	-0.000201225	-9.91821E-05	8.856201172	-3.359985352	2.60925293	-0.026893617	-0.010061265	-0.004959107	-0.409912109	0.773193359	-0.430664063	886.26	-51.55203733	-64.72385141	-8.554538575	-55
30170	0	0.35425663	-0.137190819	0.106215477	0.999999046	-0.000808716	-5.53131E-05	3.8147E-06	8.856415749	-3.42977047	2.655386925	-0.040435795	-0.002765656	0.000190735	-0.409912109	0.773193359	-0.430664063	886.3	-51.63980767	-64.73256973	-8.563974867	-55
30171	0	0.35736084	-0.13671875	0.104858398	0.999999046	-0.000579834	0.000187874	0.0001297	8.934020996	-3.41796875	2.621459961	-0.028991701	0.009393693	0.006484986	-0.412597656	0.775634766	-0.427978516	886.24	-51.67418845	-64.71254074	-8.609482113	-54
30172	0	0.356858253	-0.136140823	0.105382919	0.999999046	-0.000542641	0.000192642	0.000423431	8.921456337	-3.403520584	2.634572983	-0.027132037	0.009632111	0.021171572	-0.409912109	0.775634766	-0.430908203	886.26	-51.74758952	-64.66561612	-8.599160476	-55
30173	0	0.356323242	-0.135375977	0.106628418	0.999999046	3.8147E-05	0.000195503	0.000572205	8.908081055	-3.384399414	2.665710449	0.001907349	0.009775162	0.028610231	-0.407714844	0.777832031	-0.428466797	886.26	-51.77588356	-64.60495012	-8.571658219	-55
30174	0	0.355278969	-0.130465508	0.104029655	0.999999046	-0.000183105	0.000362396	0.000483513	8.88197422	-3.261637688	2.600741386	-0.009155274	0.018119813	0.024175646	-0.407714844	0.775390625	-0.431152344	886.3	-51.78432193	-64.54053335	-8.586250192	-55
30175	0	0.354003906	-0.133178711	0.104064941	0.999999046	-0.000236511	0.000340462	0.000137329	8.850097656	-3.329467773	2.601623535	-0.011825562	0.017023087	0.006866455	-0.407714844	0.777832031	-0.428466797	886.36	-51.75147556	-64.50883476	-8.660493176	-55
30176	0	0.353837013	-0.133568764	0.101494789	0.999999046	0.000515938	4.00543E-05	-0.000297546	8.845925331	-3.339219093	2.537369728	0.025796892	0.002002716	-0.01487732	-0.405273438	0.775390625	-0.431152344	886.36	-51.62457801	-64.53759666	-8.7376743	-55
30177	0	0.354797363	-0.131652832	0.100402832	0.999999046	5.34058E-05	0.000180244	-0.000133514	8.869934082	-3.291320801	2.510070801	0.002670288	0.009012222	-0.00667572	-0.407470703	0.775390625	-0.434082031	886.36	-51.54883509	-64.54175982	-8.812496256	-55
30178	0	0.355956078	-0.13563633	0.103351593	0.999999046	-0.000209808	3.24249E-05	-0.000149727	8.898901939	-3.390908241	2.583789825	-0.010490418	0.001621246	-0.007486343	-0.405273438	0.777587891	-0.437255859	886.2	-51.5289218	-64.55784624	-8.854369395	-54
30179	0	0.354064941	-0.134399414	0.102783203	0.999999046	0.000148773	-0.000224113	7.62939E-06	8.851623535	-3.359985352	2.569580078	0.00743866	-0.011205673	0.00038147	-0.405273438	0.777587891	-0.431396484	886.2	-51.54005467	-64.57808656	-8.827724886	-55
30180	0	0.353010178	-0.133459091	0.102908134	0.999999046	6.96182E-05	-0.000114441	0.000190735	8.82525444	-3.33647728	2.572703362	0.003480911	-0.005722046	0.009536743	-0.407714844	0.775390625	-0.431152344	886.24	-51.56714274	-64.57405494	-8.792121862	-55
30181	0	0.35546875	-0.135620117	0.102722168	0.999999046	3.8147E-06	9.25064E-05	-0.00018692	8.88671875	-3.39050293	2.568054199	0.000190735	0.00462532	-0.009346008	-0.407470703	0.775390625	-0.437011719	886.26	-51.50638033	-64.58911848	-8.851570819	-55
30182	0	0.356049538	-0.135730743	0.101750374	0.999999046	0.000114441	-3.05176E-05	-9.53674E-05	8.901238441	-3.393268585	2.543759346	0.005722046	-0.001525879	-0.004768372	-0.409912109	0.775634766	-0.433837891	886.26	-51.47023707	-64.60472636	-8.877057447	-55
30183	0	0.356628418	-0.136108398	0.101928711	0.999999046	0.000141144	-0.000201225	0.000305176	8.915710449	-3.402709961	2.548217773	0.00705719	-0.010061264	0.015258789	-0.409912109	0.775634766	-0.433837891	886.26	-51.52386934	-64.59657883	-8.799976542	-55
30184	0	0.354878426	-0.135258675	0.104325294	0.999999046	0.000105858	-0.000188828	5.72205E-05	8.87196064	-3.381466866	2.608132362	0.005292893	-0.009441376	0.002861023	-0.407714844	0.777587891	-0.434082031	886.3	-51.54206569	-64.60968525	-8.767887761	-55
30185	0	0.354064941	-0.13458252	0.102783203	0.999999046	-0.000190735	-0.000102043	0.000141144	8.851623535	-3.364562988	2.569580078	-0.009536743	-0.005102158	0.00705719	-0.405273438	0.775390625	-0.431152344	886.32	-51.59063098	-64.60903104	-8.74174355	-55
30186	0	0.353742599	-0.134539604	0.103268623	0.999999046	-0.000265121	-0.000230789	0.000201225	8.843564987	-3.363490105	2.581715584	-0.013256073	-0.01153946	0.010061264	-0.407714844	0.775390625	-0.428222656	886.32	-51.68119666	-64.6120683	-8.682957538	-55
30187	0	0.355895996	-0.134277344	0.102783203	0.999999046	-3.43323E-05	-0.00020504	0.00031662	8.897399902	-3.356933594	2.569580078	-0.001716614	-0.010251999	0.015830994	-0.407714844	0.777587891	-0.431152344	886.3	-51.75781006	-64.60286923	-8.606401281	-55
30188	0	0.356035233	-0.134815216	0.102687836	0.999999046	-0.000100136	-0.000240326	7.62939E-05	8.900880814	-3.370380402	2.567195892	-0.00500679	-0.012016297	0.003814697	-0.407714844	0.777832031	-0.428466797	886.24	-51.81286077	-64.6177769	-8.566504538	-54
30189	0	0.356506348	-0.134094238	0.102478027	0.999999046	-0.00025177	-0.000212669	0.000247955	8.912658691	-3.352355957	2.561950684	-0.012588501	-0.010633469	0.012397766	-0.407714844	0.775390625	-0.428222656	886.26	-51.90576164	-64.61527016	-8.500440215	-55
30190	0	0.35562706	-0.135481834	0.101403236	0.999999046	-0.000104904	-0.000310898	0.000166893	8.890676498	-3.38704586	2.53508091	-0.005245209	-0.015544892	0.00834465	-0.407714844	0.777587891	-0.431152344	886.26	-51.98869983	-64.62696992	-8.422564889	-55
30191	0	0.354370117	-0.13482666	0.10345459	0.999999046	-6.86646E-05	-0.000243187	-4.19617E-05	8.85925293	-3.370666504	2.586364746	-0.003433228	-0.012159348	-0.002098084	-0.407714844	0.777587891	-0.431152344	886.36	-52.02354195	-64.65265487	-8.392755691	-55
30192	0	0.354248047	-0.13444519	0.10277462	0.999999046	-6.38962E-05	-0.000322342	6.00815E-05	8.856201172	-3.361129761	2.569365501	-0.003194809	-0.016117096	0.003004074	-0.41015625	0.777832031	-0.431152344	886.26	-52.08818415	-64.67464315	-8.329298711	-55
30193	0	0.355285645	-0.135314941	0.103149414	0.999999046	-0.000171661	-0.000247002	-0.000102997	8.882141113	-3.382873535	2.578735352	-0.008583069	-0.012350083	-0.005149841	-0.407714844	0.777832031	-0.428466797	886.26	-52.12658423	-64.70598698	-8.312211415	-55
30194	0	0.354814529	-0.136864662	0.102437973	0.999999046	2.86102E-05	-0.000167847	-8.86917E-05	8.870363235	-3.421616554	2.560949326	0.001430511	-0.008392334	-0.004434586	-0.407714844	0.780029297	-0.431396484	886.24	-52.12921594	-64.73033811	-8.305986395	-55
30195	0	0.355407715	-0.136291504	0.101501465	0.999999046	0.000400543	-0.000258446	0.000179291	8.885192871	-3.407287598	2.537536621	0.020027162	-0.012922288	0.008964539	-0.41015625	0.777832031	-0.428222656	886.32	-52.14671932	-64.73674875	-8.241375867	-55
30196	0	0.358096123	-0.136034012	0.101302147	0.999999046	-1.43051E-05	-0.00012207	0.000228882	8.952403069	-3.400850296	2.532553673	-0.000715256	-0.006103516	0.011444092	-0.41015625	0.777832031	-0.425292969	886.24	-52.19317424	-64.72907591	-8.202370156	-55
30197	0	0.35534668	-0.135437012	0.101806641	0.999999046	-0.000274658	-5.24521E-05	0.000423431	8.883666992	-3.385925293	2.545166016	-0.013732911	-0.002622604	0.021171571	-0.41015625	0.780029297	-0.431396484	886.24	-52.28505991	-64.69881655	-8.135506845	-55
30198	0	0.355976105	-0.134513855	0.102609634	0.999999046	-0.000228882	-7.43866E-05	0.000716209	8.899402618	-3.362846375	2.56524086	-0.011444093	-0.00371933	0.035810474	-0.41015625	0.777832031	-0.428222656	886.3	-52.41885382	-64.6434693	-8.018822595	-55
30199	0	0.355712891	-0.133972168	0.104675293	0.999999046	-0.000244141	5.81741E-05	0.000484467	8.892822266	-3.349304199	2.616882324	-0.012207032	0.002908707	0.024223329	-0.407714844	0.780029297	-0.431396484	886.36	-52.49408079	-64.59979521	-7.963627145	-55
30200	0	0.355632782	-0.132658958	0.103918076	0.999999046	-0.00032711	0.000164032	0.000171661	8.89081955	-3.316473961	2.597951889	-0.016355515	0.008201599	0.008583069	-0.405517578	0.780029297	-0.422851563	886.24	-52.51203161	-64.57722092	-7.996858036	-55
30201	0	0.35559082	-0.132751465	0.102722168	0.999999046	-0.000396729	0.000390053	0.000171661	8.889770508	-3.318786621	2.568054199	-0.019836427	0.019502641	0.008583069	-0.407958984	0.782226563	-0.431640625	886.36	-52.49453844	-64.53895983	-8.063303272	-55
30202	0	0.3554039	-0.133992195	0.101915359	0.999999046	-0.000209808	0.00030899	-1.14441E-05	8.885097504	-3.349804878	2.547883987	-0.010490418	0.015449524	-0.000572205	-0.407958984	0.780029297	-0.422607422	886.2	-52.44423129	-64.52306081	-8.156826834	-55
30203	0	0.355163574	-0.135131836	0.101623535	0.999999046	0.000263214	0.000107765	-0.000335693	8.879089355	-3.378295898	2.540588379	0.013160706	0.00538826	-0.016784669	-0.407958984	0.782226563	-0.42578125	886.26	-52.33050658	-64.55064881	-8.25804341	-54
30204	0	0.354195595	-0.135209084	0.098595619	0.999999046	0.000149727	-0.000116348	-0.000282288	8.85488987	-3.380227089	2.46489048	0.007486344	-0.005817413	-0.01411438	-0.407958984	0.780029297	-0.428466797	886.32	-52.28054285	-64.58911862	-8.296373891	-55
30205	0	0.353088379	-0.142822266	0.100341797	0.999999046	0.001014709	-0.000235558	-0.00043869	8.827209473	-3.570556641	2.508544922	0.050735484	-0.01177788	-0.021934514	-0.405517578	0.777587891	-0.425537109	886.26	-52.13157014	-64.64980981	-8.341001476	-55
30206	0	0.352519989	-0.131498337	0.104409218	0.999997139	0.002075195	-0.000694275	-0.000396729	8.812999725	-3.28745842	2.610230446	0.103759851	-0.034713774	-0.019836442	-0.407714844	0.777587891	-0.431152344	886.26	-51.95405902	-64.73896794	-8.279359978	-54
30207	0	0.35760498	-0.136291504	0.104614258	0.999999046	0.000377655	-0.000803947	-7.62939E-06	8.940124512	-3.407287598	2.615356445	0.018882754	-0.040197378	-0.00038147	-0.407714844	0.775390625	-0.431152344	886.24	-52.05036814	-64.80062455	-8.127955695	-55
30208	0	0.358570099	-0.139380455	0.105607033	0.999999046	0.000271797	-0.000377655	0.000533104	8.964252472	-3.484511375	2.640175819	0.01358986	-0.018882753	0.026655199	-0.409912109	0.773193359	-0.430664063	886.32	-52.15820558	-64.78301204	-7.976412418	-54
30209	0	0.354797363	-0.134521484	0.106079102	0.999999046	3.8147E-06	-0.000136375	0.000976563	8.869934082	-3.363037109	2.651977539	0.000190735	-0.006818772	0.048828133	-0.41015625	0.775634766	-0.427978516	886.32	-52.31562709	-64.70799557	-7.810584926	-55
30210	0	0.354254723	-0.136189461	0.103601456	0.999999046	0.000221252	-4.3869E-05	0.000945091	8.856368065	-3.404736519	2.590036392	0.011062624	-0.002193451	0.04725457	-0.407714844	0.777587891	-0.431152344	886.3	-52.42479389	-64.62906351	-7.666294644	-55
30211	0	0.356018066	-0.134887695	0.102416992	0.999999046	0.001266479	-1.43051E-05	0.000289917	8.90045166	-3.372192383	2.560424805	0.063323992	-0.000715256	0.014495854	-0.405273438	0.777587891	-0.431396484	886.24	-52.31152855	-64.60754496	-7.639267294	-54
30212	0	0.356799126	-0.13117981	0.100296974	0.999999046	0.001091957	7.62939E-06	0.00032711	8.919978142	-3.279495239	2.507424355	0.054597866	0.00038147	0.016355518	-0.407714844	0.775390625	-0.431152344	886.32	-52.21949502	-64.58138112	-7.613267113	-55
30213	0	0.358215332	-0.133117676	0.101928711	0.999999046	0.000923157	-0.000105858	0.000427246	8.955383301	-3.327941895	2.548217773	0.046157845	-0.005292893	0.021362308	-0.407470703	0.775390625	-0.434082031	886.26	-52.18314589	-64.55429026	-7.544459499	-54
30214	0	0.355745316	-0.130243301	0.101970673	0.999999046	0.000989914	-0.000165939	0.000331879	8.893632889	-3.256082535	2.549266815	0.049495706	-0.008296968	0.016593936	-0.407470703	0.775390625	-0.439941406	886.32	-52.13619465	-64.54028168	-7.471235168	-54
30215	0	0.357055664	-0.129089355	0.103393555	0.999999046	0.000518799	9.53674E-07	0.000190735	8.926391602	-3.227233887	2.584838867	0.025939943	4.76837E-05	0.009536744	-0.407470703	0.773193359	-0.436767578	886.3	-52.09016741	-64.52756399	-7.462169575	-54
30216	0	0.355723381	-0.130337715	0.105114937	0.999999046	0.000260353	0.000226974	-6.96182E-05	8.893084526	-3.258442879	2.627873421	0.013017655	0.011348725	-0.003480911	-0.409667969	0.773193359	-0.439453125	886.26	-51.99189112	-64.52256057	-7.540435176	-55
30217	0	0.356201172	-0.131896973	0.102966309	0.999999046	0.000232697	0.00017643	-0.000293732	8.905029297	-3.297424316	2.574157715	0.011634827	0.008821488	-0.014686585	-0.405029297	0.775390625	-0.437011719	886.26	-51.87293763	-64.54141989	-7.652479883	-55
30218	0	0.355327606	-0.134081841	0.103702545	0.999999046	0.000488281	0.000156403	-0.000457764	8.883190155	-3.352046013	2.592563629	0.024414064	0.00782013	-0.022888185	-0.407226563	0.773193359	-0.442626953	886.3	-51.70383383	-64.57634893	-7.777629222	-54
30219	0	0.355895996	-0.136413574	0.100646973	0.999999046	0.000576019	0.000317574	-0.000392914	8.897399902	-3.410339355	2.516174316	0.028800967	0.015878679	-0.019645693	-0.407226563	0.770996094	-0.442382813	886.2	-51.50405013	-64.59380975	-7.926892545	-54
30220	0	0.355082512	-0.137661934	0.105546951	0.999998093	0.001646042	0.000832558	-0.000530243	8.877062798	-3.441548347	2.638673782	0.082302144	0.041627909	-0.026512162	-0.407226563	0.768554688	-0.439208984	886.24	-51.06393578	-64.58607333	-8.217694656	-55
30221	0	0.355102539	-0.126586914	0.106079102	0.999999046	0.000411987	0.000599861	-0.000289917	8.877563477	-3.164672852	2.651977539	0.020599367	0.02999306	-0.014495851	-0.409423828	0.768798828	-0.447998047	886.26	-50.84501849	-64.57322494	-8.407130972	-54
30222	0	0.358044624	-0.132031441	0.10472393	0.999999046	-0.001279831	8.58307E-05	0.000109673	8.951115608	-3.300786018	2.618098259	-0.063991564	0.004291536	0.005483629	-0.406982422	0.768554688	-0.450927734	886.32	-50.97706331	-64.56200624	-8.412041537	-55
30223	0	0.35534668	-0.133239746	0.103515625	0.999999046	-0.000762939	-6.77109E-05	0.000473022	8.883666992	-3.330993652	2.587890625	-0.038146978	-0.003385544	0.023651126	-0.407226563	0.768554688	-0.439208984	886.26	-51.13376859	-64.52953506	-8.342711468	-55
30224	0	0.352552414	-0.130255699	0.105221748	0.999999046	-0.000784874	-1.52588E-05	0.000152588	8.813810349	-3.256392479	2.630543709	-0.039243702	-0.00076294	0.007629395	-0.407226563	0.770996094	-0.442382813	886.26	-51.23445563	-64.52187402	-8.331741421	-54
30225	0	0.352905273	-0.132080078	0.105834961	0.999999046	-0.000892639	5.81741E-05	-0.000221252	8.822631836	-3.302001953	2.645874023	-0.044631964	0.002908707	-0.011062624	-0.407226563	0.770996094	-0.442382813	886.3	-51.27726318	-64.54232079	-8.395489786	-54
30226	0	0.353012085	-0.132601738	0.10594368	0.999999046	-0.000389099	-4.95911E-05	-0.000382423	8.825302124	-3.315043449	2.648591995	-0.019454957	-0.002479553	-0.019121171	-0.409667969	0.770996094	-0.436523438	886.32	-51.25809085	-64.58485582	-8.473941371	-54
30227	0	0.355834961	-0.132141113	0.104431152	0.999999046	-0.000411987	-0.00026226	-0.000312805	8.895874023	-3.303527832	2.610778809	-0.020599366	-0.013113023	-0.01564026	-0.409667969	0.770996094	-0.436523438	886.26	-51.29197526	-64.63646483	-8.494671767	-54
30228	0	0.355974197	-0.134263992	0.105109215	0.999999046	-0.000409126	-0.000282288	-0.000447273	8.899354935	-3.356599808	2.62773037	-0.020456316	-0.014114381	-0.022363664	-0.409667969	0.770996094	-0.439208984	886.26	-51.30905336	-64.70146959	-8.526919425	-54
30229	0	0.353271484	-0.133056641	0.105407715	0.999999046	-0.000137329	-0.000449181	-0.000469208	8.831787109	-3.326416016	2.635192871	-0.006866456	-0.022459032	-0.02346039	-0.407470703	0.773193359	-0.436767578	886.26	-51.32315736	-64.78028753	-8.533477367	-54
30230	0	0.353185654	-0.134158134	0.104380608	0.999999046	-8.2016E-05	-0.000450134	-0.000523567	8.829641342	-3.353953362	2.60951519	-0.0041008	-0.022506716	-0.026178362	-0.412109375	0.768798828	-0.436035156	886.2	-51.32294568	-64.86388775	-8.545772548	-54
30231	0	0.35534668	-0.140563965	0.104431152	0.999999046	0.001037598	-0.000449181	-0.000640869	8.883666992	-3.514099121	2.610778809	0.051879897	-0.022459036	-0.032043466	-0.412109375	0.771240234	-0.433349609	886.3	-51.17657444	-64.95753918	-8.588889464	-54
30232	0	0.352921486	-0.129089355	0.10602951	0.999997139	0.001849174	-0.000408173	-0.000645638	8.823037148	-3.227233887	2.650737762	0.092458787	-0.020408644	-0.032281897	-0.414306641	0.768798828	-0.441894531	886.26	-50.92743254	-65.04852747	-8.63124889	-54
30233	0	0.354919434	-0.128723145	0.105407715	0.999999046	4.19617E-05	-0.00052166	-3.05176E-05	8.87298584	-3.218078613	2.635192871	0.002098084	-0.026082994	-0.001525879	-0.414306641	0.766601563	-0.438720703	886.32	-51.00192218	-65.09289948	-8.547968646	-54
30234	0	0.356071472	-0.135529518	0.10229969	0.999999046	-0.000167847	-0.000492096	0.00043869	8.901786804	-3.388237953	2.557492256	-0.008392335	-0.024604799	0.021934511	-0.416503906	0.766601563	-0.444335938	886.32	-51.16835813	-65.09305761	-8.378292015	-54
30235	0	0.355895996	-0.130371094	0.100463867	0.999999046	0.000125885	-0.00039959	0.000583649	8.897399902	-3.259277344	2.51159668	0.006294251	-0.019979479	0.029182437	-0.414306641	0.766601563	-0.441650391	886.3	-51.305899	-65.07352478	-8.207685903	-52
30236	0	0.354858398	-0.130371094	0.100646973	0.999999046	-6.77109E-05	-0.00044632	0.00056076	8.871459961	-3.259277344	2.516174316	-0.003385544	-0.022315981	0.028038027	-0.416748047	0.766845703	-0.438476563	886.36	-51.47103464	-65.05925404	-8.036426531	-54
30237	0	0.355326653	-0.129792213	0.09760952	0.999998093	0.000542641	-0.000768661	0.000364304	8.883166313	-3.244805336	2.440237999	0.027132039	-0.038433081	0.018215183	-0.414306641	0.766601563	-0.435791016	886.3	-51.59863254	-65.08557831	-7.834379142	-54
30238	0	0.358149529	-0.128891945	0.099584579	0.999999046	0.000242233	-0.000780106	0.000221252	8.953738213	-3.222298622	2.489614487	0.012111665	-0.039005284	0.011062623	-0.416748047	0.769042969	-0.441650391	886.24	-51.74144294	-65.12555686	-7.645094425	-54
30239	0	0.358581543	-0.129394531	0.09979248	0.999999046	0.000236511	-0.00083065	-3.43323E-05	8.964538574	-3.234863281	2.494812012	0.011825563	-0.041532522	-0.001716614	-0.414550781	0.769042969	-0.436035156	886.26	-51.85620359	-65.19212495	-7.497159443	-52
30240	0	0.358940125	-0.129384041	0.100355148	0.999999046	0.000237465	-0.000823975	3.71933E-05	8.973503113	-3.234601021	2.508878708	0.011873247	-0.041198736	0.001859665	-0.411865234	0.766601563	-0.436035156	886.26	-51.98112501	-65.25175693	-7.334469258	-54
30241	0	0.359008789	-0.129760742	0.101196289	0.999999046	9.91821E-05	-0.000639915	-8.01086E-05	8.975219727	-3.244018555	2.529907227	0.004959107	-0.031995776	-0.004005432	-0.416748047	0.766845703	-0.438476563	886.24	-52.06827802	-65.30894006	-7.226672637	-54
30242	0	0.359220505	-0.128829002	0.1014328	0.999999046	-0.000102997	-0.000314713	-4.19617E-05	8.980512619	-3.22072506	2.535820007	-0.005149841	-0.015735627	-0.002098084	-0.414306641	0.766601563	-0.438720703	886.24	-52.12049481	-65.33979974	-7.180946935	-54
30243	0	0.358947754	-0.129089355	0.102478027	0.999999046	-0.000526428	5.81741E-05	0	8.973693848	-3.227233887	2.561950684	-0.026321412	0.002908707	0	-0.419189453	0.766845703	-0.435546875	886.26	-52.15385535	-65.34064684	-7.214345299	-54
30244	0	0.356678009	-0.128034592	0.099392891	0.999999046	-0.000897408	0.000368118	0.000160217	8.916950226	-3.200864792	2.484822273	-0.044870384	0.018405917	0.008010866	-0.419189453	0.769042969	-0.435791016	886.3	-52.19303557	-65.30531768	-7.287095227	-54
30245	0	0.356811523	-0.12890625	0.097229004	0.999999046	-0.001110077	0.000657082	0.000202179	8.920288086	-3.22265625	2.430725098	-0.055503861	0.03285409	0.010108951	-0.416748047	0.766845703	-0.435791016	886.24	-52.20638771	-65.24604733	-7.40942433	-54
30246	0	0.358341217	-0.129814148	0.096190453	0.999999046	-0.001216888	0.000606537	1.81198E-05	8.958530426	-3.245353699	2.404761314	-0.06084444	0.030326853	0.000905991	-0.416992188	0.769042969	-0.432861328	886.26	-52.21438529	-65.20719772	-7.555555806	-54
30247	0	0.358459473	-0.130249023	0.096252441	0.999999046	-0.001121521	0.000237465	-8.7738E-05	8.961486816	-3.256225586	2.406311035	-0.056076062	0.011873248	-0.004386903	-0.416992188	0.771240234	-0.430175781	886.26	-52.26811067	-65.20405589	-7.642896778	-54
30248	0	0.357948303	-0.13137722	0.095333099	0.999998093	-0.001396179	-0.000239372	-0.000275612	8.948707581	-3.284430504	2.383327484	-0.069808984	-0.011968617	-0.013780599	-0.416992188	0.769042969	-0.427001953	886.2	-52.4188824	-65.25155822	-7.656299957	-54
30249	0	0.353637695	-0.133666992	0.094360352	0.999999046	-0.00069046	-0.000575066	-0.000789642	8.840942383	-3.341674805	2.359008789	-0.034523018	-0.028753287	-0.039482126	-0.416992188	0.771240234	-0.427246094	886.26	-52.47780327	-65.36919694	-7.680621097	-52
30250	0	0.350411415	-0.133359909	0.089133263	0.999998093	0.000231743	-0.00051403	-0.001626015	8.760285378	-3.333997726	2.228331566	0.011587149	-0.025701536	-0.081300776	-0.419433594	0.771484375	-0.424316406	886.24	-52.29137181	-65.55850686	-7.865735531	-54
30251	0	0.354003906	-0.134094238	0.085510254	0.999997139	0.000297546	-0.000227928	-0.002105713	8.850097656	-3.352355957	2.137756348	0.014877331	-0.011396417	-0.105285725	-0.424316406	0.769287109	-0.426757813	886.26	-51.96369709	-65.77085769	-8.193482879	-54
30252	0	0.358998299	-0.133086205	0.079810143	0.999995232	-0.000992775	0.00044632	-0.002861023	8.974957466	-3.327155113	1.995253563	-0.049638826	0.022316014	-0.143051371	-0.428955078	0.767333984	-0.429199219	886.3	-51.52445198	-66.00278486	-8.798303185	-54
30253	0	0.364624023	-0.134765625	0.07598877	0.999990463	-0.002688408	0.001068115	-0.003269196	9.115600586	-3.369140625	1.899719238	-0.134420822	0.053405931	-0.163460297	-0.428955078	0.765136719	-0.423095703	886.2	-51.08061202	-66.22520841	-9.62314881	-53
30254	0	0.368290901	-0.136798859	0.076337814	0.999987602	-0.00394249	0.001024246	-0.002794266	9.20727253	-3.419971466	1.908445358	-0.197125283	0.051212519	-0.139713856	-0.436279297	0.765380859	-0.416992188	886.24	-50.86025394	-66.40697138	-10.36193483	-54
30255	0	0.368408203	-0.135742188	0.07409668	0.999990463	-0.003817558	0.000312805	-0.001861572	9.210205078	-3.393554688	1.852416992	-0.190878491	0.015640306	-0.093078895	-0.436279297	0.767578125	-0.417236328	886.3	-50.92303479	-66.5572525	-10.76504424	-53
30256	0	0.365811348	-0.134841919	0.07579422	0.999995232	-0.002703667	-0.000665665	-0.000831604	9.145283699	-3.371047974	1.894855499	-0.135183525	-0.03328328	-0.041580259	-0.44140625	0.770019531	-0.408447266	886.26	-51.23282043	-66.68699203	-10.76927773	-53
30257	0	0.364013672	-0.129211426	0.080566406	0.999996185	-0.001963615	-0.001163483	-0.000724792	9.100341797	-3.230285645	2.014160156	-0.098180865	-0.058174189	-0.036239659	-0.443603516	0.768066406	-0.405273438	886.24	-51.58280584	-66.84300949	-10.6332383	-52
30258	0	0.361523628	-0.126759529	0.083132744	0.999995232	-0.002721786	-0.000930786	-0.00109005	9.038090706	-3.168988228	2.078318596	-0.13608954	-0.04653938	-0.054502573	-0.446289063	0.768066406	-0.399169922	886.26	-51.91382123	-67.01523571	-10.61349722	-54
30259	0	0.358764648	-0.127197266	0.084899902	0.999994278	-0.00278759	-0.000461578	-0.00182724	8.969116211	-3.179931641	2.122497559	-0.139379764	-0.023078962	-0.091362172	-0.448730469	0.770507813	-0.393554688	886.26	-52.03116891	-67.22084093	-10.83724199	-55
30260	0	0.360167503	-0.127952576	0.086170197	0.999993324	-0.002278328	-2.47955E-05	-0.002608299	9.004187584	-3.198814392	2.154254913	-0.113916625	-0.001239779	-0.130415223	-0.451171875	0.770507813	-0.393310547	886.32	-51.86166449	-67.46590316	-11.30204258	-56
30261	0	0.361755371	-0.129943848	0.083740234	0.999990463	-0.001578331	0.000602722	-0.003807068	9.043884277	-3.248596191	2.093505859	-0.078916778	0.030136196	-0.190353944	-0.460693359	0.768554688	-0.392578125	886.24	-51.25886913	-67.77244311	-12.14670585	-57
30262	0	0.362766266	-0.128418922	0.081386566	0.999988556	-0.0010252	0.001219749	-0.004408836	9.069156647	-3.210473061	2.034664154	-0.051260182	0.060987696	-0.220442626	-0.465576172	0.768798828	-0.392333984	886.16	-50.32919676	-68.08321232	-13.27659366	-57
30263	0	0.364074707	-0.131103516	0.081237793	0.999986649	-0.001235008	0.002006531	-0.004470825	9.101867676	-3.277587891	2.030944824	-0.061750675	0.100326965	-0.223542211	-0.472412109	0.762451172	-0.388427734	886.24	-49.2132055	-68.33320622	-14.63602528	-57
30264	0	0.362426758	-0.131183624	0.083155632	0.999985695	-0.001317024	0.002996445	-0.004112244	9.060668945	-3.279590607	2.0788908	-0.065851515	0.149822925	-0.205613129	-0.477050781	0.760253906	-0.394042969	886.24	-47.93739125	-68.46627891	-16.16728014	-57
30265	0	0.362915039	-0.129638672	0.079772949	0.999984741	-0.001589775	0.003593445	-0.003704071	9.072875977	-3.240966797	1.99432373	-0.079489141	0.179673114	-0.185204452	-0.479248047	0.755859375	-0.393554688	886.3	-46.6350832	-68.50549336	-17.76097164	-57
30266	0	0.361298561	-0.126133919	0.085441589	0.99998188	-0.001407623	0.004785538	-0.003133774	9.032464027	-3.153347969	2.136039734	-0.070381572	0.23927827	-0.156689596	-0.483886719	0.753662109	-0.393066406	886.32	-45.18194124	-68.38821222	-19.5016956	-57
30267	0	0.352722168	-0.119934082	0.088989258	0.999970436	-0.003929138	0.00628376	-0.001590729	8.818054199	-2.998352051	2.224731445	-0.19645879	0.314191012	-0.0795372	-0.483886719	0.753662109	-0.393066406	886.24	-44.0600251	-68.00983345	-21.19974297	-57
30268	0	0.349547386	-0.129776955	0.083208084	0.999949455	-0.00568676	0.00828743	-3.8147E-06	8.738684654	-3.244423866	2.080202103	-0.284342785	0.414378467	-0.000190738	-0.481445313	0.755859375	-0.399169922	886.24	-43.13641363	-67.32825721	-22.89420238	-56
30269	0	0.341552734	-0.137329102	0.082824707	0.999940872	-0.004649162	0.009681702	0.001045227	8.538818359	-3.433227539	2.070617676	-0.232462626	0.484094478	0.052262367	-0.477050781	0.762451172	-0.396972656	886.26	-42.13886248	-66.4365361	-24.5629261	-56
30270	0	0.344138145	-0.15036869	0.073586464	0.99993515	-0.002947807	0.010554314	0.002968788	8.603453636	-3.759217262	1.839661598	-0.147393532	0.52772702	0.148442596	-0.465332031	0.766601563	-0.397949219	886.3	-41.27635149	-65.31290128	-25.8929739	-57
30271	0	0.334106445	-0.163513184	0.06842041	0.999911308	0.00189209	0.010201454	0.008289337	8.352661133	-4.08782959	1.710510254	0.094607273	0.510087702	0.414479042	-0.450927734	0.770507813	-0.407958984	886.3	-40.98334298	-63.81306702	-25.9998818	-56
30272	0	0.307378769	-0.211752892	0.081455231	0.999798775	0.004639626	0.00894165	0.017310143	7.684469223	-5.293822289	2.036380768	0.231996789	0.447112414	0.865564998	-0.427001953	0.776123047	-0.418457031	886.36	-42.06321146	-61.73343772	-24.22257897	-57
30273	0	0.251525879	-0.259338379	0.062866211	0.999540329	0.009148598	0.00561142	0.028327942	6.288146973	-6.483459473	1.571655273	0.457499875	0.280613913	1.416613812	-0.388916016	0.790527344	-0.439208984	886.26	-44.45629981	-59.0363736	-20.30578601	-57
30274	0	0.208062172	-0.305532455	0.035445213	0.999001503	0.025800705	-0.00044632	0.036459923	5.201554298	-7.638311386	0.886130333	1.290464613	-0.022323406	1.823602892	-0.333984375	0.801757813	-0.466552734	886.3	-46.24687956	-56.08593767	-14.76993946	-58
30275	0	0.161315918	-0.325134277	-0.003662109	0.998405457	0.036484718	-0.00617218	0.042617798	4.032897949	-8.128356934	-0.091552734	1.825205827	-0.30877309	2.132022845	-0.270751953	0.796875	-0.513183594	886.32	-47.55528784	-52.97761563	-8.154168738	-63
30276	0	0.174015045	-0.358661652	-0.058204651	0.997606277	0.046075821	-0.012372017	0.050038338	4.350376129	-8.96654129	-1.455116272	2.305630314	-0.619094715	2.50391433	-0.209228516	0.781005859	-0.573486328	886.3	-48.47046295	-49.62530502	-0.389904775	-71
30277	0	0.186096191	-0.340698242	-0.092346191	0.996409416	0.055450439	-0.018435478	0.061264038	4.652404785	-8.517456055	-2.308654785	2.775844896	-0.922878675	3.066873213	-0.143798828	0.740234375	-0.643554688	886.26	-49.03531954	-45.68552006	8.748539206	-67
30278	0	0.180801392	-0.257404327	-0.10290432	0.995882988	0.056938171	-0.023834229	0.066374779	4.52003479	-6.435108185	-2.572607994	2.850821247	-1.193349266	3.323300079	-0.077636719	0.68359375	-0.727050781	886.38	-49.32449304	-41.65024018	18.36735148	-70
30279	0	0.186645508	-0.165100098	-0.113769531	0.995986938	0.057938576	-0.025196075	0.063381195	4.666137695	-4.127502441	-2.844238281	2.900809657	-1.261491468	3.173305184	-0.025146484	0.605224609	-0.796142578	886.3	-48.56436522	-38.00369712	27.25133119	-66
30280	0	0.207304001	-0.11682415	-0.078177452	0.996623039	0.055926323	-0.025924683	0.054246902	5.182600021	-2.920603752	-1.954436302	2.799468112	-1.297695226	2.715402438	0.00390625	0.511962891	-0.862792969	886.3	-46.98018746	-35.33496043	35.0128745	-67
30281	0	0.243164063	-0.122497559	-0.022888184	0.997136116	0.057361603	-0.02352047	0.043300629	6.079101563	-3.062438965	-0.57220459	2.870820722	-1.177147228	2.16710022	0.011474609	0.415283203	-0.916259766	886.3	-44.18216235	-33.6198703	41.31548204	-68
30282	0	0.408017159	-0.1957798	0.128281593	0.996653557	0.070514679	-0.013683319	0.03900528	10.20042896	-4.89449501	3.207039833	3.529671682	-0.684930069	1.952442139	0.000488281	0.303466797	-0.961669922	886.36	-38.97367258	-31.77550347	46.2351292	-73
30283	0	0.586303711	-0.228393555	0.411376953	0.997107506	0.070835114	0.010655403	0.025398254	14.65759277	-5.709838867	10.28442383	3.545174231	0.533284394	1.271138458	0.005126953	0.157470703	-1.001953125	886.32	-31.88040833	-29.05352966	47.99849597	-71
30284	0	0.52114296	-0.0992136	0.40695858	0.9989748	0.00578022	0.039093018	-0.022070885	13.02857399	-2.480340004	10.1739645	0.28910978	1.955318943	-1.103921406	0.049072266	0.028320313	-1.016845703	886.26	-28.91933354	-26.44166094	43.29123141	-67
30285	0	0.509094238	-0.721496582	0.805358887	0.997585297	0.00470829	0.029701233	-0.062602997	12.72735596	-18.03741455	20.13397217	0.235604169	1.486258102	-3.132671681	0.133789063	0.063476563	-1.018798828	886.36	-24.46776689	-26.60430348	34.51865729	-70
30286	0	0.301252365	-0.054502487	0.819197655	0.985721588	0.152815819	-0.016381264	-0.068782806	7.531309128	-1.36256218	20.47994137	7.67736492	-0.822983776	-3.455602366	0.171386719	-0.029541016	-1.015869141	886.32	-2.97557584	-30.29151603	25.71838777	-76
30287	0	0.218078613	0.600891113	0.428771973	0.995057106	0.056713104	-0.064776421	-0.049480438	5.451965332	15.02227783	10.71929932	2.840336259	-3.244167615	-2.478105981	0.122558594	-0.298095703	-0.981933594	886.3	7.555941176	-37.48394043	18.50545607	-69
30288	0	0.337944031	0.214715958	0.332051277	0.995209694	0.021397591	-0.076070786	-0.057557106	8.448600769	5.367898941	8.301281929	1.071591122	-3.809624167	-2.882459285	0.0078125	-0.365722656	-0.967041016	886.32	17.29685441	-44.60047465	7.490857884	-69
30289	0	0.471374512	-0.044006348	0.297912598	0.997346878	0.002530098	-0.035194397	-0.063671112	11.78436279	-1.100158691	7.447814941	0.126616891	-1.761277709	-3.18637397	-0.079345703	-0.405029297	-0.944335938	886.32	25.91199656	-45.66220162	-4.197170025	-73
30290	0	0.38766098	-0.145947456	0.046682358	0.999210358	0.002793312	0.019984245	-0.034221649	9.691524506	-3.648686409	1.167058945	0.139702369	0.999475294	-1.711532877	-0.069335938	-0.416503906	-0.938232422	886.38	28.54734946	-41.83776176	-7.540164009	-85
30291	0	0.30480957	0.043273926	0.011291504	0.998785019	-0.006396294	0.048675537	-0.004211426	7.620239258	1.081848145	0.282287598	-0.31994424	2.434762784	-0.210656592	0.005126953	-0.423583984	-0.944580078	886.26	26.0523518	-36.6753578	-4.760820653	-69
30292	0	0.207229614	0.177236557	0.109367371	0.997714996	-0.027050018	0.055762291	0.026879311	5.180740356	4.430913925	2.734184265	-1.353531754	2.79023957	1.344989863	0.097900391	-0.404541016	-0.954345703	886.24	19.30247871	-31.97896024	1.697449649	-85
30293	0	0.166259766	0.153930664	0.23614502	0.996813774	-0.035755157	0.043690681	0.056339264	4.156494141	3.848266602	5.903625488	-1.789658766	2.186856851	2.819958425	0.177246094	-0.349121094	-0.971923828	886.24	10.7484733	-28.82701792	10.45489013	-71
30294	0	0.167334557	0.132302284	0.268537521	0.997119904	-0.008259773	0.025727272	0.070854187	4.183363914	3.307557106	6.713438034	-0.413385501	1.287599661	3.546113519	0.211669922	-0.310302734	-0.982910156	886.36	5.290714003	-27.05256228	20.01441931	-82
30295	0	0.192321777	0.274841309	0.278198242	0.996847153	2.38419E-05	0.011520386	0.078495026	4.808044434	6.871032715	6.954956055	0.001193347	0.576625267	3.928880175	0.207763672	-0.334716797	-0.983642578	886.26	0.735202681	-26.22288443	30.12781924	-70
30296	0	0.209230423	0.179503441	0.303868294	0.996658325	-0.000507355	0.003458977	0.081598282	5.230760574	4.487586021	7.596707344	-0.025396024	0.173141693	4.084463608	0.170654297	-0.355712891	-0.988525391	886.26	-3.871544203	-25.58997763	40.49089948	-67
30297	0	0.214233398	0.171325684	0.305358887	0.997245789	0.024270058	0.000255585	0.070083618	5.355834961	4.28314209	7.633972168	1.214618189	0.012790981	3.507401528	0.119140625	-0.385253906	-0.980224609	886.3	-4.866084493	-24.97275927	49.31425407	-72
30298	0	0.172994614	0.195322037	0.339680672	0.997358322	0.040612221	-0.001185417	0.060212135	4.324865341	4.883050919	8.492016792	2.032400963	-0.059323104	3.013260528	0.061767578	-0.452392578	-0.959960938	886.26	-3.378339549	-24.63864962	56.87130347	-77
30299	0	0.204223633	0.227844238	0.374633789	0.998510361	0.021344185	-6.48499E-05	0.050205231	5.10559082	5.696105957	9.365844727	1.067739315	-0.003244103	2.511508356	0.004638672	-0.532958984	-0.91796875	886.3	-3.523055059	-24.32928134	63.15630491	-76
30300	0	0.17801857	0.079084396	0.423001289	0.999590874	0.00290966	0.011461258	0.02600956	4.450464249	1.977109909	10.57503223	0.145502818	0.573140893	1.300654982	-0.037841797	-0.551513672	-0.905273438	886.26	-4.421443146	-22.84235079	66.28701203	-74
30301	0	0.127075195	0.005187988	0.407348633	0.999855042	0.007985115	0.006542206	0.013473511	3.176879883	0.129699707	10.18371582	0.399274926	0.327125999	0.673707889	-0.037597656	-0.555908203	-0.902099609	886.32	-4.092514239	-22.0083497	67.87385665	-74
30302	0	0.119728088	-0.018774986	0.357998848	0.999926567	0.008535385	-0.002361298	0.008255005	2.993202209	-0.469374657	8.949971199	0.426779683	-0.118067765	0.412760328	-0.041992188	-0.569091797	-0.897705078	886.26	-3.480377168	-22.24251195	68.88969412	-75
30303	0	0.113525391	0.015319824	0.344787598	0.999862671	0.011738777	-0.011512756	0.001613617	2.838134766	0.382995605	8.619689941	0.586965562	-0.575664007	0.080684518	-0.060546875	-0.586425781	-0.880615234	886.3	-2.214493393	-23.57555094	69.13702572	-78
30304	0	0.127084732	0.014071465	0.331391335	0.999853134	0.004747391	-0.016320229	-0.001954079	3.177118301	0.351786613	8.284783363	0.237381119	-0.816051243	-0.097708701	-0.081787109	-0.603271484	-0.866455078	886.3	-1.56858732	-25.47492332	68.93421337	-77
30305	0	0.123962402	-0.001525879	0.340637207	0.999854088	-0.000469208	-0.015784264	-0.006427765	3.099060059	-0.038146973	8.515930176	-0.023461525	-0.78925142	-0.321403817	-0.10546875	-0.609130859	-0.858886719	886.2	-1.250125222	-27.32125495	68.13903399	-73
30306	0	0.115995407	-0.004701614	0.343062401	0.999774933	-0.018136024	-0.010745049	-0.002100945	2.899885178	-0.117540359	8.57656002	-0.906869064	-0.537292619	-0.105055085	-0.124755859	-0.606201172	-0.854980469	886.36	-3.196872523	-28.57730377	67.90551107	-72
30307	0	0.12512207	-0.117248535	0.367675781	0.999303818	-0.036856651	-0.004070282	0.003871918	3.128051758	-2.931213379	9.191894531	-1.843259747	-0.203561275	0.193640763	-0.138183594	-0.563476563	-0.878417969	886.3	-7.664679191	-29.01247688	68.45156858	-76
30308	0	0.156729698	-0.119548798	0.335425377	0.99957943	-0.026677132	-0.003517151	0.010745049	3.918242455	-2.98871994	8.385634422	-1.334043281	-0.175882159	0.537327625	-0.147949219	-0.494140625	-0.909912109	886.32	-11.41700288	-29.2177583	69.90300145	-83
30309	0	0.227600098	-0.107543945	0.34576416	0.999653816	-0.021003723	-0.002848625	0.015533447	5.690002441	-2.688598633	8.644104004	-1.050307064	-0.142447657	0.776761781	-0.168701172	-0.444335938	-0.930175781	886.36	-14.81824777	-29.14544578	71.95787343	-87
30310	0	0.273277283	-0.091789246	0.371740341	0.99975872	-0.019002914	-0.000867844	0.010972023	6.831932068	-2.29473114	9.29350853	-0.950222106	-0.04339567	0.548645254	-0.184570313	-0.401367188	-0.947509766	886.3	-17.66622041	-28.90620197	73.35492274	-81
30311	0	0.27947998	-0.099060059	0.360290527	0.999862671	-0.016329765	7.24792E-05	0.00246048	6.986999512	-2.476501465	9.007263184	-0.816525383	0.003624127	0.123029579	-0.193359375	-0.363037109	-0.958984375	886.3	-19.66795562	-28.82848059	73.64230496	-76
30312	0	0.238190651	-0.138484001	0.331706047	0.999982834	-0.00336647	-0.00036335	-0.004634857	5.954766273	-3.462100029	8.292651176	-0.168324441	-0.018167595	-0.231744131	-0.191894531	-0.336425781	-0.967285156	886.38	-19.77090139	-29.06873165	73.06800519	-73
30313	0	0.182617188	-0.112792969	0.29901123	0.999961853	-0.00632	-0.004646301	-0.003787994	4.565429688	-2.819824219	7.475280762	-0.316003981	-0.232318002	-0.189402115	-0.191894531	-0.336425781	-0.972900391	886.3	-20.3544362	-29.73921178	72.790001	-72
30314	0	0.190508842	-0.13757515	0.362253189	0.99995327	-0.008962631	-0.003271103	0.001343727	4.762721062	-3.439378738	9.056329727	-0.448138495	-0.163557676	0.067187395	-0.197265625	-0.320556641	-0.971191406	886.32	-21.52757804	-30.05391816	73.09138598	-72
30315	0	0.197387695	-0.133361816	0.350891113	0.99992466	-0.008682251	-0.003230095	0.007995605	4.934692383	-3.33404541	8.772277832	-0.434123384	-0.161508777	0.399790252	-0.205078125	-0.306884766	-0.974853516	886.44	-23.08101423	-30.0672587	74.2141773	-72
30316	0	0.209233284	-0.144239426	0.298095703	0.999853134	-0.014717102	-0.002514839	0.008335114	5.2308321	-3.605985641	7.452392578	-0.735890967	-0.125748087	0.416775988	-0.218017578	-0.281982422	-0.981933594	886.32	-25.32722072	-29.9579341	75.34146145	-72
30317	0	0.217712402	-0.157287598	0.301147461	0.999835014	-0.017269135	-0.000174522	0.005573273	5.442810059	-3.932189941	7.528686523	-0.863504125	-0.008726599	0.278678932	-0.224121094	-0.248291016	-0.987304688	886.32	-27.62872182	-29.71154405	75.99838338	-72
30318	0	0.209921837	-0.1891222	0.299033165	0.999866486	-0.015900612	0.001116753	0.003421783	5.248045921	-4.728055	7.475829124	-0.795065816	0.055840105	0.171096752	-0.225585938	-0.210205078	-0.999267578	886.26	-29.60310099	-29.43222326	76.31111604	-72
30319	0	0.208618164	-0.199951172	0.283447266	0.999976158	-0.006534576	0.000889778	0.001716614	5.215454102	-4.998779297	7.086181641	-0.32673135	0.044489251	0.085831353	-0.224365234	-0.181152344	-0.998779297	886.3	-30.41300947	-29.26676709	76.43280349	-71
30320	0	0.215912819	-0.183591843	0.282865524	0.999998093	-0.001531601	0.00011158	0.000266075	5.397820473	-4.589796066	7.071638107	-0.076580079	0.005578997	0.013303762	-0.224609375	-0.174560547	-0.999267578	886.36	-30.59458749	-29.26226082	76.43987838	-72
30321	0	0.207641602	-0.181640625	0.291870117	0.999994278	-0.002680779	0.001144409	-0.001426697	5.191040039	-4.541015625	7.29675293	-0.13403916	0.057220559	-0.071334964	-0.219970703	-0.170166016	-1.002929688	886.26	-30.78095732	-29.25505639	76.18529669	-71
30322	0	0.194538116	-0.17979908	0.294649124	0.999988556	-0.003773689	0.002135277	-0.001490593	4.863452911	-4.494976997	7.366228104	-0.188685125	0.106764214	-0.074529909	-0.217773438	-0.163574219	-1.006347656	886.3	-31.05674547	-29.15457047	75.85796084	-70
30323	0	0.19152832	-0.178466797	0.297668457	0.999983788	-0.00446701	0.003037453	-0.001338959	4.788208008	-4.461669922	7.441711426	-0.223351678	0.151873419	-0.066948283	-0.215820313	-0.154785156	-1.001464844	886.32	-31.39086969	-28.95752892	75.48961048	-70
30324	0	0.189682961	-0.178638458	0.301448822	0.999985695	-0.004174232	0.002908707	-0.00112915	4.742074013	-4.465961456	7.536220551	-0.208712569	0.145435992	-0.056457775	-0.206542969	-0.145996094	-1.005615234	886.32	-31.70741346	-28.76160537	75.14999442	-70
30325	0	0.187438965	-0.180175781	0.303833008	0.999993324	-0.002891541	0.001927376	-0.000774384	4.685974121	-4.504394531	7.595825195	-0.144577332	0.096368993	-0.038719259	-0.201904297	-0.141845703	-1.011962891	886.26	-31.92842186	-28.64039448	74.91572386	-70
30326	0	0.187112808	-0.17953968	0.298760414	0.999998093	-0.001284599	0.000706673	-0.00074482	4.677820206	-4.488492012	7.469010353	-0.064229994	0.035333649	-0.037240999	-0.199951172	-0.135253906	-1.006835938	886.32	-32.00704593	-28.63595308	74.76784243	-70
30327	0	0.186157227	-0.179077148	0.297790527	0.999999046	-0.000423431	5.81741E-05	-0.000125885	4.653930664	-4.476928711	7.444763184	-0.021171571	0.002908707	-0.006294251	-0.195068359	-0.133056641	-1.010253906	886.26	-32.04103828	-28.65640156	74.72899346	-70
30328	0	0.187144279	-0.176837921	0.293328285	0.999999046	-0.000142097	0.000352859	0.000434875	4.678606987	-4.420948029	7.33320713	-0.007104874	0.017642976	0.021743776	-0.1953125	-0.133056641	-1.007324219	886.26	-32.06245792	-28.61367741	74.73302141	-70
30329	0	0.187927246	-0.177062988	0.295837402	0.999998093	-0.000670433	0.001220703	0.000923157	4.698181152	-4.426574707	7.395935059	-0.033521668	0.061035185	0.046157858	-0.192626953	-0.135498047	-1.013183594	886.3	-32.14106831	-28.45651471	74.73096231	-70
30330	0	0.18754673	-0.180613518	0.294589043	0.999996185	-0.001280785	0.0017519	0.001116753	4.688668251	-4.515337944	7.364726067	-0.064039294	0.087595073	0.055837687	-0.192626953	-0.133300781	-1.019042969	886.36	-32.28189185	-28.23559367	74.7145991	-70
30331	0	0.186950684	-0.18371582	0.296569824	0.999996185	-0.001383781	0.001846313	0.001174927	4.67376709	-4.592895508	7.414245605	-0.069189149	0.092315777	0.058746404	-0.188232422	-0.126708984	-1.011230469	886.26	-32.43407331	-28.00155519	74.69700373	-70
30332	0	0.181981087	-0.190406799	0.299343109	0.999997139	-0.001259804	0.00135231	0.001074791	4.549527168	-4.760169983	7.483577728	-0.062990237	0.067615561	0.053739589	-0.18359375	-0.124511719	-1.014404297	886.24	-32.5828569	-27.82074658	74.70046839	-70
30333	0	0.178771973	-0.188781738	0.301086426	0.999998093	-0.000536919	0.00094986	0.00088501	4.469299316	-4.719543457	7.527160645	-0.026845941	0.047492997	0.044250503	-0.181396484	-0.120117188	-1.014892578	886.26	-32.65194451	-27.68970628	74.70927363	-70
30334	0	0.180114746	-0.188964844	0.296386719	0.999999046	0.000232697	0.000366211	0.000682831	4.502868652	-4.724121094	7.409667969	0.011634828	0.018310549	0.034141544	-0.181152344	-0.122558594	-1.017822266	886.32	-32.64149131	-27.62690405	74.73744576	-70
30335	0	0.185418129	-0.187314987	0.296840668	0.999998093	-0.000103951	7.82013E-05	0.00032711	4.635453224	-4.68287468	7.421016693	-0.005197525	0.003910065	0.016355515	-0.178955078	-0.120361328	-1.015136719	886.3	-32.66090787	-27.61360341	74.74511981	-70
30336	0	0.180514336	-0.190750122	0.298018456	0.999999046	0.000109673	4.76837E-05	0.000301361	4.512858391	-4.768753052	7.450461388	0.005483627	0.002384186	0.015068054	-0.181152344	-0.120117188	-1.017822266	886.26	-32.65558674	-27.60428116	74.75332029	-70
30337	0	0.179992676	-0.186706543	0.296447754	0.999999046	4.57764E-05	0.000359535	0.000522614	4.499816895	-4.667663574	7.411193848	0.002288819	0.017976762	0.026130678	-0.181396484	-0.120117188	-1.014892578	886.3	-32.65856746	-27.55071265	74.7652829	-70
30338	0	0.181416512	-0.188029289	0.293603897	0.999999046	-0.000587463	0.00056839	0.000479698	4.535412788	-4.700732231	7.340097427	-0.029373173	0.028419499	0.023984913	-0.178710938	-0.122558594	-1.014892578	886.38	-32.72525202	-27.47930609	74.7585095	-70
30339	0	0.180603027	-0.191223145	0.297912598	0.999999046	-0.000587463	0.000786781	0.000396729	4.515075684	-4.780578613	7.447814941	-0.029373174	0.039339073	0.019836429	-0.176513672	-0.118164063	-1.018310547	886.3	-32.78079914	-27.39152952	74.72482796	-70
30340	0	0.179801941	-0.190738678	0.296506882	0.999999046	-0.000231743	0.0008564	0.000320435	4.495048523	-4.768466949	7.412672043	-0.011587145	0.042819983	0.016021731	-0.176513672	-0.118164063	-1.021240234	886.32	-32.78961768	-27.30136065	74.67926074	-70
30341	0	0.178588867	-0.190734863	0.298034668	0.999999046	-0.000167847	0.000599861	0.000198364	4.46472168	-4.768371582	7.450866699	-0.008392335	0.029993059	0.009918214	-0.171875	-0.115966797	-1.018798828	886.32	-32.79334116	-27.24301425	74.63529	-70
30342	0	0.17840004	-0.189807892	0.298489571	0.999999046	-0.000354767	0.000480652	9.05991E-05	4.460000992	-4.745197296	7.462239265	-0.017738343	0.024032594	0.004529953	-0.171875	-0.118408203	-1.015625	886.38	-32.81690234	-27.20239888	74.59126695	-70
30343	0	0.177734375	-0.190368652	0.297790527	0.999999046	-6.86646E-05	0.000130653	3.43323E-05	4.443359375	-4.759216309	7.444763184	-0.003433228	0.006532669	0.001716614	-0.171875	-0.115966797	-1.018798828	886.24	-32.81607649	-27.1985498	74.56411623	-70
30344	0	0.176789284	-0.188407898	0.298297882	0.999999046	-0.000529289	0.000144958	-9.63211E-05	4.419732094	-4.710197449	7.457447052	-0.026464464	0.007247925	-0.004816056	-0.169433594	-0.118408203	-1.018798828	886.32	-32.86099108	-27.20099152	74.52180225	-70
30345	0	0.177185059	-0.192321777	0.299682617	0.999999046	-0.000205994	-2.19345E-05	-0.000156403	4.429626465	-4.808044434	7.49206543	-0.010299683	-0.001096725	-0.007820129	-0.171875	-0.113769531	-1.016113281	886.26	-32.8712201	-27.22274338	74.48548744	-70
30346	0	0.178418159	-0.191108704	0.30008316	0.999999046	-1.52588E-05	-0.000354767	-0.000336647	4.460453987	-4.77771759	7.50207901	-0.000762939	-0.017738343	-0.016832352	-0.169433594	-0.116210938	-1.021728516	886.26	-32.86124665	-27.28730545	74.4501289	-70
30347	0	0.17791748	-0.186035156	0.299987793	0.999999046	0.0001297	-0.000571251	-0.000457764	4.447937012	-4.650878906	7.499694824	0.006484986	-0.028562548	-0.022888186	-0.171875	-0.115966797	-1.018798828	886.32	-32.8352324	-27.37982474	74.41841001	-70
30348	0	0.178675652	-0.188602448	0.298672676	0.999999046	0.000451088	-0.000816345	-0.000557899	4.466891289	-4.715061188	7.466816902	0.022554402	-0.040817269	-0.027894979	-0.174316406	-0.115966797	-1.018554688	886.26	-32.77507967	-27.50175386	74.39323159	-70
30349	0	0.176696777	-0.193908691	0.299255371	0.999999046	0.000289917	-0.000662804	-0.00037384	4.417419434	-4.847717285	7.481384277	0.014495851	-0.033140186	-0.018692019	-0.174072266	-0.118164063	-1.018554688	886.26	-32.73774309	-27.5968641	74.37672847	-70
30350	0	0.177599907	-0.189147949	0.298397064	0.999999046	0.00056839	-0.000782013	9.82285E-05	4.439997673	-4.72869873	7.459926605	0.028419499	-0.039100653	0.004911424	-0.176513672	-0.118164063	-1.015380859	886.3	-32.69609681	-27.67372931	74.42089996	-70
30351	0	0.17980957	-0.188537598	0.295959473	0.999999046	0.00019455	-0.0007658	0.000282288	4.495239258	-4.713439941	7.398986816	0.009727479	-0.038290028	0.014114382	-0.178955078	-0.118164063	-1.018310547	886.24	-32.70616795	-27.73729787	74.48398774	-70
30352	0	0.182538033	-0.188708305	0.296607018	0.999999046	0.000124931	-0.00060463	6.10352E-05	4.563450813	-4.717707634	7.415175438	0.006246567	-0.030231478	0.003051758	-0.178710938	-0.120361328	-1.020996094	886.26	-32.70783052	-27.79876292	74.51080996	-70
30353	0	0.185913086	-0.188110352	0.29510498	0.999999046	7.62939E-05	-0.000437737	-8.7738E-05	4.647827148	-4.702758789	7.377624512	0.003814697	-0.021886826	-0.004386902	-0.178955078	-0.120361328	-1.012207031	886.2	-32.70209218	-27.85326396	74.51146774	-70
30354	0	0.181871414	-0.186386108	0.295949936	0.999999046	-0.000349045	-0.000226974	-0.000225067	4.546785355	-4.65965271	7.398748398	-0.017452241	-0.011348725	-0.011253357	-0.178955078	-0.120361328	-1.012207031	886.3	-32.73110872	-27.89567082	74.48246284	-70
30355	0	0.179260254	-0.188415527	0.29699707	0.999999046	-0.000408173	-0.000121117	-9.91821E-05	4.481506348	-4.710388184	7.424926758	-0.020408631	-0.006055832	-0.004959107	-0.178710938	-0.120361328	-1.020996094	886.24	-32.76982406	-27.91963335	74.45763621	-70
30356	0	0.180285454	-0.190270424	0.296004295	0.999999046	-0.000250816	-9.53674E-06	6.10352E-05	4.507136345	-4.756760597	7.400107384	-0.012540817	-0.000476837	0.003051758	-0.178955078	-0.115722656	-1.015380859	886.26	-32.79509878	-27.92250968	74.44212964	-70
30357	0	0.181213379	-0.191162109	0.298095703	0.999999046	-0.000141144	-0.000174522	1.14441E-05	4.530334473	-4.779052734	7.452392578	-0.00705719	-0.00872612	0.000572205	-0.181396484	-0.117919922	-1.018066406	886.14	-32.81073494	-27.943951	74.43581868	-70
30358	0	0.183265686	-0.190091133	0.297306061	0.999999046	0.000364304	-0.000583649	-5.81741E-05	4.581642151	-4.752278328	7.43265152	0.018215181	-0.029182436	-0.002908707	-0.181396484	-0.117919922	-1.018066406	886.26	-32.7783919	-28.00884333	74.44914926	-70
30359	0	0.184631348	-0.186828613	0.295410156	0.999999046	0.000167847	-0.000460625	2.67029E-05	4.615783691	-4.670715332	7.385253906	0.008392334	-0.023031236	0.001335144	-0.181640625	-0.115722656	-1.012451172	886.32	-32.76878775	-28.0564702	74.4625763	-70
30360	0	0.183732986	-0.186739922	0.294081688	0.999999046	-2.57492E-05	3.8147E-05	0.000198364	4.593324661	-4.668498039	7.352042198	-0.00128746	0.001907349	0.009918213	-0.181396484	-0.117919922	-1.015136719	886.14	-32.77366712	-28.04521217	74.46029286	-70
30361	0	0.183776855	-0.188476563	0.294677734	0.999999046	-0.000362396	0.000370979	0.000213623	4.594421387	-4.711914063	7.366943359	-0.018119813	0.018548966	0.010681153	-0.18359375	-0.117919922	-1.020996094	886.32	-32.80693212	-28.00073887	74.43839284	-70
30362	0	0.181339264	-0.189502716	0.297115326	0.999999046	-0.000530243	0.000602722	0.00030899	4.533481598	-4.737567902	7.427883148	-0.026512149	0.030136112	0.015449526	-0.183837891	-0.115722656	-1.015136719	886.26	-32.85664926	-27.92768283	74.41327092	-70
30363	0	0.180236816	-0.190063477	0.297119141	0.999999046	-0.000255585	0.000397682	0.000225067	4.50592041	-4.751586914	7.427978516	-0.012779236	0.01988411	0.011253357	-0.178955078	-0.118164063	-1.015380859	886.32	-32.87738248	-27.87921633	74.39097721	-70
30364	0	0.181319237	-0.188222885	0.297410965	0.999999046	-0.000283241	0.000228882	0.000174522	4.532980919	-4.705572128	7.435274124	-0.014162064	0.011444092	0.00872612	-0.178955078	-0.115722656	-1.015380859	886.36	-32.90416851	-27.84986106	74.37457493	-70
30365	0	0.179992676	-0.189453125	0.296691895	0.999999046	-0.000549316	0.000409126	0.000110626	4.499816895	-4.736328125	7.417297363	-0.027465823	0.020456316	0.005531311	-0.176757813	-0.113769531	-1.015869141	886.36	-32.95224906	-27.80682908	74.33666604	-70
30366	0	0.181171417	-0.192566872	0.29711628	0.999999046	-0.000577927	0.000543594	0.000320435	4.529285431	-4.814171791	7.42790699	-0.028896335	0.027179721	0.01602173	-0.176757813	-0.113769531	-1.015869141	886.32	-33.00991279	-27.73751046	74.31427469	-70
30367	0	0.178710938	-0.190429688	0.296264648	0.999999046	-0.000293732	0.000477791	0.000255585	4.467773438	-4.760742188	7.406616211	-0.014686585	0.023889543	0.012779237	-0.176757813	-0.113769531	-1.018798828	886.26	-33.03388584	-27.67824283	74.29027017	-70
30368	0	0.178938866	-0.192832947	0.297298431	0.999999046	-0.000254631	0.000297546	7.15256E-05	4.473471642	-4.820823669	7.432460785	-0.012731552	0.01487732	0.003576279	-0.174560547	-0.111572266	-1.016113281	886.2	-33.05009577	-27.64745157	74.25723373	-70
30369	0	0.180480957	-0.192443848	0.29888916	0.999999046	-8.01086E-05	0.000294685	0.000148773	4.512023926	-4.811096191	7.472229004	-0.004005432	0.014734268	0.00743866	-0.174316406	-0.113769531	-1.021728516	886.36	-33.05029236	-27.61182918	74.23330611	-70
30370	0	0.178722382	-0.190774918	0.297925949	0.999999046	-1.90735E-06	0.000349045	0.000278473	4.46805954	-4.76937294	7.448148727	-9.53674E-05	0.017452241	0.013923645	-0.174560547	-0.109375	-1.019287109	886.2	-33.04622449	-27.56257999	74.2188137	-70
30371	0	0.178894043	-0.190246582	0.296936035	0.999999046	-0.000217438	0.000393867	0.000110626	4.472351074	-4.756164551	7.423400879	-0.010871888	0.019693375	0.005531311	-0.169677734	-0.109375	-1.016601563	886.26	-33.0569528	-27.51927417	74.17976109	-70
30372	0	0.17813015	-0.191391945	0.296504021	0.999999046	-0.000351906	0.000232697	0.000151634	4.453253746	-4.784798622	7.412600517	-0.017595292	0.011634827	0.007581711	-0.169677734	-0.109375	-1.01953125	886.26	-33.09041845	-27.48863014	74.1570247	-69
30373	0	0.178344727	-0.190551758	0.297485352	0.999999046	-0.000247955	0.000245094	5.34058E-05	4.458618164	-4.763793945	7.437133789	-0.012397766	0.012254715	0.002670288	-0.172119141	-0.111572266	-1.019042969	886.26	-33.10659074	-27.46270849	74.12823293	-70
30374	0	0.177629471	-0.191878319	0.297537804	0.999999046	-0.000192642	0.000268936	7.62939E-05	4.440736771	-4.79695797	7.438445091	-0.009632111	0.013446808	0.003814697	-0.172119141	-0.109375	-1.022216797	886.2	-33.11679776	-27.43279421	74.09901183	-69
30375	0	0.178527832	-0.192382813	0.29699707	0.999999046	-0.000205994	0.00017643	0.000118256	4.463195801	-4.809570313	7.424926758	-0.010299683	0.008821488	0.005912781	-0.169677734	-0.109375	-1.01953125	886.26	-33.13367239	-27.40892134	74.07976901	-70
30376	0	0.177462578	-0.192547798	0.296430588	0.999999046	-0.000119209	-3.62396E-05	0.000117302	4.436564445	-4.813694954	7.410764694	-0.005960465	-0.001811981	0.005865097	-0.169677734	-0.107177734	-1.01953125	886.22	-33.14751493	-27.40527912	74.07433309	-69
30377	0	0.178100586	-0.192810059	0.296936035	0.999999046	-8.01086E-05	8.4877E-05	0.00012207	4.452514648	-4.820251465	7.423400879	-0.004005432	0.004243851	0.006103516	-0.169677734	-0.107177734	-1.022460938	886.3	-33.15322032	-27.38950291	74.06063524	-69
30378	0	0.1776371	-0.191619873	0.297179222	0.999999046	1.90735E-05	0.000139236	9.53674E-05	4.440927505	-4.790496826	7.429480553	0.000953674	0.006961823	0.004768372	-0.169677734	-0.107177734	-1.022460938	886.24	-33.14444363	-27.36997005	74.0408021	-70
30379	0	0.17767334	-0.192382813	0.298034668	0.999999046	-1.90735E-05	9.25064E-05	9.53674E-05	4.441833496	-4.809570313	7.450866699	-0.000953674	0.00462532	0.004768372	-0.167480469	-0.104980469	-1.020019531	886.38	-33.14154884	-27.35469118	74.02147196	-70
30380	0	0.177886963	-0.192001343	0.297143936	0.999999046	2.76566E-05	7.82013E-05	4.19617E-05	4.447174072	-4.800033569	7.428598404	0.001382828	0.003910065	0.002098083	-0.167236328	-0.107421875	-1.022705078	886.26	-33.1311114	-27.34394548	73.99844889	-69
30381	0	0.178039551	-0.19152832	0.297485352	0.999999046	-0.000247955	0.000138283	0.000164032	4.45098877	-4.788208008	7.437133789	-0.012397766	0.006914139	0.008201599	-0.167236328	-0.107421875	-1.022705078	886.36	-33.15633576	-27.31962047	73.98538143	-70
30382	0	0.178199768	-0.19216156	0.296889305	0.999999046	-0.000177383	0.000104904	0.000205994	4.454994202	-4.804039001	7.422232628	-0.008869171	0.005245209	0.010299683	-0.167236328	-0.109619141	-1.016601563	886.26	-33.17663447	-27.29572706	73.98327188	-69
30383	0	0.177307129	-0.192687988	0.297668457	0.999999046	-0.00012207	0.000199318	0.000106812	4.432678223	-4.817199707	7.441711426	-0.006103516	0.009965897	0.005340576	-0.167480469	-0.107177734	-1.019775391	886.2	-33.18263632	-27.26880269	73.96238035	-69
30384	0	0.177513123	-0.193287849	0.297386169	0.999999046	-8.10623E-05	1.33514E-05	0.000136375	4.437828064	-4.832196236	7.434654236	-0.004053116	0.000667572	0.006818771	-0.167480469	-0.104980469	-1.017089844	886.24	-33.19145382	-27.2576871	73.95748951	-70
30385	0	0.177368164	-0.193359375	0.298217773	0.999999046	1.14441E-05	-2.86102E-06	-6.48499E-05	4.434204102	-4.833984375	7.455444336	0.000572205	-0.000143051	-0.003242493	-0.165039063	-0.107421875	-1.022705078	886.32	-33.1802653	-27.26055671	73.92934129	-70
30386	0	0.17660141	-0.193207741	0.298037529	1	-2.19345E-05	-3.91006E-05	-2.28882E-05	4.415035248	-4.83019352	7.450938225	-0.001096725	-0.001955032	-0.001144409	-0.167480469	-0.107177734	-1.016845703	886.32	-33.17615397	-27.26405745	73.91308039	-69
30387	0	0.177368164	-0.192321777	0.298339844	0.999999046	-0.000102997	2.76566E-05	0.000141144	4.434204102	-4.808044434	7.458496094	-0.005149841	0.001382828	0.00705719	-0.165039063	-0.105224609	-1.020019531	886.26	-33.18724632	-27.2506962	73.90491149	-70
30388	0	0.176687241	-0.19340992	0.29776001	0.999999046	-0.000100136	-1.14441E-05	0.000117302	4.417181015	-4.835247993	7.444000244	-0.00500679	-0.000572205	0.005865097	-0.165039063	-0.103027344	-1.023193359	886.26	-33.19812625	-27.24238529	73.89488749	-70
30389	0	0.17767334	-0.192810059	0.298217773	0.999999046	-0.0001297	4.76837E-06	4.57764E-05	4.441833496	-4.820251465	7.455444336	-0.006484985	0.000238419	0.002288818	-0.167480469	-0.104980469	-1.017089844	886.3	-33.2083165	-27.23687168	73.8828517	-69
30390	0	0.176675797	-0.193514824	0.298290253	0.999999046	-0.000135422	0	-2.00272E-05	4.416894913	-4.837870598	7.457256317	-0.006771088	0	-0.001001358	-0.167236328	-0.107421875	-1.022705078	886.32	-33.21608052	-27.23575426	73.86423641	-70
30391	0	0.176940918	-0.193786621	0.296936035	0.999999046	-3.05176E-05	-0.000128746	-4.95911E-05	4.423522949	-4.844665527	7.423400879	-0.001525879	-0.006437302	-0.002479553	-0.167480469	-0.104980469	-1.017089844	886.26	-33.21458547	-27.24868502	73.8517413	-70
30392	0	0.176487923	-0.194458961	0.299563408	0.999999046	-0.000189781	-0.000207901	4.57764E-05	4.412198067	-4.861474037	7.489085197	-0.00948906	-0.01039505	0.002288818	-0.165039063	-0.105224609	-1.022949219	886.32	-33.2386221	-27.26298005	73.8503717	-69
30393	0	0.176269531	-0.19354248	0.297485352	0.999999046	0.000114441	-0.000418663	-9.15527E-05	4.406738281	-4.838562012	7.437133789	0.005722046	-0.020933152	-0.004577637	-0.167480469	-0.104980469	-1.020019531	886.3	-33.22785967	-27.30591446	73.85196867	-69
30394	0	0.177124023	-0.19342041	0.296203613	0.999999046	0.000259399	-0.000514984	-0.000225067	4.428100586	-4.835510254	7.405090332	0.012969972	-0.025749208	-0.011253358	-0.169921875	-0.102783203	-1.017089844	886.3	-33.19704927	-27.36633295	73.84687562	-70
30395	0	0.177839279	-0.190421104	0.297495842	0.999998093	0.00014019	-0.000522614	-0.000110626	4.445981979	-4.760527611	7.437396049	0.007009507	-0.026130678	-0.005531311	-0.169921875	-0.104980469	-1.022705078	886.3	-33.18570267	-27.42019548	73.85307306	-70
30396	0	0.177056313	-0.192658424	0.297290802	0.999999046	-0.000304222	-0.000276566	0.000102997	4.426407814	-4.816460609	7.43227005	-0.015211106	-0.013828278	0.005149841	-0.167480469	-0.104980469	-1.017089844	886.26	-33.22791737	-27.43687518	73.86359356	-70
30397	0	0.177612305	-0.195129395	0.297912598	0.999999046	1.90735E-05	-0.000250816	-6.48499E-05	4.440307617	-4.878234863	7.447814941	0.000953674	-0.012540817	-0.003242493	-0.169921875	-0.104980469	-1.022705078	886.36	-33.22398776	-27.46141941	73.8552249	-69
30398	0	0.177114487	-0.192593575	0.296915054	0.999999046	0.000175476	-0.000469208	4.1008E-05	4.427862167	-4.814839363	7.422876358	0.008773804	-0.023460389	0.0020504	-0.167724609	-0.102783203	-1.017333984	886.26	-33.21453814	-27.50007417	73.86962498	-70
30399	0	0.179321289	-0.193847656	0.296203613	0.999999046	0.000144958	-0.000445366	7.24792E-05	4.483032227	-4.846191406	7.405090332	0.007247925	-0.022268296	0.003623963	-0.169677734	-0.107177734	-1.022460938	886.38	-33.20947373	-27.53438687	73.88898065	-69
30400	0	0.179984093	-0.193422318	0.29634285	0.999999046	0.000117302	-0.000352859	2.86102E-06	4.499602318	-4.835557938	7.408571243	0.005865097	-0.017642975	0.000143051	-0.172119141	-0.104980469	-1.022705078	886.3	-33.20113808	-27.56413865	73.89492963	-70
30401	0	0.178161621	-0.191345215	0.296630859	0.999999046	-0.000102997	-8.67844E-05	3.05176E-05	4.454040527	-4.783630371	7.415771484	-0.005149841	-0.004339218	0.001525879	-0.172363281	-0.104980469	-1.019775391	886.26	-33.210669	-27.56651048	73.88657133	-70
30402	0	0.177957535	-0.193675995	0.29698658	0.999999046	-5.91278E-05	-5.53131E-05	6.67572E-06	4.44893837	-4.841899872	7.424664497	-0.00295639	-0.002765656	0.000333786	-0.172363281	-0.104980469	-1.019775391	886.26	-33.21300062	-27.56718337	73.87367645	-70
30403	0	0.179138184	-0.191650391	0.295959473	0.999999046	4.95911E-05	-0.000189781	-7.24792E-05	4.47845459	-4.791259766	7.398986816	0.002479553	-0.00948906	-0.003623962	-0.172119141	-0.104980469	-1.022705078	886.24	-33.20330026	-27.58563936	73.86009632	-70
30404	0	0.177753448	-0.193060875	0.297557831	0.999999046	-1.23978E-05	-0.00022316	-0.000217438	4.443836212	-4.826521873	7.43894577	-0.000619888	-0.01115799	-0.010871887	-0.172119141	-0.107177734	-1.01953125	886.32	-33.19453127	-27.61620063	73.83571846	-70
30405	0	0.178161621	-0.192687988	0.297058105	0.999999046	0.000183105	-0.000144005	-0.000137329	4.454040527	-4.817199707	7.426452637	0.009155274	-0.007200241	-0.006866455	-0.172363281	-0.107177734	-1.016601563	886.32	-33.16477238	-27.63397613	73.81529356	-70
30406	0	0.179582596	-0.193506241	0.298113823	0.999999046	4.95911E-05	-0.000242233	-0.000144958	4.489564896	-4.837656021	7.452845573	0.002479553	-0.012111664	-0.007247925	-0.169921875	-0.107177734	-1.016845703	886.26	-33.1531651	-27.66150836	73.79701791	-70
30407	0	0.179443359	-0.193054199	0.296447754	0.999999046	0.000263214	-0.000254631	-5.34058E-05	4.486083984	-4.82635498	7.411193848	0.013160706	-0.012731552	-0.002670288	-0.172119141	-0.107177734	-1.022460938	886.24	-33.12213689	-27.68438381	73.78983725	-70
30408	0	0.180224419	-0.191476822	0.294686317	0.999999046	0.000191689	-0.000160217	2.57492E-05	4.505610466	-4.786920547	7.367157936	0.009584427	-0.008010864	0.00128746	-0.174560547	-0.104736328	-1.022460938	886.24	-33.1002275	-27.69322131	73.78556039	-70
30409	0	0.179870605	-0.192077637	0.296081543	0.999999046	-4.19617E-05	1.62125E-05	5.72205E-05	4.496765137	-4.801940918	7.402038574	-0.002098083	0.000810623	0.002861023	-0.174804688	-0.104736328	-1.01953125	886.26	-33.10092023	-27.68307964	73.77407995	-70
30410	0	0.179717064	-0.191513062	0.295642853	0.999999046	-0.000236511	0.000286102	0.000228882	4.492926598	-4.787826538	7.39107132	-0.011825562	0.014305115	0.011444092	-0.174560547	-0.106933594	-1.019287109	886.24	-33.12371721	-27.63623178	73.7652772	-70
30411	0	0.179016113	-0.192382813	0.296447754	0.999999046	-0.000362396	0.000409126	0.00018692	4.475402832	-4.809570313	7.411193848	-0.018119813	0.020456315	0.009346009	-0.172119141	-0.107177734	-1.022460938	886.3	-33.15483732	-27.58010707	73.7409763	-70
30412	0	0.179128647	-0.192726135	0.296393394	0.999999046	-0.00032711	0.000484467	0.0001297	4.478216171	-4.818153381	7.409834862	-0.016355516	0.024223329	0.006484986	-0.172363281	-0.104980469	-1.016845703	886.24	-33.17664252	-27.52027735	73.70800732	-69
30413	0	0.178222656	-0.193603516	0.296508789	0.999999046	-0.000202179	0.000245094	0.000183105	4.455566406	-4.840087891	7.412719727	-0.010108948	0.012254715	0.009155274	-0.169921875	-0.104980469	-1.016845703	886.3	-33.19470855	-27.47995239	73.69559865	-70
30414	0	0.178556442	-0.19305706	0.295845985	0.999999046	-8.01086E-05	6.86646E-05	2.19345E-05	4.463911057	-4.826426506	7.396149635	-0.004005432	0.003433228	0.001096725	-0.174560547	-0.104736328	-1.022460938	886.3	-33.19656556	-27.46660858	73.68348115	-69
30415	0	0.179138184	-0.193725586	0.296325684	0.999999046	-0.000133514	5.43594E-05	2.67029E-05	4.47845459	-4.843139648	7.40814209	-0.00667572	0.002717972	0.001335144	-0.172363281	-0.102539063	-1.019775391	886.3	-33.20531892	-27.45429199	73.66939974	-69
30416	0	0.179034233	-0.192533493	0.296537399	0.999999046	-2.76566E-05	8.96454E-05	8.01086E-05	4.475855827	-4.813337326	7.413434982	-0.001382828	0.004482269	0.004005432	-0.169921875	-0.104980469	-1.016845703	886.32	-33.20345617	-27.43521123	73.65872864	-69
30417	0	0.178344727	-0.192871094	0.296142578	0.999999046	-0.000133514	0.000142097	4.57764E-05	4.458618164	-4.821777344	7.403564453	-0.00667572	0.007104874	0.002288818	-0.167480469	-0.102783203	-1.025878906	886.26	-33.210342	-27.41319519	73.63294556	-69
30418	0	0.17891407	-0.192540169	0.295957565	0.999999046	-0.000146866	0.000253677	0.000137329	4.472851753	-4.813504219	7.398939133	-0.007343292	0.012683869	0.006866455	-0.167480469	-0.102783203	-1.022949219	886.2	-33.21970534	-27.37473263	73.61171014	-70
30419	0	0.178161621	-0.193359375	0.296081543	0.999999046	-0.000205994	0.000245094	0.000282288	4.454040527	-4.833984375	7.402038574	-0.010299683	0.012254715	0.01411438	-0.169921875	-0.102783203	-1.022949219	886.32	-33.24336991	-27.3279597	73.6119193	-70
30420	0	0.17802906	-0.193887711	0.296515465	0.999999046	-0.000237465	0.000249863	0.00032711	4.450726509	-4.847192764	7.41288662	-0.011873246	0.012493134	0.016355515	-0.165283203	-0.100585938	-1.0234375	886.26	-33.27274268	-27.27785898	73.60910398	-69
30421	0	0.177978516	-0.194213867	0.297180176	0.999999046	-0.000102997	0.000210762	0.000205994	4.449462891	-4.85534668	7.429504395	-0.005149841	0.010538101	0.010299683	-0.170166016	-0.100585938	-1.020263672	886.26	-33.28201881	-27.2390865	73.60577936	-70
30422	0	0.177895546	-0.1942873	0.296237946	0.999999046	-0.000135422	3.05176E-05	0.000136375	4.447388649	-4.857182503	7.405948639	-0.006771088	0.001525879	0.006818771	-0.167724609	-0.100585938	-1.020263672	886.16	-33.29747389	-27.2219385	73.60461495	-70
30423	0	0.177429199	-0.192504883	0.296508789	0.999999046	-0.0001297	0.000126839	1.52588E-05	4.43572998	-4.81262207	7.412719727	-0.006484985	0.006341934	0.000762939	-0.165283203	-0.102783203	-1.020263672	886.26	-33.30315283	-27.20316998	73.58275994	-70
30424	0	0.177958488	-0.195761681	0.297783852	0.999999046	-0.000473976	0.000284195	0.000197411	4.448962212	-4.894042015	7.444596291	-0.023698808	0.014209748	0.00987053	-0.165283203	-0.098388672	-1.020507813	886.26	-33.35223873	-27.15782377	73.56754461	-70
30425	0	0.177490234	-0.195007324	0.29675293	0.999999046	-0.000167847	0.000226021	0.000175476	4.437255859	-4.875183105	7.418823242	-0.008392334	0.011301041	0.008773804	-0.165283203	-0.098388672	-1.0234375	886.3	-33.36710177	-27.11941067	73.55447553	-70
30426	0	0.176738739	-0.194009781	0.296156883	0.999999046	-7.82013E-05	0.000143051	0.000118256	4.418468475	-4.850244522	7.403922081	-0.003910065	0.007152557	0.005912781	-0.163085938	-0.096191406	-1.023925781	886.32	-33.37158751	-27.09252009	73.53656964	-70
30427	0	0.178222656	-0.195068359	0.296264648	0.999999046	-6.10352E-05	0.000229836	0.000221252	4.455566406	-4.876708984	7.406616211	-0.003051758	0.011491776	0.011062622	-0.162841797	-0.100830078	-1.0234375	886.38	-33.37641913	-27.05088272	73.52893353	-69
30428	0	0.177023888	-0.194634438	0.29681015	0.999999046	-0.000208855	0.000175476	0.000121117	4.425597191	-4.865860939	7.420253754	-0.010442734	0.008773804	0.006055832	-0.160400391	-0.098632813	-1.026611328	886.26	-33.39507144	-27.02075042	73.50879925	-70
30429	0	0.176147461	-0.193908691	0.297729492	0.999999046	-9.91821E-05	0.000340462	0.000205994	4.403686523	-4.847717285	7.443237305	-0.004959107	0.017023087	0.010299683	-0.163085938	-0.096191406	-1.023925781	886.32	-33.39995082	-26.96944798	73.49080863	-70
30430	0	0.175866127	-0.194162369	0.296100616	0.999999046	6.10352E-05	0.000337601	0.00012207	4.396653175	-4.854059219	7.402515411	0.003051758	0.016880036	0.006103516	-0.160644531	-0.098632813	-1.018066406	886.2	-33.38251346	-26.92370603	73.46588395	-69
30431	0	0.175231934	-0.19543457	0.295349121	0.999999046	-3.05176E-05	0.000103951	0.000148773	4.38079834	-4.885864258	7.383728027	-0.001525879	0.005197525	0.00743866	-0.160644531	-0.096435547	-1.020996094	886.26	-33.38446658	-26.89860968	73.45807976	-69
30432	0	0.175723076	-0.193429947	0.297387123	0.999999046	-0.000144005	0.000190735	-9.53674E-07	4.393076897	-4.835748672	7.434678078	-0.007200241	0.009536743	-4.76837E-05	-0.158203125	-0.098632813	-1.023925781	886.32	-33.38932931	-26.87464563	73.42646125	-70
30433	0	0.175109863	-0.195068359	0.299255371	0.999999046	-0.000259399	0.000142097	9.91821E-05	4.377746582	-4.876708984	7.481384277	-0.012969971	0.007104874	0.004959107	-0.160644531	-0.096435547	-1.020996094	886.36	-33.41379256	-26.84895036	73.41331858	-70
30434	0	0.175414085	-0.195807457	0.29767704	0.999999046	1.52588E-05	5.34058E-05	-1.14441E-05	4.385352135	-4.895186424	7.441926003	0.000762939	0.002670288	-0.000572205	-0.160644531	-0.096435547	-1.020996094	886.3	-33.40429966	-26.83868788	73.3950845	-70
30435	0	0.175598145	-0.1953125	0.296936035	0.999999046	0.000198364	-8.29697E-05	8.39233E-05	4.389953613	-4.8828125	7.423400879	0.009918213	-0.004148483	0.004196167	-0.160644531	-0.096435547	-1.020996094	886.2	-33.38283334	-26.83545325	73.39638093	-70
30436	0	0.175431252	-0.194309235	0.295578957	0.999999046	-0.000109673	1.90735E-05	0.000152588	4.385781288	-4.857730865	7.389473915	-0.005483627	0.000953674	0.007629395	-0.158203125	-0.098632813	-1.023925781	886.22	-33.39677229	-26.81815465	73.39551858	-70
30437	0	0.17590332	-0.19519043	0.295410156	0.999999046	-3.8147E-05	0.000153542	0.000183105	4.397583008	-4.879760742	7.385253906	-0.001907349	0.007677078	0.009155274	-0.160644531	-0.096435547	-1.020996094	886.38	-33.39978356	-26.78612459	73.39239159	-70
30438	0	0.175008774	-0.194667816	0.297157288	0.999999046	-0.000175476	0.000125885	6.67572E-06	4.375219345	-4.866695404	7.42893219	-0.008773804	0.006294251	0.000333786	-0.158203125	-0.096435547	-1.027099609	886.3	-33.41089606	-26.76785727	73.36721833	-70
30439	0	0.175231934	-0.195007324	0.297912598	0.999999046	-0.000106812	0.000161171	3.8147E-05	4.38079834	-4.875183105	7.447814941	-0.005340576	0.008058548	0.001907349	-0.158203125	-0.098632813	-1.023925781	886.26	-33.41453166	-26.744229	73.34733492	-70
30440	0	0.174144745	-0.195511818	0.297010422	1	-1.33514E-05	6.67572E-06	6.00815E-05	4.353618622	-4.887795448	7.425260544	-0.000667572	0.000333786	0.003004074	-0.158203125	-0.096435547	-1.027099609	886.24	-33.41347217	-26.73395153	73.3378638	-69
30441	0	0.175720215	-0.196044922	0.296081543	0.999999046	0.000240326	-4.48227E-05	3.05176E-05	4.393005371	-4.901123047	7.402038574	0.012016297	-0.002241135	0.001525879	-0.158203125	-0.096435547	-1.024169922	886.32	-33.38364798	-26.73051426	73.32970255	-70
30442	0	0.175368309	-0.194570541	0.296463966	0.999999046	6.86646E-05	-3.8147E-05	8.39233E-05	4.384207726	-4.864263535	7.411599159	0.003433228	-0.001907349	0.004196167	-0.158203125	-0.096435547	-1.024169922	886.38	-33.375873	-26.72311342	73.32688925	-69
30443	0	0.175292969	-0.195617676	0.296203613	0.999999046	7.62939E-06	-4.48227E-05	7.62939E-06	4.382324219	-4.890441895	7.405090332	0.00038147	-0.002241135	0.00038147	-0.158203125	-0.096435547	-1.024169922	886.36	-33.37170646	-26.72119501	73.31659758	-70
30444	0	0.174767494	-0.195433617	0.297899246	1	5.14984E-05	-2.76566E-05	1.04904E-05	4.369187355	-4.885840416	7.447481155	0.002574921	-0.001382828	0.000524521	-0.155761719	-0.096435547	-1.024169922	886.2	-33.36212253	-26.71742581	73.30151131	-69
30445	0	0.173522949	-0.194641113	0.298095703	0.999999046	4.95911E-05	2.38419E-05	-2.28882E-05	4.33807373	-4.866027832	7.452392578	0.002479553	0.001192093	-0.001144409	-0.158203125	-0.096435547	-1.024169922	886.2	-33.34949118	-26.71076544	73.28369927	-70
30446	0	0.174982071	-0.193932533	0.297145844	0.999999046	9.91821E-05	-0.00012207	5.34058E-05	4.374551773	-4.848313332	7.428646088	0.004959106	-0.006103516	0.002670288	-0.156005859	-0.094238281	-1.024414063	886.22	-33.33945385	-26.71328364	73.27815894	-70
30447	0	0.174865723	-0.194519043	0.296691895	0.999999046	0.000278473	-8.67844E-05	-4.95911E-05	4.371643066	-4.862976074	7.417297363	0.013923645	-0.004339218	-0.002479553	-0.158203125	-0.096435547	-1.027099609	886.32	-33.30280895	-26.71893618	73.26353589	-70
30448	0	0.17701149	-0.192749977	0.297316551	0.999999046	0.000142097	-0.000112534	-3.05176E-05	4.425287247	-4.818749428	7.43291378	0.007104874	-0.005626678	-0.001525879	-0.155761719	-0.098876953	-1.026855469	886.26	-33.28345235	-26.72597544	73.25080825	-69
30449	0	0.175415039	-0.195678711	0.296508789	0.999999046	-0.000198364	-1.43051E-05	-0.000106812	4.385375977	-4.891967773	7.412719727	-0.009918213	-0.000715256	-0.005340576	-0.155761719	-0.098876953	-1.026855469	886.22	-33.29642323	-26.72843332	73.22382318	-69
30450	0	0.17387867	-0.196858406	0.297706604	0.999999046	0.000225067	-0.000133514	-0.000130653	4.346966743	-4.921460152	7.4426651	0.011253357	-0.00667572	-0.006532669	-0.155761719	-0.096435547	-1.021240234	886.3	-33.2636094	-26.74372372	73.20187396	-69
30451	0	0.174926758	-0.194091797	0.296936035	0.999999046	0.000331879	-0.000369072	-0.000133514	4.373168945	-4.852294922	7.423400879	0.016593934	-0.018453599	-0.006675721	-0.157958984	-0.098632813	-1.026855469	886.26	-33.22587973	-26.78177464	73.19838768	-69
30452	0	0.175747871	-0.194763184	0.297850609	0.999999046	0.00032711	-0.000282288	-0.000130653	4.393696785	-4.86907959	7.446265221	0.016355515	-0.01411438	-0.006532669	-0.160400391	-0.098632813	-1.026611328	886.22	-33.18609695	-26.81133859	73.19200119	-70
30453	0	0.17578125	-0.191955566	0.298034668	0.999999046	0.000331879	-0.000266075	-0.000198364	4.39453125	-4.79888916	7.450866699	0.016593934	-0.013303757	-0.009918213	-0.158203125	-0.098632813	-1.020996094	886.22	-33.14185446	-26.84361522	73.17418435	-69
30454	0	0.17510128	-0.193885803	0.298558235	0.999999046	6.86646E-05	-0.000331879	-1.90735E-05	4.377532005	-4.847145081	7.463955879	0.003433228	-0.016593933	-0.000953674	-0.158203125	-0.098632813	-1.020996094	886.22	-33.13855373	-26.87092149	73.17929653	-69
30455	0	0.177856445	-0.195373535	0.298278809	0.999999046	0.000350952	-0.000452995	-7.62939E-05	4.446411133	-4.884338379	7.456970215	0.017547608	-0.022649766	-0.003814697	-0.160400391	-0.100830078	-1.023681641	886.26	-33.10404278	-26.91350059	73.18973398	-70
30456	0	0.175591469	-0.19263649	0.296850204	0.999999046	0.000224113	-0.000501633	-8.39233E-05	4.38978672	-4.815912247	7.421255112	0.011205674	-0.025081636	-0.004196167	-0.160400391	-0.100830078	-1.023681641	886.26	-33.08523859	-26.96122924	73.20079186	-69
30457	0	0.176208496	-0.194702148	0.297607422	0.999999046	0.000297546	-0.000452995	-3.8147E-06	4.405212402	-4.867553711	7.440185547	0.01487732	-0.022649766	-0.000190735	-0.162841797	-0.100830078	-1.0234375	886.3	-33.06046827	-26.99925789	73.21947615	-70
30458	0	0.178492546	-0.192510605	0.296278	0.999999046	0.000274658	-0.000431061	1.90735E-05	4.462313652	-4.812765121	7.406949997	0.013732911	-0.02155304	0.000953674	-0.162597656	-0.103027344	-1.026123047	886.36	-33.03877176	-27.03387171	73.23800977	-69
30459	0	0.177185059	-0.192993164	0.298034668	0.999999046	9.53674E-05	-0.00026989	-7.24792E-05	4.429626465	-4.824829102	7.450866699	0.004768372	-0.013494492	-0.003623962	-0.162841797	-0.103027344	-1.023193359	886.26	-33.02799519	-27.05872869	73.23609739	-69
30460	0	0.176885605	-0.193094254	0.297182083	0.999999046	6.77109E-05	-0.000303268	-0.000118256	4.422140121	-4.827356339	7.429552078	0.003385544	-0.015163422	-0.005912781	-0.162841797	-0.103027344	-1.017578125	886.3	-33.01923777	-27.08964739	73.23290452	-69
30461	0	0.177307129	-0.19152832	0.296936035	0.999999046	9.15527E-05	-0.000414848	-9.53674E-05	4.432678223	-4.788208008	7.423400879	0.004577637	-0.020742417	-0.004768372	-0.162841797	-0.103027344	-1.020263672	886.32	-33.01240775	-27.12988174	73.2375335	-69
30462	0	0.178322792	-0.192722321	0.297371864	0.999999046	9.34601E-05	-0.000452042	-0.000213623	4.458069801	-4.818058014	7.434296608	0.004673004	-0.022602082	-0.010681153	-0.165283203	-0.102783203	-1.017333984	886.3	-33.00073733	-27.18111336	73.23567204	-69
30463	0	0.17791748	-0.192810059	0.297058105	0.999999046	6.48499E-05	-0.000365257	-0.000202179	4.447937012	-4.820251465	7.426452637	0.003242493	-0.018262864	-0.010108948	-0.165283203	-0.102783203	-1.017333984	886.3	-32.99015454	-27.22328982	73.2277726	-70
30464	0	0.177723885	-0.19239521	0.296769142	0.999999046	8.10623E-05	-0.000434875	-7.34329E-05	4.443097115	-4.809880257	7.419228554	0.004053116	-0.021743775	-0.003671646	-0.165283203	-0.102783203	-1.020263672	886.3	-32.98634119	-27.26410985	73.23604257	-70
30465	0	0.178527832	-0.19354248	0.297302246	0.999999046	0.000244141	-0.000411034	-0.000148773	4.463195801	-4.838562012	7.432556152	0.012207032	-0.020551682	-0.00743866	-0.167480469	-0.104980469	-1.022949219	886.32	-32.95940378	-27.30733021	73.23784917	-69
30466	0	0.17907238	-0.192185402	0.295905113	0.999999046	0.000362396	-0.000450134	1.81198E-05	4.476809502	-4.804635048	7.397627831	0.018119813	-0.022506715	0.000905991	-0.167480469	-0.104980469	-1.017089844	886.26	-32.92850432	-27.34395218	73.26068279	-69
30467	0	0.179016113	-0.190612793	0.297180176	0.999999046	0.000221252	-0.000342369	-3.8147E-06	4.475402832	-4.765319824	7.429504395	0.011062622	-0.017118454	-0.000190735	-0.167480469	-0.104980469	-1.022949219	886.3	-32.90916565	-27.37159597	73.2696944	-69
30468	0	0.1792202	-0.191579819	0.295615196	0.999999046	0.000153542	-0.000255585	2.28882E-05	4.48050499	-4.789495468	7.390379906	0.007677078	-0.012779236	0.001144409	-0.169677734	-0.107177734	-1.01953125	886.36	-32.89616367	-27.38927745	73.28216434	-69
30469	0	0.179443359	-0.190612793	0.296691895	0.999999046	7.62939E-05	-0.000212669	-3.8147E-06	4.486083984	-4.765319824	7.417297363	0.003814697	-0.010633469	-0.000190735	-0.169677734	-0.107177734	-1.01953125	886.26	-32.88927153	-27.40452275	73.28799302	-69
30470	0	0.179571152	-0.191238403	0.296644211	0.999999046	0.000127792	-0.000146866	-4.76837E-06	4.489278793	-4.780960083	7.41610527	0.006389618	-0.007343292	-0.000238419	-0.169677734	-0.107177734	-1.022460938	886.3	-32.87431672	-27.41351627	73.28731921	-69
30471	0	0.178710938	-0.191467285	0.297729492	0.999999046	0	-0.000189781	-0.000114441	4.467773438	-4.786682129	7.443237305	0	-0.00948906	-0.005722046	-0.169921875	-0.104980469	-1.022705078	886.32	-32.86990549	-27.43341354	73.27537042	-69
30472	0	0.179416656	-0.191609383	0.296867371	0.999999046	8.10623E-05	-0.000247955	3.33786E-05	4.485416412	-4.790234566	7.421684265	0.004053116	-0.012397766	0.00166893	-0.169921875	-0.104980469	-1.019775391	886.3	-32.86549285	-27.44971487	73.2839895	-69
30473	0	0.180908203	-0.190429688	0.296630859	0.999999046	8.7738E-05	-0.000105858	-2.28882E-05	4.522705078	-4.760742188	7.415771484	0.004386902	-0.005292892	-0.001144409	-0.172119141	-0.107177734	-1.01953125	886.26	-32.85288443	-27.45592572	73.28258046	-69
30474	0	0.179270744	-0.191041946	0.295892715	0.999999046	-7.62939E-06	-7.24792E-05	0.000148773	4.481768608	-4.77604866	7.397317886	-0.00038147	-0.003623962	0.00743866	-0.172363281	-0.107177734	-1.016601563	886.2	-32.85874465	-27.44826106	73.29906295	-69
30475	0	0.178894043	-0.191711426	0.297058105	0.999999046	-0.000259399	9.25064E-05	0.000114441	4.472351074	-4.792785645	7.426452637	-0.012969971	0.004625321	0.005722046	-0.169921875	-0.104980469	-1.019775391	886.36	-32.88644586	-27.42680324	73.29339203	-69
30476	0	0.17885685	-0.191418648	0.296014786	0.999999046	-0.00039196	0.000244141	3.8147E-06	4.471421242	-4.785466194	7.400369644	-0.019598008	0.012207032	0.000190735	-0.169677734	-0.107177734	-1.01953125	886.3	-32.91895914	-27.3976448	73.26922522	-69
30477	0	0.179321289	-0.191040039	0.297058105	0.999999046	-0.00056839	8.4877E-05	-2.67029E-05	4.483032227	-4.776000977	7.426452637	-0.028419496	0.004243851	-0.001335144	-0.167480469	-0.104980469	-1.022949219	886.32	-32.9752984	-27.38572505	73.24709305	-70
30478	0	0.180196762	-0.192893982	0.296380043	0.999999046	-0.000268936	-1.33514E-05	7.53403E-05	4.504919052	-4.822349548	7.409501076	-0.013446808	-0.000667572	0.003767014	-0.169921875	-0.102783203	-1.022949219	886.3	-33.00564397	-27.3769412	73.24586959	-69
30479	0	0.180175781	-0.192504883	0.295410156	0.999999046	-0.000190735	0.000119209	0.000205994	4.504394531	-4.81262207	7.385253906	-0.009536743	0.005960465	0.010299683	-0.167480469	-0.104980469	-1.022949219	886.2	-33.02930911	-27.34733068	73.24864966	-69
30480	0	0.179659843	-0.193241119	0.294707298	0.999999046	-5.62668E-05	0.000257492	0.000205994	4.491496086	-4.831027985	7.367682457	-0.002813339	0.012874604	0.010299683	-0.167480469	-0.104980469	-1.017089844	886.3	-33.03320833	-27.3044976	73.24555553	-70
30481	0	0.178955078	-0.192810059	0.295776367	0.999999046	-0.00012207	0.000355721	0.000236511	4.473876953	-4.820251465	7.39440918	-0.006103516	0.017786027	0.011825562	-0.167724609	-0.100585938	-1.017333984	886.26	-33.0430595	-27.25034246	73.2363731	-69
30482	0	0.179141998	-0.191319466	0.296039581	0.999999046	-0.000200272	0.000415802	0.000288963	4.478549957	-4.782986641	7.400989532	-0.010013581	0.020790101	0.014448167	-0.165283203	-0.102783203	-1.020263672	886.3	-33.06251239	-27.18720402	73.22770713	-69
30483	0	0.178894043	-0.192687988	0.296020508	0.999999046	-0.000385284	0.000531197	2.67029E-05	4.472351074	-4.817199707	7.400512695	-0.019264223	0.026559832	0.001335144	-0.165283203	-0.100585938	-1.017578125	886.26	-33.08657867	-27.12944827	73.18454969	-69
30484	0	0.178873062	-0.194270134	0.297525406	0.999999046	-0.000964165	0.000492096	-0.000199318	4.471826553	-4.856753349	7.438135147	-0.048208246	0.024604802	-0.009965899	-0.163085938	-0.098388672	-1.017822266	886.38	-33.16720982	-27.08965974	73.11766916	-69
30485	0	0.176391602	-0.192810059	0.295471191	0.999999046	-0.000564575	0.000271797	-0.000354767	4.409790039	-4.820251465	7.386779785	-0.028228762	0.01358986	-0.017738344	-0.165283203	-0.100830078	-1.026367188	886.3	-33.2015254	-27.08080104	73.05537571	-69
30486	0	0.176857948	-0.195827484	0.296199799	0.999999046	-0.000667572	0.000120163	-0.000203133	4.421448708	-4.895687103	7.404994965	-0.033378604	0.006008149	-0.010156632	-0.162841797	-0.098632813	-1.023681641	886.3	-33.26008309	-27.07695655	73.01660507	-69
30487	0	0.179016113	-0.193969727	0.296691895	0.999999046	-8.01086E-05	0.000187874	0.000171661	4.475402832	-4.849243164	7.417297363	-0.004005432	0.009393692	0.008583069	-0.163085938	-0.096191406	-1.020996094	886.3	-33.26750554	-27.04316087	73.01340105	-69
30488	0	0.178656578	-0.192857742	0.29446888	0.999999046	-0.000243187	0.000236511	0.000163078	4.466414452	-4.821443558	7.361721992	-0.012159348	0.011825562	0.008153916	-0.163085938	-0.096191406	-1.023925781	886.3	-33.29164593	-27.0053705	73.00641072	-69
30489	0	0.178527832	-0.192382813	0.293884277	0.999999046	-0.00056839	0.000355721	0.000106812	4.463195801	-4.809570313	7.347106934	-0.028419497	0.017786027	0.005340577	-0.160644531	-0.094238281	-1.024169922	886.3	-33.34648806	-26.9598542	72.98121521	-69
30490	0	0.17565155	-0.194709778	0.294946671	0.999999046	-0.000822067	0.000253677	0.000296593	4.391288757	-4.867744446	7.373666763	-0.041103369	0.01268387	0.014829638	-0.163330078	-0.093994141	-1.018310547	886.36	-33.44293703	-26.91215043	72.99362095	-70
30491	0	0.176818848	-0.195922852	0.296813965	0.999999046	-0.000770569	-9.05991E-05	0.000133514	4.420471191	-4.898071289	7.420349121	-0.038528446	-0.004529953	0.006675721	-0.160888672	-0.091796875	-1.018554688	886.26	-33.53660947	-26.9076471	73.00748535	-69
30492	0	0.17688179	-0.197043419	0.299651146	0.999999046	1.81198E-05	-0.000188828	7.9155E-05	4.422044754	-4.926085472	7.491278648	0.000905991	-0.009441376	0.003957748	-0.160888672	-0.089599609	-1.02734375	886.3	-33.54037886	-26.91588325	73.01616641	-69
30493	0	0.176391602	-0.194641113	0.29473877	0.999999046	3.8147E-05	-0.000117302	0.000148773	4.409790039	-4.866027832	7.368469238	0.001907349	-0.005865097	0.00743866	-0.160888672	-0.089599609	-1.021484375	886.26	-33.54291304	-26.91291338	73.02929754	-69
30494	0	0.178355217	-0.195954323	0.295016289	0.999999046	-0.000247955	0.000137329	4.57764E-05	4.458880424	-4.89885807	7.375407219	-0.012397766	0.006866455	0.002288818	-0.160888672	-0.091796875	-1.021484375	886.32	-33.56509282	-26.8922524	73.01714822	-69
30495	0	0.177490234	-0.196105957	0.294799805	0.999999046	0.000209808	0.00011158	5.34058E-05	4.437255859	-4.902648926	7.369995117	0.010490418	0.005578995	0.002670288	-0.160888672	-0.089599609	-1.021484375	886.26	-33.53607032	-26.87362966	73.00543614	-70
30496	0	0.177404404	-0.194599152	0.292905807	0.999999046	-2.19345E-05	0.000198364	3.33786E-05	4.435110092	-4.86497879	7.322645187	-0.001096725	0.009918213	0.00166893	-0.160644531	-0.092041016	-1.02734375	886.3	-33.52990517	-26.84810476	72.98653129	-70
30497	0	0.17767334	-0.1953125	0.29486084	0.999999046	-0.000144958	-8.29697E-05	1.52588E-05	4.441833496	-4.8828125	7.371520996	-0.007247925	-0.004148483	0.000762939	-0.158447266	-0.08984375	-1.024658203	886.16	-33.54600573	-26.85068836	72.98053171	-70
30498	0	0.174970627	-0.196564674	0.298008919	0.999999046	-0.000198364	-0.000333786	0.000170708	4.374265671	-4.914116859	7.450222969	-0.009918213	-0.016689301	0.008535385	-0.158447266	-0.092041016	-1.02734375	886.26	-33.58375832	-26.86726653	73.00989658	-70
30499	0	0.177429199	-0.192810059	0.294189453	0.999999046	-8.39233E-05	-0.000231743	0.000320435	4.43572998	-4.820251465	7.354736328	-0.004196167	-0.011587143	0.016021729	-0.158447266	-0.089599609	-1.021728516	886.26	-33.61226375	-26.86471742	73.04711941	-70
