Counter	Temperature	VelInc_X	VelInc_Y	VelInc_Z	OriInc_w	OriInc_x	OriInc_y	OriInc_z	Acc_X	Acc_Y	Acc_Z	Gyr_X	Gyr_Y	Gyr_Z	Mag_X	Mag_Y	Mag_Z	Pressure	Roll	Pitch	Yaw	RSSI
12140	0	-0.038507462	-0.233282089	0.315868378	0.999999046	-0.000288963	-0.000125885	9.53674E-05	-0.962686539	-5.832052231	7.896709442	-0.014448166	-0.006294251	0.004768372	-0.447509766	0.108398438	-0.915527344	882.3	-36.61142534	5.08350767	151.940454	-84
12141	0	-0.03918457	-0.233581543	0.315979004	0.999999046	6.86646E-05	-0.000178337	9.53674E-05	-0.979614258	-5.839538574	7.899475098	0.003433228	-0.008916855	0.004768372	-0.447265625	0.108398438	-0.920898438	882.28	-36.60609703	5.083737879	151.9412624	-84
12142	0	-0.037895203	-0.23212719	0.316634178	0.999999046	0.000198364	-0.000120163	9.82285E-05	-0.947380066	-5.803179741	7.915854454	0.009918213	-0.006008148	0.004911423	-0.449707031	0.108398438	-0.918212891	882.36	-36.58621472	5.089485063	151.9463089	-84
12143	0	-0.039001465	-0.232543945	0.317626953	0.999999046	0.000110626	8.58307E-06	6.48499E-05	-0.975036621	-5.813598633	7.940673828	0.005531311	0.000429153	0.003242493	-0.447509766	0.110595703	-0.918457031	882.32	-36.57742267	5.104789307	151.940657	-84
12144	0	-0.038975716	-0.232652664	0.316456795	0.999999046	3.33786E-05	-9.72748E-05	-7.62939E-06	-0.974392891	-5.816316605	7.911419868	0.00166893	-0.004863739	-0.00038147	-0.449707031	0.108398438	-0.920898438	882.28	-36.57746349	5.105406192	151.9313601	-84
12145	0	-0.039123535	-0.232727051	0.316589355	0.999999046	5.72205E-05	-0.000109673	3.43323E-05	-0.978088379	-5.81817627	7.914733887	0.002861023	-0.005483627	0.001716614	-0.447265625	0.108398438	-0.920898438	882.28	-36.57435818	5.107744115	151.9230134	-84
12146	0	-0.038581848	-0.232200623	0.316074371	0.999999046	-0.00012207	-8.01086E-05	3.05176E-05	-0.964546204	-5.805015564	7.901859283	-0.006103516	-0.004005432	0.001525879	-0.447509766	0.110595703	-0.918457031	882.28	-36.59199357	5.112519817	151.9198265	-84
12147	0	-0.038574219	-0.233886719	0.315979004	0.999999046	3.8147E-06	-0.000166893	4.19617E-05	-0.964355469	-5.847167969	7.899475098	0.000190735	-0.00834465	0.002098084	-0.447265625	0.108398438	-0.918212891	882.28	-36.59461999	5.11008089	151.9186692	-84
12148	0	-0.038976669	-0.23162365	0.315627098	0.999999046	0.000260353	-9.72748E-05	9.82285E-05	-0.974416733	-5.79059124	7.890677452	0.013017655	-0.004863739	0.004911423	-0.447265625	0.108398438	-0.920898438	882.2	-36.56781732	5.117890109	151.9153168	-85
12149	0	-0.039367676	-0.231567383	0.31829834	0.999999046	-2.67029E-05	-0.000124931	-5.34058E-05	-0.984191895	-5.78918457	7.957458496	-0.001335144	-0.006246567	-0.002670288	-0.447509766	0.110595703	-0.918457031	882.34	-36.57493693	5.112791194	151.9077057	-85
12150	0	-0.037615776	-0.232686996	0.316829681	0.999999046	-0.000148773	-9.34601E-05	3.05176E-05	-0.940394402	-5.817174911	7.920742035	-0.00743866	-0.004673004	0.001525879	-0.449707031	0.106201172	-0.91796875	882.3	-36.59557277	5.116293406	151.9002456	-85
12151	0	-0.038757324	-0.234130859	0.316101074	0.999999046	3.05176E-05	-9.05991E-05	0.000106812	-0.968933105	-5.853271484	7.902526855	0.001525879	-0.004529953	0.005340576	-0.447265625	0.108398438	-0.920898438	882.36	-36.59508347	5.125258051	151.8963094	-85
12152	0	-0.039299011	-0.231905937	0.317098618	0.999999046	0.000433922	-0.000261307	1.81198E-05	-0.982475281	-5.79764843	7.927465439	0.021696092	-0.013065339	0.000905991	-0.449707031	0.106201172	-0.920654297	882.34	-36.5480449	5.11245782	151.8968314	-85
12153	0	-0.038085938	-0.23059082	0.317260742	0.999999046	-5.72205E-05	-0.000174522	3.8147E-06	-0.952148438	-5.764770508	7.931518555	-0.002861023	-0.00872612	0.000190735	-0.447509766	0.110595703	-0.918457031	882.26	-36.55787313	5.106635349	151.8976809	-85
12154	0	-0.03834343	-0.233312607	0.316270828	0.999999046	-0.000225067	-0.000165939	2.67029E-05	-0.958585739	-5.83281517	7.906770706	-0.011253357	-0.008296967	0.001335144	-0.447265625	0.108398438	-0.918212891	882.36	-36.58683403	5.103152469	151.8942271	-85
12155	0	-0.038513184	-0.233032227	0.316650391	0.999999046	4.57764E-05	-0.000102043	-2.28882E-05	-0.96282959	-5.825805664	7.916259766	0.002288818	-0.005102158	-0.001144409	-0.447265625	0.108398438	-0.920898438	882.3	-36.58557423	5.102151701	151.87856	-85
12156	0	-0.037766457	-0.232395172	0.316495895	0.999999046	-2.86102E-06	-0.000185013	1.52588E-05	-0.944161415	-5.809879303	7.912397385	-0.000143051	-0.009250641	0.000762939	-0.447265625	0.108398438	-0.918212891	882.28	-36.58905874	5.096092099	151.8753314	-85
12157	0	-0.038818359	-0.23248291	0.316772461	0.999999046	-2.28882E-05	-8.67844E-05	6.10352E-05	-0.970458984	-5.812072754	7.919311523	-0.001144409	-0.004339218	0.003051758	-0.445068359	0.108398438	-0.918457031	882.34	-36.59506171	5.102192135	151.8656894	-85
12158	0	-0.038730621	-0.232554436	0.315546989	0.999999046	0.000131607	-9.72748E-05	5.24521E-05	-0.968265533	-5.813860893	7.888674736	0.006580353	-0.004863739	0.002622604	-0.445068359	0.108398438	-0.918457031	882.4	-36.58337932	5.106734203	151.856602	-85
12159	0	-0.038696289	-0.231933594	0.317504883	0.999999046	6.10352E-05	-0.000231743	2.28882E-05	-0.967407227	-5.798339844	7.93762207	0.003051758	-0.011587143	0.001144409	-0.445068359	0.108398438	-0.918457031	882.32	-36.57918898	5.096874977	151.8538285	-85
12160	0	-0.038804054	-0.231649399	0.316757202	0.999999046	-0.000159264	-0.000205994	0.000133514	-0.970101357	-5.79123497	7.918930054	-0.007963181	-0.010299683	0.00667572	-0.447265625	0.108398438	-0.918212891	882.26	-36.59947964	5.096936464	151.8622244	-86
12161	0	-0.038696289	-0.233398438	0.317199707	0.999999046	0.000148773	-0.000174522	4.19617E-05	-0.967407227	-5.834960938	7.929992676	0.00743866	-0.00872612	0.002098084	-0.447509766	0.110595703	-0.921142578	882.26	-36.58541914	5.093629978	151.8612119	-85
12162	0	-0.038848877	-0.231225967	0.316732407	0.999999046	9.15527E-05	-9.53674E-05	8.67844E-05	-0.971221924	-5.780649185	7.918310165	0.004577637	-0.004768372	0.004339218	-0.447265625	0.108398438	-0.918212891	882.2	-36.57801012	5.100665495	151.8582135	-85
12163	0	-0.038696289	-0.231811523	0.317138672	0.999999046	-0.000289917	-8.67844E-05	1.90735E-05	-0.967407227	-5.795288086	7.928466797	-0.01449585	-0.004339218	0.000953674	-0.447265625	0.105957031	-0.920898438	882.28	-36.61493629	5.103867034	151.8389809	-86
12164	0	-0.038391113	-0.233398438	0.315002441	0.999999046	-0.000227928	-0.000179291	3.05176E-05	-0.959777832	-5.834960938	7.875061035	-0.011396408	-0.008964539	0.001525879	-0.447265625	0.108398438	-0.918212891	882.28	-36.64410856	5.099317848	151.8345934	-86
12165	0	-0.039237022	-0.233535767	0.314834595	0.999998093	0.000151634	-6.96182E-05	8.58307E-05	-0.98092556	-5.838394165	7.870864868	0.007581711	-0.003480911	0.004291534	-0.445068359	0.108398438	-0.918457031	882.36	-36.63003087	5.108639841	151.8246927	-86
12166	0	-0.038669586	-0.231118202	0.317116737	0.999999046	0.00025177	-0.000181198	0.00014019	-0.966739655	-5.777955055	7.927918434	0.012588501	-0.009059906	0.007009506	-0.447265625	0.108398438	-0.918212891	882.34	-36.60331437	5.111406335	151.8319485	-86
12167	0	-0.038574219	-0.23046875	0.316894531	0.999999046	-0.000225067	-0.000227928	3.8147E-05	-0.964355469	-5.76171875	7.922363281	-0.011253357	-0.011396408	0.001907349	-0.444824219	0.105957031	-0.918212891	882.28	-36.63177424	5.102897301	151.8228941	-86
12168	0	-0.038081169	-0.233782768	0.31692791	0.999999046	-0.000107765	-0.000190735	2.86102E-06	-0.952029228	-5.844569206	7.923197746	-0.00538826	-0.009536743	0.000143051	-0.447265625	0.108398438	-0.920898438	882.4	-36.64731829	5.095374296	151.8128845	-85
12169	0	-0.038269043	-0.23236084	0.315307617	0.999999046	0.00018692	-0.000170708	4.19617E-05	-0.956726074	-5.809020996	7.88269043	0.009346008	-0.008535385	0.002098084	-0.447265625	0.108398438	-0.920898438	882.36	-36.62889924	5.09235382	151.8057531	-85
12170	0	-0.038119316	-0.232178688	0.31577301	0.999999046	4.57764E-05	-0.000118256	0.000133514	-0.952982903	-5.804467201	7.894325256	0.002288818	-0.005912781	0.00667572	-0.447265625	0.108398438	-0.918212891	882.32	-36.62621241	5.100397301	151.8071205	-85
12171	0	-0.038879395	-0.232299805	0.315368652	0.999999046	8.7738E-05	-0.000174522	8.39233E-05	-0.971984863	-5.807495117	7.884216309	0.004386902	-0.00872612	0.004196167	-0.447265625	0.108398438	-0.918212891	882.32	-36.6187869	5.099874346	151.807782	-85
12172	0	-0.038929939	-0.232543945	0.316033363	0.999999046	7.53403E-05	-0.000249863	5.72205E-05	-0.973248482	-5.813598633	7.900834084	0.003767014	-0.012493134	0.002861023	-0.444824219	0.108398438	-0.921142578	882.28	-36.61255751	5.090599767	151.8032189	-85
12173	0	-0.038391113	-0.231872559	0.315734863	0.999999046	1.52588E-05	-0.000136375	9.15527E-05	-0.959777832	-5.796813965	7.893371582	0.000762939	-0.006818771	0.004577637	-0.447265625	0.108398438	-0.920898438	882.4	-36.61361981	5.094100402	151.798355	-85
12174	0	-0.038713455	-0.232893944	0.315813065	0.999999046	-0.000104904	-0.000160217	-1.52588E-05	-0.96783638	-5.822348595	7.895326614	-0.005245209	-0.008010864	-0.000762939	-0.447265625	0.108398438	-0.920898438	882.28	-36.6291953	5.088103191	151.7848612	-85
12175	0	-0.038452148	-0.233093262	0.31640625	0.999999046	-3.05176E-05	-0.000136375	8.39233E-05	-0.961303711	-5.827331543	7.91015625	-0.001525879	-0.006818771	0.004196167	-0.447265625	0.108398438	-0.918212891	882.28	-36.63557572	5.091065252	151.7822578	-85
12176	0	-0.039075851	-0.23176384	0.31621933	0.999999046	-2.00272E-05	-0.0001297	-4.29153E-05	-0.976896286	-5.794095993	7.905483246	-0.001001358	-0.006484985	-0.002145767	-0.447265625	0.108398438	-0.918212891	882.3	-36.64182119	5.08597112	151.7674678	-85
12177	0	-0.038513184	-0.233276367	0.317199707	0.999999046	-4.57764E-05	-0.000308037	8.01086E-05	-0.96282959	-5.83190918	7.929992676	-0.002288818	-0.01540184	0.004005432	-0.447509766	0.110595703	-0.918457031	882.38	-36.64891521	5.072880398	151.779692	-85
12178	0	-0.038844109	-0.233177185	0.315919876	0.999999046	0.000102997	-2.47955E-05	0.000124931	-0.971102715	-5.829429626	7.897996902	0.005149841	-0.001239777	0.006246567	-0.447265625	0.108398438	-0.918212891	882.4	-36.64033727	5.088901629	151.7726839	-85
12179	0	-0.039733887	-0.232910156	0.315124512	0.999999046	0.000247955	-0.000185966	0.000141144	-0.993347168	-5.822753906	7.878112793	0.012397766	-0.009298325	0.00705719	-0.445068359	0.108398438	-0.918457031	882.24	-36.61404971	5.09122686	151.7750732	-85
12180	0	-0.038521767	-0.23085022	0.317206383	0.999999046	4.1008E-05	-0.000165939	-3.8147E-06	-0.963044167	-5.771255493	7.930159569	0.0020504	-0.008296967	-0.000190735	-0.447265625	0.108398438	-0.918212891	882.28	-36.61275012	5.08547721	151.7666038	-85
12181	0	-0.037780762	-0.232727051	0.316955566	0.999999046	-0.000228882	-0.000159264	-3.8147E-06	-0.944519043	-5.81817627	7.92388916	-0.011444092	-0.007963181	-0.000190735	-0.444824219	0.105957031	-0.918212891	882.36	-36.64243024	5.080324337	151.7480166	-85
12182	0	-0.039082527	-0.233605385	0.31588459	0.999999046	5.72205E-05	-0.000104904	7.9155E-05	-0.977063179	-5.840134621	7.897114754	0.002861023	-0.005245209	0.003957748	-0.447265625	0.108398438	-0.920898438	882.28	-36.63899384	5.085845395	151.7390643	-85
12183	0	-0.037902832	-0.233032227	0.315612793	0.999999046	0.000137329	-0.000144005	8.7738E-05	-0.947570801	-5.825805664	7.890319824	0.006866455	-0.007200241	0.004386902	-0.447265625	0.108398438	-0.920898438	882.3	-36.62608151	5.088339876	151.7340891	-85
12184	0	-0.038330078	-0.233215332	0.31628418	0.999999046	0.000130653	-0.000102997	0.0001297	-0.958251953	-5.830383301	7.907104492	0.006532669	-0.005149841	0.006484985	-0.447265625	0.106201172	-0.918212891	882.4	-36.61384956	5.097463078	151.7298734	-84
12185	0	-0.039489746	-0.233398438	0.316223145	0.999999046	0.000255585	-0.000235558	9.53674E-05	-0.987243652	-5.834960938	7.905578613	0.012779236	-0.011777878	0.004768372	-0.447265625	0.108398438	-0.918212891	882.32	-36.58677589	5.092049129	151.7365399	-84
12186	0	-0.039001465	-0.23248291	0.316101074	0.999999046	0.00019455	-0.000202179	5.72205E-05	-0.975036621	-5.812072754	7.902526855	0.009727478	-0.010108948	0.002861023	-0.447265625	0.108398438	-0.920898438	882.34	-36.56722729	5.087104278	151.7342087	-84
12187	0	-0.038269043	-0.23059082	0.315673828	0.999999046	-0.000171661	-0.000132561	1.52588E-05	-0.956726074	-5.764770508	7.891845703	-0.008583069	-0.006628037	0.000762939	-0.447265625	0.108398438	-0.918212891	882.2	-36.59038574	5.085688515	151.7261022	-84
12188	0	-0.038131714	-0.234238625	0.315542221	0.999999046	-6.38962E-05	-0.000200272	8.29697E-05	-0.953292847	-5.855965614	7.888555527	-0.003194809	-0.01001358	0.004148483	-0.445068359	0.110595703	-0.918701172	882.3	-36.60025814	5.082649491	151.7285602	-85
12189	0	-0.03894043	-0.232727051	0.314880371	0.999999046	0.000141144	-0.000151634	0.00012207	-0.973510742	-5.81817627	7.872009277	0.00705719	-0.007581711	0.006103516	-0.445068359	0.108398438	-0.918457031	882.32	-36.58664073	5.086763915	151.7274945	-85
12190	0	-0.038351059	-0.23153019	0.316665649	0.999999046	-9.53674E-06	-0.000196457	-2.28882E-05	-0.958776474	-5.788254738	7.916641235	-0.000476837	-0.009822846	-0.001144409	-0.447265625	0.108398438	-0.923583984	882.26	-36.59120914	5.076851642	151.7126398	-85
12191	0	-0.038146973	-0.233154297	0.316162109	0.999999046	-0.000152588	-0.000189781	-0.000114441	-0.953674316	-5.828857422	7.904052734	-0.007629395	-0.00948906	-0.005722046	-0.447509766	0.110595703	-0.921142578	882.4	-36.61295039	5.061277191	151.6963962	-84
12192	0	-0.038645744	-0.233870506	0.31470108	0.999999046	0.000208855	-3.43323E-05	-8.58307E-06	-0.966143608	-5.846762657	7.867527008	0.010442734	-0.001716614	-0.000429153	-0.447265625	0.108398438	-0.920898438	882.34	-36.59339742	5.067239822	151.6760102	-85
12193	0	-0.038757324	-0.231872559	0.317382813	0.999999046	0.000125885	-0.000201225	3.43323E-05	-0.968933105	-5.796813965	7.934570313	0.006294251	-0.010061264	0.001716614	-0.447265625	0.108398438	-0.918212891	882.22	-36.5819605	5.060778096	151.6748008	-85
12194	0	-0.03895092	-0.231058121	0.315808296	0.999999046	-0.000293732	-0.000102997	9.15527E-05	-0.973773003	-5.776453018	7.895207405	-0.014686585	-0.005149841	0.004577637	-0.447265625	0.108398438	-0.920898438	882.22	-36.61873691	5.067275288	151.6673847	-85
12195	0	-0.038757324	-0.234436035	0.314147949	0.999999046	-0.000190735	-0.000178337	7.24792E-05	-0.968933105	-5.860900879	7.85369873	-0.009536743	-0.008916855	0.003623962	-0.447265625	0.106201172	-0.918212891	882.3	-36.64346471	5.065542348	151.6615986	-85
12196	0	-0.037884712	-0.233880043	0.316390991	0.999999046	0.000344276	-0.000185013	0.000132561	-0.947117805	-5.847001076	7.90977478	0.017213822	-0.009250641	0.006628037	-0.445068359	0.108398438	-0.918457031	882.34	-36.60635393	5.0672805	151.6636525	-85
12197	0	-0.037902832	-0.231323242	0.316955566	0.999999046	9.15527E-05	-0.000197411	-4.19617E-05	-0.947570801	-5.783081055	7.92388916	0.004577637	-0.009870529	-0.002098084	-0.447265625	0.108398438	-0.920898438	882.26	-36.59953442	5.055939737	151.6508845	-85
12198	0	-0.038491249	-0.233588219	0.315364838	0.999999046	-4.95911E-05	-0.000188828	3.8147E-05	-0.962281227	-5.839705467	7.884120941	-0.002479553	-0.009441376	0.001907349	-0.447509766	0.110595703	-0.918457031	882.34	-36.6082955	5.050852773	151.6524908	-85
12199	0	-0.038879395	-0.232971191	0.31628418	0.999999046	0.000167847	-0.000170708	7.24792E-05	-0.971984863	-5.824279785	7.907104492	0.008392334	-0.008535385	0.003623962	-0.447265625	0.108398438	-0.918212891	882.36	-36.59198556	5.049787507	151.6517983	-85
12200	0	-0.038438797	-0.23224926	0.317107201	0.999999046	0.000149727	-0.000156403	0.000113487	-0.960969925	-5.806231499	7.927680016	0.007486343	-0.007820129	0.005674362	-0.444824219	0.108154297	-0.923828125	882.22	-36.57751331	5.052843937	151.6426565	-85
12201	0	-0.038818359	-0.23236084	0.315734863	0.999999046	-0.000148773	-0.00014782	-6.86646E-05	-0.970458984	-5.809020996	7.893371582	-0.00743866	-0.007390976	-0.003433228	-0.447265625	0.108398438	-0.920898438	882.28	-36.59877638	5.044250176	151.6240076	-85
12202	0	-0.038204193	-0.234230995	0.31549263	0.999999046	-0.000125885	-0.000108719	5.72205E-05	-0.955104828	-5.855774879	7.88731575	-0.006294251	-0.005435944	0.002861023	-0.447509766	0.110595703	-0.921142578	882.38	-36.61665619	5.04784123	151.6183337	-85
12203	0	-0.038635254	-0.232177734	0.315002441	0.999999046	0.000377655	-0.000170708	0.000102997	-0.965881348	-5.804443359	7.875061035	0.018882752	-0.008535385	0.005149841	-0.444824219	0.108398438	-0.921142578	882.3	-36.57610171	5.048863984	151.6138088	-85
12204	0	-0.039428711	-0.231564522	0.317265511	0.999999046	-0.000102043	-9.53674E-05	0.000118256	-0.985717773	-5.789113045	7.931637764	-0.005102158	-0.004768372	0.005912781	-0.447265625	0.108398438	-0.918212891	882.28	-36.59081585	5.057872951	151.6128936	-85
12205	0	-0.038269043	-0.233825684	0.316650391	0.999999046	-0.000152588	-0.000124931	3.8147E-06	-0.956726074	-5.84564209	7.916259766	-0.007629395	-0.006246567	0.000190735	-0.447265625	0.108398438	-0.918212891	882.28	-36.6120937	5.05633537	151.6027928	-85
12206	0	-0.038069725	-0.23386097	0.316039085	0.999999046	9.15527E-05	-0.000127792	7.53403E-05	-0.951743126	-5.846524239	7.900977135	0.004577637	-0.006389618	0.003767014	-0.444824219	0.108398438	-0.921142578	882.26	-36.6048262	5.059414244	151.5921653	-85
12207	0	-0.038696289	-0.23248291	0.316711426	0.999999046	0.000225067	-0.00014019	2.67029E-05	-0.967407227	-5.812072754	7.917785645	0.011253357	-0.007009506	0.001335144	-0.447509766	0.110595703	-0.918457031	882.26	-36.58255188	5.05802262	151.5909634	-85
12208	0	-0.038879395	-0.232543945	0.317138672	0.999999046	4.76837E-06	-0.000183105	0.000141144	-0.971984863	-5.813598633	7.928466797	0.000238419	-0.009155274	0.00705719	-0.449951172	0.110595703	-0.920898438	882.4	-36.58433436	5.060506844	151.6031378	-85
12209	0	-0.038879395	-0.232910156	0.316223145	0.999999046	1.14441E-05	-0.000197411	7.62939E-05	-0.971984863	-5.822753906	7.905578613	0.000572205	-0.009870529	0.003814697	-0.447265625	0.108398438	-0.918212891	882.3	-36.58580095	5.057250151	151.6047527	-85
12210	0	-0.038118362	-0.233080864	0.315571785	0.999999046	5.34058E-05	-0.000162125	9.44138E-05	-0.952959061	-5.827021599	7.889294624	0.002670288	-0.008106232	0.004720688	-0.447265625	0.108398438	-0.920898438	882.36	-36.58255233	5.058472665	151.6020346	-85
12211	0	-0.038330078	-0.233337402	0.31652832	0.999999046	0.000232697	-0.000178337	5.34058E-05	-0.958251953	-5.833435059	7.913208008	0.011634827	-0.008916855	0.002670288	-0.447265625	0.108398438	-0.920898438	882.28	-36.55900337	5.055395462	151.5973919	-85
12212	0	-0.038424492	-0.231599808	0.317015648	0.999999046	0.000123024	-8.01086E-05	0.000128746	-0.960612297	-5.789995193	7.925391197	0.006151199	-0.004005432	0.006437302	-0.444824219	0.108398438	-0.921142578	882.42	-36.54798249	5.066498873	151.5895092	-85
12213	0	-0.038879395	-0.233154297	0.316711426	0.999999046	-3.8147E-05	-0.000189781	8.39233E-05	-0.971984863	-5.828857422	7.917785645	-0.001907349	-0.00948906	0.004196167	-0.447265625	0.108398438	-0.920898438	882.28	-36.55514471	5.064450691	151.5887584	-85
12214	0	-0.039225578	-0.232562065	0.317318916	0.999999046	0.000268936	-0.000196457	2.19345E-05	-0.980639458	-5.814051628	7.932972908	0.013446808	-0.009822846	0.001096725	-0.444824219	0.105957031	-0.918212891	882.34	-36.5275751	5.057566853	151.578489	-85
12215	0	-0.038391113	-0.232116699	0.317443848	0.999999046	0.0001297	-0.000155449	4.57764E-05	-0.959777832	-5.80291748	7.936096191	0.006484985	-0.007772446	0.002288818	-0.449707031	0.108398438	-0.918212891	882.34	-36.51599387	5.056076391	151.5804991	-85
12216	0	-0.038680077	-0.232275963	0.316843987	0.999999046	5.62668E-05	-0.000185013	-1.14441E-05	-0.967001915	-5.806899071	7.921099663	0.002813339	-0.009250641	-0.000572205	-0.449707031	0.108398438	-0.920898438	882.34	-36.51312482	5.04796673	151.57548	-85
12217	0	-0.038330078	-0.233337402	0.316345215	0.999999046	5.34058E-05	-0.000247002	-3.8147E-06	-0.958251953	-5.833435059	7.908630371	0.002670288	-0.012350083	-0.000190735	-0.447265625	0.108398438	-0.918212891	882.4	-36.51015849	5.034659458	151.5747919	-85
12218	0	-0.03890419	-0.231472969	0.31681633	0.999999046	0.000133514	-7.24792E-05	1.04904E-05	-0.972604752	-5.786824226	7.920408249	0.00667572	-0.003623962	0.000524521	-0.444824219	0.108398438	-0.921142578	882.28	-36.49894226	5.038415274	151.5565633	-85
12219	0	-0.038330078	-0.232055664	0.316833496	0.999999046	-1.90735E-05	-0.000216484	0	-0.958251953	-5.801391602	7.920837402	-0.000953674	-0.010824204	0	-0.447265625	0.108398438	-0.920898438	882.3	-36.5044317	5.028189157	151.5510428	-85
12220	0	-0.037643433	-0.232800484	0.316718102	0.999999046	-9.05991E-05	-0.000150681	3.43323E-05	-0.941085815	-5.820012093	7.917952538	-0.004529953	-0.007534027	0.001716614	-0.447265625	0.108398438	-0.920898438	882.28	-36.51824556	5.026349514	151.543727	-84
12221	0	-0.038452148	-0.233764648	0.315673828	0.999999046	0.000198364	-9.05991E-05	9.53674E-05	-0.961303711	-5.844116211	7.891845703	0.009918213	-0.004529953	0.004768372	-0.449707031	0.108398438	-0.920898438	882.34	-36.49884776	5.034205732	151.5425153	-84
12222	0	-0.038866043	-0.230885506	0.315833092	0.999999046	0.000318527	-0.000211716	7.24792E-05	-0.971651077	-5.772137642	7.895827293	0.015926361	-0.010585785	0.003623962	-0.447265625	0.108398438	-0.918212891	882.3	-36.46511715	5.02934962	151.5478983	-84
12223	0	-0.038269043	-0.231201172	0.317199707	0.999999046	-0.000167847	-0.000136375	3.43323E-05	-0.956726074	-5.780029297	7.929992676	-0.008392334	-0.006818771	0.001716614	-0.444824219	0.105957031	-0.920898438	882.32	-36.48788995	5.028842841	151.5316232	-84
12224	0	-0.038259506	-0.234173775	0.317436218	0.999999046	-4.29153E-05	-0.000102997	-2.38419E-05	-0.956487656	-5.854344368	7.935905457	-0.002145767	-0.005149841	-0.001192093	-0.447265625	0.105957031	-0.920898438	882.34	-36.49704557	5.027439945	151.5117736	-84
12225	0	-0.03894043	-0.232727051	0.315429688	0.999999046	0.000240326	-0.000189781	-6.10352E-05	-0.973510742	-5.81817627	7.885742188	0.012016297	-0.00948906	-0.003051758	-0.447265625	0.108398438	-0.918212891	882.36	-36.47352534	5.015511146	151.5037496	-84
12226	0	-0.038303375	-0.231847763	0.316532135	0.999999046	0.000282288	-0.000164032	-1.62125E-05	-0.957584381	-5.796194077	7.913303375	0.01411438	-0.008201599	-0.000810623	-0.447265625	0.108398438	-0.920898438	882.4	-36.44499638	5.009015539	151.4954311	-84
12227	0	-0.038757324	-0.231994629	0.315551758	0.999999046	-6.48499E-05	-0.000144005	0.000106812	-0.968933105	-5.799865723	7.888793945	-0.003242493	-0.007200241	0.005340576	-0.447265625	0.105957031	-0.920898438	882.28	-36.4554028	5.012758472	151.4917411	-84
12228	0	-0.038716316	-0.232821465	0.315776825	0.999999046	7.53403E-05	-0.000207901	-5.43594E-05	-0.967907906	-5.820536613	7.894420624	0.003767014	-0.01039505	-0.002717972	-0.447265625	0.106201172	-0.918212891	882.36	-36.45068001	4.999642397	151.4816825	-84
12229	0	-0.038635254	-0.231079102	0.316223145	0.999999046	2.67029E-05	-0.00026989	3.43323E-05	-0.965881348	-5.776977539	7.905578613	0.001335144	-0.013494492	0.001716614	-0.447265625	0.108398438	-0.920898438	882.34	-36.45044074	4.986860312	151.4844146	-84
12230	0	-0.038479805	-0.23191452	0.316926956	0.999999046	-0.000173569	-7.62939E-05	-1.90735E-05	-0.961995125	-5.797863007	7.923173904	-0.008678436	-0.003814697	-0.000953674	-0.449707031	0.108398438	-0.918212891	882.46	-36.47472505	4.988287212	151.4757495	-84
12231	0	-0.038024902	-0.233398438	0.316589355	0.999999046	-0.000152588	-5.24521E-05	5.34058E-05	-0.950622559	-5.834960938	7.914733887	-0.007629395	-0.002622604	0.002670288	-0.447265625	0.108398438	-0.920898438	882.34	-36.49619868	4.996844614	151.4642244	-84
12232	0	-0.038931847	-0.233735085	0.316033363	0.999999046	0.000163078	-0.000177383	7.9155E-05	-0.973296165	-5.843377113	7.900834084	0.008153915	-0.008869171	0.003957748	-0.449707031	0.108398438	-0.920898438	882.4	-36.48058036	4.995658874	151.4677373	-84
12233	0	-0.038391113	-0.23034668	0.317504883	0.999999046	0.000148773	-0.000208855	7.62939E-05	-0.959777832	-5.758666992	7.93762207	0.00743866	-0.010442734	0.003814697	-0.447265625	0.108398438	-0.918212891	882.4	-36.46639055	4.991377371	151.4728416	-84
12234	0	-0.039087296	-0.23268795	0.31758976	0.999999046	-0.000160217	-0.000156403	5.72205E-05	-0.977182388	-5.817198753	7.939743996	-0.008010864	-0.007820129	0.002861023	-0.447509766	0.110595703	-0.921142578	882.34	-36.48807826	4.990645472	151.4725671	-84
12235	0	-0.037231445	-0.232543945	0.31652832	0.999999046	0	-0.000185966	1.90735E-05	-0.930786133	-5.813598633	7.913208008	0	-0.009298325	0.000953674	-0.447265625	0.108398438	-0.918212891	882.4	-36.49154652	4.984572073	151.4694589	-84
12236	0	-0.038648605	-0.232909203	0.315260887	0.999999046	4.673E-05	-0.000123978	7.53403E-05	-0.966215134	-5.822730064	7.881522179	0.002336502	-0.006198883	0.003767014	-0.447265625	0.108398438	-0.920898438	882.24	-36.48961362	4.988058071	151.4638466	-84
12237	0	-0.038818359	-0.231872559	0.316040039	0.999999046	0.000190735	-0.000124931	8.39233E-05	-0.970458984	-5.796813965	7.901000977	0.009536743	-0.006246567	0.004196167	-0.449951172	0.108398438	-0.915527344	882.26	-36.47108914	4.99204679	151.4709228	-84
12238	0	-0.038472176	-0.230830193	0.317541122	0.999999046	-9.72748E-05	-0.000106812	2.67029E-05	-0.96180439	-5.770754814	7.938528061	-0.004863739	-0.005340576	0.001335144	-0.447265625	0.108398438	-0.918212891	882.24	-36.48611959	4.993815957	151.4630479	-84
12239	0	-0.037719727	-0.233093262	0.316101074	0.999999046	-0.000377655	-0.000197411	-2.28882E-05	-0.942993164	-5.827331543	7.902526855	-0.018882752	-0.009870529	-0.001144409	-0.447265625	0.108398438	-0.920898438	882.36	-36.5331734	4.983850961	151.4515208	-84
12240	0	-0.038316727	-0.233883858	0.316610336	0.999999046	0.000161171	3.62396E-05	2.95639E-05	-0.957918167	-5.847096443	7.915258408	0.008058548	0.001811981	0.001478195	-0.452148438	0.110595703	-0.920898438	882.28	-36.51946494	4.998974161	151.4421969	-84
12241	0	-0.038146973	-0.23223877	0.31628418	0.999999046	0.000270844	-0.000144005	7.62939E-05	-0.953674316	-5.805969238	7.907104492	0.013542176	-0.007200241	0.003814697	-0.447509766	0.108398438	-0.915527344	882.28	-36.49173021	5.00068197	151.4453236	-84
12242	0	-0.038274765	-0.231146812	0.315748215	0.999999046	0.000139236	-0.000143051	3.43323E-05	-0.956869125	-5.778670311	7.893705368	0.006961823	-0.007152557	0.001716614	-0.447265625	0.108398438	-0.918212891	882.16	-36.47942394	4.99962416	151.4408663	-83
12243	0	-0.03894043	-0.23260498	0.31652832	0.999999046	-0.000133514	-4.48227E-05	3.8147E-06	-0.973510742	-5.815124512	7.913208008	-0.00667572	-0.002241135	0.000190735	-0.447265625	0.108398438	-0.918212891	882.22	-36.4992167	5.005549157	151.4265907	-83
12244	0	-0.03894043	-0.233337402	0.317260742	0.999999046	7.34329E-05	-0.0001297	4.19617E-05	-0.973510742	-5.833435059	7.931518555	0.003671646	-0.006484985	0.002098084	-0.447265625	0.108398438	-0.923583984	882.24	-36.49450941	5.006270181	151.4149033	-84
12245	0	-0.037353516	-0.231933594	0.316650391	0.999999046	-0.000148773	-0.000189781	6.48499E-05	-0.933837891	-5.798339844	7.916259766	-0.00743866	-0.00948906	0.003242493	-0.449707031	0.106201172	-0.923339844	882.18	-36.51472889	5.003002648	151.4085545	-83
12246	0	-0.038179398	-0.233121872	0.314825058	0.999999046	-0.0001297	-6.10352E-05	3.8147E-05	-0.95448494	-5.828046799	7.87062645	-0.006484985	-0.003051758	0.001907349	-0.447265625	0.108398438	-0.920898438	882.38	-36.53376167	5.009763382	151.3944498	-83
12247	0	-0.038269043	-0.233093262	0.316833496	0.999999046	0.000164032	-0.000124931	7.24792E-05	-0.956726074	-5.827331543	7.920837402	0.008201599	-0.006246567	0.003623962	-0.449707031	0.108398438	-0.918212891	882.28	-36.5184743	5.012975364	151.3957891	-83
12248	0	-0.038345337	-0.231275558	0.316796303	0.999999046	-4.48227E-05	-0.000148773	0.0001297	-0.958633423	-5.781888962	7.91990757	-0.002241135	-0.00743866	0.006484985	-0.449707031	0.108398438	-0.920898438	882.28	-36.52650533	5.017898359	151.3999364	-84
12249	0	-0.038513184	-0.232727051	0.317932129	0.999999046	-0.00018692	-0.000212669	4.57764E-05	-0.96282959	-5.81817627	7.948303223	-0.009346008	-0.010633469	0.002288818	-0.447265625	0.108398438	-0.918212891	882.28	-36.55109637	5.01121168	151.3991221	-84
12250	0	-0.036873817	-0.233025551	0.315785408	0.999999046	-0.000167847	-2.86102E-05	0.000106812	-0.921845436	-5.825638771	7.894635201	-0.008392334	-0.001430511	0.005340576	-0.449707031	0.106201172	-0.920654297	882.26	-36.57414626	5.025613058	151.3873352	-84
12251	0	-0.039123535	-0.232421875	0.315246582	0.999999046	1.14441E-05	-9.82285E-05	0.000171661	-0.978088379	-5.810546875	7.881164551	0.000572205	-0.004911423	0.008583069	-0.447265625	0.106201172	-0.918212891	882.3	-36.57570823	5.038046494	151.3856876	-83
12252	0	-0.038592339	-0.233683586	0.31739521	0.999999046	0.000189781	-0.000188828	1.43051E-05	-0.964808464	-5.842089653	7.934880257	0.00948906	-0.009441376	0.000715256	-0.447265625	0.108398438	-0.918212891	882.28	-36.5575572	5.031392891	151.3806611	-84
12253	0	-0.037902832	-0.231018066	0.315429688	0.999999046	-8.39233E-05	-0.000151634	3.8147E-05	-0.947570801	-5.77545166	7.885742188	-0.004196167	-0.007581711	0.001907349	-0.449707031	0.108398438	-0.918212891	882.28	-36.57079046	5.029782773	151.3785956	-84
12254	0	-0.037885666	-0.233571053	0.316134453	0.999999046	-4.3869E-05	-0.00018692	-5.05447E-05	-0.947141647	-5.839276314	7.90336132	-0.002193451	-0.009346008	-0.002527237	-0.449707031	0.108398438	-0.918212891	882.3	-36.57995626	5.018857683	151.3702718	-83
12255	0	-0.037353516	-0.233032227	0.315612793	0.999999046	7.24792E-05	-0.000193596	8.7738E-05	-0.933837891	-5.825805664	7.890319824	0.003623962	-0.009679794	0.004386902	-0.449707031	0.108398438	-0.918212891	882.22	-36.57464381	5.016742352	151.374944	-84
12256	0	-0.038146973	-0.233642578	0.316467285	0.999999046	7.72476E-05	-0.000137329	0.0001297	-0.953674316	-5.841064453	7.911682129	0.003862381	-0.006866455	0.006484985	-0.447509766	0.110595703	-0.918457031	882.32	-36.56878593	5.022661706	151.3801509	-83
12257	0	-0.038330078	-0.232727051	0.315734863	0.999999046	0.000125885	-0.000105858	0.000141144	-0.958251953	-5.81817627	7.893371582	0.006294251	-0.005292892	0.00705719	-0.447265625	0.108398438	-0.918212891	882.16	-36.55746578	5.032261245	151.3801478	-83
12258	0	-0.0386343	-0.23257637	0.315374374	0.999999046	0.000164032	-6.67572E-05	0.000102043	-0.965857506	-5.814409256	7.88435936	0.008201599	-0.00333786	0.005102158	-0.447265625	0.108398438	-0.920898438	882.3	-36.5423444	5.042799028	151.3711985	-83
12259	0	-0.038269043	-0.231811523	0.316772461	0.999999046	-0.000102997	-6.00815E-05	-1.14441E-05	-0.956726074	-5.795288086	7.919311523	-0.005149841	-0.003004074	-0.000572205	-0.449707031	0.108398438	-0.918212891	882.32	-36.55876475	5.046199331	151.3585468	-84
12260	0	-0.038042068	-0.233160019	0.316484451	0.999999046	-0.000218391	-9.72748E-05	-1.14441E-05	-0.951051712	-5.829000473	7.912111282	-0.010919571	-0.004863739	-0.000572205	-0.449707031	0.108398438	-0.920898438	882.28	-36.58820247	5.046165368	151.344169	-84
12261	0	-0.038024902	-0.233642578	0.316894531	0.999999046	6.48499E-05	-0.000105858	7.62939E-05	-0.950622559	-5.841064453	7.922363281	0.003242493	-0.005292892	0.003814697	-0.449707031	0.108398438	-0.918212891	882.48	-36.58441623	5.051317263	151.3421318	-83
12262	0	-0.037932396	-0.232375145	0.316505432	0.999999046	0.000144958	-0.000108719	8.67844E-05	-0.948309898	-5.809378624	7.912635803	0.007247925	-0.005435944	0.004339218	-0.447265625	0.108398438	-0.918212891	882.4	-36.57133708	5.056910852	151.3378542	-83
12263	0	-0.038818359	-0.232543945	0.316955566	0.999999046	2.28882E-05	-0.000121117	6.10352E-05	-0.970458984	-5.813598633	7.92388916	0.001144409	-0.006055832	0.003051758	-0.447509766	0.110595703	-0.918457031	882.34	-36.57236429	5.059606156	151.336423	-84
12264	0	-0.03815937	-0.23325634	0.317035675	0.999998093	-0.000166893	-0.000167847	-0.000117302	-0.953984261	-5.831408501	7.925891876	-0.00834465	-0.008392334	-0.005865097	-0.449707031	0.108398438	-0.918212891	882.34	-36.59631906	5.045814966	151.3203864	-84
12265	0	-0.037475586	-0.233703613	0.315368652	0.999999046	0.000160217	-0.000128746	0.000190735	-0.936889648	-5.842590332	7.884216309	0.008010864	-0.006437302	0.009536743	-0.449707031	0.108398438	-0.918212891	882.36	-36.58054265	5.056641323	151.3303459	-84
12266	0	-0.039619446	-0.232611656	0.315879822	0.999999046	0.000246048	-9.72748E-05	-5.05447E-05	-0.990486145	-5.815291405	7.896995544	0.012302399	-0.004863739	-0.002527237	-0.447509766	0.110595703	-0.918457031	882.36	-36.5570756	5.053904884	151.317391	-84
12267	0	-0.038208008	-0.232055664	0.316223145	0.999999046	2.67029E-05	-0.000185966	7.62939E-06	-0.955200195	-5.801391602	7.905578613	0.001335144	-0.009298325	0.00038147	-0.447265625	0.108398438	-0.918212891	882.32	-36.5577361	5.046976055	151.3112442	-84
12268	0	-0.038032532	-0.232831955	0.316004753	0.999999046	-0.000248909	-0.000164032	-3.8147E-06	-0.950813293	-5.820798874	7.900118828	-0.01244545	-0.008201599	-0.000190735	-0.447265625	0.108398438	-0.920898438	882.34	-36.5902216	5.041278733	151.298064	-84
12269	0	-0.038696289	-0.234436035	0.315856934	0.999999046	2.28882E-05	-0.000178337	0	-0.967407227	-5.860900879	7.89642334	0.001144409	-0.008916855	0	-0.447509766	0.110595703	-0.918457031	882.4	-36.59145692	5.034521201	151.2939949	-84
12270	0	-0.038146973	-0.231567383	0.31628418	0.999999046	0.000198364	-0.00019455	0.000106812	-0.953674316	-5.78918457	7.907104492	0.009918213	-0.009727478	0.005340576	-0.445068359	0.108398438	-0.918457031	882.36	-36.57160733	5.033566462	151.2930553	-84
12271	0	-0.038635254	-0.233154297	0.316894531	0.999999046	-5.34058E-05	-0.000144005	1.90735E-05	-0.965881348	-5.828857422	7.922363281	-0.002670288	-0.007200241	0.000953674	-0.449707031	0.108398438	-0.918212891	882.3	-36.58162619	5.031274229	151.2879934	-84
12272	0	-0.038858414	-0.233064651	0.316147804	0.999999046	0.000180244	-0.000108719	0.000155449	-0.971460342	-5.826616287	7.903695107	0.009012222	-0.005435944	0.007772446	-0.447265625	0.108398438	-0.920898438	882.36	-36.56398891	5.041552603	151.2863412	-84
12273	0	-0.038146973	-0.231262207	0.315246582	0.999999046	9.91821E-05	-9.44138E-05	0.000110626	-0.953674316	-5.781555176	7.881164551	0.004959106	-0.004720688	0.005531311	-0.447265625	0.108398438	-0.918212891	882.22	-36.55607272	5.050080661	151.2834815	-84
12274	0	-0.03838253	-0.232961655	0.316825867	0.999999046	-0.000101089	-0.000148773	-3.8147E-05	-0.959563255	-5.824041367	7.920646667	-0.005054474	-0.00743866	-0.001907349	-0.447265625	0.108398438	-0.918212891	882.32	-36.57198886	5.043446414	151.2701865	-84
12275	0	-0.038635254	-0.233459473	0.316345215	0.999999046	1.90735E-05	-0.00014782	8.39233E-05	-0.965881348	-5.836486816	7.908630371	0.000953674	-0.007390976	0.004196167	-0.447509766	0.108398438	-0.915527344	882.22	-36.57315265	5.045232506	151.2717833	-84
12276	0	-0.037908554	-0.232892036	0.317341805	0.999999046	4.76837E-06	-0.000114441	0.000118256	-0.947713852	-5.822300911	7.933545113	0.000238419	-0.005722046	0.005912781	-0.447265625	0.108398438	-0.923583984	882.22	-36.57589269	5.052431392	151.263473	-84
12277	0	-0.0390625	-0.233520508	0.317626953	0.999999046	-1.52588E-05	-7.53403E-05	0.000110626	-0.9765625	-5.838012695	7.940673828	-0.000762939	-0.003767014	0.005531311	-0.447265625	0.108398438	-0.920898438	882.26	-36.58121527	5.06271196	151.255457	-84
12278	0	-0.038944244	-0.232667923	0.31554985	0.999999046	0.000120163	-0.000150681	6.00815E-05	-0.97360611	-5.816698074	7.888746262	0.006008148	-0.007534027	0.003004074	-0.449707031	0.108398438	-0.920898438	882.34	-36.57098381	5.062615174	151.252149	-84
12279	0	-0.038391113	-0.232788086	0.316833496	0.999999046	-7.24792E-05	-0.000182152	3.05176E-05	-0.959777832	-5.819702148	7.920837402	-0.003623962	-0.00910759	0.001525879	-0.447509766	0.108398438	-0.915527344	882.34	-36.58285673	5.057592839	151.2511158	-84
12280	0	-0.037618637	-0.232954025	0.31687355	0.999999046	-0.000119209	-0.000110626	-9.91821E-05	-0.940465927	-5.823850632	7.92183876	-0.005960465	-0.005531311	-0.004959106	-0.447265625	0.108398438	-0.920898438	882.34	-36.60158458	5.050278697	151.2256431	-84
12281	0	-0.038269043	-0.234375	0.31628418	0.999999046	-8.7738E-05	4.76837E-06	1.52588E-05	-0.956726074	-5.859375	7.907104492	-0.004386902	0.000238419	0.000762939	-0.447509766	0.110595703	-0.918457031	882.28	-36.61648075	5.061382821	151.2108888	-84
12282	0	-0.039439201	-0.233635902	0.316364288	0.999999046	0.000295639	-0.000177383	2.95639E-05	-0.985980034	-5.84089756	7.909107208	0.014781952	-0.008869171	0.001478195	-0.447265625	0.108398438	-0.918212891	882.34	-36.58624127	5.056727227	151.2063702	-84
12283	0	-0.038269043	-0.230834961	0.316894531	0.999999046	8.39233E-05	-0.000144005	5.34058E-05	-0.956726074	-5.770874023	7.922363281	0.004196167	-0.007200241	0.002670288	-0.447265625	0.108398438	-0.920898438	882.22	-36.5802408	5.056770621	151.1985446	-84
12284	0	-0.039306641	-0.23248291	0.316467285	0.999999046	-0.000445366	-0.000144958	4.57764E-05	-0.982666016	-5.812072754	7.911682129	-0.022268296	-0.007247925	0.002288818	-0.447265625	0.108398438	-0.918212891	882.32	-36.6349384	5.056216372	151.1917617	-84
12285	0	-0.038554192	-0.234904289	0.3151474	0.999998093	4.1008E-05	-0.000220299	0.000105858	-0.96385479	-5.872607231	7.878684998	0.0020504	-0.011014938	0.005292893	-0.445068359	0.108398438	-0.915771484	882.36	-36.63298671	5.05283744	151.1950807	-84
12286	0	-0.037615776	-0.233341217	0.315562248	0.999999046	0.000268936	-0.000192642	6.00815E-05	-0.940394402	-5.833530426	7.889056206	0.013446808	-0.009632111	0.003004074	-0.447509766	0.110595703	-0.918457031	882.2	-36.60546513	5.048853501	151.1976922	-84
12287	0	-0.038146973	-0.231872559	0.316650391	0.999999046	-7.62939E-06	-0.000201225	0.000148773	-0.953674316	-5.796813965	7.916259766	-0.00038147	-0.010061264	0.00743866	-0.447265625	0.108398438	-0.918212891	882.34	-36.60884978	5.050137402	151.2040845	-84
12288	0	-0.03937149	-0.233819008	0.315380096	0.999999046	-0.000100136	-8.7738E-05	6.48499E-05	-0.984287262	-5.845475197	7.884502411	-0.00500679	-0.004386902	0.003242493	-0.447265625	0.108398438	-0.918212891	882.28	-36.62422563	5.056141771	151.194685	-84
12289	0	-0.038635254	-0.233215332	0.316955566	0.999999046	0.000133514	-9.44138E-05	-7.62939E-06	-0.965881348	-5.830383301	7.92388916	0.00667572	-0.004720688	-0.00038147	-0.447265625	0.110595703	-0.923828125	882.3	-36.61337746	5.056580668	151.1769076	-85
12290	0	-0.038754463	-0.232521057	0.317207336	0.999999046	-1.33514E-05	-6.29425E-05	-7.62939E-05	-0.96886158	-5.813026428	7.930183411	-0.000667572	-0.003147125	-0.003814697	-0.447265625	0.105957031	-0.920898438	882.28	-36.62009911	5.055227961	151.1458254	-85
12291	0	-0.038085938	-0.233459473	0.315307617	0.999999046	-3.05176E-05	-0.00020504	5.34058E-05	-0.952148438	-5.836486816	7.88269043	-0.001525879	-0.010251999	0.002670288	-0.447265625	0.108398438	-0.918212891	882.22	-36.62687316	5.049656593	151.1444572	-84
12292	0	-0.037919998	-0.233901978	0.315613747	0.999999046	0.000237465	-0.000188828	0.000155449	-0.947999954	-5.847549438	7.890343666	0.011873245	-0.009441376	0.007772446	-0.447265625	0.108398438	-0.918212891	882.3	-36.60222385	5.052538659	151.1518797	-85
12293	0	-0.038208008	-0.233703613	0.315612793	0.999999046	0.000358582	-0.000166893	0.000183105	-0.955200195	-5.842590332	7.890319824	0.017929078	-0.008344651	0.009155274	-0.447265625	0.108398438	-0.918212891	882.32	-36.56361758	5.059315631	151.161331	-85
12294	0	-0.038309097	-0.231021881	0.316523552	0.999999046	0.000261307	-0.000143051	-1.14441E-05	-0.957727432	-5.775547028	7.913088799	0.013065338	-0.007152557	-0.000572205	-0.447265625	0.108398438	-0.920898438	882.24	-36.53786462	5.055003445	151.1486969	-85
12295	0	-0.038452148	-0.231689453	0.317504883	0.999999046	-5.72205E-05	-0.000227928	1.14441E-05	-0.961303711	-5.792236328	7.93762207	-0.002861023	-0.011396408	0.000572205	-0.449707031	0.108398438	-0.918212891	882.24	-36.54788331	5.044435695	151.1506039	-85
12296	0	-0.037763596	-0.233251572	0.3170681	0.999999046	-0.000344276	-6.48499E-05	-3.8147E-05	-0.94408989	-5.831289291	7.926702499	-0.017213822	-0.003242493	-0.001907349	-0.447265625	0.108398438	-0.920898438	882.26	-36.59219275	5.045479738	151.1283761	-85
12297	0	-0.038879395	-0.234741211	0.315673828	0.999999046	0.000213623	-0.000109673	-1.52588E-05	-0.971984863	-5.868530273	7.891845703	0.010681152	-0.005483627	-0.000762939	-0.447265625	0.108398438	-0.920898438	882.42	-36.57214954	5.043965741	151.1123852	-84
12298	0	-0.038802147	-0.231433868	0.317428589	0.999999046	0.000301361	-0.00019455	4.57764E-05	-0.970053673	-5.78584671	7.935714722	0.015068055	-0.009727478	0.002288818	-0.447265625	0.108398438	-0.918212891	882.28	-36.541003	5.038812915	151.112193	-84
12299	0	-0.038024902	-0.231872559	0.316345215	0.999999046	-0.000148773	-7.53403E-05	-5.72205E-05	-0.950622559	-5.796813965	7.908630371	-0.00743866	-0.003767014	-0.002861023	-0.447509766	0.110595703	-0.918457031	882.3	-36.56297612	5.037596041	151.0983003	-84
12300	0	-0.038330078	-0.233703613	0.316345215	0.999999046	2.76566E-05	-0.000156403	0.000110626	-0.958251953	-5.842590332	7.908630371	0.001382828	-0.007820129	0.005531311	-0.447265625	0.108398438	-0.920898438	882.3	-36.56291367	5.040376375	151.0973365	-84
12301	0	-0.038879395	-0.232727051	0.317077637	0.999999046	0.000293732	-0.000266075	0.000106812	-0.971984863	-5.81817627	7.926940918	0.014686585	-0.013303757	0.005340576	-0.447509766	0.110595703	-0.918457031	882.42	-36.53170774	5.032800363	151.1118013	-84
12302	0	-0.037722588	-0.231373787	0.31717205	0.999999046	4.57764E-05	-0.000225067	0.000110626	-0.94306469	-5.784344673	7.929301262	0.002288818	-0.011253357	0.005531311	-0.447265625	0.105957031	-0.920898438	882.34	-36.52913113	5.029254449	151.1107353	-84
12303	0	-0.0390625	-0.233276367	0.315368652	0.999999046	4.19617E-05	-1.04904E-05	2.28882E-05	-0.9765625	-5.83190918	7.884216309	0.002098083	-0.000524521	0.001144409	-0.447265625	0.108398438	-0.918212891	882.28	-36.52899983	5.039490327	151.0958818	-85
12304	0	-0.038822174	-0.232821465	0.316670418	0.999999046	0.000109673	-0.000175476	0.000106812	-0.970554352	-5.820536613	7.916760445	0.005483627	-0.008773804	0.005340576	-0.449707031	0.108398438	-0.918212891	882.26	-36.51944178	5.040265427	151.1038664	-85
12305	0	-0.038574219	-0.230957031	0.316894531	0.999999046	0.00012207	-0.000124931	8.7738E-05	-0.964355469	-5.773925781	7.922363281	0.006103516	-0.006246567	0.004386902	-0.447265625	0.108398438	-0.918212891	882.3	-36.5088927	5.044397591	151.1029809	-84
12306	0	-0.038963318	-0.232276917	0.316105843	0.999999046	-0.000562668	-8.39233E-05	-9.15527E-05	-0.974082947	-5.806922913	7.902646065	-0.028133394	-0.004196167	-0.004577637	-0.449707031	0.108398438	-0.920898438	882.36	-36.57853021	5.040086144	151.0811687	-84
12307	0	-0.038574219	-0.233154297	0.315612793	0.999999046	-0.000442505	4.673E-05	-0.000144958	-0.964355469	-5.828857422	7.890319824	-0.022125245	0.002336502	-0.007247925	-0.447509766	0.110595703	-0.918457031	882.28	-36.63561974	5.04412076	151.04858	-83
12308	0	-0.037986755	-0.233201027	0.315463066	0.999999046	-0.0004282	1.71661E-05	-5.05447E-05	-0.949668884	-5.830025673	7.886576653	-0.021409989	0.000858307	-0.002527237	-0.445068359	0.108398438	-0.918457031	882.34	-36.69014821	5.051861331	151.0175535	-83
12309	0	-0.039245605	-0.234741211	0.315063477	0.999999046	-0.000156403	-0.000132561	-7.24792E-05	-0.981140137	-5.868530273	7.876586914	-0.007820129	-0.006628037	-0.003623962	-0.447509766	0.112792969	-0.918701172	882.34	-36.71282101	5.044336725	151.0064917	-83
12310	0	-0.040593147	-0.234235764	0.314146042	0.999999046	-1.33514E-05	-0.00019455	-0.000287056	-1.014828682	-5.855894089	7.853651047	-0.000667572	-0.009727478	-0.014352799	-0.447509766	0.110595703	-0.921142578	882.24	-36.72050195	5.016460357	150.9723904	-84
12311	0	-0.045166016	-0.238830566	0.315979004	0.999999046	0.000816345	0.000348091	0.000324249	-1.129150391	-5.97076416	7.899475098	0.040817267	0.017404559	0.016212466	-0.447509766	0.110595703	-0.921142578	882.28	-36.63150751	5.080438502	150.9619965	-85
12312	0	-0.037658691	-0.231506348	0.31652832	0.999999046	0.000943184	0.000488281	0.000675201	-0.941467285	-5.787658691	7.913208008	0.047159207	0.024414069	0.03376008	-0.447265625	0.108398438	-0.920898438	882.34	-36.52591627	5.181281125	150.9752082	-85
12313	0	-0.029968262	-0.228271484	0.315246582	0.999999046	0.000713348	-0.000247002	0.000144958	-0.749206543	-5.706787109	7.881164551	0.035667423	-0.012350084	0.007247926	-0.445068359	0.108398438	-0.918457031	882.4	-36.44645965	5.1780545	150.9913946	-87
12314	0	-0.038391113	-0.227416992	0.317810059	0.999999046	0.000102997	-0.000228882	0.000225067	-0.959777832	-5.685424805	7.945251465	0.005149841	-0.011444092	0.011253357	-0.444824219	0.105957031	-0.920898438	882.26	-36.43631961	5.181931223	151.005062	-88
12315	0	-0.041219711	-0.232262611	0.317899704	0.999998093	-0.001269341	-2.09808E-05	0.000164032	-1.030492783	-5.806565285	7.947492599	-0.063467043	-0.001049042	0.008201601	-0.444824219	0.105957031	-0.920898438	882.34	-36.5852346	5.200853465	150.9943292	-88
12316	0	-0.03899765	-0.233521461	0.314706802	0.999999046	-0.000796318	0.000236511	4.19617E-05	-0.974941254	-5.838036537	7.867670059	-0.039815907	0.011825563	0.002098084	-0.445068359	0.112792969	-0.921630859	882.3	-36.68259405	5.235090336	150.9659214	-88
12317	0	-0.041320801	-0.234191895	0.315673828	0.999999046	-9.91821E-05	0.000145912	0.00025177	-1.03302002	-5.854797363	7.891845703	-0.004959107	0.007295609	0.012588501	-0.445068359	0.110595703	-0.921386719	882.4	-36.69777048	5.275369792	150.9593602	-90
12318	0	-0.040431023	-0.230388641	0.319460869	0.999998093	-0.000675201	6.00815E-05	0.000655174	-1.010775566	-5.759716034	7.986521721	-0.033760076	0.003004075	0.032758718	-0.442626953	0.112792969	-0.921630859	882.28	-36.77488291	5.335417111	150.9932959	-89
12319	0	-0.039855957	-0.24822998	0.313049316	0.999998093	-0.000758171	5.72205E-05	0.001663208	-0.996398926	-6.205749512	7.82623291	-0.037908575	0.002861025	0.083160447	-0.445068359	0.114990234	-0.921630859	882.36	-36.85292931	5.464446755	151.1238986	-90
12320	0	-0.038053513	-0.254570007	0.317785263	0.999980927	0.002437592	0.000231743	0.005550385	-0.951337814	-6.364250183	7.944631577	0.121880325	0.011587214	0.277520928	-0.445068359	0.114990234	-0.924316406	882.4	-36.53009488	5.875296663	151.6015125	-92
12321	0	-0.034606934	-0.240905762	0.332824707	0.999945641	-0.004871368	0.002224922	0.008895874	-0.86517334	-6.022644043	8.320617676	-0.243572797	0.111248108	0.444801694	-0.440429688	0.119384766	-0.922363281	882.28	-37.02087087	6.699107922	152.2324201	-79
12322	0	-0.027954102	-0.293212891	0.360290527	0.999803543	-0.014048576	0.006512642	0.01235199	-0.698852539	-7.330322266	9.007263184	-0.702474759	0.325653393	0.61763988	-0.438964844	0.144287109	-0.924560547	882.3	-38.55105428	8.164645922	152.8597188	-76
12323	0	-0.034777641	-0.391738892	0.365889549	0.999630928	-0.010576248	0.009591103	0.023013115	-0.869441032	-9.79347229	9.147238731	-0.528877073	0.479613771	1.150796451	-0.43359375	0.189208984	-0.923583984	882.34	-39.54679143	10.68711391	154.2384111	-85
12324	0	-0.080200195	-0.349975586	0.332641602	0.999399185	-0.00390625	0.012150764	0.032196045	-2.005004883	-8.749389648	8.316040039	-0.195351567	0.607659744	1.610124242	-0.410644531	0.224853516	-0.930908203	882.3	-39.57445413	14.11820109	156.2654936	-79
12325	0	-0.121520996	-0.347106934	0.27746582	0.999109268	-0.012888908	0.012168884	0.038272858	-3.038024902	-8.67767334	6.936645508	-0.644636652	0.608624764	1.914210739	-0.380859375	0.267333984	-0.936523438	882.34	-40.35543633	18.01274053	158.8367422	-76
12326	0	-0.146075249	-0.354202271	0.248347282	0.999007225	-0.008470535	0.008924484	0.042800903	-3.651881218	-8.855056763	6.20868206	-0.423666887	0.446371845	2.140753195	-0.337158203	0.325195313	-0.939208984	882.24	-40.22214732	21.97397689	162.1361643	-75
12327	0	-0.18737793	-0.342041016	0.240478516	0.999024391	-0.001140594	0.001477242	0.044109344	-4.684448242	-8.551025391	6.011962891	-0.057048267	0.073886091	2.206184306	-0.288085938	0.365234375	-0.940917969	882.28	-38.7094478	25.32825179	166.3048265	-88
12328	0	-0.262881279	-0.343203545	0.271471977	0.998984337	0.012675285	-0.009408951	0.042192459	-6.572031975	-8.580088615	6.786799431	0.633978823	-0.470606806	2.110337151	-0.23828125	0.389404297	-0.941162109	882.34	-35.03906793	27.37939306	171.4155617	-71
12329	0	-0.272094727	-0.330688477	0.272888184	0.998690605	0.02960968	-0.015067101	0.038890839	-6.802368164	-8.267211914	6.82220459	1.481130322	-0.753683908	1.945390832	-0.208740234	0.382080078	-0.953369141	882.28	-29.18597652	28.30005901	176.8797035	-73
12330	0	-0.229870796	-0.273491859	0.250294685	0.998553276	0.038351059	-0.016942978	0.033661842	-5.746769905	-6.837296486	6.257367134	1.918478089	-0.84755761	1.683904141	-0.189453125	0.336669922	-0.974853516	882.24	-22.48779892	28.24964428	-178.0232666	-72
12331	0	-0.205993652	-0.214782715	0.233154297	0.998786926	0.035271645	-0.020118713	0.027851105	-5.149841309	-5.369567871	5.828857422	1.764295653	-1.006342601	1.393118568	-0.184570313	0.282226563	-0.9921875	882.34	-16.48326122	27.15918613	-173.5688664	-74
12332	0	-0.15712738	-0.219603539	0.237904549	0.998538971	0.04108429	-0.023186684	0.026343346	-3.928184509	-5.490088463	5.947613716	2.055215344	-1.15989904	1.31780904	-0.194091797	0.228271484	-1.008300781	882.34	-10.04853945	25.28584186	-169.3830795	-75
12333	0	-0.102600098	-0.190734863	0.239685059	0.997738838	0.056930542	-0.022086143	0.028068542	-2.565002441	-4.768371582	5.992126465	2.848674298	-1.105140178	1.40448576	-0.215332031	0.15625	-1.014160156	882.36	-1.985117932	23.12767928	-165.3123964	-69
12334	0	-0.090932846	-0.080552101	0.222774506	0.997347832	0.062929153	-0.020000458	0.030584335	-2.273321152	-2.013802528	5.56936264	3.149241321	-1.000907601	1.530569654	-0.244873047	0.055175781	-1.01953125	882.34	6.583487512	20.72164438	-161.5046359	-74
12335	0	-0.059936523	-0.01385498	0.237976074	0.997626305	0.056194305	-0.01998806	0.034404755	-1.498413086	-0.346374512	5.949401855	2.811940169	-1.000194386	1.721599917	-0.274658203	-0.048095703	-1.016601563	882.2	14.21816701	17.78353453	-157.8251349	-69
12336	0	-0.028634071	0.06146431	0.227017403	0.997573853	0.052894592	-0.019200325	0.040973663	-0.715851784	1.536607742	5.675435066	2.64687005	-0.960793212	2.050341209	-0.312988281	-0.128417969	-0.99609375	882.3	21.3595346	14.2807085	-153.8798229	-71
12337	0	-0.029174805	0.142089844	0.211425781	0.997837067	0.045331001	-0.018451691	0.043865204	-0.729370117	3.552246094	5.285644531	2.268184979	-0.923250015	2.194842242	-0.351806641	-0.1953125	-0.974365234	882.26	27.35221919	10.30841298	-150.0922785	-70
12338	0	-0.003107071	0.204836845	0.206120491	0.998366356	0.034654617	-0.018220901	0.041595459	-0.077676773	5.120921135	5.153012276	1.733674605	-0.911541279	2.080905707	-0.401611328	-0.232666016	-0.946044922	882.28	31.76474239	6.168119484	-146.9478888	-66
12339	0	0.010620117	0.242919922	0.199523926	0.998644829	0.028007507	-0.02137661	0.038284302	0.26550293	6.072998047	4.988098145	1.401007956	-1.069313311	1.915079793	-0.449951172	-0.25	-0.919677734	882.3	35.12522833	1.733552788	-144.6336328	-61
12340	0	0.038771629	0.248250008	0.225635529	0.998259544	0.038619041	-0.025764465	0.036346436	0.969290733	6.206250191	5.640888214	1.932072588	-1.288970812	1.818376354	-0.500976563	-0.262451172	-0.885498047	882.2	39.52755859	-3.11309892	-143.1111455	-61
12341	0	0.074645996	0.305114746	0.214477539	0.998088837	0.04428196	-0.026416779	0.034057617	1.866149902	7.627868652	5.361938477	2.215509551	-1.321681015	1.703966513	-0.553955078	-0.292724609	-0.8359375	882.34	44.51539388	-7.948794934	-142.2323163	-60
12342	0	0.084779739	0.314731598	0.184453964	0.998601913	0.031121254	-0.028180122	0.032089233	2.119493484	7.868289948	4.611349106	1.556787794	-1.409662689	1.605209318	-0.619384766	-0.313964844	-0.78125	882.28	48.04061762	-12.8133569	-142.0185774	-61
12343	0	0.121276855	0.292053223	0.18548584	0.998768806	0.025325775	-0.028990746	0.031284332	3.031921387	7.301330566	4.637145996	1.266808631	-1.450132384	1.564858802	-0.68359375	-0.308105469	-0.728759766	882.22	50.99389832	-17.67311697	-142.2215827	-60
12344	0	0.135059357	0.277420044	0.178853035	0.998911858	0.022292137	-0.029724121	0.028189659	3.376483917	6.935501099	4.471325874	1.115011321	-1.486745362	1.409994422	-0.74609375	-0.293212891	-0.666503906	882.26	53.80937636	-22.28772829	-142.9916671	-61
12345	0	0.168884277	0.254516602	0.201782227	0.998803139	0.026134491	-0.030795097	0.027553558	4.222106934	6.362915039	5.044555664	1.307245741	-1.540369005	1.37822741	-0.803466797	-0.278564453	-0.607177734	882.28	57.31445741	-26.86561515	-144.2226338	-60
12346	0	0.216864586	0.26499939	0.197114944	0.99890995	0.026794434	-0.026975632	0.027049065	5.421614647	6.624984741	4.927873611	1.340208314	-1.349271511	1.352944491	-0.858886719	-0.259033203	-0.54296875	882.4	60.96776926	-31.09123509	-145.4311289	-61
12347	0	0.257995605	0.279052734	0.149230957	0.999217033	0.019065857	-0.021697044	0.027008057	6.449890137	6.976318359	3.730773926	0.953541466	-1.085135149	1.350755018	-0.909423828	-0.233154297	-0.488037109	882.34	63.63984377	-34.96763976	-146.3322998	-60
12348	0	0.284009933	0.280799866	0.121022224	0.999284744	0.011806488	-0.020537376	0.02945137	7.100248337	7.019996643	3.025555611	0.590465045	-1.027113468	1.472919346	-0.950439453	-0.198486328	-0.442382813	882.4	65.49163297	-39.00822672	-147.1682574	-59
12349	0	0.293640137	0.286499023	0.124755859	0.999287605	0.006534576	-0.021105766	0.030590057	7.341003418	7.162475586	3.118896484	0.326806409	-1.055538914	1.529866079	-0.984863281	-0.145751953	-0.401367188	882.3	66.9253935	-43.17447218	-148.2167447	-60
12350	0	0.270053864	0.263977051	0.084352493	0.999409676	0.001548767	-0.021873474	0.026418686	6.751346588	6.59942627	2.108812332	0.077453577	-1.09388869	1.321193952	-1.012451172	-0.088623047	-0.355957031	882.24	68.25484912	-46.9122179	-149.8504878	-60
12351	0	0.271118164	0.213378906	0.032348633	0.999432564	0.006889343	-0.021601677	0.024906158	6.777954102	5.334472656	0.80871582	0.344532324	-1.080288161	1.245543491	-1.037109375	-0.036132813	-0.315673828	882.28	70.52388831	-50.43932371	-151.8247198	-61
12352	0	0.313681602	0.19852066	-0.022360802	0.99934864	0.018349648	-0.022977829	0.020899773	7.842040062	4.96301651	-0.559020042	0.917681509	-1.149140807	1.045215439	-1.056884766	0.009521484	-0.269775391	882.3	74.91997184	-53.49453218	-154.737788	-61
12353	0	0.342468262	0.17199707	-0.029663086	0.9992733	0.021019936	-0.024791718	0.019878387	8.561706543	4.299926758	-0.741577148	1.051251221	-1.239885973	0.994159995	-1.071044922	0.039550781	-0.225585938	882.34	80.58056194	-56.31245413	-158.7117507	-62
12354	0	0.365684509	0.159880638	-0.025709152	0.999196053	0.022575378	-0.028217316	0.017307281	9.142112732	3.997015953	-0.642728806	1.129071161	-1.411243559	0.865595786	-1.085693359	0.073974609	-0.171142578	882.28	87.88629847	-58.6030054	-164.3073656	-63
12355	0	0.373352051	0.152404785	-0.052856445	0.999256134	0.01687336	-0.029148102	0.018749237	9.33380127	3.810119629	-1.321411133	0.843877052	-1.457766248	0.937694164	-1.097900391	0.104003906	-0.110839844	882.24	95.61749522	-60.64396686	-171.0247194	-66
12356	0	0.332159042	0.093521118	-0.047560692	0.999023438	0.019338608	-0.031188011	0.02458477	8.303976059	2.338027954	-1.189017296	0.967245093	-1.559908091	1.229638586	-1.110839844	0.147460938	-0.049316406	882.32	105.3059683	-62.76613188	-179.5051538	-64
12357	0	0.340148926	0.052307129	-0.030517578	0.998651505	0.026230812	-0.032764435	0.030555725	8.503723145	1.307678223	-0.762939453	1.312130467	-1.638958528	1.528473374	-1.114501953	0.206787109	0.018554688	882.4	117.9908486	-64.64256228	169.7089705	-62
12358	0	0.461625099	0.353820801	-0.120306969	0.999390602	-0.020610809	-0.024822235	0.013268471	11.54062748	8.84552002	-3.007674217	-1.030749609	-1.241363632	0.663558176	-1.111572266	0.277099609	0.082275391	882.34	122.3913338	-64.52357519	162.2206488	-61
12359	0	0.226196289	0.195373535	-0.118591309	0.99806881	-0.047729492	-0.037962914	0.011764526	5.654907227	4.884338379	-2.964782715	-2.38801166	-1.899368209	0.588605176	-1.1015625	0.284667969	0.164306641	882.28	125.7846728	-63.19254442	152.345074	-63
12360	0	0.308279037	0.108931541	-0.040121078	0.998825073	-0.008558273	-0.042386055	0.021844864	7.706975937	2.723288536	-1.003026962	-0.42808123	-2.120132634	1.092670899	-1.095214844	0.303710938	0.283203125	882.32	135.050024	-61.9402021	140.8055785	-63
12361	0	0.418579102	0.15411377	-0.095581055	0.998441696	0.02984333	-0.043857574	0.017280579	10.46447754	3.852844238	-2.389526367	1.492941724	-2.194017959	0.864477808	-1.072265625	0.342529297	0.377685547	882.42	146.8147822	-59.27728713	131.2369529	-63
12362	0	0.288025856	0.322213173	-0.333526611	0.996805191	0.04238987	-0.064555168	0.020367622	7.2006464	8.055329323	-8.338165283	2.121753392	-3.231200001	1.019466966	-1.040527344	0.414794922	0.449951172	882.42	159.845354	-53.69126028	121.463743	-62
12363	0	0.336364746	0.194580078	-0.36328125	0.99479866	0.058056831	-0.083229065	0.008739471	8.409118652	4.864501953	-9.08203125	2.907884182	-4.168682234	0.437732652	-0.997558594	0.494140625	0.555664063	882.3	170.4683655	-44.71048196	116.2658205	-63
12364	0	0.159423828	0.086364746	-0.279174805	0.993171692	0.06627655	-0.095973015	0.00239563	3.985595703	2.159118652	-6.979370117	3.321390313	-4.809602194	0.120054859	-0.918701172	0.579589844	0.653076172	882.3	179.1277076	-33.76625047	114.6449302	-66
12365	0	0.02746582	-0.418884277	0.186279297	0.995365143	0.050328255	-0.081825256	0.004291534	0.686645508	-10.47210693	4.656982422	2.520307056	-4.097594328	0.214908793	-0.815429688	0.671386719	0.734619141	882.44	-175.0026389	-24.37262261	114.4790244	-83
12366	0	0.190518379	-0.113341331	-0.6143713	0.998245239	0.044131279	-0.039473534	0.000720978	4.76295948	-2.833533287	-15.35928249	2.207855449	-1.974831872	0.036069989	-0.679199219	0.755615234	0.760742188	882.42	-170.1469129	-19.87990822	115.0250773	-87
12367	0	0.205810547	-0.068908691	-0.502380371	0.995277405	0.05807972	-0.077480316	0.006767273	5.145263672	-1.722717285	-12.55950928	2.908565769	-3.880125406	0.338897271	-0.575439453	0.821777344	0.755859375	882.38	-163.8142204	-11.05152985	116.3244408	-83
12368	0	0.201218605	0.173202515	-0.484435081	0.992721558	0.071239471	-0.095276833	0.018712997	5.030465126	4.330062866	-12.11087704	3.570640085	-4.775432365	0.937926369	-0.512207031	0.947021484	0.732666016	882.24	-155.7823041	-0.055758582	118.0985071	-86
12369	0	0.192016602	-0.122680664	-0.728881836	0.996510506	0.046222687	-0.067233086	0.017593384	4.800415039	-3.067016602	-18.2220459	2.313826148	-3.365569646	0.880693752	-0.360351563	1.048095703	0.670166016	882.4	-150.3654238	7.719745785	119.7960113	-88
12370	0	0.054582596	-0.468557358	-0.676626205	0.996082306	0.042897224	-0.073412895	0.024298668	1.364564896	-11.71393394	-16.91565514	2.147666592	-3.675445779	1.216522467	-0.204101563	1.108398438	0.600097656	882.34	-144.9820478	16.31038241	121.9904069	-90
12371	0	-0.255859375	-0.38494873	-0.377258301	0.997591972	0.051452637	-0.045577049	0.009227753	-6.396484375	-9.623718262	-9.43145752	2.574698617	-2.280683229	0.4617583	-0.078125	1.148925781	0.512451172	882.42	-138.2652197	21.0488767	124.536943	-87
12372	0	-0.40631485	-0.456754684	-0.255303383	0.996072769	0.078877449	-0.037390709	0.014722824	-10.15787125	-11.41886711	-6.382584572	3.949041714	-1.87198586	0.73710607	0.041992188	1.184326172	0.366455078	882.34	-128.3746272	25.20660273	126.6659962	-87
12373	0	-0.337890625	-0.453491211	-0.276489258	0.98675251	0.154071808	-0.043059349	0.026931763	-8.447265625	-11.33728027	-6.912231445	7.737786884	-2.162524546	1.352565684	0.084716797	1.215332031	0.118896484	882.4	-109.1324186	30.28120552	129.881941	-77
12374	0	-0.069259644	-0.097189903	-0.155329704	0.977235794	0.207930565	-0.037752151	0.018611908	-1.731491089	-2.429747581	-3.883242607	10.476137	-1.902061446	0.937721194	0.150390625	1.151611328	-0.33203125	882.34	-82.60587033	32.84294798	134.6666843	-81
12375	0	-0.092773438	0.347290039	0.034545898	0.998540878	0.046666145	-0.022266388	0.015548706	-2.319335938	8.682250977	0.863647461	2.334442465	-1.113861048	0.77781354	0.199462891	0.930908203	-0.738769531	882.34	-75.38181933	34.10948199	138.0512297	-77
12376	0	-0.08600235	0.095263481	-0.125836372	0.983747482	-0.178262711	0.003207207	-0.021254539	-2.150058746	2.381587029	-3.145909309	-8.961736688	0.161234742	-1.068521766	0.175048828	0.967773438	-0.683837891	882.34	-96.286153	31.71132935	137.3731353	-85
12377	0	-0.004333496	-0.467651367	-0.008300781	0.991399765	-0.125987053	0.012260437	-0.033214569	-0.108337402	-11.69128418	-0.207519531	-6.317473378	0.614785271	-1.66550571	0.155273438	1.170166016	-0.258789063	882.34	-111.0433219	27.6758016	136.8286765	-85
12378	0	-0.069641113	-0.262145996	-0.006958008	0.998138428	0.006123543	0.022603035	-0.056312561	-1.741027832	-6.553649902	-0.173950195	0.306367262	1.130853524	-2.817376434	0.118408203	1.204101563	-0.073486328	882.28	-110.4058091	20.71271064	136.671865	-77
12379	0	-0.070123672	-0.208269119	-0.193697929	0.994419098	0.046179771	0.022455215	-0.09214592	-1.753091812	-5.206727982	-4.842448235	2.313292438	1.124853556	-4.615883814	0.047851563	1.199707031	-0.154296875	882.28	-104.8865893	9.846892194	137.4357525	-87
12380	0	-0.086791992	-1.185913086	-0.398193359	0.993660927	0.068490028	0.013278961	-0.08814621	-2.169799805	-29.64782715	-9.954833984	3.431755299	0.665354453	-4.41664618	-0.099609375	1.144042969	-0.270751953	882.3	-96.96929665	-0.381024977	137.8457771	-79
12381	0	0.081973076	-0.513641357	-0.144000053	0.997822762	0.058233261	-0.011165619	0.02884388	2.049326897	-12.84103394	-3.600001335	2.913777059	-0.558686283	1.443241085	-0.331787109	1.057617188	-0.432617188	882.34	-90.26943519	2.990975357	138.9037592	-84
12382	0	-0.071435928	-0.164825439	-0.037135124	0.998282433	0.055356979	-0.015468597	0.011253357	-1.785898209	-4.120635986	-0.928378105	2.769433847	-0.773872739	0.562990032	-0.437255859	1.022216797	-0.521484375	882.36	-83.81217122	4.182132654	140.7303849	-77
12383	0	-0.041320801	-0.305908203	0.083007813	0.998983383	0.03854084	-0.007587433	-0.022109985	-1.03302002	-7.647705078	2.075195313	1.927695171	-0.37950023	-1.105873972	-0.398925781	0.959960938	-0.615722656	882.4	-79.37348417	1.544772613	141.2041014	-79
12384	0	-0.059929848	-0.444721222	0.099838257	0.99814415	0.059196472	-0.006091118	-0.012910843	-1.498246193	-11.11803055	2.495956421	2.961655845	-0.304744424	-0.645941758	-0.416259766	0.885253906	-0.677978516	882.36	-72.58495579	-0.060975096	141.506523	-78
12385	0	0.00958252	-0.29473877	0.192565918	0.998709679	0.050239563	-0.003378868	-0.00655365	0.239562988	-7.368469238	4.814147949	2.513058877	-0.16901609	-0.327823474	-0.463134766	0.785888672	-0.776367188	882.22	-66.82774056	-0.899227697	141.5920939	-73
12386	0	0.018127441	-0.316833496	0.226867676	0.999839783	0.017743111	-0.002181053	0.00056076	0.453186035	-7.920837402	5.671691895	0.887202838	-0.109058473	0.02803952	-0.493164063	0.715820313	-0.830078125	882.3	-64.798375	-0.941715818	141.8288005	-79
12387	0	0.034991264	-0.30454731	0.228815079	0.999891281	-0.013636589	0.002604485	0.004729271	0.874781609	-7.613682747	5.720376968	-0.681853899	0.130228897	0.236472025	-0.509277344	0.704833984	-0.838623047	882.34	-66.35914287	-0.324123589	141.7635547	-76
12388	0	0.015345573	-0.31305027	0.187393188	0.999368668	-0.034351349	0.006711006	0.006093979	0.383639336	-7.826256752	4.684829712	-1.717928965	0.335620936	0.304763078	-0.51171875	0.745605469	-0.809814453	882.28	-70.29567025	0.60847155	141.2897408	-79
12389	0	-0.020507813	-0.361083984	0.123840332	0.999049187	-0.042881012	0.006176949	0.004768372	-0.512695313	-9.027099609	3.096008301	-2.144730012	0.308945296	0.23849413	-0.498291016	0.811279297	-0.762695313	882.28	-75.21844939	1.33873804	140.7589602	-84
12390	0	-0.028928757	-0.399877548	0.066533089	0.999249458	-0.038509369	0.002109528	0.003437042	-0.723218918	-9.996938705	1.663327217	-1.925949891	0.105502753	0.171895082	-0.478271484	0.876953125	-0.699707031	882.32	-79.63609273	1.773302871	140.5926029	-85
12391	0	-0.029663086	-0.399047852	0.048095703	0.999493599	-0.031681061	0.000725746	0.002536774	-0.741577148	-9.976196289	1.202392578	-1.584319982	0.036293423	0.126860059	-0.462646484	0.931396484	-0.6328125	882.28	-83.26864476	2.069764575	140.5381182	-85
12392	0	-0.025173187	-0.404305458	0.024881363	0.999752998	-0.022135735	0.001754761	0.000337601	-0.629329681	-10.10763645	0.622034073	-1.106877723	0.087745251	0.016881423	-0.448242188	0.969970703	-0.583496094	882.34	-85.81341287	2.123311826	140.3264815	-87
12393	0	-0.015269279	-0.400659561	0.003772736	0.999931335	-0.011328697	0.002023697	-0.001878738	-0.381731987	-10.01648903	0.09431839	-0.566447697	0.101187138	-0.093939049	-0.445068359	0.990478516	-0.547851563	882.42	-87.1215949	1.918049272	140.0669706	-88
12394	0	-0.006690979	-0.410497665	0.000308037	0.999994278	-0.002837181	0.000506401	-0.001455307	-0.167274475	-10.26244164	0.00770092	-0.141859301	0.025320097	-0.072765477	-0.440917969	0.999511719	-0.535400391	882.4	-87.45057367	1.749124157	139.9864284	-87
12395	0	-0.008361816	-0.403503418	0.00982666	0.999997139	0.002182007	-0.000300407	0.000854492	-0.20904541	-10.08758545	0.245666504	0.109100443	-0.015020384	0.042724649	-0.438476563	0.999511719	-0.532958984	882.36	-87.2012726	1.840071163	140.010766	-86
12396	0	-0.016661644	-0.397427559	0.016331673	0.999984741	0.005073547	-0.000504494	0.001738548	-0.4165411	-9.935688972	0.408291817	0.253678595	-0.025224808	0.086927834	-0.443115234	0.997314453	-0.540527344	882.2	-86.6196826	2.030731736	140.0645925	-85
12397	0	-0.021850586	-0.386657715	0.024841309	0.999978065	0.006572723	-0.000533104	0.000354767	-0.546264648	-9.666442871	0.621032715	0.328638558	-0.026655391	0.017738471	-0.440185547	0.990478516	-0.55078125	882.28	-85.866388	2.062384254	140.1133831	-85
12398	0	-0.018185616	-0.386838913	0.034281731	0.99998951	0.004514694	-0.000398636	-0.000583649	-0.454640388	-9.670972824	0.857043266	0.225735496	-0.019931863	-0.029182536	-0.437255859	0.983642578	-0.561279297	882.4	-85.34970891	1.987457428	140.1387976	-85
12399	0	-0.01348877	-0.390930176	0.034851074	0.999998093	0.001618385	-0.000164032	-0.000179291	-0.337219238	-9.773254395	0.871276855	0.080919302	-0.008201603	-0.008964543	-0.436767578	0.979003906	-0.571533203	882.34	-85.16575522	1.960696423	140.1407211	-85
12400	0	-0.014619827	-0.389298439	0.03513813	0.999999046	-0.000170708	3.8147E-06	0.000537872	-0.365495682	-9.732460976	0.878453255	-0.008535386	0.000190735	0.026893617	-0.44140625	0.976806641	-0.573730469	882.36	-85.18726081	2.017385938	140.1304324	-85
12401	0	-0.01751709	-0.389648438	0.033691406	0.999998093	-0.00134182	8.01086E-05	0.000347137	-0.437927246	-9.741210938	0.842285156	-0.06709101	0.004005433	0.017356878	-0.439208984	0.979003906	-0.568847656	882.3	-85.34339447	2.052991987	140.1095323	-85
12402	0	-0.017611504	-0.394107819	0.02848053	0.999998093	-0.000801086	0.000118256	4.95911E-05	-0.44028759	-9.852695465	0.712013245	-0.040054326	0.005912781	0.002479553	-0.439453125	0.981201172	-0.566162109	882.28	-85.43795576	2.054904918	140.0814569	-85
12403	0	-0.016967773	-0.394104004	0.027587891	0.999999046	0.000881195	-6.38962E-05	0.000202179	-0.424194336	-9.852600098	0.689697266	0.044059759	-0.003194809	0.010108949	-0.439453125	0.981201172	-0.566162109	882.34	-85.339075	2.072545266	140.0755968	-85
12404	0	-0.01748848	-0.390932083	0.030353546	0.999998093	0.001825333	-0.000393867	9.91821E-05	-0.43721199	-9.773302078	0.758838654	0.091266685	-0.019693386	0.004959109	-0.436767578	0.979003906	-0.571533203	882.34	-85.13075574	2.075283597	140.1064291	-85
12405	0	-0.017089844	-0.388122559	0.036437988	0.999999046	0.00094223	-0.000300407	4.57764E-05	-0.427246094	-9.703063965	0.910949707	0.047111519	-0.015020373	0.002288819	-0.436767578	0.9765625	-0.571533203	882.34	-85.02402535	2.07273787	140.126101	-85
12406	0	-0.016433716	-0.388970375	0.035655022	0.999999046	-0.000658035	-0.000167847	-2.28882E-05	-0.410842896	-9.724259377	0.891375542	-0.032901766	-0.008392335	-0.001144409	-0.436523438	0.9765625	-0.57421875	882.36	-85.10126321	2.063621906	140.1299028	-85
12407	0	-0.015930176	-0.391052246	0.032897949	0.999999046	-0.001026154	-6.77109E-05	-5.72205E-05	-0.398254395	-9.776306152	0.82244873	-0.051307687	-0.003385544	-0.002861023	-0.436767578	0.979003906	-0.571533203	882.4	-85.22117048	2.051517966	140.1219892	-85
12408	0	-0.016186714	-0.392705917	0.030751228	0.999999046	-0.000681877	-0.000154495	2.19345E-05	-0.404667854	-9.817647934	0.768780708	-0.03409386	-0.007724763	0.001096726	-0.439208984	0.979003906	-0.571533203	882.22	-85.3013329	2.047581715	140.1247638	-85
12409	0	-0.016418457	-0.391906738	0.028320313	0.999999046	3.43323E-05	-0.000193596	0.000137329	-0.410461426	-9.797668457	0.708007813	0.001716614	-0.009679794	0.006866455	-0.439453125	0.981201172	-0.568847656	882.26	-85.29934622	2.056428479	140.1331037	-85
12410	0	-0.016662598	-0.391296387	0.031982422	0.999999046	0.000350952	-0.000160217	0.000152588	-0.416564941	-9.782409668	0.799560547	0.017547608	-0.008010864	0.007629395	-0.439208984	0.976806641	-0.571289063	882.28	-85.26125891	2.06730382	140.1377268	-85
12411	0	-0.017204285	-0.391009331	0.03348732	0.999998093	0.000362396	-0.00019455	0.000208855	-0.430107117	-9.775233269	0.837182999	0.018119813	-0.009727478	0.010442734	-0.439208984	0.979003906	-0.566162109	882.26	-85.22172349	2.084258833	140.1468752	-85
12412	0	-0.016895294	-0.390803337	0.033195496	0.999999046	0.000174522	-7.82013E-05	6.67572E-06	-0.422382355	-9.770083427	0.82988739	0.00872612	-0.003910065	0.000333786	-0.439453125	0.981201172	-0.568847656	882.42	-85.20430543	2.079210995	140.1407385	-85
12413	0	-0.016357422	-0.391113281	0.032409668	0.999999046	7.62939E-06	-2.95639E-05	7.62939E-06	-0.408935547	-9.777832031	0.810241699	0.00038147	-0.001478195	0.00038147	-0.439453125	0.981201172	-0.568847656	882.42	-85.2062664	2.074706252	140.1290564	-85
12414	0	-0.015995979	-0.391296387	0.032782555	0.999999046	3.8147E-06	-0.000185013	5.62668E-05	-0.399899483	-9.782409668	0.819563866	0.000190735	-0.009250641	0.002813339	-0.439208984	0.979003906	-0.568847656	882.28	-85.20804973	2.074228152	140.1355934	-85
12415	0	-0.016906738	-0.391357422	0.032592773	0.999999046	4.57764E-05	-0.000239372	6.86646E-05	-0.422668457	-9.783935547	0.814819336	0.002288818	-0.011968613	0.003433228	-0.436767578	0.976806641	-0.568603516	882.34	-85.20484288	2.074623602	140.1484409	-85
12416	0	-0.01731205	-0.390742302	0.031721115	0.999999046	-1.43051E-05	-1.52588E-05	9.53674E-05	-0.432801247	-9.768557549	0.793027878	-0.000715256	-0.000762939	0.004768372	-0.436767578	0.979003906	-0.571533203	882.34	-85.20950228	2.080201365	140.1359286	-85
12417	0	-0.016906738	-0.391601563	0.031311035	0.999999046	-0.000141144	-0.00014019	-3.8147E-05	-0.422668457	-9.790039063	0.782775879	-0.00705719	-0.007009506	-0.001907349	-0.439208984	0.976806641	-0.571289063	882.3	-85.22829592	2.069315709	140.1364402	-85
12418	0	-0.015769958	-0.391428947	0.032241821	0.999999046	-9.15527E-05	-0.00021553	0.000132561	-0.394248962	-9.785723686	0.806045532	-0.004577637	-0.01077652	0.006628037	-0.439208984	0.979003906	-0.568847656	882.36	-85.24108514	2.077166026	140.147193	-85
12419	0	-0.016784668	-0.390991211	0.030822754	0.999999046	-0.000274658	-0.000273705	7.24792E-05	-0.419616699	-9.774780273	0.770568848	-0.013732911	-0.013685227	0.003623962	-0.441894531	0.981201172	-0.568847656	882.42	-85.27470723	2.07758574	140.1640123	-85
12420	0	-0.017496109	-0.391067505	0.030555725	0.999999046	-6.96182E-05	-0.000164032	-5.81741E-05	-0.437402725	-9.776687622	0.763893127	-0.003480911	-0.008201599	-0.002908707	-0.439208984	0.979003906	-0.568847656	882.3	-85.28540424	2.064116176	140.1670202	-85
12421	0	-0.016784668	-0.391174316	0.032958984	0.999999046	0.00012207	-0.000163078	3.8147E-06	-0.419616699	-9.77935791	0.823974609	0.006103516	-0.008153915	0.000190735	-0.439208984	0.979003906	-0.566162109	882.4	-85.27414339	2.057715077	140.1705417	-85
12422	0	-0.016654968	-0.391349792	0.03293705	0.999999046	0	-0.000152588	5.34058E-05	-0.416374207	-9.783744812	0.823426247	0	-0.007629395	0.002670288	-0.437011719	0.981201172	-0.569091797	882.28	-85.27692376	2.057054913	140.1732772	-85
12423	0	-0.017028809	-0.391235352	0.032287598	0.999999046	9.53674E-05	-0.000216484	3.43323E-05	-0.425720215	-9.780883789	0.807189941	0.004768372	-0.010824204	0.001716614	-0.436767578	0.979003906	-0.571533203	882.3	-85.26855787	2.053599092	140.1831393	-85
12424	0	-0.016553879	-0.3909235	0.032795906	0.999999046	6.19888E-05	-0.000205994	0.000141144	-0.41384697	-9.773087502	0.819897652	0.003099442	-0.010299683	0.00705719	-0.439208984	0.979003906	-0.571533203	882.42	-85.2640508	2.062417417	140.1928496	-85
12425	0	-0.017333984	-0.391479492	0.031799316	0.999999046	-0.000110626	-7.9155E-05	-2.67029E-05	-0.433349609	-9.786987305	0.79498291	-0.005531311	-0.003957748	-0.001335144	-0.439208984	0.981201172	-0.571533203	882.42	-85.27994927	2.053258033	140.1864588	-85
12426	0	-0.017735481	-0.392037392	0.031104088	0.999999046	-3.8147E-05	-0.000200272	5.24521E-05	-0.443387032	-9.800934792	0.777602196	-0.001907349	-0.01001358	0.002622604	-0.439208984	0.979003906	-0.571533203	882.3	-85.28707793	2.051996049	140.1946469	-85
12427	0	-0.016540527	-0.390930176	0.032104492	0.999999046	-0.000102997	-0.000185966	0.000110626	-0.413513184	-9.773254395	0.802612305	-0.005149841	-0.009298325	0.005531311	-0.436767578	0.979003906	-0.568847656	882.34	-85.3017126	2.057492471	140.2017482	-85
12428	0	-0.016554832	-0.391178131	0.032212257	0.999999046	-0.000130653	-9.91821E-05	-3.8147E-06	-0.413870811	-9.779453278	0.805306435	-0.006532669	-0.004959106	-0.000190735	-0.437011719	0.979003906	-0.566162109	882.34	-85.31994294	2.050712376	140.197873	-85
12429	0	-0.01739502	-0.391174316	0.03125	0.999999046	-9.15527E-05	-9.82285E-05	0.000133514	-0.434875488	-9.77935791	0.78125	-0.004577637	-0.004911423	0.00667572	-0.436767578	0.979003906	-0.568847656	882.22	-85.33369847	2.059620099	140.1951329	-85
12430	0	-0.017554283	-0.391237259	0.032279968	0.999999046	-7.82013E-05	-8.96454E-05	0.000121117	-0.438857079	-9.780931473	0.806999207	-0.003910065	-0.004482269	0.006055832	-0.436767578	0.979003906	-0.571533203	882.36	-85.34599019	2.067188589	140.1912915	-85
12431	0	-0.016540527	-0.391418457	0.031799316	0.999999046	7.62939E-06	-0.000170708	-0.000106812	-0.413513184	-9.785461426	0.79498291	0.00038147	-0.008535385	-0.005340576	-0.439453125	0.981201172	-0.566162109	882.36	-85.34822267	2.047947998	140.1946632	-85
12432	0	-0.016690254	-0.391788483	0.03144455	0.999999046	-1.04904E-05	-6.67572E-05	9.15527E-05	-0.417256355	-9.794712067	0.786113739	-0.000524521	-0.00333786	0.004577637	-0.439208984	0.979003906	-0.566162109	882.34	-85.35293067	2.052312149	140.1879447	-85
12433	0	-0.017456055	-0.390563965	0.031494141	0.999999046	-0.000202179	-0.000151634	0.000141144	-0.436401367	-9.764099121	0.787353516	-0.010108948	-0.007581711	0.00705719	-0.439208984	0.979003906	-0.566162109	882.22	-85.37927637	2.061550526	140.1913783	-85
12434	0	-0.017497063	-0.391304016	0.029997826	0.999999046	-0.000150681	-6.48499E-05	-2.67029E-05	-0.437426567	-9.782600403	0.749945641	-0.007534027	-0.003242493	-0.001335144	-0.437011719	0.979003906	-0.566162109	882.34	-85.4001932	2.052414828	140.1833223	-85
12435	0	-0.016418457	-0.391540527	0.032348633	0.999999046	0.000141144	-0.000224113	4.19617E-05	-0.410461426	-9.788513184	0.80871582	0.00705719	-0.011205673	0.002098084	-0.437011719	0.979003906	-0.566162109	882.36	-85.3870077	2.049633668	140.1941171	-85
12436	0	-0.017291069	-0.391407967	0.033076286	0.999999046	0.000109673	-0.000169754	-9.53674E-07	-0.432276726	-9.785199165	0.826907158	0.005483627	-0.008487701	-4.76837E-05	-0.436767578	0.979003906	-0.568847656	882.34	-85.37766611	2.042444796	140.1982825	-85
12437	0	-0.016784668	-0.391174316	0.032592773	0.999999046	-0.000102997	-9.82285E-05	0	-0.419616699	-9.77935791	0.814819336	-0.005149841	-0.004911423	0	-0.439453125	0.981201172	-0.568847656	882.3	-85.39299662	2.036011131	140.1943169	-85
12438	0	-0.017389297	-0.39099884	0.03233242	0.999999046	-0.000209808	-0.000177383	0.000152588	-0.434732437	-9.774971008	0.808310509	-0.010490418	-0.008869171	0.007629395	-0.437011719	0.981201172	-0.569091797	882.36	-85.42020807	2.04627765	140.2007668	-85
12439	0	-0.017272949	-0.391174316	0.030639648	0.999999046	1.52588E-05	-0.000144005	6.10352E-05	-0.43182373	-9.77935791	0.765991211	0.000762939	-0.007200241	0.003051758	-0.439208984	0.979003906	-0.568847656	882.28	-85.42183561	2.046388769	140.20259	-85
12440	0	-0.01755619	-0.39086628	0.03230381	0.999999046	6.38962E-05	-0.000169754	4.1008E-05	-0.438904762	-9.77165699	0.807595253	0.003194809	-0.008487701	0.0020504	-0.437011719	0.981201172	-0.56640625	882.34	-85.4178002	2.043977564	140.2071636	-85
12441	0	-0.016418457	-0.391052246	0.030273438	0.999999046	-6.48499E-05	-0.000113487	0.000110626	-0.410461426	-9.776306152	0.756835938	-0.003242493	-0.005674362	0.005531311	-0.439453125	0.981201172	-0.568847656	882.36	-85.42877242	2.050013318	140.2059336	-85
12442	0	-0.017353058	-0.391358376	0.032423019	0.999999046	-5.14984E-05	-0.00012207	6.00815E-05	-0.433826447	-9.783959389	0.810575485	-0.002574921	-0.006103516	0.003004074	-0.436767578	0.979003906	-0.568847656	882.4	-85.43820211	2.050193719	140.2052021	-85
12443	0	-0.016906738	-0.391357422	0.031005859	0.999999046	3.43323E-05	-0.000155449	0	-0.422668457	-9.783935547	0.775146484	0.001716614	-0.007772446	0	-0.439453125	0.981201172	-0.568847656	882.36	-85.43771048	2.043195318	140.2077721	-85
12444	0	-0.017080307	-0.391599655	0.031220436	0.999999046	2.38419E-05	-0.000110626	0.000102043	-0.427007675	-9.789991379	0.780510902	0.001192093	-0.005531311	0.005102158	-0.437011719	0.981201172	-0.569091797	882.42	-85.43859755	2.048254357	140.2061142	-85
12445	0	-0.01763916	-0.390991211	0.032348633	0.999999046	2.28882E-05	-0.000136375	6.48499E-05	-0.440979004	-9.774780273	0.80871582	0.001144409	-0.006818771	0.003242493	-0.437011719	0.983398438	-0.566650391	882.34	-85.43950532	2.048833199	140.2070923	-85
12446	0	-0.017009735	-0.39086628	0.032187462	0.999999046	-0.000179291	-0.000114441	7.24792E-05	-0.425243378	-9.77165699	0.804686546	-0.008964539	-0.005722046	0.003623962	-0.439453125	0.981201172	-0.568847656	882.34	-85.46367533	2.05047429	140.2056146	-85
12447	0	-0.017700195	-0.391723633	0.031494141	0.999999046	-4.57764E-05	-0.000185966	-0.000133514	-0.442504883	-9.79309082	0.787353516	-0.002288818	-0.009298325	-0.00667572	-0.437011719	0.979003906	-0.566162109	882.34	-85.47233876	2.027939339	140.2104421	-85
12448	0	-0.015935898	-0.391242981	0.032196045	0.999999046	6.19888E-05	-0.000209808	8.67844E-05	-0.398397446	-9.781074524	0.804901123	0.003099442	-0.010490418	0.004339218	-0.437011719	0.981201172	-0.569091797	882.34	-85.46848918	2.030327973	140.2199759	-86
12449	0	-0.016662598	-0.390686035	0.032409668	0.999999046	-0.000259399	-2.57492E-05	0.000171661	-0.416564941	-9.767150879	0.810241699	-0.012969971	-0.00128746	0.008583069	-0.437011719	0.981201172	-0.569091797	882.24	-85.50218585	2.044063123	140.2092527	-86
12450	0	-0.017649651	-0.390697479	0.031841278	0.999999046	-0.000162125	-0.000144958	7.15256E-05	-0.441241264	-9.767436981	0.796031952	-0.008106232	-0.007247925	0.003576279	-0.439208984	0.979003906	-0.568847656	882.38	-85.52428814	2.045289532	140.2112677	-86
12451	0	-0.016967773	-0.391052246	0.031494141	0.999999046	-2.67029E-05	-0.000189781	3.8147E-06	-0.424194336	-9.776306152	0.787353516	-0.001335144	-0.00948906	0.000190735	-0.437011719	0.981201172	-0.569091797	882.48	-85.53071989	2.038371758	140.2177736	-86
12452	0	-0.016531944	-0.391237259	0.03086853	0.999999046	6.58035E-05	-8.2016E-05	0.000197411	-0.413298607	-9.780931473	0.771713257	0.003290176	-0.0041008	0.009870529	-0.439453125	0.981201172	-0.566162109	882.4	-85.52694852	2.054518078	140.2137417	-86
12453	0	-0.016357422	-0.390808105	0.031921387	0.999999046	5.34058E-05	-9.05991E-05	9.15527E-05	-0.408935547	-9.770202637	0.798034668	0.002670288	-0.004529953	0.004577637	-0.437011719	0.979003906	-0.566162109	882.4	-85.52459731	2.058474063	140.2096949	-87
12454	0	-0.01679039	-0.39159584	0.032026291	0.999999046	-0.000135422	-0.000137329	0.00012207	-0.41975975	-9.789896011	0.800657272	-0.006771088	-0.006866455	0.006103516	-0.437011719	0.981201172	-0.56640625	882.3	-85.54368185	2.065485862	140.2112732	-87
12455	0	-0.017578125	-0.391723633	0.031188965	0.999999046	-3.8147E-06	-0.000174522	8.7738E-05	-0.439453125	-9.79309082	0.779724121	-0.000190735	-0.00872612	0.004386902	-0.437011719	0.981201172	-0.56640625	882.34	-85.54755525	2.068245332	140.2167978	-87
12456	0	-0.017209053	-0.390806198	0.031130791	0.999999046	0.000136375	-0.000116348	1.04904E-05	-0.430226326	-9.770154953	0.778269768	0.006818771	-0.005817413	0.000524521	-0.437011719	0.981201172	-0.56640625	882.42	-85.5356402	2.062691637	140.214984	-87
12457	0	-0.01739502	-0.391418457	0.030456543	0.999999046	4.57764E-05	-5.62668E-05	2.28882E-05	-0.434875488	-9.785461426	0.761413574	0.002288818	-0.002813339	0.001144409	-0.434570313	0.983398438	-0.569335938	882.3	-85.53437675	2.059088694	140.2063749	-87
12458	0	-0.016616821	-0.39086628	0.02994442	0.999999046	3.24249E-05	-9.91821E-05	3.8147E-05	-0.415420532	-9.77165699	0.748610497	0.001621246	-0.004959106	0.001907349	-0.437011719	0.983398438	-0.566650391	882.34	-85.53449708	2.056830797	140.2028677	-87
12459	0	-0.017456055	-0.391601563	0.029907227	0.999999046	1.90735E-05	-0.000231743	3.05176E-05	-0.436401367	-9.790039063	0.747680664	0.000953674	-0.011587143	0.001525879	-0.439453125	0.981201172	-0.566162109	882.22	-85.53564213	2.052518702	140.21443	-88
12460	0	-0.017039299	-0.391172409	0.029746056	0.999999046	-3.33786E-05	-0.0001297	7.24792E-05	-0.425982475	-9.779310226	0.74365139	-0.00166893	-0.006484985	0.003623962	-0.436767578	0.981201172	-0.571777344	882.36	-85.54323993	2.053903808	140.2146265	-88
12461	0	-0.017089844	-0.391540527	0.030883789	0.999999046	-0.000141144	-2.86102E-06	0.000167847	-0.427246094	-9.788513184	0.772094727	-0.00705719	-0.000143051	0.008392334	-0.437011719	0.981201172	-0.56640625	882.42	-85.56369347	2.067305262	140.2012555	-88
12462	0	-0.017831802	-0.390872955	0.031749725	0.999999046	7.43866E-05	-8.96454E-05	7.53403E-05	-0.445795059	-9.771823883	0.793743134	0.00371933	-0.004482269	0.003767014	-0.437011719	0.981201172	-0.56640625	882.44	-85.5591185	2.069373232	140.1969559	-89
12463	0	-0.017822266	-0.391174316	0.031311035	0.999999046	0.000125885	-0.00020504	-4.19617E-05	-0.445556641	-9.77935791	0.782775879	0.006294251	-0.010251999	-0.002098084	-0.437011719	0.981201172	-0.56640625	882.46	-85.54820906	2.05702101	140.2048001	-90
12464	0	-0.016494751	-0.391655922	0.032941818	0.999999046	0.000100136	-0.000141144	3.33786E-05	-0.412368774	-9.791398048	0.823545456	0.00500679	-0.00705719	0.00166893	-0.437011719	0.981201172	-0.569091797	882.34	-85.54046534	2.053825742	140.2059939	-90
12465	0	-0.016967773	-0.391296387	0.031616211	0.999999046	-0.000240326	-9.44138E-05	0.000156403	-0.424194336	-9.782409668	0.790405273	-0.012016297	-0.004720688	0.00782013	-0.437011719	0.981201172	-0.56640625	882.42	-85.57189025	2.065092742	140.202971	-90
12466	0	-0.017512321	-0.391428947	0.031858444	0.999999046	-6.48499E-05	-2.47955E-05	0.000121117	-0.437808037	-9.785723686	0.796461105	-0.003242493	-0.001239777	0.006055832	-0.437011719	0.981201172	-0.563720703	882.4	-85.5835003	2.072943132	140.1916806	-90
12467	0	-0.017944336	-0.391113281	0.030395508	0.999999046	2.67029E-05	-0.000216484	-6.86646E-05	-0.448608398	-9.777832031	0.759887695	0.001335144	-0.010824204	-0.003433228	-0.437011719	0.981201172	-0.569091797	882.4	-85.58390813	2.057426072	140.2005716	-90
12468	0	-0.01647377	-0.391358376	0.030789375	0.999999046	0.000212669	-9.53674E-05	-3.52859E-05	-0.411844254	-9.783959389	0.769734383	0.010633469	-0.004768372	-0.001764298	-0.434570313	0.981201172	-0.566650391	882.36	-85.5635046	2.046774382	140.1959413	-90
12469	0	-0.016784668	-0.391174316	0.031494141	0.999999046	-0.000110626	1.23978E-05	3.8147E-06	-0.419616699	-9.77935791	0.787353516	-0.005531311	0.000619888	0.000190735	-0.437011719	0.981201172	-0.569091797	882.4	-85.58057584	2.041533574	140.1793369	-90
12470	0	-0.017337799	-0.391548157	0.031894684	0.999999046	-4.3869E-05	-6.48499E-05	-8.58307E-06	-0.433444977	-9.788703918	0.797367096	-0.002193451	-0.003242493	-0.000429153	-0.437011719	0.981201172	-0.569091797	882.42	-85.58967747	2.034192094	140.1714571	-91
12471	0	-0.017272949	-0.391540527	0.032287598	0.999999046	3.8147E-06	-0.000109673	7.62939E-06	-0.43182373	-9.788513184	0.807189941	0.000190735	-0.005483627	0.00038147	-0.437011719	0.979003906	-0.563476563	882.4	-85.59311071	2.028307845	140.1688825	-91
12472	0	-0.017150879	-0.391052246	0.031012535	0.999999046	2.00272E-05	-0.000165939	0.000117302	-0.428771973	-9.776306152	0.775313377	0.001001358	-0.008296967	0.005865097	-0.439208984	0.981201172	-0.571533203	882.38	-85.59442982	2.034457728	140.1736391	-91
12473	0	-0.017028809	-0.391113281	0.031860352	0.999999046	-3.05176E-05	-0.000224113	0.000141144	-0.425720215	-9.777832031	0.796508789	-0.001525879	-0.011205673	0.00705719	-0.437011719	0.981201172	-0.56640625	882.4	-85.60128575	2.042816312	140.1853061	-91
12474	0	-0.016515732	-0.391172409	0.030866623	0.999999046	3.05176E-05	-4.00543E-05	5.62668E-05	-0.412893295	-9.779310226	0.771665573	0.001525879	-0.002002716	0.002813339	-0.437011719	0.981201172	-0.569091797	882.4	-85.60193136	2.043081201	140.1751527	-91
12475	0	-0.017089844	-0.391235352	0.031433105	0.999999046	0.000148773	-0.000178337	0.000106812	-0.427246094	-9.780883789	0.785827637	0.00743866	-0.008916855	0.005340576	-0.437011719	0.981201172	-0.56640625	882.42	-85.58844353	2.047901653	140.1812864	-91
12476	0	-0.016735077	-0.391222954	0.031188965	0.999999046	5.24521E-05	-0.000204086	3.05176E-05	-0.418376923	-9.780573845	0.779724121	0.002622604	-0.010204315	0.001525879	-0.434570313	0.981201172	-0.566650391	882.4	-85.58591528	2.043766621	140.1896561	-91
12477	0	-0.016662598	-0.390991211	0.031799316	0.999999046	-7.24792E-05	-0.000105858	6.86646E-05	-0.416564941	-9.774780273	0.79498291	-0.003623962	-0.005292892	0.003433228	-0.439453125	0.983398438	-0.56640625	882.42	-85.59808385	2.044844597	140.1871825	-91
12478	0	-0.017076492	-0.391177177	0.0313797	0.999999046	-2.67029E-05	-9.34601E-05	0.000216484	-0.426912308	-9.779429436	0.784492493	-0.001335144	-0.004673004	0.010824204	-0.434570313	0.981201172	-0.566650391	882.3	-85.60501038	2.062916549	140.1845298	-91
12479	0	-0.017333984	-0.390625	0.031005859	0.999999046	0.000148773	-3.71933E-05	2.28882E-05	-0.433349609	-9.765625	0.775146484	0.00743866	-0.001859665	0.001144409	-0.434570313	0.981201172	-0.566650391	882.3	-85.59212629	2.05936399	140.1737712	-91
12480	0	-0.016007423	-0.392019272	0.031977654	0.999999046	9.05991E-05	-0.000167847	3.05176E-05	-0.400185585	-9.800481796	0.799441338	0.004529953	-0.008392334	0.001525879	-0.434570313	0.981201172	-0.566650391	882.36	-85.58535888	2.055507709	140.1780168	-91
12481	0	-0.017272949	-0.39074707	0.031494141	0.999999046	-0.000255585	-0.000185966	9.15527E-05	-0.43182373	-9.768676758	0.787353516	-0.012779236	-0.009298325	0.004577637	-0.437011719	0.981201172	-0.569091797	882.3	-85.61816499	2.058466047	140.1848686	-91
12482	0	-0.018249512	-0.391247749	0.029652596	0.999999046	-0.000246048	-0.000141144	4.19617E-05	-0.456237793	-9.781193733	0.741314888	-0.012302399	-0.00705719	0.002098084	-0.437011719	0.979003906	-0.566162109	882.42	-85.65010615	2.056169901	140.1861777	-91
12483	0	-0.017089844	-0.391662598	0.031311035	0.999999046	6.86646E-05	-0.000208855	6.86646E-05	-0.427246094	-9.791564941	0.782775879	0.003433228	-0.010442734	0.003433228	-0.434570313	0.979003906	-0.56640625	882.4	-85.64569115	2.056331378	140.1954334	-92
12484	0	-0.016521454	-0.390924454	0.029540062	0.999999046	0.00017643	-0.000123978	0.000159264	-0.413036346	-9.773111343	0.738501549	0.008821488	-0.006198883	0.007963181	-0.437011719	0.979003906	-0.566162109	882.34	-85.62927314	2.067567971	140.1958076	-91
12485	0	-0.017028809	-0.390991211	0.032775879	0.999999046	-6.86646E-05	-0.000124931	4.19617E-05	-0.425720215	-9.774780273	0.819396973	-0.003433228	-0.006246567	0.002098084	-0.437011719	0.979003906	-0.563476563	882.28	-85.64094164	2.065386781	140.1952693	-92
12486	0	-0.016688347	-0.391056061	0.03181076	0.999999046	-0.000148773	-0.000139236	9.15527E-05	-0.417208672	-9.77640152	0.795269012	-0.00743866	-0.006961823	0.004577637	-0.437011719	0.981201172	-0.56640625	882.34	-85.66170025	2.068734805	140.1967656	-92
12487	0	-0.017578125	-0.391296387	0.031433105	0.999999046	-8.7738E-05	-0.000109673	0.000114441	-0.439453125	-9.782409668	0.785827637	-0.004386902	-0.005483627	0.005722046	-0.437011719	0.981201172	-0.56640625	882.28	-85.67556957	2.074958016	140.195097	-91
12488	0	-0.0178442	-0.391359329	0.031673431	0.999999046	0.000113487	-6.29425E-05	-2.00272E-05	-0.446105003	-9.783983231	0.791835785	0.005674362	-0.003147125	-0.001001358	-0.439453125	0.981201172	-0.568847656	882.42	-85.66659944	2.066228172	140.1869261	-91
12489	0	-0.016418457	-0.391296387	0.031860352	0.999999046	7.24792E-05	-8.67844E-05	4.95911E-05	-0.410461426	-9.782409668	0.796508789	0.003623962	-0.004339218	0.002479553	-0.434570313	0.979003906	-0.56640625	882.42	-85.66218995	2.065229888	140.182068	-91
12490	0	-0.01669693	-0.390924454	0.030210495	0.999999046	8.96454E-05	-8.2016E-05	-6.58035E-05	-0.417423248	-9.773111343	0.755262375	0.004482269	-0.0041008	-0.003290176	-0.439453125	0.981201172	-0.566162109	882.34	-85.65588152	2.051076316	140.1757106	-91
12491	0	-0.017272949	-0.391052246	0.031738281	0.999999046	9.15527E-05	-0.000208855	6.48499E-05	-0.43182373	-9.776306152	0.793457031	0.004577637	-0.010442734	0.003242493	-0.437011719	0.981201172	-0.56640625	882.46	-85.64877913	2.050750932	140.1849428	-90
12492	0	-0.016944885	-0.390983582	0.031450272	0.999999046	4.29153E-05	-0.000156403	0.00019455	-0.423622131	-9.774589539	0.78625679	0.002145767	-0.007820129	0.009727478	-0.434570313	0.981201172	-0.569335938	882.34	-85.64741499	2.06569506	140.1892875	-90
12493	0	-0.017333984	-0.390563965	0.030395508	0.999999046	-0.000125885	-0.000231743	0.000171661	-0.433349609	-9.764099121	0.759887695	-0.006294251	-0.011587143	0.008583069	-0.437011719	0.981201172	-0.56640625	882.4	-85.66509929	2.077370844	140.2021094	-91
12494	0	-0.017333984	-0.391052246	0.030700684	0.999999046	-8.7738E-05	-9.15527E-05	7.62939E-05	-0.433349609	-9.776306152	0.76751709	-0.004386902	-0.004577637	0.003814697	-0.434570313	0.981201172	-0.569335938	882.42	-85.6790253	2.079363634	140.1980118	-90
12495	0	-0.016651154	-0.392157555	0.031245232	0.999998093	9.25064E-05	-0.0001688	-3.91006E-05	-0.416278839	-9.803938866	0.781130791	0.00462532	-0.008440018	-0.001955032	-0.437011719	0.981201172	-0.56640625	882.32	-85.67200608	2.067487992	140.2018137	-90
12496	0	-0.016856194	-0.391114235	0.032211304	0.999999046	5.43594E-05	-0.000177383	0.000113487	-0.421404839	-9.777855873	0.805282593	0.002717972	-0.008869171	0.005674362	-0.437011719	0.981201172	-0.56640625	882.3	-85.66924953	2.072964182	140.2078911	-90
12497	0	-0.01739502	-0.390869141	0.029541016	0.999999046	-0.000213623	-0.000136375	8.7738E-05	-0.434875488	-9.771728516	0.738525391	-0.010681152	-0.006818771	0.004386902	-0.437011719	0.981201172	-0.56640625	882.48	-85.69740352	2.075853823	140.2090488	-90
12498	0	-0.017089844	-0.391245842	0.0303545	0.999999046	-4.00543E-05	-0.000101089	1.04904E-05	-0.427246094	-9.781146049	0.758862495	-0.002002716	-0.005054474	0.000524521	-0.437011719	0.981201172	-0.569091797	882.46	-85.70584423	2.070214313	140.2054915	-89
12499	0	-0.016662598	-0.391662598	0.030700684	0.999999046	0.000141144	-0.000231743	1.90735E-05	-0.416564941	-9.791564941	0.76751709	0.00705719	-0.011587143	0.000953674	-0.437011719	0.981201172	-0.563720703	882.4	-85.69297809	2.06442004	140.2169987	-89
12500	0	-0.017028809	-0.390991211	0.030639648	0.999999046	-1.81198E-05	-0.000118256	0.000125885	-0.425720215	-9.774780273	0.765991211	-0.000905991	-0.005912781	0.006294251	-0.437011719	0.981201172	-0.569091797	882.36	-85.69879785	2.071801363	140.2163834	-89
12501	0	-0.01693821	-0.390968323	0.030742645	0.999998093	0.000150681	-0.000105858	5.72205E-06	-0.423455238	-9.774208069	0.768566132	0.007534027	-0.005292892	0.000286102	-0.437011719	0.981201172	-0.56640625	882.3	-85.68536142	2.065551555	140.2133638	-89
12502	0	-0.017181396	-0.390908241	0.030869484	0.999999046	-2.67029E-05	-0.000133514	0.000179291	-0.429534912	-9.772706032	0.771737099	-0.001335144	-0.00667572	0.008964539	-0.437011719	0.983398438	-0.566650391	882.4	-85.69208103	2.078895199	140.2149885	-89
12503	0	-0.017211914	-0.390380859	0.030090332	0.999999046	-4.19617E-05	-0.000128746	5.34058E-05	-0.430297852	-9.759521484	0.752258301	-0.002098084	-0.006437302	0.002670288	-0.437011719	0.981201172	-0.56640625	882.34	-85.70061862	2.077892845	140.2149797	-89
12504	0	-0.017185211	-0.390748024	0.031404495	0.999999046	-7.34329E-05	-0.000217438	1.81198E-05	-0.42963028	-9.7687006	0.785112381	-0.003671646	-0.010871887	0.000905991	-0.434570313	0.981201172	-0.569335938	882.3	-85.71239123	2.072094219	140.2247748	-89
12505	0	-0.017089844	-0.391418457	0.032043457	0.999999046	3.05176E-05	-9.44138E-05	-3.8147E-05	-0.427246094	-9.785461426	0.801086426	0.001525879	-0.004720688	-0.001907349	-0.437011719	0.981201172	-0.56640625	882.42	-85.71275091	2.060916406	140.2200927	-89
12506	0	-0.017481804	-0.390808105	0.03030014	0.999999046	0.000190735	-0.000156403	-4.76837E-06	-0.437045097	-9.770202637	0.75750351	0.009536743	-0.007820129	-0.000238419	-0.437011719	0.981201172	-0.56640625	882.34	-85.69449074	2.053026104	140.2227553	-89
12507	0	-0.016845703	-0.391479492	0.03125	0.999999046	0.000106812	-0.000185966	4.19617E-05	-0.421142578	-9.786987305	0.78125	0.005340576	-0.009298325	0.002098084	-0.437011719	0.979003906	-0.566162109	882.34	-85.68570266	2.050213596	140.2291958	-90
12508	0	-0.017539024	-0.390983582	0.031522751	0.999999046	-0.000124931	-0.000221252	5.72205E-05	-0.438475609	-9.774589539	0.788068771	-0.006246567	-0.011062622	0.002861023	-0.434570313	0.981201172	-0.569335938	882.4	-85.70330712	2.048848419	140.239766	-89
12509	0	-0.01751709	-0.39074707	0.030578613	0.999999046	-0.000167847	-7.15256E-05	1.14441E-05	-0.437927246	-9.768676758	0.764465332	-0.008392334	-0.003576279	0.000572205	-0.437011719	0.979003906	-0.563476563	882.34	-85.7264564	2.043545006	140.2329097	-89
12510	0	-0.016545296	-0.392466545	0.0311203	0.999999046	-1.71661E-05	-9.34601E-05	1.43051E-05	-0.413632393	-9.811663628	0.778007507	-0.000858307	-0.004673004	0.000715256	-0.437011719	0.981201172	-0.56640625	882.42	-85.732239	2.038367865	140.2285285	-89
12511	0	-0.016967773	-0.390441895	0.032104492	0.999999046	-1.52588E-05	-0.00014019	0.000240326	-0.424194336	-9.761047363	0.802612305	-0.000762939	-0.007009506	0.012016297	-0.439453125	0.981201172	-0.563476563	882.4	-85.73751258	2.058618784	140.2314718	-89
12512	0	-0.018490791	-0.391044617	0.030143738	0.999999046	-0.000149727	-5.34058E-05	2.28882E-05	-0.462269783	-9.776115417	0.753593445	-0.007486343	-0.002670288	0.001144409	-0.437011719	0.983398438	-0.569335938	882.48	-85.75862356	2.0547834	140.2225525	-89
12513	0	-0.017028809	-0.391235352	0.030700684	0.999999046	-1.52588E-05	-9.82285E-05	-0.000106812	-0.425720215	-9.780883789	0.76751709	-0.000762939	-0.004911423	-0.005340576	-0.439453125	0.981201172	-0.566162109	882.34	-85.7641737	2.035741203	140.2177415	-89
12514	0	-0.017211914	-0.391479492	0.031494141	0.999999046	6.10352E-05	-0.00030899	3.43323E-05	-0.430297852	-9.786987305	0.787353516	0.003051758	-0.015449524	0.001716614	-0.436767578	0.981201172	-0.571777344	882.3	-85.76006012	2.031045774	140.2381473	-89
12515	0	-0.017161369	-0.390933037	0.032389641	0.999998093	-5.62668E-05	-0.000198364	5.24521E-05	-0.429034233	-9.77332592	0.80974102	-0.002813339	-0.009918213	0.002622604	-0.436767578	0.979003906	-0.568847656	882.4	-85.76979284	2.029360127	140.2461253	-90
12516	0	-0.016915321	-0.390993118	0.03156662	0.999999046	4.76837E-06	-0.000120163	1.43051E-05	-0.422883034	-9.774827957	0.789165497	0.000238419	-0.006008148	0.000715256	-0.437011719	0.979003906	-0.566162109	882.3	-85.77283569	2.023974392	140.2448499	-89
12517	0	-0.017211914	-0.391113281	0.032043457	0.999999046	0.000110626	-0.000163078	0.000110626	-0.430297852	-9.777832031	0.801086426	0.005531311	-0.008153915	0.005531311	-0.437011719	0.983398438	-0.569335938	882.42	-85.76351324	2.029237204	140.249266	-89
12518	0	-0.017776489	-0.391652107	0.031829834	0.999999046	3.24249E-05	-8.7738E-05	4.95911E-05	-0.444412231	-9.791302681	0.79574585	0.001621246	-0.004386902	0.002479553	-0.437011719	0.981201172	-0.563720703	882.34	-85.76344921	2.028175907	140.2446021	-89
12519	0	-0.016906738	-0.391296387	0.032775879	0.999999046	8.7738E-05	-0.000132561	5.72205E-05	-0.422668457	-9.782409668	0.819396973	0.004386902	-0.006628037	0.002861023	-0.434570313	0.979003906	-0.56640625	882.36	-85.75681947	2.027604301	140.2450667	-89
12520	0	-0.017004013	-0.390922546	0.033092499	0.999999046	0.000121117	-7.82013E-05	-5.43594E-05	-0.425100327	-9.77306366	0.827312469	0.006055832	-0.003910065	-0.002717972	-0.437011719	0.983398438	-0.569335938	882.3	-85.74656921	2.014742731	140.2384011	-89
12521	0	-0.01739502	-0.391235352	0.030456543	0.999999046	0.000202179	-0.000113487	3.8147E-06	-0.434875488	-9.780883789	0.761413574	0.010108948	-0.005674362	0.000190735	-0.437011719	0.983398438	-0.569335938	882.36	-85.72687334	2.008238602	140.2362654	-90
12522	0	-0.017390251	-0.390122414	0.031716347	0.999998093	-1.43051E-05	-0.000167847	9.15527E-05	-0.434756279	-9.753060341	0.792908669	-0.000715256	-0.008392334	0.004577637	-0.434326172	0.979003906	-0.569091797	882.4	-85.73172097	2.011306545	140.2410737	-90
12523	0	-0.017333984	-0.391052246	0.03112793	0.999999046	-0.000106812	-0.000113487	8.39233E-05	-0.433349609	-9.776306152	0.778198242	-0.005340576	-0.005674362	0.004196167	-0.437011719	0.981201172	-0.56640625	882.4	-85.74738192	2.013973655	140.2396564	-90
12524	0	-0.017942429	-0.391666412	0.031108856	0.999999046	0.000124931	-0.000173569	1.81198E-05	-0.448560715	-9.791660309	0.777721405	0.006246567	-0.008678436	0.000905991	-0.434570313	0.981201172	-0.569335938	882.34	-85.73625733	2.008627495	140.2444835	-89
12525	0	-0.018310547	-0.390625	0.031066895	0.999999046	8.7738E-05	-0.00014782	0.000110626	-0.457763672	-9.765625	0.776672363	0.004386902	-0.007390976	0.005531311	-0.439453125	0.981201172	-0.568847656	882.3	-85.72946307	2.014097063	140.2472219	-90
12526	0	-0.016617775	-0.391592979	0.032299995	0.999999046	9.34601E-05	-9.34601E-05	-4.673E-05	-0.415444374	-9.789824486	0.807499886	0.004673004	-0.004673004	-0.002336502	-0.437011719	0.979003906	-0.563476563	882.4	-85.72225033	2.002041512	140.2423898	-90
12527	0	-0.016723633	-0.391296387	0.031982422	0.999999046	-4.19617E-05	-0.000151634	0.000144958	-0.41809082	-9.782409668	0.799560547	-0.002098084	-0.007581711	0.007247925	-0.439453125	0.981201172	-0.566162109	882.36	-85.73024446	2.011390293	140.2458302	-89
12528	0	-0.018110275	-0.390745163	0.030245781	0.999999046	-0.000107765	-0.000213623	0.000156403	-0.452756882	-9.768629074	0.756144524	-0.00538826	-0.010681152	0.00782013	-0.436767578	0.979003906	-0.568847656	882.42	-85.74553527	2.021540742	140.256414	-89
12529	0	-0.018005371	-0.391601563	0.030883789	0.999999046	-3.05176E-05	-0.000193596	-3.05176E-05	-0.450134277	-9.790039063	0.772094727	-0.001525879	-0.009679794	-0.001525879	-0.437011719	0.981201172	-0.56640625	882.32	-85.75210734	2.010519848	140.263171	-89
12530	0	-0.016749382	-0.391666412	0.030560493	0.999999046	0.000123978	-0.000114441	-2.00272E-05	-0.41873455	-9.791660309	0.764012337	0.006198883	-0.005722046	-0.001001358	-0.439208984	0.979003906	-0.568847656	882.28	-85.74129276	2.001365114	140.26095	-90
12531	0	-0.017211914	-0.390930176	0.031677246	0.999999046	0.000152588	-6.67572E-06	4.19617E-05	-0.430297852	-9.773254395	0.791931152	0.007629395	-0.000333786	0.002098084	-0.437011719	0.981201172	-0.563720703	882.4	-85.7275938	2.000218759	140.2469605	-89
12532	0	-0.016878128	-0.391285896	0.031308174	0.999999046	0.000121117	-0.000106812	0.00018692	-0.421953201	-9.782147408	0.782704353	0.006055832	-0.005340576	0.009346008	-0.437011719	0.981201172	-0.563720703	882.4	-85.71705022	2.014783406	140.2456415	-89
12533	0	-0.017883301	-0.391174316	0.03112793	0.999999046	1.52588E-05	-9.05991E-05	0.000133514	-0.44708252	-9.77935791	0.778198242	0.000762939	-0.004529953	0.00667572	-0.434570313	0.981201172	-0.569335938	882.32	-85.71871497	2.023399999	140.2419555	-89
12534	0	-0.018104553	-0.390741348	0.032485008	0.999999046	2.47955E-05	-0.000150681	5.24521E-05	-0.452613831	-9.768533707	0.812125206	0.001239777	-0.007534027	0.002622604	-0.437011719	0.981201172	-0.569091797	882.36	-85.71903918	2.022258485	140.2445146	-89
12535	0	-0.017700195	-0.391113281	0.031188965	0.999999046	-1.14441E-05	-0.000159264	2.28882E-05	-0.442504883	-9.777832031	0.779724121	-0.000572205	-0.007963181	0.001144409	-0.437011719	0.981201172	-0.56640625	882.4	-85.72348552	2.017676276	140.2478078	-89
12536	0	-0.017098427	-0.390931129	0.032039642	1	-3.62396E-05	-6.19888E-05	7.62939E-06	-0.42746067	-9.773278236	0.800991058	-0.001811981	-0.003099442	0.00038147	-0.437011719	0.981201172	-0.569091797	882.3	-85.73114778	2.012181512	140.2398155	-89
12537	0	-0.017028809	-0.390869141	0.029907227	0.999999046	-6.10352E-05	-9.44138E-05	3.43323E-05	-0.425720215	-9.771728516	0.747680664	-0.003051758	-0.004720688	0.001716614	-0.434570313	0.981201172	-0.566650391	882.4	-85.7415307	2.009460692	140.2357729	-89
12538	0	-0.017049789	-0.391117096	0.03242588	0.999999046	0.000118256	-0.000165939	0.000132561	-0.426244736	-9.777927399	0.810647011	0.005912781	-0.008296967	0.006628037	-0.437011719	0.981201172	-0.569091797	882.4	-85.73102108	2.01735583	140.2407536	-89
12539	0	-0.016723633	-0.390441895	0.030761719	0.999999046	5.72205E-05	-0.00014782	-2.67029E-05	-0.41809082	-9.761047363	0.769042969	0.002861023	-0.007390976	-0.001335144	-0.437011719	0.981201172	-0.569091797	882.46	-85.72762724	2.007199002	140.2423005	-88
12540	0	-0.017548561	-0.390623093	0.032154083	0.999999046	-0.000144005	-0.00015831	6.86646E-05	-0.438714027	-9.765577316	0.803852081	-0.007200241	-0.007915497	0.003433228	-0.437011719	0.981201172	-0.56640625	882.4	-85.74719747	2.007861394	140.2458828	-88
12541	0	-0.01763916	-0.391418457	0.031860352	0.999999046	4.57764E-05	8.58307E-06	-2.67029E-05	-0.440979004	-9.785461426	0.796508789	0.002288818	0.000429153	-0.001335144	-0.437011719	0.981201172	-0.569091797	882.3	-85.74569692	1.99905601	140.2295364	-89
12542	0	-0.015869141	-0.391052246	0.032287598	0.999999046	2.28882E-05	-2.67029E-05	-4.57764E-05	-0.396728516	-9.776306152	0.807189941	0.001144409	-0.001335144	-0.002288818	-0.434570313	0.981201172	-0.566650391	882.4	-85.74665493	1.987751093	140.2170818	-88
12543	0	-0.016967773	-0.391601563	0.031677246	0.999999046	0	-0.000212669	0.000160217	-0.424194336	-9.790039063	0.791931152	0	-0.010633469	0.008010864	-0.437011719	0.981201172	-0.56640625	882.4	-85.74942019	1.998407401	140.2276696	-89
12544	0	-0.017690659	-0.390559196	0.031195641	0.999999046	-0.000145912	-0.0001297	7.62939E-05	-0.442266464	-9.763979912	0.779891014	-0.007295609	-0.006484985	0.003814697	-0.439453125	0.981201172	-0.568847656	882.34	-85.76925248	2.000192142	140.2280349	-88
12545	0	-0.017272949	-0.391235352	0.031433105	0.999999046	-7.24792E-05	-0.000117302	3.8147E-06	-0.43182373	-9.780883789	0.785827637	-0.003623962	-0.005865097	0.000190735	-0.437011719	0.983398438	-0.569335938	882.22	-85.78072714	1.993804085	140.226346	-89
12546	0	-0.016780853	-0.391484261	0.029975891	0.999999046	3.43323E-05	-0.000154495	6.00815E-05	-0.419521332	-9.787106514	0.749397278	0.001716614	-0.007724762	0.003004074	-0.434570313	0.981201172	-0.569335938	882.36	-85.77981017	1.993529347	140.2293825	-89
12547	0	-0.017333984	-0.391174316	0.031799316	0.999999046	3.8147E-05	-0.000105858	0.000114441	-0.433349609	-9.77935791	0.79498291	0.001907349	-0.005292892	0.005722046	-0.437011719	0.981201172	-0.56640625	882.34	-85.77861189	1.999884625	140.227399	-89
12548	0	-0.017294884	-0.390985489	0.032198906	0.999999046	1.43051E-05	-0.000171661	0.000164032	-0.432372093	-9.774637222	0.804972649	0.000715256	-0.008583069	0.008201599	-0.436767578	0.979003906	-0.568847656	882.4	-85.77983882	2.011357936	140.2332858	-88
12549	0	-0.01763916	-0.391418457	0.032287598	0.999999046	-6.10352E-05	-0.000163078	0.00012207	-0.440979004	-9.785461426	0.807189941	-0.003051758	-0.008153915	0.006103516	-0.437011719	0.981201172	-0.569091797	882.36	-85.78971504	2.018119002	140.2378624	-89
12550	0	-0.018396378	-0.391296387	0.031757355	0.999999046	-4.3869E-05	-0.000152588	2.86102E-06	-0.459909439	-9.782409668	0.793933868	-0.002193451	-0.007629395	0.000143051	-0.434570313	0.983398438	-0.569335938	882.28	-85.79768049	2.011368839	140.2402096	-89
12551	0	-0.017578125	-0.391479492	0.030883789	0.999999046	-5.72205E-05	-0.000166893	6.86646E-05	-0.439453125	-9.786987305	0.772094727	-0.002861023	-0.00834465	0.003433228	-0.437011719	0.983398438	-0.569335938	882.34	-85.80709403	2.012028124	140.2447992	-88
12552	0	-0.017621994	-0.391359329	0.031638145	0.999999046	2.57492E-05	-7.62939E-05	-5.05447E-05	-0.44054985	-9.783983231	0.790953636	0.00128746	-0.003814697	-0.002527237	-0.437011719	0.981201172	-0.56640625	882.26	-85.80737772	1.999832539	140.2380446	-89
12553	0	-0.017333984	-0.391113281	0.03137207	0.999999046	0.000148773	-0.000102043	8.39233E-05	-0.433349609	-9.777832031	0.784301758	0.00743866	-0.005102158	0.004196167	-0.436767578	0.981201172	-0.571777344	882.36	-85.79340601	2.002794929	140.2352673	-89
12554	0	-0.01653862	-0.390857697	0.03161335	0.999999046	-7.05719E-05	-0.000160217	6.86646E-05	-0.4134655	-9.771442413	0.790333748	-0.003528595	-0.008010864	0.003433228	-0.434570313	0.981201172	-0.569335938	882.34	-85.8043232	2.003515821	140.2390684	-88
12555	0	-0.016967773	-0.391601563	0.031433105	0.999999046	-2.28882E-05	-6.00815E-05	0.000118256	-0.424194336	-9.790039063	0.785827637	-0.001144409	-0.003004074	0.005912781	-0.434326172	0.979003906	-0.569091797	882.42	-85.81014765	2.010741898	140.2318427	-90
12556	0	-0.017361641	-0.390745163	0.031599998	0.999999046	-8.10623E-05	-0.000278473	7.53403E-05	-0.434041023	-9.768629074	0.789999962	-0.004053116	-0.013923645	0.003767014	-0.437011719	0.981201172	-0.563720703	882.36	-85.82175508	2.011241505	140.2493553	-89
12557	0	-0.017883301	-0.391418457	0.031677246	0.999999046	-2.67029E-05	-0.000220299	-0.000106812	-0.44708252	-9.785461426	0.791931152	-0.001335144	-0.011014938	-0.005340576	-0.437011719	0.981201172	-0.563720703	882.48	-85.82739932	1.991424953	140.2585901	-88
12558	0	-0.016809464	-0.391729355	0.031846046	0.999999046	7.24792E-05	-2.67029E-05	3.71933E-05	-0.420236588	-9.793233871	0.796151161	0.003623962	-0.001335144	0.001859665	-0.434326172	0.979003906	-0.569091797	882.24	-85.82238253	1.989677662	140.2467442	-89
12559	0	-0.017272949	-0.390991211	0.031860352	0.999999046	4.95911E-05	-0.000105858	0.000286102	-0.43182373	-9.774780273	0.796508789	0.002479553	-0.005292893	0.014305115	-0.437011719	0.981201172	-0.569091797	882.34	-85.81957782	2.015723643	140.2462011	-89
12560	0	-0.018161774	-0.391160965	0.031902313	0.999999046	-7.34329E-05	-9.91821E-05	7.24792E-05	-0.454044342	-9.779024124	0.797557831	-0.003671646	-0.004959106	0.003623962	-0.437011719	0.981201172	-0.569091797	882.36	-85.83093602	2.017429632	140.2430835	-89
12561	0	-0.016845703	-0.391845703	0.030395508	0.999999046	-6.48499E-05	-0.000117302	0	-0.421142578	-9.796142578	0.759887695	-0.003242493	-0.005865097	0	-0.434570313	0.983398438	-0.566650391	882.28	-85.8412625	2.010694044	140.2414305	-89
12562	0	-0.016716957	-0.391179085	0.031873703	0.999999046	9.72748E-05	-0.000118256	-1.23978E-05	-0.417923927	-9.779477119	0.796842575	0.004863739	-0.005912781	-0.000619888	-0.434814453	0.983398438	-0.563964844	882.36	-85.8329841	2.002526045	140.2398376	-89
12563	0	-0.016662598	-0.390686035	0.030944824	0.999999046	2.67029E-05	-0.00014019	8.39233E-05	-0.416564941	-9.767150879	0.773620605	0.001335144	-0.007009506	0.004196167	-0.436767578	0.981201172	-0.571777344	882.42	-85.83266851	2.00517644	140.2414026	-88
12564	0	-0.016963005	-0.39159584	0.031518936	0.999998093	-1.81198E-05	-0.000137329	-2.86102E-06	-0.424075127	-9.789896011	0.787973404	-0.000905991	-0.006866455	-0.000143051	-0.434570313	0.983398438	-0.569335938	882.36	-85.8375083	1.997929936	140.2420052	-88
12565	0	-0.01739502	-0.391174316	0.030395508	0.999999046	-0.0001297	-0.000136375	6.48499E-05	-0.434875488	-9.77935791	0.759887695	-0.006484985	-0.006818771	0.003242493	-0.437011719	0.981201172	-0.56640625	882.42	-85.85512088	1.998437284	140.2431676	-88
12566	0	-0.017560005	-0.391242027	0.031641006	0.999999046	-2.09808E-05	-0.000152588	-9.53674E-07	-0.43900013	-9.781050682	0.791025162	-0.001049042	-0.007629395	-4.76837E-05	-0.436767578	0.981201172	-0.571777344	882.34	-85.86020644	1.991299039	140.2454516	-88
12567	0	-0.017822266	-0.391113281	0.030334473	0.999999046	-1.90735E-05	-7.9155E-05	9.91821E-05	-0.445556641	-9.777832031	0.758361816	-0.000953674	-0.003957748	0.004959106	-0.434326172	0.979003906	-0.569091797	882.36	-85.86533787	1.996228691	140.2402461	-89
12568	0	-0.016797066	-0.390928268	0.031359673	0.999999046	-2.00272E-05	-0.000152588	-3.52859E-05	-0.419926643	-9.773206711	0.783991814	-0.001001358	-0.007629395	-0.001764297	-0.437011719	0.979003906	-0.566162109	882.46	-85.87030626	1.985178657	140.2424749	-88
12569	0	-0.016723633	-0.391296387	0.032287598	0.999999046	7.62939E-06	-4.86374E-05	0.000156403	-0.41809082	-9.782409668	0.807189941	0.00038147	-0.00243187	0.007820129	-0.434326172	0.979003906	-0.569091797	882.36	-85.87242724	1.996890337	140.2341714	-88
12570	0	-0.017270088	-0.391168594	0.032600403	0.999999046	-3.24249E-05	-0.000106812	0.000141144	-0.431752205	-9.779214859	0.815010071	-0.001621246	-0.005340576	0.00705719	-0.437011719	0.981201172	-0.569091797	882.34	-85.87887016	2.006382833	140.2325578	-88
12571	0	-0.017272949	-0.39074707	0.031921387	0.999999046	-5.34058E-05	-0.000102043	0.000133514	-0.43182373	-9.768676758	0.798034668	-0.002670288	-0.005102158	0.00667572	-0.434570313	0.981201172	-0.569335938	882.4	-85.88770898	2.01504551	140.2302278	-88
12572	0	-0.017921448	-0.391417503	0.029623985	0.999999046	-0.00011158	-0.000228882	-8.58307E-06	-0.448036194	-9.785437584	0.740599632	-0.005578995	-0.011444092	-0.000429153	-0.434570313	0.981201172	-0.569335938	882.42	-85.90275895	2.006439689	140.2412615	-87
12573	0	-0.016967773	-0.391418457	0.030944824	0.999999046	3.8147E-05	-7.53403E-05	-3.8147E-06	-0.424194336	-9.785461426	0.773620605	0.001907349	-0.003767014	-0.000190735	-0.434570313	0.981201172	-0.569335938	882.46	-85.9012515	1.999634486	140.2348007	-87
12574	0	-0.016838074	-0.391050339	0.031647682	0.999999046	7.62939E-06	-0.000198364	0.000152588	-0.420951843	-9.776258469	0.791192055	0.00038147	-0.009918213	0.007629395	-0.434570313	0.981201172	-0.566650391	882.42	-85.90267736	2.009694314	140.2437798	-87
12575	0	-0.017333984	-0.390563965	0.031860352	0.999999046	-9.15527E-05	-0.000159264	4.19617E-05	-0.433349609	-9.764099121	0.796508789	-0.004577637	-0.007963181	0.002098084	-0.437011719	0.981201172	-0.569091797	882.4	-85.9156249	2.007433994	140.2473191	-87
12576	0	-0.017724037	-0.391850471	0.031122208	0.999999046	-3.91006E-05	-0.000207901	2.57492E-05	-0.443100929	-9.796261787	0.778055191	-0.001955032	-0.01039505	0.00128746	-0.431884766	0.979003906	-0.569335938	882.4	-85.92235457	2.002934519	140.2560888	-87
