Counter	Temperature	VelInc_X	VelInc_Y	VelInc_Z	OriInc_w	OriInc_x	OriInc_y	OriInc_z	Acc_X	Acc_Y	Acc_Z	Gyr_X	Gyr_Y	Gyr_Z	Mag_X	Mag_Y	Mag_Z	Pressure	Roll	Pitch	Yaw	RSSI
49385	0	0.359191895	-0.119384766	0.088012695	0.999999046	7.62939E-06	-2.19345E-05	-0.000286102	8.979797363	-2.984619141	2.200317383	0.00038147	-0.001096725	-0.014305115	-0.441894531	0.766601563	-0.394042969	896.58	-54.05669518	-67.71290934	-7.224787839	-66
49386	0	0.367505074	-0.121798515	0.08946228	0.999999046	0.000205994	-0.000118256	-0.000226021	9.187626839	-3.044962883	2.236557007	0.010299683	-0.005912781	-0.011301041	-0.441894531	0.766601563	-0.394042969	896.56	-53.9810553	-67.74464419	-7.281739555	-66
49387	0	0.360168457	-0.11932373	0.089782715	0.999999046	6.48499E-05	-0.000124931	-0.000358582	9.004211426	-2.983093262	2.244567871	0.003242493	-0.006246567	-0.017929078	-0.441894531	0.766601563	-0.391357422	896.56	-53.9009341	-67.78905721	-7.366717183	-66
49388	0	0.360643387	-0.120762825	0.088425636	0.999999046	0.000195503	-0.00012207	-3.14713E-05	9.016084671	-3.019070625	2.210640907	0.009775162	-0.006103516	-0.001573563	-0.441894531	0.764404297	-0.391113281	896.62	-53.85913093	-67.80292779	-7.393212021	-65
49389	0	0.363037109	-0.117797852	0.089416504	0.999999046	-0.000125885	9.25064E-05	0.000236511	9.075927734	-2.944946289	2.235412598	-0.006294251	0.00462532	0.011825562	-0.441894531	0.764404297	-0.391113281	896.5	-53.84979041	-67.77750409	-7.424129302	-65
49390	0	0.365221977	-0.119702339	0.089391708	0.999999046	-0.00037384	0.000247955	0.000384331	9.130549431	-2.992558479	2.234792709	-0.018692018	0.012397767	0.019216539	-0.441894531	0.766601563	-0.396728516	896.52	-53.8581586	-67.72788671	-7.456530965	-65
49391	0	0.36541748	-0.11895752	0.087524414	0.999999046	-0.000457764	0.000279427	0.000469208	9.135437012	-2.973937988	2.188110352	-0.022888186	0.01397133	0.02346039	-0.441894531	0.766601563	-0.391357422	896.52	-53.8831063	-67.66834283	-7.491108776	-65
49392	0	0.362571716	-0.117976189	0.089021683	0.999999046	-0.00026989	0.000276566	0.000377655	9.064292908	-2.949404716	2.225542068	-0.013494492	0.013828278	0.018882752	-0.441894531	0.766601563	-0.391357422	896.52	-53.87213353	-67.61749279	-7.540707552	-65
49393	0	0.359741211	-0.11706543	0.089477539	0.999999046	-0.000209808	0.000237465	0.000263214	8.993530273	-2.926635742	2.236938477	-0.010490418	0.011873246	0.013160706	-0.439453125	0.766601563	-0.391357422	896.46	-53.84432354	-67.5798879	-7.600330476	-65
49394	0	0.361344337	-0.119429588	0.089719772	0.999999046	-2.28882E-05	0.000219345	3.8147E-05	9.033608437	-2.985739708	2.242994308	-0.001144409	0.010967255	0.001907349	-0.437255859	0.766601563	-0.388916016	896.52	-53.76236086	-67.56430596	-7.700458937	-65
49395	0	0.361755371	-0.118103027	0.088989258	0.999999046	6.10352E-05	0.000340462	-8.7738E-05	9.043884277	-2.952575684	2.224731445	0.003051758	0.017023087	-0.004386902	-0.439453125	0.768798828	-0.394287109	896.62	-53.62311898	-67.55208259	-7.844720977	-65
49396	0	0.360066414	-0.119311333	0.090773582	0.999999046	0.00014019	8.01086E-05	6.48499E-05	9.001660347	-2.982783318	2.269339561	0.007009506	0.004005432	0.003242493	-0.439453125	0.766601563	-0.394042969	896.62	-53.55808688	-67.54337918	-7.898201194	-65
49397	0	0.36114502	-0.119995117	0.089355469	0.999999046	0.000476837	0.000164986	0.000141144	9.028625488	-2.99987793	2.233886719	0.023841859	0.008249283	0.00705719	-0.439697266	0.768798828	-0.391601563	896.62	-53.44822924	-67.52183998	-7.968048297	-65
49398	0	0.362362862	-0.119095802	0.09099102	0.999999046	0.000360489	2.09808E-05	3.8147E-05	9.059071541	-2.977395058	2.274775505	0.018024445	0.001049042	0.001907349	-0.439697266	0.768798828	-0.391601563	896.64	-53.36678583	-67.51958169	-8.023043091	-65
49399	0	0.361022949	-0.119018555	0.090270996	0.999999046	0.00012207	1.62125E-05	0.000221252	9.02557373	-2.975463867	2.256774902	0.006103516	0.000810623	0.011062622	-0.441894531	0.766601563	-0.391357422	896.56	-53.34398295	-67.50080221	-8.043288247	-65
49400	0	0.361210823	-0.119156837	0.089028358	0.999999046	0.000353813	-4.00543E-05	0.000297546	9.030270576	-2.978920937	2.225708961	0.017690659	-0.002002716	0.01487732	-0.441894531	0.766601563	-0.394042969	896.56	-53.31977744	-67.47887374	-8.031895802	-65
49401	0	0.365844727	-0.118591309	0.091796875	0.999999046	0.000286102	-6.38962E-05	-2.67029E-05	9.146118164	-2.964782715	2.294921875	0.014305115	-0.003194809	-0.001335144	-0.439453125	0.766601563	-0.394042969	896.62	-53.25498595	-67.48840497	-8.073541647	-65
49402	0	0.358232498	-0.117361069	0.091328621	0.999999046	-0.000272751	-0.000127792	-4.95911E-05	8.955812454	-2.934026718	2.283215523	-0.013637543	-0.006389618	-0.002479553	-0.439453125	0.764404297	-0.394042969	896.64	-53.26448849	-67.50440707	-8.100676477	-65
49403	0	0.360107422	-0.118774414	0.092102051	0.999999046	0.000461578	-0.000155449	7.24792E-05	9.002685547	-2.969360352	2.30255127	0.023078919	-0.007772446	0.003623963	-0.437011719	0.766601563	-0.394287109	896.58	-53.21608239	-67.5110835	-8.102354619	-65
49404	0	0.362926483	-0.116728783	0.091729164	0.999999046	0.000346184	-0.000135422	-6.86646E-05	9.073162079	-2.918219566	2.293229103	0.017309189	-0.006771088	-0.003433228	-0.439453125	0.766601563	-0.396728516	896.64	-53.15290745	-67.52936624	-8.130921232	-65
49405	0	0.361450195	-0.116394043	0.090942383	0.999999046	8.39233E-05	-0.000201225	-9.53674E-05	9.036254883	-2.909851074	2.27355957	0.004196167	-0.010061264	-0.004768372	-0.439453125	0.764404297	-0.394042969	896.68	-53.12978597	-67.55465162	-8.1523365	-65
49406	0	0.363461494	-0.11832428	0.089288712	0.999999046	0.000305176	-9.15527E-05	-3.91006E-05	9.086537361	-2.958106995	2.232217789	0.015258789	-0.004577637	-0.001955032	-0.441894531	0.766601563	-0.396728516	896.64	-53.0663281	-67.56726393	-8.188175827	-66
49407	0	0.359924316	-0.116638184	0.090698242	0.999999046	0.000114441	-0.000113487	-0.000190735	8.99810791	-2.91595459	2.267456055	0.005722046	-0.005674362	-0.009536743	-0.441894531	0.766601563	-0.396728516	896.56	-53.00414227	-67.59527486	-8.24680877	-66
49408	0	0.359500885	-0.117762566	0.088749886	0.999999046	4.76837E-06	-0.000253677	-0.000278473	8.987522125	-2.94406414	2.218747139	0.000238419	-0.012683869	-0.013923645	-0.441650391	0.766601563	-0.399414063	896.52	-52.97088942	-67.64097504	-8.281803219	-66
49409	0	0.359130859	-0.116943359	0.089660645	0.999999046	3.8147E-06	-0.00026989	-9.15527E-05	8.978271484	-2.923583984	2.241516113	0.000190735	-0.013494492	-0.004577637	-0.441650391	0.762207031	-0.396240234	896.68	-52.97263648	-67.67070061	-8.281194243	-66
49410	0	0.360787392	-0.118159294	0.089526176	0.999999046	-0.00012207	-0.000276566	-3.8147E-06	9.019684792	-2.953982353	2.238154411	-0.006103516	-0.013828278	-0.000190735	-0.441650391	0.764404297	-0.396484375	896.56	-53.00510271	-67.69286062	-8.263936397	-67
49411	0	0.362365723	-0.118041992	0.090393066	0.999999046	-6.48499E-05	-0.000380516	-8.01086E-05	9.059143066	-2.951049805	2.25982666	-0.003242493	-0.019025803	-0.004005432	-0.441894531	0.766601563	-0.396728516	896.58	-53.0414524	-67.72916937	-8.236444559	-67
49412	0	0.36153698	-0.117202759	0.090101242	0.999999046	-0.00026989	-0.000123978	0.000133514	9.038424492	-2.93006897	2.252531052	-0.013494492	-0.006198883	0.00667572	-0.441650391	0.764404297	-0.396484375	896.62	-53.07991376	-67.72824128	-8.229038989	-67
49413	0	0.359558105	-0.118408203	0.089355469	0.999999046	-0.000526428	-0.000277519	0.000179291	8.988952637	-2.960205078	2.233886719	-0.026321413	-0.013875962	0.008964539	-0.444335938	0.764404297	-0.393554688	896.64	-53.1898687	-67.73365723	-8.180474296	-68
49414	0	0.358405113	-0.118387222	0.089092255	0.999999046	-6.86646E-05	-0.000272751	0.000319481	8.960127831	-2.959680557	2.227306366	-0.003433228	-0.013637543	0.015974045	-0.441894531	0.766601563	-0.396728516	896.52	-53.26984625	-67.72581734	-8.101660356	-68
49415	0	0.367370605	-0.118408203	0.090148926	0.999999046	-6.86646E-05	-0.000250816	0.000232697	9.184265137	-2.960205078	2.253723145	-0.003433228	-0.012540818	0.011634827	-0.444335938	0.766601563	-0.393798828	896.5	-53.33033536	-67.72445294	-8.050169425	-68
49416	0	0.36070919	-0.115781784	0.09147644	0.999999046	-0.000849724	-6.10352E-05	0.000259399	9.017729759	-2.894544601	2.286911011	-0.042486196	-0.003051758	0.012969972	-0.441894531	0.764404297	-0.391113281	896.58	-53.44200767	-67.70763689	-8.039536921	-69
49417	0	0.358521461	-0.118134499	0.090317726	0.999999046	-0.000461578	-0.000126839	0.00069046	8.963036537	-2.953362465	2.257943153	-0.023078921	-0.006341935	0.034523014	-0.444335938	0.766601563	-0.391113281	896.64	-53.59535531	-67.6555489	-7.93608936	-69
49418	0	0.363269806	-0.116531372	0.091462135	0.999999046	-0.000341415	-0.000219345	0.000304222	9.081745148	-2.913284302	2.286553383	-0.017070771	-0.010967255	0.015211106	-0.444335938	0.766601563	-0.391113281	896.7	-53.69130075	-67.64532432	-7.87786637	-69
49419	0	0.364562988	-0.117614746	0.092834473	0.999999046	-0.000411987	9.53674E-07	7.62939E-05	9.114074707	-2.940368652	2.320861816	-0.020599366	4.76837E-05	0.003814697	-0.444580078	0.769042969	-0.391357422	896.58	-53.70803658	-67.64118753	-7.914521123	-69
49420	0	0.363446236	-0.117928505	0.090295792	0.999999046	-0.000206947	-0.000207901	0.000212669	9.086155891	-2.948212624	2.257394791	-0.010347367	-0.01039505	0.010633469	-0.439697266	0.768798828	-0.391601563	896.64	-53.77058234	-67.63863008	-7.873265307	-69
49421	0	0.361450195	-0.116760254	0.092590332	0.999999046	-9.91821E-05	-0.000136375	1.90735E-05	9.036254883	-2.919006348	2.314758301	-0.004959106	-0.006818771	0.000953674	-0.442138672	0.769042969	-0.391357422	896.56	-53.77261476	-67.64911442	-7.884925434	-69
49422	0	0.358540535	-0.119234085	0.091917992	0.999999046	-0.00034523	-0.0001297	7.62939E-06	8.963513374	-2.980852127	2.297949791	-0.017261506	-0.006484985	0.00038147	-0.442138672	0.769042969	-0.388671875	896.56	-53.79934012	-67.66015837	-7.904896965	-69
49423	0	0.359680176	-0.120483398	0.091186523	0.999999046	0.000297546	-0.000231743	-1.90735E-05	8.992004395	-3.012084961	2.279663086	0.01487732	-0.011587143	-0.000953674	-0.442138672	0.769042969	-0.391357422	896.62	-53.77092255	-67.68051973	-7.899793092	-69
49424	0	0.362290382	-0.120353699	0.092370987	0.999999046	0.000277519	-0.000181198	-4.29153E-05	9.05725956	-3.008842468	2.309274673	0.013875962	-0.009059906	-0.002145767	-0.441894531	0.766601563	-0.391357422	896.52	-53.72935957	-67.69961148	-7.909884951	-68
49425	0	0.363342285	-0.12121582	0.090820313	0.999999046	-9.53674E-05	-6.77109E-05	7.62939E-05	9.083557129	-3.030395508	2.270507813	-0.004768372	-0.003385544	0.003814697	-0.444580078	0.769042969	-0.391357422	896.58	-53.72464082	-67.69995891	-7.929198016	-68
49426	0	0.359612465	-0.120250702	0.089832306	0.999999046	6.86646E-05	-0.000108719	0.000182152	8.990311623	-3.006267548	2.245807648	0.003433228	-0.005435944	0.00910759	-0.444580078	0.769042969	-0.391357422	896.56	-53.72787295	-67.69326655	-7.919827416	-68
49427	0	0.362243652	-0.119567871	0.089233398	0.999999046	-0.000221252	-2.57492E-05	0.000431061	9.056091309	-2.989196777	2.230834961	-0.011062623	-0.00128746	0.02155304	-0.444580078	0.769042969	-0.388671875	896.46	-53.78671325	-67.65794775	-7.891308029	-68
49428	0	0.362693787	-0.119859695	0.089710236	0.999999046	-0.0002985	-7.62939E-05	0.000433922	9.067344666	-2.996492386	2.24275589	-0.014925004	-0.003814697	0.021696092	-0.444580078	0.769042969	-0.388671875	896.68	-53.86609038	-67.62576005	-7.84854741	-68
49429	0	0.366455078	-0.119140625	0.089111328	0.999999046	-9.15527E-05	-3.71933E-05	0.000282288	9.161376953	-2.978515625	2.227783203	-0.004577637	-0.001859665	0.01411438	-0.442138672	0.769042969	-0.388671875	896.64	-53.88796323	-67.60499132	-7.8413573	-67
49430	0	0.362610817	-0.117836952	0.0922966	0.999999046	-0.000406265	-6.86646E-05	-7.62939E-05	9.065270424	-2.945923805	2.307415009	-0.020313264	-0.003433228	-0.003814697	-0.442138672	0.769042969	-0.385986328	896.62	-53.89399063	-67.61954934	-7.894729291	-67
49431	0	0.358093262	-0.119018555	0.090148926	0.999999046	-0.000480652	-6.67572E-06	0.000225067	8.952331543	-2.975463867	2.253723145	-0.024032594	-0.000333786	0.011253357	-0.444580078	0.769042969	-0.388671875	896.64	-53.94395209	-67.60198671	-7.901994192	-67
49432	0	0.360116005	-0.118170738	0.091677666	0.999999046	-5.62668E-05	0.000112534	0.000171661	9.002900124	-2.954268456	2.291941643	-0.002813339	0.005626679	0.008583069	-0.442138672	0.771240234	-0.386230469	896.64	-53.90961504	-67.58132081	-7.955444739	-67
49433	0	0.362731934	-0.11920166	0.092163086	0.999999046	-0.000164032	0.000199318	-0.00012207	9.06829834	-2.980041504	2.304077148	-0.008201599	0.009965897	-0.006103516	-0.442382813	0.771240234	-0.383544922	896.56	-53.8199867	-67.5819484	-8.088121723	-66
49434	0	0.362725258	-0.119325638	0.089154243	0.999999046	-0.000234604	0.00022316	-5.81741E-05	9.068131447	-2.983140945	2.228856087	-0.011730194	0.01115799	-0.002908707	-0.442138672	0.771240234	-0.388916016	896.68	-53.74363028	-67.57499011	-8.202252223	-67
49435	0	0.36114502	-0.120117188	0.090332031	0.999999046	-0.00019455	0.000203133	-4.95911E-05	9.028625488	-3.002929688	2.258300781	-0.009727478	0.010156632	-0.002479553	-0.442138672	0.771240234	-0.391601563	896.7	-53.66863758	-67.56851537	-8.303710843	-66
49436	0	0.357703209	-0.119811058	0.088171005	0.999999046	-0.000561714	8.2016E-05	8.29697E-05	8.942580223	-2.995276451	2.204275131	-0.02808571	0.0041008	0.004148484	-0.444580078	0.771240234	-0.385986328	896.56	-53.68470648	-67.55799839	-8.36371269	-66
49437	0	0.360717773	-0.120361328	0.088317871	0.999999046	-0.000259399	1.62125E-05	-3.8147E-06	9.017944336	-3.009033203	2.207946777	-0.012969971	0.000810623	-0.000190735	-0.442138672	0.771240234	-0.388916016	896.56	-53.66669055	-67.55995059	-8.414921977	-66
49438	0	0.360654831	-0.120038986	0.088266373	0.999999046	-0.000501633	-0.000112534	0.000117302	9.016370773	-3.000974655	2.206659317	-0.025081636	-0.005626679	0.005865097	-0.442138672	0.771240234	-0.386230469	896.58	-53.72519385	-67.55946819	-8.417421845	-66
49439	0	0.36114502	-0.120849609	0.08782959	0.999999046	-0.00069046	-0.000235558	6.10352E-05	9.028625488	-3.021240234	2.195739746	-0.034523013	-0.011777879	0.003051758	-0.442138672	0.769042969	-0.385986328	896.62	-53.82376992	-67.57251459	-8.394880205	-66
49440	0	0.360621452	-0.121259689	0.087368965	0.999999046	-0.000693321	-0.000314713	0.000182152	9.015536308	-3.031492233	2.184224129	-0.034666065	-0.015735628	0.009107591	-0.442382813	0.771240234	-0.383544922	896.58	-53.96044854	-67.57967807	-8.336089991	-66
49441	0	0.359375	-0.12097168	0.087646484	0.999999046	-0.000572205	-0.000376701	0.000236511	8.984375	-3.024291992	2.191162109	-0.028610232	-0.018835069	0.011825563	-0.442382813	0.775878906	-0.383789063	896.68	-54.10620333	-67.58590375	-8.25361401	-66
49442	0	0.359567642	-0.120756149	0.088762283	0.999999046	-0.00053215	-0.000509262	0.000254631	8.989191055	-3.018903732	2.219057083	-0.026607516	-0.025463107	0.012731553	-0.439941406	0.7734375	-0.383789063	896.58	-54.28030016	-67.59921648	-8.129045944	-66
49443	0	0.362731934	-0.119689941	0.089050293	0.999999046	-0.000392914	-0.000567436	0.00037384	9.06829834	-2.992248535	2.226257324	-0.019645693	-0.028371814	0.018692019	-0.442382813	0.775878906	-0.383789063	896.52	-54.47100564	-67.60517712	-7.969546028	-66
49444	0	0.365187645	-0.119974136	0.092020035	0.999998093	-0.000579834	-0.000540733	0.000221252	9.129691124	-2.999353409	2.30050087	-0.028991702	-0.02703667	0.011062623	-0.442626953	0.775878906	-0.381103516	896.62	-54.65241035	-67.62341726	-7.84606497	-66
49445	0	0.359619141	-0.119995117	0.091064453	0.999999046	-0.000343323	-0.000311852	0.000202179	8.990478516	-2.99987793	2.276611328	-0.017166138	-0.015592576	0.010108948	-0.442626953	0.773681641	-0.378173828	896.52	-54.75164915	-67.62813817	-7.784622881	-66
49446	0	0.362739563	-0.118189812	0.089351654	0.999999046	-0.000188828	-0.000192642	0.000117302	9.068489075	-2.954745293	2.233791351	-0.009441376	-0.009632111	0.005865097	-0.440185547	0.775878906	-0.378662109	896.62	-54.79231183	-67.63292284	-7.766969608	-66
49447	0	0.36151123	-0.119445801	0.090637207	0.999999046	-0.000583649	0.000138283	2.28882E-05	9.037780762	-2.98614502	2.265930176	-0.029182436	0.006914139	0.001144409	-0.445068359	0.775878906	-0.378417969	896.68	-54.78761373	-67.62466611	-7.846803498	-66
49448	0	0.362701416	-0.120116234	0.08919239	0.999999046	3.71933E-05	3.62396E-05	8.01086E-05	9.0675354	-3.002905846	2.229809761	0.001859665	0.001811981	0.004005432	-0.442626953	0.775878906	-0.378417969	896.52	-54.74410206	-67.61778734	-7.891656658	-66
49449	0	0.365234375	-0.119873047	0.088012695	0.999999046	-4.19617E-05	5.43594E-05	-0.000175476	9.130859375	-2.996826172	2.200317383	-0.002098084	0.002717972	-0.008773804	-0.442626953	0.775878906	-0.381103516	896.58	-54.66440774	-67.63362422	-7.979502697	-66
49450	0	0.362398148	-0.119997978	0.086209297	0.999999046	-0.000207901	0.000177383	-0.000359535	9.05995369	-2.999949455	2.15523243	-0.01039505	0.008869171	-0.017976761	-0.440185547	0.775878906	-0.378662109	896.62	-54.54595446	-67.65845986	-8.135174664	-66
49451	0	0.359680176	-0.120605469	0.085876465	0.999999046	-0.0001297	0.000107765	-0.000141144	8.992004395	-3.015136719	2.146911621	-0.006484985	0.00538826	-0.00705719	-0.440185547	0.775878906	-0.378662109	896.5	-54.46957263	-67.66744931	-8.235726613	-66
49452	0	0.361038208	-0.121136665	0.085799217	0.999999046	-5.24521E-05	1.14441E-05	-0.000161171	9.0259552	-3.028416634	2.144980431	-0.002622604	0.000572205	-0.008058548	-0.442626953	0.773681641	-0.375488281	896.46	-54.40296978	-67.68468421	-8.321979582	-66
49453	0	0.364196777	-0.120849609	0.08392334	0.999999046	-0.000267029	7.72476E-05	3.8147E-05	9.104919434	-3.021240234	2.098083496	-0.013351441	0.003862381	0.001907349	-0.442626953	0.775878906	-0.375732422	896.64	-54.37854927	-67.6789805	-8.390064154	-67
49454	0	0.363441467	-0.120495796	0.084280014	0.999999046	-0.000371933	-0.000102997	2.95639E-05	9.086036682	-3.012394905	2.107000351	-0.01859665	-0.005149841	0.001478195	-0.442626953	0.775878906	-0.373046875	896.52	-54.40581739	-67.68614782	-8.419800782	-67
49455	0	0.359985352	-0.119018555	0.086242676	0.999999046	-0.00031662	-0.000292778	0.00018692	8.999633789	-2.975463867	2.156066895	-0.015830994	-0.014638901	0.009346009	-0.442626953	0.775878906	-0.373046875	896.5	-54.49546443	-67.6913103	-8.373063203	-67
49456	0	0.360785484	-0.118904114	0.087358475	0.999999046	-4.673E-05	-0.000494003	3.71933E-05	9.019637108	-2.972602844	2.183961868	-0.002336502	-0.024700166	0.001859665	-0.442626953	0.775878906	-0.373046875	896.58	-54.57575532	-67.72380645	-8.301713745	-67
49457	0	0.363464355	-0.118591309	0.088012695	0.999999046	0.000175476	-0.000452995	-0.0001297	9.086608887	-2.964782715	2.200317383	0.008773804	-0.022649766	-0.006484986	-0.445068359	0.773681641	-0.372802734	896.62	-54.59427721	-67.76916461	-8.268280364	-67
49458	0	0.36784935	-0.1206007	0.089918137	0.999999046	4.76837E-05	-0.000394821	-0.000282288	9.196233749	-3.015017509	2.247953415	0.002384186	-0.019741059	-0.01411438	-0.4453125	0.775878906	-0.370117188	896.62	-54.58930596	-67.82491973	-8.284349869	-67
49459	0	0.359802246	-0.120117188	0.090881348	0.999999046	0.00018692	-0.000346184	-5.34058E-05	8.995056152	-3.002929688	2.272033691	0.009346009	-0.017309189	-0.002670288	-0.445068359	0.773681641	-0.372802734	896.46	-54.59440373	-67.85599644	-8.26353785	-67
49460	0	0.362195969	-0.118214607	0.09012413	0.999999046	0.000203133	-0.000167847	0.000182152	9.054899216	-2.955365181	2.253103256	0.010156632	-0.008392334	0.00910759	-0.445068359	0.773681641	-0.372802734	896.62	-54.59499624	-67.85321672	-8.246101697	-67
49461	0	0.36328125	-0.119689941	0.090820313	0.999999046	-0.000240326	0.000172615	6.10352E-05	9.08203125	-2.992248535	2.270507813	-0.012016297	0.008630753	0.003051758	-0.445068359	0.773681641	-0.372802734	896.58	-54.54841422	-67.83909688	-8.333840046	-67
49462	0	0.364822388	-0.119472504	0.088019371	0.999999046	0.000162125	0.000291824	0.000301361	9.120559692	-2.986812592	2.200484276	0.008106232	0.014591218	0.015068055	-0.447509766	0.773681641	-0.372558594	896.7	-54.46776787	-67.79459831	-8.410980387	-68
49463	0	0.364196777	-0.119140625	0.086730957	0.999999046	0.000156403	0.000370979	0.00037384	9.104919434	-2.978515625	2.168273926	0.00782013	0.018548966	0.018692018	-0.445068359	0.775878906	-0.375488281	896.62	-54.38190272	-67.73805271	-8.490784634	-68
49464	0	0.361297607	-0.118225098	0.086119652	0.999999046	1.23978E-05	0.000511169	0.000300407	9.032440186	-2.955627441	2.152991295	0.000619888	0.025558473	0.015020371	-0.442626953	0.773681641	-0.372802734	896.64	-54.26920469	-67.67895995	-8.622143683	-68
49465	0	0.359619141	-0.118469238	0.084716797	0.999999046	-3.05176E-05	0.000409126	0.00031662	8.990478516	-2.961730957	2.117919922	-0.001525879	0.020456315	0.015830994	-0.445068359	0.773681641	-0.372802734	896.56	-54.18781562	-67.62515412	-8.726173081	-68
49466	0	0.361915588	-0.118520737	0.085432053	0.999999046	7.24792E-05	0.000417709	0.000297546	9.047889709	-2.963018417	2.135801315	0.003623963	0.020885468	0.01487732	-0.442626953	0.775878906	-0.373046875	896.5	-54.09010707	-67.57254088	-8.837506871	-68
49467	0	0.364135742	-0.11920166	0.086486816	0.999999046	8.01086E-05	2.76566E-05	0.000259399	9.103393555	-2.980041504	2.16217041	0.004005432	0.001382828	0.012969971	-0.445068359	0.773681641	-0.375488281	896.64	-54.07335931	-67.54969839	-8.852839892	-68
49468	0	0.361139297	-0.119131088	0.086158752	0.999999046	9.25064E-05	6.10352E-05	0.000407219	9.028482437	-2.978277206	2.153968811	0.004625321	0.003051758	0.020360947	-0.442626953	0.775878906	-0.378417969	896.62	-54.07185642	-67.51093046	-8.845508092	-68
49469	0	0.359375	-0.118713379	0.089477539	0.999999046	0.000141144	-2.86102E-06	0.000289917	8.984375	-2.967834473	2.236938477	0.00705719	-0.000143051	0.01449585	-0.440185547	0.773681641	-0.375732422	896.46	-54.0599881	-67.48735104	-8.847562176	-68
49470	0	0.360953331	-0.119691849	0.088470459	0.999999046	0.000185013	-2.86102E-05	0.000175476	9.023833275	-2.992296219	2.211761475	0.009250641	-0.001430511	0.008773804	-0.440185547	0.775878906	-0.375976563	896.56	-54.03031174	-67.47613643	-8.866101943	-68
49471	0	0.359619141	-0.11907959	0.088928223	0.999999046	9.15527E-05	2.00272E-05	0.000289917	8.990478516	-2.976989746	2.223205566	0.004577637	0.001001358	0.01449585	-0.442871094	0.778076172	-0.373291016	896.68	-54.01902678	-67.45105098	-8.886075508	-68
49472	0	0.367236137	-0.120436668	0.088963509	0.999999046	0.00017643	8.96454E-05	0.000296593	9.180903435	-3.01091671	2.224087715	0.008821488	0.004482269	0.014829636	-0.440429688	0.778076172	-0.376220703	896.62	-53.98362914	-67.42069952	-8.914723566	-68
49473	0	0.360839844	-0.118469238	0.092651367	0.999999046	-0.000453949	0.000329018	0.000213623	9.020996094	-2.961730957	2.31628418	-0.02269745	0.016450883	0.010681153	-0.440429688	0.778076172	-0.376220703	896.62	-53.95363756	-67.38189047	-9.014275284	-68
49474	0	0.357066154	-0.119009972	0.091373444	0.999999046	-0.000413895	0.000356674	0.000549316	8.926653862	-2.97524929	2.28433609	-0.020694735	0.017833712	0.027465823	-0.440429688	0.778076172	-0.376220703	896.62	-53.96728722	-67.310082	-9.060197679	-68
49475	0	0.360107422	-0.119140625	0.089782715	0.999999046	-0.000545502	0.000348091	0.000427246	9.002685547	-2.978515625	2.244567871	-0.027275088	0.017404558	0.021362307	-0.440185547	0.775878906	-0.375976563	896.62	-53.97832176	-67.25018793	-9.121537546	-68
49476	0	0.360002518	-0.120341301	0.090999603	0.999999046	-0.000163078	0.000205994	2.28882E-05	9.000062943	-3.008532524	2.274990082	-0.008153915	0.010299683	0.001144409	-0.440429688	0.778076172	-0.376220703	896.52	-53.91201512	-67.23732821	-9.221039761	-68
49477	0	0.363098145	-0.121826172	0.087219238	0.999999046	3.43323E-05	-2.19345E-05	4.95911E-05	9.077453613	-3.045654297	2.180480957	0.001716614	-0.001096725	0.002479553	-0.435546875	0.778076172	-0.373779297	896.5	-53.87787109	-67.23740105	-9.266163736	-68
49478	0	0.358633995	-0.120146751	0.090201378	0.999999046	-5.72205E-06	-0.000102997	2.67029E-05	8.965849876	-3.003668785	2.255034447	-0.000286102	-0.005149841	0.001335144	-0.437988281	0.778076172	-0.376220703	896.52	-53.86250263	-67.24506227	-9.290298078	-68
49479	0	0.35760498	-0.121765137	0.088623047	0.999999046	-7.62939E-06	3.52859E-05	1.14441E-05	8.940124512	-3.044128418	2.215576172	-0.00038147	0.001764297	0.000572205	-0.435302734	0.778076172	-0.379150391	896.62	-53.81448584	-67.24476311	-9.342695059	-68
49480	0	0.359182358	-0.12299633	0.09004879	0.999999046	0.00014782	-3.24249E-05	8.01086E-05	8.979558945	-3.074908257	2.251219749	0.007390976	-0.001621246	0.004005432	-0.435302734	0.778076172	-0.379150391	896.62	-53.77474344	-67.24265067	-9.367749309	-68
49481	0	0.360778809	-0.122375488	0.089599609	0.999999046	8.39233E-05	-0.000285149	0.000259399	9.019470215	-3.059387207	2.239990234	0.004196167	-0.014257431	0.012969971	-0.440429688	0.780273438	-0.379150391	896.56	-53.8270353	-67.24106115	-9.304427612	-68
49482	0	0.361498833	-0.122853279	0.090328217	0.999999046	-9.53674E-05	-0.00025177	0.000286102	9.037470818	-3.071331978	2.258205414	-0.004768372	-0.012588501	0.014305115	-0.437744141	0.778076172	-0.37890625	896.58	-53.8968613	-67.23470254	-9.24101563	-67
49483	0	0.358947754	-0.121765137	0.091125488	0.999999046	4.95911E-05	-0.00026226	0.000614166	8.973693848	-3.044128418	2.278137207	0.002479553	-0.013113023	0.030708315	-0.437988281	0.778076172	-0.376220703	896.64	-54.00495857	-67.19860119	-9.124129813	-67
49484	0	0.358114243	-0.121219635	0.091497421	0.999999046	-8.86917E-05	-0.00025177	0.000564575	8.952856064	-3.030490875	2.287435532	-0.004434586	-0.012588502	0.028228762	-0.435302734	0.778076172	-0.379150391	896.58	-54.11827018	-67.16627851	-9.009991057	-67
49485	0	0.359863281	-0.121154785	0.090209961	0.999999046	0.000305176	-0.000224113	0.000362396	8.996582031	-3.028869629	2.255249023	0.01525879	-0.011205674	0.018119813	-0.437988281	0.780273438	-0.376464844	896.46	-54.14787473	-67.15083971	-8.94819442	-67
49486	0	0.367383957	-0.121121407	0.0909729	0.999999046	0.000337601	-0.000349045	7.62939E-05	9.184598923	-3.028035164	2.27432251	0.016880036	-0.017452241	0.003814697	-0.437988281	0.778076172	-0.376220703	896.7	-54.15566892	-67.17041049	-8.904996886	-67
49487	0	0.357055664	-0.118774414	0.092041016	0.999999046	-0.000377655	-0.000117302	0.000133514	8.926391602	-2.969360352	2.301025391	-0.018882752	-0.005865097	0.00667572	-0.435302734	0.778076172	-0.379150391	896.58	-54.20328551	-67.16910933	-8.897983279	-67
49488	0	0.357715607	-0.120281219	0.090461731	0.999999046	0.000306129	-0.000272751	0.000414848	8.942890167	-3.007030487	2.261543274	0.015306474	-0.013637543	0.020742418	-0.435546875	0.778076172	-0.376464844	896.58	-54.25152993	-67.15207204	-8.812693054	-67
49489	0	0.361938477	-0.119628906	0.091491699	0.999999046	0.000282288	-0.000178337	-2.28882E-05	9.048461914	-2.990722656	2.28729248	0.01411438	-0.008916855	-0.001144409	-0.435546875	0.778076172	-0.373779297	896.62	-54.21190758	-67.16944836	-8.833237986	-67
49490	0	0.359473228	-0.121210098	0.089599609	0.999999046	0.000238419	-0.000230789	-0.000263214	8.986830711	-3.030252457	2.239990234	0.011920929	-0.01153946	-0.013160706	-0.437988281	0.780273438	-0.376464844	896.46	-54.15052968	-67.21267699	-8.880066139	-66
49491	0	0.363464355	-0.121337891	0.087219238	0.999999046	0.000427246	-0.000292778	-0.000167847	9.086608887	-3.033447266	2.180480957	0.021362306	-0.014638901	-0.008392334	-0.437988281	0.778076172	-0.376220703	896.64	-54.0964124	-67.25125339	-8.895168872	-66
49492	0	0.358307838	-0.120531082	0.08967495	0.999999046	5.62668E-05	-0.000368118	-0.000263214	8.957695961	-3.013277054	2.241873741	0.002813339	-0.018405915	-0.013160706	-0.435302734	0.778076172	-0.379150391	896.62	-54.08613049	-67.30373593	-8.900931648	-66
49493	0	0.358520508	-0.122741699	0.087585449	0.999999046	-4.57764E-05	-0.000418663	-0.000152588	8.963012695	-3.06854248	2.18963623	-0.002288818	-0.020933152	-0.007629395	-0.440185547	0.778076172	-0.37890625	896.64	-54.11670438	-67.34933065	-8.875979616	-66
49494	0	0.362111092	-0.12221241	0.089039803	0.999999046	-7.24792E-05	-0.000379562	-8.01086E-05	9.05277729	-3.055310249	2.225995064	-0.003623962	-0.018978119	-0.004005432	-0.437744141	0.778076172	-0.381835938	896.64	-54.15347991	-67.38555492	-8.839294651	-66
49495	0	0.361450195	-0.121887207	0.089355469	0.999999046	-0.000442505	-0.000510216	-0.000106812	9.036254883	-3.047180176	2.233886719	-0.022125246	-0.02551079	-0.005340577	-0.440185547	0.775878906	-0.375976563	896.7	-54.25771598	-67.43300033	-8.785005626	-66
49496	0	0.361139297	-0.122682571	0.088877678	0.999999046	-0.000437737	-0.000543594	4.86374E-05	9.028482437	-3.067064285	2.221941948	-0.021886827	-0.02717972	0.00243187	-0.440185547	0.778076172	-0.37890625	896.56	-54.39431916	-67.46812996	-8.687523789	-66
49497	0	0.361816406	-0.12109375	0.090454102	0.999999046	-0.000156403	-0.000636101	4.57764E-05	9.045410156	-3.02734375	2.261352539	-0.00782013	-0.031805041	0.002288819	-0.442871094	0.778076172	-0.373291016	896.52	-54.51929732	-67.50959988	-8.580033417	-66
49498	0	0.359845161	-0.120972633	0.090140343	0.999999046	-0.000379562	-0.00062561	-8.01086E-05	8.996129036	-3.024315834	2.253508568	-0.018978121	-0.03128052	-0.004005432	-0.440429688	0.778076172	-0.373535156	896.62	-54.64765394	-67.56199848	-8.492523001	-66
49499	0	0.359008789	-0.12121582	0.088684082	0.999999046	7.62939E-05	-0.00064373	8.01086E-05	8.975219727	-3.030395508	2.217102051	0.003814698	-0.03218651	0.004005432	-0.440429688	0.778076172	-0.373535156	896.62	-54.75401587	-67.60050981	-8.371400071	-66
49500	0	0.367281914	-0.122177124	0.088289261	0.999999046	-9.53674E-07	-0.00060463	-0.000202179	9.182047844	-3.054428101	2.207231522	-4.76837E-05	-0.030231478	-0.010108948	-0.442626953	0.775878906	-0.373046875	896.58	-54.81543037	-67.66280915	-8.306721376	-66
49501	0	0.358093262	-0.120239258	0.088928223	0.999999046	-0.00030899	-0.000361443	-2.67029E-05	8.952331543	-3.005981445	2.223205566	-0.015449525	-0.018072129	-0.001335144	-0.442871094	0.778076172	-0.373291016	896.58	-54.88506462	-67.6925547	-8.271310201	-65
49502	0	0.360909462	-0.121068001	0.087065697	0.999999046	-0.0001297	-0.000440598	0.000182152	9.022736549	-3.02670002	2.176642418	-0.006484986	-0.022029878	0.00910759	-0.442871094	0.778076172	-0.373291016	896.58	-54.98593323	-67.7078846	-8.17855544	-66
49503	0	0.364440918	-0.121154785	0.088806152	0.999999046	-0.00037384	-0.000136375	0.000167847	9.111022949	-3.028869629	2.220153809	-0.018692017	-0.006818772	0.008392334	-0.4453125	0.778076172	-0.373046875	896.58	-55.04282761	-67.70450925	-8.162867233	-66
49504	0	0.362897873	-0.121220589	0.087333679	0.999999046	-0.000222206	-0.000225067	6.00815E-05	9.072446823	-3.030514717	2.18334198	-0.011110306	-0.011253357	0.003004074	-0.4453125	0.778320313	-0.367675781	896.56	-55.08537804	-67.71707163	-8.155874041	-66
49505	0	0.365722656	-0.121704102	0.087341309	0.999999046	2.67029E-05	-0.000208855	-5.72205E-05	9.143066406	-3.042602539	2.183532715	0.001335144	-0.010442734	-0.002861023	-0.442871094	0.778076172	-0.370605469	896.64	-55.07692329	-67.73958734	-8.165104256	-66
49506	0	0.36126709	-0.120239258	0.087646484	0.999999046	-5.72205E-05	-0.000228882	-0.00018692	9.031677246	-3.005981445	2.191162109	-0.002861023	-0.011444092	-0.009346008	-0.442871094	0.778076172	-0.370605469	896.56	-55.06179049	-67.77558651	-8.191540565	-67
49507	0	0.359436989	-0.121548653	0.086688995	0.999998093	0.00015831	-0.000320435	-5.43594E-05	8.985924721	-3.038716316	2.167224884	0.007915497	-0.016021729	-0.002717972	-0.442871094	0.778320313	-0.367919922	896.62	-55.06428435	-67.80510356	-8.17926823	-66
49508	0	0.363666534	-0.121221542	0.08572197	0.999999046	0.000487328	-0.00019455	-0.000237465	9.091663361	-3.030538559	2.14304924	0.02436638	-0.009727479	-0.011873246	-0.442871094	0.775878906	-0.370361328	896.62	-54.97059215	-67.84354428	-8.223643684	-67
49509	0	0.366149902	-0.121582031	0.086730957	0.999999046	0.000179291	-0.000224113	-0.000114441	9.153747559	-3.039550781	2.168273926	0.008964539	-0.011205673	-0.005722046	-0.447509766	0.775878906	-0.372802734	896.68	-54.93876857	-67.87236632	-8.235030403	-67
49510	0	0.364445686	-0.120369911	0.085450172	0.999999046	-1.14441E-05	-0.000133514	0.000118256	9.111142159	-3.00924778	2.136254311	-0.000572205	-0.00667572	0.005912781	-0.4453125	0.775878906	-0.370117188	896.62	-54.94558134	-67.8734124	-8.234278389	-67
49511	0	0.359802246	-0.118347168	0.084777832	0.999999046	0.000164032	-0.000258446	0.000209808	8.995056152	-2.958679199	2.119445801	0.008201599	-0.012922287	0.010490418	-0.447753906	0.778320313	-0.370117188	896.62	-54.97594022	-67.87410455	-8.189775896	-68
49512	0	0.360651016	-0.117372513	0.085300446	0.999999046	0.00014019	-0.000307083	5.34058E-05	9.016275406	-2.93431282	2.132511139	0.007009506	-0.015354157	0.002670288	-0.4453125	0.778320313	-0.367675781	896.56	-54.99493506	-67.89269784	-8.165874613	-68
49513	0	0.363464355	-0.11706543	0.08416748	0.999999046	8.7738E-05	-0.000193596	7.62939E-06	9.086608887	-2.926635742	2.104187012	0.004386902	-0.009679794	0.00038147	-0.4453125	0.778320313	-0.370361328	896.64	-54.98633666	-67.90818297	-8.17171548	-68
49514	0	0.369537354	-0.117850304	0.0850811	0.999999046	0.000226974	-0.000291824	-0.000317574	9.238433838	-2.946257591	2.127027512	0.011348725	-0.014591218	-0.015878678	-0.4453125	0.776123047	-0.364746094	896.56	-54.9316733	-67.96072994	-8.221814454	-69
49515	0	0.359741211	-0.115112305	0.084777832	0.999999046	-4.57764E-05	-0.00026989	-0.000148773	8.993530273	-2.877807617	2.119445801	-0.002288818	-0.013494492	-0.00743866	-0.4453125	0.775878906	-0.367431641	896.58	-54.93045943	-67.99603557	-8.2403224	-69
49516	0	0.362322807	-0.114341736	0.084937096	0.999999046	0.000100136	-0.000286102	-0.000134468	9.058070183	-2.858543396	2.123427391	0.00500679	-0.014305115	-0.006723404	-0.447509766	0.773681641	-0.3671875	896.58	-54.91849607	-68.03113417	-8.250879253	-68
49517	0	0.36505127	-0.115600586	0.084594727	0.999999046	-0.000282288	-0.000216484	-0.00038147	9.126281738	-2.890014648	2.114868164	-0.014114381	-0.010824204	-0.019073487	-0.447509766	0.773681641	-0.3671875	896.62	-54.89367383	-68.08487006	-8.321100811	-68
49518	0	0.36395359	-0.114821434	0.083333015	0.999999046	-0.000173569	-0.0001297	-0.000237465	9.09883976	-2.870535851	2.083325386	-0.008678436	-0.006484985	-0.011873245	-0.447509766	0.773681641	-0.369873047	896.64	-54.85956836	-68.11944406	-8.380628776	-68
49519	0	0.3671875	-0.117126465	0.083862305	0.999999046	2.67029E-05	-0.000216484	-0.00030899	9.1796875	-2.928161621	2.096557617	0.001335144	-0.010824204	-0.015449524	-0.450195313	0.778320313	-0.372802734	896.62	-54.81086716	-68.16648123	-8.429937424	-68
49520	0	0.363451004	-0.116287231	0.086334229	0.999999046	-7.34329E-05	-0.000143051	-0.000572205	9.086275101	-2.907180786	2.158355713	-0.003671646	-0.007152558	-0.028610231	-0.449951172	0.773681641	-0.366943359	896.52	-54.71255162	-68.23328672	-8.554000197	-68
49521	0	0.362792969	-0.117004395	0.087402344	0.999999046	-9.91821E-05	-0.000102043	-0.000499725	9.069824219	-2.925109863	2.185058594	-0.004959107	-0.005102158	-0.024986268	-0.447509766	0.773681641	-0.369873047	896.52	-54.6189063	-68.29049258	-8.668414322	-68
49522	0	0.364088058	-0.118245125	0.087181091	0.999999046	-0.000131607	-3.24249E-05	-0.000164032	9.102201462	-2.95612812	2.179527283	-0.006580353	-0.001621246	-0.008201599	-0.449951172	0.773681641	-0.369628906	896.52	-54.56820755	-68.31162841	-8.741411908	-68
49523	0	0.365722656	-0.119384766	0.08770752	0.999999046	-2.28882E-05	0.000214577	-0.000148773	9.143066406	-2.984619141	2.192687988	-0.001144409	0.010728836	-0.00743866	-0.452392578	0.773925781	-0.366699219	896.62	-54.44950006	-68.31481947	-8.882753168	-68
49524	0	0.364866257	-0.11921978	0.086209297	0.999999046	-8.58307E-06	0.000238419	8.7738E-05	9.121656418	-2.980494499	2.15523243	-0.000429153	0.011920929	0.004386902	-0.452392578	0.771484375	-0.366699219	896.56	-54.3633169	-68.29425133	-8.985172534	-68
49525	0	0.363037109	-0.118652344	0.086608887	0.999999046	-0.00018692	0.000481606	0.000217438	9.075927734	-2.966308594	2.165222168	-0.009346009	0.024080278	0.010871888	-0.449951172	0.773681641	-0.366943359	896.52	-54.26280777	-68.24525049	-9.126614772	-68
49526	0	0.363512993	-0.118354797	0.086486816	0.999999046	-0.000108719	0.000349045	0.000350952	9.087824821	-2.958869934	2.16217041	-0.005435944	0.017452241	0.017547608	-0.449951172	0.771484375	-0.366699219	896.58	-54.20709595	-68.19261408	-9.208536428	-68
49527	0	0.363891602	-0.118164063	0.083618164	0.999999046	4.57764E-05	0.000329018	0.000434875	9.097290039	-2.954101563	2.090454102	0.002288818	0.016450883	0.021743775	-0.452392578	0.773681641	-0.369384766	896.52	-54.15286203	-68.13350544	-9.267111693	-68
49528	0	0.366112709	-0.118535995	0.085333824	0.999999046	0.000229836	0.000356674	0.000305176	9.152817726	-2.963399887	2.133345604	0.011491776	0.017833711	0.01525879	-0.452636719	0.776123047	-0.366943359	896.62	-54.0498931	-68.0845677	-9.365994152	-68
49529	0	0.359619141	-0.1171875	0.087341309	0.999999046	0.00018692	0.000306129	0.000480652	8.990478516	-2.9296875	2.183532715	0.009346009	0.015306474	0.024032594	-0.449951172	0.773681641	-0.369628906	896.64	-53.99319246	-68.02268285	-9.411730414	-68
49530	0	0.361773491	-0.115611076	0.087238312	0.999999046	0.000238419	9.53674E-05	0.00063324	9.044337273	-2.890276909	2.180957794	0.01192093	0.004768372	0.03166199	-0.449951172	0.773681641	-0.369628906	896.58	-54.00449878	-67.96086252	-9.378778327	-68
49531	0	0.364562988	-0.116882324	0.086975098	0.999999046	-0.000205994	0.000470161	0.000595093	9.114074707	-2.922058105	2.174377441	-0.010299684	0.023508074	0.029754642	-0.449951172	0.773681641	-0.369628906	896.64	-53.97466112	-67.87736051	-9.445027434	-67
49532	0	0.366539955	-0.116683006	0.086233139	0.999999046	-0.000149727	0.000478745	0.000640869	9.163498878	-2.917075157	2.155828476	-0.007486344	0.023937228	0.032043461	-0.445068359	0.775878906	-0.372802734	896.58	-53.94439539	-67.78908613	-9.498695317	-68
49533	0	0.364501953	-0.117004395	0.087646484	0.999999046	-0.000152588	0.000443459	0.000385284	9.112548828	-2.925109863	2.191162109	-0.007629395	0.022172929	0.019264222	-0.4453125	0.775878906	-0.370117188	896.64	-53.8806124	-67.72688985	-9.595847362	-68
49534	0	0.360245705	-0.116455078	0.087136269	0.999999046	-0.000247955	0.000526428	0.000304222	9.006142616	-2.911376953	2.178406715	-0.012397767	0.026321413	0.015211106	-0.442871094	0.778076172	-0.370605469	896.58	-53.79613875	-67.66656866	-9.727919739	-67
49535	0	0.362243652	-0.116577148	0.087646484	0.999999046	6.86646E-05	0.000374794	0.000171661	9.056091309	-2.914428711	2.191162109	0.003433228	0.018739701	0.008583069	-0.4453125	0.778076172	-0.373046875	896.52	-53.68814244	-67.62873592	-9.842016647	-67
49536	0	0.361038208	-0.118520737	0.088420868	0.999999046	6.19888E-05	0.000268936	6.10352E-05	9.0259552	-2.963018417	2.210521698	0.003099442	0.013446808	0.003051758	-0.442871094	0.778076172	-0.370605469	896.62	-53.58672547	-67.60823574	-9.956254144	-67
49537	0	0.364257813	-0.118896484	0.08782959	0.999999046	0.000179291	0.000184059	-4.95911E-05	9.106445313	-2.972412109	2.195739746	0.008964539	0.009202957	-0.002479553	-0.440185547	0.775878906	-0.373291016	896.64	-53.47281042	-67.60366378	-10.06125901	-67
49538	0	0.360940933	-0.118524551	0.088858604	0.999999046	0.000139236	0.00019455	7.9155E-05	9.023523331	-2.963113785	2.221465111	0.006961823	0.009727478	0.003957748	-0.442626953	0.775878906	-0.373046875	896.68	-53.38257849	-67.5864618	-10.148029	-67
49539	0	0.361755371	-0.11920166	0.087890625	0.999999046	-0.000152588	0.000134468	9.15527E-05	9.043884277	-2.980041504	2.197265625	-0.007629395	0.006723404	0.004577637	-0.442626953	0.773681641	-0.372802734	896.7	-53.34145618	-67.57220328	-10.21573402	-68
49540	0	0.359085083	-0.120210648	0.088560104	0.999999046	2.57492E-05	0.000123978	0.000236511	8.977127075	-3.00526619	2.214002609	0.00128746	0.006198883	0.011825562	-0.442626953	0.775878906	-0.373046875	896.58	-53.30645701	-67.54529809	-10.2570835	-68
49541	0	0.36315918	-0.120300293	0.086486816	0.999999046	0.000183105	5.05447E-05	0.000232697	9.078979492	-3.007507324	2.16217041	0.009155274	0.002527237	0.011634827	-0.442626953	0.775878906	-0.373046875	896.56	-53.26939632	-67.52379283	-10.28215847	-68
49542	0	0.363764763	-0.121596336	0.090473175	0.999999046	-0.000175476	0.000198364	0.000124931	9.094119072	-3.039908409	2.261829376	-0.008773804	0.009918213	0.006246567	-0.442871094	0.775878906	-0.370361328	896.68	-53.22292811	-67.50201828	-10.3681541	-68
49543	0	0.357788086	-0.120117188	0.088684082	0.999999046	-0.000270844	0.000119209	0.000629425	8.944702148	-3.002929688	2.217102051	-0.013542176	0.005960465	0.031471255	-0.440429688	0.775878906	-0.370605469	896.64	-53.28854577	-67.4393226	-10.34210529	-68
49544	0	0.357861519	-0.118358612	0.08907032	0.999999046	-0.000254631	0.000162125	0.000827789	8.946537971	-2.958965302	2.226758003	-0.012731554	0.008106233	0.041389471	-0.442871094	0.775878906	-0.370361328	896.46	-53.37516922	-67.35544428	-10.29112286	-68
49545	0	0.358947754	-0.119995117	0.088378906	0.999999046	-0.000152588	0.000237465	0.00050354	8.973693848	-2.99987793	2.209472656	-0.007629395	0.011873246	0.025177003	-0.440429688	0.780517578	-0.370849609	896.58	-53.38021227	-67.29622565	-10.31888483	-68
49546	0	0.362448692	-0.119837761	0.084973335	0.999999046	0.000131607	-1.33514E-05	0.000278473	9.061217308	-2.995944023	2.124333382	0.006580353	-0.000667572	0.013923645	-0.437988281	0.778076172	-0.370849609	896.62	-53.37131066	-67.27492705	-10.32352745	-68
49547	0	0.360778809	-0.11895752	0.086303711	0.999999046	4.95911E-05	-0.000288963	0.000255585	9.019470215	-2.973937988	2.157592773	0.002479553	-0.014448166	0.012779236	-0.437988281	0.780273438	-0.373779297	896.7	-53.42874826	-67.27462583	-10.26125517	-68
49548	0	0.357899666	-0.12016964	0.089220047	0.999999046	-0.000271797	-0.000495911	0.000255585	8.947491646	-3.00424099	2.230501175	-0.01358986	-0.024795534	0.012779237	-0.437988281	0.780273438	-0.373779297	896.62	-53.56862758	-67.28838321	-10.14716106	-68
49549	0	0.357971191	-0.120239258	0.089416504	0.999999046	0.000110626	-0.000571251	0.000160217	8.949279785	-3.005981445	2.235412598	0.005531311	-0.028562548	0.008010865	-0.440429688	0.780273438	-0.376220703	896.58	-53.66602354	-67.31595824	-10.02561019	-67
49550	0	0.360780716	-0.12094593	0.089335442	0.999999046	5.53131E-05	-0.000707626	6.48499E-05	9.019517899	-3.023648262	2.23338604	0.002765656	-0.03538132	0.003242493	-0.437988281	0.780273438	-0.37109375	896.62	-53.78479607	-67.36151188	-9.898688251	-67
49551	0	0.36315918	-0.121887207	0.089904785	0.999999046	-0.000102997	-0.000769615	-7.62939E-06	9.078979492	-3.047180176	2.247619629	-0.005149842	-0.038480763	-0.00038147	-0.435546875	0.780273438	-0.374023438	896.7	-53.92431964	-67.41783557	-9.75926057	-67
49552	0	0.359149933	-0.121900558	0.090424538	0.999999046	-0.000174522	-0.000692368	6.86646E-05	8.978748322	-3.047513962	2.260613441	-0.008726121	-0.034618381	0.003433228	-0.437988281	0.780273438	-0.37109375	896.52	-54.06780345	-67.46170969	-9.6300328	-66
49553	0	0.359985352	-0.122192383	0.089477539	0.999999046	-0.000236511	-0.00070858	5.72205E-05	8.999633789	-3.05480957	2.236938477	-0.011825563	-0.035429004	0.002861023	-0.437988281	0.778076172	-0.368164063	896.62	-54.2207304	-67.50756533	-9.500429258	-66
49554	0	0.359366417	-0.122582436	0.090251923	0.999999046	-3.24249E-05	-0.000673294	1.81198E-05	8.984160423	-3.06456089	2.256298065	-0.001621246	-0.033664706	0.000905991	-0.437988281	0.778076172	-0.370849609	896.64	-54.3365428	-67.55451002	-9.377693821	-66
49555	0	0.365478516	-0.122802734	0.088623047	0.999999046	6.86646E-05	-0.000605583	-0.000102997	9.136962891	-3.070068359	2.215576172	0.003433228	-0.030279161	-0.005149842	-0.440429688	0.778076172	-0.367919922	896.62	-54.40637332	-67.6081339	-9.29920997	-66
49556	0	0.362623215	-0.12094593	0.091190338	0.999999046	-0.000302315	-0.000452042	-0.000190735	9.065580368	-3.023648262	2.279758453	-0.015115739	-0.022602083	-0.009536744	-0.440673828	0.780517578	-0.365478516	896.56	-54.46993109	-67.65963057	-9.280063776	-65
49557	0	0.360412598	-0.122497559	0.088317871	0.999999046	-0.000301361	-0.000308037	0.000141144	9.010314941	-3.062438965	2.207946777	-0.015068055	-0.015401841	0.00705719	-0.443115234	0.780517578	-0.365234375	896.56	-54.55464422	-67.67051224	-9.236847887	-65
49558	0	0.362812996	-0.121494293	0.088020325	0.999999046	-0.000213623	-4.95911E-05	3.05176E-05	9.070324898	-3.03735733	2.200508118	-0.010681152	-0.002479553	0.001525879	-0.445556641	0.780517578	-0.365234375	896.56	-54.55269367	-67.67451016	-9.275870136	-65
49559	0	0.361633301	-0.122497559	0.087585449	0.999999046	-0.000415802	0.000210762	-5.72205E-05	9.04083252	-3.062438965	2.18963623	-0.020790101	0.010538102	-0.002861023	-0.443115234	0.780517578	-0.367919922	896.52	-54.5006009	-67.66933183	-9.385803312	-65
49560	0	0.364784241	-0.124481201	0.086718559	0.999999046	-2.95639E-05	-6.48499E-05	-5.05447E-05	9.119606018	-3.112030029	2.167963982	-0.001478195	-0.003242493	-0.002527237	-0.443115234	0.780517578	-0.362548828	896.56	-54.46805381	-67.68181632	-9.439847007	-65
49561	0	0.364196777	-0.123535156	0.087463379	0.999999046	-0.0001297	0.000126839	-0.000110626	9.104919434	-3.088378906	2.186584473	-0.006484985	0.006341934	-0.005531311	-0.442871094	0.778320313	-0.365234375	896.62	-54.39374968	-67.68706989	-9.542108032	-65
49562	0	0.357121468	-0.123601913	0.088069916	0.999999046	-0.000249863	0.000196457	-6.19888E-05	8.92803669	-3.090047836	2.201747894	-0.012493134	0.009822846	-0.003099442	-0.445556641	0.780517578	-0.365234375	896.56	-54.32538572	-67.68300569	-9.655381924	-65
49563	0	0.361816406	-0.125061035	0.083557129	0.999999046	0.000152588	0.000260353	-1.90735E-05	9.045410156	-3.126525879	2.088928223	0.007629395	0.013017655	-0.000953674	-0.4453125	0.778320313	-0.364990234	896.64	-54.20379059	-67.67057286	-9.775921371	-65
49564	0	0.362141609	-0.124593735	0.086467743	0.999999046	0.000126839	0.000268936	-0.000142097	9.05354023	-3.114843369	2.161693573	0.006341934	0.013446808	-0.007104874	-0.442871094	0.778320313	-0.365234375	896.62	-54.06339164	-67.66883659	-9.920317166	-66
49565	0	0.359008789	-0.125671387	0.084960938	0.999999046	0.000232697	0.000206947	-7.24792E-05	8.975219727	-3.141784668	2.124023438	0.011634827	0.010347367	-0.003623962	-0.4453125	0.778320313	-0.367675781	896.64	-53.93659487	-67.66462502	-10.03323071	-66
49566	0	0.359786034	-0.125337601	0.082115173	0.999999046	0.000722885	0.000160217	2.67029E-05	8.994650841	-3.133440018	2.052879333	0.03614426	0.008010865	0.001335144	-0.443115234	0.780517578	-0.367919922	896.62	-53.78092587	-67.65425994	-10.12199966	-67
49567	0	0.359741211	-0.125915527	0.080993652	0.999999046	0.000419617	0.000199318	-1.90735E-05	8.993530273	-3.147888184	2.024841309	0.020980836	0.009965897	-0.000953674	-0.4453125	0.778320313	-0.367675781	896.64	-53.64425841	-67.64536798	-10.22895992	-67
49568	0	0.359897614	-0.127118111	0.07861805	0.999999046	0.000658989	2.28882E-05	8.7738E-05	8.997440338	-3.177952766	1.965451241	0.03294945	0.001144409	0.004386902	-0.442871094	0.775878906	-0.370361328	896.5	-53.53809747	-67.63852923	-10.26659328	-68
49569	0	0.367980957	-0.125488281	0.079711914	0.999999046	0.000610352	-7.9155E-05	0.000102997	9.199523926	-3.137207031	1.992797852	0.03051758	-0.003957749	0.005149842	-0.4453125	0.778076172	-0.373046875	896.62	-53.46345648	-67.63727435	-10.27552194	-69
49570	0	0.36375618	-0.123023033	0.081085205	0.999999046	2.86102E-05	-0.000320435	0.000305176	9.093904495	-3.075575829	2.027130127	0.001430512	-0.016021729	0.01525879	-0.445068359	0.775878906	-0.372802734	896.68	-53.54340491	-67.63388643	-10.18688009	-70
49571	0	0.363037109	-0.121398926	0.080322266	0.999999046	0	-0.000319481	0.000545502	9.075927734	-3.034973145	2.008056641	0	-0.015974046	0.027275087	-0.4453125	0.775878906	-0.370117188	896.62	-53.66640071	-67.60828212	-10.06107022	-71
49572	0	0.363632202	-0.119355202	0.084239006	0.999999046	-0.000157356	-0.000293732	0.000469208	9.090805054	-2.983880043	2.105975151	-0.007867814	-0.014686585	0.023460389	-0.445068359	0.775878906	-0.372802734	896.52	-53.78899285	-67.58794048	-9.946945533	-72
49573	0	0.359375	-0.119567871	0.085205078	0.999999046	-0.000297546	-0.000319481	8.7738E-05	8.984375	-2.989196777	2.130126953	-0.01487732	-0.015974045	0.004386902	-0.4453125	0.778320313	-0.370361328	896.56	-53.87082724	-67.60458071	-9.901270319	-72
49574	0	0.364868164	-0.120727539	0.085144043	0.999999046	0.000404358	-0.000385284	-0.000358582	9.121704102	-3.018188477	2.128601074	0.020217897	-0.019264223	-0.017929078	-0.442871094	0.778076172	-0.370605469	896.62	-53.81389104	-67.66700492	-9.918671045	-70
49575	0	0.365510941	-0.119283676	0.084102631	0.999997139	0.000337601	-6.48499E-05	-0.000748634	9.137773514	-2.982091904	2.102565765	0.016880037	-0.003242493	-0.037431721	-0.442871094	0.775878906	-0.370361328	896.52	-53.62764794	-67.74379248	-10.08427275	-70
49576	0	0.365674019	-0.121739388	0.084383965	0.999999046	0.000166893	5.53131E-05	-0.000973701	9.141850471	-3.043484688	2.109599113	0.008344652	0.002765656	-0.048685082	-0.445068359	0.773681641	-0.372802734	896.52	-53.39518926	-67.83292269	-10.31453856	-70
49577	0	0.363952637	-0.122314453	0.085754395	0.999999046	0.000114441	0.000367165	-0.001037598	9.098815918	-3.057861328	2.143859863	0.005722047	0.018358234	-0.051879893	-0.447509766	0.773681641	-0.372558594	896.56	-53.08583253	-67.90609027	-10.63776717	-67
49578	0	0.362074852	-0.12441349	0.083666801	0.999999046	0.000188828	0.000564575	-0.001091003	9.0518713	-3.110337257	2.091670036	0.009441378	0.028228767	-0.054550185	-0.447509766	0.773681641	-0.369873047	896.64	-52.71258222	-67.96971317	-11.03040947	-66
49579	0	0.365478516	-0.12677002	0.081176758	0.999998093	0.000927925	0.000572205	-0.001289368	9.136962891	-3.169250488	2.029418945	0.046396278	0.028610243	-0.064468414	-0.449951172	0.771484375	-0.372070313	896.56	-52.21674603	-68.04969234	-11.4629436	-64
49580	0	0.365285873	-0.125621796	0.07914257	0.999998093	0.000947952	0.00067234	-0.001278877	9.132146835	-3.140544891	1.978564262	0.047397637	0.033617036	-0.063943895	-0.452148438	0.766845703	-0.374267578	896.64	-51.69544571	-68.12022586	-11.91695292	-63
49581	0	0.36126709	-0.125915527	0.078674316	0.999999046	0.001026154	0.000458717	-0.000782013	9.031677246	-3.147888184	1.96685791	0.051307694	0.022935874	-0.039100659	-0.454345703	0.764648438	-0.376708984	896.56	-51.2995127	-68.16004886	-12.22460377	-61
49582	0	0.35833931	-0.123795509	0.076693535	0.999998093	0.001473427	-4.48227E-05	-0.000473022	8.958482742	-3.094887733	1.917338371	0.07367137	-0.002241136	-0.023651132	-0.454101563	0.764648438	-0.382080078	896.52	-51.01970499	-68.20778969	-12.34582129	-60
49583	0	0.359558105	-0.123046875	0.077575684	0.999997139	0.00188446	-0.000281334	-0.00063324	8.988952637	-3.076171875	1.93939209	0.094223086	-0.014066706	-0.031662009	-0.456542969	0.762451172	-0.381835938	896.58	-50.71624847	-68.28662151	-12.44928291	-59
49584	0	0.354750633	-0.1218853	0.075821877	0.999997139	0.001940727	-0.000236511	-0.000584602	8.868765831	-3.047132492	1.895546913	0.097036429	-0.01182557	-0.029230138	-0.456298828	0.7578125	-0.384033203	896.64	-50.40471423	-68.35766143	-12.55248139	-58
49585	0	0.357666016	-0.122741699	0.07635498	0.999996185	0.002537727	-0.000411987	-0.000339508	8.941650391	-3.06854248	1.908874512	0.12688651	-0.020599388	-0.016975422	-0.458740234	0.760009766	-0.389404297	896.58	-50.10874239	-68.41972831	-12.56660209	-57
49586	0	0.358178139	-0.122234344	0.076314926	0.999996185	0.002488136	-0.000349998	-0.000195503	8.954453468	-3.055858612	1.907873154	0.124406946	-0.017499942	-0.009775172	-0.458496094	0.755615234	-0.39453125	896.58	-49.83164722	-68.46454069	-12.55962491	-57
49587	0	0.360473633	-0.122680664	0.073242188	0.999996185	0.002556801	-0.00038147	-0.00019455	9.01184082	-3.067016602	1.831054688	0.127840185	-0.019073508	-0.009727489	-0.460693359	0.753173828	-0.396972656	896.6	-49.55434892	-68.51161502	-12.54754412	-55
49588	0	0.363629341	-0.122831345	0.074386597	0.999995232	0.002924919	-0.00028801	-0.000294685	9.090733528	-3.070783615	1.859664917	0.146246169	-0.014400503	-0.01473429	-0.460449219	0.750976563	-0.399414063	896.56	-49.19558216	-68.56045317	-12.58239695	-55
49589	0	0.36340332	-0.120849609	0.073059082	0.999997139	0.002315521	9.63211E-05	-0.000164032	9.085083008	-3.021240234	1.826477051	0.115776166	0.00481606	-0.008201606	-0.460205078	0.746337891	-0.404296875	896.64	-48.84722034	-68.56908135	-12.67459246	-53
49590	0	0.365626335	-0.121365547	0.074057579	0.999998093	0.001608849	0.000664711	0.000135422	9.140658379	-3.03413868	1.851439476	0.080442469	0.033235567	0.006771091	-0.462402344	0.744140625	-0.409423828	896.6	-48.51409314	-68.50877329	-12.83208462	-54
49591	0	0.366760254	-0.11328125	0.084899902	0.999994278	0.002873421	0.001735687	-0.000343323	9.169006348	-2.83203125	2.122497559	0.143671308	0.086784527	-0.01716617	-0.462402344	0.744140625	-0.412109375	896.58	-47.7143578	-68.40680439	-13.34751893	-54
49592	0	0.363521576	-0.098472595	0.091673851	0.999993324	0.000645638	0.003242493	-0.000962257	9.088039398	-2.46181488	2.291846275	0.032281939	0.162124954	-0.048112964	-0.462158203	0.741699219	-0.422851563	896.58	-46.73695021	-68.23688687	-14.31155836	-54
49593	0	0.358032227	-0.104736328	0.090393066	0.999985695	-0.002696991	0.004372597	-0.001213074	8.950805664	-2.618408203	2.25982666	-0.134850175	0.218630852	-0.060653968	-0.462158203	0.739501953	-0.419921875	896.56	-45.8765269	-67.99259859	-15.56795837	-52
49594	0	0.351281166	-0.113556862	0.085894585	0.999982834	-0.00259304	0.005009651	-0.001573563	8.782029152	-2.838921547	2.147364616	-0.129652764	0.250483991	-0.078678581	-0.459716797	0.741699219	-0.422851563	896.58	-44.83123147	-67.71861577	-17.01027322	-52
49595	0	0.345275879	-0.118713379	0.083190918	0.999980927	-0.001963615	0.005779266	-0.000408173	8.631896973	-2.967834473	2.079772949	-0.098181383	0.28896512	-0.020408758	-0.459472656	0.739501953	-0.425537109	896.64	-43.8324016	-67.27848073	-18.32506913	-52
49596	0	0.340042114	-0.13888073	0.078766823	0.999982834	-0.001461029	0.005513191	0.000883102	8.501052856	-3.472018242	1.96917057	-0.073051858	0.275661092	0.044155366	-0.454589844	0.741455078	-0.431396484	896.64	-43.12495444	-66.75097124	-19.25928794	-52
49597	0	0.341247559	-0.161865234	0.094238281	0.999970436	0.00345993	0.006203651	0.002605438	8.531188965	-4.046630859	2.355957031	0.172998172	0.310185531	0.130273155	-0.449951172	0.743652344	-0.431884766	896.58	-42.10993605	-66.02543934	-19.95131597	-51
49598	0	0.333895683	-0.169834137	0.091201782	0.999937057	0.005244255	0.00795269	0.005887032	8.347392082	-4.245853424	2.280044556	0.262218234	0.397642818	0.29435773	-0.444580078	0.743652344	-0.445800781	896.56	-41.26865363	-64.8951758	-20.23966183	-54
49599	0	0.315917969	-0.177246094	0.087402344	0.999881744	0.007771492	0.009395599	0.009296417	7.897949219	-4.431152344	2.185058594	0.388589827	0.469798377	0.464839077	-0.434570313	0.743164063	-0.468017578	896.58	-40.57203076	-63.38195157	-20.04683806	-55
49600	0	0.314940453	-0.18889904	0.086135864	0.999803543	0.01125145	0.011115074	0.011897087	7.873511314	-4.722476006	2.153396606	0.562609211	0.555789994	0.594893194	-0.414550781	0.742919922	-0.485595703	896.62	-39.69965915	-61.52660865	-19.62816692	-57
49601	0	0.311157227	-0.189819336	0.090820313	0.99968338	0.013684273	0.0141716	0.015594482	7.778930664	-4.745483398	2.270507813	0.684285647	0.708654591	0.779806182	-0.392089844	0.739990234	-0.514160156	896.46	-38.75577982	-59.13485232	-18.97627714	-58
49602	0	0.285421371	-0.178030014	0.089094162	0.999526024	0.01216507	0.018564224	0.021302223	7.135534286	-4.450750351	2.22735405	0.608349462	0.928357685	1.065279236	-0.359619141	0.737060547	-0.545898438	896.52	-38.28255539	-55.94564531	-17.95341141	-58
49603	0	0.31854248	-0.192810059	0.088012695	0.999193192	0.016751289	0.022880554	0.028419495	7.963562012	-4.820251465	2.200317383	0.837789629	1.144335256	1.421356728	-0.315429688	0.738525391	-0.576171875	896.58	-37.67575471	-51.86951436	-16.44387178	-57
49604	0	0.322034836	-0.171047211	0.086055756	0.998724937	0.021698952	0.02960968	0.034640312	8.050870895	-4.276180267	2.15139389	1.085408771	1.481113326	1.732751847	-0.260742188	0.73046875	-0.619873047	896.56	-36.49968732	-46.76317361	-14.86008361	-58
49605	0	0.30682373	-0.199523926	0.074584961	0.998271942	0.023747444	0.037654877	0.038337708	7.670593262	-4.988098145	1.864624023	1.188056329	1.883828604	1.917989816	-0.183837891	0.713378906	-0.661621094	896.56	-34.79742617	-40.69000156	-13.55769961	-61
49606	0	0.272482872	-0.185135841	0.080584526	0.997797012	0.026453972	0.044037819	0.041973114	6.8120718	-4.628396034	2.014613152	1.323670693	2.203509197	2.100198081	-0.091796875	0.684570313	-0.703613281	896.56	-32.68757376	-33.81500596	-12.20930728	-60
49607	0	0.237854004	-0.144958496	0.097106934	0.997624397	0.022689819	0.047951698	0.043933868	5.946350098	-3.623962402	2.42767334	1.135389963	2.399484816	2.19843413	0.019775391	0.642089844	-0.732177734	896.64	-30.90569932	-26.48499153	-10.70047072	-61
49608	0	0.247048378	-0.122997284	0.140187263	0.997471809	0.019587517	0.05264473	0.043515205	6.17620945	-3.074932098	3.504681587	0.980201815	2.634456428	2.177595239	0.145751953	0.592773438	-0.744873047	896.58	-29.21667426	-18.75969704	-9.331816174	-60
49609	0	0.225952148	-0.085327148	0.174377441	0.996945381	0.012943268	0.063660622	0.043346405	5.648803711	-2.133178711	4.359436035	0.647823057	3.186275606	2.169529442	0.274169922	0.534667969	-0.732910156	896.52	-27.9743307	-9.970427322	-8.434727338	-60
49610	0	0.159823418	-0.162922859	0.181220055	0.996709824	0.012831688	0.067032814	0.043720245	3.995585442	-4.07307148	4.530501366	0.642288964	3.355321366	2.188412877	0.408691406	0.483642578	-0.686523438	896.64	-26.6125053	-0.840403965	-7.517659101	-61
49611	0	0.068908691	-0.325256348	0.25189209	0.996852875	0.042435646	0.053730011	0.039955139	1.722717285	-8.131408691	6.297302246	2.124010863	2.689322247	1.999855252	0.553955078	0.403076172	-0.633300781	896.46	-21.68359011	6.653951728	-5.894531519	-63
49612	0	-0.072419167	-0.419771194	0.337656021	0.997140884	0.063022614	0.037215233	0.018756866	-1.810479164	-10.49427986	8.441400528	3.154136518	1.86253661	0.938737925	0.686767578	0.286132813	-0.60546875	896.58	-14.37315019	11.3755429	-5.180059945	-72
49613	0	-0.284179688	-0.389587402	0.482177734	0.999759674	0.017994881	0.01228714	-0.002380371	-7.104492188	-9.739685059	12.05444336	0.899816097	0.6144062	-0.119028087	0.779785156	0.201416016	-0.593994141	896.58	-12.48003218	12.68614911	-5.716096033	-70
49614	0	-0.43209362	-0.366606712	0.811329842	0.999546051	0.020833015	-0.021740913	-0.000700951	-10.80234051	-9.165167809	20.28324604	1.041808329	-1.087210093	-0.035052832	0.823730469	0.200683594	-0.599853516	896.62	-10.05479647	10.23625673	-5.293212115	-69
49615	0	-0.195983887	-0.108093262	0.653869629	0.996477127	0.074856758	-0.02255249	0.030330658	-4.899597168	-2.702331543	16.34674072	3.747238513	-1.128950306	1.518315947	0.832275391	0.138916016	-0.657226563	896.56	-0.910661167	8.007978545	-1.623261388	-80
49616	0	0.105222702	0.052431107	0.46711731	0.994752884	0.07998085	-0.025969505	0.058265686	2.630567551	1.310777664	11.67793274	4.006051396	-1.300751026	2.918390243	0.811035156	-0.028808594	-0.706054688	896.52	8.955431719	4.580606974	4.839610576	-80
49617	0	0.300231934	0.177429199	0.286071777	0.995923996	0.075680733	-0.023864746	0.042869568	7.50579834	4.43572998	7.151794434	3.789185968	-1.194861067	2.146395247	0.788085938	-0.227783203	-0.73046875	896.7	17.80498145	0.794388567	8.981075601	-74
49618	0	0.289222717	0.206576347	0.206069946	0.996818542	0.076424599	-0.006556511	0.02162838	7.230567932	5.164408684	5.151748657	3.825286627	-0.328173572	1.082567046	0.733398438	-0.385253906	-0.718505859	896.52	26.53981398	-0.825361265	10.98621564	-75
49619	0	0.20690918	0.367248535	0.04901123	0.999035835	0.039051056	0.006398201	0.019012451	5.172729492	9.181213379	1.225280762	1.953180564	0.320012904	0.950928195	0.686035156	-0.510742188	-0.652832031	896.52	30.94939437	-1.22078138	13.24813817	-78
49620	0	0.152750969	0.363302231	-0.010814667	0.999466896	0.004426003	-0.007951736	0.031353951	3.818774223	9.082555771	-0.270366669	0.221339458	-0.397657487	1.567976157	0.668457031	-0.566894531	-0.627929688	896.5	31.32049829	-3.851483546	15.85223915	-80
49621	0	0.185424805	0.343078613	0.115112305	0.998204231	0.024147034	-0.021601677	0.050380707	4.635620117	8.576965332	2.877807617	1.208074834	-1.080730769	2.520544129	0.654052734	-0.623535156	-0.640869141	896.56	33.6748228	-9.039521417	19.40930016	-72
49622	0	-0.016572952	0.475914001	0.119541168	0.997365952	0.008086205	-0.022637367	0.068421364	-0.414323807	11.89785004	2.988529205	0.404665467	-1.132862861	3.42407406	0.596923828	-0.717773438	-0.631347656	896.5	33.47967145	-15.53920395	24.6253524	-75
49623	0	0.055908203	0.478942871	0.124328613	0.996747017	-0.009010315	-0.03000927	0.074253082	1.397705078	11.97357178	3.108215332	-0.451004881	-1.502092569	3.716685017	0.502685547	-0.775634766	-0.657714844	896.64	30.5497469	-22.97101914	30.33412905	-73
49624	0	0.194649696	0.77968502	0.197828293	0.993886948	-0.046499252	-0.037571907	0.09280777	4.866242409	19.49212551	4.945707321	-2.329711134	-1.882432207	4.649866046	0.365966797	-0.803466797	-0.688720703	896.62	21.22165066	-31.51070389	38.97885465	-72
49625	0	0.405578613	0.372741699	0.434570313	0.996108055	-0.070804596	-0.017455101	0.049488068	10.13946533	9.31854248	10.86425781	-3.544828741	-0.873888805	2.477617761	0.204589844	-0.707519531	-0.809814453	896.58	9.870836036	-34.95737451	44.85487943	-77
49626	0	0.343405724	0.215161324	0.376199722	0.998691559	-0.05073452	0.005654335	0.003009796	8.585143089	5.379033089	9.404993057	-2.5378329	0.282840115	0.150555473	0.010253906	-0.612792969	-0.869140625	896.52	3.783237466	-34.35258439	45.34704673	-90
49627	0	0.262084961	0.031311035	0.332824707	0.999492645	-0.027384758	0.014644623	-0.007041931	6.552124023	0.782775879	8.320617676	-1.369469402	0.732354941	-0.352156088	-0.050537109	-0.526367188	-0.915527344	896.52	1.14904874	-32.63991819	44.44481449	-77
49628	0	0.191773415	0.003736496	0.293909073	0.999750137	0.018352509	0.010140419	-0.007683754	4.794335365	0.093412399	7.347726822	0.917701712	0.5070631	-0.384219637	-0.027099609	-0.497558594	-0.930419922	896.56	3.789706621	-31.43941562	43.44046472	-73
49629	0	0.153198242	0.105895996	0.305786133	0.999559402	0.028954506	0.004802704	-0.004264832	3.829956055	2.647399902	7.64465332	1.447937621	0.240170411	-0.213272851	0.008300781	-0.545166016	-0.901855469	896.52	7.388704397	-30.84087213	42.91017089	-76
49630	0	0.154564857	0.133310318	0.343034744	0.999869347	0.015275955	0.003475189	-0.00385952	3.864121437	3.33275795	8.575868607	0.763830904	0.173767	-0.192984372	0.033691406	-0.590576172	-0.872802734	896.62	9.383926831	-30.37737058	42.44765998	-84
49631	0	0.127441406	0.153198242	0.363464355	0.999968529	-0.003982544	0.003495216	-0.00579071	3.186035156	3.829956055	9.086608887	-0.199129242	0.174762613	-0.289538496	0.043945313	-0.610839844	-0.860839844	896.62	9.29134521	-29.86735335	41.74940309	-82
49632	0	0.135499001	0.122422218	0.355760574	0.99980545	-0.018341064	0.00300312	-0.006558418	3.387475014	3.060555458	8.894014359	-0.917112601	0.150165744	-0.327942146	0.055419922	-0.590820313	-0.868896484	896.52	7.606272284	-29.40794595	40.93674457	-90
49633	0	0.137634277	0.060668945	0.330200195	0.999718666	-0.022499084	0.00156498	-0.007213593	3.440856934	1.516723633	8.255004883	-1.125059376	0.078256292	-0.36071334	0.069091797	-0.554931641	-0.889160156	896.62	5.499366434	-29.12603248	40.00088319	-73
49634	0	0.153885841	0.002566338	0.307499886	0.999819756	-0.017442703	0.000995636	-0.007317543	3.847146034	0.06415844	7.687497139	-0.872187322	0.049784777	-0.365899034	0.079833984	-0.510009766	-0.907226563	896.58	3.98107339	-28.93337072	39.03099472	-69
49635	0	0.182495117	-0.013183594	0.328369141	0.999847412	-0.015212059	-0.00144577	-0.008411407	4.56237793	-0.329589844	8.209228516	-0.760641525	-0.072292179	-0.420591703	0.088623047	-0.480712891	-0.921142578	896.58	2.797405811	-29.03205022	37.89495983	-75
49636	0	0.206420898	-0.028381348	0.36151123	0.999743462	-0.021162987	-0.002243042	-0.00774765	5.160522461	-0.709533691	9.037780762	-1.058239818	-0.11216169	-0.387415632	0.104492188	-0.447265625	-0.936035156	896.7	0.891677524	-29.25072868	36.84567935	-87
49637	0	0.195162773	-0.041465759	0.349305153	0.999535561	-0.029655457	-0.002518654	-0.006446838	4.879069328	-1.036643982	8.732628822	-1.483002098	-0.125952166	-0.32239176	0.10546875	-0.399902344	-0.953613281	896.56	-2.073228322	-29.53750233	35.98433719	-83
49638	0	0.183137894	-0.125799179	0.324681282	0.999608994	-0.02720356	-0.00467968	-0.00445652	4.578447342	-3.144979477	8.117032051	-1.360355286	-0.234014492	-0.222855048	0.108398438	-0.336669922	-0.978271484	896.64	-4.900252534	-30.09483427	35.40710119	-87
49639	0	0.168441772	-0.13922596	0.37611866	0.99991703	-0.012237549	-0.003775597	0.000359535	4.211044312	-3.480648994	9.402966499	-0.611894182	-0.188784996	0.017977253	0.109130859	-0.293701172	-0.984619141	896.64	-6.336131198	-30.51196526	35.46487962	-83
49640	0	0.153409958	-0.081234932	0.335830688	0.999927521	-0.010446548	-0.003441811	0.004864693	3.835248947	-2.030873299	8.395767212	-0.522340016	-0.172094679	0.243240498	0.103515625	-0.2734375	-0.988769531	896.62	-7.875836219	-30.82457922	36.12872075	-79
49641	0	0.169311523	-0.106689453	0.311462402	0.999939919	-0.00333786	-0.00562191	0.008743286	4.232788086	-2.667236328	7.786560059	-0.166896321	-0.281101089	0.437172992	0.093017578	-0.248291016	-0.995605469	896.62	-8.898977925	-31.30612471	37.34967867	-75
49642	0	0.172324181	-0.054860115	0.261577606	0.999863625	0.000541687	-0.009447098	0.01347065	4.308104515	-1.371502876	6.539440155	0.027085574	-0.472376226	0.673562911	0.083496094	-0.252685547	-0.994628906	896.58	-9.874054984	-32.11349983	39.30101936	-73
49643	0	0.19152832	-0.112976074	0.23626709	0.999535561	-0.015651703	-0.013422966	0.022399902	4.788208008	-2.824401855	5.906677246	-0.782706092	-0.671252026	1.120168211	0.06640625	-0.248046875	-0.996337891	896.58	-13.46387959	-33.09341586	42.61802643	-75
49644	0	0.251630783	-0.161876678	0.254346848	0.999515533	-0.001024246	-0.010668755	0.029190063	6.290769577	-4.046916962	6.358671188	-0.051220568	-0.533523733	1.459738483	0.038574219	-0.216064453	-1.005371094	896.62	-15.89792701	-33.42305129	46.80609846	-82
49645	0	0.306884766	-0.202880859	0.23626709	0.99906826	0.036182404	0.000313759	0.02350235	7.672119141	-5.072021484	5.906677246	1.809681966	0.015692814	1.175482403	0.004638672	-0.226806641	-0.996582031	896.64	-13.43383756	-32.70267791	49.84112753	-87
49646	0	0.205767632	-0.069490433	0.288027763	0.999583244	0.02296257	0.000782013	0.017449379	5.144190788	-1.737260818	7.200694084	1.148287848	0.039106073	0.87259003	-0.023925781	-0.310058594	-0.971191406	896.64	-12.02319275	-32.17059313	52.10189193	-79
49647	0	0.203063965	-0.047058105	0.319396973	0.999502182	-0.022265434	-0.003421783	0.022075653	5.076599121	-1.176452637	7.984924316	-1.113456375	-0.171117551	1.103965742	-0.033203125	-0.323486328	-0.966552734	896.68	-16.1657169	-31.93100301	55.1041559	-74
49648	0	0.19980526	-0.102489471	0.31360054	0.999500275	-0.017724991	-0.011124611	0.023661613	4.995131493	-2.562236786	7.840013504	-0.886396992	-0.556323088	1.183277509	-0.044677734	-0.271484375	-0.983886719	896.58	-20.05875442	-32.29715176	58.58927718	-72
49649	0	0.267150879	-0.120056152	0.339477539	0.999808311	0.000930786	-0.007689476	0.017944336	6.678771973	-3.001403809	8.486938477	0.04654227	-0.384498283	0.897273929	-0.067626953	-0.243896484	-0.987304688	896.68	-21.36194804	-32.39281325	61.19805558	-73
49650	0	0.295450211	-0.128838539	0.317221642	0.999914169	-0.000460625	0.001065254	0.013002396	7.386255264	-3.220963478	7.930541039	-0.023031889	0.053264223	0.650138247	-0.096679688	-0.243652344	-0.985351563	896.64	-22.24734182	-31.72599801	62.75597834	-75
49651	0	0.290222168	-0.150634766	0.3203125	0.999883652	-0.009753227	0.005077362	0.010505676	7.255554199	-3.765869141	8.0078125	-0.487680161	0.25387789	0.525304063	-0.116455078	-0.238769531	-0.984375	896.64	-23.89350668	-30.72027232	63.78539069	-75
49652	0	0.324672699	-0.198638916	0.363855362	0.999843597	-0.013946533	0.009474754	0.005200386	8.116817474	-4.9659729	9.096384048	-0.697362847	0.473762301	0.260032796	-0.117431641	-0.207275391	-0.992431641	896.58	-25.53878211	-29.48779657	63.89599254	-74
49653	0	0.238037109	-0.197570801	0.315795898	0.999949455	0.006919861	0.006947517	0.00176239	5.950927734	-4.93927002	7.894897461	0.345998766	0.347381617	0.088120965	-0.110839844	-0.189208984	-0.997070313	896.58	-24.65731148	-28.6846091	63.71534502	-72
49654	0	0.215208054	-0.185832024	0.319952965	0.999885559	0.01488018	-0.001803398	-0.001631737	5.38020134	-4.645800591	7.99882412	0.744037211	-0.090173323	-0.081589929	-0.090576172	-0.209960938	-0.999511719	896.62	-22.90243084	-28.95227218	63.58761478	-71
49655	0	0.227478027	-0.13494873	0.349609375	0.999851227	0.015118599	-0.006584167	-0.004894257	5.686950684	-3.373718262	8.740234375	0.755967229	-0.32922461	-0.244724899	-0.079589844	-0.243896484	-0.991943359	896.64	-21.03402432	-29.86461503	63.2719356	-71
49656	0	0.199386597	-0.113828659	0.249584198	0.999876022	-0.000814438	-0.014508247	-0.005964279	4.984664917	-2.845716476	6.23960495	-0.040723568	-0.725442202	-0.298226223	-0.083740234	-0.268554688	-0.981201172	896.64	-21.10156388	-31.66484058	63.18497589	-72
49657	0	0.196166992	-0.129577637	0.282348633	0.999746323	-0.009875298	-0.019737244	-0.004314423	4.904174805	-3.239440918	7.05871582	-0.493806502	-0.986945377	-0.215739316	-0.101074219	-0.259277344	-0.980957031	896.62	-22.4764905	-33.95184769	63.58897326	-73
49658	0	0.164868355	-0.102340698	0.311358452	0.999814987	-0.009613991	-0.015845299	-0.005027771	4.12170887	-2.558517456	7.783961296	-0.48072909	-0.792313642	-0.251404004	-0.128662109	-0.238525391	-0.983398438	896.64	-23.70166094	-35.85069844	63.76056399	-74
49659	0	0.124206543	-0.078613281	0.30847168	0.999913216	-0.005744934	-0.010130882	-0.006008148	3.105163574	-1.965332031	7.711791992	-0.287254927	-0.506558613	-0.300416009	-0.165527344	-0.226806641	-0.976318359	896.62	-24.23755365	-37.19231319	63.53446579	-73
49660	0	0.115283966	-0.128458023	0.340831757	0.99997139	-0.003065109	-0.006148338	-0.002968788	2.882099152	-3.211450577	8.520793915	-0.153256893	-0.307419786	-0.148440793	-0.190185547	-0.219726563	-0.975341797	896.7	-24.56737003	-37.9731904	63.49157122	-73
49661	0	0.218505859	-0.137390137	0.373779297	0.999958038	0.008900642	0.000228882	0.001976013	5.462646484	-3.434753418	9.344482422	0.445038289	0.01144425	0.098802029	-0.20703125	-0.221679688	-0.9765625	896.64	-23.69212869	-37.85389596	63.72134347	-73
49662	0	0.278716087	-0.106391907	0.330066681	0.999992371	-0.002331734	0.001547813	0.002717018	6.967902184	-2.659797668	8.251667023	-0.116586981	0.077390867	0.135851251	-0.214111328	-0.232910156	-0.969726563	896.62	-24.11509886	-37.56282294	63.99232938	-73
49663	0	0.266174316	-0.137695313	0.256713867	0.999984741	-0.004694939	0.002510071	0.000843048	6.65435791	-3.442382813	6.41784668	-0.23474807	0.125504148	0.042152609	-0.214355469	-0.223876953	-0.970458984	896.64	-24.62150478	-37.25890368	63.95829292	-73
49664	0	0.286383629	-0.145335197	0.242032051	0.999997139	0.000226021	-0.000362396	-0.001924515	7.159590721	-3.633379936	6.050801277	0.011301048	-0.018119824	-0.096225801	-0.209716797	-0.217041016	-0.976806641	896.58	-24.4484831	-37.387277	63.71917502	-73
49665	0	0.249694824	-0.13293457	0.291992188	0.999996185	0.001885414	0.001281738	-0.001525879	6.242370605	-3.323364258	7.299804688	0.094270824	0.064086994	-0.076294041	-0.204589844	-0.221679688	-0.976806641	896.58	-24.05735495	-37.32410912	63.4318688	-73
49666	0	0.22322464	-0.120153427	0.27977562	0.999994278	-0.000149727	0.001103401	-0.003077507	5.580615997	-3.003835678	6.994390488	-0.007486357	0.055170158	-0.153875626	-0.204589844	-0.224121094	-0.9765625	896.56	-23.78202087	-37.3501256	62.95430672	-73
49667	0	0.240112305	-0.129760742	0.293212891	0.999998093	0.000710487	0.000556946	-0.001411438	6.002807617	-3.244018555	7.330322266	0.035524385	0.027847303	-0.070571932	-0.202148438	-0.226318359	-0.973876953	896.68	-23.56049076	-37.35500305	62.72759417	-73
49668	0	0.236242294	-0.125026703	0.285779953	0.999999046	0.000100136	0.000207901	-0.000973701	5.906057358	-3.125667572	7.144498825	0.005006791	0.010395052	-0.048685082	-0.194824219	-0.226318359	-0.977050781	896.62	-23.45615904	-37.37590742	62.57153283	-73
49669	0	0.233398438	-0.12677002	0.287963867	0.999999046	-0.000137329	-0.000144005	-0.000888824	5.834960938	-3.169250488	7.19909668	-0.006866456	-0.007200242	-0.044441229	-0.194580078	-0.228759766	-0.976806641	896.56	-23.39797553	-37.42958582	62.4482712	-73
49670	0	0.238224983	-0.128012657	0.286333084	0.999999046	0.000293732	-0.000225067	-0.001141548	5.95562458	-3.200316429	7.158327103	0.014686588	-0.01125336	-0.057077422	-0.194580078	-0.228759766	-0.976806641	896.62	-23.272663	-37.50300087	62.29484538	-73
49671	0	0.236938477	-0.123901367	0.287963867	0.999999046	0.000553131	-0.000288963	-0.000923157	5.923461914	-3.09753418	7.19909668	0.027656561	-0.014448169	-0.046157846	-0.194580078	-0.228759766	-0.979492188	896.64	-23.1371317	-37.5728736	62.17127159	-73
49672	0	0.236234665	-0.123576164	0.286865234	0.999999046	0.00011158	-0.000551224	-0.000705719	5.905866623	-3.089404106	7.171630859	0.005578996	-0.027561191	-0.035285954	-0.194580078	-0.230957031	-0.976806641	896.68	-23.078631	-37.66030911	62.09266367	-73
49673	0	0.239013672	-0.122131348	0.285705566	0.999999046	2.67029E-05	-0.000624657	-0.00030899	5.975341797	-3.053283691	7.14263916	0.001335144	-0.031232836	-0.015449525	-0.194580078	-0.230957031	-0.976806641	896.64	-23.06453472	-37.73755116	62.06970702	-73
49674	0	0.239689827	-0.123188972	0.284862518	0.999999046	-0.000312805	-0.000295639	4.19617E-05	5.992245674	-3.079724312	7.121562958	-0.015640259	-0.014781952	0.002098084	-0.194580078	-0.230957031	-0.976806641	896.64	-23.10655243	-37.76427321	62.07482104	-73
49675	0	0.239440918	-0.12487793	0.285583496	0.999999046	-0.000190735	-0.000128746	8.39233E-05	5.986022949	-3.121948242	7.139587402	-0.009536743	-0.006437302	0.004196167	-0.194824219	-0.228759766	-0.974121094	896.58	-23.13225623	-37.77142443	62.07547552	-73
49676	0	0.237419128	-0.123380661	0.288221359	0.999999046	-0.000264168	-0.000261307	0.00014019	5.93547821	-3.084516525	7.205533981	-0.01320839	-0.013065338	0.007009506	-0.194580078	-0.230957031	-0.973876953	896.58	-23.1755835	-37.78986397	62.09277415	-73
49677	0	0.237487793	-0.124511719	0.286315918	0.999999046	-0.000469208	-0.000590324	0.000289917	5.937194824	-3.112792969	7.157897949	-0.023460391	-0.029516223	0.014495851	-0.194580078	-0.228759766	-0.976806641	896.52	-23.26624802	-37.83604866	62.14590453	-73
49678	0	0.239338875	-0.124613762	0.285060883	0.999999046	-0.000391006	-0.000823975	0.000113487	5.98347187	-3.115344048	7.126522064	-0.019550326	-0.041198736	0.005674363	-0.194580078	-0.230957031	-0.973876953	896.64	-23.3418887	-37.91467004	62.19113365	-73
49679	0	0.239318848	-0.125427246	0.285522461	0.999999046	-0.00037384	-0.000792503	8.39233E-05	5.982971191	-3.135681152	7.138061523	-0.018692019	-0.039625173	0.004196168	-0.197265625	-0.226318359	-0.974121094	896.68	-23.41221442	-37.99117511	62.22844411	-73
49680	0	0.239263535	-0.127207756	0.286085129	0.999999046	-0.000172615	-0.00069046	-2.76566E-05	5.981588364	-3.180193901	7.15212822	-0.008630753	-0.034523013	-0.001382828	-0.197265625	-0.224121094	-0.977050781	896.62	-23.44685775	-38.06187809	62.24166352	-74
49681	0	0.239562988	-0.126342773	0.286010742	0.999999046	-0.000137329	-0.000937462	3.8147E-06	5.989074707	-3.158569336	7.150268555	-0.006866456	-0.0468731	0.000190735	-0.199707031	-0.224121094	-0.976806641	896.74	-23.48898565	-38.15696963	62.27453323	-73
49682	0	0.240156174	-0.125385284	0.284121513	0.999999046	2.09808E-05	-0.00087738	-0.000134468	6.003904343	-3.134632111	7.103037834	0.001049042	-0.043869024	-0.006723405	-0.199707031	-0.226318359	-0.976806641	896.7	-23.49950181	-38.2519448	62.28604928	-73
49683	0	0.240966797	-0.126647949	0.282836914	0.999999046	7.24792E-05	-0.000842094	-0.000305176	6.024169922	-3.16619873	7.070922852	0.003623963	-0.042104727	-0.015258791	-0.202148438	-0.226318359	-0.973876953	896.64	-23.48875326	-38.35091208	62.27438211	-73
49684	0	0.241583824	-0.125178337	0.284706116	0.999999046	9.05991E-05	-0.000740051	-0.000294685	6.039595604	-3.129458427	7.117652893	0.004529953	-0.037002567	-0.01473427	-0.204589844	-0.226318359	-0.976318359	896.62	-23.47307786	-38.43856058	62.25800663	-73
49685	0	0.240600586	-0.124267578	0.283508301	0.999999046	6.48499E-05	-0.000922203	-0.000217438	6.015014648	-3.106689453	7.08770752	0.003242493	-0.04611016	-0.010871889	-0.204589844	-0.228515625	-0.973388672	896.76	-23.47337319	-38.54170753	62.26388446	-73
49686	0	0.242640495	-0.124858856	0.282160759	0.999999046	0.000118256	-0.000995636	-3.52859E-05	6.066012383	-3.121471405	7.054018974	0.005912782	-0.049781808	-0.001764298	-0.20703125	-0.228515625	-0.970703125	896.64	-23.48554754	-38.64416645	62.29971016	-73
49687	0	0.242248535	-0.124267578	0.281066895	0.999999046	8.01086E-05	-0.000739098	-3.43323E-05	6.056213379	-3.106689453	7.026672363	0.004005432	-0.036954883	-0.001716614	-0.20703125	-0.226318359	-0.973632813	896.62	-23.49291926	-38.71952438	62.31646288	-73
49688	0	0.242856026	-0.123474121	0.281276703	0.999999046	8.58307E-06	-0.000545502	3.8147E-05	6.071400642	-3.086853027	7.031917572	0.000429153	-0.027275087	0.001907349	-0.20703125	-0.228515625	-0.973388672	896.62	-23.50753774	-38.77113316	62.3329027	-73
49689	0	0.2421875	-0.123168945	0.282714844	0.999999046	-0.000255585	-0.000529289	0.000225067	6.0546875	-3.079223633	7.067871094	-0.012779237	-0.026464464	0.011253358	-0.209472656	-0.226074219	-0.973388672	896.62	-23.56764418	-38.81235789	62.373351	-73
49690	0	0.243283272	-0.124948502	0.280744553	0.999999046	-0.000247955	-0.000326157	0.000267029	6.082081795	-3.12371254	7.018613815	-0.012397767	-0.016307831	0.013351441	-0.209472656	-0.226074219	-0.973388672	896.74	-23.6230185	-38.83020174	62.40768035	-73
49691	0	0.242919922	-0.123962402	0.280151367	0.999999046	-0.00019455	-9.44138E-05	0.00025177	6.072998047	-3.099060059	7.00378418	-0.009727478	-0.004720688	0.012588501	-0.211914063	-0.226074219	-0.973144531	896.64	-23.662428	-38.82430987	62.42890392	-73
49692	0	0.243703842	-0.125476837	0.28207016	0.999999046	-0.000163078	5.53131E-05	0.000289917	6.092596054	-3.136920929	7.051753998	-0.008153916	0.002765656	0.01449585	-0.211914063	-0.226074219	-0.970458984	896.68	-23.69591292	-38.80083833	62.44795351	-73
49693	0	0.243530273	-0.125671387	0.281188965	0.999999046	3.8147E-05	0.000115395	0.0001297	6.088256836	-3.141784668	7.029724121	0.001907349	0.00576973	0.006484985	-0.211914063	-0.226074219	-0.973144531	896.64	-23.69062303	-38.77834558	62.44104585	-73
49694	0	0.242334366	-0.125591278	0.28155899	1	3.14713E-05	5.24521E-05	7.62939E-06	6.058359146	-3.139781952	7.038974762	0.001573563	0.002622604	0.00038147	-0.211914063	-0.226074219	-0.973144531	896.58	-23.67816484	-38.76796794	62.42157627	-73
49695	0	0.242919922	-0.125793457	0.282714844	0.999999046	0.000209808	2.00272E-05	1.14441E-05	6.072998047	-3.144836426	7.067871094	0.010490418	0.001001358	0.000572205	-0.211914063	-0.226074219	-0.975830078	896.7	-23.6468205	-38.76070136	62.40323917	-73
49696	0	0.2423563	-0.124339104	0.28112793	0.999999046	7.34329E-05	0.000135422	-5.05447E-05	6.058907509	-3.108477592	7.028198242	0.003671646	0.006771088	-0.002527237	-0.211914063	-0.226074219	-0.970458984	896.64	-23.62162886	-38.7440695	62.37215681	-73
49697	0	0.243347168	-0.125915527	0.281738281	0.999999046	0.000255585	0.000401497	0.000102997	6.083679199	-3.147888184	7.043457031	0.012779236	0.020074845	0.005149842	-0.209472656	-0.228515625	-0.970458984	896.64	-23.57877455	-38.69235021	62.34648344	-74
49698	0	0.241871834	-0.124599457	0.285230637	0.999999046	0.000259399	0.000314713	-0.000156403	6.046795845	-3.11498642	7.130765915	0.012969971	0.015735627	-0.00782013	-0.211914063	-0.226074219	-0.970458984	896.7	-23.51689574	-38.66146965	62.29121076	-73
49699	0	0.242248535	-0.123596191	0.282714844	0.999999046	0.000236511	0.000149727	3.8147E-06	6.056213379	-3.089904785	7.067871094	0.011825562	0.007486343	0.000190735	-0.209472656	-0.226074219	-0.973388672	896.58	-23.47719362	-38.64047608	62.26364524	-73
49700	0	0.242162704	-0.125418663	0.282235146	0.999999046	0.000166893	0.000144958	5.24521E-05	6.054067612	-3.135466576	7.055878639	0.00834465	0.007247925	0.002622604	-0.206787109	-0.228515625	-0.976074219	896.68	-23.44979641	-38.61766177	62.24181908	-74
49701	0	0.241638184	-0.123474121	0.282836914	0.999999046	0.000217438	7.34329E-05	-2.67029E-05	6.04095459	-3.086853027	7.070922852	0.010871887	0.003671646	-0.001335144	-0.209472656	-0.228515625	-0.970458984	896.62	-23.41255971	-38.60587642	62.21834226	-73
49702	0	0.24202919	-0.124436378	0.283230782	0.999998093	-3.8147E-05	3.71933E-05	6.38962E-05	6.050729752	-3.110909462	7.080769539	-0.001907349	0.001859665	0.003194809	-0.206787109	-0.230712891	-0.973144531	896.74	-23.4135656	-38.59367941	62.2078453	-73
49703	0	0.241821289	-0.123840332	0.281921387	0.999999046	-2.67029E-05	4.76837E-06	0.000205994	6.045532227	-3.096008301	7.048034668	-0.001335144	0.000238419	0.010299683	-0.20703125	-0.228515625	-0.973388672	896.7	-23.4263849	-38.57834759	62.21656284	-73
49704	0	0.242621422	-0.124260902	0.282342911	0.999999046	-4.48227E-05	0.000213623	0.000179291	6.065535545	-3.10652256	7.058572769	-0.002241135	0.010681152	0.008964539	-0.209228516	-0.228515625	-0.973144531	896.62	-23.43146029	-38.54220827	62.21250647	-73
49705	0	0.241760254	-0.124694824	0.282897949	0.999999046	0	0.000184059	0.000221252	6.044006348	-3.117370605	7.07244873	0	0.009202957	0.011062622	-0.20703125	-0.226318359	-0.976318359	896.56	-23.43602758	-38.50718418	62.21063616	-73
49706	0	0.241516113	-0.125366211	0.28503418	0.999999046	-2.67029E-05	0.000232697	9.15527E-05	6.037902832	-3.134155273	7.125854492	-0.001335144	0.011634827	0.004577637	-0.20703125	-0.226318359	-0.976318359	896.74	-23.43106333	-38.4728543	62.18938373	-73
49707	0	0.241223335	-0.124662399	0.28409481	0.999998093	0.000132561	-3.14713E-05	4.19617E-05	6.030583382	-3.116559982	7.102370262	0.006628037	-0.001573563	0.002098084	-0.204345703	-0.228515625	-0.976318359	896.64	-23.41329261	-38.46846876	62.17631403	-73
49708	0	0.241696358	-0.124928474	0.284331322	0.999999046	0.00014782	-6.29425E-05	3.05176E-05	6.042408943	-3.123211861	7.108283043	0.007390976	-0.003147125	0.001525879	-0.204589844	-0.228515625	-0.973388672	896.64	-23.39396827	-38.46782803	62.16492553	-73
49709	0	0.241333008	-0.123962402	0.281677246	1	2.00272E-05	-7.62939E-06	-1.52588E-05	6.033325195	-3.099060059	7.041931152	0.001001358	-0.00038147	-0.000762939	-0.20703125	-0.228515625	-0.973388672	896.66	-23.38347881	-38.46339667	62.14688188	-73
49710	0	0.241035461	-0.12528801	0.283875465	0.999999046	0.000116348	4.95911E-05	-2.38419E-05	6.025886536	-3.132200241	7.096886635	0.005817413	0.002479553	-0.001192093	-0.204345703	-0.228515625	-0.976318359	896.68	-23.35921491	-38.45324289	62.12034075	-74
49711	0	0.241577148	-0.123840332	0.283203125	0.999999046	0.000125885	-6.67572E-06	7.24792E-05	6.039428711	-3.096008301	7.080078125	0.006294251	-0.000333786	0.003623962	-0.204589844	-0.226318359	-0.973632813	896.66	-23.34395122	-38.44456393	62.10921133	-73
49712	0	0.240539551	-0.124328613	0.283203125	0.999999046	6.19888E-05	4.19617E-05	3.8147E-05	6.01348877	-3.108215332	7.080078125	0.003099442	0.002098083	0.001907349	-0.201904297	-0.228515625	-0.976318359	896.62	-23.33141797	-38.43224593	62.08926187	-73
49713	0	0.241942406	-0.124055862	0.283658028	0.999998093	-7.62939E-06	0.000260353	7.82013E-05	6.048560143	-3.101396561	7.091450691	-0.00038147	0.013017655	0.003910065	-0.204589844	-0.228515625	-0.973388672	896.7	-23.32235698	-38.39507315	62.06725799	-73
49714	0	0.241238594	-0.125295639	0.286013603	0.999999046	0.000190735	0.000329971	1.04904E-05	6.030964851	-3.132390976	7.15034008	0.009536743	0.016498566	0.000524521	-0.202148438	-0.228515625	-0.973632813	896.62	-23.28248047	-38.35354054	62.03000254	-73
49715	0	0.240478516	-0.123413086	0.286132813	0.999999046	0.000267029	0.00011158	2.67029E-05	6.011962891	-3.085327148	7.153320313	0.013351441	0.005578995	0.001335144	-0.204589844	-0.226318359	-0.976318359	896.7	-23.24306058	-38.33415425	62.00653528	-73
49716	0	0.241384506	-0.124373436	0.284726143	0.999999046	2.95639E-05	-8.01086E-05	0.000156403	6.034612656	-3.109335899	7.118153572	0.001478195	-0.004005432	0.007820129	-0.202148438	-0.228515625	-0.973632813	896.7	-23.24853186	-38.32901785	62.01264424	-73
49717	0	0.240478516	-0.122497559	0.285705566	0.999999046	0.000133514	-0.000182152	0.000110626	6.011962891	-3.062438965	7.14263916	0.00667572	-0.00910759	0.005531311	-0.202148438	-0.228515625	-0.973632813	896.56	-23.24189882	-38.3366198	62.01805335	-73
49718	0	0.240722656	-0.124145508	0.28515625	0.999999046	-0.000167847	7.62939E-05	0.000240326	6.018066406	-3.103637695	7.12890625	-0.008392334	0.003814697	0.012016297	-0.199462891	-0.228515625	-0.9765625	896.64	-23.2713673	-38.31106746	62.02249169	-73
49719	0	0.241017342	-0.123272896	0.286077499	0.999998093	5.24521E-05	1.52588E-05	0.000156403	6.02543354	-3.081822395	7.151937485	0.002622604	0.000762939	0.007820129	-0.201904297	-0.228515625	-0.976318359	896.74	-23.2707606	-38.29567015	62.02239823	-74
49720	0	0.240587234	-0.124257088	0.284505844	0.999999046	-3.71933E-05	1.90735E-05	0.000106812	6.014680862	-3.106427193	7.112646103	-0.001859665	0.000953674	0.005340576	-0.201904297	-0.228515625	-0.979003906	896.64	-23.2761861	-38.28205476	62.01462415	-73
49721	0	0.24041748	-0.124328613	0.286621094	0.999999046	-2.67029E-05	-5.24521E-05	0.000125885	6.010437012	-3.108215332	7.165527344	-0.001335144	-0.002622604	0.006294251	-0.202148438	-0.228515625	-0.973632813	896.62	-23.28454178	-38.27502384	62.01678673	-73
49722	0	0.240782738	-0.124526978	0.285245895	1	-1.43051E-05	2.95639E-05	1.90735E-05	6.019568443	-3.113174438	7.131147385	-0.000715256	0.001478195	0.000953674	-0.201904297	-0.230712891	-0.973388672	896.64	-23.27968541	-38.26413751	62.00265244	-73
49723	0	0.240478516	-0.123474121	0.285095215	0.999999046	0.000156403	-5.24521E-05	-7.62939E-06	6.011962891	-3.086853027	7.127380371	0.007820129	-0.002622604	-0.00038147	-0.199707031	-0.228515625	-0.973876953	896.62	-23.25598429	-38.26302759	61.98402191	-73
49724	0	0.240876198	-0.123137474	0.285595894	0.999999046	-2.19345E-05	-0.000175476	3.05176E-05	6.021904945	-3.078436852	7.139897346	-0.001096725	-0.008773804	0.001525879	-0.199462891	-0.228515625	-0.9765625	896.7	-23.26026213	-38.27308457	61.97596226	-73
49725	0	0.240783691	-0.123962402	0.28503418	0.999999046	1.52588E-05	-0.000235558	8.01086E-05	6.019592285	-3.099060059	7.125854492	0.000762939	-0.011777878	0.004005432	-0.199707031	-0.228515625	-0.973876953	896.76	-23.26654668	-38.28716924	61.9795018	-73
49726	0	0.239982605	-0.123443604	0.28571701	0.999999046	0.000110626	-0.000207901	0.000113487	5.999565125	-3.086090088	7.142925262	0.005531311	-0.01039505	0.005674362	-0.201904297	-0.226318359	-0.979248047	896.7	-23.26368158	-38.2967566	61.9827718	-73
49727	0	0.239990234	-0.124145508	0.285766602	0.999999046	3.43323E-05	-0.000426292	8.7738E-05	5.999755859	-3.103637695	7.144165039	0.001716614	-0.021314622	0.004386902	-0.202148438	-0.226318359	-0.973876953	896.64	-23.27523206	-38.33042537	61.99762153	-74
49728	0	0.240884781	-0.124290466	0.286850929	0.999999046	2.57492E-05	-0.000553131	8.7738E-05	6.022119522	-3.107261658	7.171273232	0.00128746	-0.027656557	0.004386902	-0.201904297	-0.228515625	-0.976318359	896.62	-23.29232684	-38.37736373	62.01981974	-73
49729	0	0.241027832	-0.123474121	0.285400391	0.999999046	-0.0001297	-0.000430107	0.000179291	6.025695801	-3.086853027	7.135009766	-0.006484986	-0.021505357	0.008964539	-0.202148438	-0.228515625	-0.970947266	896.62	-23.33047054	-38.40713571	62.05004608	-74
49730	0	0.241228104	-0.124550819	0.284915924	0.999999046	-0.000110626	-0.000699997	0.000292778	6.030702591	-3.113770485	7.122898102	-0.005531312	-0.034999851	0.014638902	-0.201904297	-0.228515625	-0.976318359	896.52	-23.38569386	-38.46006075	62.10684105	-73
49731	0	0.241271973	-0.124023438	0.283813477	0.999999046	-0.000110626	-0.000617027	0.000232697	6.031799316	-3.100585938	7.095336914	-0.005531311	-0.030851366	0.011634828	-0.204589844	-0.228515625	-0.973388672	896.64	-23.43299304	-38.50690558	62.15491688	-73
49732	0	0.241744995	-0.124931335	0.282204628	0.999999046	-9.25064E-05	-0.000656128	0.000144005	6.043624878	-3.123283386	7.0551157	-0.004625321	-0.032806399	0.007200242	-0.202148438	-0.226318359	-0.973876953	896.58	-23.47232948	-38.56183407	62.18630896	-73
49733	0	0.241638184	-0.123718262	0.281799316	0.999999046	-0.000190735	-0.000510216	0.000144958	6.04095459	-3.092956543	7.04498291	-0.009536744	-0.025510789	0.007247925	-0.20703125	-0.223876953	-0.973632813	896.52	-23.51775582	-38.60133061	62.2123732	-74
49734	0	0.2423172	-0.125727654	0.282297134	0.999999046	-0.000141144	-0.000551224	0.000227928	6.057929993	-3.143191338	7.05742836	-0.00705719	-0.027561189	0.011396409	-0.204589844	-0.226318359	-0.973632813	896.62	-23.56605052	-38.64127403	62.25143999	-74
49735	0	0.240600586	-0.125305176	0.283935547	0.999999046	2.28882E-05	-0.000590324	-1.90735E-05	6.015014648	-3.132629395	7.098388672	0.001144409	-0.029516222	-0.000953674	-0.20703125	-0.226318359	-0.976318359	896.62	-23.57628721	-38.69653666	62.26011196	-73
49736	0	0.242160797	-0.124611855	0.283165932	0.999999046	-6.00815E-05	-0.00103569	7.62939E-05	6.054019928	-3.115296364	7.079148293	-0.003004075	-0.051784525	0.003814698	-0.20703125	-0.226074219	-0.970703125	896.5	-23.62049743	-38.79412694	62.30862718	-73
49737	0	0.242797852	-0.12487793	0.280822754	0.999999046	-0.00012207	-0.000990868	6.10352E-05	6.069946289	-3.121948242	7.020568848	-0.006103517	-0.049543389	0.003051758	-0.209472656	-0.226074219	-0.973388672	896.56	-23.6690522	-38.88764143	62.35234539	-73
49738	0	0.243644714	-0.123695374	0.280675888	0.999999046	-0.0001297	-0.000749588	0.000137329	6.091117859	-3.092384338	7.016897202	-0.006484986	-0.037479404	0.006866456	-0.209472656	-0.223876953	-0.973632813	896.64	-23.71610842	-38.95225896	62.38805881	-73
49739	0	0.243347168	-0.125732422	0.281188965	0.999999046	-0.000137329	-0.000758171	-7.62939E-06	6.083679199	-3.143310547	7.029724121	-0.006866456	-0.037908558	-0.00038147	-0.211914063	-0.223876953	-0.973388672	896.56	-23.75217312	-39.0243827	62.40709861	-73
49740	0	0.243591309	-0.1239748	0.280418396	0.999999046	-0.000163078	-0.000738144	6.10352E-05	6.089782715	-3.099370003	7.0104599	-0.008153916	-0.0369072	0.003051758	-0.214355469	-0.223876953	-0.973144531	896.64	-23.7963418	-39.09117737	62.43663237	-73
49741	0	0.243896484	-0.125427246	0.278991699	0.999999046	-0.000240326	-0.000674248	4.19617E-05	6.097412109	-3.135681152	6.97479248	-0.012016297	-0.03371239	0.002098084	-0.214355469	-0.223876953	-0.970458984	896.52	-23.84544555	-39.15209636	62.46080099	-73
49742	0	0.245181084	-0.125827789	0.281041145	0.999999046	-6.10352E-05	-0.000635147	8.67844E-05	6.129527092	-3.145694733	7.026028633	-0.003051758	-0.031757357	0.004339218	-0.217041016	-0.221435547	-0.970458984	896.62	-23.87643049	-39.20677165	62.48800777	-73
49743	0	0.245117188	-0.125549316	0.281066895	0.999999046	-6.10352E-05	-0.000617027	0.00012207	6.127929688	-3.13873291	7.026672363	-0.003051758	-0.030851366	0.006103516	-0.216796875	-0.223876953	-0.970214844	896.68	-23.90980318	-39.2578402	62.52094394	-73
49744	0	0.244700432	-0.125826836	0.280199051	0.999999046	-0.000138283	-0.00069809	3.43323E-05	6.117510796	-3.145670891	7.004976273	-0.006914139	-0.034904483	0.001716614	-0.216796875	-0.223876953	-0.970214844	896.64	-23.94766735	-39.32139685	62.54579398	-74
49745	0	0.245605469	-0.12512207	0.27947998	0.999999046	-4.57764E-05	-0.000597954	8.39233E-05	6.140136719	-3.128051758	6.986999512	-0.002288818	-0.029897692	0.004196167	-0.219238281	-0.223876953	-0.972900391	896.68	-23.97542473	-39.37210256	62.57194226	-73
49746	0	0.246100426	-0.125067711	0.278502464	0.999999046	-4.19617E-05	-0.000463486	0.000167847	6.152510643	-3.126692772	6.962561607	-0.002098084	-0.023174287	0.008392334	-0.217041016	-0.221435547	-0.970458984	896.58	-24.00486046	-39.40476971	62.59589325	-73
49747	0	0.246765137	-0.125061035	0.278930664	0.999999046	-8.7738E-05	-8.29697E-05	5.72205E-05	6.169128418	-3.126525879	6.973266602	-0.004386902	-0.004148483	0.002861023	-0.219482422	-0.223632813	-0.967529297	896.74	-24.01546234	-39.40273315	62.59080718	-73
49748	0	0.246796608	-0.125138283	0.278866768	0.999999046	5.05447E-05	8.96454E-05	0.00019455	6.169915199	-3.128457069	6.971669197	0.002527237	0.004482269	0.009727478	-0.221679688	-0.223876953	-0.97265625	896.52	-24.0154063	-39.37619425	62.59452276	-73
49749	0	0.245239258	-0.125976563	0.280029297	0.999999046	-7.24792E-05	6.58035E-05	0.000240326	6.130981445	-3.149414063	7.000732422	-0.003623962	0.003290176	0.012016297	-0.219238281	-0.221435547	-0.973144531	896.64	-24.03428721	-39.34994164	62.59959136	-73
49750	0	0.246484756	-0.125342369	0.280286789	0.999999046	0.000125885	0.000116348	0.000160217	6.162118912	-3.133559227	7.007169724	0.006294251	0.005817413	0.008010864	-0.219238281	-0.221435547	-0.973144531	896.66	-24.021608	-39.32209336	62.59131273	-73
49751	0	0.245605469	-0.125793457	0.278686523	0.999999046	2.67029E-05	6.96182E-05	0.000160217	6.140136719	-3.144836426	6.967163086	0.001335144	0.003480911	0.008010864	-0.219482422	-0.221435547	-0.970458984	896.56	-24.02209346	-39.29910187	62.58864489	-74
49752	0	0.245483398	-0.125	0.279052734	0.999999046	0.000260353	0.000221252	0.000118256	6.137084961	-3.125	6.976318359	0.013017655	0.011062622	0.005912781	-0.219238281	-0.221435547	-0.973144531	896.58	-23.98642517	-39.26215494	62.56945846	-73
49753	0	0.245538712	-0.125650406	0.27845192	0.999998093	8.29697E-05	0.000384331	0.000124931	6.138467789	-3.141260147	6.961297989	0.004148483	0.019216538	0.006246567	-0.219238281	-0.223876953	-0.972900391	896.68	-23.96549988	-39.20779524	62.54646981	-73
49754	0	0.244572639	-0.126515388	0.282161713	0.999999046	0.000263214	0.000570297	-4.29153E-05	6.114315987	-3.162884712	7.054042816	0.013160706	0.028514864	-0.002145767	-0.219482422	-0.221435547	-0.970458984	896.58	-23.90261803	-39.14166878	62.48957995	-73
49755	0	0.243347168	-0.12487793	0.282043457	0.999999046	0.000228882	0.000302315	0.000171661	6.083679199	-3.121948242	7.051086426	0.011444092	0.015115738	0.008583069	-0.216796875	-0.223876953	-0.973144531	896.62	-23.87215818	-39.09354779	62.4762511	-73
49756	0	0.244233131	-0.126176834	0.2807827	0.999999046	0.000300407	0.000127792	9.15527E-05	6.105828285	-3.154420853	7.01956749	0.015020371	0.006389618	0.004577637	-0.216796875	-0.223876953	-0.970214844	896.64	-23.83330439	-39.06737631	62.46443631	-73
49757	0	0.244750977	-0.123596191	0.281616211	0.999999046	0.000213623	8.10623E-05	6.10352E-05	6.118774414	-3.089904785	7.040405273	0.010681152	0.004053116	0.003051758	-0.216796875	-0.223876953	-0.973144531	896.7	-23.8035303	-39.04747266	62.44933625	-73
49758	0	0.243347168	-0.125214577	0.282501221	0.999999046	0.000110626	0.000125885	3.71933E-05	6.083679199	-3.130364418	7.062530518	0.005531311	0.006294251	0.001859665	-0.211914063	-0.223876953	-0.976074219	896.64	-23.78185257	-39.02388741	62.41978049	-73
49759	0	0.243103027	-0.124511719	0.281677246	0.999999046	0.000190735	4.29153E-05	6.10352E-05	6.077575684	-3.112792969	7.041931152	0.009536743	0.002145767	0.003051758	-0.211914063	-0.226074219	-0.970458984	896.58	-23.75612967	-39.00784872	62.40557225	-73
49760	0	0.243247032	-0.125044823	0.28082943	0.999999046	0.000100136	6.48499E-05	3.71933E-05	6.081175804	-3.126120567	7.020735741	0.00500679	0.003242493	0.001859665	-0.211914063	-0.223876953	-0.973388672	896.62	-23.73795937	-38.99055606	62.38211397	-73
49761	0	0.243530273	-0.125549316	0.280761719	0.999999046	6.10352E-05	0.000279427	6.48499E-05	6.088256836	-3.13873291	7.019042969	0.003051758	0.013971329	0.003242493	-0.211914063	-0.226074219	-0.973144531	896.6	-23.71865332	-38.94944133	62.35441772	-74
49762	0	0.243173599	-0.124936104	0.282437325	0.999999046	4.3869E-05	0.000205994	0.000117302	6.079339981	-3.123402596	7.060933113	0.002193451	0.010299683	0.005865097	-0.211914063	-0.223876953	-0.973388672	896.58	-23.70851932	-38.91355305	62.33582619	-73
49763	0	0.242858887	-0.125488281	0.283447266	0.999999046	7.24792E-05	0.000252724	6.48499E-05	6.071472168	-3.137207031	7.086181641	0.003623962	0.012636185	0.003242493	-0.209472656	-0.226318359	-0.976074219	896.62	-23.6889496	-38.87510844	62.30672347	-73
49764	0	0.243041992	-0.123901367	0.28137207	0.999999046	4.29153E-05	0.000202179	0.000141144	6.076049805	-3.09753418	7.034301758	0.002145767	0.010108948	0.00705719	-0.209472656	-0.223876953	-0.976318359	896.64	-23.6811061	-38.83842135	62.28828674	-73
49765	0	0.243124962	-0.124842644	0.281699181	0.999998093	7.62939E-06	9.25064E-05	7.82013E-05	6.078124046	-3.121066093	7.042479515	0.00038147	0.00462532	0.003910065	-0.211914063	-0.223876953	-0.976074219	896.52	-23.6760709	-38.8161174	62.27268193	-73
49766	0	0.242113113	-0.124824524	0.281850815	0.999999046	-5.53131E-05	0.000110626	0.000136375	6.052827835	-3.120613098	7.04627037	-0.002765656	0.005531311	0.006818771	-0.209472656	-0.226074219	-0.970703125	896.56	-23.68250058	-38.78919936	62.26813352	-73
49767	0	0.242736816	-0.12512207	0.282104492	0.999999046	9.53674E-05	0.000187874	8.39233E-05	6.06842041	-3.128051758	7.052612305	0.004768372	0.009393692	0.004196167	-0.211914063	-0.226074219	-0.970458984	896.52	-23.66440382	-38.75656094	62.25656457	-73
49768	0	0.242365837	-0.125170708	0.282157898	0.999999046	5.62668E-05	0.000114441	0.000151634	6.059145927	-3.129267693	7.053947449	0.002813339	0.005722046	0.007581711	-0.209472656	-0.226074219	-0.973388672	896.52	-23.65922369	-38.72847257	62.25320967	-73
49769	0	0.242004395	-0.124938965	0.28137207	0.999999046	0.000110626	0.000206947	3.05176E-05	6.050109863	-3.123474121	7.034301758	0.005531311	0.010347366	0.001525879	-0.20703125	-0.226318359	-0.976318359	896.58	-23.63423535	-38.69620832	62.22355878	-73
49770	0	0.24267292	-0.124341965	0.283146858	0.999999046	0.000196457	9.72748E-05	5.72205E-05	6.066823006	-3.108549118	7.078671455	0.009822846	0.004863739	0.002861023	-0.20703125	-0.226318359	-0.973632813	896.64	-23.60570377	-38.67419789	62.2060695	-73
49771	0	0.24206543	-0.123046875	0.281555176	0.999999046	6.86646E-05	0.000180244	8.01086E-05	6.051635742	-3.076171875	7.038879395	0.003433228	0.009012222	0.004005432	-0.209472656	-0.226074219	-0.973388672	896.56	-23.59069045	-38.64241537	62.19121513	-73
49772	0	0.24206543	-0.125427246	0.282879829	0.999999046	2.38419E-05	0.000331879	0.000121117	6.051635742	-3.135681152	7.071995735	0.001192093	0.016593933	0.006055832	-0.20703125	-0.226318359	-0.973632813	896.64	-23.57874031	-38.59279115	62.17084884	-73
49773	0	0.241333008	-0.124267578	0.284301758	0.999999046	0.000190735	0.000290871	0.000202179	6.033325195	-3.106689453	7.107543945	0.009536743	0.014543534	0.010108948	-0.204589844	-0.223876953	-0.973876953	896.7	-23.55596449	-38.5437014	62.1569599	-73
49774	0	0.241605759	-0.124012947	0.284061432	0.999999046	7.82013E-05	0.000179291	0.000144005	6.040143967	-3.100323677	7.101535797	0.003910065	0.008964539	0.007200241	-0.206787109	-0.228515625	-0.978759766	896.66	-23.54529369	-38.5089748	62.14991683	-73
49775	0	0.241271973	-0.125671387	0.283691406	0.999999046	4.57764E-05	-7.9155E-05	9.53674E-05	6.031799316	-3.141784668	7.092285156	0.002288818	-0.003957748	0.004768372	-0.204589844	-0.226318359	-0.976318359	896.62	-23.5437096	-38.50358402	62.14642525	-74
49776	0	0.241292953	-0.124166489	0.283541679	0.999999046	0.000218391	-3.62396E-05	4.86374E-05	6.032323837	-3.104162216	7.088541985	0.010919571	-0.001811981	0.00243187	-0.202148438	-0.226318359	-0.973876953	896.7	-23.51686602	-38.49579529	62.13178992	-73
49777	0	0.241271973	-0.124206543	0.284851074	0.999999046	-3.8147E-05	-0.000113487	6.10352E-05	6.031799316	-3.105163574	7.121276855	-0.001907349	-0.005674362	0.003051758	-0.204589844	-0.224121094	-0.9765625	896.62	-23.52324711	-38.49551692	62.12235355	-74
49778	0	0.241260529	-0.124013901	0.283138275	0.999999046	0.000106812	-3.62396E-05	6.38962E-05	6.031513214	-3.100347519	7.078456879	0.005340576	-0.001811981	0.003194809	-0.204589844	-0.228515625	-0.973388672	896.64	-23.51045008	-38.48698603	62.11788571	-74
49779	0	0.241638184	-0.123901367	0.282653809	0.999999046	7.24792E-05	-0.000121117	0.00019455	6.04095459	-3.09753418	7.066345215	0.003623962	-0.006055832	0.009727478	-0.204589844	-0.226318359	-0.976318359	896.66	-23.51557791	-38.48138854	62.13030276	-74
49780	0	0.241108894	-0.124809265	0.283345222	0.999999046	-4.1008E-05	0.0001297	0.000117302	6.027722359	-3.120231628	7.083630562	-0.0020504	0.006484985	0.005865097	-0.204589844	-0.226318359	-0.973632813	896.62	-23.51815716	-38.4529495	62.12069861	-73
49781	0	0.241638184	-0.124389648	0.284179688	0.999999046	-5.72205E-05	8.86917E-05	9.53674E-05	6.04095459	-3.109741211	7.104492188	-0.002861023	0.004434586	0.004768372	-0.202148438	-0.226318359	-0.9765625	896.7	-23.52224614	-38.42979894	62.10569974	-73
49782	0	0.241013527	-0.125017166	0.285061836	0.999998093	3.33786E-05	1.90735E-06	5.34058E-05	6.025338173	-3.125429153	7.126545906	0.00166893	9.53674E-05	0.002670288	-0.204589844	-0.226318359	-0.976318359	896.74	-23.51561154	-38.41765577	62.09467521	-74
49783	0	0.241210938	-0.124450684	0.283752441	0.999999046	8.39233E-05	-1.43051E-05	0.000125885	6.030273438	-3.11126709	7.093811035	0.004196167	-0.000715256	0.006294251	-0.201904297	-0.228515625	-0.979003906	896.52	-23.50981075	-38.40388379	62.09182542	-73
49784	0	0.24155426	-0.123549461	0.282055855	0.999999046	5.43594E-05	4.95911E-05	0.000182152	6.038856506	-3.088736534	7.05139637	0.002717972	0.002479553	0.00910759	-0.202148438	-0.226318359	-0.9765625	896.64	-23.50976325	-38.38083915	62.09203367	-73
49785	0	0.240966797	-0.124816895	0.28338623	0.999999046	-5.34058E-05	0.000134468	9.53674E-05	6.024169922	-3.120422363	7.084655762	-0.002670288	0.006723404	0.004768372	-0.202148438	-0.226318359	-0.9765625	896.58	-23.51178472	-38.35283353	62.07690469	-73
49786	0	0.240561485	-0.125076294	0.284047127	0.999999046	-0.000123978	6.86646E-05	0.000113487	6.014037132	-3.126907349	7.101178169	-0.006198883	0.003433228	0.005674362	-0.202148438	-0.226318359	-0.9765625	896.52	-23.52579583	-38.33089561	62.06925453	-74
49787	0	0.240478516	-0.125854492	0.284912109	0.999999046	-1.14441E-05	-4.48227E-05	0.000202179	6.011962891	-3.146362305	7.122802734	-0.000572205	-0.002241135	0.010108948	-0.204589844	-0.226318359	-0.976318359	896.62	-23.53840211	-38.31679837	62.08451641	-74
49788	0	0.240819931	-0.125042915	0.285435677	0.999999046	0.000151634	-0.000360489	7.53403E-05	6.020498276	-3.126072884	7.135891914	0.007581711	-0.018024445	0.003767014	-0.202148438	-0.226318359	-0.9765625	896.66	-23.53318908	-38.34163403	62.09586484	-73
49789	0	0.241149902	-0.124633789	0.28326416	0.999999046	-1.90735E-05	-0.000357628	5.72205E-05	6.028747559	-3.115844727	7.081604004	-0.000953674	-0.017881394	0.002861023	-0.202148438	-0.226318359	-0.973876953	896.64	-23.54593914	-38.36699951	62.10590109	-73
49790	0	0.241337776	-0.123574257	0.281682014	0.999999046	3.8147E-05	-0.000444412	0.000166893	6.033444405	-3.089356422	7.042050362	0.001907349	-0.022220612	0.008344651	-0.202148438	-0.224121094	-0.976806641	896.52	-23.56439923	-38.39646955	62.12920301	-73
49791	0	0.241394043	-0.12512207	0.282836914	0.999999046	-4.95911E-05	-0.000266075	0.000171661	6.034851074	-3.128051758	7.070922852	-0.002479553	-0.013303757	0.008583069	-0.204589844	-0.226318359	-0.973632813	896.62	-23.58687841	-38.40699413	62.15219794	-73
49792	0	0.24089241	-0.125538826	0.284343719	0.999999046	-0.000145912	-0.000392914	0.000141144	6.022310257	-3.13847065	7.108592987	-0.007295609	-0.019645692	0.00705719	-0.204589844	-0.226318359	-0.973632813	896.62	-23.62248583	-38.43220186	62.17813038	-73
49793	0	0.241271973	-0.124450684	0.284667969	0.999999046	-0.000110626	-0.000555992	0.000209808	6.031799316	-3.11126709	7.116699219	-0.005531311	-0.027799608	0.010490418	-0.204589844	-0.226318359	-0.976318359	896.66	-23.66572287	-38.4713335	62.21992706	-73
49794	0	0.241901398	-0.125348091	0.284187317	0.999999046	-6.67572E-05	-0.000688553	0.000174522	6.047534943	-3.133702278	7.104682922	-0.00333786	-0.034427646	0.008726121	-0.204589844	-0.224121094	-0.9765625	896.56	-23.70589044	-38.52595214	62.25970262	-73
49795	0	0.241333008	-0.124389648	0.282653809	0.999999046	-7.24792E-05	-0.000655174	0.000213623	6.033325195	-3.109741211	7.066345215	-0.003623963	-0.032758715	0.010681153	-0.204589844	-0.223876953	-0.973876953	896.68	-23.7488183	-38.57522942	62.30305325	-73
49796	0	0.242380142	-0.125450134	0.280974388	0.999999046	-0.000302315	-0.000591278	9.15527E-05	6.059503555	-3.136253357	7.024359703	-0.015115739	-0.029563906	0.004577637	-0.20703125	-0.223876953	-0.976318359	896.7	-23.80561145	-38.62342672	62.32824282	-73
49797	0	0.242248535	-0.124816895	0.282104492	0.999999046	-0.000106812	-0.000525475	0.000160217	6.056213379	-3.120422363	7.052612305	-0.005340576	-0.026273729	0.008010865	-0.209472656	-0.223876953	-0.973632813	896.64	-23.84336935	-38.66152981	62.36377294	-73
49798	0	0.242564201	-0.125686646	0.281028748	0.999998093	-0.000250816	-0.00063324	0.000259399	6.064105034	-3.142166138	7.025718689	-0.012540818	-0.03166199	0.012969972	-0.209716797	-0.221679688	-0.973632813	896.58	-23.91001192	-38.70629646	62.41521347	-73
49799	0	0.242553711	-0.126159668	0.281738281	0.999999046	-0.000171661	-0.000475883	6.86646E-05	6.063842773	-3.153991699	7.043457031	-0.008583069	-0.023794175	0.003433228	-0.20703125	-0.221679688	-0.9765625	896.76	-23.94577234	-38.74338486	62.42502182	-73
49800	0	0.242683411	-0.126534462	0.282744408	0.999999046	-0.000109673	-0.000528336	0.000105858	6.067085266	-3.163361549	7.068610191	-0.005483628	-0.02641678	0.005292893	-0.209716797	-0.221679688	-0.973632813	896.64	-23.97955572	-38.78420361	62.44873623	-74
49801	0	0.242553711	-0.125732422	0.282165527	0.999999046	-5.34058E-05	-0.000720024	0.000106812	6.063842773	-3.143310547	7.054138184	-0.002670288	-0.036001209	0.005340577	-0.212158203	-0.221679688	-0.973632813	896.64	-24.01418959	-38.84500882	62.48634812	-73
49802	0	0.243360519	-0.125937462	0.2821064	0.999999046	-0.0001297	-0.000762939	0.000152588	6.084012985	-3.148436546	7.052659988	-0.006484986	-0.038146977	0.007629395	-0.209716797	-0.221679688	-0.973632813	896.64	-24.06310225	-38.90811643	62.52728996	-73
49803	0	0.243774414	-0.125793457	0.278991699	0.999999046	-0.000183105	-0.000693321	0.000160217	6.094360352	-3.144836426	6.97479248	-0.009155274	-0.034666065	0.008010865	-0.211914063	-0.223876953	-0.976074219	896.64	-24.11626356	-38.96356717	62.56939945	-73
49804	0	0.243938446	-0.126646042	0.279644012	0.999999046	-0.000178337	-0.000715256	0.000185966	6.098461151	-3.166151047	6.991100311	-0.008916856	-0.03576279	0.009298325	-0.214355469	-0.221679688	-0.973388672	896.58	-24.17199568	-39.02006755	62.61753856	-74
49805	0	0.244140625	-0.125915527	0.280273438	0.999999046	-0.00019455	-0.000552177	0.00025177	6.103515625	-3.147888184	7.006835938	-0.009727479	-0.027608873	0.012588502	-0.214599609	-0.219238281	-0.970947266	896.62	-24.22901955	-39.05637763	62.66241589	-74
49806	0	0.244386673	-0.127307892	0.28074646	0.999999046	-0.000307083	-0.000724792	0.000293732	6.109666824	-3.182697296	7.018661499	-0.015354158	-0.036239628	0.014686586	-0.214599609	-0.219238281	-0.973632813	896.64	-24.30917656	-39.1086695	62.72079729	-73
49807	0	0.244873047	-0.126464844	0.278991699	0.999999046	-0.000114441	-0.000601768	0.000106812	6.121826172	-3.161621094	6.97479248	-0.005722046	-0.030088427	0.005340577	-0.214599609	-0.217041016	-0.973876953	896.52	-24.34674629	-39.15688008	62.74210498	-73
49808	0	0.244998932	-0.12761879	0.279154778	0.999999046	-5.05447E-05	-0.000768661	7.9155E-05	6.124973297	-3.190469742	6.978869438	-0.002527237	-0.038433079	0.003957749	-0.217041016	-0.217041016	-0.973632813	896.5	-24.38114549	-39.22379305	62.77246124	-74
49809	0	0.24597168	-0.126281738	0.27746582	0.999999046	-0.00025177	-0.000666618	0.000225067	6.149291992	-3.157043457	6.936645508	-0.012588502	-0.03333092	0.011253358	-0.219482422	-0.217041016	-0.973388672	896.56	-24.44718292	-39.27314239	62.81980265	-73
49810	0	0.245614052	-0.129646301	0.278780937	0.999999046	-0.000261307	-0.000450134	0.000125885	6.140351295	-3.241157532	6.96952343	-0.013065339	-0.022506715	0.006294251	-0.221923828	-0.217041016	-0.970458984	896.62	-24.49757952	-39.30456326	62.84670356	-73
49811	0	0.245117188	-0.128234863	0.27911377	0.999999046	3.8147E-05	-0.000632286	3.43323E-05	6.127929688	-3.205871582	6.977844238	0.001907349	-0.031614306	0.001716614	-0.219482422	-0.219238281	-0.967773438	896.54	-24.51296987	-39.35928313	62.87218217	-73
49812	0	0.24668026	-0.126216888	0.277589798	0.999999046	3.33786E-05	-0.00084877	-4.57764E-05	6.167006493	-3.155422211	6.939744949	0.00166893	-0.042438512	-0.002288819	-0.221923828	-0.217041016	-0.973144531	896.62	-24.53050852	-39.44037726	62.894209	-73
49813	0	0.247253418	-0.12713623	0.275024414	0.999999046	9.53674E-05	-0.000613213	-2.28882E-05	6.181335449	-3.178405762	6.875610352	0.004768372	-0.030660631	-0.001144409	-0.221923828	-0.217041016	-0.973144531	896.7	-24.53373981	-39.49584907	62.90314119	-73
49814	0	0.247962952	-0.127134323	0.27529335	0.999999046	-4.19617E-05	-0.000526428	8.39233E-05	6.199073792	-3.178358078	6.882333755	-0.002098084	-0.026321412	0.004196167	-0.221923828	-0.217041016	-0.973144531	896.66	-24.5585171	-39.537215	62.92028827	-73
49815	0	0.247497559	-0.12677002	0.276123047	0.999999046	-6.86646E-05	-0.000319481	7.24792E-05	6.187438965	-3.169250488	6.903076172	-0.003433228	-0.015974045	0.003623962	-0.224365234	-0.217041016	-0.975830078	896.52	-24.57725017	-39.55756363	62.92499971	-73
49816	0	0.248326302	-0.125989914	0.275396347	0.999999046	-8.29697E-05	-6.29425E-05	0.000114441	6.208157539	-3.149747849	6.884908676	-0.004148483	-0.003147125	0.005722046	-0.224609375	-0.214599609	-0.970458984	896.58	-24.59111892	-39.54920943	62.92083727	-73
49817	0	0.247680664	-0.128601074	0.27520752	0.999999046	8.39233E-05	0.000187874	0.000240326	6.192016602	-3.215026855	6.880187988	0.004196167	0.009393692	0.012016297	-0.226806641	-0.216796875	-0.970214844	896.6	-24.58686913	-39.50873951	62.92644753	-73
49818	0	0.246844292	-0.12733078	0.276480675	0.999999046	0.000205994	0.000173569	1.90735E-05	6.171107292	-3.183269501	6.912016869	0.010299683	0.008678436	0.000953674	-0.226806641	-0.216796875	-0.970214844	896.52	-24.55019641	-39.48029803	62.90338907	-73
49819	0	0.247314453	-0.128967285	0.27734375	0.999999046	0.000171661	0.000126839	0	6.182861328	-3.224182129	6.93359375	0.008583069	0.006341934	0	-0.224609375	-0.214599609	-0.970458984	896.56	-24.51769867	-39.45760123	62.87371671	-73
49820	0	0.247915268	-0.126980782	0.277144432	0.999999046	0.000123024	0.000272751	-2.76566E-05	6.197881699	-3.174519539	6.928610802	0.006151199	0.013637543	-0.001382828	-0.224365234	-0.216796875	-0.970458984	896.6	-24.48272661	-39.42100931	62.83562736	-74
49821	0	0.247253418	-0.126525879	0.276672363	0.999999046	0.000221252	0.000199318	4.95911E-05	6.181335449	-3.163146973	6.916809082	0.011062622	0.009965897	0.002479553	-0.224365234	-0.217041016	-0.973144531	896.64	-24.44601963	-39.38840409	62.8113503	-73
49822	0	0.246703148	-0.126489639	0.276459694	0.999999046	0.000164032	0.00022316	1.81198E-05	6.167578697	-3.162240982	6.911492348	0.008201599	0.01115799	0.000905991	-0.224365234	-0.217041016	-0.973144531	896.54	-24.41228091	-39.35480448	62.78215324	-73
49823	0	0.24609375	-0.12689209	0.277770996	0.999999046	0.000167847	0.000184059	0.000106812	6.15234375	-3.172302246	6.944274902	0.008392334	0.009202957	0.005340576	-0.221923828	-0.217041016	-0.970458984	896.52	-24.38723961	-39.32106444	62.7659399	-73
49824	0	0.246331215	-0.125814438	0.278024673	0.999999046	5.24521E-05	0.000202179	0.000136375	6.158280373	-3.145360947	6.950616837	0.002622604	0.010108948	0.006818771	-0.221923828	-0.217041016	-0.970458984	896.64	-24.37724256	-39.28403468	62.75370015	-74
49825	0	0.247009277	-0.12677002	0.276977539	0.999999046	0.00019455	0.00017643	0.000213623	6.175231934	-3.169250488	6.924438477	0.009727478	0.008821488	0.010681153	-0.221923828	-0.217041016	-0.973144531	896.52	-24.3585722	-39.24605933	62.75195451	-73
49826	0	0.245452881	-0.127743721	0.277601242	0.999999046	8.7738E-05	0.000244141	0.000102043	6.136322021	-3.193593025	6.940031052	0.004386902	0.012207031	0.005102158	-0.219482422	-0.217041016	-0.970703125	896.62	-24.34005443	-39.20627891	62.73000932	-73
49827	0	0.245727539	-0.12689209	0.279418945	0.999999046	0.000175476	0.000256538	0.000137329	6.143188477	-3.172302246	6.985473633	0.008773804	0.01282692	0.006866455	-0.221923828	-0.219238281	-0.973144531	896.56	-24.31404121	-39.16352882	62.71874952	-73
49828	0	0.245672226	-0.126191139	0.27806282	0.999999046	2.76566E-05	0.000408173	0.000155449	6.141805649	-3.154778481	6.951570511	0.001382828	0.020408631	0.007772446	-0.219482422	-0.217041016	-0.976074219	896.64	-24.30069712	-39.10408365	62.69273395	-74
49829	0	0.245910645	-0.126464844	0.280029297	0.999999046	7.62939E-05	0.000489235	0.000141144	6.147766113	-3.161621094	7.000732422	0.003814697	0.024461747	0.00705719	-0.217041016	-0.217041016	-0.973632813	896.7	-24.27749472	-39.03683929	62.65980993	-73
49830	0	0.24358654	-0.126613617	0.280468941	0.999999046	0.000183105	0.000387192	8.39233E-05	6.089663506	-3.165340424	7.011723518	0.009155274	0.019359589	0.004196167	-0.217041016	-0.217041016	-0.970947266	896.7	-24.24116	-38.98291043	62.62881507	-73
49831	0	0.244628906	-0.126464844	0.281433105	0.999999046	0.000198364	0.000149727	0.000102997	6.115722656	-3.161621094	7.035827637	0.009918213	0.007486343	0.005149841	-0.217041016	-0.219238281	-0.973388672	896.66	-24.21375284	-38.95286977	62.61694389	-74
49832	0	0.244091988	-0.126099586	0.278930664	0.999999046	0.000256538	6.29425E-05	-1.14441E-05	6.10229969	-3.152489662	6.973266602	0.01282692	0.003147125	-0.000572205	-0.216796875	-0.221679688	-0.973144531	896.64	-24.17332653	-38.93727862	62.59850523	-74
49833	0	0.244873047	-0.125976563	0.280151367	0.999999046	0.000148773	0.000119209	1.90735E-05	6.121826172	-3.149414063	7.00378418	0.00743866	0.005960465	0.000953674	-0.216796875	-0.221679688	-0.973144531	896.64	-24.1456976	-38.91436871	62.58104207	-73
49834	0	0.244495392	-0.126084328	0.280917168	0.999998093	0.00012207	3.62396E-05	-5.62668E-05	6.112384796	-3.152108192	7.022929192	0.006103516	0.001811981	-0.002813339	-0.217041016	-0.219238281	-0.973388672	896.58	-24.11790195	-38.90364647	62.55475059	-73
49835	0	0.244140625	-0.125549316	0.278869629	0.999999046	0	0.000134468	6.86646E-05	6.103515625	-3.13873291	6.971740723	0	0.006723404	0.003433228	-0.217041016	-0.221435547	-0.970458984	896.66	-24.11094602	-38.87682008	62.54605095	-73
49836	0	0.244292259	-0.12594986	0.278812408	0.999999046	0.000115395	0.000349045	0.000141144	6.10730648	-3.14874649	6.970310211	0.00576973	0.01745224	0.00705719	-0.217041016	-0.219238281	-0.973388672	896.7	-24.08880751	-38.82416753	62.52953907	-73
49837	0	0.243530273	-0.125366211	0.280639648	0.999999046	9.15527E-05	0.000287056	8.01086E-05	6.088256836	-3.134155273	7.015991211	0.004577637	0.014352799	0.004005432	-0.214355469	-0.221679688	-0.973388672	896.68	-24.06661616	-38.78084704	62.50923256	-73
49838	0	0.243409157	-0.126269341	0.282205582	0.999999046	9.91821E-05	0.000188828	4.95911E-05	6.08522892	-3.156733513	7.055139542	0.004959106	0.009441376	0.002479553	-0.214599609	-0.219238281	-0.973632813	896.62	-24.04468768	-38.74920033	62.48764809	-73
49839	0	0.243041992	-0.126281738	0.281555176	0.999999046	0.000286102	0.000123024	7.62939E-05	6.076049805	-3.157043457	7.038879395	0.014305115	0.006151199	0.003814697	-0.212158203	-0.219482422	-0.9765625	896.5	-24.0060596	-38.72316449	62.46773181	-73
49840	0	0.243441582	-0.125731468	0.281380653	0.999999046	0.000151634	-7.24792E-05	8.39233E-05	6.086039543	-3.143286705	7.034516335	0.007581711	-0.003623962	0.004196167	-0.212158203	-0.221679688	-0.970947266	896.7	-23.99080236	-38.7172447	62.46815586	-73
49841	0	0.243896484	-0.12512207	0.280090332	0.999999046	0.00012207	0.000115395	9.53674E-05	6.097412109	-3.128051758	7.002258301	0.006103516	0.00576973	0.004768372	-0.212158203	-0.221679688	-0.973632813	896.7	-23.97287232	-38.69114402	62.45735203	-74
49842	0	0.242281914	-0.126259804	0.280786514	0.999999046	4.19617E-05	0.000205994	0.000136375	6.057047844	-3.156495094	7.019662857	0.002098084	0.010299683	0.006818771	-0.212158203	-0.219482422	-0.9765625	896.64	-23.96420294	-38.65363118	62.44196261	-74
49843	0	0.24230957	-0.125854492	0.281738281	0.999999046	0.000114441	0.00017643	0.000102997	6.057739258	-3.146362305	7.043457031	0.005722046	0.008821488	0.005149841	-0.209472656	-0.221679688	-0.976318359	896.58	-23.94554684	-38.62075426	62.42407888	-73
49844	0	0.241634369	-0.126328468	0.281973839	0.999999046	0.000102043	0.000148773	0.000137329	6.040859222	-3.158211708	7.04934597	0.005102158	0.00743866	0.006866455	-0.211914063	-0.221679688	-0.976318359	896.56	-23.93224136	-38.58915941	62.41735977	-73
49845	0	0.241516113	-0.125732422	0.281677246	0.999999046	0.000209808	2.76566E-05	9.53674E-05	6.037902832	-3.143310547	7.041931152	0.010490418	0.001382828	0.004768372	-0.209716797	-0.221679688	-0.973632813	896.66	-23.90757675	-38.57218337	62.41032693	-74
49846	0	0.242574692	-0.125966072	0.282108307	0.999999046	8.96454E-05	-7.24792E-05	9.53674E-05	6.064367294	-3.149151802	7.052707672	0.004482269	-0.003623962	0.004768372	-0.204589844	-0.221679688	-0.976806641	896.64	-23.90037826	-38.56568121	62.398327	-74
49847	0	0.2421875	-0.125671387	0.279968262	0.999999046	0.000171661	-1.04904E-05	0.000106812	6.0546875	-3.141784668	6.999206543	0.008583069	-0.000524521	0.005340576	-0.209472656	-0.221679688	-0.976318359	896.58	-23.88247487	-38.55218346	62.39299166	-74
49848	0	0.242105484	-0.125260353	0.28183651	0.999999046	0.000145912	7.82013E-05	6.77109E-05	6.0526371	-3.131508827	7.045912743	0.007295609	0.003910065	0.003385544	-0.20703125	-0.223876953	-0.976318359	896.58	-23.86097726	-38.53120483	62.37708374	-73
49849	0	0.242492676	-0.125366211	0.281616211	0.999999046	2.28882E-05	5.43594E-05	0.000232697	6.062316895	-3.134155273	7.040405273	0.001144409	0.002717972	0.011634827	-0.20703125	-0.223876953	-0.976318359	896.6	-23.86822792	-38.50508682	62.38541216	-73
49850	0	0.242769241	-0.125893593	0.281952858	0.999999046	8.01086E-05	0.000257492	0.000144005	6.069231033	-3.147339821	7.048821449	0.004005432	0.012874603	0.007200241	-0.20703125	-0.221679688	-0.9765625	896.62	-23.85404406	-38.46180225	62.36725182	-74
49851	0	0.241760254	-0.125549316	0.283447266	0.999999046	0.000148773	0.000218391	6.86646E-05	6.044006348	-3.13873291	7.086181641	0.00743866	0.010919571	0.003433228	-0.20703125	-0.223876953	-0.976318359	896.64	-23.82718052	-38.42609611	62.34608386	-74
49852	0	0.242291451	-0.125071526	0.282307625	0.999999046	0.000155449	-0.000127792	-3.8147E-06	6.057286263	-3.126788139	7.05769062	0.007772446	-0.006389618	-0.000190735	-0.20703125	-0.223876953	-0.976318359	896.66	-23.80624173	-38.43004275	62.33519626	-74
49853	0	0.241394043	-0.125183105	0.28338623	0.999999046	0.000255585	-5.24521E-05	9.15527E-05	6.034851074	-3.129577637	7.084655762	0.012779236	-0.002622604	0.004577637	-0.20703125	-0.223876953	-0.976318359	896.66	-23.77897963	-38.42166558	62.33205194	-73
49854	0	0.241705894	-0.124960899	0.283606529	0.999999046	7.82013E-05	-3.05176E-05	6.10352E-05	6.042647362	-3.124022484	7.090163231	0.003910065	-0.001525879	0.003051758	-0.204589844	-0.223876953	-0.973876953	896.58	-23.76868259	-38.4123882	62.32136401	-73
49855	0	0.241577148	-0.125610352	0.28326416	0.999999046	1.52588E-05	-3.71933E-05	8.39233E-05	6.039428711	-3.140258789	7.081604004	0.000762939	-0.001859665	0.004196167	-0.204589844	-0.221679688	-0.976806641	896.56	-23.7677405	-38.40274087	62.30881442	-74
