Counter	Temperature	VelInc_X	VelInc_Y	VelInc_Z	OriInc_w	OriInc_x	OriInc_y	OriInc_z	Acc_X	Acc_Y	Acc_Z	Gyr_X	Gyr_Y	Gyr_Z	Mag_X	Mag_Y	Mag_Z	Pressure	Roll	Pitch	Yaw	RSSI
45189	0	0.761354446	-0.176911354	0.07646656	0.999990463	-0.003083229	0.000757217	-0.002662659	9.51693058	-2.211391926	0.955832005	-0.077080947	0.018930489	-0.066566658	-0.796386719	0.193359375	0.576660156	899.86	-63.91231074	-76.64249783	-98.95809727	-64
45190	0	0.381204605	-0.089662552	0.039375305	0.999999046	-0.000854492	-0.000228882	-0.000272751	9.530115128	-2.241563797	0.984382629	-0.042724615	-0.011444093	-0.013637545	-0.798583984	0.188964844	0.579833984	899.84	-63.99488693	-76.68723305	-98.98400626	-64
45191	0	0.37689209	-0.086608887	0.037841797	0.999999046	-0.000522614	-7.9155E-05	-0.00018692	9.422302246	-2.165222168	0.946044922	-0.026130678	-0.003957749	-0.009346009	-0.796142578	0.188964844	0.579833984	899.68	-63.99267275	-76.71554554	-99.05523921	-64
45192	0	0.377296448	-0.086874962	0.03860569	0.999999046	-0.000689507	-0.000177383	1.04904E-05	9.432411194	-2.171874046	0.96514225	-0.034475329	-0.008869172	0.000524521	-0.795898438	0.184326172	0.580078125	899.8	-64.09449411	-76.72839786	-99.04510623	-64
45193	0	0.378601074	-0.087585449	0.038513184	0.999999046	-0.000385284	-0.000166893	-3.8147E-05	9.465026855	-2.18963623	0.96282959	-0.019264222	-0.008344651	-0.001907349	-0.798339844	0.184570313	0.580322266	899.72	-64.14675824	-76.74565655	-99.04932471	-64
45194	0	0.377765656	-0.085634232	0.038624763	0.999999046	-0.000415802	-0.000165939	0.0001297	9.444141388	-2.140855789	0.965619087	-0.020790101	-0.008296967	0.006484986	-0.796142578	0.186523438	0.579833984	899.8	-64.23779559	-76.74549219	-99.01229282	-64
45195	0	0.379882813	-0.087646484	0.038757324	0.999999046	-0.000495911	-0.00033474	0.000442505	9.497070313	-2.191162109	0.968933105	-0.024795535	-0.016736986	0.022125246	-0.796142578	0.184570313	0.582763672	899.72	-64.47778827	-76.72129012	-98.83533021	-64
45196	0	0.380746841	-0.087168694	0.038903236	0.999999046	0.000218391	-0.000333786	0.000494957	9.518671036	-2.179217339	0.97258091	0.010919572	-0.016689302	0.02474785	-0.798583984	0.186767578	0.582763672	899.72	-64.64571602	-76.69140075	-98.64696629	-64
45197	0	0.378540039	-0.085144043	0.039672852	0.999999046	0.000228882	-0.000193596	0.000602722	9.463500977	-2.128601074	0.991821289	0.011444093	-0.009679795	0.030136111	-0.796142578	0.186523438	0.579833984	899.74	-64.77237425	-76.64332907	-98.50068614	-64
45198	0	0.379795074	-0.085279465	0.038891792	0.999999046	0.00021553	-0.000232697	0.000667572	9.494876862	-2.131986618	0.972294807	0.010776521	-0.011634828	0.033378604	-0.796142578	0.188964844	0.579833984	899.74	-64.92972324	-76.59032008	-98.32215105	-63
45199	0	0.381103516	-0.084289551	0.036987305	0.999999046	0.000305176	-4.48227E-05	0.000743866	9.527587891	-2.10723877	0.924682617	0.015258791	-0.002241135	0.037193302	-0.796142578	0.188964844	0.582519531	899.78	-65.00935914	-76.52021773	-98.21575898	-63
45200	0	0.381170273	-0.080683708	0.037366867	0.999999046	4.86374E-05	-0.000156403	0.000980377	9.529256821	-2.017092705	0.934171677	0.00243187	-0.007820131	0.049018868	-0.796142578	0.188964844	0.582519531	899.8	-65.21247681	-76.43093564	-98.01517375	-64
45201	0	0.381896973	-0.084472656	0.039367676	0.999999046	0.000297546	-0.000330925	0.000831604	9.547424316	-2.111816406	0.984191895	0.014877322	-0.016546252	0.041580206	-0.796386719	0.191162109	0.582275391	899.8	-65.43000644	-76.36533458	-97.76915552	-64
45202	0	0.380874634	-0.080078125	0.039222717	0.999999046	0.000431061	6.67572E-05	0.000506401	9.521865845	-2.001953125	0.980567932	0.021553041	0.00333786	0.025320055	-0.793945313	0.193359375	0.581787109	899.72	-65.3960642	-76.3146562	-97.76298395	-64
45203	0	0.377075195	-0.080444336	0.03918457	0.999999046	-0.000160217	-0.000151634	0.000480652	9.426879883	-2.011108398	0.979614258	-0.008010865	-0.007581711	0.024032594	-0.794189453	0.195556641	0.581787109	899.72	-65.51769959	-76.27713086	-97.66320419	-63
45204	0	0.381829262	-0.082655907	0.038858414	0.999999046	0.000145912	-3.24249E-05	0.000243187	9.545731544	-2.066397667	0.971460342	0.007295609	-0.001621246	0.012159348	-0.794189453	0.195556641	0.584472656	899.74	-65.50662325	-76.25875791	-97.66501304	-64
45205	0	0.379272461	-0.080627441	0.037780762	0.999999046	0.000247955	-0.000102043	-1.14441E-05	9.481811523	-2.015686035	0.944519043	0.012397766	-0.005102158	-0.000572205	-0.793945313	0.193359375	0.579345703	899.78	-65.46380431	-76.27034815	-97.69080895	-63
45206	0	0.378732681	-0.082247734	0.039268494	0.999999046	-0.000204086	-9.53674E-06	-0.000110626	9.468317032	-2.056193352	0.981712341	-0.010204315	-0.000476837	-0.005531311	-0.796386719	0.193359375	0.58203125	899.74	-65.41361468	-76.28792519	-97.77765386	-64
45207	0	0.378051758	-0.08416748	0.037902832	0.999999046	0.000205994	4.29153E-05	-0.000400543	9.451293945	-2.104187012	0.947570801	0.010299683	0.002145767	-0.020027161	-0.796386719	0.195556641	0.581787109	899.8	-65.23666172	-76.33316714	-97.94108882	-66
45208	0	0.377016068	-0.083483696	0.039006233	0.999999046	7.34329E-05	-7.43866E-05	-0.000564575	9.425401688	-2.0870924	0.97515583	0.003671646	-0.00371933	-0.028228761	-0.796386719	0.193359375	0.58203125	899.68	-65.09123729	-76.40102977	-98.08988668	-67
45209	0	0.376281738	-0.085754395	0.038391113	0.999999046	-0.000144958	-7.53403E-05	-0.000671387	9.407043457	-2.143859863	0.959777832	-0.007247925	-0.003767014	-0.033569339	-0.796386719	0.191162109	0.582275391	899.8	-64.94825783	-76.47992621	-98.26320595	-67
45210	0	0.380126953	-0.086597443	0.036109924	0.999999046	0.000173569	7.24792E-05	-0.000725746	9.503173828	-2.164936066	0.902748108	0.008678437	0.003623963	-0.036287311	-0.796142578	0.191162109	0.576904297	899.84	-64.69182454	-76.55709677	-98.51227075	-67
45211	0	0.378112793	-0.086425781	0.036254883	0.999999046	-0.000144958	5.43594E-05	-0.000434875	9.452819824	-2.160644531	0.90637207	-0.007247925	0.002717972	-0.021743775	-0.796142578	0.188964844	0.579833984	899.78	-64.53749077	-76.60481211	-98.6963996	-67
45212	0	0.381907463	-0.086898804	0.03755188	0.999999046	8.58307E-06	-0.000440598	0.000132561	9.547686577	-2.172470093	0.938796997	0.000429153	-0.022029877	0.006628037	-0.798583984	0.188964844	0.577392578	899.72	-64.69766265	-76.61806175	-98.53995305	-67
45213	0	0.379211426	-0.085144043	0.038452148	0.999999046	0.000328064	-0.000361443	0.00069046	9.480285645	-2.128601074	0.961303711	0.0164032	-0.01807213	0.034523014	-0.798339844	0.186767578	0.577392578	899.78	-64.90090231	-76.56946836	-98.30846594	-66
45214	0	0.378391266	-0.084420204	0.040124893	0.999999046	0.000110626	-0.000492096	0.000999451	9.459781647	-2.110505104	1.00312233	0.005531312	-0.024604803	0.049972545	-0.798583984	0.188964844	0.579833984	899.8	-65.24578244	-76.49478371	-97.95607497	-65
45215	0	0.38079834	-0.084472656	0.042053223	0.999999046	0.000190735	-0.00020504	0.00088501	9.519958496	-2.111816406	1.051330566	0.009536745	-0.010252	0.044250495	-0.796142578	0.191162109	0.579589844	899.66	-65.43082655	-76.41788151	-97.75583181	-65
45216	0	0.380730629	-0.081957817	0.040462494	0.999999046	0.000275612	-8.96454E-05	0.000727654	9.518265724	-2.048945427	1.011562347	0.013780595	-0.00448227	0.036382679	-0.793945313	0.193359375	0.581787109	899.72	-65.52336392	-76.35182177	-97.63818308	-64
45217	0	0.380554199	-0.080749512	0.041687012	0.999999046	0.000152588	-0.000144005	0.000732422	9.51385498	-2.018737793	1.042175293	0.007629395	-0.007200242	0.036621097	-0.796386719	0.193359375	0.58203125	899.84	-65.65261834	-76.28785081	-97.50072176	-64
45218	0	0.380753517	-0.079892159	0.039525032	0.999999046	0.000156403	0.00021553	0.000594139	9.518837929	-1.997303963	0.988125801	0.00782013	0.010776521	0.029706957	-0.794189453	0.195556641	0.581787109	899.84	-65.60006857	-76.22138541	-97.54614321	-64
45219	0	0.38079834	-0.081604004	0.039916992	0.999999046	-0.00012207	8.10623E-05	0.000213623	9.519958496	-2.040100098	0.997924805	-0.006103516	0.004053116	0.010681152	-0.796386719	0.193359375	0.58203125	899.78	-65.56314885	-76.2010697	-97.61372673	-64
45220	0	0.378070831	-0.082141876	0.038553238	0.999999046	0.000191689	0.000331879	-0.000640869	9.451770782	-2.053546906	0.963830948	0.009584428	0.016593935	-0.03204346	-0.796386719	0.195556641	0.581787109	899.74	-65.21730243	-76.25782246	-97.95535504	-64
45221	0	0.377929688	-0.083618164	0.03894043	0.999999046	0.000198364	-4.86374E-05	-0.000522614	9.448242188	-2.090454102	0.973510742	0.009918213	-0.00243187	-0.026130678	-0.793945313	0.193359375	0.579345703	899.74	-65.05353663	-76.32028583	-98.10985288	-64
45222	0	0.380218506	-0.08485508	0.036921501	0.999999046	0.000352859	3.8147E-05	-0.000657082	9.505462646	-2.121376991	0.923037529	0.017642976	0.001907349	-0.032854083	-0.793945313	0.193359375	0.579345703	899.72	-64.80646035	-76.3923891	-98.32990248	-64
45223	0	0.380615234	-0.085754395	0.038146973	0.999999046	0.000358582	-0.000193596	-0.00056076	9.515380859	-2.143859863	0.953674316	0.017929079	-0.009679795	-0.028038027	-0.796142578	0.191162109	0.579589844	899.78	-64.67558838	-76.46567045	-98.43379743	-63
45224	0	0.379199028	-0.084692001	0.037571907	0.999999046	0.000157356	-0.000173569	-0.000404358	9.4799757	-2.117300034	0.939297676	0.007867813	-0.008678437	-0.020217896	-0.796142578	0.191162109	0.579589844	899.74	-64.59012678	-76.52173063	-98.51313429	-63
45225	0	0.379821777	-0.08581543	0.039245605	0.999999046	0.000225067	-0.000102043	-8.7738E-05	9.495544434	-2.145385742	0.981140137	0.011253357	-0.005102158	-0.004386902	-0.796142578	0.188964844	0.579833984	899.68	-64.53053907	-76.5414542	-98.56222417	-63
45226	0	0.377990723	-0.085021973	0.039794922	0.999999046	0.000255585	-0.000144958	-7.24792E-05	9.449768066	-2.125549316	0.994873047	0.012779236	-0.007247925	-0.003623962	-0.796142578	0.188964844	0.579833984	899.74	-64.48896436	-76.56167199	-98.58895248	-63
45227	0	0.377693176	-0.084959984	0.0415411	0.999998093	0.000175476	-0.000337601	9.91821E-05	9.442329407	-2.123999596	1.038527489	0.008773804	-0.016880036	0.004959107	-0.796142578	0.191162109	0.579589844	899.74	-64.57527468	-76.57356932	-98.48920415	-63
45228	0	0.380059242	-0.084559441	0.03793335	0.999999046	0.000370979	-8.7738E-05	0.000182152	9.501481056	-2.113986015	0.94833374	0.018548966	-0.004386902	0.00910759	-0.798583984	0.188964844	0.579833984	899.84	-64.54806546	-76.56456941	-98.49001529	-63
45229	0	0.380249023	-0.082885742	0.037902832	0.999999046	0.000114441	8.58307E-06	0.000507355	9.506225586	-2.072143555	0.947570801	0.005722046	0.000429153	0.025367738	-0.796142578	0.191162109	0.576904297	899.8	-64.57548907	-76.51719313	-98.45992794	-62
45230	0	0.379124641	-0.084300041	0.03878212	0.999999046	-5.72205E-06	-0.000225067	0.000576019	9.478116035	-2.10750103	0.969552994	-0.000286102	-0.011253358	0.028800966	-0.796142578	0.191162109	0.579589844	899.66	-64.73100088	-76.47415163	-98.31424612	-62
45231	0	0.380432129	-0.082946777	0.03894043	0.999999046	0.000442505	-0.000197411	0.000610352	9.510803223	-2.073669434	0.973510742	0.022125246	-0.00987053	0.030517581	-0.796386719	0.191162109	0.582275391	899.74	-64.82918306	-76.42615132	-98.17796932	-63
45232	0	0.377052307	-0.080688477	0.037884712	0.999999046	0.00014782	-0.000411987	0.000675201	9.426307678	-2.017211914	0.947117805	0.007390977	-0.020599367	0.033760074	-0.796386719	0.193359375	0.579345703	899.74	-65.06507096	-76.38178902	-97.93167759	-62
45233	0	0.381347656	-0.083435059	0.038085938	0.999999046	0.000236511	-0.000418663	0.000537872	9.533691406	-2.085876465	0.952148438	0.011825563	-0.020933153	0.026893618	-0.796630859	0.195556641	0.584472656	899.78	-65.2649603	-76.35184212	-97.71028541	-63
45234	0	0.381233215	-0.08053112	0.039268494	0.999999046	0.000301361	-0.000185013	0.00033474	9.530830383	-2.013278008	0.981712341	0.015068055	-0.009250641	0.016736985	-0.794189453	0.197753906	0.581542969	899.8	-65.31635097	-76.3318073	-97.62899657	-63
45235	0	0.380065918	-0.080505371	0.037597656	0.999999046	-0.000118256	-0.000361443	0.00056076	9.501647949	-2.012634277	0.939941406	-0.005912781	-0.01807213	0.028038027	-0.794189453	0.195556641	0.581787109	899.72	-65.53503573	-76.29667574	-97.43109841	-63
45236	0	0.379759789	-0.079659462	0.038096428	0.999999046	-6.00815E-05	-0.000200272	0.000540733	9.493994713	-1.991486549	0.952410698	-0.003004074	-0.010013581	0.027036668	-0.794189453	0.195556641	0.581787109	899.68	-65.67304814	-76.25595892	-97.31053614	-63
45237	0	0.383728027	-0.079223633	0.035827637	0.999999046	-0.000396729	-0.000266075	0.000343323	9.593200684	-1.98059082	0.895690918	-0.019836427	-0.013303757	0.017166139	-0.794189453	0.195556641	0.581787109	899.86	-65.83897659	-76.23903196	-97.200531	-63
45238	0	0.378443718	-0.080857277	0.03830719	0.999999046	-0.000154495	-9.53674E-05	-0.000499725	9.461092949	-2.021431923	0.957679749	-0.007724762	-0.004768372	-0.024986268	-0.794189453	0.197753906	0.581542969	899.78	-65.74192903	-76.30225017	-97.32497905	-63
45239	0	0.378479004	-0.080627441	0.039367676	0.999999046	0.00018692	-0.000422478	-0.000675201	9.461975098	-2.015686035	0.984191895	0.009346009	-0.021123888	-0.033760075	-0.791748047	0.195556641	0.581542969	899.84	-65.71109257	-76.39924172	-97.34219739	-63
45240	0	0.38002491	-0.080771446	0.038648605	0.999999046	2.57492E-05	-0.000375748	-0.000778198	9.500622749	-2.019286156	0.966215134	0.00128746	-0.018787386	-0.038909917	-0.793945313	0.193359375	0.581787109	899.74	-65.65763389	-76.50484498	-97.4044106	-63
45241	0	0.381530762	-0.083007813	0.038513184	0.999999046	-0.000114441	-0.000285149	-0.000774384	9.538269043	-2.075195313	0.96282959	-0.005722047	-0.014257433	-0.038719182	-0.793945313	0.193359375	0.581787109	899.74	-65.58034803	-76.60576437	-97.50394933	-62
45242	0	0.382048607	-0.082792282	0.04022789	0.999999046	-1.33514E-05	-0.000110626	-0.000687599	9.551215172	-2.069807053	1.00569725	-0.000667572	-0.005531311	-0.034379962	-0.796386719	0.191162109	0.582275391	899.74	-65.43035771	-76.68929693	-97.66934435	-63
45243	0	0.379699707	-0.084655762	0.041564941	0.999999046	-0.000267029	-0.000109673	-0.00043869	9.492492676	-2.116394043	1.039123535	-0.013351441	-0.005483628	-0.02193451	-0.793701172	0.188720703	0.579589844	899.8	-65.35748567	-76.74671417	-97.78598898	-63
45244	0	0.379051208	-0.085261345	0.041007996	0.999999046	0.000220299	-6.48499E-05	-0.000393867	9.476280212	-2.131533623	1.02519989	0.011014939	-0.003242493	-0.019693375	-0.796142578	0.188964844	0.582519531	899.66	-65.21692736	-76.79719214	-97.91450909	-63
45245	0	0.377929688	-0.084472656	0.039245605	0.999999046	0.000221252	0.000226021	-0.000244141	9.448242188	-2.111816406	0.981140137	0.011062622	0.011301041	-0.012207032	-0.793701172	0.186523438	0.579833984	899.74	-64.97695897	-76.81791561	-98.14774037	-64
45246	0	0.379296303	-0.085552216	0.038476944	0.999999046	9.53674E-06	4.57764E-05	3.71933E-05	9.48240757	-2.138805389	0.961923599	0.000476837	0.002288818	0.001859665	-0.796142578	0.188964844	0.579833984	899.72	-64.89907401	-76.81796802	-98.23464915	-64
45247	0	0.381103516	-0.085144043	0.038024902	0.999999046	0.000244141	8.86917E-05	0.000293732	9.527587891	-2.128601074	0.950622559	0.012207032	0.004434586	0.014686585	-0.796142578	0.186523438	0.579833984	899.8	-64.82871145	-76.78924576	-98.29287782	-64
45248	0	0.380865097	-0.082604408	0.035751343	0.999999046	5.05447E-05	0.000175476	0.000323296	9.521627426	-2.065110207	0.893783569	0.002527237	0.008773804	0.01616478	-0.796142578	0.188964844	0.579833984	899.8	-64.74885677	-76.75321571	-98.37876391	-64
45249	0	0.378417969	-0.083374023	0.036682129	0.999999046	0.000133514	-9.44138E-05	0.000743866	9.460449219	-2.084350586	0.917053223	0.006675721	-0.004720688	0.037193302	-0.798583984	0.188964844	0.582519531	899.68	-64.86536187	-76.68673549	-98.25748863	-65
45250	0	0.379950523	-0.082037926	0.037729263	0.999999046	0.000646591	-0.000192642	0.00057888	9.498763084	-2.050948143	0.943231583	0.032329564	-0.009632112	0.028944019	-0.793701172	0.188720703	0.579589844	899.72	-64.93122835	-76.64211683	-98.12859287	-65
45251	0	0.378967285	-0.07989502	0.036376953	0.999999046	0.000247955	-0.000208855	0.000556946	9.474182129	-1.997375488	0.909423828	0.012397767	-0.010442734	0.027847292	-0.796386719	0.191162109	0.582275391	899.8	-65.0446472	-76.60057249	-97.99622549	-66
45252	0	0.381211281	-0.081766129	0.037904739	0.999999046	-2.19345E-05	-4.57764E-05	0.000579834	9.530282021	-2.044153214	0.947618484	-0.001096726	-0.002288818	0.028991701	-0.793945313	0.191162109	0.58203125	899.72	-65.12178196	-76.54875553	-97.93309076	-66
45253	0	0.379882813	-0.080322266	0.03729248	0.999999046	0.000278473	-0.000174522	0.000640869	9.497070313	-2.008056641	0.932312012	0.013923646	-0.008726121	0.03204346	-0.793945313	0.191162109	0.58203125	899.74	-65.23190864	-76.49682046	-97.80314402	-66
45254	0	0.378087044	-0.078527451	0.039216995	0.999999046	0.000211716	-0.000148773	0.000541687	9.452176094	-1.963186264	0.980424881	0.010585786	-0.00743866	0.027084352	-0.791503906	0.193115234	0.579101563	899.78	-65.31764812	-76.4539901	-97.70171428	-67
45255	0	0.383972168	-0.079406738	0.035095215	0.999999046	-0.000114441	-0.000277519	0.000343323	9.599304199	-1.985168457	0.877380371	-0.005722046	-0.013875962	0.017166138	-0.793945313	0.193359375	0.581787109	899.84	-65.45658038	-76.43804376	-97.58568105	-66
45256	0	0.379239082	-0.079493523	0.039381981	0.999999046	-0.000138283	0.00018692	-0.000236511	9.480977058	-1.987338066	0.984549522	-0.006914139	0.009346008	-0.011825562	-0.793945313	0.195556641	0.579101563	899.8	-65.28241458	-76.46038731	-97.78690555	-67
45257	0	0.378845215	-0.08026123	0.037536621	0.999999046	-0.000228882	-0.000216484	-7.62939E-05	9.471130371	-2.006530762	0.938415527	-0.011444092	-0.010824204	-0.003814697	-0.793945313	0.191162109	0.584716797	899.84	-65.32449022	-76.48537948	-97.78620087	-67
45258	0	0.38082695	-0.081136703	0.037638664	0.999999046	5.53131E-05	-0.000183105	-0.000172615	9.520673752	-2.028417587	0.940966606	0.002765656	-0.009155274	-0.008630753	-0.793945313	0.193359375	0.584472656	899.8	-65.30029292	-76.51885134	-97.81385007	-67
45259	0	0.378723145	-0.081665039	0.037109375	0.999999046	-0.000133514	-0.000330925	-0.000160217	9.468078613	-2.041625977	0.927734375	-0.00667572	-0.01654625	-0.008010864	-0.796386719	0.193359375	0.58203125	899.74	-65.36448103	-76.55813525	-97.77213732	-67
45260	0	0.382190704	-0.080514908	0.036528587	0.999999046	-0.000378609	-0.00015831	-0.000160217	9.554767609	-2.012872696	0.913214684	-0.018930436	-0.007915497	-0.008010865	-0.793945313	0.191162109	0.58203125	899.84	-65.38163566	-76.58923583	-97.80924103	-67
45261	0	0.379638672	-0.083374023	0.036865234	0.999999046	-0.000370026	-0.000144005	-0.000175476	9.490966797	-2.084350586	0.921630859	-0.018501282	-0.007200241	-0.008773804	-0.793945313	0.191162109	0.58203125	899.72	-65.38849077	-76.62124427	-97.85363364	-68
45262	0	0.379250526	-0.083147049	0.037731171	0.999999046	9.53674E-05	-0.00031662	-0.000119209	9.481263161	-2.078676224	0.943279266	0.004768372	-0.015830994	-0.005960465	-0.796386719	0.191162109	0.582275391	899.74	-65.4289519	-76.65561716	-97.80930151	-68
45263	0	0.379699707	-0.083557129	0.037597656	0.999999046	0.000133514	-0.00032711	-0.00025177	9.492492676	-2.088928223	0.939941406	0.00667572	-0.016355515	-0.012588501	-0.796142578	0.188964844	0.582519531	899.68	-65.4431795	-76.70428463	-97.79134035	-69
45264	0	0.380986214	-0.082318306	0.03755188	0.999999046	-0.000216484	-0.000219345	-4.57764E-05	9.524655342	-2.057957649	0.938796997	-0.010824204	-0.010967255	-0.002288818	-0.793945313	0.188964844	0.582275391	899.8	-65.49157916	-76.72634993	-97.77687721	-68
45265	0	0.381347656	-0.08380127	0.037841797	0.999999046	4.57764E-05	-0.000227928	0.000102997	9.533691406	-2.095031738	0.946044922	0.002288818	-0.011396408	0.005149841	-0.793945313	0.188964844	0.582275391	899.74	-65.54375214	-76.73327952	-97.72762453	-69
45266	0	0.381164551	-0.081191063	0.038162231	0.999999046	8.39233E-05	-0.000198364	0.00026989	9.52911377	-2.029776573	0.954055786	0.004196167	-0.009918213	0.013494492	-0.793945313	0.188964844	0.584960938	899.72	-65.61186698	-76.72139878	-97.65875521	-69
45267	0	0.37902832	-0.081359863	0.037963867	0.999999046	-3.43323E-05	-0.000231743	0.000453949	9.475708008	-2.033996582	0.94909668	-0.001716614	-0.011587143	0.02269745	-0.793945313	0.191162109	0.58203125	899.74	-65.74473206	-76.69184757	-97.53262511	-69
45268	0	0.381652832	-0.081298828	0.03717041	0.999999046	3.91006E-05	2.28882E-05	0.00038147	9.541320801	-2.032470703	0.929260254	0.001955032	0.001144409	0.019073487	-0.793701172	0.188720703	0.579589844	899.78	-65.74191046	-76.65787734	-97.54339848	-69
45269	0	0.379512787	-0.080852509	0.039390564	0.999998093	0.000127792	-2.95639E-05	0.000118256	9.487819672	-2.021312714	0.984764099	0.006389618	-0.001478195	0.005912781	-0.793945313	0.188964844	0.582275391	899.68	-65.69953259	-76.65388702	-97.58459165	-70
45270	0	0.380411148	-0.08270359	0.039266586	0.999999046	0.000259399	5.91278E-05	2.86102E-06	9.510278702	-2.06758976	0.981664658	0.012969971	0.00295639	0.000143051	-0.791503906	0.188720703	0.58203125	899.62	-65.57988818	-76.65772661	-97.68892653	-69
45271	0	0.381591797	-0.082519531	0.038757324	0.999999046	0.000213623	5.05447E-05	-3.8147E-06	9.539794922	-2.062988281	0.968933105	0.010681152	0.002527237	-0.000190735	-0.793945313	0.191162109	0.579345703	899.84	-65.46774204	-76.66262104	-97.78580082	-70
45272	0	0.379146576	-0.08201313	0.037853241	0.999999046	8.29697E-05	6.48499E-05	0.000178337	9.478664398	-2.050328255	0.946331024	0.004148483	0.003242493	0.008916855	-0.793945313	0.188964844	0.582275391	899.78	-65.4007783	-76.64782126	-97.85777585	-70
45273	0	0.382202148	-0.084472656	0.037536621	0.999999046	5.34058E-05	2.38419E-05	0.000400543	9.555053711	-2.111816406	0.938415527	0.002670288	0.001192093	0.020027161	-0.793945313	0.191162109	0.579345703	899.84	-65.39999735	-76.61179468	-97.86041441	-70
45274	0	0.378959656	-0.082819939	0.038538933	0.999999046	0.000576019	0.000181198	1.14441E-05	9.473991394	-2.070498466	0.96347332	0.028800966	0.009059907	0.000572205	-0.796386719	0.191162109	0.582275391	899.68	-65.19241068	-76.60873117	-98.01701695	-70
45275	0	0.377380371	-0.083190918	0.036315918	0.999999046	3.8147E-05	1.62125E-05	0.000354767	9.434509277	-2.079772949	0.907897949	0.001907349	0.000810623	0.017738343	-0.793701172	0.188720703	0.579589844	899.78	-65.18804173	-76.57781937	-98.03269944	-70
45276	0	0.379759789	-0.085289001	0.03853035	0.999999046	0.000229836	8.58307E-05	0.000555992	9.493994713	-2.132225037	0.963258743	0.011491776	0.004291535	0.027799608	-0.796142578	0.191162109	0.579589844	899.74	-65.17197863	-76.5225872	-98.03536706	-69
45277	0	0.38067627	-0.082214355	0.037597656	0.999999046	0.000507355	7.34329E-05	0.000656128	9.516906738	-2.055358887	0.939941406	0.02536774	0.003671647	0.0328064	-0.796386719	0.193359375	0.579345703	899.74	-65.14959624	-76.45756576	-98.00998253	-69
45278	0	0.378854752	-0.081210136	0.036818504	0.999999046	8.7738E-05	0.000106812	0.000769615	9.47136879	-2.03025341	0.920462608	0.004386902	0.005340577	0.038480763	-0.796386719	0.195556641	0.579345703	899.62	-65.18337256	-76.37918429	-97.97366764	-69
45279	0	0.379516602	-0.083129883	0.037902832	0.999999046	8.39233E-05	8.10623E-05	0.000576019	9.487915039	-2.07824707	0.947570801	0.004196167	0.004053116	0.028800966	-0.796386719	0.193359375	0.58203125	899.74	-65.18994566	-76.32219823	-97.97349609	-69
45280	0	0.37752533	-0.080080032	0.039013863	0.999999046	-8.4877E-05	-4.57764E-05	0.000563622	9.43813324	-2.002000809	0.975346565	-0.004243851	-0.002288818	0.028181078	-0.793945313	0.195556641	0.579101563	899.74	-65.26717437	-76.27265053	-97.91447789	-68
45281	0	0.379394531	-0.083557129	0.03692627	0.999999046	4.57764E-05	-0.000151634	0.000354767	9.484863281	-2.088928223	0.923156738	0.002288818	-0.007581711	0.017738343	-0.796386719	0.195556641	0.581787109	899.74	-65.33324782	-76.24993161	-97.8543837	-68
45282	0	0.378554344	-0.081625938	0.037794113	0.999999046	0.000413895	-6.29425E-05	6.00815E-05	9.463858604	-2.04064846	0.944852829	0.020694733	-0.003147125	0.003004074	-0.796386719	0.197753906	0.576416016	899.84	-65.26163939	-76.25369976	-97.88686271	-68
45283	0	0.379150391	-0.081726074	0.037414551	0.999999046	6.86646E-05	-0.000185966	0.000160217	9.478759766	-2.043151855	0.93536377	0.003433228	-0.009298325	0.008010864	-0.796386719	0.197753906	0.579101563	899.78	-65.30151972	-76.25299871	-97.84618926	-67
45284	0	0.379747391	-0.083247185	0.038077354	0.999999046	-0.000277519	-0.000125885	0.000190735	9.493684769	-2.081179619	0.951933861	-0.013875962	-0.006294251	0.009536743	-0.793945313	0.195556641	0.576416016	899.74	-65.3614304	-76.24626858	-97.82843119	-67
45285	0	0.377929688	-0.082275391	0.037963867	0.999999046	-0.000255585	-5.62668E-05	0.000179291	9.448242188	-2.056884766	0.94909668	-0.012779236	-0.002813339	0.008964539	-0.796386719	0.197753906	0.579101563	899.8	-65.38689975	-76.23744471	-97.83953302	-67
45286	0	0.379429817	-0.083346367	0.037877083	0.999999046	-0.000192642	-0.00022316	0.000132561	9.48574543	-2.083659172	0.946927071	-0.009632111	-0.01115799	0.006628037	-0.794189453	0.195556641	0.581787109	899.62	-65.46702858	-76.24147841	-97.79103075	-67
45287	0	0.379394531	-0.083374023	0.037780762	0.999999046	-0.000137329	-0.00014019	-0.000270844	9.484863281	-2.084350586	0.944519043	-0.006866455	-0.007009506	-0.013542176	-0.796386719	0.195556641	0.579345703	899.74	-65.42695896	-76.28363337	-97.85828294	-66
45288	0	0.378168106	-0.084217072	0.037405968	0.999999046	-0.000370979	-2.47955E-05	-0.00012207	9.454202652	-2.105426788	0.935149193	-0.018548966	-0.001239777	-0.006103516	-0.793945313	0.193359375	0.581787109	899.8	-65.39322712	-76.30478298	-97.94880149	-66
45289	0	0.37902832	-0.085144043	0.038574219	0.999999046	-2.67029E-05	-0.000174522	-6.10352E-05	9.475708008	-2.128601074	0.964355469	-0.001335144	-0.00872612	-0.003051758	-0.796386719	0.193359375	0.58203125	899.72	-65.39590872	-76.326697	-97.9616345	-66
45290	0	0.380271912	-0.082841873	0.036726952	0.999999046	-0.00012207	-0.000192642	7.62939E-05	9.506797791	-2.071046829	0.91817379	-0.006103516	-0.009632111	0.003814697	-0.793945313	0.193115234	0.576660156	899.74	-65.444298	-76.33520241	-97.93601755	-66
45291	0	0.38067627	-0.085449219	0.037658691	0.999999046	-0.000152588	-0.000372887	-0.000133514	9.516906738	-2.136230469	0.941467285	-0.007629395	-0.018644333	-0.00667572	-0.793945313	0.191162109	0.58203125	899.8	-65.53265017	-76.3741355	-97.87721486	-66
45292	0	0.37578392	-0.084201813	0.039304733	0.999999046	0.000109673	-0.000110626	-0.000294685	9.394598007	-2.105045319	0.982618332	0.005483627	-0.005531311	-0.014734268	-0.793945313	0.193359375	0.579345703	899.66	-65.44641415	-76.41737628	-97.95960881	-66
45293	0	0.380615234	-0.085388184	0.039245605	0.999999046	-0.00012207	-0.000433922	0.000209808	9.515380859	-2.13470459	0.981140137	-0.006103516	-0.021696092	0.010490418	-0.796386719	0.193359375	0.58203125	899.72	-65.62538381	-76.42332353	-97.79846279	-66
45294	0	0.378783226	-0.084519386	0.03956604	0.999999046	0.00025177	-0.00022316	0.000185966	9.46958065	-2.112984657	0.989151001	0.012588501	-0.01115799	0.009298325	-0.793945313	0.193359375	0.581787109	899.66	-65.66569376	-76.42169889	-97.73540086	-66
45295	0	0.382507324	-0.084472656	0.038757324	0.999999046	0.000339508	-9.82285E-05	0.000278473	9.562683105	-2.111816406	0.968933105	0.016975403	-0.004911423	0.013923645	-0.796386719	0.191162109	0.582275391	899.74	-65.65991453	-76.4045068	-97.71769071	-66
45296	0	0.379050255	-0.083193779	0.03849411	0.999999046	6.77109E-05	-0.000225067	0.00038147	9.476256371	-2.079844475	0.962352753	0.003385544	-0.011253357	0.019073487	-0.793945313	0.193359375	0.581787109	899.8	-65.75989422	-76.38253708	-97.6173847	-66
45297	0	0.378234863	-0.084411621	0.038574219	0.999999046	0.000167847	-2.57492E-05	0.000324249	9.455871582	-2.110290527	0.964355469	0.008392334	-0.00128746	0.016212464	-0.796386719	0.193359375	0.579345703	899.8	-65.75108297	-76.35713128	-97.61913434	-66
45298	0	0.378975868	-0.082814217	0.037970543	0.999999046	0.000307083	-0.000131607	6.86646E-05	9.474396706	-2.070355415	0.949263573	0.015354157	-0.006580353	0.003433228	-0.794189453	0.195556641	0.581787109	899.72	-65.72225489	-76.36343534	-97.61952313	-66
45299	0	0.379150391	-0.083862305	0.03894043	0.999999046	0.00075531	-0.000182152	-5.72205E-05	9.478759766	-2.096557617	0.973510742	0.037765507	-0.009107591	-0.002861023	-0.793945313	0.193359375	0.579345703	899.74	-65.63918733	-76.38526542	-97.62891884	-66
45300	0	0.381857872	-0.082910538	0.035873413	0.999999046	0.000477791	-4.19617E-05	7.53403E-05	9.5464468	-2.072763443	0.896835327	0.023889543	-0.002098084	0.003767014	-0.793945313	0.193359375	0.584472656	899.8	-65.55337568	-76.38667031	-97.67597788	-66
45301	0	0.378540039	-0.082824707	0.037963867	0.999999046	0.000179291	-0.000231743	0.000259399	9.463500977	-2.070617676	0.94909668	0.008964539	-0.011587143	0.012969971	-0.794189453	0.195556641	0.581787109	899.74	-65.61947406	-76.37787169	-97.59693937	-66
45302	0	0.380041122	-0.081665993	0.03879261	0.999999046	0.000457764	-0.000261307	0.000464439	9.501028061	-2.041649818	0.969815254	0.022888185	-0.013065339	0.023221972	-0.794189453	0.197753906	0.578857422	899.74	-65.70599147	-76.34907087	-97.46063909	-66
45303	0	0.378845215	-0.079589844	0.038085938	0.999999046	0.000320435	-0.000254631	0.00031662	9.471130371	-1.989746094	0.952148438	0.016021729	-0.012731553	0.015830994	-0.794189453	0.197753906	0.581542969	899.72	-65.77616986	-76.33542882	-97.35966666	-65
45304	0	0.379728317	-0.081576347	0.038554192	0.999999046	0.000163078	-0.000396729	0.000225067	9.493207932	-2.039408684	0.96385479	0.008153916	-0.019836427	0.011253357	-0.794189453	0.197753906	0.581542969	899.84	-65.90753841	-76.33802141	-97.21511445	-65
45305	0	0.380859375	-0.081420898	0.037414551	0.999999046	0.000232697	-0.00014019	-1.90735E-05	9.521484375	-2.035522461	0.93536377	0.011634827	-0.007009506	-0.000953674	-0.794189453	0.197753906	0.584228516	899.8	-65.87344279	-76.35416958	-97.23322964	-66
45306	0	0.380994797	-0.080472946	0.038747787	0.999999046	0.00012207	-0.000175476	4.57764E-05	9.524869919	-2.011823654	0.968694687	0.006103516	-0.008773804	0.002288818	-0.794189453	0.197753906	0.581542969	899.78	-65.8795117	-76.36524672	-97.22229672	-65
45307	0	0.378723145	-0.080505371	0.040039063	0.999999046	6.48499E-05	-0.00020504	5.72205E-05	9.468078613	-2.012634277	1.000976563	0.003242493	-0.010251999	0.002861023	-0.794189453	0.195556641	0.581787109	899.74	-65.90681423	-76.37654611	-97.20142718	-65
45308	0	0.382390976	-0.081459999	0.038304329	0.999999046	-6.19888E-05	-0.000165939	-0.000125885	9.559774399	-2.036499977	0.957608223	-0.003099442	-0.008296967	-0.006294251	-0.791748047	0.195556641	0.581542969	899.78	-65.89628242	-76.40521804	-97.23152389	-65
45309	0	0.378662109	-0.082092285	0.039672852	0.999999046	-0.000144958	0.000145912	-0.000583649	9.466552734	-2.052307129	0.991821289	-0.007247925	0.007295609	-0.029182436	-0.791748047	0.197753906	0.581298828	899.8	-65.67045385	-76.46706958	-97.48387806	-65
45310	0	0.377832413	-0.083555222	0.038170815	0.999999046	-0.000228882	-0.000391006	-0.000172615	9.445810318	-2.088880539	0.954270363	-0.011444092	-0.019550324	-0.008630753	-0.794189453	0.195556641	0.581787109	899.74	-65.7669187	-76.5112009	-97.41965682	-65
45311	0	0.381347656	-0.083496094	0.03729248	0.999999046	-5.72205E-05	-5.24521E-05	-7.24792E-05	9.533691406	-2.087402344	0.932312012	-0.002861023	-0.002622604	-0.003623962	-0.793945313	0.193359375	0.579345703	899.74	-65.71607038	-76.52892346	-97.49024373	-65
45312	0	0.380752563	-0.084116936	0.037852287	0.999999046	-0.000300407	-0.000131607	9.53674E-05	9.518814087	-2.102923393	0.946307182	-0.015020371	-0.006580353	0.004768372	-0.793945313	0.193359375	0.581787109	899.6	-65.76055811	-76.53281888	-97.49083098	-65
45313	0	0.380065918	-0.08416748	0.037109375	0.999999046	-0.000289917	2.76566E-05	0.000156403	9.501647949	-2.104187012	0.927734375	-0.01449585	0.001382828	0.00782013	-0.793945313	0.193359375	0.581787109	899.78	-65.74643252	-76.52282465	-97.54951361	-65
45314	0	0.379365921	-0.08473587	0.037568092	0.999999046	-0.000337601	-2.28882E-05	9.82285E-05	9.484148026	-2.118396759	0.939202309	-0.016880036	-0.001144409	0.004911423	-0.791748047	0.193359375	0.584472656	899.74	-65.74844722	-76.5212554	-97.5953526	-65
45315	0	0.378479004	-0.083557129	0.037963867	0.999999046	-0.000102997	-1.81198E-05	0.000133514	9.461975098	-2.088928223	0.94909668	-0.005149841	-0.000905991	0.00667572	-0.793945313	0.193359375	0.581787109	899.9	-65.72842076	-76.51575419	-97.63641503	-65
45316	0	0.380594254	-0.083544731	0.037321091	0.999999046	0.000193596	-0.000192642	-2.76566E-05	9.514856339	-2.088618279	0.933027267	0.009679794	-0.009632111	-0.001382828	-0.793945313	0.193359375	0.581787109	899.68	-65.71880938	-76.53530522	-97.63167909	-64
45317	0	0.379943848	-0.082397461	0.036621094	0.999999046	-8.39233E-05	-2.57492E-05	0.000141144	9.498596191	-2.059936523	0.915527344	-0.004196167	-0.00128746	0.00705719	-0.793945313	0.191162109	0.584716797	899.78	-65.70144155	-76.52937355	-97.67335436	-64
45318	0	0.380532265	-0.083610535	0.038599968	0.999999046	-0.000185013	-0.000190735	0.00020504	9.513306618	-2.090263367	0.964999199	-0.009250641	-0.009536743	0.010251999	-0.793945313	0.191162109	0.58203125	899.74	-65.78010054	-76.52452162	-97.62710654	-64
45319	0	0.378662109	-0.082946777	0.037963867	0.999999046	0.000144958	-0.00014782	0.000205994	9.466552734	-2.073669434	0.94909668	0.007247925	-0.007390976	0.010299683	-0.793945313	0.193359375	0.581787109	899.74	-65.80233792	-76.51753639	-97.5951043	-64
45320	0	0.38004303	-0.082238197	0.037202835	0.999999046	2.57492E-05	-0.000282288	0.000305176	9.501075745	-2.055954933	0.930070877	0.00128746	-0.01411438	0.01525879	-0.791503906	0.191162109	0.584472656	899.8	-65.91614796	-76.50648788	-97.48836699	-64
45321	0	0.378173828	-0.082946777	0.037902832	0.999999046	0.00018692	-0.000281334	3.8147E-05	9.454345703	-2.073669434	0.947570801	0.009346008	-0.014066696	0.001907349	-0.793945313	0.193359375	0.581787109	899.78	-65.95895774	-76.52329226	-97.43100892	-64
45322	0	0.380202293	-0.08241272	0.036925316	0.999999046	0.000337601	-0.000150681	1.81198E-05	9.505057335	-2.060317993	0.923132896	0.016880036	-0.007534027	0.000905991	-0.793945313	0.193359375	0.581787109	899.8	-65.92357748	-76.53610328	-97.4367458	-63
45323	0	0.38067627	-0.084106445	0.037963867	0.999999046	0.000263214	-0.000300407	3.43323E-05	9.516906738	-2.102661133	0.94909668	0.013160706	-0.015020371	0.001716614	-0.793945313	0.193359375	0.584472656	899.74	-65.96533641	-76.55419212	-97.37289113	-64
45324	0	0.3783741	-0.081000328	0.037716866	0.999999046	0.000267982	1.90735E-05	9.44138E-05	9.459352493	-2.025008202	0.942921638	0.013399124	0.000953674	0.004720688	-0.793945313	0.193359375	0.581787109	899.68	-65.8784047	-76.55108602	-97.44061671	-64
45325	0	0.383239746	-0.082885742	0.037963867	0.999999046	-8.39233E-05	-0.000506401	0.000198364	9.580993652	-2.072143555	0.94909668	-0.004196167	-0.025320054	0.009918213	-0.793945313	0.193359375	0.581787109	899.72	-66.0820839	-76.56163474	-97.25100481	-65
45326	0	0.37848568	-0.083226204	0.039152145	0.999999046	0.000368118	6.67572E-05	-0.000390053	9.462141991	-2.080655098	0.978803635	0.018405915	0.00333786	-0.019502641	-0.794189453	0.193359375	0.587158203	899.74	-65.86759262	-76.60700824	-97.43825702	-64
45327	0	0.37677002	-0.081054688	0.03704834	0.999999046	6.48499E-05	-0.000319481	3.8147E-06	9.419250488	-2.026367188	0.926208496	0.003242493	-0.015974045	0.000190735	-0.796386719	0.193359375	0.58203125	899.74	-65.93439775	-76.62920889	-97.37162644	-63
45328	0	0.384887695	-0.082275391	0.037719727	0.999999046	0.000164986	-0.000289917	4.19617E-05	9.622192383	-2.056884766	0.942993164	0.008249283	-0.01449585	0.002098084	-0.793945313	0.193359375	0.581787109	899.78	-65.98433667	-76.64603978	-97.30916995	-63
45329	0	0.381774902	-0.078979492	0.038024902	0.999999046	8.7738E-05	-0.000178337	4.57764E-05	9.544372559	-1.974487305	0.950622559	0.004386902	-0.008916855	0.002288818	-0.791748047	0.193359375	0.586914063	899.74	-65.99454612	-76.65731786	-97.29651497	-63
45330	0	0.385626793	-0.077604294	0.040219307	0.999999046	-7.05719E-05	-0.000164032	7.62939E-06	9.640669823	-1.940107346	1.005482674	-0.003528595	-0.008201599	0.00038147	-0.791748047	0.193359375	0.581787109	899.74	-66.00871103	-76.67199769	-97.29639376	-64
45331	0	0.389160156	-0.074584961	0.049865723	0.999999046	-0.001010895	0.000164986	0.000137329	9.729003906	-1.864624023	1.246643066	-0.050544748	0.008249284	0.006866456	-0.793945313	0.193359375	0.584472656	899.84	-66.00958928	-76.65783841	-97.41941443	-64
45332	0	0.395202637	-0.071472168	0.064331055	0.999992371	-0.003135681	0.001713753	0.000865936	9.880065918	-1.786804199	1.608276367	-0.156784411	0.08568783	0.043296912	-0.791748047	0.193359375	0.584472656	899.84	-65.71702622	-76.49487686	-98.08640958	-64
45333	0	0.40294838	-0.074908257	0.097197533	0.999972343	-0.004358292	0.005110741	0.002279282	10.07370949	-1.872706413	2.429938316	-0.217916409	0.255539176	0.113965036	-0.793945313	0.191162109	0.58203125	899.8	-64.42100669	-76.01850755	-99.93196908	-64
45334	0	0.415157318	-0.074353218	0.147854805	0.999921799	-0.004673958	0.010455132	0.004839897	10.37893295	-1.858830452	3.696370125	-0.233703913	0.522770045	0.242001093	-0.796142578	0.188720703	0.574462891	899.74	-61.71827327	-74.98712198	-103.2812105	-64
45335	0	0.417663574	-0.049072266	0.179748535	0.999848366	-0.000282288	0.016530037	0.005325317	10.44158936	-1.226806641	4.493713379	-0.01411509	0.826543409	0.266279259	-0.802734375	0.190917969	0.551025391	899.74	-56.99365136	-73.4995202	-108.235835	-64
45336	0	0.434987068	-0.064148903	0.257169724	0.999729156	0.005357742	0.022397041	0.003220558	10.8746767	-1.603722572	6.429243088	0.267911263	1.119953009	0.161042423	-0.816894531	0.201904297	0.521972656	899.62	-50.39190297	-71.68023753	-114.5172659	-63
45337	0	0.432861328	-0.065063477	0.278930664	0.999289513	0.018959045	0.03249836	-0.00213623	10.8215332	-1.626586914	6.973266602	0.948176787	1.625302835	-0.106836821	-0.832763672	0.21484375	0.469238281	899.68	-40.18595822	-69.22223919	-123.0411791	-66
45338	0	0.435983658	-0.030069351	0.274465561	0.998981476	0.017666817	0.040326118	-0.009813309	10.89959145	-0.75173378	6.861639023	0.883640653	2.016990284	-0.490831974	-0.857666016	0.225585938	0.393554688	899.68	-29.41502097	-66.04684075	-132.4560148	-61
45339	0	0.453430176	-0.062316895	0.326660156	0.998795509	0.012199402	0.045239449	-0.014549255	11.33575439	-1.557922363	8.166503906	0.610215069	2.262880883	-0.727754933	-0.893554688	0.216552734	0.309570313	899.8	-20.35529006	-62.01520067	-140.9156725	-58
45340	0	0.508709908	-0.078942299	0.341032982	0.998542786	0.012233734	0.050257683	-0.015366554	12.71774769	-1.973557472	8.525824547	0.61198393	2.514105172	-0.76870105	-0.930908203	0.191650391	0.208740234	899.72	-13.20995421	-56.97596667	-147.5363986	-59
45341	0	0.531555176	-0.061157227	0.393371582	0.998096466	0.011040688	0.059341431	-0.012599945	13.28887939	-1.528930664	9.834289551	0.552384789	2.968954922	-0.630397153	-0.963134766	0.168701172	0.093994141	899.72	-8.239500901	-50.52767327	-152.1091271	-59
45342	0	0.578391075	-0.096949577	0.455208778	0.997365952	0.026805878	0.066552162	-0.01049614	14.45977688	-2.423739433	11.38021946	1.341471197	3.330531076	-0.525267966	-0.990234375	0.145751953	-0.041992188	899.74	-3.059696735	-43.02027147	-155.014115	-58
45343	0	0.612548828	-0.01373291	0.41595459	0.996078491	0.043377876	0.076244354	-0.011470795	15.3137207	-0.343322754	10.39886475	2.171732937	3.817207978	-0.574290508	-1.004394531	0.115478516	-0.204833984	899.78	3.001032406	-34.24718134	-156.7723718	-59
45344	0	0.618953705	0.04536438	0.406802177	0.995553017	0.036692619	0.08549881	-0.014745712	15.47384262	1.134109497	10.17005444	1.837355226	4.281288389	-0.738380416	-0.991699219	0.064941406	-0.381103516	899.68	7.667710933	-24.29912509	-157.703891	-55
45345	0	0.56036377	0.068481445	0.29510498	0.995821953	0.012619019	0.089226723	-0.014717102	14.00909424	1.712036133	7.377624512	0.631830965	4.467558715	-0.736881458	-0.954345703	0.003173828	-0.560546875	899.74	9.186263855	-13.90698619	-157.9073865	-60
45346	0	0.463131905	0.033971786	0.177796364	0.995778084	-0.005064011	0.091192245	-0.009160995	11.57829762	0.849294662	4.444909096	-0.253557447	4.56603958	-0.458695449	-0.875732422	-0.034912109	-0.721191406	899.74	8.520814126	-3.396263829	-157.3476771	-62
45347	0	0.330078125	0.012390137	0.012756348	0.995089531	-0.032066345	0.09360981	0.002357483	8.251953125	0.309753418	0.318908691	-1.605946713	4.688166534	0.11806746	-0.756591797	-0.031005859	-0.861816406	899.68	4.882760039	7.244298976	-155.8433081	-66
45348	0	0.112327576	-0.039749146	-0.183970451	0.993546486	-0.062375069	0.09311676	0.017419815	2.808189392	-0.993728638	-4.599261284	-3.125479484	4.665879012	0.872869173	-0.610351563	0.050292969	-0.968505859	899.68	-1.792434225	17.87380222	-153.5191486	-75
45349	0	0.074584961	-0.190368652	-0.256469727	0.997329712	-0.010626793	0.062553406	0.036151886	1.864624023	-4.759216309	-6.411743164	-0.531813038	3.130456862	1.809204762	-0.428955078	0.178466797	-1.018310547	899.78	-1.465462027	25.16532449	-149.2986409	-64
45350	0	0.058279991	0.030112267	-0.293187141	0.998084068	0.019239426	0.031318665	0.049769402	1.456999779	0.752806664	-7.329678535	0.962586081	1.56693402	2.490060466	-0.233642578	0.17578125	-1.047363281	899.68	3.666627374	28.6507566	-142.836605	-65
45351	0	-0.168762207	-0.024719238	-0.294250488	0.998915672	-0.00750351	0.008198738	0.045192719	-4.219055176	-0.617980957	-7.356262207	-0.375311041	0.41008503	2.260452414	-0.109130859	0.158447266	-1.057373047	899.8	5.689986715	29.17247581	-136.8640947	-73
45352	0	-0.230921745	-0.108401299	-0.319283485	0.999243736	-0.013209343	-0.007322311	0.035820961	-5.773043633	-2.710032463	-7.982087135	-0.660633616	-0.366207848	1.791499475	-0.041503906	0.190917969	-1.056884766	899.56	6.33585487	27.9212165	-132.3282254	-67
45353	0	-0.280700684	-0.145996094	-0.188354492	0.998511314	-0.034450531	-0.026442528	0.032993317	-7.01751709	-3.649902344	-4.708862305	-1.723381668	-1.322782735	1.65048478	-0.019775391	0.232910156	-1.045898438	899.68	4.090702078	24.57830864	-128.4506387	-66
45354	0	-0.183328629	-0.250074387	-0.02372551	0.996898651	-0.050019264	-0.048613548	0.036432266	-4.583215714	-6.251859665	-0.593137741	-2.503551639	-2.433193098	1.823498631	-0.038818359	0.33984375	-1.014160156	899.66	-0.084723283	18.88229288	-124.17971	-58
45355	0	0.258483887	-0.364501953	0.032104492	0.997168541	-0.019744873	-0.055342674	0.046924591	6.462097168	-9.112548828	0.802612305	-0.988176437	-2.769748205	2.348446359	-0.094238281	0.4453125	-0.953125	899.62	-0.843260233	12.59234498	-118.5467674	-61
45356	0	0.379760742	-0.238342285	-0.073791504	0.997467995	0.031487465	-0.026756287	0.057872772	9.494018555	-5.958557129	-1.844787598	1.575703107	-1.338944373	2.896082847	-0.172607422	0.486572266	-0.916748047	899.78	4.018367639	9.352078098	-111.9011946	-60
45357	0	0.339477539	0.072509766	-0.013671875	0.996824265	0.00521183	0.000270844	0.079452515	8.486938477	1.812744141	-0.341796875	0.260867651	0.013556526	3.976835454	-0.221435547	0.462646484	-0.919433594	899.68	6.031028946	8.594106505	-102.7656868	-63
45358	0	0.417514801	0.189903259	0.162213326	0.995410919	-0.05193615	0.01831913	0.078249931	10.43787003	4.747581482	4.055333138	-2.600786627	0.917360038	3.918491775	-0.203369141	0.527099609	-0.886474609	899.62	1.537584447	10.10657151	-93.6705453	-63
45359	0	0.412536621	0.42590332	0.476196289	0.992618561	-0.104128838	0.01027298	0.061302185	10.31341553	10.64758301	11.90490723	-5.219288333	0.514916372	3.07267215	-0.117675781	0.655273438	-0.794921875	899.66	-9.114355578	11.74362004	-86.72481028	-63
45360	0	0.112711906	-0.012992859	1.554141998	0.991109848	-0.118721008	-0.045685768	-0.038965225	2.817797661	-0.324821472	38.85354996	-5.953702886	-2.291081363	-1.954054949	0.004150391	0.828613281	-0.598876953	899.78	-23.2165022	5.451609069	-89.39683039	-64
45361	0	0.405273438	-0.587402344	2.050292969	0.987071037	-0.11271286	-0.061789513	-0.095745087	10.13183594	-14.68505859	51.25732422	-5.660055529	-3.102858647	-4.8079918	0.069335938	0.931640625	-0.390380859	899.86	-36.20680437	-6.202624511	-95.37524572	-60
45362	0	0.412853241	-0.933885574	1.601462364	0.99155426	-0.087193489	-0.013855934	-0.094997406	10.32133102	-23.34713936	40.0365591	-4.371988926	-0.694753602	-4.763286931	-0.111816406	0.938232422	-0.153808594	899.8	-44.91620338	-14.5486554	-102.7563244	-58
45363	0	-0.179382324	-0.726013184	0.953552246	0.996048927	0.028076172	0.046971321	-0.06993103	-4.484558105	-18.15032959	23.83880615	1.405659991	2.351663436	-3.501162903	-0.313720703	0.877441406	-0.044921875	899.92	-39.05318557	-15.93851581	-112.7075411	-62
45364	0	-0.426575661	-0.355863571	0.520474434	0.996061325	0.05463028	0.047163963	-0.051506042	-10.66439152	-8.896589279	13.01186085	2.735105792	2.361299088	-2.578688528	-0.464355469	0.802734375	-0.184082031	899.86	-30.55990215	-14.8750437	-120.9744314	-73
45365	0	-0.378173828	-0.271728516	0.185119629	0.99769783	0.018815041	0.048748016	-0.043216705	-9.454345703	-6.793212891	4.627990723	0.941474464	2.439272579	-2.162494643	-0.558349609	0.727294922	-0.31640625	899.9	-26.67580251	-12.33249226	-128.2331583	-66
45366	0	-0.188342094	-0.364025116	0.077116966	0.998421669	0.003358841	0.04532814	-0.032972336	-4.708552361	-9.100627899	1.927924156	0.168030429	2.26759974	-1.649484397	-0.611572266	0.671875	-0.397705078	899.8	-25.19302694	-9.296725248	-134.0311934	-76
45367	0	-0.029663086	-0.363647461	-0.024230957	0.998114586	0.0014534	0.051804543	-0.032867432	-0.741577148	-9.091186523	-0.605773926	0.072715674	2.591855727	-1.644404849	-0.641601563	0.631835938	-0.463623047	899.78	-24.25655226	-5.458783362	-140.0071791	-78
45368	0	0.042461395	-0.224969864	-0.091609001	0.998531342	-0.006778717	0.041308403	-0.03437233	1.061534882	-5.624246597	-2.290225029	-0.339101799	2.066431405	-1.719457941	-0.645751953	0.589111328	-0.533691406	899.78	-24.6384817	-2.761477627	-145.587303	-89
45369	0	0.181274414	-0.236083984	-0.082946777	0.998204231	-0.039432526	0.027703285	-0.035572052	4.531860352	-5.902099609	-2.073669434	-1.972807145	1.385993875	-1.779667856	-0.63671875	0.559814453	-0.563476563	899.78	-28.97177186	-1.754808895	-150.6827316	-78
45370	0	0.131768227	-0.226351738	-0.067079544	0.997731209	-0.056724548	0.010383606	-0.034726143	3.294205666	-5.658793449	-1.676988602	-2.83837381	0.519573202	-1.737621142	-0.642089844	0.5625	-0.539550781	899.78	-35.33188769	-2.860012311	-154.7103076	-69
45371	0	0.141723633	-0.286987305	-0.054626465	0.998041153	-0.050665855	-0.020401001	-0.030479431	3.54309082	-7.174682617	-1.365661621	-2.534947487	-1.020716333	-1.524966998	-0.655761719	0.572021484	-0.473388672	899.74	-41.05128504	-6.85720638	-156.033921	-64
45372	0	0.186144829	-0.307857513	-0.017344475	0.998103142	-0.01236248	-0.053955078	-0.026941299	4.65362072	-7.696437836	-0.43361187	-0.618515105	-2.699460817	-1.347917281	-0.692871094	0.557861328	-0.377197266	899.84	-42.82166372	-13.52777761	-154.1785086	-66
45373	0	0.254882813	-0.261474609	0.015930176	0.995826721	0.001385689	-0.08870697	-0.021369934	6.372070313	-6.536865234	0.398254395	0.069380963	-4.441527604	-1.069985277	-0.745605469	0.512939453	-0.266845703	899.8	-44.40016197	-22.60312116	-148.6787753	-64
45374	0	0.364059448	-0.33562851	0.072091103	0.993362427	0.015130043	-0.112725258	-0.017166138	9.101486206	-8.390712738	1.802277565	0.758180322	-5.648765981	-0.860210892	-0.814208984	0.473388672	-0.09765625	899.74	-46.85964794	-33.09671334	-139.7920517	-71
45375	0	0.476745605	-0.421325684	0.307006836	0.991244316	0.058795929	-0.117930412	-0.008277893	11.91864014	-10.53314209	7.675170898	2.948405771	-5.913788834	-0.415106762	-0.862060547	0.435791016	0.091064453	899.86	-47.40675412	-43.05661657	-128.0169766	-66
45376	0	1.257513046	0.108640671	2.149677277	0.988761902	0.119607925	-0.08951664	-0.00537014	31.43782616	2.716016769	53.74193192	6.002898415	-4.492672979	-0.269517302	-0.875488281	0.465820313	0.21875	899.84	-40.80039164	-50.88793748	-118.2254195	-69
45377	0	-0.139892578	-0.461730957	0.102722168	0.983772278	0.039433479	0.173286438	-0.024677277	-3.497314453	-11.54327393	2.568054199	1.982408956	8.71149573	-1.240581735	-0.833740234	0.473388672	0.141357422	899.8	-23.80613683	-35.37135507	-136.1300788	-68
45378	0	0.161103249	0.11238575	0.126324654	0.999123573	0.008892059	-0.038707733	-0.013210297	4.027581215	2.809643745	3.158116341	0.444732883	-1.935952194	-0.66070784	-0.834472656	0.440429688	-0.090820313	899.84	-23.06892646	-40.03567613	-135.6758232	-66
45379	0	0.247680664	-0.003967285	0.275146484	0.999689102	-0.004778862	-0.024185181	0.003509521	6.192016602	-0.099182129	6.878662109	-0.238967801	-1.20938404	0.175494214	-0.86328125	0.414550781	-0.033935547	899.62	-24.91365077	-42.39665101	-133.7171645	-66
45380	0	0.317454338	-0.144720078	0.209458351	0.99936676	-0.02674675	-0.023047447	0.004236221	7.936358452	-3.618001938	5.236458778	-1.337619503	-1.152615365	0.211855731	-0.881591797	0.424316406	0.029785156	899.78	-29.52095995	-44.51810697	-131.4861317	-66
45381	0	0.27166748	-0.163818359	0.255554199	0.999728203	-0.013103485	-0.018961906	0.003257751	6.791687012	-4.095458984	6.38885498	-0.655233439	-0.948180966	0.162902287	-0.875732422	0.427001953	0.084716797	899.78	-32.46575412	-46.18408639	-129.46676	-67
45382	0	0.326498032	-0.039376259	0.209245682	0.999481201	-0.030909538	-0.008700371	0.002324104	8.16245079	-0.984406471	5.231142044	-1.545744019	-0.435093724	0.116225299	-0.874511719	0.431884766	0.131835938	899.68	-36.81991788	-46.85101962	-128.3545337	-69
45383	0	0.290466309	-0.154968262	0.197143555	0.99887085	-0.047232628	-0.003509521	-0.003585815	7.261657715	-3.874206543	4.928588867	-2.362520307	-0.175542123	-0.179358256	-0.863037109	0.420898438	0.174072266	899.84	-42.15073766	-47.42265064	-128.4734303	-75
45384	0	0.296820641	-0.290963173	0.184269905	0.999461174	-0.032790184	0.001087189	-0.000183105	7.420516014	-7.274079323	4.606747627	-1.639803475	0.054369193	-0.009156917	-0.863037109	0.396972656	0.215820313	899.74	-45.7832926	-47.34815852	-128.6516467	-78
45385	0	0.304443359	-0.237426758	0.166625977	0.999872208	-0.013346672	0.007965088	-0.003681183	7.611083984	-5.935668945	4.165649414	-0.667361982	0.398271331	-0.18406697	-0.863037109	0.385986328	0.232421875	899.74	-46.27399259	-47.0192255	-130.0752234	-81
45386	0	0.294406891	-0.230609894	0.191088676	0.999775887	-0.004722595	0.013664246	-0.015407562	7.360172272	-5.765247345	4.777216911	-0.236147333	0.683263122	-0.770435441	-0.864257813	0.365966797	0.215820313	899.84	-44.26760892	-47.17235335	-133.5587686	-82
45387	0	0.26385498	-0.19909668	0.212463379	0.999822617	-0.002100945	0.010482788	-0.015472412	6.596374512	-4.977416992	5.311584473	-0.105053419	0.524170307	-0.773666217	-0.872070313	0.337158203	0.195068359	899.74	-42.199562	-47.51117039	-136.704546	-83
45388	0	0.27913475	-0.241851807	0.224270821	0.999808311	0.00703907	0.001468658	-0.018198013	6.978368759	-6.046295166	5.606770515	0.351975969	0.073437609	-0.909958738	-0.889648438	0.306152344	0.180419922	899.74	-39.49668155	-48.74579796	-139.2591022	-82
45389	0	0.279418945	-0.225524902	0.190734863	0.999583244	0.024578094	-0.004740715	-0.014362335	6.985473633	-5.638122559	4.768371582	1.229075367	-0.237068666	-0.718216476	-0.902587891	0.275146484	0.178466797	899.78	-35.52748628	-50.17507391	-140.7868074	-77
45390	0	0.297964096	-0.187649727	0.192113876	0.999129295	0.040971756	-0.006738663	-0.003865242	7.449102402	-4.691243172	4.802846909	2.049182025	-0.337030869	-0.193318159	-0.911621094	0.264160156	0.172119141	899.8	-30.88288377	-51.05817762	-140.7346082	-72
45391	0	0.301086426	-0.106384277	0.189025879	0.998950005	0.045303345	-0.006491661	-0.001831055	7.527160645	-2.659606934	4.725646973	2.265959996	-0.324696651	-0.091584776	-0.918701172	0.272949219	0.161376953	899.8	-25.88935195	-51.80567176	-140.4931808	-69
45392	0	0.31768322	-0.019142151	0.202062607	0.999586105	0.028329849	-0.004820824	-0.000795364	7.942080498	-0.478553772	5.05156517	1.416687646	-0.241074397	-0.039773699	-0.918701172	0.281738281	0.144775391	899.74	-22.81374065	-52.33945033	-140.2873742	-69
45393	0	0.320373535	-0.002197266	0.211242676	0.999984741	0.005368233	0.000991821	-0.000431061	8.009338379	-0.054931641	5.281066895	0.268412978	0.049591312	-0.021553147	-0.916503906	0.283935547	0.141845703	899.84	-22.06647971	-52.24636542	-140.463304	-69
45394	0	0.306376457	-0.047773361	0.216404915	0.999964714	-0.008161545	0.001529694	0.000715256	7.65941143	-1.19433403	5.410122871	-0.408081964	0.076485566	0.035763201	-0.918701172	0.283935547	0.13671875	899.86	-22.99477841	-52.04647479	-140.4800667	-69
45395	0	0.306274414	-0.091552734	0.21887207	0.999920845	-0.012481689	0.000634193	0.001045227	7.656860352	-2.288818359	5.471801758	-0.624100834	0.031710502	0.052262723	-0.918945313	0.286132813	0.139160156	899.84	-24.5099219	-51.92555428	-140.379433	-70
45396	0	0.305727959	-0.126080513	0.226566315	0.999959946	-0.00881958	-0.001166344	0.000948906	7.643198967	-3.152012825	5.664157867	-0.440984887	-0.058317962	0.04744593	-0.918945313	0.283935547	0.147216797	899.8	-25.70140985	-51.99443708	-140.1575169	-71
45397	0	0.313781738	-0.133178711	0.224060059	0.999992371	-0.00335598	-0.001457214	0.000354767	7.844543457	-3.329467773	5.601501465	-0.167799374	-0.072860882	0.017738382	-0.919189453	0.284179688	0.155273438	899.78	-26.20961146	-52.12084263	-140.00859	-71
45398	0	0.311524391	-0.134887695	0.220604897	0.999996185	0.002516747	-0.000266075	-0.000348091	7.788109779	-3.372192383	5.515122414	0.125837463	-0.013303771	-0.017404575	-0.918945313	0.279541016	0.155517578	899.72	-25.87597227	-52.1596212	-140.0751034	-70
45399	0	0.314331055	-0.124389648	0.21875	0.999970436	0.007591248	0.000565529	-0.000766754	7.858276367	-3.109741211	5.46875	0.379566081	0.028276719	-0.038338082	-0.916748047	0.281738281	0.155273438	899.86	-24.85240413	-52.13227281	-140.2783796	-69
45400	0	0.311079979	-0.108161926	0.218330383	0.999936104	0.011040688	0.001665115	-0.001223564	7.776999474	-2.704048157	5.458259583	0.552045987	0.083257519	-0.061179494	-0.918701172	0.279541016	0.147705078	899.8	-23.30765074	-52.00843854	-140.6423846	-69
45401	0	0.314575195	-0.07220459	0.218078613	0.999950409	0.009610176	0.002220154	-0.000911713	7.864379883	-1.805114746	5.451965332	0.480516662	0.111009506	-0.045586378	-0.918701172	0.281738281	0.139648438	899.8	-21.94281423	-51.80677574	-140.9859485	-68
45402	0	0.307971954	-0.059475899	0.22149086	0.999990463	0.003199577	0.002747536	-0.000535011	7.699298859	-1.486897469	5.5372715	0.159979348	0.137377199	-0.026750645	-0.920898438	0.283935547	0.12890625	899.78	-21.3410252	-51.52963876	-141.2932539	-68
45403	0	0.30255127	-0.069946289	0.223388672	0.999995232	-0.002182007	0.001763344	0.000240326	7.563781738	-1.748657227	5.584716797	-0.109100486	0.088167307	0.012016312	-0.923095703	0.283691406	0.12109375	899.78	-21.51418138	-51.32442783	-141.399056	-68
45404	0	0.299510002	-0.091162682	0.227345467	0.999992371	-0.003736496	0.000897408	0.000346184	7.487750053	-2.279067039	5.683636665	-0.186825262	0.044870488	0.017309232	-0.922851563	0.281494141	0.118652344	899.74	-21.92452179	-51.20718191	-141.4299	-69
45405	0	0.299133301	-0.104003906	0.230163574	0.999998093	-0.001490593	-0.00044632	0.000232697	7.47833252	-2.600097656	5.754089355	-0.074529679	-0.022315988	0.011634831	-0.922851563	0.281494141	0.118652344	899.74	-22.13395278	-51.23749048	-141.3884165	-68
45406	0	0.300513268	-0.100193977	0.230634689	0.999997139	0.001462936	-0.00153923	8.39233E-05	7.512831688	-2.504849434	5.765867233	0.073146875	-0.076961575	0.00419617	-0.923095703	0.279296875	0.124267578	899.78	-22.04433878	-51.39009178	-141.2974414	-68
45407	0	0.309020996	-0.08782959	0.229064941	0.999996185	0.00167942	-0.001743317	9.91821E-05	7.725524902	-2.195739746	5.726623535	0.083971106	-0.087165918	0.004959111	-0.923095703	0.281494141	0.124023438	899.74	-21.94291347	-51.56385349	-141.1892555	-68
45408	0	0.308152199	-0.083218575	0.228027344	0.999999046	0.000630379	-0.001182556	8.39233E-05	7.70380497	-2.080464363	5.700683594	0.031518946	-0.059127825	0.004196168	-0.918457031	0.279296875	0.129150391	899.8	-21.92931467	-51.67877106	-141.1227624	-68
45409	0	0.309875488	-0.084350586	0.225402832	0.999999046	-0.000606537	-0.00114727	0.000259399	7.746887207	-2.108764648	5.635070801	-0.030326852	-0.057363527	0.012969974	-0.923095703	0.281738281	0.129394531	899.78	-22.07937173	-51.78243157	-141.0279965	-68
45410	0	0.310038567	-0.085759163	0.222939491	0.999998093	-0.001734734	-0.00064373	0.000458717	7.750964165	-2.143979073	5.573487282	-0.086736732	-0.032186528	0.022935881	-0.923339844	0.281738281	0.131835938	899.8	-22.35841508	-51.8239059	-140.9337298	-68
45411	0	0.30847168	-0.09375	0.22668457	0.999996185	-0.002337456	-0.001075745	0.000701904	7.711791992	-2.34375	5.667114258	-0.116872926	-0.053787295	0.035095256	-0.920898438	0.283935547	0.131591797	899.72	-22.76398851	-51.90002245	-140.7655878	-68
45412	0	0.306929588	-0.090517998	0.221026421	0.999996185	-0.002279282	-0.001318932	0.000647545	7.673239708	-2.262949944	5.525660515	-0.11396422	-0.06594666	0.032377283	-0.921142578	0.283935547	0.136962891	899.86	-23.17051961	-52.00352855	-140.5882719	-69
45413	0	0.313049316	-0.093139648	0.22076416	0.999994278	-0.003149986	-0.000743866	0.000450134	7.82623291	-2.328491211	5.519104004	-0.157499594	-0.037193365	0.022506754	-0.921142578	0.281738281	0.139648438	899.78	-23.61804438	-52.0548012	-140.4864776	-68
45414	0	0.309203148	-0.096891403	0.221224785	0.999993324	-0.003555298	-0.000278473	0.000332832	7.730078697	-2.42228508	5.530619621	-0.177765273	-0.013923675	0.016641652	-0.918701172	0.283935547	0.142089844	899.72	-24.06921122	-52.06223335	-140.4376074	-69
45415	0	0.310302734	-0.10333252	0.221557617	0.999996185	-0.002532005	-0.000549316	0.000370026	7.757568359	-2.583312988	5.53894043	-0.12660041	-0.027465852	0.018501303	-0.918945313	0.281738281	0.147460938	899.8	-24.42469012	-52.09597447	-140.3623816	-69
45416	0	0.309797287	-0.10585022	0.22220993	0.999999046	-0.001238823	-2.67029E-05	0.000118256	7.744932175	-2.646255493	5.55524826	-0.061941163	-0.001335144	0.005912782	-0.918945313	0.281738281	0.147460938	899.8	-24.56673881	-52.08691497	-140.3697729	-69
45417	0	0.310668945	-0.109130859	0.219970703	0.999999046	0.000659943	0.000115395	4.95911E-05	7.766723633	-2.728271484	5.499267578	0.032997134	0.00576973	0.002479553	-0.916503906	0.281738281	0.147216797	899.74	-24.47358326	-52.06626606	-140.3993379	-69
45418	0	0.309325218	-0.106978416	0.221036911	0.999996185	0.002697945	0.000452995	-0.000232697	7.733130455	-2.674460411	5.525922775	0.134897402	0.022649793	-0.011634841	-0.918701172	0.281738281	0.144775391	899.8	-24.0890034	-52.02352368	-140.5027577	-69
45419	0	0.308227539	-0.09967041	0.219970703	0.999993324	0.00345993	0.000519753	-0.00037384	7.705688477	-2.491760254	5.499267578	0.172996878	0.025987679	-0.018692055	-0.918701172	0.281738281	0.144775391	899.72	-23.59478912	-51.97983269	-140.6345674	-69
45420	0	0.309350967	-0.094855309	0.221991539	0.999993324	0.003588676	0.000473022	-0.000205994	7.733774185	-2.371382713	5.549788475	0.179434216	0.023651175	-0.010299705	-0.918701172	0.283935547	0.142089844	899.84	-23.11168333	-51.93276014	-140.732837	-69
45421	0	0.308227539	-0.08972168	0.221862793	0.999996185	0.002621651	0.000400543	-0.000152588	7.705688477	-2.243041992	5.546569824	0.131082689	0.020027184	-0.007629404	-0.916259766	0.283935547	0.139160156	899.8	-22.75113478	-51.89054575	-140.8160287	-68
45422	0	0.308747292	-0.08760643	0.223060608	0.999998093	0.001635551	0.000441551	-0.00011158	7.718682289	-2.190160751	5.576515198	0.081777612	0.022077571	-0.005578997	-0.918701172	0.283935547	0.13671875	899.74	-22.50702961	-51.84196075	-140.8952426	-68
45423	0	0.307861328	-0.088928223	0.225646973	0.999999046	0.000770569	0.000359535	-9.15527E-05	7.696533203	-2.223205566	5.641174316	0.038528447	0.017976763	-0.004577637	-0.920898438	0.281738281	0.131835938	899.8	-22.36948187	-51.8010235	-140.9661248	-68
45424	0	0.307472229	-0.090846062	0.224298477	0.999999046	0.000418663	0.000164032	3.05176E-05	7.686805725	-2.271151543	5.607461929	0.020933152	0.008201599	0.001525879	-0.923095703	0.281738281	0.129394531	899.74	-22.29963165	-51.77542299	-141.0023396	-68
45425	0	0.307556152	-0.090759277	0.226013184	0.999999046	0.000282288	8.86917E-05	0.000118256	7.688903809	-2.268981934	5.65032959	0.01411438	0.004434586	0.005912781	-0.920898438	0.281738281	0.131835938	899.72	-22.26137575	-51.75396839	-141.0178716	-68
45426	0	0.307250023	-0.090277672	0.226117134	0.999999046	3.62396E-05	-0.000137329	0.000152588	7.681250572	-2.256941795	5.652928352	0.001811981	-0.006866455	0.007629395	-0.923339844	0.283935547	0.129150391	899.8	-22.26833843	-51.75497992	-141.0110264	-68
45427	0	0.306518555	-0.093017578	0.225280762	0.999999046	0.000259399	-0.000224113	0.000137329	7.662963867	-2.325439453	5.632019043	0.012969971	-0.011205673	0.006866455	-0.920898438	0.281738281	0.129150391	899.8	-22.25248335	-51.76583592	-141.0014102	-68
45428	0	0.309158325	-0.090239525	0.224944115	0.999999046	-2.00272E-05	-0.000408173	0.000102997	7.72895813	-2.255988121	5.623602867	-0.001001358	-0.020408631	0.005149841	-0.920898438	0.281738281	0.134521484	899.8	-22.27413468	-51.79772902	-140.9847941	-68
45429	0	0.305725098	-0.08984375	0.225708008	0.999999046	-0.000144958	-0.000254631	0.000106812	7.643127441	-2.24609375	5.642700195	-0.007247925	-0.012731552	0.005340576	-0.920898438	0.283935547	0.134277344	899.74	-22.30209911	-51.81314648	-140.9772152	-68
45430	0	0.308077812	-0.092233658	0.225156784	0.999999046	-9.72748E-05	-0.000516891	0.000197411	7.701945305	-2.305841446	5.628919601	-0.004863739	-0.025844575	0.00987053	-0.920898438	0.281738281	0.131835938	899.72	-22.35136417	-51.85241225	-140.9367647	-68
45431	0	0.309326172	-0.090026855	0.223876953	0.999999046	-0.00012207	-0.000380516	0.000183105	7.733154297	-2.250671387	5.596923828	-0.006103516	-0.019025803	0.009155274	-0.920898438	0.283935547	0.131591797	899.8	-22.39399338	-51.87786449	-140.9072713	-68
45432	0	0.308547974	-0.093186378	0.224839211	0.999999046	-0.000214577	-0.000320435	4.95911E-05	7.713699341	-2.329659462	5.620980263	-0.010728836	-0.016021729	0.002479553	-0.920898438	0.281738281	0.134521484	899.78	-22.42590828	-51.90276361	-140.90599	-68
45433	0	0.308654785	-0.092895508	0.225097656	0.999999046	-7.62939E-05	-0.000395775	0.000148773	7.716369629	-2.322387695	5.627441406	-0.003814697	-0.019788743	0.00743866	-0.920898438	0.281738281	0.131835938	899.68	-22.45961629	-51.93128956	-140.8822396	-69
45434	0	0.308133125	-0.090763092	0.223618507	0.999999046	-4.00543E-05	-0.000347137	6.77109E-05	7.703328133	-2.269077301	5.590462685	-0.002002716	-0.017356873	0.003385544	-0.920898438	0.281738281	0.131835938	899.78	-22.47548153	-51.9582181	-140.8757649	-68
45435	0	0.309204102	-0.090576172	0.224365234	0.999999046	-0.000225067	-0.00032711	0.000167847	7.730102539	-2.264404297	5.609130859	-0.011253357	-0.016355515	0.008392334	-0.920898438	0.283935547	0.131591797	899.74	-22.52495009	-51.97864158	-140.8523339	-69
45436	0	0.308709145	-0.092978477	0.224303246	0.999999046	-0.000441551	-0.00019455	0.000225067	7.717728615	-2.324461937	5.607581139	-0.022077561	-0.009727478	0.011253357	-0.920898438	0.281738281	0.134521484	899.78	-22.59955885	-51.98249453	-140.8298531	-69
45437	0	0.30847168	-0.095825195	0.224182129	0.999999046	-0.000385284	-0.000361443	0.000293732	7.711791992	-2.395629883	5.604553223	-0.019264222	-0.018072129	0.014686585	-0.920898438	0.279541016	0.137207031	899.8	-22.68652568	-52.00091922	-140.784901	-69
45438	0	0.308393478	-0.096423149	0.223456383	0.999999046	0.000221252	-0.000112534	0.000117302	7.70983696	-2.410578728	5.586409569	0.011062622	-0.005626679	0.005865097	-0.920898438	0.281738281	0.136962891	899.8	-22.66615618	-52.00077704	-140.7866271	-69
45439	0	0.30859375	-0.094970703	0.221923828	0.999999046	0.000488281	-0.000201225	5.34058E-05	7.71484375	-2.374267578	5.548095703	0.024414064	-0.010061265	0.002670288	-0.920898438	0.281738281	0.136962891	899.74	-22.61161455	-52.01283915	-140.7928854	-69
45440	0	0.310504913	-0.090819359	0.222680092	0.999999046	0.000582695	-8.2016E-05	-6.58035E-05	7.762622833	-2.270483971	5.567002296	0.029134752	-0.0041008	-0.003290177	-0.921142578	0.286132813	0.13671875	899.8	-22.52331915	-52.01756405	-140.8255004	-69
45441	0	0.309570313	-0.089111328	0.222595215	0.999999046	3.8147E-06	-6.38962E-05	8.39233E-05	7.739257813	-2.227783203	5.564880371	0.000190735	-0.003194809	0.004196167	-0.918701172	0.283935547	0.13671875	899.78	-22.52054686	-52.01382095	-140.8347304	-69
45442	0	0.308545113	-0.093312263	0.224081039	0.999999046	-4.3869E-05	-0.000144958	7.24792E-05	7.713627815	-2.332806587	5.602025986	-0.002193451	-0.007247925	0.003623962	-0.920898438	0.281738281	0.134521484	899.86	-22.52626088	-52.0191438	-140.8419166	-69
45443	0	0.308898926	-0.092834473	0.223327637	0.999999046	4.19617E-05	-0.000109673	0.000102997	7.722473145	-2.320861816	5.583190918	0.002098084	-0.005483627	0.005149841	-0.918701172	0.281738281	0.136962891	899.86	-22.52430628	-52.01939103	-140.8459074	-69
45444	0	0.308257103	-0.09324646	0.222961426	0.999999046	-7.34329E-05	-0.000335693	0.000171661	7.706427574	-2.331161499	5.574035645	-0.003671646	-0.016784668	0.008583069	-0.918701172	0.281738281	0.136962891	899.78	-22.55763639	-52.04053847	-140.8219799	-68
45445	0	0.309143066	-0.09197998	0.222167969	0.999999046	0.000270844	-0.00051403	0.000209808	7.72857666	-2.299499512	5.554199219	0.013542176	-0.025701524	0.010490418	-0.921142578	0.283935547	0.136962891	899.74	-22.56677977	-52.07889487	-140.7779618	-69
45446	0	0.311837196	-0.08973217	0.223299026	0.999999046	-0.000534058	-2.28882E-05	0.000160217	7.795929909	-2.243304253	5.582475662	-0.026702882	-0.001144409	0.008010865	-0.918701172	0.281738281	0.136962891	899.78	-22.63363791	-52.06750187	-140.7786044	-69
45447	0	0.307800293	-0.094604492	0.223815918	0.999999046	-0.000556946	-1.43051E-05	0.000205994	7.695007324	-2.365112305	5.595397949	-0.027847292	-0.000715256	0.010299683	-0.918701172	0.283935547	0.13671875	899.84	-22.70886943	-52.0531416	-140.770506	-69
45448	0	0.30929184	-0.097910881	0.223513603	0.999999046	0.000353813	-0.000131607	0.000113487	7.73229599	-2.447772026	5.58784008	0.017690659	-0.006580353	0.005674362	-0.918701172	0.281738281	0.136962891	899.86	-22.6739641	-52.05523823	-140.7714161	-69
45449	0	0.309631348	-0.094604492	0.223022461	0.999999046	0.000907898	-9.82285E-05	-3.8147E-06	7.740783691	-2.365112305	5.575561523	0.045394904	-0.004911423	-0.000190735	-0.920898438	0.281738281	0.136962891	899.78	-22.55780487	-52.05897023	-140.7953129	-69
45450	0	0.310774803	-0.088702202	0.224159241	0.999999046	0.000743866	-4.95911E-05	6.38962E-05	7.769370079	-2.217555046	5.603981018	0.037193302	-0.002479553	0.003194809	-0.918701172	0.283935547	0.134033203	899.74	-22.46677143	-52.05458516	-140.8090846	-69
45451	0	0.309265137	-0.087402344	0.22442627	0.999999046	-1.14441E-05	3.52859E-05	0.000232697	7.731628418	-2.185058594	5.610656738	-0.000572205	0.001764298	0.011634827	-0.918701172	0.281738281	0.136962891	899.78	-22.48029951	-52.03382698	-140.8017756	-68
45452	0	0.309878349	-0.091641426	0.224079132	0.999999046	-0.000376701	0.000160217	0.000201225	7.746958733	-2.291035652	5.601978302	-0.018835068	0.008010865	0.010061264	-0.918701172	0.283935547	0.13671875	899.86	-22.524359	-52.00122459	-140.8072497	-69
45453	0	0.308227539	-0.09173584	0.223754883	0.999999046	-0.00038147	-6.67572E-06	0.000267029	7.705688477	-2.293395996	5.59387207	-0.019073487	-0.000333786	0.013351441	-0.920898438	0.281738281	0.136962891	899.8	-22.58720592	-51.98338873	-140.7918325	-68
45454	0	0.308242798	-0.091034889	0.224962234	0.999999046	-0.000520706	-6.48499E-05	0.000193596	7.706069946	-2.275872231	5.624055862	-0.02603531	-0.003242493	0.009679795	-0.918701172	0.281738281	0.139648438	899.8	-22.65925943	-51.97491414	-140.7843858	-68
45455	0	0.309753418	-0.091125488	0.223388672	0.999999046	-0.000793457	-9.82285E-05	0.000244141	7.743835449	-2.278137207	5.584716797	-0.039672856	-0.004911423	0.012207033	-0.918701172	0.281738281	0.136962891	899.78	-22.77122018	-51.96774612	-140.765835	-69
45456	0	0.309874535	-0.092731476	0.22415638	0.999999046	-0.001114845	-0.000160217	0.000227928	7.746863365	-2.318286896	5.603909492	-0.055742276	-0.008010866	0.011396411	-0.920898438	0.281738281	0.136962891	899.8	-22.92129749	-51.96782351	-140.7460259	-69
45457	0	0.307983398	-0.096679688	0.225158691	0.999999046	-0.001125336	4.76837E-06	0.000324249	7.699584961	-2.416992188	5.628967285	-0.056266798	0.000238419	0.016212467	-0.920898438	0.281738281	0.134521484	899.78	-23.07616925	-51.94609763	-140.7216261	-69
45458	0	0.309015274	-0.09933567	0.223045349	0.999999046	-0.000196457	-0.000181198	0.000159264	7.725381851	-2.483391762	5.576133728	-0.009822846	-0.009059906	0.007963181	-0.918701172	0.281738281	0.136962891	899.78	-23.11314036	-51.9513395	-140.7112873	-68
45459	0	0.30871582	-0.098815918	0.223937988	0.999999046	0.000972748	-0.000285149	8.39233E-05	7.717895508	-2.470397949	5.598449707	0.048637399	-0.014257433	0.004196168	-0.921142578	0.281738281	0.139648438	899.8	-23.01203975	-51.97089054	-140.7069701	-68
45460	0	0.308887482	-0.093126297	0.222111702	0.999998093	0.001646042	-0.000348091	-0.00011158	7.722187042	-2.328157425	5.552792549	0.082302133	-0.017404565	-0.005578997	-0.918701172	0.281738281	0.136962891	899.84	-22.81088662	-52.00583805	-140.7309805	-68
45461	0	0.310668945	-0.088256836	0.223022461	0.999999046	0.000728607	-6.67572E-06	-2.67029E-05	7.766723633	-2.206420898	5.575561523	0.036430362	-0.000333786	-0.001335144	-0.918701172	0.281738281	0.139648438	899.84	-22.70669228	-52.00096007	-140.7652367	-68
45462	0	0.310066223	-0.088770866	0.222475052	0.999999046	-0.000114441	-0.000141144	0.0001297	7.751655579	-2.21927166	5.561876297	-0.005722046	-0.00705719	0.006484985	-0.918701172	0.281738281	0.136962891	899.72	-22.72777725	-52.00340929	-140.7629576	-68
45463	0	0.309997559	-0.092224121	0.223693848	0.999999046	-0.000549316	8.4877E-05	0.000202179	7.749938965	-2.305603027	5.592346191	-0.027465822	0.004243851	0.010108948	-0.920898438	0.281738281	0.136962891	899.72	-22.79564502	-51.978772	-140.765083	-68
45464	0	0.308272362	-0.09625721	0.223395348	0.999999046	-0.000491142	6.48499E-05	6.38962E-05	7.706809044	-2.406430244	5.58488369	-0.024557115	0.003242493	0.003194809	-0.920898438	0.281738281	0.136962891	899.78	-22.83935884	-51.96237084	-140.7891738	-68
45465	0	0.309020996	-0.09552002	0.222106934	0.999999046	0.000205994	4.29153E-05	0.000183105	7.725524902	-2.388000488	5.55267334	0.010299683	0.002145767	0.009155274	-0.921142578	0.281738281	0.139648438	899.8	-22.82059379	-51.94299739	-140.7914289	-68
45466	0	0.308724403	-0.090720177	0.22351265	0.999999046	7.82013E-05	7.62939E-06	0.000144958	7.718110085	-2.268004417	5.587816238	0.003910065	0.00038147	0.007247925	-0.916259766	0.281738281	0.13671875	899.9	-22.81325327	-51.92906196	-140.7963505	-68
45467	0	0.308654785	-0.093261719	0.221984863	0.999999046	-0.000202179	-2.86102E-06	0.000125885	7.716369629	-2.331542969	5.549621582	-0.010108948	-0.000143051	0.006294251	-0.920898438	0.281738281	0.134521484	899.78	-22.83607284	-51.91710557	-140.8050013	-68
45468	0	0.308387756	-0.096970558	0.224140167	0.999999046	0.000185966	-0.000204086	3.71933E-05	7.709693909	-2.424263954	5.603504181	0.009298325	-0.010204315	0.001859665	-0.921142578	0.283935547	0.139404297	899.9	-22.81395899	-51.9303144	-140.8123887	-68
45469	0	0.309326172	-0.09173584	0.22277832	0.999999046	-9.53674E-05	-0.000216484	0.000152588	7.733154297	-2.293395996	5.569458008	-0.004768372	-0.010824204	0.007629395	-0.921142578	0.281738281	0.139648438	899.84	-22.84030162	-51.93973161	-140.8012029	-68
45470	0	0.308051109	-0.094863892	0.223297119	0.999999046	-0.00018692	1.14441E-05	0.000110626	7.701277733	-2.37159729	5.582427979	-0.009346008	0.000572205	0.005531311	-0.920898438	0.281738281	0.136962891	899.78	-22.85856477	-51.92693096	-140.8133769	-68
45471	0	0.31048584	-0.096130371	0.222229004	0.999999046	0.000366211	-0.000254631	0.000114441	7.762145996	-2.403259277	5.555725098	0.018310548	-0.012731553	0.005722046	-0.920898438	0.281738281	0.136962891	899.84	-22.82915245	-51.94208278	-140.8056937	-68
45472	0	0.309357643	-0.091155052	0.22354126	0.999999046	0.00024128	-9.15527E-05	0.000197411	7.733941078	-2.278876305	5.588531494	0.01206398	-0.004577637	0.009870529	-0.918701172	0.281738281	0.136962891	899.84	-22.81591087	-51.93634409	-140.7951429	-68
45473	0	0.308837891	-0.094787598	0.222351074	0.999999046	0.000110626	-0.000197411	8.39233E-05	7.720947266	-2.369689941	5.558776855	0.005531311	-0.009870529	0.004196167	-0.920898438	0.281738281	0.136962891	899.8	-22.80838336	-51.94683968	-140.7969855	-68
45474	0	0.309581757	-0.092593193	0.22322464	0.999999046	0.000133514	4.3869E-05	-9.53674E-07	7.739543915	-2.314829826	5.580615997	0.00667572	0.002193451	-4.76837E-05	-0.918701172	0.283935547	0.139404297	899.9	-22.77307037	-51.93562937	-140.8278432	-68
45475	0	0.309509277	-0.093994141	0.223266602	0.999999046	-4.19617E-05	-2.95639E-05	0.00019455	7.737731934	-2.349853516	5.581665039	-0.002098084	-0.001478195	0.009727478	-0.918701172	0.281738281	0.139648438	899.86	-22.78842542	-51.92350844	-140.8222453	-68
45476	0	0.309547424	-0.093462944	0.22342205	0.999999046	9.82285E-05	-0.000177383	0.00014782	7.738685608	-2.336573601	5.585551262	0.004911423	-0.008869171	0.007390976	-0.918457031	0.279541016	0.136962891	899.84	-22.78978365	-51.92908976	-140.8160851	-68
45477	0	0.307983398	-0.093688965	0.22277832	0.999999046	8.39233E-05	-0.000285149	8.7738E-05	7.699584961	-2.342224121	5.569458008	0.004196167	-0.014257431	0.004386902	-0.921142578	0.281738281	0.139648438	899.8	-22.79079936	-51.94872244	-140.8110505	-68
45478	0	0.309741974	-0.092668533	0.22243309	0.999999046	0.000198364	-0.000162125	0.000109673	7.743549347	-2.316713333	5.560827255	0.009918213	-0.008106232	0.005483627	-0.918701172	0.283935547	0.13671875	899.72	-22.7746737	-51.9544132	-140.8080895	-68
45479	0	0.31036377	-0.092956543	0.224914551	0.999999046	-0.000511169	0.000180244	0.000118256	7.759094238	-2.323913574	5.62286377	-0.025558473	0.009012223	0.005912781	-0.920898438	0.281738281	0.136962891	899.84	-22.82156641	-51.92355406	-140.8312073	-68
45480	0	0.307085991	-0.097531319	0.224069595	0.999999046	-0.00011158	-0.000192642	8.29697E-05	7.677149773	-2.438282967	5.601739883	-0.005578995	-0.009632111	0.004148483	-0.918457031	0.281738281	0.134277344	899.84	-22.8391634	-51.93360403	-140.8324266	-68
45481	0	0.310302734	-0.094482422	0.222473145	0.999999046	0.000793457	-0.000227928	-7.62939E-06	7.757568359	-2.362060547	5.561828613	0.039672856	-0.011396409	-0.00038147	-0.920898438	0.281738281	0.136962891	899.78	-22.74284616	-51.95142903	-140.8474796	-67
45482	0	0.308635712	-0.090097427	0.222414017	0.999999046	0.000289917	-9.91821E-05	0.000118256	7.715892792	-2.252435684	5.560350418	0.01449585	-0.004959107	0.005912781	-0.918701172	0.281738281	0.136962891	899.74	-22.7138386	-51.95009383	-140.8496155	-68
45483	0	0.308776855	-0.089538574	0.22265625	0.999999046	-0.000247955	-0.000102043	0.000202179	7.719421387	-2.238464355	5.56640625	-0.012397766	-0.005102158	0.010108948	-0.918701172	0.281738281	0.139648438	899.86	-22.75786613	-51.94537559	-140.8374054	-68
45484	0	0.309700012	-0.094168663	0.222118378	0.999999046	-0.000546455	-0.000152588	0.000213623	7.742500305	-2.354216576	5.552959442	-0.027322771	-0.007629395	0.010681153	-0.921142578	0.283935547	0.139404297	899.84	-22.84054213	-51.94550279	-140.8180906	-68
45485	0	0.308532715	-0.096740723	0.223022461	0.999999046	-0.000110626	-8.67844E-05	0.000102997	7.713317871	-2.418518066	5.575561523	-0.005531311	-0.004339218	0.005149841	-0.918701172	0.283935547	0.13671875	899.8	-22.85470141	-51.94357602	-140.8214916	-68
45486	0	0.308673859	-0.094168663	0.223191261	0.999999046	0.000238419	-5.91278E-05	0.000102043	7.716846466	-2.354216576	5.579781532	0.011920929	-0.00295639	0.005102158	-0.918701172	0.281738281	0.136962891	899.84	-22.82717456	-51.93876735	-140.8295857	-68
45487	0	0.309631348	-0.093933105	0.222229004	0.999999046	0.000190735	-0.000182152	0.000114441	7.740783691	-2.348327637	5.555725098	0.009536743	-0.00910759	0.005722046	-0.920898438	0.281738281	0.136962891	899.78	-22.81378918	-51.94642289	-140.8274872	-68
45488	0	0.308409691	-0.093857765	0.224349022	0.999999046	0.00039196	-0.000188828	4.48227E-05	7.710242271	-2.34644413	5.608725548	0.019598008	-0.009441376	0.002241135	-0.918701172	0.281738281	0.139648438	899.8	-22.76831549	-51.957854	-140.8360564	-68
45489	0	0.309997559	-0.091552734	0.222900391	0.999999046	-0.0001297	-0.000178337	9.91821E-05	7.749938965	-2.288818359	5.572509766	-0.006484985	-0.008916855	0.004959106	-0.918701172	0.281738281	0.136962891	899.78	-22.7893124	-51.96579328	-140.8359363	-68
45490	0	0.307739258	-0.095457077	0.224840164	1	2.38419E-05	-3.14713E-05	4.1008E-05	7.693481445	-2.386426926	5.621004105	0.001192093	-0.001573563	0.0020504	-0.921142578	0.281738281	0.139648438	899.84	-22.77656517	-51.96074978	-140.8571234	-68
45491	0	0.309875488	-0.095397949	0.221801758	0.999999046	0.000530243	-0.000273705	7.62939E-05	7.746887207	-2.38494873	5.545043945	0.026512148	-0.013685227	0.003814697	-0.918701172	0.281738281	0.139648438	899.84	-22.72435248	-51.97975467	-140.8539275	-68
45492	0	0.308884621	-0.091058731	0.223193169	0.999999046	0.000260353	-8.01086E-05	9.82285E-05	7.722115517	-2.276468277	5.579829216	0.013017655	-0.004005432	0.004911423	-0.918701172	0.281738281	0.139648438	899.72	-22.69500114	-51.97733842	-140.8609812	-68
45493	0	0.309814453	-0.093566895	0.222106934	0.999999046	0.000144958	-0.000250816	8.01086E-05	7.745361328	-2.339172363	5.55267334	0.007247925	-0.012540817	0.004005432	-0.918701172	0.281738281	0.139648438	899.74	-22.68610249	-51.99379303	-140.8588346	-68
45494	0	0.309179306	-0.091355324	0.222770691	0.999999046	6.10352E-05	-0.000148773	8.39233E-05	7.729482651	-2.283883095	5.569267273	0.003051758	-0.00743866	0.004196167	-0.918701172	0.281738281	0.136962891	899.84	-22.681522	-51.99930796	-140.8632486	-68
45495	0	0.308837891	-0.093200684	0.222045898	0.999999046	-0.000202179	-0.000357628	0.000167847	7.720947266	-2.33001709	5.551147461	-0.010108948	-0.017881394	0.008392334	-0.918701172	0.281738281	0.136962891	899.68	-22.73031298	-52.02320163	-140.8382887	-68
45496	0	0.311340332	-0.093139648	0.221740723	0.999999046	4.76837E-06	-0.000427246	0.000232697	7.783508301	-2.328491211	5.543518066	0.000238419	-0.021362306	0.011634827	-0.918701172	0.281738281	0.139648438	899.74	-22.76818351	-52.05160868	-140.7974996	-68
45497	0	0.309936523	-0.093566895	0.222167969	0.999999046	-0.00031662	4.76837E-06	8.39233E-05	7.748413086	-2.339172363	5.554199219	-0.015830994	0.000238419	0.004196167	-0.921142578	0.281738281	0.139648438	899.78	-22.79820136	-52.04097259	-140.8141254	-68
45498	0	0.309063911	-0.096323013	0.221376419	0.999999046	0.000150681	-0.00015831	5.62668E-05	7.726597786	-2.408075333	5.534410477	0.007534027	-0.007915497	0.002813339	-0.918701172	0.281738281	0.139648438	899.8	-22.78030303	-52.04879286	-140.8225483	-68
45499	0	0.310424805	-0.093688965	0.222839355	0.999999046	0.000492096	-0.000247002	7.62939E-05	7.760620117	-2.342224121	5.570983887	0.024604799	-0.012350083	0.003814697	-0.918701172	0.281738281	0.139648438	899.84	-22.73103764	-52.06510375	-140.8212229	-68
45500	0	0.308933258	-0.091382027	0.221493721	0.999999046	0.000142097	-0.000198364	0.000110626	7.723331451	-2.284550667	5.537343025	0.007104874	-0.009918213	0.005531311	-0.918701172	0.281738281	0.136962891	899.68	-22.72372853	-52.07477586	-140.8174814	-68
45501	0	0.310241699	-0.093444824	0.223266602	0.999999046	6.10352E-05	-0.000170708	0.000152588	7.75604248	-2.336120605	5.581665039	0.003051758	-0.008535385	0.007629395	-0.921142578	0.281738281	0.139648438	899.74	-22.72983477	-52.07966531	-140.8097138	-68
45502	0	0.31053257	-0.091255188	0.219386101	0.999999046	-0.000236511	-0.000160217	0.000171661	7.763314247	-2.2813797	5.484652519	-0.011825562	-0.008010864	0.008583069	-0.918457031	0.279541016	0.139648438	899.8	-22.77201994	-52.08266541	-140.8011479	-68
45503	0	0.30859375	-0.09552002	0.223083496	0.999999046	-0.000160217	9.63211E-05	1.52588E-05	7.71484375	-2.388000488	5.577087402	-0.008010864	0.004816055	0.000762939	-0.921142578	0.281738281	0.142333984	899.84	-22.76970986	-52.06546157	-140.8358422	-68
45504	0	0.310256958	-0.095234871	0.223111153	0.999999046	0.00026989	-0.000211716	0.000136375	7.75642395	-2.380871773	5.577778816	0.013494492	-0.010585785	0.006818772	-0.918701172	0.283935547	0.139404297	899.8	-22.75211616	-52.07542623	-140.8235755	-68
45505	0	0.309631348	-0.092529297	0.221252441	0.999999046	9.53674E-05	-6.77109E-05	0.000144958	7.740783691	-2.313232422	5.531311035	0.004768372	-0.003385544	0.007247925	-0.918457031	0.279541016	0.139648438	899.84	-22.74749248	-52.06981701	-140.8261568	-68
45506	0	0.30981636	-0.093369484	0.223241806	0.999998093	0.000296593	-0.000195503	1.81198E-05	7.745409012	-2.334237099	5.581045151	0.014829636	-0.009775162	0.000905991	-0.920898438	0.281738281	0.136962891	899.84	-22.70986606	-52.08332498	-140.8390997	-68
45507	0	0.310180664	-0.091674805	0.222106934	0.999999046	5.34058E-05	-0.000117302	-1.90735E-05	7.754516602	-2.291870117	5.55267334	0.002670288	-0.005865097	-0.000953674	-0.921142578	0.281738281	0.139648438	899.78	-22.69057483	-52.09022872	-140.8639418	-68
45508	0	0.309260368	-0.094080925	0.223813057	0.999999046	0.000157356	-0.000190735	2.57492E-05	7.731509209	-2.352023125	5.595326424	0.007867813	-0.009536743	0.00128746	-0.918457031	0.279541016	0.139648438	899.9	-22.66963587	-52.10288396	-140.8774017	-68
45509	0	0.309631348	-0.092834473	0.222106934	0.999999046	0.000526428	-0.000330925	-1.90735E-05	7.740783691	-2.320861816	5.55267334	0.026321413	-0.01654625	-0.000953674	-0.918701172	0.281738281	0.139648438	899.84	-22.60824665	-52.13234521	-140.885379	-69
45510	0	0.309659958	-0.09118557	0.222302437	0.999999046	0.000179291	-1.90735E-05	3.71933E-05	7.741498947	-2.279639244	5.557560921	0.008964539	-0.000953674	0.001859665	-0.918701172	0.281738281	0.142089844	899.8	-22.57656932	-52.12634133	-140.9060769	-69
45511	0	0.309936523	-0.092407227	0.222717285	0.999999046	-2.28882E-05	-0.000151634	0.000106812	7.748413086	-2.310180664	5.567932129	-0.001144409	-0.007581711	0.005340576	-0.918701172	0.281738281	0.142089844	899.8	-22.58503414	-52.13129827	-140.905272	-69
45512	0	0.309556961	-0.093033791	0.222312927	0.999999046	0.000128746	-6.67572E-05	3.71933E-05	7.738924026	-2.325844765	5.557823181	0.006437302	-0.00333786	0.001859665	-0.918701172	0.279541016	0.142333984	899.84	-22.56186964	-52.13033397	-140.9255166	-69
45513	0	0.308898926	-0.092224121	0.221618652	0.999999046	0.000217438	-0.000292778	0.000152588	7.722473145	-2.305603027	5.540466309	0.010871887	-0.014638901	0.007629395	-0.920898438	0.279541016	0.139892578	899.84	-22.55703754	-52.14821678	-140.9107063	-69
45514	0	0.31138134	-0.090941429	0.221230507	0.999999046	-6.86646E-05	-0.000144958	9.53674E-05	7.784533501	-2.273535728	5.530762672	-0.003433228	-0.007247925	0.004768372	-0.918701172	0.281738281	0.139648438	899.74	-22.56881776	-52.15301669	-140.911978	-69
45515	0	0.308837891	-0.093566895	0.222900391	0.999999046	-0.000164032	-9.82285E-05	6.10352E-05	7.720947266	-2.339172363	5.572509766	-0.008201599	-0.004911423	0.003051758	-0.918701172	0.281738281	0.139648438	899.8	-22.58423731	-52.15435786	-140.9223072	-69
45516	0	0.309846878	-0.094227791	0.22299099	0.999999046	0.000206947	-0.000104904	0.00014782	7.746171951	-2.355694771	5.574774742	0.010347366	-0.005245209	0.007390976	-0.921142578	0.281738281	0.142333984	899.72	-22.56938887	-52.15256857	-140.9186607	-69
45517	0	0.310119629	-0.091552734	0.221496582	0.999999046	0.000293732	-0.000189781	4.19617E-05	7.752990723	-2.288818359	5.537414551	0.014686585	-0.00948906	0.002098084	-0.921142578	0.281738281	0.142333984	899.74	-22.53496746	-52.16443626	-140.9271169	-69
45518	0	0.310502052	-0.089190483	0.222284317	0.999999046	-0.00012207	-0.000171661	0.000141144	7.762551308	-2.229762077	5.557107925	-0.006103516	-0.008583069	0.00705719	-0.918701172	0.281738281	0.139648438	899.78	-22.56059913	-52.17005484	-140.9185615	-69
45519	0	0.309387207	-0.091247559	0.223266602	0.999999046	-0.000530243	-9.82285E-05	7.62939E-05	7.734680176	-2.281188965	5.581665039	-0.026512147	-0.004911423	0.003814697	-0.921142578	0.281738281	0.139648438	899.8	-22.6199745	-52.17074241	-140.9273487	-69
45520	0	0.310393333	-0.095009804	0.222249031	0.999999046	-0.00042057	-0.000181198	0.000117302	7.759833336	-2.375245094	5.556225777	-0.021028519	-0.009059906	0.005865097	-0.920898438	0.279541016	0.139892578	899.84	-22.67715878	-52.17839137	-140.9261022	-69
45521	0	0.309387207	-0.094787598	0.223510742	0.999999046	1.90735E-05	2.76566E-05	7.24792E-05	7.734680176	-2.369689941	5.587768555	0.000953674	0.001382828	0.003623962	-0.918701172	0.281738281	0.142089844	899.84	-22.66602488	-52.16589912	-140.9430168	-69
45522	0	0.310399055	-0.092810631	0.222126961	0.999999046	8.2016E-05	-0.000295639	8.01086E-05	7.759976387	-2.32026577	5.553174019	0.0041008	-0.014781952	0.004005432	-0.918701172	0.281738281	0.142089844	899.78	-22.66711181	-52.18726167	-140.9353318	-69
45523	0	0.309814453	-0.092529297	0.221313477	0.999999046	9.91821E-05	-0.000254631	8.01086E-05	7.745361328	-2.313232422	5.532836914	0.004959107	-0.012731552	0.004005432	-0.921142578	0.281738281	0.139648438	899.84	-22.66390742	-52.20429816	-140.9317067	-69
45524	0	0.309668541	-0.092169762	0.221417427	0.999999046	-1.43051E-05	-0.000263214	0.000141144	7.741713524	-2.304244041	5.535435677	-0.000715256	-0.013160706	0.00705719	-0.918701172	0.281738281	0.142089844	899.8	-22.68251977	-52.21955291	-140.9159218	-69
45525	0	0.310180664	-0.093994141	0.222290039	0.999999046	9.53674E-05	-0.000174522	5.72205E-05	7.754516602	-2.349853516	5.557250977	0.004768372	-0.00872612	0.002861023	-0.918701172	0.279541016	0.142333984	899.86	-22.67210142	-52.22912473	-140.9244085	-69
45526	0	0.30988121	-0.092705727	0.221466064	0.999999046	0.000150681	-0.000131607	-1.62125E-05	7.747030258	-2.317643166	5.536651611	0.007534027	-0.006580353	-0.000810623	-0.918701172	0.281738281	0.142089844	899.78	-22.6428774	-52.23740172	-140.9447351	-69
45527	0	0.309265137	-0.092224121	0.22052002	0.999999046	9.91821E-05	-0.000136375	9.15527E-05	7.731628418	-2.305603027	5.513000488	0.004959106	-0.006818771	0.004577637	-0.918701172	0.281738281	0.142089844	899.84	-22.63454312	-52.24143509	-140.9461508	-68
45528	0	0.312054634	-0.09370327	0.22094059	0.999999046	-3.71933E-05	-7.62939E-05	9.53674E-05	7.801365852	-2.342581749	5.523514748	-0.001859665	-0.003814697	0.004768372	-0.918701172	0.281738281	0.142089844	899.74	-22.63898344	-52.23897284	-140.9511828	-68
45529	0	0.309997559	-0.092102051	0.221801758	0.999999046	-1.90735E-05	3.52859E-05	0.000118256	7.749938965	-2.30255127	5.545043945	-0.000953674	0.001764297	0.005912781	-0.921142578	0.281738281	0.142333984	899.74	-22.63811289	-52.22370039	-140.9616562	-68
45530	0	0.310143471	-0.091573715	0.222185135	0.999999046	-0.000375748	-8.7738E-05	0.000193596	7.753586769	-2.28934288	5.554628372	-0.018787385	-0.004386902	0.009679795	-0.918701172	0.281738281	0.142089844	899.84	-22.69536655	-52.2181156	-140.9490947	-69
45531	0	0.30859375	-0.093017578	0.221984863	0.999999046	-0.000461578	-0.000208855	0.000183105	7.71484375	-2.325439453	5.549621582	-0.02307892	-0.010442734	0.009155274	-0.921142578	0.281738281	0.142333984	899.74	-22.76794544	-52.22576793	-140.9309714	-69
45532	0	0.310666084	-0.095351219	0.221827507	0.999999046	-0.000294685	-0.000118256	0.000102997	7.766652107	-2.383780479	5.545687675	-0.014734268	-0.005912781	0.005149841	-0.918701172	0.281738281	0.142089844	899.78	-22.80536719	-52.22738574	-140.9316794	-69
45533	0	0.309997559	-0.095092773	0.222595215	0.999999046	3.05176E-05	0.000130653	8.39233E-05	7.749938965	-2.377319336	5.564880371	0.001525879	0.006532669	0.004196167	-0.921142578	0.281738281	0.139648438	899.86	-22.78871448	-52.20353034	-140.9548492	-69
45534	0	0.309924126	-0.094460487	0.221948624	0.999999046	0.000427246	8.96454E-05	4.19617E-05	7.748103142	-2.361512184	5.548715591	0.021362305	0.004482269	0.002098084	-0.921142578	0.281738281	0.145019531	899.8	-22.72329892	-52.18584673	-140.9824422	-69
45535	0	0.310302734	-0.092407227	0.222106934	0.999999046	0.000514984	4.76837E-06	-1.52588E-05	7.757568359	-2.310180664	5.55267334	0.025749208	0.000238419	-0.000762939	-0.918701172	0.281738281	0.142089844	899.86	-22.64488823	-52.17965082	-141.0121215	-69
