Counter	Temperature	VelInc_X	VelInc_Y	VelInc_Z	OriInc_w	OriInc_x	OriInc_y	OriInc_z	Acc_X	Acc_Y	Acc_Z	Gyr_X	Gyr_Y	Gyr_Z	Mag_X	Mag_Y	Mag_Z	Pressure	Roll	Pitch	Yaw	RSSI
2643	0	0.366516113	-0.033630371	0.136779785	0.999998093	0.001191139	0.000450134	0.000881195	9.162902832	-0.840759277	3.419494629	0.059556985	0.022506723	0.044059771	-0.871826172	0.444335938	0.228515625	899.22	-13.84884038	-68.52329782	-133.1095635	-53
2644	0	0.369874001	-0.033163071	0.137312889	0.999998093	0.001350403	0.000437737	0.000839233	9.246850014	-0.829076767	3.432822227	0.067520172	0.021886835	0.041961689	-0.874023438	0.444335938	0.225830078	899.28	-13.87601594	-68.45350695	-132.9186172	-53
2645	0	0.366027832	-0.031738281	0.135681152	0.999999046	0.000892639	0.000473976	0.000793457	9.150695801	-0.793457031	3.392028809	0.04463197	0.023698813	0.039672862	-0.871826172	0.448730469	0.222412109	899.14	-13.93930886	-68.38109293	-132.7421213	-53
2646	0	0.364806175	-0.033782005	0.137550354	0.999998093	0.001185417	0.000182152	0.000804901	9.120154381	-0.844550133	3.43875885	0.059270879	0.009107593	0.04024507	-0.871826172	0.448730469	0.225341797	899.14	-13.99201055	-68.3408437	-132.5439172	-53
2647	0	0.366760254	-0.031860352	0.135864258	0.999998093	0.001568794	-3.8147E-05	0.000377655	9.169006348	-0.796508789	3.396606445	0.078439747	-0.001907349	0.01888276	-0.872070313	0.453369141	0.218994141	899.14	-13.89610879	-68.33715871	-132.453953	-53
2648	0	0.366868019	-0.031950951	0.137461662	0.999999046	0.00124836	7.62939E-05	0.000308037	9.171700478	-0.798773766	3.436541557	0.062418001	0.003814698	0.015401844	-0.872070313	0.450927734	0.222167969	899.24	-13.80935461	-68.32286873	-132.3977892	-53
2649	0	0.367370605	-0.031005859	0.135131836	0.999999046	0.000926971	0.000226021	0.000450134	9.184265137	-0.775146484	3.378295898	0.04634858	0.011301043	0.022506718	-0.8671875	0.453125	0.21875	899.3	-13.78866201	-68.28834097	-132.307229	-53
2650	0	0.366244316	-0.030415535	0.134558678	0.999999046	0.000419617	0.000392914	0.000590324	9.156107903	-0.760388374	3.363966942	0.020980837	0.019645693	0.029516223	-0.871826172	0.453125	0.213134766	899.08	-13.8533088	-68.23169666	-132.1871502	-52
2651	0	0.366943359	-0.031494141	0.134765625	0.999999046	9.15527E-05	0.000355721	0.000556946	9.173583984	-0.787353516	3.369140625	0.004577637	0.017786027	0.027847292	-0.869628906	0.455322266	0.21875	899.14	-13.94821014	-68.18035466	-132.0763601	-53
2652	0	0.366747856	-0.033648491	0.136496544	0.999999046	0.000296593	0.000154495	0.000305176	9.168696404	-0.841212273	3.412413597	0.014829636	0.007724762	0.01525879	-0.8671875	0.453125	0.215820313	899.14	-13.9633688	-68.15851854	-132.0262758	-52
2653	0	0.364196777	-0.031738281	0.135437012	0.999999046	0.000232697	-3.33786E-05	0.00012207	9.104919434	-0.793457031	3.385925293	0.011634827	-0.00166893	0.006103516	-0.872070313	0.453369141	0.218994141	899.22	-13.94783877	-68.1628709	-132.0196886	-53
2654	0	0.367432594	-0.032985687	0.135548592	0.999999046	2.28882E-05	-3.8147E-06	0.000220299	9.185814857	-0.824642181	3.38871479	0.001144409	-0.000190735	0.011014938	-0.872070313	0.457763672	0.21875	899.22	-13.98158253	-68.16148388	-131.982834	-51
2655	0	0.367614746	-0.03527832	0.137573242	0.999999046	0.000457764	-0.00020504	0.00043869	9.190368652	-0.881958008	3.439331055	0.022888185	-0.010252	0.021934511	-0.872070313	0.457763672	0.21875	899.24	-14.04030466	-68.17654588	-131.8660692	-51
2656	0	0.369534492	-0.031328201	0.13549614	0.999999046	0.000388145	-0.000423431	0.000511169	9.238362312	-0.783205032	3.387403488	0.019407274	-0.021171572	0.025558474	-0.869628906	0.457519531	0.209716797	899.14	-14.14232893	-68.21410821	-131.707072	-52
2657	0	0.369812012	-0.031677246	0.136291504	0.999999046	-0.000286102	-0.000472069	0.000507355	9.245300293	-0.791931152	3.407287598	-0.014305116	-0.023603442	0.025367739	-0.867431641	0.459716797	0.215332031	899.14	-14.32428079	-68.25729348	-131.5458906	-51
2658	0	0.365636826	-0.031639099	0.136537552	0.999999046	-0.000307083	-0.000350952	0.00037384	9.140920639	-0.790977478	3.413438797	-0.015354157	-0.017547608	0.018692018	-0.867431641	0.459716797	0.215332031	899.22	-14.46306149	-68.29081843	-131.4337294	-52
2659	0	0.368408203	-0.031494141	0.137817383	0.999999046	-6.86646E-05	-0.000353813	0.000339508	9.210205078	-0.787353516	3.44543457	-0.003433228	-0.017690659	0.016975404	-0.867431641	0.459960938	0.221191406	899.18	-14.56510227	-68.32568794	-131.3344228	-51
2660	0	0.373612404	-0.029569626	0.138096809	0.999999046	-0.000821114	-0.000106812	2.28882E-05	9.340310097	-0.739240646	3.452420235	-0.041055684	-0.005340577	0.001144409	-0.867431641	0.457519531	0.221435547	899.12	-14.64657252	-68.34247432	-131.3509668	-52
2661	0	0.373168945	-0.030090332	0.139221191	0.999998093	-0.001578331	0.000263214	1.52588E-05	9.329223633	-0.752258301	3.480529785	-0.078916583	0.013160711	0.00076294	-0.865234375	0.462158203	0.223876953	899.14	-14.78492441	-68.31861567	-131.3954697	-51
2662	0	0.371139526	-0.030611038	0.14188385	0.999998093	-0.001767159	0.000349998	0.000144958	9.278488159	-0.765275955	3.547096252	-0.088357974	0.017499933	0.007247929	-0.864990234	0.457519531	0.224121094	899.14	-14.97372054	-68.28135373	-131.4113626	-51
2663	0	0.368713379	-0.033081055	0.142150879	0.999998093	-0.00146389	0.000270844	-0.000278473	9.217834473	-0.827026367	3.553771973	-0.073194532	0.01354218	-0.01392365	-0.867431641	0.455322266	0.224365234	899.08	-15.01536246	-68.26531905	-131.5490308	-51
2664	0	0.364383698	-0.03573513	0.141633034	0.999999046	-8.67844E-05	-4.19617E-05	-0.000702858	9.109592438	-0.893378258	3.540825844	-0.004339219	-0.002098084	-0.035142902	-0.867431641	0.455322266	0.224365234	899.14	-14.80426054	-68.29618004	-131.7874114	-51
2665	0	0.366821289	-0.033935547	0.142456055	0.999998093	0.001034737	-0.000114441	-0.001056671	9.170532227	-0.848388672	3.561401367	0.051736851	-0.005722048	-0.052833577	-0.869628906	0.453125	0.221923828	899.22	-14.37003733	-68.34464104	-132.1274175	-51
2666	0	0.36741066	-0.03219223	0.142988205	0.999999046	0.00034523	0.000219345	-0.001023293	9.185266495	-0.804805756	3.574705124	0.017261509	0.010967257	-0.051164637	-0.8671875	0.453125	0.221679688	899.22	-13.99886107	-68.35403811	-132.4822549	-51
2667	0	0.36529541	-0.036071777	0.141113281	0.999999046	-0.000331879	0.000702858	-0.000602722	9.132385254	-0.901794434	3.527832031	-0.016593936	0.035142904	-0.030136113	-0.871826172	0.448730469	0.222412109	899.24	-13.79015902	-68.2972548	-132.7502078	-51
2668	0	0.369292259	-0.036452293	0.140691757	0.999999046	-0.00011158	0.001316071	-0.000221252	9.23230648	-0.911307335	3.51729393	-0.005578996	0.065803548	-0.011062625	-0.869384766	0.450927734	0.218994141	899.18	-13.62297766	-68.16147723	-132.9425743	-51
2669	0	0.369018555	-0.028686523	0.141723633	0.999995232	-0.002017975	0.002041817	-7.24792E-05	9.225463867	-0.717163086	3.54309082	-0.100898881	0.102090976	-0.003623967	-0.871826172	0.450927734	0.219238281	899.14	-13.66809528	-67.94081891	-133.1422128	-51
2670	0	0.366617203	-0.035060883	0.141431808	0.999985695	-0.004644394	0.002321243	-0.000101089	9.165430069	-0.876522064	3.535795212	-0.23222074	0.116062686	-0.005054497	-0.874023438	0.448730469	0.213623047	899.14	-13.98829571	-67.6900873	-133.3673107	-51
2671	0	0.361450195	-0.04498291	0.13885498	0.999995232	-0.00239563	0.001763344	0.000274658	9.036254883	-1.124572754	3.471374512	-0.119781672	0.088167322	0.013732931	-0.874023438	0.446533203	0.216796875	899.12	-14.19090418	-67.49127239	-133.4448085	-51
2672	0	0.363629341	-0.03967762	0.138056755	0.999997139	0.001242638	0.001106262	0.001065254	9.090733528	-0.991940498	3.451418877	0.062131922	0.055313146	0.053262745	-0.874023438	0.446533203	0.213867188	899.3	-14.23258906	-67.34348578	-133.2473769	-51
2673	0	0.364746094	-0.030334473	0.13861084	0.999998093	0.001332283	0.000694275	0.001010895	9.118652344	-0.758361816	3.465270996	0.066614187	0.034713764	0.050544766	-0.874023438	0.446533203	0.2109375	899.14	-14.27556019	-67.24330536	-133.0388499	-52
2674	0	0.364670753	-0.032657623	0.13847065	0.999999046	1.33514E-05	0.000225067	0.000601768	9.116768837	-0.816440582	3.461766243	0.000667572	0.011253358	0.030088427	-0.874023438	0.448730469	0.210693359	899.14	-14.39205259	-67.20708223	-132.9133235	-51
2675	0	0.364196777	-0.034729004	0.13885498	0.999999046	0.000469208	0.000142097	0.000823975	9.104919434	-0.868225098	3.471374512	0.023460392	0.007104875	0.041198737	-0.874267578	0.453369141	0.210449219	899.14	-14.52024646	-67.17392413	-132.7160429	-51
2676	0	0.362091064	-0.031532288	0.140450478	0.999999046	0.000555992	-0.000211716	0.000732422	9.052276611	-0.78830719	3.51126194	0.02779961	-0.010585786	0.036621099	-0.874267578	0.453369141	0.210449219	899.22	-14.63791733	-67.18273337	-132.520751	-51
2677	0	0.364624023	-0.031799316	0.13873291	0.999999046	0.000335693	-0.000536919	0.000427246	9.115600586	-0.79498291	3.468322754	0.01678467	-0.026845935	0.021362307	-0.871826172	0.453125	0.207275391	899.22	-14.72272688	-67.23668295	-132.3865023	-51
2678	0	0.368896484	-0.033912659	0.140921593	0.999999046	0.000444412	-0.000890732	-0.000175476	9.222412109	-0.847816467	3.523039818	0.022220615	-0.044536598	-0.008773805	-0.871826172	0.453125	0.207275391	899.12	-14.66031096	-67.34765169	-132.3974881	-51
2679	0	0.366699219	-0.034851074	0.143127441	0.999999046	0.000274658	-0.000990868	-0.000205994	9.167480469	-0.871276855	3.578186035	0.013732913	-0.04954339	-0.010299685	-0.871826172	0.455322266	0.210205078	899.14	-14.61572036	-67.4706945	-132.4086859	-51
2680	0	0.366205215	-0.03565979	0.143275261	0.999999046	0.000538826	-0.00069046	8.29697E-05	9.155130386	-0.891494751	3.581881523	0.026941303	-0.034523015	0.004148484	-0.869384766	0.450927734	0.213378906	899.14	-14.59706291	-67.55209885	-132.3640292	-51
2681	0	0.367858887	-0.034912109	0.143432617	0.999999046	0.000324249	-0.000582695	0.00019455	9.196472168	-0.872802734	3.58581543	0.016212465	-0.029134753	0.009727479	-0.869628906	0.455322266	0.209960938	899.14	-14.62547184	-67.61835087	-132.288914	-50
2682	0	0.364165306	-0.035938263	0.142114639	0.999999046	-0.000143051	-0.000350952	3.8147E-05	9.104132652	-0.898456573	3.552865982	-0.007152558	-0.017547608	0.001907349	-0.869628906	0.455322266	0.209960938	899.08	-14.64925825	-67.66340466	-132.2762253	-50
2683	0	0.369384766	-0.038452148	0.142578125	0.999999046	8.7738E-05	-0.00057888	-3.8147E-05	9.234619141	-0.961303711	3.564453125	0.004386902	-0.028944017	-0.001907349	-0.869628906	0.455322266	0.215820313	899.18	-14.6424699	-67.73595347	-132.2709356	-50
2684	0	0.366378784	-0.037484169	0.142830849	0.999999046	0.000653267	-0.000385284	0.000224113	9.159469604	-0.937104225	3.570771217	0.032663349	-0.019264223	0.011205674	-0.869384766	0.453125	0.213134766	899.14	-14.62847064	-67.77937637	-132.2043804	-50
2685	0	0.36517334	-0.036193848	0.143798828	0.999999046	0.000896454	-0.000349998	0.000553131	9.129333496	-0.904846191	3.594970703	0.044822702	-0.017499927	0.027656561	-0.869628906	0.453125	0.216064453	899.14	-14.6736455	-67.80921531	-132.0471345	-50
2686	0	0.366271973	-0.035488129	0.143360138	0.999999046	0.000741959	-0.000200272	0.000277519	9.156799316	-0.887203217	3.584003448	0.037097935	-0.010013581	0.013875963	-0.8671875	0.455322266	0.212890625	899.18	-14.65104943	-67.8303465	-131.9780598	-51
2687	0	0.366210938	-0.035095215	0.143432617	0.999999046	0.00056839	-3.71933E-05	0.000164032	9.155273438	-0.877380371	3.58581543	0.028419496	-0.001859665	0.0082016	-0.8671875	0.455322266	0.215576172	899.14	-14.60578582	-67.83660186	-131.9572585	-51
2688	0	0.363707542	-0.034565926	0.141551971	0.999999046	0.000191689	0.000247955	0.000395775	9.09268856	-0.86414814	3.538799286	0.009584427	0.012397767	0.019788743	-0.8671875	0.455322266	0.212890625	899.14	-14.64635761	-67.80448269	-131.8896296	-50
2689	0	0.363037109	-0.03527832	0.141296387	0.999999046	-0.000495911	0.000256538	0.000640869	9.075927734	-0.881958008	3.532409668	-0.024795535	0.012826921	0.032043461	-0.8671875	0.455322266	0.212890625	899.22	-14.83132429	-67.76416708	-131.7519328	-50
2690	0	0.367739677	-0.037353516	0.139371872	0.999999046	-0.000671387	0.000160217	0.000346184	9.193491936	-0.933837891	3.484296799	-0.033569339	0.008010865	0.017309191	-0.867431641	0.459716797	0.212402344	899.14	-14.96329434	-67.74316795	-131.6885134	-51
2691	0	0.364135742	-0.040344238	0.139770508	0.999999046	4.95911E-05	-2.95639E-05	0.000423431	9.103393555	-1.008605957	3.494262695	0.002479553	-0.001478195	0.02117157	-0.867431641	0.457519531	0.215576172	899.14	-15.04774784	-67.74084075	-131.5922804	-51
2692	0	0.360509872	-0.039354324	0.141338348	0.999999046	0.000468254	-0.000101089	0.000811577	9.012746811	-0.983858109	3.53345871	0.023412708	-0.005054475	0.040578848	-0.8671875	0.457519531	0.212646484	899.06	-15.19465918	-67.73462121	-131.3766023	-50
2693	0	0.363830566	-0.043029785	0.143249512	0.999999046	0.000427246	-7.15256E-05	0.001285553	9.09576416	-1.075744629	3.581237793	0.021362311	-0.00357628	0.064277669	-0.864990234	0.461914063	0.215087891	899.06	-15.47243564	-67.71027887	-131.0237834	-51
2694	0	0.373019218	-0.042831421	0.141278267	0.999997139	0.000808716	0.000482559	0.002112389	9.325480461	-1.070785522	3.531956673	0.040435827	0.024127982	0.105619525	-0.865234375	0.464111328	0.211914063	899.14	-15.88586854	-67.59848689	-130.4782948	-51
2695	0	0.368652344	-0.039794922	0.142028809	0.999995232	0.000759125	0.000775337	0.002689362	9.216308594	-0.994873047	3.550720215	0.037956291	0.038766915	0.134468267	-0.863037109	0.468505859	0.214355469	899.18	-16.4302511	-67.43439041	-129.800026	-50
2696	0	0.364439011	-0.039833069	0.141736984	0.999995232	0.001379967	0.000406265	0.00239563	9.110975266	-0.995826721	3.543424606	0.068998427	0.020313289	0.11978165	-0.858154297	0.472900391	0.207763672	899.18	-16.84739971	-67.31830866	-129.1775946	-51
2697	0	0.364318848	-0.034790039	0.140441895	0.999997139	0.001384735	0.000126839	0.00169754	9.107971191	-0.869750977	3.511047363	0.069236811	0.006341939	0.084877082	-0.855957031	0.477294922	0.207275391	899.06	-17.09859142	-67.25501528	-128.7331832	-51
2698	0	0.365134239	-0.037350655	0.140574455	0.999999046	0.000883102	-0.000391006	0.000926971	9.12835598	-0.933766365	3.514361382	0.044155134	-0.019550329	0.046348586	-0.856201172	0.481689453	0.204101563	899.08	-17.24619263	-67.27408593	-128.4588836	-51
2699	0	0.368530273	-0.041931152	0.141906738	0.999997139	0.002182007	-0.000529289	0.000278473	9.213256836	-1.048278809	3.547668457	0.109100435	-0.026464485	0.013923657	-0.856201172	0.481689453	0.20703125	899.12	-17.08677644	-67.33036944	-128.3604665	-51
2700	0	0.365431786	-0.029601097	0.144823074	0.999997139	0.002203941	-0.000356674	7.9155E-05	9.13579464	-0.740027428	3.620576859	0.110197159	-0.017833725	0.003957752	-0.853759766	0.483886719	0.203857422	899.14	-16.85673431	-67.37461012	-128.3320107	-51
2701	0	0.366760254	-0.034362793	0.143615723	0.999999046	-0.000202179	-0.000216484	-2.67029E-05	9.169006348	-0.859069824	3.590393066	-0.010108948	-0.010824204	-0.001335144	-0.856201172	0.483886719	0.200927734	899.14	-16.86223836	-67.40708715	-128.3451182	-51
2702	0	0.363467216	-0.039162636	0.142281532	0.999999046	0.000219345	-0.000221252	-0.000359535	9.086680412	-0.979065895	3.557038307	0.010967255	-0.011062622	-0.017976762	-0.853759766	0.483886719	0.203857422	899.12	-16.73156607	-67.4510883	-128.4534684	-51
2703	0	0.364929199	-0.039245605	0.140930176	0.999999046	0.000705719	-0.000624657	-0.00044632	9.12322998	-0.981140137	3.523254395	0.035285956	-0.03123284	-0.022315983	-0.853759766	0.481689453	0.204101563	899.14	-16.55331763	-67.54217172	-128.5544204	-51
2704	0	0.366606712	-0.039755821	0.141870499	0.999999046	0.000338554	-0.000707626	-0.000606537	9.165167809	-0.993895531	3.546762466	0.016927722	-0.035381323	-0.030326848	-0.856201172	0.481689453	0.204101563	899.14	-16.37974524	-67.64746404	-128.6947909	-51
2705	0	0.36541748	-0.041870117	0.141296387	0.999999046	0.000385284	-0.000788689	-0.000808716	9.135437012	-1.04675293	3.532409668	0.019264226	-0.039434442	-0.040435801	-0.856201172	0.479492188	0.207275391	899.22	-16.15154145	-67.76791676	-128.8906483	-51
2706	0	0.366076469	-0.041779518	0.142093658	0.999999046	0.000295639	-0.000499725	-0.000569344	9.151911736	-1.044487953	3.552341461	0.014781954	-0.02498627	-0.028467181	-0.855957031	0.479492188	0.201416016	899.12	-15.97408037	-67.84857493	-129.0364854	-51
2707	0	0.367919922	-0.039001465	0.138916016	0.999999046	0.000167847	-0.000330925	-0.000331879	9.197998047	-0.975036621	3.472900391	0.008392334	-0.01654625	-0.016593934	-0.855957031	0.477294922	0.204589844	899.18	-15.86172991	-67.90309747	-129.1315754	-51
2708	0	0.368100166	-0.039565086	0.139966011	0.999999046	-0.000565529	-0.000101089	-0.000175476	9.202504158	-0.989127159	3.499150276	-0.028276445	-0.005054474	-0.008773804	-0.858398438	0.477294922	0.201660156	899.14	-15.85801845	-67.92734975	-129.1975514	-51
2709	0	0.366699219	-0.040527344	0.139282227	0.999999046	-0.000595093	-0.00026989	-0.000209808	9.167480469	-1.013183594	3.482055664	-0.029754641	-0.013494493	-0.010490418	-0.858398438	0.477294922	0.204589844	899.12	-15.86160282	-67.97126814	-129.2599242	-51
2710	0	0.365082741	-0.040296555	0.13952446	0.999999046	0.000164032	-0.000450134	-0.00017643	9.12706852	-1.007413864	3.488111496	0.008201599	-0.022506715	-0.008821488	-0.858398438	0.477294922	0.204589844	899.14	-15.8013043	-68.03393304	-129.2965158	-51
2711	0	0.365722656	-0.039367676	0.139953613	0.999999046	0.000793457	-0.000590324	-0.000278473	9.143066406	-0.984191895	3.498840332	0.039672859	-0.029516225	-0.013923647	-0.858398438	0.475097656	0.207763672	899.12	-15.65149365	-68.11512166	-129.3563115	-51
2712	0	0.366765976	-0.039304733	0.141596794	0.999999046	0.000905037	-0.000679016	-0.000267029	9.169149399	-0.982618332	3.539919853	0.045251857	-0.033950813	-0.013351443	-0.858398438	0.475097656	0.210693359	899.14	-15.49824273	-68.20552742	-129.4077451	-51
2713	0	0.366577148	-0.038574219	0.140808105	0.999999046	0.000556946	-0.000445366	-0.000137329	9.164428711	-0.964355469	3.520202637	0.027847292	-0.022268297	-0.006866456	-0.858398438	0.475097656	0.207763672	899.12	-15.40235251	-68.26597738	-129.4376506	-51
2714	0	0.366714478	-0.038803101	0.142721176	0.999999046	0.000442505	-0.000144958	2.19345E-05	9.167861938	-0.970077515	3.568029404	0.022125245	-0.007247925	0.001096726	-0.858398438	0.477294922	0.207519531	899.18	-15.3406931	-68.28812843	-129.4422978	-51
2715	0	0.366149902	-0.0390625	0.140930176	0.999999046	0.000556946	7.34329E-05	4.19617E-05	9.153747559	-0.9765625	3.523254395	0.027847292	0.003671646	0.002098084	-0.858398438	0.475097656	0.207763672	899.18	-15.25508949	-68.28534744	-129.4621562	-51
2716	0	0.366614342	-0.03783989	0.13937664	0.999999046	0.000302315	0.000108719	-7.34329E-05	9.165358543	-0.945997238	3.484416008	0.015115738	0.005435944	-0.003671646	-0.858398438	0.477294922	0.210449219	899.14	-15.16414716	-68.28203659	-129.5188333	-51
2717	0	0.36895752	-0.039367676	0.139648438	0.999999046	0.00038147	1.23978E-05	-0.000179291	9.223937988	-0.984191895	3.491210938	0.019073487	0.000619888	-0.008964539	-0.858398438	0.477294922	0.207519531	899.22	-15.04232886	-68.29243185	-129.5965433	-51
2718	0	0.365122795	-0.039313316	0.139686584	0.999999046	0.000577927	2.28882E-05	-3.52859E-05	9.128069878	-0.982832909	3.492164612	0.028896333	0.001144409	-0.001764298	-0.855957031	0.475097656	0.207519531	899.22	-14.93760301	-68.29719482	-129.6337675	-51
2719	0	0.366394043	-0.038391113	0.139099121	0.999999046	0.000705719	0.00011158	0.000282288	9.159851074	-0.959777832	3.477478027	0.035285953	0.005578995	0.014114381	-0.858398438	0.475097656	0.204833984	899.18	-14.90032338	-68.28267211	-129.5830991	-52
2720	0	0.366646767	-0.036570549	0.139414787	0.999999046	0.000519753	0.000217438	0.000311852	9.166169167	-0.914263725	3.485369682	0.025987627	0.010871888	0.015592576	-0.858398438	0.477294922	0.204589844	899.18	-14.8848132	-68.25550619	-129.5305844	-51
2721	0	0.36706543	-0.03704834	0.138244629	0.999999046	8.39233E-05	0.000142097	0.000377655	9.176635742	-0.926208496	3.456115723	0.004196167	0.007104874	0.018882752	-0.858398438	0.477294922	0.207519531	899.18	-14.94320396	-68.23474542	-129.4557414	-51
2722	0	0.367668152	-0.037852287	0.140124321	0.999999046	0.000427246	0.000185013	0.000396729	9.191703796	-0.946307182	3.503108025	0.021362306	0.009250641	0.019836427	-0.855957031	0.479492188	0.204345703	899.18	-14.96444202	-68.20858045	-129.3737131	-51
2723	0	0.364868164	-0.036010742	0.140258789	0.999999046	0.000541687	0.000161171	0.000404358	9.121704102	-0.900268555	3.506469727	0.027084353	0.008058549	0.020217897	-0.858398438	0.479492188	0.204345703	899.08	-14.9763013	-68.18472865	-129.2905024	-51
2724	0	0.365098953	-0.036215782	0.140414238	0.999999046	0.000489235	0.000162125	0.000346184	9.127473831	-0.905394554	3.510355949	0.024461748	0.008106232	0.01730919	-0.856201172	0.479492188	0.207275391	899.12	-14.97791388	-68.16240381	-129.227741	-50
2725	0	0.365478516	-0.037719727	0.140197754	0.999999046	0.000610352	0.000340462	1.52588E-05	9.136962891	-0.942993164	3.504943848	0.030517581	0.017023088	0.00076294	-0.856201172	0.481689453	0.204101563	899.18	-14.86130818	-68.1300372	-129.2730365	-51
2726	0	0.367152214	-0.03689003	0.139148712	0.999999046	0.000307083	0.000350952	0.000193596	9.178805351	-0.922250748	3.478717804	0.015354157	0.017547608	0.009679795	-0.858398438	0.477294922	0.201660156	899.22	-14.82819798	-68.09127216	-129.2713697	-51
2727	0	0.366760254	-0.036560059	0.139770508	0.999999046	-9.15527E-05	0.000397682	0.000232697	9.169006348	-0.914001465	3.494262695	-0.004577637	0.01988411	0.011634827	-0.860839844	0.477294922	0.201904297	899.2	-14.84820696	-68.04618705	-129.2636949	-51
2728	0	0.364496231	-0.036877632	0.139076233	0.999999046	-1.04904E-05	0.000295639	3.43323E-05	9.112405777	-0.921940804	3.476905823	-0.000524521	0.014781952	0.001716614	-0.858398438	0.479492188	0.198486328	899.14	-14.81197937	-68.01822511	-129.2999831	-51
2729	0	0.364379883	-0.038330078	0.138061523	0.999999046	0.000282288	0.00011158	1.52588E-05	9.10949707	-0.958251953	3.451538086	0.01411438	0.005578995	0.000762939	-0.858398438	0.481689453	0.195556641	899.12	-14.75074071	-68.01123949	-129.3221997	-51
2730	0	0.368192673	-0.037164688	0.138407707	0.999999046	0.000495911	-0.000265121	-0.000137329	9.204816818	-0.929117203	3.46019268	0.024795534	-0.013256074	-0.006866455	-0.858398438	0.481933594	0.201416016	899.22	-14.65048185	-68.05054154	-129.3647097	-51
2731	0	0.36505127	-0.036987305	0.13873291	0.999999046	0.00012207	-0.000220299	-0.000473022	9.126281738	-0.924682617	3.468322754	0.006103516	-0.011014939	-0.023651124	-0.860839844	0.479736328	0.198730469	899.12	-14.49726346	-68.0945349	-129.5105355	-52
2732	0	0.367589951	-0.037460327	0.140593529	0.999999046	-0.000319481	-0.000303268	5.34058E-05	9.189748764	-0.936508179	3.514838219	-0.015974045	-0.015163422	0.002670288	-0.858398438	0.479492188	0.201416016	899.14	-14.54579942	-68.13251884	-129.4940707	-51
2733	0	0.364624023	-0.038208008	0.141052246	0.999999046	-2.28882E-05	-8.29697E-05	0.000331879	9.115600586	-0.955200195	3.526306152	-0.001144409	-0.004148483	0.016593933	-0.860839844	0.479492188	0.195800781	899.14	-14.62187969	-68.13789779	-129.4081219	-52
2734	0	0.36505127	-0.035099983	0.141233444	0.999999046	-0.000442505	0.000137329	0.000217438	9.126281738	-0.87749958	3.530836105	-0.022125245	0.006866455	0.010871888	-0.858398438	0.481933594	0.201416016	899.12	-14.69837787	-68.12203986	-129.3741444	-51
2735	0	0.365539551	-0.037414551	0.140197754	0.999999046	-0.001155853	2.38419E-05	0.000213623	9.13848877	-0.93536377	3.504943848	-0.057792677	0.001192093	0.010681155	-0.858398438	0.479492188	0.201416016	899.12	-14.86389515	-68.11878785	-129.3343802	-51
2736	0	0.364722252	-0.039484978	0.141466141	0.999999046	-0.000599861	-0.000202179	5.62668E-05	9.118056297	-0.987124443	3.536653519	-0.029993059	-0.010108948	0.002813339	-0.858398438	0.479492188	0.204345703	899.14	-14.93920492	-68.14502051	-129.3246498	-51
2737	0	0.36328125	-0.038818359	0.141540527	0.999999046	0.00019455	-0.00039196	0.000270844	9.08203125	-0.970458984	3.538513184	0.009727478	-0.019598008	0.013542176	-0.858398438	0.479492188	0.198486328	899.12	-14.99707319	-68.1857268	-129.230755	-51
2738	0	0.366118431	-0.038228989	0.142670631	0.999999046	0.000411987	-0.00028038	0.000201225	9.152960777	-0.955724716	3.566765785	0.020599366	-0.014019013	0.010061265	-0.858398438	0.479492188	0.201416016	899.22	-15.00277227	-68.21595005	-129.1694567	-51
2739	0	0.367980957	-0.037231445	0.143432617	0.999999046	-4.57764E-05	3.91006E-05	0.000236511	9.199523926	-0.930786133	3.58581543	-0.002288818	0.001955032	0.011825562	-0.855957031	0.479492188	0.204345703	899.22	-15.04693869	-68.20958401	-129.1250917	-51
2740	0	0.368257523	-0.036870003	0.144738197	0.999999046	-5.24521E-05	0.000349045	0.000541687	9.206438065	-0.921750069	3.618454933	-0.002622605	0.017452241	0.027084352	-0.855957031	0.479492188	0.204345703	899.14	-15.152838	-68.15958066	-129.0166655	-51
2741	0	0.369689941	-0.032592773	0.14239502	0.999999046	-0.000286102	0.001057625	0.000614166	9.242248535	-0.814819336	3.559875488	-0.014305119	0.052881255	0.030708321	-0.856201172	0.481689453	0.204101563	899.28	-15.25111862	-68.02896505	-128.94454	-51
2742	0	0.36404705	-0.034889221	0.137285233	0.999998093	-0.001423836	0.001004219	0.000810623	9.101176262	-0.87223053	3.432130814	-0.071191832	0.050210984	0.040531183	-0.858642578	0.481933594	0.204345703	899.06	-15.53566673	-67.89832225	-128.8144399	-52
2743	0	0.361755371	-0.036193848	0.138244629	0.999999046	-0.000789642	0.000462532	7.24792E-05	9.043884277	-0.904846191	3.456115723	-0.039482122	0.023126605	0.003623963	-0.858642578	0.484130859	0.204101563	899.2	-15.5863888	-67.85009707	-128.8543995	-52
2744	0	0.368336678	-0.035367012	0.137857437	0.999999046	-0.000323296	-0.000293732	-0.000618935	9.208416939	-0.884175301	3.446435928	-0.016164781	-0.014686586	-0.030946735	-0.858398438	0.479492188	0.201416016	899.12	-15.45267386	-67.90680009	-129.0366278	-51
2745	0	0.366088867	-0.037780762	0.140380859	0.999999046	-0.000236511	-0.000811577	-0.000999451	9.15222168	-0.944519043	3.509521484	-0.011825565	-0.040578854	-0.049972548	-0.858398438	0.481689453	0.198486328	899.24	-15.2426575	-68.03208329	-129.2801496	-52
2746	0	0.365420341	-0.039559364	0.140255928	0.999999046	-2.28882E-05	-0.000961304	-0.000882149	9.135508537	-0.988984108	3.506398201	-0.00114441	-0.048065199	-0.04410745	-0.858398438	0.477294922	0.204589844	899.2	-15.04920472	-68.17002986	-129.486907	-51
2747	0	0.362487793	-0.041625977	0.14074707	0.999999046	0.000511169	-0.000823021	-0.000740051	9.062194824	-1.040649414	3.518676758	0.025558478	-0.041151057	-0.037002573	-0.860839844	0.475097656	0.207763672	899.12	-14.82178805	-68.28798297	-129.6686579	-51
2748	0	0.365054131	-0.045331001	0.146173477	0.999998093	0.00176239	-0.000731468	-0.000349045	9.126353264	-1.133275032	3.654336929	0.088119562	-0.036573433	-0.017452251	-0.858398438	0.475097656	0.207763672	899.06	-14.5521945	-68.38366127	-129.7405707	-51
2749	0	0.37109375	-0.040405273	0.145507813	0.999998093	0.001591682	-0.000526428	-0.000228882	9.27734375	-1.010131836	3.637695313	0.07958416	-0.026321424	-0.011444097	-0.858398438	0.477294922	0.207519531	899.18	-14.32016732	-68.45274327	-129.7905463	-52
2750	0	0.367966652	-0.038373947	0.144266129	0.999999046	0.000148773	-4.57764E-05	0.000349998	9.199166298	-0.959348679	3.606653214	0.00743866	-0.002288818	0.017499924	-0.860595703	0.475097656	0.204833984	899.18	-14.38159596	-68.45170989	-129.7053759	-51
2751	0	0.36529541	-0.039794922	0.145385742	0.999999046	0.00019455	0.000145912	0.00063324	9.132385254	-0.994873047	3.634643555	0.009727479	0.007295609	0.03166199	-0.858398438	0.477294922	0.204589844	899.12	-14.50377466	-68.4208672	-129.5469617	-51
2752	0	0.365941048	-0.036358833	0.140500069	0.999999046	0.000664711	0.000371933	0.000587463	9.148526192	-0.908970833	3.512501717	0.033235555	0.018596652	0.029373173	-0.858398438	0.479492188	0.201416016	899.14	-14.54248541	-68.36609092	-129.4172629	-51
2753	0	0.363891602	-0.035766602	0.140869141	0.999999046	0.000396729	0.00036335	0.000370026	9.097290039	-0.894165039	3.521728516	0.019836427	0.018167497	0.018501283	-0.858642578	0.479736328	0.207275391	899.18	-14.55139673	-68.31838354	-129.3599961	-51
2754	0	0.366388321	-0.035683632	0.139087677	0.999999046	0.000106812	0.000164032	0.000155449	9.159708023	-0.892090797	3.477191925	0.005340576	0.008201599	0.007772446	-0.858398438	0.479492188	0.204345703	899.14	-14.54801231	-68.29898424	-129.349688	-51
2755	0	0.366516113	-0.035644531	0.138671875	0.999999046	4.95911E-05	0.000172615	0.000274658	9.162902832	-0.891113281	3.466796875	0.002479553	0.008630753	0.01373291	-0.860839844	0.481933594	0.201416016	899.22	-14.58373818	-68.2752488	-129.3002162	-52
2756	0	0.364251137	-0.035831451	0.138738632	0.999999046	-0.000218391	6.86646E-05	0.000212669	9.106278419	-0.895786285	3.468465805	-0.010919571	0.003433228	0.010633469	-0.858398438	0.479492188	0.198486328	899.18	-14.6403873	-68.26483037	-129.2608916	-51
2757	0	0.363891602	-0.037841797	0.138305664	0.999999046	7.62939E-06	-0.000201225	4.19617E-05	9.097290039	-0.946044922	3.457641602	0.00038147	-0.010061264	0.002098084	-0.858398438	0.479492188	0.201416016	899.18	-14.64352059	-68.28927731	-129.2538369	-51
2758	0	0.367545128	-0.03738308	0.138828278	0.999999046	-3.24249E-05	-0.000429153	-9.15527E-05	9.188628197	-0.934576988	3.47070694	-0.001621246	-0.021457673	-0.004577637	-0.855957031	0.479492188	0.201416016	899.12	-14.63079073	-68.34290673	-129.2664056	-51
2759	0	0.36517334	-0.039001465	0.141479492	0.999999046	-6.10352E-05	-0.000639915	-8.7738E-05	9.129333496	-0.975036621	3.536987305	-0.003051758	-0.031995776	-0.004386902	-0.855957031	0.479492188	0.201416016	899.12	-14.63803871	-68.41963448	-129.259597	-52
2760	0	0.367193222	-0.038283348	0.141919136	0.999999046	0.000100136	-0.000455856	0.000163078	9.179830551	-0.957083702	3.547978401	0.00500679	-0.022792817	0.008153916	-0.858398438	0.479492188	0.201416016	899.14	-14.68396154	-68.46852804	-129.1924705	-51
2761	0	0.369140625	-0.038024902	0.142700195	0.999999046	1.14441E-05	-6.67572E-06	0.000545502	9.228515625	-0.950622559	3.567504883	0.000572205	-0.000333786	0.027275087	-0.858398438	0.479492188	0.204345703	899.08	-14.81457096	-68.45629042	-129.049606	-51
2762	0	0.367879868	-0.038484573	0.142206192	0.999999046	0.000347137	0.00022316	0.000720024	9.196996689	-0.962114334	3.5551548	0.017356875	0.011157991	0.03600121	-0.858398438	0.481689453	0.198486328	899.14	-14.93838641	-68.41318765	-128.8664969	-51
2763	0	0.368469238	-0.036071777	0.141113281	0.999999046	0.000583649	0.000290871	0.000724792	9.211730957	-0.901794434	3.527832031	0.029182439	0.014543536	0.03623963	-0.856201172	0.483886719	0.200927734	899.06	-15.03058663	-68.36227531	-128.6896136	-51
2764	0	0.366991043	-0.036928177	0.141002655	0.999999046	0.000304222	0.000114441	0.000427246	9.174776077	-0.923204422	3.525066376	0.015211106	0.005722046	0.021362306	-0.856201172	0.483886719	0.203857422	899.14	-15.08452906	-68.33959817	-128.5929875	-51
2765	0	0.366027832	-0.03717041	0.137695313	0.999999046	0.000644684	-0.000109673	0.00018692	9.150695801	-0.929260254	3.442382813	0.032234194	-0.005483628	0.009346009	-0.853759766	0.483886719	0.200927734	899.14	-15.04928459	-68.34894518	-128.5472892	-51
2766	0	0.367569923	-0.036581039	0.137966156	0.999999046	0.000761032	-0.000253677	-0.000118256	9.189248085	-0.914525986	3.4491539	0.038051609	-0.01268387	-0.005912781	-0.853759766	0.483886719	0.197998047	899.18	-14.92625527	-68.38338732	-128.5790097	-51
2767	0	0.367126465	-0.038024902	0.138000488	0.999999046	0.000553131	-0.000346184	-0.000274658	9.178161621	-0.950622559	3.450012207	0.027656557	-0.01730919	-0.013732911	-0.856201172	0.483886719	0.203857422	899.12	-14.79006178	-68.43268649	-128.6571333	-52
2768	0	0.36815834	-0.038586617	0.137481689	0.999999046	0.000504494	-0.000328064	-9.15527E-05	9.203958511	-0.964665413	3.437042236	0.025224687	-0.016403199	-0.004577637	-0.856201172	0.483886719	0.200927734	899.22	-14.70940233	-68.4746464	-128.678352	-52
2769	0	0.365966797	-0.037841797	0.13861084	0.999999046	0.000751495	-0.000315666	6.10352E-05	9.149169922	-0.946044922	3.465270996	0.037574772	-0.015783312	0.003051758	-0.856201172	0.483886719	0.200927734	899.18	-14.64246922	-68.51075652	-128.6551143	-51
2770	0	0.366110802	-0.036701202	0.138799667	0.999999046	0.000360489	-0.000276566	-5.72205E-05	9.152770042	-0.91753006	3.469991684	0.018024445	-0.013828278	-0.002861023	-0.853759766	0.483886719	0.200927734	899.14	-14.58412579	-68.54592034	-128.6692601	-51
2771	0	0.366821289	-0.038146973	0.138305664	0.999999046	0.000274658	-0.000559807	-0.000339508	9.170532227	-0.953674316	3.457641602	0.013732911	-0.027990344	-0.016975404	-0.856201172	0.483886719	0.203857422	899.08	-14.47665471	-68.62057866	-128.7494622	-51
2772	0	0.368344307	-0.037516594	0.138095856	0.999999046	0.000779152	-0.000556946	-2.76566E-05	9.208607674	-0.937914848	3.452396393	0.038957602	-0.027847294	-0.001382828	-0.856201172	0.483886719	0.197998047	899.14	-14.39936625	-68.6859505	-128.7291851	-51
2773	0	0.369506836	-0.037597656	0.140930176	0.999999046	0.000621796	-0.000601768	-0.000148773	9.237670898	-0.939941406	3.523254395	0.031089787	-0.030088429	-0.007438661	-0.858642578	0.484130859	0.198242188	899.12	-14.30882599	-68.75960339	-128.7431915	-51
2774	0	0.365840912	-0.036032677	0.140228271	0.999999046	0.000425339	-0.000375748	-0.000145912	9.146022797	-0.900816917	3.505706787	0.021266938	-0.018787385	-0.007295609	-0.856201172	0.483886719	0.197998047	899.08	-14.2248389	-68.80788118	-128.772626	-51
2775	0	0.365661621	-0.038024902	0.141540527	0.999999046	0.000469208	-9.82285E-05	0.000198364	9.141540527	-0.950622559	3.538513184	0.023460389	-0.004911423	0.009918213	-0.856201172	0.483886719	0.203857422	899.02	-14.21444857	-68.81535029	-128.725068	-51
2776	0	0.369275093	-0.037003517	0.139670372	0.999999046	0.000718117	6.86646E-05	0.000319481	9.231877327	-0.925087929	3.4917593	0.035905842	0.003433228	0.015974046	-0.856201172	0.481689453	0.204101563	899.06	-14.19831658	-68.8007664	-128.6587354	-51
2777	0	0.367614746	-0.03527832	0.139038086	0.999999046	0.000282288	0.000393867	0.000423431	9.190368652	-0.881958008	3.475952148	0.014114381	0.019693376	0.021171571	-0.856201172	0.483886719	0.203857422	899.12	-14.23815589	-68.74704391	-128.5844118	-51
2778	0	0.367901802	-0.035756111	0.139163971	0.999999046	0.000303268	0.000350952	0.00069046	9.197545052	-0.893902779	3.479099274	0.015163423	0.017547609	0.034523014	-0.853759766	0.486083984	0.197753906	899.18	-14.35447759	-68.69042557	-128.4171652	-51
2779	0	0.367248535	-0.03503418	0.137573242	0.999999046	0.000453949	0.000264168	0.000469208	9.181213379	-0.875854492	3.439331055	0.022697451	0.01320839	0.02346039	-0.853759766	0.486083984	0.197753906	899.14	-14.39633324	-68.64967704	-128.3137677	-51
2780	0	0.365921974	-0.03500843	0.138773918	0.999999046	0.000100136	0.000213623	0.000174522	9.148049355	-0.875210762	3.469347954	0.00500679	0.010681152	0.00872612	-0.854003906	0.486083984	0.200683594	899.12	-14.39848672	-68.62287753	-128.3006448	-52
2781	0	0.367492676	-0.036865234	0.137695313	0.999999046	0.000576019	0.000138283	0.000144958	9.187316895	-0.921630859	3.442382813	0.028800966	0.006914139	0.007247925	-0.856445313	0.488525391	0.197753906	899.12	-14.34339601	-68.60530818	-128.2863078	-51
2782	0	0.368542671	-0.034188271	0.138812065	0.999999046	0.000547409	0.000125885	0.00018692	9.21356678	-0.854706764	3.470301628	0.027370454	0.006294251	0.009346009	-0.856445313	0.490722656	0.191650391	899.14	-14.30419138	-68.58795755	-128.2499687	-51
2783	0	0.366699219	-0.035644531	0.137695313	0.999999046	8.7738E-05	0.000329018	0.00038147	9.167480469	-0.891113281	3.442382813	0.004386902	0.016450883	0.019073487	-0.854003906	0.48828125	0.197509766	899.06	-14.35800813	-68.54256768	-128.1808738	-51
2784	0	0.369024277	-0.03498745	0.136112213	0.999999046	0.000180244	0.000490189	0.000312805	9.225606918	-0.874686241	3.402805328	0.009012223	0.024509431	0.01564026	-0.854003906	0.48828125	0.197509766	899.14	-14.36997916	-68.48139638	-128.1471905	-51
2785	0	0.368103027	-0.03515625	0.135864258	0.999999046	-9.53674E-05	0.000470161	0.000255585	9.202575684	-0.87890625	3.396606445	-0.004768372	0.023508073	0.012779236	-0.853759766	0.48828125	0.194580078	899.18	-14.39876138	-68.42425416	-128.1272037	-51
2786	0	0.372106552	-0.036898613	0.136571884	0.999999046	0.000213623	0.000219345	-9.53674E-05	9.302663803	-0.922465324	3.414297104	0.010681153	0.010967255	-0.004768372	-0.854003906	0.48828125	0.197509766	899.12	-14.31192748	-68.40514823	-128.1970042	-52
2787	0	0.368164063	-0.036987305	0.132568359	0.999999046	0.001167297	0.000142097	-1.90735E-05	9.204101563	-0.924682617	3.314208984	0.058364882	0.007104875	-0.000953675	-0.853759766	0.490478516	0.188720703	899.18	-14.1432615	-68.39274515	-128.2260021	-51
2788	0	0.369530678	-0.034397125	0.136231422	0.999997139	0.001921654	0.000232697	0.000346184	9.238266945	-0.859928131	3.405785561	0.096082749	0.011634834	0.0173092	-0.856201172	0.488525391	0.194824219	899.12	-13.9843214	-68.36026622	-128.1673018	-52
2789	0	0.375244141	-0.032592773	0.153015137	0.999990463	0.003937721	0.000545502	0.001361847	9.381103516	-0.814819336	3.825378418	0.196886642	0.027275166	0.068092547	-0.854003906	0.492675781	0.19140625	899.18	-13.85600561	-68.26462848	-127.8269272	-51
2790	0	0.383554459	-0.019207001	0.166524887	0.999968529	0.006948471	0.002754211	0.00245285	9.588861465	-0.480175018	4.163122177	0.347427137	0.137711992	0.122643782	-0.854003906	0.497070313	0.179443359	899.14	-13.52995861	-67.89330321	-127.3304268	-51
2791	0	0.382263184	-0.010009766	0.18536377	0.999954224	0.006077766	0.006649017	0.003044128	9.55657959	-0.250244141	4.634094238	0.3038929	0.332455877	0.152208715	-0.851806641	0.503662109	0.169921875	899.22	-13.20087208	-67.07185721	-126.9511437	-52
2792	0	0.384343147	-0.016475677	0.201251984	0.999920845	0.006115913	0.010032654	0.004439354	9.608578682	-0.411891937	5.031299591	0.305803711	0.501645881	0.221973534	-0.8515625	0.510253906	0.148925781	899.12	-13.0100878	-65.8354881	-126.4195518	-52
2793	0	0.377441406	-0.010681152	0.202514648	0.999824524	0.009057045	0.015575409	0.005008698	9.436035156	-0.267028809	5.062866211	0.452878648	0.778815845	0.250449474	-0.849121094	0.521240234	0.118652344	899.12	-12.30215261	-63.96552455	-126.0837064	-51
2794	0	0.376984596	0.00375843	0.221559525	0.999752045	0.005797386	0.020977974	0.004593849	9.424614906	0.093960762	5.538988113	0.289893218	1.048985213	0.229711405	-0.851318359	0.532226563	0.079833984	899.08	-11.6363459	-61.50039555	-126.1142526	-50
2795	0	0.394348145	0.001647949	0.245422363	0.999607086	0.000702858	0.027446747	0.005550385	9.858703613	0.04119873	6.135559082	0.035147496	1.372516866	0.27755553	-0.848632813	0.540771484	0.038330078	899.24	-11.50783651	-58.28590432	-126.20447	-51
2796	0	0.400948524	0.006454468	0.271724701	0.999337196	0.001437187	0.035558701	0.007566452	10.02371311	0.161361694	6.793117523	0.071875223	1.778327515	0.378406118	-0.845458984	0.551513672	-0.021240234	899.14	-11.37009705	-54.11335948	-126.2133323	-52
2797	0	0.409118652	-0.003234863	0.316467285	0.998969078	0.007411957	0.043480873	0.010723114	10.22796631	-0.080871582	7.911682129	0.370725228	2.174790954	0.536339997	-0.830566406	0.566162109	-0.090332031	899.18	-10.79755051	-48.9794503	-125.9157597	-49
2798	0	0.445095062	0.024628639	0.344478607	0.998413086	0.012955666	0.053902626	0.009815216	11.12737656	0.615715981	8.611965179	0.648125979	2.696557121	0.491020433	-0.810302734	0.582519531	-0.183349609	899.14	-9.305056369	-42.69375286	-125.9873688	-50
2799	0	0.402038574	0.028686523	0.342956543	0.997948647	0.013889313	0.06179142	0.009296417	10.05096436	0.717163086	8.573913574	0.694940778	3.091684827	0.465138884	-0.775146484	0.593994141	-0.294189453	899.08	-7.680856646	-35.52770019	-126.0968735	-53
2800	0	0.402071953	-0.020867348	0.362563133	0.997426033	0.027024269	0.065813065	0.008903503	10.05179882	-0.521683693	9.064078331	1.352373894	3.293479282	0.445557493	-0.722900391	0.595703125	-0.4140625	899.06	-4.670416315	-27.91912035	-125.982044	-57
2801	0	0.361755371	-0.02130127	0.325256348	0.996904373	0.040909767	0.067077637	0.0026474	9.043884277	-0.532531738	8.131408691	2.047601101	3.357345992	0.132506717	-0.652099609	0.572021484	-0.556152344	899.08	0.060313034	-20.23316439	-126.0823321	-55
2802	0	0.315084457	-0.041358948	0.296309471	0.997096062	0.044494629	0.061779022	-0.001214027	7.877111435	-1.033973694	7.407736778	2.226886866	3.091943827	-0.06076018	-0.572998047	0.519042969	-0.690185547	899.14	5.138342296	-13.1712559	-125.9566214	-57
2803	0	0.26373291	-0.063049316	0.220825195	0.997159004	0.046779633	0.058949471	-0.003036499	6.593322754	-1.57623291	5.520629883	2.341198641	2.9502673	-0.151968859	-0.483642578	0.447753906	-0.811767578	899.14	10.42715163	-6.457465745	-125.4118155	-69
2804	0	0.15592289	-0.053104401	0.141674995	0.99733448	0.041577339	0.059669495	-0.005843163	3.898072243	-1.327610016	3.541874886	2.080715785	2.986128064	-0.292417956	-0.389648438	0.363037109	-0.90625	899.14	15.1648773	0.327045441	-124.5829783	-66
2805	0	0.101989746	-0.074645996	0.06463623	0.997690201	0.035569191	0.057411194	-0.007160187	2.549743652	-1.866149902	1.615905762	1.77982958	2.872771019	-0.35828513	-0.281494141	0.282470703	-0.981445313	899.06	19.32448213	6.817842485	-123.432816	-65
2806	0	0.127522469	-0.092784882	0.017435074	0.997847557	0.038650513	0.051811218	-0.010968208	3.188061714	-2.31962204	0.435876846	1.933912835	2.592420462	-0.548804074	-0.171875	0.204345703	-1.027587891	899.08	23.93342177	12.75916106	-122.3992788	-83
2807	0	0.139526367	-0.066589355	0.015319824	0.998104095	0.031376839	0.050079346	-0.017166138	3.48815918	-1.664733887	0.382995605	1.569833859	2.505550457	-0.858849562	-0.07421875	0.122314453	-1.058349609	899.08	27.73198718	18.73556318	-121.6512585	-87
2808	0	0.12057209	-0.014321327	0.029865265	0.998189926	0.023727417	0.052853584	-0.016088486	3.014302254	-0.35803318	0.746631622	1.187086869	2.644274171	-0.804909786	0.034179688	0.0625	-1.071044922	899.18	30.98915156	24.86864563	-120.1971489	-70
2809	0	0.109191895	0.047180176	0.122558594	0.998044968	0.027264595	0.053432465	-0.017505646	2.729797363	1.179504395	3.063964844	1.364118512	2.673365	-0.87585293	0.146240234	0.018310547	-1.064697266	899.14	34.979819	31.04211007	-118.3378751	-60
2810	0	-0.003522873	0.220108032	0.126353264	0.996498108	0.036669731	0.070300102	-0.026514053	-0.088071823	5.502700806	3.158831596	1.835629245	3.519112891	-1.327251938	0.256347656	-0.036865234	-1.048583984	899.06	40.98856024	39.2097592	-115.2289016	-67
2811	0	-0.787658691	0.688659668	-0.11932373	0.994641304	-0.061336517	0.081215858	-0.018169403	-19.69146729	17.2164917	-2.983093262	-3.07231551	4.068061775	-0.910096323	0.419433594	-0.0625	-0.994384766	899.12	38.05481513	47.69163799	-109.3384825	-60
2812	0	-1.437806129	0.2359972	0.051221848	0.99509716	-0.098629951	0.001998901	0.006976128	-35.94515324	5.89993	1.280546188	-4.939571938	0.100108709	0.349377484	0.553466797	0.139892578	-0.925292969	899.18	27.63152678	47.45045012	-108.1215106	-65
2813	0	-0.716003418	0.247314453	0.569335938	0.997961998	0.023288727	-0.055685997	-0.020664215	-17.90008545	6.182861328	14.23339844	1.165227726	-2.786192143	-1.033912955	0.510498047	0.248779297	-0.929199219	899.18	25.33067473	42.78652771	-115.1142965	-70
2814	0	-0.372384071	0.247494698	0.59758091	0.999060631	-0.009325027	-0.030502319	-0.0293293	-9.309601784	6.187367439	14.93952274	-0.466397399	-1.525593619	-1.466924279	0.397460938	0.220947266	-0.984863281	899.14	20.29014639	40.86030077	-121.0835604	-65
2815	0	-0.099243164	-0.007202148	0.234680176	0.9985466	-0.036265373	-0.011875153	-0.03805542	-2.481079102	-0.180053711	5.867004395	-1.814147557	-0.594045425	-1.903693274	0.334472656	0.292480469	-0.993164063	899.08	12.19432248	40.76670883	-127.1255558	-58
2816	0	0.092021942	-0.168341637	0.165754318	0.999718666	-0.003657341	0.010614395	-0.020853043	2.300548553	-4.208540916	4.143857956	-0.182884149	0.530769382	-1.042749624	0.297363281	0.370117188	-0.974365234	899.12	9.899341578	42.40509771	-129.9560695	-62
2817	0	-0.155761719	-0.084899902	0.135559082	0.999655724	0.010017395	0.022480965	-0.009002686	-3.894042969	-2.122497559	3.388977051	0.500927101	1.124176937	-0.450185818	0.318847656	0.371826172	-0.975585938	899.14	10.50400182	45.11200874	-130.7409296	-60
2818	0	-0.288650513	-0.022501945	0.16565609	0.999833107	-0.005157471	0.016588211	-0.005634308	-7.216262817	-0.562548637	4.141402245	-0.257887871	0.829456663	-0.281731055	0.352539063	0.363769531	-0.968017578	899.06	9.584324754	47.08994696	-131.1958627	-56
2819	0	-0.368896484	-0.006225586	0.196105957	0.999828339	-0.01495266	0.010139465	-0.004096985	-9.222412109	-0.155639648	4.902648926	-0.747675749	0.507002268	-0.204860962	0.377685547	0.385498047	-0.953857422	899.14	7.534734962	48.30791369	-131.6467067	-58
2820	0	-0.455115318	-0.016030312	0.209111214	0.999964714	-0.005288124	3.43323E-05	-0.006528854	-11.37788296	-0.40075779	5.227780342	-0.264409315	0.001716634	-0.326446559	0.390380859	0.416748047	-0.933837891	899.18	6.07438414	48.40693287	-132.7805483	-61
2821	0	-0.426391602	-0.005187988	0.270690918	0.999908447	0.002484322	-0.010814667	-0.007743835	-10.65979004	-0.129699707	6.767272949	0.124219871	-0.54074984	-0.387203589	0.378173828	0.426025391	-0.933837891	899.12	5.227250016	47.27116891	-134.2955541	-64
2822	0	-0.36421299	-0.015535355	0.295612335	0.999865532	0.002473831	-0.014669418	-0.006828308	-9.105324745	-0.388383865	7.39030838	0.123697083	-0.733503675	-0.341430653	0.347167969	0.427001953	-0.946777344	899.14	4.515332159	45.67387084	-135.6551827	-65
2823	0	-0.311523438	-0.024658203	0.270263672	0.999880791	0.003231049	-0.014777184	-0.003082275	-7.788085938	-0.616455078	6.756591797	0.161558846	-0.738888525	-0.154119891	0.311279297	0.426025391	-0.956298828	899.12	4.37812212	44.02513989	-136.3592825	-66
2824	0	-0.263000488	-0.034545898	0.25	0.999917984	0.005199432	-0.011496544	0.001960754	-6.575012207	-0.863647461	6.25	0.259978684	-0.574842816	0.098040384	0.285400391	0.422363281	-0.969238281	899.08	5.054079351	42.70654455	-136.2240985	-66
2825	0	-0.254882813	-0.010498047	0.245483398	0.999955177	0.004878998	-0.007662773	0.002365112	-6.372070313	-0.262451172	6.137084961	0.243953473	-0.383144284	0.118257352	0.266845703	0.407226563	-0.975585938	899.08	5.753163493	41.82068429	-135.9963045	-66
2826	0	-0.291287422	-0.00592041	0.241811752	0.999979973	-0.000200272	-0.006244659	0.000821114	-7.282185555	-0.148010254	6.045293808	-0.010013647	-0.312235038	0.041055951	0.255126953	0.405273438	-0.980712891	899.18	5.718660463	41.11581321	-135.9926244	-65
2827	0	-0.28125	0.00012207	0.251037598	0.999952316	-0.004237175	-0.008644104	0.001010895	-7.03125	0.003051758	6.275939941	-0.211862058	-0.43221195	0.050545528	0.240722656	0.405761719	-0.982910156	899.12	5.219330225	40.13727976	-135.9916756	-66
2828	0	-0.258476257	-0.00615406	0.257513046	0.999910355	-0.008199692	-0.01050663	0.001132011	-6.461906433	-0.153851509	6.437826157	-0.409996814	-0.525347163	0.056602259	0.223388672	0.417480469	-0.979980469	899.12	4.271683056	38.94636079	-135.9799814	-67
2829	0	-0.219848633	-0.020629883	0.256896973	0.999838829	-0.011642456	-0.01355648	0.001594543	-5.49621582	-0.51574707	6.422424316	-0.582154035	-0.677860387	0.07973145	0.203125	0.436279297	-0.96875	899.12	2.969975378	37.40403285	-135.8992126	-67
2830	0	-0.197144508	-0.016210556	0.251701355	0.999800682	-0.011117935	-0.016208649	0.003235817	-4.928612709	-0.405263901	6.292533875	-0.555933529	-0.81048604	0.161801549	0.17578125	0.459716797	-0.969238281	899.12	1.877732784	35.55181738	-135.5619431	-69
2831	0	-0.174560547	-0.029663086	0.249816895	0.999687195	-0.011374474	-0.021461487	0.005870819	-4.364013672	-0.741577148	6.245422363	-0.568782884	-1.073186051	0.293571513	0.145996094	0.480957031	-0.960449219	899.06	0.957458805	33.09509353	-134.8449001	-72
2832	0	-0.126602173	-0.013986588	0.267127037	0.999595642	-0.013698578	-0.024035454	0.006509781	-3.165054321	-0.349664688	6.678175926	-0.685021134	-1.201934534	0.325532878	0.111328125	0.502441406	-0.951660156	899.12	-0.196000375	30.35198104	-134.0112181	-73
2833	0	-0.164428711	-0.039489746	0.270019531	0.999365807	-0.017654419	-0.030428886	0.005466461	-4.110717773	-0.987243652	6.750488281	-0.882907525	-1.521765904	0.273380831	0.068847656	0.535400391	-0.9375	899.12	-1.876821793	26.89271763	-133.2440736	-73
2834	0	-0.086895943	-0.021584511	0.32561779	0.999313354	-0.014811516	-0.033753395	0.003522873	-2.172398567	-0.53961277	8.140444756	-0.740745127	-1.688055648	0.176183922	0.011962891	0.566650391	-0.919433594	899.14	-3.336565655	23.05885614	-132.6191061	-72
2835	0	-0.115478516	-0.039550781	0.325500488	0.999090195	-0.021307945	-0.036930084	0.000209808	-2.886962891	-0.988769531	8.137512207	-1.065720325	-1.847064131	0.010493599	-0.042480469	0.595703125	-0.892578125	899.12	-5.673834787	18.85186032	-132.2483102	-66
2836	0	-0.054992676	-0.019226074	0.39654541	0.999053955	-0.017478943	-0.039710045	-0.002643585	-1.374816895	-0.480651855	9.913635254	-0.874222582	-1.986128006	-0.132220919	-0.109619141	0.634033203	-0.854248047	899.08	-7.638157418	14.30228513	-132.0138297	-66
2837	0	-0.067443848	-0.042785645	0.409667969	0.999027252	-0.021861076	-0.037448883	-0.007957458	-1.686096191	-1.069641113	10.24169922	-1.093408213	-1.873051246	-0.398001925	-0.176757813	0.666015625	-0.806396484	899.08	-10.22048992	9.924494405	-132.251574	-63
2838	0	-0.012978554	-0.055008888	0.45662117	0.999048233	-0.017651558	-0.038359642	-0.010854721	-0.324463844	-1.375222206	11.41552925	-0.882857746	-1.918590259	-0.542908145	-0.250488281	0.691162109	-0.760742188	899.12	-12.31529596	5.369457032	-132.610665	-58
2839	0	-0.004394531	-0.08605957	0.461730957	0.999175072	-0.018600464	-0.034655571	-0.010017395	-0.109863281	-2.151489258	11.54327393	-0.930278726	-1.733254646	-0.50100737	-0.319580078	0.711914063	-0.711914063	899.24	-14.47940203	1.237184756	-132.8042553	-57
2840	0	0.036678314	-0.09986496	0.467416763	0.999303818	-0.017532349	-0.030461311	-0.012493134	0.916957855	-2.496623993	11.68541908	-0.87682084	-1.523418975	-0.624801621	-0.37890625	0.727783203	-0.651611328	899.18	-16.50229196	-2.514670211	-133.2464002	-57
2841	0	0.023132324	-0.130432129	0.448608398	0.999390602	-0.015094757	-0.029818535	-0.010051727	0.578308105	-3.260803223	11.21520996	-0.754891154	-1.491229575	-0.502688449	-0.435546875	0.741455078	-0.599853516	899.24	-18.24348609	-6.125645585	-133.3211365	-58
2842	0	0.039912224	-0.111586571	0.459323883	0.999580383	-0.005732536	-0.026709557	-0.009558678	0.997805595	-2.789664268	11.48309708	-0.286666845	-1.335664339	-0.478000631	-0.482177734	0.745605469	-0.548095703	899.18	-18.90574131	-9.38119154	-133.3777182	-59
2843	0	0.035644531	-0.106079102	0.432495117	0.9995718	-0.001678467	-0.026244164	-0.012828827	0.891113281	-2.651977539	10.81237793	-0.08393532	-1.312395489	-0.641532909	-0.525634766	0.738525391	-0.518798828	899.12	-19.02845068	-12.70664365	-133.7887081	-60
2844	0	0.10584259	-0.118470192	0.419386864	0.999608994	-0.001533508	-0.025956154	-0.010271072	2.646064758	-2.961754799	10.48467159	-0.076685406	-1.297976807	-0.513620539	-0.568847656	0.726806641	-0.483154297	899.14	-19.17773067	-15.906275	-133.9254535	-61
2845	0	0.106750488	-0.091186523	0.384765625	0.999690056	-4.57764E-05	-0.019515038	-0.015407562	2.668762207	-2.279663086	9.619140625	-0.002289054	-0.975852445	-0.770457514	-0.607421875	0.717041016	-0.454101563	899.06	-18.89719523	-18.59968975	-134.8996188	-62
2846	0	0.121958733	-0.123193741	0.351222992	0.999567032	-0.009285927	-0.019173622	-0.020291328	3.048968315	-3.079843521	8.780574799	-0.464363349	-0.958819465	-1.014712846	-0.650146484	0.694091797	-0.420654297	899.14	-19.42963132	-21.4420638	-136.4626396	-63
2847	0	0.219848633	-0.304260254	0.541992188	0.999918938	0.012573242	0.001713753	0.000106812	5.49621582	-7.606506348	13.54980469	0.628678983	0.085689937	0.00534072	-0.686035156	0.677734375	-0.385009766	899.18	-17.97973016	-21.25417357	-136.5284389	-63
2848	0	0.087913513	-0.074728966	0.505882263	0.999811172	0.019271851	0.000700951	0.002186775	2.19783783	-1.868224144	12.64705658	0.963653033	0.035049732	0.109345626	-0.677734375	0.668212891	-0.428466797	899.2	-15.86108775	-21.10103138	-136.3048674	-63
2849	0	0.141418457	-0.064941406	0.344543457	0.999969482	-0.003668785	-0.003517151	-0.005924225	3.535461426	-1.623535156	8.613586426	-0.183441118	-0.17585933	-0.296214251	-0.679443359	0.656982422	-0.442138672	899.18	-16.07345042	-21.67221069	-136.8942581	-63
2850	0	0.159219742	-0.107060432	0.336915016	0.999997139	-0.000522614	-0.001970291	-0.0008564	3.980493546	-2.676510811	8.422875404	-0.026130698	-0.098514637	-0.042820012	-0.688964844	0.652832031	-0.426513672	899.22	-16.12513463	-21.9142974	-136.9411497	-64
2851	0	0.154785156	-0.099853516	0.373474121	0.999995232	0.000778198	-0.000422478	0.002655029	3.869628906	-2.496337891	9.336853027	0.038909963	-0.021123914	0.132751638	-0.69140625	0.652832031	-0.429443359	899.14	-16.16267366	-21.87417949	-136.6286831	-64
2852	0	0.140007019	-0.104739189	0.359113693	0.999997139	-0.001935005	-0.000593185	0.001038551	3.500175476	-2.618479729	8.977842331	-0.096750343	-0.029659297	0.051927611	-0.687011719	0.657226563	-0.424072266	899.18	-16.44171145	-21.90360132	-136.4991966	-64
2853	0	0.146911621	-0.116333008	0.348571777	0.999999046	0.000385284	-0.000468254	0.000125885	3.672790527	-2.908325195	8.714294434	0.019264222	-0.023412706	0.006294251	-0.689453125	0.657470703	-0.421142578	899.18	-16.41354055	-21.94863856	-136.4825374	-64
2854	0	0.142033577	-0.102360725	0.357977867	0.999998093	0.001894951	-0.000405312	-8.10623E-05	3.550839424	-2.559018135	8.949446678	0.094747603	-0.020265592	-0.004053118	-0.687011719	0.659667969	-0.418457031	899.28	-16.20204537	-21.99317044	-136.4888647	-64
2855	0	0.14630127	-0.100219727	0.357910156	0.999998093	0.000374794	-0.000896454	-0.001010895	3.657531738	-2.505493164	8.947753906	0.018739706	-0.044822708	-0.050544755	-0.689208984	0.655029297	-0.426757813	899.22	-16.1292369	-22.12132612	-136.5899946	-64
2856	0	0.151721001	-0.102640152	0.353870392	0.999999046	0.00093174	-0.000610352	-0.00067234	3.793025017	-2.566003799	8.846759796	0.046587003	-0.030517587	-0.033617029	-0.689208984	0.652832031	-0.423583984	899.24	-16.00369638	-22.20727402	-136.6604322	-64
2857	0	0.151184082	-0.09552002	0.35534668	0.999999046	0.000526428	-0.000159264	0.000221252	3.779602051	-2.388000488	8.883666992	0.026321413	-0.007963181	0.011062623	-0.693847656	0.650634766	-0.426269531	899.14	-15.9584018	-22.21537049	-136.6436787	-64
2858	0	0.146064758	-0.100582123	0.355772018	0.999999046	-0.0001297	-5.72205E-05	0.000434875	3.651618958	-2.51455307	8.894300461	-0.006484986	-0.002861023	0.021743775	-0.689208984	0.652832031	-0.423583984	899.28	-15.99641064	-22.20534734	-136.601516	-64
2859	0	0.146728516	-0.102539063	0.355224609	0.999999046	0.000171661	-0.000288963	0.000156403	3.668212891	-2.563476563	8.880615234	0.008583069	-0.014448166	0.00782013	-0.689208984	0.652832031	-0.423583984	899.22	-15.9902716	-22.22952329	-136.5843127	-64
2860	0	0.146109581	-0.098922729	0.355905533	0.999999046	0.000308037	-0.000188828	6.67572E-06	3.652739525	-2.473068237	8.897638321	0.015401841	-0.009441376	0.000333786	-0.691650391	0.653076172	-0.420654297	899.14	-15.96019896	-22.24725616	-136.5893589	-64
2861	0	0.149414063	-0.100585938	0.354675293	0.999999046	-1.90735E-05	-0.000273705	-5.72205E-05	3.735351563	-2.514648438	8.866882324	-0.000953674	-0.013685227	-0.002861023	-0.693847656	0.653076172	-0.423339844	899.14	-15.96567159	-22.27638288	-136.5996652	-63
2862	0	0.149864197	-0.101193428	0.355015755	0.999999046	0.000192642	5.34058E-05	1.43051E-05	3.746604919	-2.529835701	8.875393867	0.009632111	0.002670288	0.000715256	-0.69140625	0.650634766	-0.429199219	899.3	-15.94576878	-22.26724868	-136.6119225	-63
2863	0	0.148864746	-0.097290039	0.355041504	0.999999046	0.000167847	0.000115395	0.000278473	3.721618652	-2.432250977	8.876037598	0.008392334	0.00576973	0.013923645	-0.69140625	0.650634766	-0.429199219	899.18	-15.93950685	-22.24297297	-136.5950643	-64
2864	0	0.146529198	-0.100914001	0.358221054	0.999999046	-0.000126839	4.95911E-05	0.000254631	3.663229942	-2.522850037	8.955526352	-0.006341934	0.002479553	0.012731552	-0.69140625	0.650634766	-0.426269531	899.12	-15.96661301	-22.22652058	-136.5792422	-63
2865	0	0.147827148	-0.102905273	0.355407715	0.999999046	0.000183105	-0.000231743	-3.8147E-06	3.695678711	-2.572631836	8.885192871	0.009155274	-0.011587143	-0.000190735	-0.69140625	0.652832031	-0.426513672	899.24	-15.95016529	-22.2491468	-136.5825996	-63
2866	0	0.147381783	-0.101798058	0.354948997	0.999999046	0.000490189	-0.000219345	-0.000172615	3.684544563	-2.544951439	8.873724937	0.024509431	-0.010967255	-0.008630753	-0.69140625	0.652832031	-0.429443359	899.22	-15.89068245	-22.27563963	-136.6054018	-64
2867	0	0.149108887	-0.098327637	0.355102539	0.999999046	0.000598907	-0.000136375	-0.000183105	3.727722168	-2.458190918	8.877563477	0.029945376	-0.006818772	-0.009155274	-0.693847656	0.6484375	-0.423095703	899.18	-15.81694901	-22.29330225	-136.6363538	-64
2868	0	0.148937225	-0.098944664	0.356949806	0.999999046	0.000481606	-8.7738E-05	1.04904E-05	3.723430634	-2.4736166	8.923745155	0.024080277	-0.004386902	0.000524521	-0.69140625	0.6484375	-0.426025391	899.22	-15.76458599	-22.29950418	-136.6435781	-64
2869	0	0.147338867	-0.097473145	0.357177734	0.999999046	0.000190735	-0.000151634	-4.95911E-05	3.68347168	-2.436828613	8.929443359	0.009536743	-0.007581711	-0.002479553	-0.693603516	0.650634766	-0.431884766	899.24	-15.74340075	-22.31451085	-136.6548277	-64
2870	0	0.148005486	-0.098849297	0.35533905	0.999999046	0.000133514	-9.91821E-05	7.53403E-05	3.700137138	-2.471232414	8.883476257	0.00667572	-0.004959106	0.003767014	-0.69140625	0.6484375	-0.426025391	899.22	-15.73362049	-22.31979252	-136.6533449	-63
2871	0	0.148193359	-0.097961426	0.356079102	0.999999046	0.000133514	-0.000288963	-0.0001297	3.704833984	-2.449035645	8.901977539	0.00667572	-0.014448166	-0.006484985	-0.69140625	0.650634766	-0.426269531	899.22	-15.71678662	-22.3523233	-136.6678024	-64
2872	0	0.148790359	-0.099537849	0.354310036	0.999999046	0.000201225	-0.000125885	-6.58035E-05	3.719758987	-2.488446236	8.857750893	0.010061264	-0.006294251	-0.003290176	-0.693603516	0.6484375	-0.426025391	899.18	-15.69293373	-22.36486377	-136.6826553	-63
2873	0	0.149169922	-0.098144531	0.355651855	0.999999046	0.000247955	-0.000193596	1.14441E-05	3.729248047	-2.453613281	8.891296387	0.012397766	-0.009679794	0.000572205	-0.691162109	0.6484375	-0.428955078	899.18	-15.66794476	-22.38246292	-136.6837814	-63
2874	0	0.14973259	-0.09943676	0.35625267	0.999999046	0.000459671	-9.34601E-05	-0.000123024	3.743314743	-2.485918999	8.906316757	0.022983552	-0.004673004	-0.0061512	-0.693603516	0.646240234	-0.42578125	899.28	-15.61122321	-22.39314987	-136.7070999	-64
2875	0	0.148925781	-0.096069336	0.357971191	0.999999046	0.000377655	-9.44138E-05	1.14441E-05	3.723144531	-2.401733398	8.949279785	0.018882752	-0.004720688	0.000572205	-0.693603516	0.6484375	-0.426025391	899.14	-15.56976493	-22.39971608	-136.7123914	-63
2876	0	0.15039444	-0.098550797	0.356124878	0.999999046	0.000342369	2.09808E-05	-6.96182E-05	3.759860992	-2.463769913	8.903121948	0.017118454	0.001049042	-0.003480911	-0.693359375	0.644042969	-0.428466797	899.22	-15.52711892	-22.39604954	-136.7335055	-63
2877	0	0.148864746	-0.097351074	0.356994629	0.999999046	0.000427246	0.00017643	-5.72205E-05	3.721618652	-2.433776855	8.924865723	0.021362305	0.008821488	-0.002861023	-0.693603516	0.646240234	-0.428710938	899.18	-15.47322006	-22.37476413	-136.7564353	-63
2878	0	0.149116516	-0.096053123	0.356396675	0.999999046	8.2016E-05	-0.000160217	0.000133514	3.727912903	-2.401328087	8.909916878	0.0041008	-0.008010864	0.00667572	-0.691162109	0.643798828	-0.428710938	899.22	-15.4716249	-22.38479558	-136.7455124	-63
2879	0	0.149597168	-0.099304199	0.358337402	0.999999046	0.000301361	0.000103951	1.52588E-05	3.739929199	-2.48260498	8.958435059	0.015068054	0.005197525	0.000762939	-0.695800781	0.646240234	-0.434326172	899.14	-15.43616743	-22.36920894	-136.7581042	-63
2880	0	0.147689819	-0.095860481	0.355434418	0.999999046	0.000290871	-7.82013E-05	-9.15527E-05	3.692245483	-2.396512032	8.885860443	0.014543534	-0.003910065	-0.004577637	-0.695800781	0.644042969	-0.434326172	899.14	-15.39919184	-22.37692599	-136.7785195	-63
2881	0	0.149108887	-0.096740723	0.354431152	0.999999046	6.10352E-05	-0.000247002	-4.95911E-05	3.727722168	-2.418518066	8.860778809	0.003051758	-0.012350083	-0.002479553	-0.695800781	0.641845703	-0.431152344	899.14	-15.39249767	-22.40202302	-136.7897698	-63
2882	0	0.151736259	-0.096255302	0.356747627	0.999999046	0.000116348	2.86102E-05	-7.72476E-05	3.793406487	-2.406382561	8.918690681	0.005817413	0.001430511	-0.003862381	-0.693359375	0.644042969	-0.431396484	899.14	-15.37462336	-22.39759621	-136.8094964	-62
2883	0	0.148864746	-0.096191406	0.355895996	0.999999046	0.000148773	0.00017643	0.000236511	3.721618652	-2.404785156	8.897399902	0.00743866	0.008821488	0.011825562	-0.693359375	0.644042969	-0.431396484	899.14	-15.36535749	-22.36727031	-136.79699	-63
2884	0	0.148387909	-0.096704483	0.358295441	0.999999046	0.000105858	8.01086E-05	0.000217438	3.709697723	-2.417612076	8.957386017	0.005292893	0.004005432	0.010871887	-0.695800781	0.644042969	-0.431396484	899.14	-15.3612263	-22.34807759	-136.7856936	-63
2885	0	0.148864746	-0.097045898	0.356933594	0.999999046	4.95911E-05	9.63211E-05	6.86646E-05	3.721618652	-2.426147461	8.923339844	0.002479553	0.004816055	0.003433228	-0.693359375	0.644042969	-0.431396484	899.22	-15.3565123	-22.3315752	-136.790846	-63
2886	0	0.149333	-0.096787453	0.354712486	0.999999046	0.000192642	9.72748E-05	0.000110626	3.733325005	-2.419686317	8.867812157	0.009632111	0.004863739	0.005531311	-0.693359375	0.644042969	-0.437255859	899.22	-15.33725366	-22.3137304	-136.7904437	-63
2887	0	0.148864746	-0.096862793	0.356567383	0.999999046	0.00030899	0.000149727	-4.57764E-05	3.721618652	-2.421569824	8.91418457	0.015449524	0.007486344	-0.002288818	-0.695800781	0.644042969	-0.434326172	899.18	-15.29686015	-22.29480756	-136.8122927	-63
2888	0	0.148400307	-0.096201897	0.357280731	0.999999046	0.000395775	0.000114441	-3.8147E-05	3.710007668	-2.405047417	8.93201828	0.019788743	0.005722046	-0.001907349	-0.693359375	0.644042969	-0.437255859	899.22	-15.24722682	-22.27950083	-136.8294644	-63
2889	0	0.148071289	-0.094360352	0.357849121	0.999999046	8.7738E-05	3.52859E-05	0.000118256	3.701782227	-2.359008789	8.946228027	0.004386902	0.001764297	0.005912781	-0.695800781	0.644042969	-0.437255859	899.24	-15.24078049	-22.26817488	-136.8274147	-63
2890	0	0.148084641	-0.096529961	0.357448578	0.999999046	-3.43323E-05	6.10352E-05	0.000113487	3.702116013	-2.413249016	8.936214447	-0.001716614	0.003051758	0.005674362	-0.695556641	0.641845703	-0.437011719	899.18	-15.24773761	-22.25409859	-136.8285498	-63
2891	0	0.147705078	-0.096557617	0.356628418	0.999999046	4.19617E-05	3.91006E-05	0.000137329	3.692626953	-2.41394043	8.915710449	0.002098084	0.001955032	0.006866455	-0.693359375	0.644042969	-0.431396484	899.24	-15.24726323	-22.24168406	-136.8231755	-63
2892	0	0.147223473	-0.095896721	0.358478546	0.999999046	0.000256538	-9.53674E-06	-5.72205E-05	3.680586815	-2.397418022	8.961963654	0.01282692	-0.000476837	-0.002861023	-0.693115234	0.641601563	-0.437011719	899.28	-15.21390527	-22.24041373	-136.8402909	-63
2893	0	0.148803711	-0.093383789	0.356445313	0.999999046	-3.8147E-06	-0.000193596	0.000152588	3.720092773	-2.334594727	8.911132813	-0.000190735	-0.009679794	0.007629395	-0.693359375	0.644042969	-0.434326172	899.18	-15.22194697	-22.25321586	-136.8247949	-63
2894	0	0.150499344	-0.096607208	0.356690407	0.999999046	1.14441E-05	0.000104904	0.000170708	3.762483597	-2.415180206	8.91726017	0.000572205	0.005245209	0.008535385	-0.693359375	0.644042969	-0.434326172	899.22	-15.2253663	-22.23255464	-136.8171558	-63
2895	0	0.146240234	-0.096862793	0.357849121	0.999999046	0.000370026	0.000191689	0.00012207	3.656005859	-2.421569824	8.946228027	0.018501282	0.009584427	0.006103516	-0.693359375	0.641845703	-0.431152344	899.14	-15.18440847	-22.20363213	-136.8204838	-63
2896	0	0.147116661	-0.096572876	0.35809803	0.999999046	0.000655174	-0.000185013	0	3.677916527	-2.414321899	8.952450752	0.032758715	-0.009250642	0	-0.693359375	0.644042969	-0.434326172	899.24	-15.10985268	-22.21995199	-136.8230508	-63
2897	0	0.1484375	-0.094543457	0.35559082	0.999999046	0.000331879	-8.67844E-05	-0.00018692	3.7109375	-2.363586426	8.889770508	0.016593934	-0.004339218	-0.009346009	-0.693115234	0.643798828	-0.440185547	899.24	-15.06261766	-22.23101147	-136.8496258	-63
2898	0	0.150488853	-0.095227242	0.357702255	0.999999046	0.000356674	0.000217438	-0.000126839	3.762221336	-2.380681038	8.942556381	0.01783371	0.010871888	-0.006341934	-0.693115234	0.641601563	-0.437011719	899.14	-15.01151696	-22.20667995	-136.8807607	-64
2899	0	0.146789551	-0.092834473	0.358886719	0.999999046	0.000339508	0.0001688	8.7738E-05	3.66973877	-2.320861816	8.972167969	0.016975403	0.008440018	0.004386902	-0.693359375	0.644042969	-0.434326172	899.22	-14.97251454	-22.18125589	-136.8829805	-63
2900	0	0.146896362	-0.093532562	0.358388901	0.999999046	-0.000287056	-0.000175476	0.000156403	3.672409058	-2.338314056	8.959722519	-0.014352799	-0.008773804	0.00782013	-0.693115234	0.641601563	-0.439941406	899.22	-15.01246552	-22.19183661	-136.8676845	-64
2901	0	0.149597168	-0.094848633	0.354919434	0.999999046	-0.000484467	0.000103951	0.000350952	3.739929199	-2.37121582	8.87298584	-0.024223329	0.005197525	0.017547609	-0.693359375	0.641601563	-0.434082031	899.22	-15.08042708	-22.16580924	-136.8401264	-63
2902	0	0.146770477	-0.096212387	0.355405807	0.999999046	-0.000350952	0.000337601	0.000305176	3.669261932	-2.405309677	8.885145187	-0.017547608	0.016880036	0.01525879	-0.690917969	0.643798828	-0.4375	899.28	-15.12820043	-22.11524282	-136.8219749	-63
2903	0	0.147583008	-0.098754883	0.356689453	0.999999046	0.000392914	0.000214577	3.8147E-06	3.689575195	-2.46887207	8.917236328	0.019645692	0.010728836	0.000190735	-0.690917969	0.643798828	-0.4375	899.24	-15.07881318	-22.08727657	-136.8356137	-63
2904	0	0.145842552	-0.093043327	0.357740402	0.999999046	0.000405312	0.000143051	-4.57764E-05	3.646063805	-2.326083183	8.943510056	0.02026558	0.007152558	-0.002288818	-0.690917969	0.643798828	-0.4375	899.3	-15.02649622	-22.06861603	-136.8525348	-63
2905	0	0.145446777	-0.094116211	0.357177734	0.999999046	-0.0001297	2.38419E-05	-1.14441E-05	3.636169434	-2.352905273	8.929443359	-0.006484985	0.001192093	-0.000572205	-0.690673828	0.641601563	-0.437255859	899.3	-15.03839529	-22.06204583	-136.8634867	-63
2906	0	0.146164894	-0.096342087	0.358013153	0.999999046	-0.000116348	-0.000185013	5.62668E-05	3.654122353	-2.40855217	8.950328827	-0.005817413	-0.009250641	0.002813339	-0.693115234	0.643798828	-0.440185547	899.18	-15.05434745	-22.07651162	-136.8592362	-63
2907	0	0.147888184	-0.095397949	0.356811523	0.999999046	-5.72205E-05	-0.000185966	8.7738E-05	3.69720459	-2.38494873	8.920288086	-0.002861023	-0.009298325	0.004386902	-0.693115234	0.643798828	-0.440185547	899.24	-15.0649385	-22.09018504	-136.8511188	-63
2908	0	0.147638321	-0.094916344	0.356988907	0.999999046	-1.04904E-05	-8.2016E-05	4.1008E-05	3.690958023	-2.372908592	8.924722672	-0.000524521	-0.0041008	0.0020504	-0.693359375	0.644042969	-0.437255859	899.24	-15.06677703	-22.09376842	-136.8521554	-63
2909	0	0.147766113	-0.094787598	0.356018066	0.999999046	1.14441E-05	-3.71933E-05	0.000141144	3.694152832	-2.369689941	8.90045166	0.000572205	-0.001859665	0.00705719	-0.693359375	0.641601563	-0.434082031	899.28	-15.07002146	-22.0894543	-136.8457201	-63
2910	0	0.147766113	-0.096225739	0.357595444	0.999999046	8.01086E-05	2.09808E-05	0.000166893	3.694152832	-2.405643463	8.939886093	0.004005432	0.001049042	0.00834465	-0.690917969	0.641601563	-0.434326172	899.34	-15.06586638	-22.07794342	-136.8358487	-63
2911	0	0.14642334	-0.096130371	0.360717773	0.999999046	0.000213623	-2.57492E-05	-0.0001297	3.660583496	-2.403259277	9.017944336	0.010681152	-0.00128746	-0.006484985	-0.693359375	0.644042969	-0.434326172	899.14	-15.03363138	-22.08032261	-136.8590013	-63
2912	0	0.145489693	-0.094230652	0.359224319	0.999999046	0.000195503	-0.000339508	-9.91821E-05	3.637242317	-2.355766296	8.980607986	0.009775162	-0.016975403	-0.004959107	-0.693115234	0.641601563	-0.437011719	899.34	-15.00852163	-22.11639706	-136.8695173	-63
2913	0	0.14831543	-0.094543457	0.356262207	0.999999046	-0.00018692	-0.000494957	-1.90735E-05	3.707885742	-2.363586426	8.906555176	-0.009346009	-0.02474785	-0.000953674	-0.693115234	0.643798828	-0.440185547	899.22	-15.03268357	-22.16735817	-136.8621268	-63
2914	0	0.150380135	-0.095403671	0.355649948	0.999999046	-0.000160217	-0.000112534	0.000144958	3.759503365	-2.385091782	8.891248703	-0.008010864	-0.005626679	0.007247925	-0.693115234	0.641601563	-0.437011719	899.28	-15.05657628	-22.17126705	-136.8504294	-63
2915	0	0.147460938	-0.095336914	0.357299805	0.999999046	0.000141144	8.4877E-05	0.00018692	3.686523438	-2.383422852	8.932495117	0.00705719	0.004243851	0.009346008	-0.693115234	0.641601563	-0.437011719	899.3	-15.04541473	-22.15205568	-136.8403601	-63
2916	0	0.146327019	-0.094863892	0.357106209	0.999999046	-8.10623E-05	-0.000217438	8.01086E-05	3.658175468	-2.37159729	8.92765522	-0.004053116	-0.010871887	0.004005432	-0.690673828	0.639404297	-0.437011719	899.28	-15.05853086	-22.16941216	-136.8331143	-63
2917	0	0.149291992	-0.09588623	0.356384277	0.999999046	-7.62939E-05	-0.000193596	0.000167847	3.732299805	-2.397155762	8.909606934	-0.003814697	-0.009679794	0.008392334	-0.693359375	0.641845703	-0.431152344	899.22	-15.07479542	-22.18159358	-136.8171006	-63
2918	0	0.148299217	-0.096113205	0.355945587	0.999999046	-8.7738E-05	7.24792E-05	6.10352E-05	3.707480431	-2.402830124	8.898639679	-0.004386902	0.003623962	0.003051758	-0.693359375	0.644042969	-0.434326172	899.28	-15.08435912	-22.16754657	-136.8196238	-63
2919	0	0.147216797	-0.096008301	0.356567383	0.999999046	9.53674E-05	5.05447E-05	-1.90735E-05	3.680419922	-2.40020752	8.91418457	0.004768372	0.002527237	-0.000953674	-0.690917969	0.643798828	-0.431640625	899.18	-15.06961641	-22.15828741	-136.8288756	-63
2920	0	0.147733688	-0.094408989	0.356782913	0.999999046	7.9155E-05	-0.000125885	9.91821E-05	3.693342209	-2.360224724	8.91957283	0.003957748	-0.006294251	0.004959106	-0.693115234	0.643798828	-0.443115234	899.36	-15.06413935	-22.16503284	-136.8190326	-63
2921	0	0.14831543	-0.094909668	0.356445313	0.999999046	-0.000247955	-4.86374E-05	0.000228882	3.707885742	-2.372741699	8.911132813	-0.012397766	-0.00243187	0.011444092	-0.693115234	0.641601563	-0.437011719	899.18	-15.10102477	-22.15939938	-136.8002051	-63
2922	0	0.147634506	-0.096557617	0.355649948	0.999999046	6.10352E-05	7.05719E-05	0.000164032	3.690862656	-2.41394043	8.891248703	0.003051758	0.003528595	0.008201599	-0.690917969	0.641601563	-0.434326172	899.22	-15.09818415	-22.14251776	-136.791264	-63
2923	0	0.147705078	-0.09588623	0.35760498	0.999999046	0.000141144	3.52859E-05	0.000102997	3.692626953	-2.397155762	8.940124512	0.00705719	0.001764297	0.005149841	-0.690917969	0.641601563	-0.434326172	899.14	-15.0838362	-22.131349	-136.788509	-63
2924	0	0.147660255	-0.096182823	0.356909752	0.999999046	4.29153E-05	0.000118256	5.62668E-05	3.691506386	-2.40457058	8.922743797	0.002145767	0.005912781	0.002813339	-0.693115234	0.641601563	-0.439941406	899.24	-15.07766199	-22.11239457	-136.7956381	-63
2925	0	0.146850586	-0.094482422	0.35736084	0.999999046	-9.91821E-05	1.62125E-05	0.0001297	3.671264648	-2.362060547	8.934020996	-0.004959106	0.000810623	0.006484985	-0.690673828	0.641601563	-0.440185547	899.28	-15.09223807	-22.10250908	-136.7883062	-63
2926	0	0.148523331	-0.095080376	0.355026245	0.999999046	-0.000303268	-3.05176E-05	0.000308037	3.713083267	-2.377009392	8.875656128	-0.015163422	-0.001525879	0.015401841	-0.690673828	0.641601563	-0.440185547	899.22	-15.13876532	-22.09255441	-136.7591608	-63
2927	0	0.146972656	-0.096557617	0.358642578	0.999999046	3.43323E-05	8.4877E-05	0.000198364	3.674316406	-2.41394043	8.966064453	0.001716614	0.004243851	0.009918213	-0.690917969	0.643798828	-0.440429688	899.18	-15.14027291	-22.07305257	-136.7449249	-63
2928	0	0.144005775	-0.095980644	0.357330322	1	-4.3869E-05	-3.33786E-05	-3.91006E-05	3.600144386	-2.399516106	8.933258057	-0.002193451	-0.00166893	-0.001955032	-0.690917969	0.643798828	-0.434570313	899.28	-15.14151147	-22.07358108	-136.7557656	-63
2929	0	0.148132324	-0.096008301	0.355712891	0.999999046	-5.72205E-05	-0.000365257	-5.72205E-05	3.703308105	-2.40020752	8.892822266	-0.002861023	-0.018262864	-0.002861023	-0.693359375	0.646240234	-0.440429688	899.3	-15.1475075	-22.11143126	-136.7562465	-63
2930	0	0.150051117	-0.096337318	0.355774879	0.999999046	-0.000171661	4.00543E-05	0.000171661	3.751277924	-2.408432961	8.894371986	-0.008583069	0.002002716	0.008583069	-0.690917969	0.643798828	-0.4375	899.18	-15.17199736	-22.09773726	-136.7437397	-63
2931	0	0.145324707	-0.096557617	0.357177734	0.999999046	-2.28882E-05	0.000157356	0.000183105	3.633117676	-2.41394043	8.929443359	-0.001144409	0.007867813	0.009155274	-0.690917969	0.645996094	-0.434570313	899.3	-15.17852732	-22.07061789	-136.7320051	-63
2932	0	0.145971298	-0.096384048	0.356547356	0.999999046	-4.673E-05	-0.000160217	-7.34329E-05	3.649282455	-2.409601212	8.913683891	-0.002336502	-0.008010864	-0.003671646	-0.690917969	0.643798828	-0.4375	899.24	-15.1801535	-22.08626729	-136.7423804	-63
2933	0	0.147094727	-0.095214844	0.356994629	0.999999046	3.8147E-05	-0.000517845	2.67029E-05	3.677368164	-2.380371094	8.924865723	0.001907349	-0.025892259	0.001335144	-0.690917969	0.645996094	-0.434570313	899.18	-15.18084018	-22.13845724	-136.7261905	-63
2934	0	0.149410248	-0.096721649	0.354832649	0.999999046	-0.000370026	-0.000175476	6.48499E-05	3.735256195	-2.418041229	8.870816231	-0.018501282	-0.008773804	0.003242493	-0.693359375	0.646240234	-0.434570313	899.3	-15.22589436	-22.15175704	-136.7192513	-63
2935	0	0.147277832	-0.097900391	0.354003906	0.999999046	0.000267029	0.000195503	0.000137329	3.681945801	-2.447509766	8.850097656	0.013351441	0.009775162	0.006866455	-0.690917969	0.643798828	-0.4375	899.3	-15.1967785	-22.12187548	-136.7157477	-63
2936	0	0.145708084	-0.09585762	0.357590675	0.999999046	0.000128746	0	7.62939E-05	3.642702103	-2.396440506	8.939766884	0.006437302	0	0.003814697	-0.690917969	0.645996094	-0.4375	899.18	-15.18310776	-22.11534568	-136.7103657	-63
2937	0	0.148193359	-0.096557617	0.355712891	0.999999046	-7.62939E-06	-0.000159264	-6.86646E-05	3.704833984	-2.41394043	8.892822266	-0.00038147	-0.007963181	-0.003433228	-0.690917969	0.643798828	-0.4375	899.3	-15.18051703	-22.130833	-136.7194151	-63
2938	0	0.147159576	-0.095139503	0.354320526	0.999999046	0.000205994	-0.00012207	-3.52859E-05	3.67898941	-2.378487587	8.858013153	0.010299683	-0.006103516	-0.001764298	-0.690917969	0.643798828	-0.431640625	899.24	-15.15445965	-22.14123286	-136.725956	-63
2939	0	0.148193359	-0.095458984	0.35534668	0.999999046	-0.00012207	-0.000235558	0.000133514	3.704833984	-2.386474609	8.883666992	-0.006103516	-0.011777878	0.00667572	-0.690917969	0.643798828	-0.4375	899.36	-15.17495986	-22.15917763	-136.7078968	-63
2940	0	0.147847176	-0.096135139	0.355619431	0.999999046	-0.000117302	-7.82013E-05	0.000156403	3.69617939	-2.403378487	8.890485764	-0.005865097	-0.003910065	0.007820129	-0.693359375	0.646240234	-0.434570313	899.24	-15.19403097	-22.15905042	-136.6927527	-63
2941	0	0.145996094	-0.096252441	0.356811523	0.999999046	1.52588E-05	7.34329E-05	0.000137329	3.649902344	-2.406311035	8.920288086	0.000762939	0.003671646	0.006866455	-0.690917969	0.645996094	-0.434570313	899.18	-15.19518567	-22.14263641	-136.6825686	-63
2942	0	0.144818306	-0.096770287	0.357079506	0.999999046	0.000143051	-0.000249863	5.34058E-05	3.620457649	-2.419257164	8.926987648	0.007152557	-0.012493134	0.002670288	-0.691162109	0.646240234	-0.431640625	899.18	-15.18188179	-22.16435206	-136.6719517	-63
2943	0	0.148925781	-0.093811035	0.356506348	0.999999046	-0.0001297	-0.000483513	0.00018692	3.723144531	-2.345275879	8.912658691	-0.006484986	-0.024175645	0.009346009	-0.690917969	0.643798828	-0.4375	899.18	-15.20859052	-22.20796759	-136.6399411	-63
2944	0	0.150270462	-0.09658432	0.354992867	0.999999046	-0.000712395	-4.95911E-05	0.000423431	3.756761551	-2.414608002	8.874821663	-0.03561974	-0.002479554	0.021171572	-0.693603516	0.646240234	-0.431640625	899.22	-15.30745973	-22.19658345	-136.5965652	-63
2945	0	0.14855957	-0.100463867	0.354187012	0.999999046	-6.48499E-05	0.000260353	0.000350952	3.713989258	-2.51159668	8.854675293	-0.003242493	0.013017655	0.017547608	-0.691162109	0.6484375	-0.434814453	899.14	-15.3252193	-22.1531432	-136.5668613	-63
2946	0	0.144887924	-0.096950531	0.356568336	0.999999046	0.000270844	0.000169754	-7.62939E-06	3.622198105	-2.423763275	8.914208412	0.013542176	0.008487702	-0.00038147	-0.691162109	0.6484375	-0.431884766	899.18	-15.28946729	-22.13042976	-136.5772456	-63
2947	0	0.149719238	-0.096679688	0.355834961	0.999999046	-0.000183105	-7.53403E-05	3.43323E-05	3.742980957	-2.416992188	8.895874023	-0.009155273	-0.003767014	0.001716614	-0.690917969	0.643798828	-0.434570313	899.18	-15.31063489	-22.13365321	-136.5802749	-63
2948	0	0.15025425	-0.096453667	0.353822708	0.999999046	-0.000109673	0.000623703	0.000354767	3.756356239	-2.411341667	8.845567703	-0.005483628	0.031185153	0.017738344	-0.690917969	0.643798828	-0.431640625	899.18	-15.32917601	-22.05009319	-136.5702519	-63
2949	0	0.144226074	-0.097351074	0.356323242	0.999999046	-3.43323E-05	0.000554085	0.000347137	3.605651855	-2.433776855	8.908081055	-0.001716614	0.027704241	0.017356874	-0.688720703	0.648193359	-0.437988281	899.14	-15.33956919	-21.97431815	-136.550836	-63
2950	0	0.147119522	-0.097906113	0.356966972	0.999999046	-0.000188828	0.000156403	0.000250816	3.677988052	-2.447652817	8.924174309	-0.009441376	0.00782013	0.012540818	-0.688720703	0.648193359	-0.432128906	899.18	-15.36823697	-21.94542388	-136.5319349	-63
2951	0	0.146240234	-0.09753418	0.355834961	0.999999046	-9.91821E-05	0.000458717	0.000240326	3.656005859	-2.438354492	8.895874023	-0.004959107	0.022935868	0.012016297	-0.688720703	0.648193359	-0.432128906	899.28	-15.3824616	-21.88344888	-136.525564	-63
2952	0	0.145133018	-0.09834671	0.357047081	0.999999046	0.000123024	0.000421524	8.39233E-05	3.628325462	-2.458667755	8.926177025	0.0061512	0.021076203	0.004196167	-0.688964844	0.650634766	-0.432128906	899.14	-15.36476642	-21.83028531	-136.5340295	-63
2953	0	0.144287109	-0.098937988	0.357055664	0.999999046	6.86646E-05	8.4877E-05	5.72205E-05	3.607177734	-2.473449707	8.926391602	0.003433228	0.004243851	0.002861023	-0.688720703	0.650390625	-0.440917969	899.24	-15.35628955	-21.81505649	-136.5334581	-62
2954	0	0.147084236	-0.095793724	0.356360435	0.999999046	-2.67029E-05	0.000209808	0.00014019	3.677105904	-2.394843102	8.909010887	-0.001335144	0.010490418	0.007009506	-0.686279297	0.648193359	-0.435058594	899.3	-15.36080473	-21.78360037	-136.5286234	-62
2955	0	0.145935059	-0.097167969	0.357116699	0.999999046	-0.000213623	0.000279427	0.000225067	3.648376465	-2.429199219	8.92791748	-0.010681153	0.013971329	0.011253357	-0.686279297	0.650390625	-0.438232422	899.18	-15.38960549	-21.74190212	-136.5136818	-63
2956	0	0.144349098	-0.098301888	0.357032776	0.999999046	-0.000174522	0.000350952	3.05176E-05	3.608727455	-2.457547188	8.925819397	-0.00872612	0.017547608	0.001525879	-0.686523438	0.650390625	-0.435302734	899.14	-15.40450863	-21.69818317	-136.5256152	-63
2957	0	0.144958496	-0.097473145	0.356323242	0.999999046	-5.72205E-05	0.000344276	0.000190735	3.623962402	-2.436828613	8.908081055	-0.002861023	0.017213822	0.009536743	-0.683837891	0.648193359	-0.435302734	899.3	-15.41308381	-21.65035362	-136.5189953	-63
2958	0	0.1437006	-0.09750843	0.355494499	0.999999046	-8.39233E-05	0.000347137	0.000174522	3.592514992	-2.437710762	8.88736248	-0.004196167	0.017356873	0.00872612	-0.683837891	0.648193359	-0.438232422	899.34	-15.42396635	-21.60270006	-136.5150193	-63
2959	0	0.145446777	-0.099853516	0.356750488	0.999999046	-0.000133514	0.000382423	0.000236511	3.636169434	-2.496337891	8.918762207	-0.00667572	0.019121171	0.011825562	-0.686279297	0.650390625	-0.438232422	899.28	-15.44290566	-21.54932185	-136.5062124	-63
2960	0	0.143174171	-0.097698212	0.357626915	0.999999046	2.38419E-05	0.000482559	0.000225067	3.579354286	-2.442455292	8.940672874	0.001192093	0.024127961	0.011253357	-0.686279297	0.650390625	-0.438232422	899.2	-15.44206317	-21.48519968	-136.5033158	-63
2961	0	0.141296387	-0.097045898	0.358337402	0.999999046	-0.000228882	0.000416756	0.00037384	3.532409668	-2.426147461	8.958435059	-0.011444092	0.020837785	0.018692018	-0.681640625	0.650146484	-0.438476563	899.2	-15.47733626	-21.42369295	-136.4768092	-63
2962	0	0.142386436	-0.099698067	0.360057831	0.999999046	-0.000246048	0.000137329	0.00032711	3.559660912	-2.492451668	9.00144577	-0.012302399	0.006866455	0.016355515	-0.681396484	0.650146484	-0.44140625	899.24	-15.51589717	-21.39438636	-136.4474818	-63
2963	0	0.140930176	-0.099121094	0.358764648	0.999999046	-0.000247955	-0.000288963	0.000213623	3.523254395	-2.478027344	8.969116211	-0.012397767	-0.014448166	0.010681153	-0.681640625	0.65234375	-0.441650391	899.18	-15.55487725	-21.41550692	-136.4151838	-63
2964	0	0.143230438	-0.100031853	0.357288361	0.999999046	-0.000103951	-0.000303268	9.44138E-05	3.580760956	-2.500796318	8.932209015	-0.005197525	-0.015163422	0.004720688	-0.681640625	0.65234375	-0.441650391	899.24	-15.57242971	-21.44188114	-136.3964567	-63
2965	0	0.145629883	-0.099243164	0.355102539	0.999999046	-0.00012207	-3.33786E-05	5.34058E-05	3.64074707	-2.481079102	8.877563477	-0.006103516	-0.00166893	0.002670288	-0.684082031	0.652587891	-0.438476563	899.24	-15.58706028	-21.43989126	-136.3950343	-63
2966	0	0.142591476	-0.100078583	0.358852386	0.999999046	1.14441E-05	0.000169754	0.000225067	3.564786911	-2.501964569	8.971309662	0.000572205	0.008487702	0.011253357	-0.681640625	0.652587891	-0.438720703	899.18	-15.59138896	-21.41014256	-136.3775209	-63
2967	0	0.141784668	-0.098205566	0.358520508	0.999999046	8.01086E-05	4.29153E-05	0.000217438	3.544616699	-2.45513916	8.963012695	0.004005432	0.002145767	0.010871887	-0.681640625	0.654785156	-0.438720703	899.3	-15.58896395	-21.39456566	-136.3541453	-63
2968	0	0.141955376	-0.099492073	0.35873127	0.999999046	4.86374E-05	-0.000209808	0.000179291	3.548884392	-2.487301826	8.968281746	0.00243187	-0.010490418	0.008964539	-0.681640625	0.652587891	-0.435791016	899.24	-15.59153688	-21.40800194	-136.3308559	-63
2969	0	0.141845703	-0.099609375	0.357971191	0.999999046	-0.000179291	-0.000338554	3.05176E-05	3.546142578	-2.490234375	8.949279785	-0.008964539	-0.01692772	0.001525879	-0.681640625	0.65234375	-0.441650391	899.22	-15.61535888	-21.44017674	-136.3201637	-63
2970	0	0.141958237	-0.102248192	0.355945587	0.999999046	0.000146866	-0.000293732	-0.000153542	3.548955917	-2.556204796	8.898639679	0.007343292	-0.014686585	-0.007677078	-0.681640625	0.654785156	-0.441650391	899.2	-15.59344336	-21.4730426	-136.3277399	-63
2971	0	0.142089844	-0.099487305	0.356506348	0.999999046	0.000553131	-0.000151634	-0.000335693	3.552246094	-2.487182617	8.912658691	0.027656557	-0.007581711	-0.016784669	-0.681640625	0.652587891	-0.438720703	899.22	-15.51533725	-21.49576883	-136.3632001	-63
2972	0	0.142446518	-0.097777367	0.356204987	0.999999046	0.0002985	-0.000326157	-0.000286102	3.561162949	-2.444434166	8.905124664	0.014925004	-0.016307832	-0.014305115	-0.684082031	0.652587891	-0.435546875	899.28	-15.47059737	-21.53619298	-136.3889184	-63
2973	0	0.14453125	-0.098571777	0.357421875	0.999999046	0.000270844	-0.000372887	-0.000221252	3.61328125	-2.464294434	8.935546875	0.013542176	-0.018644334	-0.011062623	-0.684082031	0.652587891	-0.438476563	899.18	-15.43238093	-21.57982277	-136.4032176	-63
2974	0	0.142583847	-0.097338676	0.358405113	0.999999046	3.8147E-05	-0.000303268	-8.7738E-05	3.564596176	-2.433466911	8.960127831	0.001907349	-0.015163422	-0.004386902	-0.681640625	0.650146484	-0.438476563	899.3	-15.42573894	-21.6116104	-136.4034666	-63
2975	0	0.14276123	-0.09967041	0.356933594	0.999999046	0.000118256	-0.000349998	-0.000106812	3.569030762	-2.491760254	8.923339844	0.005912781	-0.017499924	-0.005340576	-0.684082031	0.650390625	-0.435302734	899.2	-15.4097183	-21.64908112	-136.4067962	-63
2976	0	0.144557953	-0.097419739	0.356549263	0.999999046	0.000136375	-0.000360489	-0.000119209	3.613948822	-2.435493469	8.913731575	0.006818772	-0.018024445	-0.005960465	-0.686279297	0.650390625	-0.438232422	899.18	-15.39116461	-21.68811747	-136.4126568	-63
2977	0	0.144287109	-0.097900391	0.356750488	0.999999046	3.8147E-05	-0.000224113	3.05176E-05	3.607177734	-2.447509766	8.918762207	0.001907349	-0.011205673	0.001525879	-0.683837891	0.650390625	-0.441162109	899.2	-15.3887891	-21.70752963	-136.4009713	-63
2978	0	0.143342972	-0.096966743	0.357364655	0.999999046	-9.53674E-05	-0.00025177	0.000228882	3.583574295	-2.424168587	8.934116364	-0.004768372	-0.012588501	0.011444092	-0.686523438	0.650390625	-0.435302734	899.22	-15.41072291	-21.72390321	-136.3700323	-63
2979	0	0.144042969	-0.098388672	0.357971191	0.999999046	-0.000209808	-0.000277519	0.000232697	3.601074219	-2.459716797	8.949279785	-0.010490418	-0.013875962	0.011634827	-0.684082031	0.650390625	-0.435302734	899.18	-15.44626476	-21.74294497	-136.3349644	-63
2980	0	0.143949509	-0.100619316	0.355772972	0.999999046	-0.000115395	-0.000247955	3.33786E-05	3.598737717	-2.515482903	8.894324303	-0.00576973	-0.012397766	0.00166893	-0.684082031	0.654785156	-0.438720703	899.14	-15.46198896	-21.76476651	-136.3169252	-63
2981	0	0.143920898	-0.098999023	0.356384277	0.999999046	7.62939E-05	-0.000258446	-2.28882E-05	3.598022461	-2.474975586	8.909606934	0.003814697	-0.012922287	-0.001144409	-0.686523438	0.652587891	-0.432617188	899.3	-15.45343552	-21.78942604	-136.3125304	-63
2982	0	0.1472826	-0.09808445	0.355223656	0.999999046	-4.57764E-05	-0.000295639	2.28882E-05	3.68206501	-2.452111244	8.880591393	-0.002288818	-0.014781952	0.001144409	-0.686523438	0.650390625	-0.432373047	899.24	-15.46135681	-21.81693174	-136.3045993	-63
2983	0	0.14630127	-0.097961426	0.355407715	0.999999046	-0.000141144	0.000187874	0.000202179	3.657531738	-2.449035645	8.885192871	-0.00705719	0.009393692	0.010108948	-0.686523438	0.652587891	-0.435546875	899.24	-15.48221044	-21.78563074	-136.2883873	-63
2984	0	0.143929482	-0.099097252	0.357691765	0.999999046	2.76566E-05	0.000123978	0.000114441	3.598237038	-2.477431297	8.942294121	0.001382828	0.006198883	0.005722046	-0.686523438	0.650390625	-0.435302734	899.14	-15.48064493	-21.7639933	-136.28453	-63
2985	0	0.143310547	-0.098937988	0.357116699	0.999999046	-8.39233E-05	-0.000227928	8.7738E-05	3.582763672	-2.473449707	8.92791748	-0.004196167	-0.011396408	0.004386902	-0.684082031	0.650390625	-0.435302734	899.26	-15.49500153	-21.78194954	-136.2687134	-63
2986	0	0.14516449	-0.097803116	0.355324745	0.999999046	-0.000150681	-0.000413895	0.000136375	3.629112244	-2.445077896	8.883118629	-0.007534027	-0.020694733	0.006818772	-0.686523438	0.652587891	-0.435546875	899.24	-15.52141548	-21.81898443	-136.24093	-63
2987	0	0.144592285	-0.100280762	0.354980469	0.999999046	-8.01086E-05	-0.000330925	8.39233E-05	3.614807129	-2.507019043	8.874511719	-0.004005432	-0.01654625	0.004196167	-0.686523438	0.650390625	-0.432373047	899.22	-15.53652616	-21.84845207	-136.2259125	-63
2988	0	0.145359993	-0.100545883	0.355782509	0.999999046	0.000144005	-0.000272751	-0.00011158	3.633999825	-2.513647079	8.894562721	0.007200241	-0.013637543	-0.005578995	-0.686523438	0.650390625	-0.429443359	899.22	-15.51667948	-21.87749424	-136.2352651	-63
2989	0	0.145874023	-0.098999023	0.356079102	0.999999046	0.000553131	-0.000178337	-0.00018692	3.646850586	-2.474975586	8.901977539	0.027656557	-0.008916855	-0.009346009	-0.684082031	0.650390625	-0.432617188	899.22	-15.44544436	-21.89841947	-136.2508832	-63
2990	0	0.146158218	-0.095928192	0.354301453	0.999999046	0.000175476	-0.000209808	-1.52588E-05	3.65395546	-2.398204803	8.857536316	0.008773804	-0.010490418	-0.000762939	-0.688964844	0.650634766	-0.432128906	899.22	-15.42538737	-21.91763632	-136.2511609	-63
2991	0	0.146911621	-0.099304199	0.356933594	0.999999046	-3.05176E-05	-8.67844E-05	9.91821E-05	3.672790527	-2.48260498	8.923339844	-0.001525879	-0.004339218	0.004959106	-0.688720703	0.648193359	-0.432128906	899.18	-15.43256965	-21.91980656	-136.2455776	-63
2992	0	0.14774704	-0.099477768	0.355680466	0.999999046	0.000210762	0.000173569	0.000105858	3.693675995	-2.486944199	8.892011642	0.010538101	0.008678436	0.005292893	-0.686523438	0.650390625	-0.435302734	899.22	-15.4092797	-21.89310447	-136.2406622	-63
2993	0	0.145446777	-0.098815918	0.358581543	0.999999046	0.000358582	0.000340462	8.39233E-05	3.636169434	-2.470397949	8.964538574	0.017929078	0.017023087	0.004196167	-0.686523438	0.650390625	-0.435302734	899.24	-15.36605504	-21.84856942	-136.2441056	-63
2994	0	0.143967628	-0.098158836	0.355026245	0.999999046	0.000167847	0.000146866	-6.48499E-05	3.599190712	-2.453970909	8.875656128	0.008392334	0.007343292	-0.003242493	-0.688720703	0.650390625	-0.437988281	899.22	-15.34051044	-21.82989135	-136.2612853	-63
2995	0	0.143005371	-0.09967041	0.356811523	0.999999046	0.000289917	-1.43051E-05	-0.000209808	3.575134277	-2.491760254	8.920288086	0.01449585	-0.000715256	-0.010490418	-0.688720703	0.650390625	-0.437988281	899.18	-15.29662213	-21.83328048	-136.2890011	-63
2996	0	0.143239021	-0.095984459	0.359120369	0.999999046	0.000264168	-0.000305176	-5.72205E-05	3.580975533	-2.399611473	8.978009224	0.01320839	-0.015258789	-0.002861023	-0.688720703	0.650390625	-0.437988281	899.14	-15.26584306	-21.86406112	-136.2879712	-63
2997	0	0.145446777	-0.096618652	0.35546875	0.999999046	-5.72205E-05	-0.000552177	-1.14441E-05	3.636169434	-2.415466309	8.88671875	-0.002861023	-0.027608873	-0.000572205	-0.686279297	0.648193359	-0.440917969	899.24	-15.27690132	-21.92079178	-136.2721568	-63
2998	0	0.150113106	-0.09879303	0.354314804	0.999999046	9.53674E-06	-0.000276566	-1.23978E-05	3.752827644	-2.469825745	8.857870102	0.000476837	-0.013828278	-0.000619888	-0.688720703	0.648193359	-0.435058594	899.24	-15.27703638	-21.94732119	-136.2693183	-63
2999	0	0.149108887	-0.095947266	0.356323242	0.999999046	0.000114441	0.000134468	5.72205E-05	3.727722168	-2.398681641	8.908081055	0.005722046	0.006723404	0.002861023	-0.686279297	0.648193359	-0.432128906	899.24	-15.26318059	-21.92646231	-136.268606	-63
3000	0	0.146743774	-0.097286224	0.35748291	0.999999046	-0.000126839	0.000247955	0.000189781	3.66859436	-2.432155609	8.937072754	-0.006341934	0.012397766	0.00948906	-0.686279297	0.648193359	-0.432128906	899.2	-15.28148557	-21.88907304	-136.2569992	-63
3001	0	0.144226074	-0.098327637	0.356811523	0.999999046	-0.000148773	-4.86374E-05	0.000183105	3.605651855	-2.458190918	8.920288086	-0.00743866	-0.00243187	0.009155274	-0.686523438	0.650390625	-0.435302734	899.3	-15.30564875	-21.88458476	-136.2334693	-63
3002	0	0.146056175	-0.097999573	0.357133865	0.999999046	-0.000160217	2.47955E-05	0.000221252	3.651404381	-2.449989319	8.928346634	-0.008010864	0.001239777	0.011062622	-0.688720703	0.6484375	-0.429199219	899.28	-15.33194383	-21.8708239	-136.2163154	-63
3003	0	0.146484375	-0.097717285	0.356628418	0.999999046	-0.000164032	-1.43051E-05	0.000141144	3.662109375	-2.442932129	8.915710449	-0.008201599	-0.000715256	0.00705719	-0.688720703	0.650634766	-0.435058594	899.18	-15.35559185	-21.8638449	-136.2033675	-63
3004	0	0.14494133	-0.098791122	0.356041908	0.999999046	-6.96182E-05	-4.00543E-05	9.05991E-05	3.623533249	-2.469778061	8.901047707	-0.003480911	-0.002002716	0.004529953	-0.688720703	0.650634766	-0.435058594	899.3	-15.36655018	-21.86121615	-136.1958145	-63
3005	0	0.14666748	-0.098999023	0.356628418	0.999999046	2.67029E-05	-0.000185966	8.01086E-05	3.666687012	-2.474975586	8.915710449	0.001335144	-0.009298325	0.004005432	-0.686523438	0.652832031	-0.4296875	899.22	-15.36783084	-21.87507167	-136.1784783	-63
3006	0	0.146967888	-0.096806526	0.355662346	0.999999046	-7.24792E-05	7.62939E-06	3.8147E-05	3.674197197	-2.420163155	8.891558647	-0.003623962	0.00038147	0.001907349	-0.688720703	0.650390625	-0.437988281	899.22	-15.37621634	-21.86889123	-136.178777	-63
3007	0	0.146484375	-0.098937988	0.354064941	0.999999046	-6.10352E-05	3.52859E-05	0.000205994	3.662109375	-2.473449707	8.851623535	-0.003051758	0.001764297	0.010299683	-0.686523438	0.650390625	-0.435302734	899.08	-15.39047751	-21.85462997	-136.1579601	-63
3008	0	0.146356583	-0.100323677	0.356442451	0.999999046	0.000130653	4.3869E-05	-1.90735E-05	3.658914566	-2.508091927	8.911061287	0.006532669	0.002193451	-0.000953674	-0.688964844	0.652832031	-0.435302734	899.14	-15.3728064	-21.84628467	-136.1633752	-63
3009	0	0.146484375	-0.096862793	0.35546875	0.999999046	8.01086E-05	8.58307E-06	3.05176E-05	3.662109375	-2.421569824	8.88671875	0.004005432	0.000429153	0.001525879	-0.688964844	0.650634766	-0.429443359	899.18	-15.36351069	-21.84039552	-136.1662752	-63
3010	0	0.147326469	-0.098463058	0.355546951	0.999999046	-0.000261307	1.14441E-05	0.000216484	3.683161736	-2.461576462	8.888673782	-0.013065338	0.000572205	0.010824204	-0.688720703	0.650634766	-0.435058594	899.2	-15.40157801	-21.82863573	-136.1469526	-63
3011	0	0.146728516	-0.098510742	0.355834961	0.999999046	-1.90735E-05	0.000199318	0.000305176	3.668212891	-2.462768555	8.895874023	-0.000953674	0.009965897	0.015258789	-0.686523438	0.650390625	-0.435302734	899.24	-15.41353278	-21.79347902	-136.1217571	-63
3012	0	0.145671844	-0.09910202	0.356925964	0.999999046	0.000100136	0.000341415	0.00031662	3.641796112	-2.477550507	8.923149109	0.00500679	0.017070771	0.015830994	-0.686523438	0.650390625	-0.435302734	899.18	-15.41061991	-21.74227761	-136.101415	-63
3013	0	0.141784668	-0.099060059	0.358093262	0.999999046	0.000247955	0.000107765	0.000125885	3.544616699	-2.476501465	8.952331543	0.012397766	0.00538826	0.006294251	-0.686523438	0.652587891	-0.435546875	899.14	-15.38520535	-21.72251348	-136.0925007	-63
3014	0	0.14418602	-0.096234322	0.356279373	0.999999046	-0.000120163	-0.000350952	6.86646E-05	3.604650497	-2.40585804	8.906984329	-0.006008148	-0.017547608	0.003433228	-0.684082031	0.650390625	-0.435302734	899.14	-15.40492122	-21.75515762	-136.0753021	-63
3015	0	0.149536133	-0.100158691	0.354858398	0.999999046	-0.000240326	-0.000124931	0.000270844	3.73840332	-2.503967285	8.871459961	-0.012016297	-0.006246567	0.013542176	-0.684082031	0.650390625	-0.435302734	899.18	-15.44470414	-21.75690336	-136.0425639	-63
3016	0	0.145970345	-0.100287437	0.356176376	0.999999046	4.29153E-05	0.000299454	0.000328064	3.649258614	-2.507185936	8.904409409	0.002145767	0.014972687	0.016403199	-0.684082031	0.650390625	-0.435302734	899.24	-15.4494689	-21.71005519	-136.0185856	-63
3017	0	0.143127441	-0.098815918	0.358093262	0.999999046	0.000213623	0.000374794	0.000110626	3.578186035	-2.470397949	8.952331543	0.010681153	0.018739701	0.005531311	-0.684082031	0.652587891	-0.432617188	899.24	-15.42417182	-21.66141093	-136.0201631	-63
3018	0	0.144669533	-0.098024368	0.357205391	0.999999046	7.82013E-05	6.48499E-05	0.0001297	3.616738319	-2.450609207	8.930134773	0.003910065	0.003242493	0.006484985	-0.686523438	0.652587891	-0.438476563	899.24	-15.41895844	-21.64642465	-136.0125302	-63
3019	0	0.144226074	-0.098449707	0.357910156	0.999999046	0.000156403	0.000126839	0.000179291	3.605651855	-2.461242676	8.947753906	0.007820129	0.006341934	0.008964539	-0.681640625	0.652587891	-0.435791016	899.22	-15.40618243	-21.62305312	-135.9946375	-63
3020	0	0.142391205	-0.098511696	0.357670784	0.999999046	0.00014019	-0.000120163	1.52588E-05	3.559780121	-2.462792397	8.9417696	0.007009506	-0.006008148	0.000762939	-0.684082031	0.652587891	-0.438476563	899.28	-15.39105403	-21.63186186	-135.9910758	-63
3021	0	0.143920898	-0.098327637	0.358032227	0.999999046	0.000148773	-0.000338554	-4.57764E-05	3.598022461	-2.458190918	8.950805664	0.00743866	-0.01692772	-0.002288818	-0.684082031	0.652587891	-0.438476563	899.18	-15.37487925	-21.6666193	-135.9866012	-64
3022	0	0.146552086	-0.097353935	0.356924057	0.999999046	2.28882E-05	-0.000312805	6.48499E-05	3.663802147	-2.433848381	8.923101425	0.001144409	-0.015640259	0.003242493	-0.684082031	0.650390625	-0.435302734	899.18	-15.37763093	-21.69527241	-135.973763	-63
3023	0	0.148742676	-0.100646973	0.35736084	0.999999046	6.10352E-05	4.29153E-05	0.00019455	3.718566895	-2.516174316	8.934020996	0.003051758	0.002145767	0.009727478	-0.686523438	0.652587891	-0.432617188	899.28	-15.37752941	-21.68084962	-135.9580504	-63
3024	0	0.14415741	-0.097669601	0.355980873	0.999999046	0.000264168	0.000356674	0.00020504	3.603935242	-2.441740036	8.899521828	0.01320839	0.01783371	0.010251999	-0.684082031	0.652587891	-0.438476563	899.14	-15.35080225	-21.63143475	-135.9476288	-63
3025	0	0.143615723	-0.099060059	0.356079102	0.999999046	0.000213623	0.0002985	0.000228882	3.590393066	-2.476501465	8.901977539	0.010681153	0.014925004	0.011444092	-0.684082031	0.652587891	-0.432617188	899.24	-15.331675	-21.58770331	-135.9343578	-64
3026	0	0.142501831	-0.098790169	0.358281136	0.999999046	0.000404358	0.000257492	5.34058E-05	3.562545776	-2.469754219	8.957028389	0.020217896	0.012874604	0.002670288	-0.683837891	0.650390625	-0.444091797	899.28	-15.28354679	-21.55371884	-135.9421823	-63
3027	0	0.142089844	-0.096618652	0.357971191	0.999999046	8.7738E-05	-0.000182152	5.72205E-05	3.552246094	-2.415466309	8.949279785	0.004386902	-0.00910759	0.002861023	-0.684082031	0.652587891	-0.435546875	899.2	-15.27704293	-21.5681252	-135.9328023	-63
3028	0	0.144650459	-0.099319458	0.359277725	0.999999046	0.000113487	-0.00015831	3.71933E-05	3.616261482	-2.48298645	8.98194313	0.005674362	-0.007915497	0.001859665	-0.683837891	0.650390625	-0.438232422	899.08	-15.26648885	-21.58049517	-135.929188	-63
3029	0	0.141906738	-0.096618652	0.35760498	0.999999046	0.000293732	-0.000441551	-0.000202179	3.547668457	-2.415466309	8.940124512	0.014686585	-0.022077562	-0.010108948	-0.681640625	0.652587891	-0.438720703	899.34	-15.22810894	-21.63129724	-135.9354952	-63
3030	0	0.146227837	-0.097693443	0.356006622	0.999999046	-3.05176E-05	-0.000471115	-0.000141144	3.655695915	-2.442336082	8.900165558	-0.001525879	-0.023555757	-0.00705719	-0.684082031	0.650390625	-0.435302734	899.26	-15.22993313	-21.68364093	-135.9403602	-63
3031	0	0.14654541	-0.097961426	0.356689453	0.999999046	0.000354767	-2.57492E-05	-2.67029E-05	3.663635254	-2.449035645	8.917236328	0.017738343	-0.00128746	-0.001335144	-0.684082031	0.650390625	-0.435302734	899.18	-15.18733848	-21.68338846	-135.94525	-63
3032	0	0.145043373	-0.096541405	0.356871605	0.999999046	0.00024128	6.86646E-05	0.000170708	3.626084328	-2.413535118	8.921790123	0.01206398	0.003433228	0.008535385	-0.686523438	0.652587891	-0.435546875	899.28	-15.16527228	-21.66679173	-135.9299638	-63
3033	0	0.144775391	-0.097290039	0.356872559	0.999999046	0.000259399	-9.05991E-05	9.91821E-05	3.619384766	-2.432250977	8.921813965	0.012969971	-0.004529953	0.004959107	-0.684082031	0.650390625	-0.435302734	899.34	-15.13990649	-21.66997137	-135.9179856	-63
3034	0	0.147140503	-0.096096992	0.356285095	0.999999046	0.000160217	0.000141144	0.000201225	3.678512573	-2.402424812	8.90712738	0.008010864	0.00705719	0.010061264	-0.686279297	0.650390625	-0.438232422	899.24	-15.12761119	-21.64460595	-135.9049683	-63
3035	0	0.144836426	-0.099060059	0.358398438	0.999999046	0.000106812	0.000271797	0.000179291	3.620910645	-2.476501465	8.959960938	0.005340576	0.013589859	0.008964539	-0.684082031	0.652587891	-0.438476563	899.3	-15.11902085	-21.60543018	-135.8923421	-63
3036	0	0.142227173	-0.097753525	0.357213974	0.999999046	0.000374794	0.000108719	-4.19617E-05	3.555679321	-2.44383812	8.93034935	0.018739701	0.005435944	-0.002098084	-0.684082031	0.652587891	-0.44140625	899.24	-15.07201828	-21.59080552	-135.8997179	-63
3037	0	0.143615723	-0.096801758	0.358764648	0.999999046	0.00018692	-0.000105858	-4.57764E-05	3.590393066	-2.420043945	8.969116211	0.009346008	-0.005292892	-0.002288818	-0.681640625	0.650146484	-0.438476563	899.2	-15.04891084	-21.59998234	-135.9009883	-63
3038	0	0.143029213	-0.096106529	0.357914925	0.999999046	4.95911E-05	-0.000232697	3.05176E-05	3.575730324	-2.402663231	8.947873116	0.002479553	-0.011634827	0.001525879	-0.683837891	0.650390625	-0.444091797	899.24	-15.04635948	-21.62086631	-135.8908208	-63
3039	0	0.146240234	-0.096496582	0.356933594	0.999999046	-0.000232697	-0.000201225	0.000171661	3.656005859	-2.412414551	8.923339844	-0.011634827	-0.010061264	0.008583069	-0.683837891	0.650390625	-0.441162109	899.3	-15.08199636	-21.63416823	-135.8659617	-63
3040	0	0.146289825	-0.098056793	0.357988358	0.999999046	0.000100136	0.00015831	0.000236511	3.657245636	-2.45141983	8.949708939	0.00500679	0.007915497	0.011825562	-0.683837891	0.650390625	-0.438232422	899.3	-15.07815842	-21.60582405	-135.8463696	-63
3041	0	0.144592285	-0.096191406	0.357849121	0.999999046	3.8147E-05	0.000256538	0.000144958	3.614807129	-2.404785156	8.946228027	0.001907349	0.01282692	0.007247925	-0.683837891	0.647949219	-0.441162109	899.3	-15.07623074	-21.56935303	-135.845484	-63
3042	0	0.142977715	-0.095778465	0.356830597	0.999999046	-4.76837E-05	0.000156403	0.000292778	3.574442863	-2.394461632	8.920764923	-0.002384186	0.00782013	0.014638901	-0.684082031	0.652587891	-0.44140625	899.2	-15.09173655	-21.53952227	-135.8173436	-63
3043	0	0.143859863	-0.09753418	0.358337402	0.999999046	-0.000297546	-0.000155449	0.000492096	3.596496582	-2.438354492	8.958435059	-0.01487732	-0.007772446	0.024604799	-0.684082031	0.652587891	-0.438476563	899.3	-15.14827827	-21.53820682	-135.7581387	-63
