Counter	Temperature	VelInc_X	VelInc_Y	VelInc_Z	OriInc_w	OriInc_x	OriInc_y	OriInc_z	Acc_X	Acc_Y	Acc_Z	Gyr_X	Gyr_Y	Gyr_Z	Mag_X	Mag_Y	Mag_Z	Pressure	Roll	Pitch	Yaw	RSSI
20953	0	-0.249267578	0.071411133	0.297973633	0.999999046	0.000244141	0.000412941	-9.91821E-05	-6.231689453	1.78527832	7.44934082	0.012207032	0.02064705	-0.004959107	0.241699219	0.270263672	-0.953857422	898.8	13.64195058	38.89158303	-128.2774959	-79
20954	0	-0.251174927	0.072909355	0.296631813	0.999999046	0.000694275	0.000377655	-0.000137329	-6.279373169	1.822733879	7.415795326	0.034713749	0.018882753	-0.006866456	0.243896484	0.270263672	-0.948242188	898.92	13.70839217	38.94695736	-128.2854977	-79
20955	0	-0.251281738	0.076660156	0.295776367	0.999999046	0.000385284	0.000355721	-0.000205994	-6.282043457	1.916503906	7.39440918	0.019264222	0.017786027	-0.010299683	0.241699219	0.268066406	-0.950927734	898.88	13.73304349	39.00183059	-128.3120786	-79
20956	0	-0.249936104	0.076295853	0.29535675	0.999999046	-0.000132561	0.000375748	-0.000237465	-6.248402596	1.907396317	7.383918762	-0.006628037	0.018787385	-0.011873246	0.244140625	0.268066406	-0.947998047	898.74	13.69615194	39.05979051	-128.338967	-79
20957	0	-0.25012207	0.073974609	0.297912598	0.999999046	-1.90735E-05	0.000309944	-0.000228882	-6.253051758	1.849365234	7.447814941	-0.000953674	0.015497208	-0.011444092	0.246582031	0.267822266	-0.948242188	898.82	13.67158829	39.11010834	-128.3656298	-79
20958	0	-0.250704765	0.069148064	0.297943115	0.999999046	0.000307083	0.000221252	-6.10352E-05	-6.267619133	1.728701591	7.448577881	0.015354157	0.011062622	-0.003051758	0.241699219	0.268066406	-0.953857422	898.8	13.69737763	39.14597491	-128.3811311	-78
20959	0	-0.251098633	0.069458008	0.297424316	0.999998093	0.001400948	0.00037384	0.000144958	-6.27746582	1.736450195	7.43560791	0.070047403	0.018692023	0.007247927	0.246582031	0.265625	-0.947998047	898.8	13.87040183	39.19320083	-128.3518077	-79
20960	0	-0.252152443	0.077440262	0.296104431	0.999998093	0.001333237	0.000393867	0.000258446	-6.303811073	1.936006546	7.402610779	0.066661857	0.019693381	0.012922291	0.249023438	0.263427734	-0.947998047	898.8	14.04681119	39.2394529	-128.3024152	-79
20961	0	-0.252197266	0.079162598	0.292785645	0.999999046	0.00056076	0.000313759	-8.01086E-05	-6.304931641	1.979064941	7.319641113	0.028038027	0.015687944	-0.004005432	0.246826172	0.261230469	-0.950439453	898.82	14.10258461	39.28624133	-128.3114921	-79
20962	0	-0.253247261	0.075787544	0.292602539	0.999999046	-0.000511169	0.000169754	-0.000248909	-6.331181526	1.894688606	7.315063477	-0.025558473	0.008487702	-0.012445451	0.246826172	0.261230469	-0.947509766	898.82	14.01697147	39.32184555	-128.3504023	-78
20963	0	-0.252746582	0.067382813	0.298522949	0.999999046	-0.000225067	0.000187874	-0.000152588	-6.318664551	1.684570313	7.46307373	-0.011253357	0.009393692	-0.007629395	0.249023438	0.263427734	-0.947998047	898.92	13.97277935	39.35673056	-128.3708045	-79
20964	0	-0.251294136	0.077060699	0.294007301	0.999999046	0.000674248	0.000278473	8.7738E-05	-6.282353401	1.926517487	7.350182533	0.03371239	0.013923646	0.004386902	0.249023438	0.263427734	-0.945068359	898.8	14.05584632	39.39499326	-128.3500627	-78
20965	0	-0.253051758	0.077026367	0.292053223	0.999999046	0.000160217	0.000332832	-0.000156403	-6.326293945	1.92565918	7.301330566	0.008010864	0.016641617	-0.00782013	0.249267578	0.260986328	-0.953613281	898.8	14.05920166	39.44617354	-128.3725714	-79
20966	0	-0.253148079	0.074355125	0.29350853	0.999999046	-5.53131E-05	1.90735E-06	1.43051E-05	-6.328701973	1.858878136	7.337713242	-0.002765656	9.53674E-05	0.000715256	0.251464844	0.263183594	-0.950927734	898.82	14.0458974	39.45585952	-128.3746725	-79
20967	0	-0.252075195	0.073547363	0.295593262	0.999999046	5.72205E-05	1.62125E-05	0.000156403	-6.301879883	1.838684082	7.389831543	0.002861023	0.000810623	0.007820129	0.251708984	0.260986328	-0.950683594	898.8	14.05875494	39.46312142	-128.3590194	-78
20968	0	-0.252916336	0.07256031	0.291853905	0.999999046	0.000395775	-2.47955E-05	3.8147E-06	-6.322908401	1.814007759	7.296347618	0.019788743	-0.001239777	0.000190735	0.249267578	0.263427734	-0.950927734	898.68	14.09544017	39.47016852	-128.3651954	-78
20969	0	-0.25402832	0.074157715	0.292541504	0.999999046	0.000171661	-0.000216484	0.000213623	-6.350708008	1.853942871	7.313537598	0.008583069	-0.010824204	0.010681153	0.249023438	0.263427734	-0.947998047	898.76	14.12124385	39.45015575	-128.3455041	-78
20970	0	-0.253502846	0.075098991	0.294395447	0.999999046	0.000123978	-0.000284195	0.000144958	-6.337571144	1.877474785	7.359886169	0.006198883	-0.014209748	0.007247925	0.249267578	0.263427734	-0.950927734	898.8	14.13377042	39.42455403	-128.3390124	-79
20971	0	-0.253540039	0.076049805	0.294616699	0.999999046	0.000125885	-0.000430107	0.000301361	-6.338500977	1.901245117	7.36541748	0.006294251	-0.021505357	0.015068055	0.249267578	0.258789063	-0.947509766	898.84	14.15750781	39.37837385	-128.3189534	-78
20972	0	-0.25159359	0.077251434	0.293105125	0.999999046	-5.81741E-05	-0.000400543	0.00025177	-6.289839745	1.931285858	7.327628136	-0.002908707	-0.020027161	0.012588501	0.249267578	0.260986328	-0.947753906	898.7	14.15646398	39.33685588	-128.3008941	-78
20973	0	-0.251464844	0.076049805	0.293212891	0.999999046	-0.000106812	-0.00033474	0.000137329	-6.286621094	1.901245117	7.330322266	-0.005340576	-0.016736985	0.006866455	0.249267578	0.260986328	-0.950683594	898.74	14.14102907	39.30586382	-128.2986341	-78
20974	0	-0.251674652	0.073797226	0.294068336	0.999999046	-0.000175476	-0.000341415	0.000232697	-6.291866302	1.844930649	7.351708412	-0.008773804	-0.017070771	0.011634827	0.246826172	0.261230469	-0.950439453	898.84	14.12619091	39.27147816	-128.285494	-78
20975	0	-0.251953125	0.073730469	0.294616699	0.999999046	0.000267029	-0.000353813	0.000347137	-6.298828125	1.843261719	7.36541748	0.013351441	-0.01769066	0.017356873	0.246826172	0.263427734	-0.953613281	898.76	14.17208362	39.23252835	-128.2535211	-78
20976	0	-0.251997948	0.0765028	0.29359436	0.999999046	0.00020504	-0.000411987	0.000366211	-6.299948692	1.91257	7.339859009	0.010251999	-0.020599366	0.018310548	0.244384766	0.261230469	-0.950439453	898.76	14.21132638	39.18661192	-128.2238076	-78
20977	0	-0.25201416	0.076721191	0.295471191	0.999999046	0.000400543	-0.000288963	0.000507355	-6.300354004	1.918029785	7.386779785	0.020027162	-0.014448167	0.025367739	0.246826172	0.261230469	-0.947509766	898.74	14.28858097	39.15035697	-128.1623293	-79
20978	0	-0.252315521	0.076541901	0.294701576	0.999999046	-3.24249E-05	-0.000564575	0.000514984	-6.307888031	1.913547516	7.367539406	-0.001621246	-0.028228763	0.025749209	0.247070313	0.258789063	-0.953369141	898.8	14.31053072	39.08329899	-128.1163246	-79
20979	0	-0.250671387	0.072692871	0.297790527	0.999999046	-9.91821E-05	-0.000491142	0.000583649	-6.266784668	1.817321777	7.444763184	-0.004959107	-0.024557116	0.029182437	0.249267578	0.260986328	-0.953613281	898.8	14.33236959	39.02237716	-128.0510912	-79
20980	0	-0.249556541	0.079456329	0.295244217	0.999999046	0.00051403	-0.000444412	0.000384331	-6.238913536	1.986408234	7.381105423	0.025701525	-0.022220614	0.019216539	0.244628906	0.259033203	-0.953125	898.92	14.40774244	38.97222342	-128.0187977	-79
20981	0	-0.251281738	0.080566406	0.293884277	0.999999046	-0.000301361	-0.000342369	0.000137329	-6.282043457	2.014160156	7.347106934	-0.015068055	-0.017118455	0.006866455	0.244628906	0.256591797	-0.955810547	898.84	14.37009416	38.94049256	-128.023908	-79
20982	0	-0.250691414	0.075695038	0.296421051	0.999999046	-0.000547409	-0.000427246	9.15527E-05	-6.267285347	1.892375946	7.410526276	-0.027370455	-0.021362306	0.004577637	0.244628906	0.259033203	-0.950195313	898.8	14.29816004	38.90065001	-128.0317626	-79
20983	0	-0.249633789	0.075317383	0.297912598	0.999999046	-9.91821E-05	-0.000361443	1.90735E-05	-6.240844727	1.88293457	7.447814941	-0.004959107	-0.018072129	0.000953674	0.244384766	0.261230469	-0.950439453	898.82	14.2725473	38.87010001	-128.0442387	-79
20984	0	-0.249111176	0.075939178	0.297070503	0.999999046	0.000248909	-0.000265121	0.000220299	-6.227779388	1.898479462	7.426762581	0.01244545	-0.013256073	0.011014939	0.244384766	0.261230469	-0.947509766	898.8	14.30700399	38.84451206	-128.0213188	-79
20985	0	-0.249267578	0.076599121	0.296630859	0.999999046	3.8147E-06	-0.000411034	0.000202179	-6.231689453	1.914978027	7.415771484	0.000190735	-0.020551682	0.010108948	0.239501953	0.261474609	-0.950195313	898.88	14.30842906	38.80321424	-128.0134166	-80
20986	0	-0.249298096	0.076580048	0.297018051	0.999999046	-0.000127792	-0.000389099	0.000183105	-6.232452393	1.91450119	7.425451279	-0.006389618	-0.019454957	0.009155274	0.244384766	0.261230469	-0.950439453	898.8	14.29357171	38.76487725	-128.0012156	-81
20987	0	-0.249389648	0.077087402	0.296203613	0.999999046	0.000171661	-0.000315666	0.000228882	-6.234741211	1.927185059	7.405090332	0.008583069	-0.01578331	0.011444092	0.2421875	0.259033203	-0.950195313	898.84	14.31882614	38.73342262	-127.9849336	-81
20988	0	-0.248495102	0.077425003	0.296822548	0.999999046	0.000271797	-0.00028801	0.000212669	-6.212377548	1.935625076	7.420563698	0.013589859	-0.014400483	0.010633469	0.2421875	0.261230469	-0.956054688	898.88	14.3547771	38.70547011	-127.9690793	-82
20989	0	-0.248352051	0.076843262	0.296875	0.999999046	0.000102997	-0.000365257	0.000289917	-6.20880127	1.921081543	7.421875	0.005149842	-0.018262864	0.01449585	0.2421875	0.259033203	-0.953125	898.8	14.37647405	38.66672717	-127.9454853	-82
20990	0	-0.248901367	0.07598877	0.298095703	0.999999046	4.57764E-05	-0.000278473	0.00018692	-6.22253418	1.899719238	7.452392578	0.002288818	-0.013923645	0.009346008	0.2421875	0.259033203	-0.950195313	898.8	14.3843445	38.64053431	-127.9308333	-87
20991	0	-0.248180389	0.076457977	0.299108505	0.999998093	0.0002985	-0.000314713	0.000165939	-6.204509735	1.911449432	7.477712631	0.014925004	-0.015735627	0.008296967	0.2421875	0.259033203	-0.947265625	898.82	14.41840962	38.61085051	-127.9170452	-83
20992	0	-0.247924805	0.077819824	0.297302246	0.999999046	0.000332832	-0.000350952	0.000263214	-6.198120117	1.945495605	7.432556152	0.016641618	-0.017547608	0.013160706	0.239746094	0.259277344	-0.947021484	898.8	14.46421741	38.57434623	-127.8917916	-87
20993	0	-0.24810791	0.078063965	0.296508789	0.999999046	0.000267029	-0.000311852	0.000244141	-6.202697754	1.951599121	7.412719727	0.013351441	-0.015592576	0.012207032	0.2421875	0.256835938	-0.952880859	898.82	14.50170781	38.54274378	-127.871083	-86
20994	0	-0.248291016	0.077148438	0.296936035	0.999999046	0.000160217	-0.000343323	0.000259399	-6.207275391	1.928710938	7.423400879	0.008010865	-0.017166138	0.012969971	0.239990234	0.256835938	-0.955566406	898.82	14.52753447	38.50724308	-127.8529827	-86
20995	0	-0.247070313	0.076171875	0.300354004	0.999999046	0.000179291	-0.00039959	0.000324249	-6.176757813	1.904296875	7.508850098	0.008964539	-0.019979478	0.016212464	0.2421875	0.256835938	-0.949951172	898.8	14.55979364	38.46353133	-127.8197375	-85
20996	0	-0.247375488	0.080627441	0.297729492	0.999999046	0.000447273	-0.000144958	0.000221252	-6.184387207	2.015686035	7.443237305	0.022363664	-0.007247925	0.011062623	0.2421875	0.256835938	-0.952880859	898.76	14.61964787	38.45099433	-127.7921763	-85
20997	0	-0.246826172	0.082214355	0.296936035	0.999999046	-0.000339508	-0.000315666	0.000133514	-6.170654297	2.055358887	7.423400879	-0.016975403	-0.015783311	0.00667572	0.239990234	0.256835938	-0.955566406	898.76	14.57795022	38.42203289	-127.7885959	-84
20998	0	-0.247070313	0.076965332	0.299072266	0.999999046	-0.000289917	-0.000362396	7.62939E-06	-6.176757813	1.924133301	7.476806641	-0.01449585	-0.018119813	0.00038147	0.237548828	0.254638672	-0.958251953	898.74	14.52971244	38.39148376	-127.8133815	-83
20999	0	-0.246765137	0.076660156	0.298522949	0.999999046	0.000232697	-0.000254631	0.000102997	-6.169128418	1.916503906	7.46307373	0.011634827	-0.012731552	0.005149841	0.237548828	0.259277344	-0.958496094	898.8	14.55211708	38.37012789	-127.8122669	-83
21000	0	-0.246887207	0.077758789	0.298950195	0.999999046	0.000218391	-0.000247955	0.000118256	-6.172180176	1.943969727	7.473754883	0.010919571	-0.012397766	0.005912781	0.237548828	0.256835938	-0.955566406	898.8	14.57432424	38.34905407	-127.8095539	-83
21001	0	-0.246520996	0.077331543	0.298339844	0.999999046	0.000137329	-0.000308037	0.00012207	-6.163024902	1.933288574	7.458496094	0.006866455	-0.015401841	0.006103516	0.237548828	0.254638672	-0.952392578	898.8	14.58613379	38.32120282	-127.808874	-83
21002	0	-0.247131348	0.077697754	0.299316406	0.999999046	0.00019455	-0.000263214	0.000164032	-6.178283691	1.942443848	7.482910156	0.009727478	-0.013160706	0.008201599	0.237548828	0.256835938	-0.958496094	898.84	14.60913645	38.29710672	-127.8002104	-82
21003	0	-0.246704102	0.078430176	0.296569824	0.999999046	0.000232697	-0.000296593	7.62939E-05	-6.167602539	1.960754395	7.414245605	0.011634827	-0.014829636	0.003814697	0.235107422	0.257080078	-0.952392578	898.8	14.62808125	38.27191163	-127.802639	-82
21004	0	-0.24621582	0.07824707	0.299377441	0.999999046	0.000264168	-0.000247955	0.000183105	-6.155395508	1.956176758	7.484436035	0.01320839	-0.012397766	0.009155274	0.235107422	0.254882813	-0.952148438	898.8	14.66103567	38.24898758	-127.7903132	-82
21005	0	-0.246337891	0.079040527	0.299865723	0.999999046	0.000255585	-0.000155449	9.91821E-05	-6.158447266	1.976013184	7.496643066	0.012779236	-0.007772446	0.004959107	0.237548828	0.252441406	-0.952148438	898.8	14.68776616	38.23871345	-127.7860883	-82
21006	0	-0.246337891	0.078430176	0.298522949	0.999999046	0.000110626	-0.000167847	0.000160217	-6.158447266	1.960754395	7.46307373	0.005531311	-0.008392334	0.008010864	0.237548828	0.254638672	-0.955322266	898.76	14.70289607	38.22530258	-127.7718905	-81
21007	0	-0.24597168	0.077697754	0.297912598	0.999999046	0.00037384	-0.000102043	0.000118256	-6.149291992	1.942443848	7.447814941	0.018692017	-0.005102158	0.005912781	0.237548828	0.254638672	-0.955322266	898.84	14.7459529	38.22042988	-127.7600746	-81
21008	0	-0.246276855	0.079467773	0.298095703	0.999999046	0.000317574	-0.000217438	0.000267029	-6.156921387	1.986694336	7.452392578	0.015878678	-0.010871888	0.013351441	0.235351563	0.252441406	-0.955078125	898.82	14.79289951	38.1984428	-127.7364909	-81
21009	0	-0.246520996	0.080505371	0.298400879	0.999999046	5.34058E-05	-0.000117302	0.000110626	-6.163024902	2.012634277	7.460021973	0.002670288	-0.005865097	0.005531311	0.235107422	0.254882813	-0.955078125	898.82	14.79829607	38.19213785	-127.7274841	-81
21010	0	-0.246276855	0.078063965	0.297729492	0.999999046	0.000202179	-0.000183105	0.000137329	-6.156921387	1.951599121	7.443237305	0.010108948	-0.009155274	0.006866455	0.235107422	0.254882813	-0.955078125	898.88	14.82146742	38.17781115	-127.7164087	-81
21011	0	-0.245666504	0.076477051	0.299621582	0.999999046	0.000171661	-0.000273705	0.000106812	-6.141662598	1.91192627	7.490539551	0.008583069	-0.013685227	0.005340576	0.232910156	0.252685547	-0.954833984	898.8	14.83617124	38.15432876	-127.7184153	-82
21012	0	-0.246337891	0.081237793	0.299255371	0.999999046	0.000393867	-8.01086E-05	1.90735E-05	-6.158447266	2.030944824	7.481384277	0.019693375	-0.004005432	0.000953674	0.235351563	0.250244141	-0.954833984	898.84	14.87324602	38.15486305	-127.7248693	-82
21013	0	-0.24621582	0.083129883	0.296691895	0.999999046	-0.000205994	-9.44138E-05	-1.52588E-05	-6.155395508	2.07824707	7.417297363	-0.010299683	-0.004720688	-0.000762939	0.237548828	0.254638672	-0.955322266	898.8	14.83849562	38.1548724	-127.7277887	-82
21014	0	-0.245910645	0.079345703	0.299621582	0.999999046	-0.000385284	-3.8147E-06	-5.72205E-05	-6.147766113	1.983642578	7.490539551	-0.019264222	-0.000190735	-0.002861023	0.232910156	0.252685547	-0.954833984	898.8	14.78158488	38.16612001	-127.7439361	-83
21015	0	-0.246398926	0.079956055	0.299072266	0.999999046	-0.000350952	-9.44138E-05	-0.000106812	-6.159973145	1.998901367	7.476806641	-0.017547608	-0.004720688	-0.005340576	0.235351563	0.250244141	-0.957763672	898.76	14.72222051	38.16877004	-127.7741598	-83
21016	0	-0.246032715	0.078613281	0.297851563	0.999999046	-0.000582695	0.000118256	-0.000106812	-6.150817871	1.965332031	7.446289063	-0.029134752	0.005912781	-0.005340576	0.235107422	0.254882813	-0.952148438	898.94	14.64112547	38.19500688	-127.788331	-84
21017	0	-0.246276855	0.077575684	0.299072266	0.999999046	-0.000576019	0.000172615	-8.7738E-05	-6.156921387	1.93939209	7.476806641	-0.028800966	0.008630753	-0.004386902	0.235107422	0.257080078	-0.955322266	898.8	14.56358258	38.22670949	-127.7993646	-84
21018	0	-0.24609375	0.077392578	0.299499512	0.999999046	-0.000450134	1.14441E-05	-0.0001297	-6.15234375	1.934814453	7.487487793	-0.022506715	0.000572205	-0.006484986	0.235107422	0.257080078	-0.958251953	898.76	14.49304298	38.24170547	-127.8261587	-85
21019	0	-0.246704102	0.078857422	0.299377441	0.999999046	-0.000545502	0.0001688	-0.000209808	-6.167602539	1.971435547	7.484436035	-0.027275087	0.008440018	-0.010490418	0.234863281	0.259277344	-0.949707031	898.84	14.40813457	38.27641672	-127.8522457	-86
21020	0	-0.24597168	0.077819824	0.299682617	0.999999046	-0.000525475	0.000164032	-0.000270844	-6.149291992	1.945495605	7.49206543	-0.026273729	0.0082016	-0.013542176	0.234863281	0.259277344	-0.949707031	898.84	14.3200103	38.31224574	-127.889819	-86
21021	0	-0.246276855	0.077514648	0.30090332	0.999999046	-0.000640869	0.000271797	-0.000282288	-6.156921387	1.937866211	7.522583008	-0.03204346	0.01358986	-0.014114381	0.234863281	0.261474609	-0.949951172	898.82	14.219986	38.36022876	-127.9251889	-86
21022	0	-0.24621582	0.07623291	0.300354004	0.999999046	-0.000682831	0.000263214	-0.000286102	-6.155395508	1.905822754	7.508850098	-0.034141544	0.013160707	-0.014305116	0.239501953	0.261474609	-0.950195313	898.8	14.11448502	38.40723571	-127.9589744	-87
21023	0	-0.247497559	0.073486328	0.300292969	0.999999046	-0.000400543	0.000321388	-0.000328064	-6.187438965	1.837158203	7.507324219	-0.020027162	0.016069413	-0.016403199	0.237060547	0.265869141	-0.953369141	898.84	14.03865137	38.46181312	-127.9980156	-88
21024	0	-0.247619629	0.076782227	0.29876709	0.999999046	-0.00014782	0.000270844	-0.000133514	-6.190490723	1.919555664	7.469177246	-0.007390976	0.013542176	-0.00667572	0.234863281	0.263916016	-0.952880859	898.8	14.00786332	38.50533091	-128.018483	-88
21025	0	-0.247131348	0.076843262	0.299438477	0.999999046	-0.000469208	0.000206947	-0.000331879	-6.178283691	1.921081543	7.485961914	-0.02346039	0.010347367	-0.016593934	0.237060547	0.266113281	-0.950439453	898.82	13.92132042	38.54715071	-128.0637814	-88
21026	0	-0.248168945	0.075683594	0.297668457	0.999999046	-0.000286102	0.000217438	-0.000198364	-6.204223633	1.892089844	7.441711426	-0.014305115	0.010871888	-0.009918213	0.239257813	0.268066406	-0.950683594	898.8	13.86782742	38.58644516	-128.0858874	-89
21027	0	-0.24798584	0.071044922	0.301086426	0.999999046	-0.000488281	0.000210762	-0.000289917	-6.199645996	1.776123047	7.527160645	-0.024414064	0.010538102	-0.01449585	0.236816406	0.268310547	-0.950683594	898.76	13.78257337	38.62741339	-128.1269477	-89
21028	0	-0.247741699	0.073242188	0.298828125	0.999999046	0.0004282	0.000263214	1.90735E-05	-6.19354248	1.831054688	7.470703125	0.021409989	0.013160706	0.000953674	0.239257813	0.268066406	-0.950683594	898.84	13.83089281	38.66572475	-128.1190022	-89
21029	0	-0.245851517	0.075639725	0.300522804	0.999950409	0.000634193	0.000452042	7.24792E-05	-6.146287918	1.890993118	7.513070107	0.031709674	0.022602084	0.003623963	0.239501953	0.265869141	-0.953369141	898.84	13.91184184	38.72338557	-128.1011685	-87
21030	0	-0.249157906	0.076431274	0.298484802	0.999999046	0.000492096	0.000425339	-1.71661E-05	-6.228947639	1.91078186	7.462120056	0.024604799	0.021266939	-0.000858307	0.241943359	0.263671875	-0.947509766	898.88	13.9681022	38.78051487	-128.0929168	-87
21031	0	-0.249694824	0.077880859	0.297363281	0.999999046	-0.000328064	0.000382423	-0.000450134	-6.242370605	1.947021484	7.434082031	-0.016403199	0.019121171	-0.022506716	0.239501953	0.263671875	-0.947509766	898.8	13.89089492	38.84482374	-128.1535735	-87
21032	0	-0.248768806	0.07434845	0.297832489	0.999999046	-0.000535011	0.000368118	-0.000325203	-6.219220161	1.858711243	7.445812225	-0.026750567	0.018405916	-0.016260149	0.241943359	0.265869141	-0.950683594	898.8	13.80070481	38.90400765	-128.1956909	-86
21033	0	-0.249816895	0.073242188	0.29675293	0.999999046	-0.000221252	0.00042057	-0.00031662	-6.245422363	1.831054688	7.418823242	-0.011062623	0.02102852	-0.015830995	0.241699219	0.268066406	-0.953857422	898.8	13.74825832	38.96877816	-128.2361547	-86
21034	0	-0.250784874	0.073195457	0.297062874	0.999999046	-0.000200272	0.000509262	-0.000240326	-6.269621849	1.829886436	7.426571846	-0.010013581	0.025463106	-0.012016297	0.241699219	0.265869141	-0.947753906	898.8	13.70692929	39.04135268	-128.2641999	-85
21035	0	-0.250671387	0.074157715	0.297729492	0.999999046	0.00030899	0.000451088	-0.000164032	-6.266784668	1.853942871	7.443237305	0.015449525	0.022554399	-0.0082016	0.244140625	0.268066406	-0.947998047	898.8	13.72957452	39.10534481	-128.2773512	-85
21036	0	-0.250296593	0.082316399	0.298307419	0.999999046	0.000124931	0.00056076	0.000212669	-6.257414818	2.057909966	7.457685471	0.006246567	0.028038027	0.010633469	0.246582031	0.265625	-0.947998047	898.8	13.76823781	39.17114696	-128.2343056	-84
21037	0	-0.250427246	0.069702148	0.291809082	0.999999046	-0.000595093	0.000664711	-0.000175476	-6.260681152	1.742553711	7.295227051	-0.029754643	0.033235555	-0.008773805	0.249023438	0.265625	-0.947998047	898.82	13.69132242	39.25922612	-128.2444391	-83
21038	0	-0.25047493	0.065358162	0.293812752	0.999999046	0.00038147	0.000415802	-0.000118256	-6.261873245	1.633954048	7.345318794	0.019073487	0.020790101	-0.005912781	0.248779297	0.270019531	-0.951416016	898.82	13.72550238	39.31811321	-128.2514297	-83
21039	0	-0.252075195	0.073791504	0.295654297	0.999999046	0.001026154	0.000336647	-0.000156403	-6.301879883	1.844787598	7.391357422	0.051307688	0.016832355	-0.007820131	0.248779297	0.267822266	-0.9453125	898.8	13.82840007	39.36923834	-128.2635818	-83
21040	0	-0.253029823	0.076696396	0.294350624	0.999999046	0.000498772	0.000436783	-9.63211E-05	-6.325745583	1.917409897	7.358765602	0.024938585	0.021839143	-0.004816056	0.249023438	0.267822266	-0.951171875	898.8	13.87886655	39.42991054	-128.2670791	-83
21041	0	-0.252624512	0.076477051	0.291870117	0.999999046	0.000102997	0.000264168	-0.000267029	-6.315612793	1.91192627	7.29675293	0.005149841	0.01320839	-0.013351441	0.251464844	0.267822266	-0.954345703	898.8	13.86468102	39.47614652	-128.3009762	-82
21042	0	-0.254713058	0.074570656	0.295931816	0.999999046	-0.000164032	0.000150681	-0.000264168	-6.367826462	1.864266396	7.398295403	-0.008201599	0.007534027	-0.01320839	0.251464844	0.263183594	-0.950927734	898.82	13.81757548	39.50968966	-128.3446758	-82
21043	0	-0.253295898	0.068115234	0.297119141	0.999999046	-0.000228882	0.000229836	-0.000144958	-6.332397461	1.702880859	7.427978516	-0.011444092	0.011491776	-0.007247925	0.25390625	0.267578125	-0.951416016	898.82	13.77534082	39.54872809	-128.3606443	-82
21044	0	-0.251927376	0.076268196	0.294596672	0.999999046	0.000781059	0.000427246	-0.000232697	-6.298184395	1.906704903	7.364916801	0.039052969	0.021362308	-0.011634828	0.251464844	0.265380859	-0.951171875	898.76	13.84542108	39.61205994	-128.3874815	-82
21045	0	-0.253601074	0.079650879	0.293273926	0.999999046	6.86646E-05	0.000432014	-1.14441E-05	-6.340026855	1.991271973	7.331848145	0.003433228	0.021600724	-0.000572205	0.251464844	0.265625	-0.948242188	898.8	13.8547832	39.66984934	-128.3806488	-81
21046	0	-0.253915787	0.073519707	0.291945457	0.999999046	-0.000549316	0.000261307	-0.00024128	-6.347894669	1.837992668	7.298636436	-0.027465822	0.013065339	-0.012063981	0.251464844	0.265380859	-0.951171875	898.8	13.76823404	39.71499625	-128.4184352	-81
21047	0	-0.253417969	0.070068359	0.293273926	0.999999046	-0.000457764	0.000149727	-0.000190735	-6.335449219	1.751708984	7.331848145	-0.022888185	0.007486344	-0.009536744	0.253662109	0.267578125	-0.948486328	898.84	13.69406731	39.74632074	-128.4470671	-81
21048	0	-0.254081726	0.070008278	0.292896271	0.999999046	0.000231743	2.67029E-05	7.62939E-05	-6.352043152	1.750206947	7.322406769	0.011587143	0.001335144	0.003814697	0.253662109	0.267822266	-0.945556641	898.84	13.720685	39.75672588	-128.4386235	-81
21049	0	-0.254577637	0.070495605	0.292114258	0.999999046	0.000183105	-0.000216484	0.000274658	-6.364440918	1.762390137	7.302856445	0.009155274	-0.010824204	0.013732911	0.256103516	0.267578125	-0.951660156	898.82	13.75448235	39.73473466	-128.4108408	-81
21050	0	-0.254593849	0.072634697	0.292869568	0.999999046	0.000127792	-0.000328064	0.000240326	-6.36484623	1.815867424	7.321739197	0.006389618	-0.016403199	0.012016297	0.253662109	0.267578125	-0.948486328	898.74	13.77622131	39.70129121	-128.3918387	-82
21051	0	-0.254638672	0.075317383	0.292114258	0.999999046	0.000305176	-0.000330925	0.00025177	-6.365966797	1.88293457	7.302856445	0.01525879	-0.01654625	0.012588502	0.253662109	0.267822266	-0.942626953	898.8	13.81943133	39.6672647	-128.3650722	-82
21052	0	-0.253368378	0.075867653	0.294066429	0.999999046	3.33786E-05	-0.000358582	0.000247955	-6.334209442	1.896691322	7.351660728	0.00166893	-0.017929078	0.012397767	0.251464844	0.265625	-0.9453125	898.8	13.83065738	39.63021012	-128.3472087	-82
21053	0	-0.253356934	0.07421875	0.293762207	0.999999046	3.43323E-05	-0.000460625	0.000263214	-6.33392334	1.85546875	7.344055176	0.001716614	-0.023031236	0.013160706	0.253662109	0.267578125	-0.948486328	898.84	13.84112248	39.58136619	-128.3260379	-83
21054	0	-0.253475189	0.073212624	0.294113159	0.999999046	9.53674E-06	-0.000457764	0.000228882	-6.33687973	1.83031559	7.352828979	0.000476837	-0.022888185	0.011444092	0.249023438	0.265625	-0.953857422	898.88	13.84562125	39.53378652	-128.3215378	-83
21055	0	-0.253051758	0.073913574	0.294006348	0.999999046	0.000179291	-0.000422478	0.000282288	-6.326293945	1.847839355	7.350158691	0.008964539	-0.021123887	0.014114381	0.251464844	0.265625	-0.948242188	898.8	13.8752745	39.48866673	-128.2994099	-84
21056	0	-0.252638817	0.075626373	0.294254303	0.999999046	0.000174522	-0.000448227	0.000255585	-6.315970421	1.890659332	7.356357574	0.00872612	-0.022411348	0.012779236	0.251464844	0.265380859	-0.954101563	898.84	13.90143998	39.44139191	-128.2849687	-84
21057	0	-0.253601074	0.076171875	0.292175293	0.999999046	0.000301361	-0.000597954	0.000267029	-6.340026855	1.904296875	7.304382324	0.015068056	-0.029897692	0.013351442	0.249267578	0.263427734	-0.950927734	898.76	13.93993076	39.37724037	-128.2753611	-85
21058	0	-0.252291679	0.073371887	0.296339035	0.999999046	-0.000579834	-0.000587463	0.000343323	-6.307291985	1.83429718	7.408475876	-0.028991703	-0.029373173	0.01716614	0.249023438	0.265625	-0.947998047	898.8	13.88454749	39.31211035	-128.2498368	-86
21059	0	-0.251525879	0.070373535	0.297973633	0.999999046	0.00037384	-0.000349998	0.000469208	-6.288146973	1.759338379	7.44934082	0.018692018	-0.017499925	0.02346039	0.246582031	0.265625	-0.947998047	898.8	13.95495149	39.2698421	-128.1991981	-86
21060	0	-0.251245499	0.079312325	0.294061661	0.999999046	0.000685692	-0.000310898	0.000239372	-6.281137466	1.982808113	7.351541519	0.034284595	-0.015544893	0.011968614	0.251464844	0.265380859	-0.951171875	898.8	14.04133913	39.23822393	-128.1735448	-86
21061	0	-0.251586914	0.077270508	0.29309082	0.999999046	-0.000118256	-0.000380516	0.000102997	-6.289672852	1.931762695	7.327270508	-0.005912781	-0.019025803	0.005149841	0.246826172	0.263427734	-0.950683594	898.76	14.02180044	39.20270252	-128.1782767	-87
21062	0	-0.251346588	0.074810028	0.296107292	0.999999046	-0.000244141	-0.00050354	0.000152588	-6.283664703	1.870250702	7.402682304	-0.012207032	-0.025177003	0.007629395	0.249267578	0.265625	-0.956787109	898.88	13.98954881	39.15210335	-128.1776458	-88
21063	0	-0.250549316	0.072998047	0.29675293	0.999999046	0.000156403	-0.000323296	0.000118256	-6.26373291	1.824951172	7.418823242	0.00782013	-0.01616478	0.005912781	0.246826172	0.263427734	-0.950683594	898.76	14.00402643	39.12245726	-128.1767874	-88
21064	0	-0.250976563	0.075622559	0.295837402	0.999999046	0.000279427	-0.000396729	0.00025177	-6.274414063	1.890563965	7.395935059	0.013971329	-0.019836427	0.012588502	0.246582031	0.265625	-0.950927734	898.8	14.04304237	39.0809368	-128.1547725	-90
21065	0	-0.251138687	0.076033592	0.295478821	0.999998093	-0.000163078	-0.000360489	0.000240326	-6.278467178	1.900839806	7.38697052	-0.008153916	-0.018024445	0.012016297	0.246582031	0.265625	-0.947998047	898.8	14.03117527	39.04378585	-128.1309886	-88
21066	0	-0.251344681	0.075966835	0.295181274	0.999999046	0.000125885	-0.000297546	0.00032711	-6.28361702	1.899170876	7.37953186	0.006294251	-0.01487732	0.016355515	0.246826172	0.263427734	-0.950683594	898.76	14.06170965	39.01127228	-128.0966037	-89
21067	0	-0.249633789	0.076599121	0.295227051	0.999999046	0.000190735	-0.000308037	0.000354767	-6.240844727	1.914978027	7.38067627	0.009536744	-0.015401841	0.017738343	0.244384766	0.263427734	-0.953613281	898.8	14.10198295	38.97679964	-128.06261	-89
21068	0	-0.249153137	0.077559471	0.294679642	0.999999046	1.04904E-05	-0.000377655	0.000278473	-6.22882843	1.938986778	7.366991043	0.000524521	-0.018882752	0.013923646	0.244384766	0.261230469	-0.950439453	898.8	14.11327659	38.93670463	-128.0423511	-89
21069	0	-0.249023438	0.07623291	0.296875	0.999999046	-0.00018692	-0.000414848	0.000209808	-6.225585938	1.905822754	7.421875	-0.009346009	-0.020742417	0.010490418	0.244384766	0.263427734	-0.950683594	898.8	14.09495242	38.89433918	-128.0297231	-90
21070	0	-0.249111176	0.073295593	0.298146248	0.999999046	2.28882E-05	-0.000295639	0.000201225	-6.227779388	1.832389832	7.453656197	0.001144409	-0.014781952	0.010061264	0.244140625	0.265625	-0.950683594	898.8	14.10240023	38.86541066	-128.0105204	-89
21071	0	-0.25	0.075866699	0.295776367	0.999999046	0.000396729	-0.000357628	0.000385284	-6.25	1.89666748	7.39440918	0.019836427	-0.017881395	0.019264223	0.244384766	0.261230469	-0.953369141	898.84	14.16775694	38.82448795	-127.9736702	-90
21072	0	-0.249546051	0.077940941	0.295466423	0.999999046	9.05991E-05	-0.000450134	0.000259399	-6.238651276	1.948523521	7.386660576	0.004529953	-0.022506715	0.012969971	0.2421875	0.261230469	-0.953125	898.74	14.18477517	38.77683904	-127.9594515	-90
21073	0	-0.249816895	0.076660156	0.29699707	0.999999046	6.48499E-05	-0.00045681	9.53674E-05	-6.245422363	1.916503906	7.424926758	0.003242493	-0.022840501	0.004768372	0.241943359	0.261230469	-0.950195313	898.82	14.18405978	38.73307998	-127.9659354	-90
21074	0	-0.248065948	0.071985245	0.298557281	0.999999046	0.000102997	-0.00038147	0.000258446	-6.201648712	1.799631119	7.463932037	0.005149841	-0.019073487	0.012922287	0.241943359	0.263427734	-0.956298828	898.84	14.20363732	38.69306938	-127.946345	-90
21075	0	-0.248046875	0.077819824	0.297790527	0.999999046	0.000709534	-0.000395775	0.000450134	-6.201171875	1.945495605	7.444763184	0.03547669	-0.019788745	0.022506717	0.239746094	0.261474609	-0.953125	898.76	14.30945988	38.64600102	-127.9005742	-91
21076	0	-0.24810791	0.080780029	0.29451561	0.999999046	0.000109673	-0.00043869	0.000202179	-6.202697754	2.019500732	7.362890244	0.005483628	-0.02193451	0.010108948	0.2421875	0.259033203	-0.950195313	898.82	14.3237666	38.60121077	-127.8888496	-91
21077	0	-0.248596191	0.076965332	0.297302246	0.999999046	-0.000247955	-0.000357628	0.000148773	-6.214904785	1.924133301	7.432556152	-0.012397767	-0.017881394	0.00743866	0.2421875	0.261230469	-0.956054688	898.8	14.29417721	38.56696201	-127.8825223	-91
21078	0	-0.247749329	0.076218605	0.299654007	0.999999046	-0.000162125	-0.000389099	6.77109E-05	-6.193733215	1.905465126	7.491350174	-0.008106232	-0.019454957	0.003385544	0.239746094	0.261474609	-0.953125	898.88	14.26646224	38.53144931	-127.8894811	-91
21079	0	-0.247497559	0.076477051	0.299377441	0.999999046	-0.000133514	-0.00032711	4.57764E-05	-6.187438965	1.91192627	7.484436035	-0.00667572	-0.016355515	0.002288818	0.239501953	0.261474609	-0.950195313	898.88	14.2414395	38.50338608	-127.8955309	-91
21080	0	-0.247173309	0.07629776	0.29821682	0.999999046	0.000191689	-0.000383377	0.000208855	-6.179332733	1.907444	7.455420494	0.009584427	-0.019168854	0.010442734	0.234863281	0.261474609	-0.949951172	898.82	14.26678761	38.46445822	-127.8850077	-91
21081	0	-0.247131348	0.07611084	0.299804688	0.999999046	0.000335693	-0.000403404	0.000156403	-6.178283691	1.902770996	7.495117188	0.016784669	-0.020170213	0.00782013	0.237304688	0.261474609	-0.952880859	898.84	14.30345152	38.42473669	-127.8795854	-91
21082	0	-0.247354507	0.077791214	0.298121452	0.999999046	0.00043869	-0.000457764	0.000330925	-6.183862686	1.94478035	7.453036308	0.021934511	-0.022888186	0.016546251	0.234863281	0.261474609	-0.949951172	898.8	14.36605825	38.3740423	-127.8502605	-91
21083	0	-0.246948242	0.077636719	0.298400879	0.999999046	0.000324249	-0.000330925	0.000247955	-6.173706055	1.940917969	7.460021973	0.016212464	-0.01654625	0.012397767	0.237304688	0.259277344	-0.952636719	898.76	14.41105815	38.33978024	-127.8285228	-91
21084	0	-0.246459961	0.077453613	0.29888916	0.999999046	0.000370979	-0.00037384	0.0001297	-6.161499023	1.936340332	7.472229004	0.018548966	-0.018692018	0.006484986	0.234863281	0.259277344	-0.949707031	898.84	14.4500008	38.30411027	-127.8244667	-91
21085	0	-0.246520996	0.077209473	0.29901123	0.999999046	0.000232697	-0.000201225	0.000137329	-6.163024902	1.930236816	7.475280762	0.011634827	-0.010061264	0.006866455	0.237304688	0.259277344	-0.952636719	898.76	14.47758407	38.2873762	-127.810928	-86
21086	0	-0.24609375	0.077148438	0.298828125	0.999999046	0.000400543	-0.000267029	5.34058E-05	-6.15234375	1.928710938	7.470703125	0.020027161	-0.013351441	0.002670288	0.237304688	0.259277344	-0.952636719	898.8	14.51547792	38.26574174	-127.8100844	-85
21087	0	-0.246643066	0.07800293	0.298583984	0.999999046	0.000392914	-0.00033474	0.00012207	-6.16607666	1.950073242	7.464599609	0.019645692	-0.016736985	0.006103516	0.235107422	0.257080078	-0.955322266	898.88	14.55693	38.23465327	-127.8082981	-90
21088	0	-0.24621582	0.078918457	0.299438477	0.999999046	0.000115395	-0.000164032	0.000144958	-6.155395508	1.972961426	7.485961914	0.00576973	-0.008201599	0.007247925	0.235107422	0.257080078	-0.958251953	898.8	14.57244468	38.22182442	-127.798452	-91
21089	0	-0.247131348	0.079162598	0.299072266	0.999999046	1.14441E-05	-0.000247002	4.95911E-05	-6.178283691	1.979064941	7.476806641	0.000572205	-0.012350083	0.002479553	0.232666016	0.254882813	-0.952148438	898.84	14.56584788	38.20257874	-127.8072042	-91
21090	0	-0.246276855	0.076965332	0.300109863	0.999999046	-0.000259399	-0.000190735	9.91821E-05	-6.156921387	1.924133301	7.502746582	-0.012969971	-0.009536743	0.004959107	0.234863281	0.257080078	-0.949462891	898.82	14.53368852	38.18813559	-127.7995324	-90
21091	0	-0.246459961	0.077819824	0.30090332	0.999999046	0.000118256	5.43594E-05	2.28882E-05	-6.161499023	1.945495605	7.522583008	0.005912781	0.002717972	0.001144409	0.232666016	0.257080078	-0.952392578	898.84	14.54361858	38.20304786	-127.7986723	-85
21092	0	-0.246384621	0.081215858	0.297559738	0.999988556	-0.000274658	0.000128746	-4.48227E-05	-6.159615517	2.030396461	7.438993454	-0.01373291	0.006437302	-0.002241135	0.234863281	0.259277344	-0.952636719	898.82	14.50447372	38.22819867	-127.8000305	-91
21093	0	-0.245910645	0.078125	0.299560547	0.999999046	-0.000682831	-3.71933E-05	-0.00012207	-6.147766113	1.953125	7.489013672	-0.034141543	-0.001859665	-0.006103516	0.237304688	0.259277344	-0.952636719	898.82	14.4080049	38.23711323	-127.8177585	-91
21094	0	-0.24621582	0.077819824	0.300415039	0.999999046	-0.000610352	5.72205E-05	-0.000190735	-6.155395508	1.945495605	7.510375977	-0.03051758	0.002861023	-0.009536744	0.237304688	0.259277344	-0.952636719	898.76	14.31590018	38.25838862	-127.8443925	-83
21095	0	-0.245727539	0.076416016	0.299865723	0.999999046	-0.000522614	6.96182E-05	-0.000198364	-6.143188477	1.910400391	7.496643066	-0.026130678	0.003480911	-0.009918213	0.237304688	0.259277344	-0.955566406	898.8	14.23334233	38.28118146	-127.8759878	-81
21096	0	-0.246398926	0.07598877	0.300048828	0.999999046	-0.00032711	0.000244141	-9.91821E-05	-6.159973145	1.899719238	7.501220703	-0.016355515	0.012207032	-0.004959107	0.234863281	0.261474609	-0.955810547	898.84	14.1856506	38.32052282	-127.8893692	-81
21097	0	-0.246459961	0.072814941	0.301696777	0.999999046	0.000366211	0.000206947	0.000419617	-6.161499023	1.820373535	7.542419434	0.018310548	0.010347367	0.020980836	0.234863281	0.261474609	-0.949951172	898.8	14.26185774	38.34107219	-127.8264614	-81
21098	0	-0.247680664	0.077697754	0.299316406	0.999999046	0.000492096	0.000217438	0.00025177	-6.192016602	1.942443848	7.482910156	0.024604799	0.010871888	0.012588502	0.237060547	0.263671875	-0.950195313	898.84	14.33807304	38.3674973	-127.7801105	-80
21099	0	-0.247741699	0.078308105	0.296569824	0.999999046	0.000343323	0.000393867	3.8147E-06	-6.19354248	1.957702637	7.414245605	0.017166138	0.019693376	0.000190735	0.237304688	0.261474609	-0.952880859	898.8	14.37955121	38.42062158	-127.7676615	-79
21100	0	-0.246948242	0.079650879	0.296936035	0.999999046	-0.000178337	0.000324249	-0.000152588	-6.173706055	1.991271973	7.423400879	-0.008916855	0.016212464	-0.007629395	0.237304688	0.259277344	-0.949707031	898.8	14.34606436	38.47048467	-127.7828937	-79
21101	0	-0.247070313	0.077941895	0.298522949	0.999999046	-0.000667572	0.00024128	-0.000423431	-6.176757813	1.948547363	7.46307373	-0.033378605	0.012063981	-0.021171572	0.239746094	0.261474609	-0.953125	898.8	14.23069463	38.51874759	-127.8385478	-79
21102	0	-0.246765137	0.075683594	0.299621582	0.999999046	-0.000797272	0.000286102	-0.000484467	-6.169128418	1.892089844	7.490539551	-0.039863593	0.014305117	-0.024223331	0.239746094	0.261474609	-0.953125	898.76	14.09582363	38.57352881	-127.9052442	-79
21103	0	-0.247097015	0.074308395	0.298236847	0.999988556	-0.000531197	0.000326157	-0.00041008	-6.177425385	1.857709885	7.455921173	-0.026559832	0.016307832	-0.020504	0.239257813	0.265869141	-0.947509766	898.84	13.99866023	38.63056423	-127.9531537	-89
21104	0	-0.24898243	0.076114655	0.297849655	0.999999046	-0.000323296	0.000198364	-0.00036335	-6.224560738	1.902866364	7.446241379	-0.01616478	0.009918213	-0.018167497	0.241699219	0.265869141	-0.947753906	898.84	13.92657862	38.67206306	-127.9980585	-86
21105	0	-0.24810791	0.076965332	0.297302246	0.999999046	-0.00056839	0.000302315	-0.000301361	-6.202697754	1.924133301	7.432556152	-0.028419497	0.015115739	-0.015068055	0.241699219	0.268066406	-0.950927734	898.76	13.83426653	38.72335322	-128.0323947	-85
21106	0	-0.247904778	0.075563431	0.295834541	0.999999046	-0.000507355	0.000152588	-0.000325203	-6.197619438	1.88908577	7.395863533	-0.025367738	0.007629395	-0.016260148	0.241699219	0.268066406	-0.950927734	898.8	13.74353938	38.75860263	-128.0779012	-89
21107	0	-0.247192383	0.077453613	0.296691895	0.999998093	-0.001338005	0.000152588	-0.000396729	-6.17980957	1.936340332	7.417297363	-0.066900275	0.007629397	-0.019836432	0.239257813	0.268066406	-0.950683594	898.8	13.55136147	38.79563171	-128.1417213	-90
21108	0	-0.248866081	0.069488525	0.302295685	0.999997139	-0.002209663	0.000318527	-0.000286102	-6.221652031	1.737213135	7.55739212	-0.110483263	0.015926375	-0.014305127	0.239257813	0.272705078	-0.951171875	898.8	13.27230812	38.84790445	-128.1859753	-91
21109	0	-0.249572754	0.073486328	0.301147461	0.999999046	-0.001102448	0.000710487	-0.000148773	-6.239318848	1.837158203	7.528686523	-0.055122391	0.035524379	-0.007438662	0.241455078	0.277099609	-0.951660156	898.76	13.14065469	38.94009842	-128.194066	-91
21110	0	-0.250684738	0.074958801	0.294365883	0.999998093	-0.001627922	0.000946999	-0.000252724	-6.267118454	1.873970032	7.359147072	-0.081396152	0.047349958	-0.012636192	0.240966797	0.281738281	-0.943115234	898.8	12.94444738	39.06148212	-128.2049628	-90
21111	0	-0.253723145	0.070068359	0.294494629	0.999996185	-0.002436638	0.000606537	8.39233E-05	-6.343078613	1.751708984	7.362365723	-0.121832022	0.030326875	0.004196171	0.245605469	0.283691406	-0.937744141	898.8	12.67876245	39.13644341	-128.1762566	-85
21112	0	-0.25285244	0.068595886	0.298065186	0.999995232	-0.00269413	0.00066185	0.000304222	-6.321310997	1.714897156	7.451629639	-0.134706672	0.033092542	0.015211125	0.245605469	0.288330078	-0.940917969	898.8	12.40456303	39.2122429	-128.1205989	-83
21113	0	-0.252380371	0.061035156	0.299194336	0.999997139	-0.001842499	0.001019478	0.000415802	-6.309509277	1.525878906	7.479858398	-0.09212501	0.050973931	0.020790116	0.247802734	0.292724609	-0.94140625	898.88	12.24483763	39.32553246	-128.0379714	-81
21114	0	-0.250509262	0.056951523	0.303168297	0.999998093	0.00023365	0.001414299	0.000406265	-6.262731552	1.423788071	7.57920742	0.011682515	0.070714977	0.02031327	0.252197266	0.297119141	-0.936279297	898.8	12.32962114	39.48310962	-127.9318555	-81
21115	0	-0.249084473	0.058776855	0.29888916	0.999996185	0.001793861	0.002033234	0.000366211	-6.227111816	1.469421387	7.472229004	0.089693181	0.101661809	0.01831057	0.252441406	0.294921875	-0.936035156	898.82	12.60249447	39.71052816	-127.8141463	-81
21116	0	-0.25408268	0.055252075	0.292534828	0.999991417	0.00323391	0.00202179	0.000922203	-6.352066994	1.38130188	7.313370705	0.161695895	0.101089737	0.046110272	0.259765625	0.287841797	-0.936035156	898.82	13.09302969	39.92211046	-127.6109113	-80
21117	0	-0.255432129	0.062316895	0.296447754	0.99998188	0.005558014	0.001763344	0.001422882	-6.385803223	1.557922363	7.411193848	0.277902364	0.08816772	0.071144531	0.262451172	0.283203125	-0.941650391	898.84	13.89327169	40.08980902	-127.335445	-79
21118	0	-0.265984535	0.061094284	0.304498672	0.999964714	0.007471085	0.003330231	0.001356125	-6.64961338	1.527357101	7.612466812	0.37355851	0.166513444	0.067807021	0.268066406	0.271728516	-0.946777344	898.76	14.94716442	40.43016278	-127.0065965	-79
21119	0	-0.25390625	0.052246094	0.285949707	0.999932289	0.010681152	0.003525734	0.002838135	-6.34765625	1.306152344	7.148742676	0.534069596	0.176290652	0.141909921	0.2734375	0.255859375	-0.948730469	898.84	16.52155073	40.74064865	-126.4379366	-79
21120	0	-0.260573387	0.064250946	0.291373253	0.999911308	0.012543678	0.003381729	0.002853394	-6.514334679	1.606273651	7.284331322	0.627202409	0.169091443	0.142673885	0.281738281	0.232910156	-0.947265625	898.82	18.31659843	41.02258796	-125.8531522	-79
21121	0	-0.258056641	0.081115723	0.302368164	0.99987793	0.014138222	0.00435257	0.005023956	-6.451416016	2.027893066	7.559204102	0.706939847	0.217637333	0.251208035	0.292724609	0.205566406	-0.954345703	898.8	20.5427863	41.3111593	-124.8921532	-79
21122	0	-0.271404266	0.094166756	0.293905258	0.999844551	0.014017105	0.006401062	0.008489609	-6.785106659	2.354168892	7.347631454	0.700891416	0.320069614	0.424502339	0.303466797	0.176025391	-0.952392578	898.84	23.17428384	41.63974522	-123.3048983	-78
21123	0	-0.286987305	0.099853516	0.288452148	0.999844551	0.012821198	0.008133888	0.008953094	-7.174682617	2.496337891	7.211303711	0.641093076	0.406715475	0.447677909	0.317138672	0.144042969	-0.959228516	898.82	25.81082842	42.07358652	-121.5297178	-79
21124	0	-0.349258423	0.138092995	0.272397995	0.99975872	0.014994621	0.009336472	0.013048172	-8.731460571	3.452324867	6.809949875	0.749791338	0.466861108	0.65246105	0.337646484	0.111816406	-0.954589844	898.74	29.16625455	42.34665003	-119.0611032	-84
21125	0	-0.403991699	0.176208496	0.27520752	0.999795914	0.007836342	0.008850098	0.016376495	-10.09979248	4.405212402	6.880187988	0.391843736	0.442534973	0.818880448	0.360839844	0.074951172	-0.947021484	898.82	31.99333133	42.28335836	-116.1756297	-80
21126	0	-0.497894287	0.122563362	0.279844284	0.999657631	-0.004796982	0.006513596	0.024861336	-12.44735718	3.064084053	6.996107101	-0.239876423	0.325716892	1.243208442	0.378417969	0.056396484	-0.943603516	898.84	33.93433577	41.38582634	-112.4321746	-70
21127	0	-0.402404785	0.084716797	0.261047363	0.999567032	-0.001250267	0.006336212	0.028690338	-10.06011963	2.117919922	6.526184082	-0.062522366	0.316856291	1.43472376	0.393066406	0.046875	-0.940673828	898.8	36.45226688	40.11685641	-108.3317609	-69
21128	0	-0.325339317	0.106250763	0.227851868	0.999398232	0.014746666	0.008056641	0.030338287	-8.133482933	2.656269073	5.696296692	0.737481187	0.402912828	1.517218619	0.408935547	0.014892578	-0.935791016	898.82	40.83393829	38.70387595	-104.0439326	-76
21129	0	-0.306945801	0.13482666	0.186828613	0.99936676	0.011170387	0.009788513	0.03232193	-7.67364502	3.370666504	4.670715332	0.558637213	0.48952893	1.616437499	0.422851563	-0.037109375	-0.920654297	898.74	44.80985986	37.05046315	-99.61477809	-75
21130	0	-0.274346352	0.169304848	0.166126251	0.999444008	0.005661011	0.00749588	0.031965256	-6.858658791	4.232621193	4.153156281	0.283102928	0.374863379	1.598558617	0.439208984	-0.080322266	-0.914794922	898.82	47.74599929	35.04177763	-95.68743689	-71
21131	0	-0.259521484	0.183410645	0.151977539	0.999274254	-0.005432129	0.002724648	0.037578583	-6.488037109	4.585266113	3.799438477	-0.271672085	0.1362653	1.879383221	0.4453125	-0.114257813	-0.909423828	898.82	49.16965403	32.07300484	-91.94153211	-73
21132	0	-0.224597931	0.159408569	0.176726341	0.998757362	-0.015580177	-0.002828598	0.047237396	-5.614948273	3.985214233	4.418158531	-0.779331491	-0.141488474	2.362847977	0.431640625	-0.131835938	-0.907226563	898.94	49.27668917	27.81015415	-88.09679123	-69
21133	0	-0.178283691	0.188720703	0.178955078	0.998959541	-0.001972198	-0.006655693	0.045063019	-4.457092285	4.718017578	4.473876953	-0.098644122	-0.332900063	2.253932337	0.417724609	-0.144775391	-0.9140625	898.76	50.36938854	23.42172896	-84.95606166	-66
21134	0	-0.146595001	0.248929024	0.172442436	0.998765945	-0.004206657	-0.008486748	0.048739433	-3.664875031	6.223225594	4.311060905	-0.210419387	-0.424511931	2.437974069	0.388183594	-0.179931641	-0.915283203	898.74	50.96051931	18.53333433	-81.8693929	-66
21135	0	-0.109558105	0.25604248	0.159545898	0.998886108	-0.006991386	-0.007923126	0.045974731	-2.738952637	6.401062012	3.988647461	-0.349699102	-0.396303388	2.299590002	0.353027344	-0.201171875	-0.920410156	898.82	50.92760707	13.91758444	-79.05266345	-63
21136	0	-0.045752525	0.255766869	0.163913727	0.998847961	-0.014892578	-0.010239601	0.044448853	-1.143813133	6.394171715	4.09784317	-0.744914934	-0.512176719	2.223296314	0.319824219	-0.208984375	-0.9296875	898.84	49.71285871	9.292789863	-76.54947848	-66
21137	0	0.0078125	0.298522949	0.198242188	0.998770714	-0.027339935	-0.008135796	0.040534973	0.1953125	7.46307373	4.956054688	-1.367557112	-0.406956527	2.027579444	0.283447266	-0.198730469	-0.934326172	898.76	46.89638897	5.244212145	-74.03813638	-66
21138	0	0.003032684	0.293068886	0.181306839	0.998760223	-0.028605461	-0.009675026	0.039560318	0.075817108	7.326722145	4.532670975	-1.430864155	-0.48395122	1.978833368	0.253173828	-0.1640625	-0.944335938	898.76	43.77040563	1.277102768	-71.53188898	-69
21139	0	0.011962891	0.292541504	0.165893555	0.998856544	-0.026874542	-0.013190269	0.037265778	0.299072266	7.313537598	4.147338867	-1.344239366	-0.659764893	1.863999201	0.225341797	-0.125	-0.957763672	898.82	40.68584456	-2.67855915	-69.26516925	-69
21140	0	0.053242683	0.27152729	0.207890511	0.998641014	-0.037745476	-0.016584396	0.03185463	1.331067085	6.788182259	5.197262764	-1.888128661	-0.829595427	1.593452931	0.192138672	-0.078857422	-0.968505859	898.76	36.25171234	-6.407210664	-67.43874226	-73
21141	0	0.082763672	0.192321777	0.282653809	0.998258591	-0.048480034	-0.016921997	0.029018402	2.069091797	4.808044434	7.066345215	-2.425409308	-0.846591183	1.451762652	0.157958984	-0.008056641	-0.97265625	898.8	30.47487398	-9.829521704	-65.55071718	-65
21142	0	0.111117363	0.121034622	0.28485775	0.998455048	-0.044766426	-0.020642281	0.025629044	2.777934074	3.025865555	7.121443748	-2.239474518	-1.032645788	1.2821124	0.129882813	0.080566406	-0.97265625	898.8	25.06104596	-13.26969478	-63.85184767	-61
21143	0	0.124572754	0.10736084	0.340454102	0.998512268	-0.041464806	-0.026081085	0.023914337	3.114318848	2.684020996	8.511352539	-2.07426841	-1.304700947	1.19630982	0.094970703	0.162841797	-0.966064453	898.74	19.95353914	-17.06260755	-62.23464466	-60
21144	0	0.131976128	0.058560371	0.368179321	0.998737335	-0.036907196	-0.025856972	0.022173882	3.299403191	1.464009285	9.204483032	-1.846136475	-1.29339272	1.109160702	0.057617188	0.240722656	-0.949951172	898.8	15.22091075	-20.64018562	-60.4633455	-63
21145	0	0.155395508	0.025878906	0.370422363	0.998996735	-0.030989647	-0.022773743	0.022941589	3.884887695	0.646972656	9.260559082	-1.550000681	-1.139068049	1.147463191	0.022949219	0.309570313	-0.930419922	898.76	10.88069529	-23.7636866	-58.22363089	-65
21146	0	0.183064461	-0.026287079	0.369664192	0.999105453	-0.030632973	-0.017968178	0.022927284	4.576611519	-0.657176971	9.241604805	-1.532105152	-0.898676666	1.146705892	0.003173828	0.366699219	-0.904785156	898.82	6.315344037	-26.18234772	-55.61265059	-69
21147	0	0.221313477	-0.037780762	0.348144531	0.999350548	-0.025230408	-0.014826775	0.021018982	5.532836914	-0.944519043	8.703613281	-1.261793497	-0.741499225	1.051176621	-0.006835938	0.421142578	-0.882568359	898.76	2.267888225	-28.05028281	-53.00142555	-65
21148	0	0.204634666	-0.050741196	0.337231636	0.999303818	-0.027433395	-0.014910698	0.020390511	5.115866661	-1.268529892	8.430790901	-1.371987897	-0.745707807	1.019761984	-0.009277344	0.466552734	-0.851074219	898.8	-2.159716667	-29.75674239	-50.28565382	-64
21149	0	0.224182129	-0.05279541	0.329956055	0.99937439	-0.025519371	-0.017215729	0.017398834	5.604553223	-1.319885254	8.248901367	-1.2762346	-0.860965918	0.870123101	-0.014404297	0.516357422	-0.825683594	898.88	-6.346179717	-31.57420905	-47.76903017	-69
21150	0	0.22143364	-0.063986778	0.342645645	0.999417305	-0.023281097	-0.0175457	0.017746925	5.535840988	-1.599669456	8.566141129	-1.164280974	-0.877455405	0.887518624	-0.019287109	0.559570313	-0.793945313	898.76	-10.47604031	-33.26473673	-45.02274061	-81
21151	0	0.21484375	-0.065368652	0.339660645	0.999567032	-0.020632744	-0.014450073	0.015151978	5.37109375	-1.634216309	8.491516113	-1.031785822	-0.722607755	0.757708026	-0.023681641	0.595703125	-0.767578125	898.82	-14.21424183	-34.50999491	-42.55254876	-76
21152	0	0.206904411	-0.117890358	0.286047935	0.999474525	-0.023684502	-0.01319313	0.017720222	5.172610283	-2.947258949	7.151198387	-1.184432226	-0.659771911	0.886166104	-0.023193359	0.627441406	-0.735107422	898.82	-18.58765665	-35.38632472	-39.659428	-68
21153	0	0.197937012	-0.141357422	0.290405273	0.999491692	-0.017616272	-0.013712883	0.022720337	4.948425293	-3.533935547	7.260131836	-0.880962611	-0.685760144	1.136209032	-0.015625	0.661376953	-0.700195313	898.88	-22.75463027	-35.93618577	-35.99110716	-63
21154	0	0.20044899	-0.127420425	0.268992424	0.999524117	-0.015733719	-0.013679504	0.022693634	5.011224747	-3.185510635	6.7248106	-0.786810513	-0.684083526	1.134861376	-0.000244141	0.685546875	-0.677001953	898.76	-26.76135635	-36.26908648	-32.26562299	-61
21155	0	0.214416504	-0.137268066	0.225341797	0.999545097	-0.014011383	-0.015505791	0.021724701	5.360412598	-3.43170166	5.633544922	-0.700675299	-0.775407003	1.086399626	0.015380859	0.705566406	-0.658935547	898.76	-30.61388204	-36.63261256	-28.49769623	-59
21156	0	0.206664085	-0.132386208	0.197796822	0.999481201	-0.015457153	-0.019783974	0.020132065	5.166602135	-3.30965519	4.94492054	-0.772991127	-0.989369505	1.006777067	0.025878906	0.725585938	-0.631835938	898.82	-34.77258423	-37.29606478	-24.54237264	-59
21157	0	0.184143066	-0.196716309	0.278503418	0.999332428	-0.026247978	-0.017051697	0.018817902	4.60357666	-4.917907715	6.962585449	-1.312690839	-0.852774487	0.941104372	0.036621094	0.745605469	-0.604980469	898.76	-40.00380902	-37.53793933	-20.89715501	-60
21158	0	0.14068222	-0.247853279	0.23508358	0.999320984	-0.020163536	-0.01526165	0.026779175	3.517055511	-6.196331978	5.8770895	-1.008404893	-0.763255144	1.339261666	0.051513672	0.776855469	-0.567382813	898.82	-44.93113429	-36.74985026	-16.5819788	-59
21159	0	0.079040527	-0.233093262	0.199951172	0.998960495	-0.016875267	-0.014797211	0.039653778	1.976013184	-5.827331543	4.998779297	-0.844055588	-0.740116785	1.983375607	0.086425781	0.791748047	-0.535644531	898.84	-49.97430927	-34.53494125	-11.26903246	-58
21160	0	0.05791378	-0.201892853	0.147902489	0.998745918	-0.013875008	-0.014520645	0.045848846	1.447844505	-5.04732132	3.697562218	-0.694040405	-0.726335776	2.293400681	0.143310547	0.798828125	-0.515869141	898.84	-54.51354622	-31.38049107	-5.872493072	-58
21161	0	0.032531738	-0.287353516	0.103393555	0.998371124	-0.014727592	-0.020027161	0.05134201	0.813293457	-7.183837891	2.584838867	-0.736779571	-1.001901897	2.568494788	0.208007813	0.794433594	-0.492919922	898.82	-59.12858799	-27.68538871	0.032014076	-61
21162	0	0.083482742	-0.396127701	0.047063828	0.997664452	-0.015205383	-0.025058746	0.061690331	2.087068558	-9.90319252	1.176595688	-0.760861498	-1.253913493	3.086919703	0.280761719	0.780761719	-0.480957031	898.8	-63.68040889	-22.81770149	6.560801845	-65
21163	0	0.153686523	-0.580566406	-0.000976563	0.99601078	-0.025024414	-0.031062126	0.079818726	3.842163086	-14.51416016	-0.024414063	-1.252887073	-1.555174727	3.996251388	0.361083984	0.755615234	-0.471679688	898.9	-69.02106142	-15.81912511	13.91006189	-64
21164	0	0.257135391	-0.5259552	-0.041830063	0.995912552	-0.026226044	-0.020430565	0.083979607	6.428384781	-13.14888	-1.045751572	-1.313091649	-1.022922269	4.204710457	0.461425781	0.707275391	-0.458496094	898.82	-73.17074832	-7.432080678	19.35825048	-64
21165	0	0.286376953	-0.379272461	0.054443359	0.996364594	-0.055880547	0.008808136	0.063682556	7.159423828	-9.481811523	1.361083984	-2.797417173	0.440941121	3.18799094	0.561767578	0.656738281	-0.424804688	898.8	-79.67131641	-0.083952751	20.09629212	-62
21166	0	0.128509521	-0.767737389	0.106843948	0.996594429	-0.064496994	0.021390915	0.04669857	3.212738037	-19.19343472	2.671098709	-3.228514781	1.070761297	2.337582187	0.65234375	0.634277344	-0.322509766	898.8	-87.1974017	5.520041362	18.26842859	-63
21167	0	0.331054688	-0.878417969	-0.064453125	0.993005753	0.109642982	0.043640137	0.00353241	8.276367188	-21.96044922	-1.611328125	5.494965185	2.187107889	0.177033383	0.697753906	0.614990234	-0.264892578	898.88	-75.1555145	6.669855081	13.3394867	-66
21168	0	0.045537949	-0.126583099	0.24851799	0.998222351	-0.0187397	0.024729729	0.050883293	1.138448715	-3.164577484	6.212949753	-0.937540575	1.237219575	2.54567315	0.748535156	0.525146484	-0.324707031	898.9	-77.57253318	12.98537842	11.93703344	-75
21169	0	-0.20501709	-0.300537109	0.053771973	0.992245674	-0.12216568	0.012673378	0.01902771	-5.125427246	-7.513427734	1.344299316	-6.124120227	0.635311738	0.953852044	0.813232422	0.4921875	-0.231689453	898.82	-91.95145719	15.27272398	10.64697658	-85
21170	0	-0.16796875	-0.444824219	-0.135375977	0.980980873	-0.194011688	2.28882E-05	-0.005867004	-4.19921875	-11.12060547	-3.384399414	-9.762552376	0.00115172	-0.29522416	0.835693359	0.510742188	-0.062011719	898.8	-114.3178559	14.60182422	10.79727047	-74
21171	0	-0.285644531	-0.715332031	0.023071289	0.991043091	-0.131541252	-0.02299118	-0.000431061	-7.141113281	-17.88330078	0.576782227	-6.596768043	-1.153003197	-0.021617614	0.820068359	0.514892578	0.134765625	898.8	-128.8334805	15.93032219	13.14609654	-79
21172	0	0.221408844	-0.565797806	-0.131933212	0.988466263	-0.143749237	-0.041239738	0.02383709	5.5352211	-14.14494514	-3.298330307	-7.215220679	-2.06995056	1.19645756	0.840576172	0.458496094	0.199707031	898.74	-144.9664116	21.22306479	14.45453244	-71
21173	0	-0.042358398	-0.479919434	-0.391296387	0.984934807	-0.166461945	0.000409126	0.046821594	-1.058959961	-11.99798584	-9.782409668	-8.365145068	0.020559658	2.352906721	0.878173828	0.333984375	0.272460938	898.82	-166.1532003	23.36993913	9.171118946	-70
21174	0	-0.297958374	-0.425053596	-0.409042358	0.990255356	-0.122700691	-0.023634911	0.061472893	-7.448959351	-10.62633991	-10.22605896	-6.155039073	-1.185598848	3.083666873	0.90234375	0.131347656	0.358398438	898.84	176.5854101	26.69176916	1.71992619	-85
21175	0	-0.057617188	-0.27532959	-0.454284668	0.995722771	-0.010486603	-0.049799919	0.077098846	-1.440429688	-6.883239746	-11.3571167	-0.525078811	-2.493551328	3.86044665	0.932861328	-0.047851563	0.304443359	898.9	170.1780288	31.34209942	-9.052389858	-74
21176	0	-0.159981728	0.14176178	-0.459101677	0.995792389	0.007520676	-0.057759285	0.07073307	-3.99954319	3.544044495	-11.47754192	0.376561969	-2.892020752	3.541621186	0.937988281	-0.187988281	0.222412109	898.82	164.840765	36.0578993	-20.26588649	-72
21177	0	-0.115783691	0.138671875	-0.303161621	0.99256897	-0.080843925	-0.078491211	0.04592514	-2.894592285	3.466796875	-7.579040527	-4.052237933	-3.934309974	2.3019614	0.928710938	-0.307861328	0.095458984	898.96	148.7309575	42.26888912	-31.04623206	-85
21178	0	-0.040522575	0.048212051	-0.144666672	0.990309715	-0.109916687	-0.081487656	0.023759842	-1.013064384	1.205301285	-3.616666794	-5.513655307	-4.087594497	1.191844314	0.901855469	-0.375976563	-0.113769531	898.84	127.8956803	47.45708956	-42.64256591	-66
21179	0	-0.102783203	0.142700195	-0.024963379	0.995758057	-0.072180748	-0.051834106	0.023849487	-2.569580078	3.567504883	-0.624084473	-3.614149027	-2.595376061	1.194163316	0.852294922	-0.369140625	-0.319580078	898.8	112.4849983	48.09102857	-52.28342698	-75
21180	0	-0.177923203	0.329913139	0.087890625	0.996987343	-0.060233116	-0.038362503	0.030254364	-4.448080063	8.247828484	2.197265625	-3.014683212	-1.920053308	1.514238829	0.794189453	-0.365722656	-0.439453125	898.8	100.0346576	45.99884476	-59.8659268	-81
21181	0	-0.137939453	0.383850098	0.172729492	0.998761177	-0.047725677	-0.010939598	0.008857727	-3.448486328	9.596252441	4.318237305	-2.387269663	-0.547205865	0.443069312	0.749023438	-0.344482422	-0.526611328	898.84	93.20035831	45.13998682	-61.79053669	-69
21182	0	-0.124767303	0.273686409	0.118260384	0.999353409	-0.035887718	0.00096035	0.001685143	-3.119182587	6.842160225	2.95650959	-1.794772433	0.048027845	0.084275275	0.73828125	-0.306152344	-0.558349609	898.8	89.20890732	44.94527092	-61.62550115	-69
21183	0	-0.043151855	0.211120605	0.107421875	0.999593735	-0.027407646	-0.007194519	-0.002902985	-1.078796387	5.278015137	2.685546875	-1.370567691	-0.359774615	-0.145168866	0.739501953	-0.268066406	-0.576416016	898.88	85.23300183	45.23263907	-62.80399316	-74
21184	0	-0.126927376	0.279441833	0.146164894	0.999604225	-0.024338722	-0.010093689	-0.009815216	-3.173184395	6.986045837	3.654122353	-1.217096519	-0.504750972	-0.490825492	0.728759766	-0.231933594	-0.605224609	898.82	81.12735586	46.20191262	-64.63651587	-81
21185	0	-0.301391602	0.539123535	0.196777344	0.999001503	-0.035755157	-0.016192436	-0.021305084	-7.534790039	13.47808838	4.919433594	-1.788352698	-0.809891189	-1.065608644	0.722412109	-0.182617188	-0.632324219	898.82	74.50381172	48.1778705	-68.06633196	-77
21186	0	-0.219555855	0.331142426	0.198347092	0.998984337	-0.038217545	-0.017417908	-0.016277313	-5.48889637	8.278560638	4.958677292	-1.911523986	-0.87119015	-0.814141124	0.704833984	-0.101074219	-0.664550781	898.92	67.26243489	49.26125621	-71.85787529	-72
21187	0	-0.327331543	0.253051758	0.141540527	0.999203682	-0.030654907	-0.002570152	-0.025382996	-8.183288574	6.326293945	3.538513184	-1.53315199	-0.128541706	-1.269486478	0.692626953	-0.028808594	-0.684570313	898.82	61.89432233	51.73699106	-74.24926641	-69
21188	0	-0.31391716	0.130861282	0.095119476	0.999433517	-0.028549194	-0.012253761	-0.012885094	-7.847929001	3.271532059	2.377986908	-1.427728986	-0.612803639	-0.644376214	0.684570313	0.043212891	-0.690185547	898.84	56.09138756	52.25772812	-77.44807765	-70
21189	0	-0.255737305	0.17175293	0.140930176	0.999718666	-0.016132355	-0.010378838	-0.013881683	-6.393432617	4.293823242	3.523254395	-0.806693131	-0.518990384	-0.694149043	0.668457031	0.091064453	-0.705078125	898.82	51.74876104	52.820901	-80.57816551	-72
21190	0	-0.366312027	0.155488968	0.187923431	0.999907494	-0.005205154	0.001504898	-0.012461662	-9.157800674	3.887224197	4.698085785	-0.260265731	0.075247219	-0.623102292	0.654785156	0.129638672	-0.713378906	898.88	50.100541	54.01809737	-81.87735107	-73
21191	0	-0.428527832	0.186401367	0.106018066	0.999993324	0.002529144	0.000908852	-0.002300262	-10.7131958	4.66003418	2.65045166	0.126457478	0.045442676	-0.115013362	0.656494141	0.145263672	-0.711914063	898.84	50.25210864	54.27181441	-82.03798411	-74
21192	0	-0.336006165	0.209042549	0.110756874	0.999954224	-0.008781433	-0.003350258	-0.001728058	-8.400154114	5.226063728	2.768921852	-0.439078339	-0.167515443	-0.086404208	0.656494141	0.145263672	-0.711914063	898.88	48.65169751	54.15830589	-82.76325377	-75
21193	0	-0.31829834	0.155883789	0.150024414	0.999913216	-0.012214661	-0.002688408	-0.004085541	-7.957458496	3.897094727	3.750610352	-0.610750655	-0.134424274	-0.204282933	0.6484375	0.165771484	-0.707275391	898.76	46.48670723	54.28266354	-83.69943889	-77
21194	0	-0.33405304	0.133682251	0.152539253	0.999976158	-0.005163193	0.00094986	-0.004289627	-8.351325989	3.342056274	3.813481331	-0.258161615	0.047493345	-0.214482997	0.645019531	0.186279297	-0.706054688	898.82	45.51329718	54.70056717	-84.16085636	-78
21195	0	-0.34765625	0.129333496	0.129821777	0.999985695	0.002815247	0.000138283	-0.004379272	-8.69140625	3.233337402	3.245544434	0.140762965	0.00691417	-0.218964613	0.646972656	0.195068359	-0.706787109	898.82	45.33826938	55.06092651	-84.76089725	-79
21196	0	-0.337862015	0.144551277	0.137454033	0.999979019	0.005599976	-0.002612114	-0.001644135	-8.446550369	3.613781929	3.436350822	0.280000687	-0.130606588	-0.082207286	0.644775391	0.192871094	-0.709472656	898.82	45.47409266	54.97863333	-85.36963173	-79
21197	0	-0.323608398	0.134277344	0.162841797	0.999991417	-0.001430511	-0.003500938	0.001197815	-8.090209961	3.356933594	4.071044922	-0.071525761	-0.17504738	0.059890904	0.640136719	0.190917969	-0.71484375	898.74	45.02956335	54.59347389	-85.70458485	-77
21198	0	-0.307424545	0.134616852	0.183207512	0.999980927	0.004496574	-0.002818108	0.003027916	-7.685613632	3.365421295	4.580187798	0.224830119	-0.140906257	0.15139674	0.635498047	0.188720703	-0.720214844	898.82	45.54874281	54.11453872	-85.68960675	-75
21199	0	-0.30078125	0.149475098	0.190368652	0.999933243	0.010819435	-0.000701904	0.003871918	-7.51953125	3.736877441	4.759216309	0.540983707	-0.03509599	0.193600163	0.633789063	0.175292969	-0.721923828	898.82	47.11059545	53.73241286	-85.27908389	-74
21200	0	-0.29846859	0.166294098	0.18066597	0.99985981	0.016066551	0.001296997	0.004495621	-7.461714745	4.157352448	4.516649246	0.803365057	0.064852881	0.224791528	0.635009766	0.150390625	-0.728759766	898.88	49.54692214	53.44024358	-84.52717551	-73
21201	0	-0.302978516	0.190917969	0.164672852	0.999822617	0.017800331	0.002086639	0.005664825	-7.574462891	4.772949219	4.116821289	0.890068971	0.104338115	0.283257953	0.636230469	0.12109375	-0.729248047	898.82	52.3642208	53.08002261	-83.54440372	-73
21202	0	-0.300333977	0.2056036	0.156440735	0.999837875	0.016737938	0.002440453	0.006051064	-7.508349419	5.140089989	3.911018372	0.836941918	0.122029193	0.302569453	0.642333984	0.091552734	-0.732910156	898.82	55.10376669	52.67900297	-82.50149203	-72
21203	0	-0.302001953	0.205993652	0.149414063	0.999864578	0.015278816	0.002922058	0.005233765	-7.550048828	5.149841309	3.735351563	0.763975113	0.146109465	0.261699982	0.6484375	0.060058594	-0.727783203	898.84	57.6330926	52.35739381	-81.50713655	-73
21204	0	-0.305923462	0.222432137	0.129033089	0.999882698	0.014561653	0.003423691	0.0031147	-7.648086548	5.560803413	3.225827217	0.72811099	0.171191201	0.155741076	0.649902344	0.032958984	-0.731445313	898.84	59.95822706	52.24746309	-80.66680672	-73
21205	0	-0.312988281	0.233886719	0.10534668	0.999957085	0.008739471	0.002778053	0.000839233	-7.824707031	5.847167969	2.633666992	0.436979748	0.138904627	0.041962263	0.657714844	0.010253906	-0.721191406	898.76	61.36487297	52.31174855	-80.14454028	-73
21206	0	-0.318079948	0.219258308	0.100561142	0.999996185	0.00234127	0.000458717	0.000814438	-7.951998711	5.48145771	2.514028549	0.117063646	0.022935892	0.040721936	0.660644531	0.001220703	-0.720458984	898.84	61.73750806	52.24757611	-80.00372894	-73
21207	0	-0.313964844	0.215881348	0.113342285	0.999999046	-0.00112915	-0.000540733	0.000404358	-7.849121094	5.397033691	2.833557129	-0.056457536	-0.027036675	0.020217901	0.660644531	-0.000976563	-0.720214844	898.82	61.55370909	52.17062292	-80.06418541	-73
21208	0	-0.312382698	0.209756851	0.121417046	0.999998093	-0.001642227	-0.000151634	-0.000476837	-7.809567451	5.24392128	3.03542614	-0.082111399	-0.007581715	-0.02384187	0.660644531	0.001220703	-0.720458984	898.84	61.29934521	52.20396975	-80.13947852	-73
21209	0	-0.305786133	0.20501709	0.123535156	0.999999046	-1.52588E-05	-1.43051E-05	-0.000270844	-7.64465332	5.125427246	3.088378906	-0.000762939	-0.000715256	-0.013542175	0.660644531	0.003417969	-0.723632813	898.82	61.26304926	52.22438934	-80.17461891	-73
21210	0	-0.303149223	0.208205223	0.123855591	0.999998093	0.001692772	0.000260353	0.000285149	-7.578730583	5.205130577	3.096389771	0.084638638	0.013017661	0.014257438	0.662841797	0.003417969	-0.720703125	898.82	61.49709192	52.20408947	-80.1132867	-73
21211	0	-0.306518555	0.21685791	0.123168945	0.999997139	0.002010345	0.000416756	0.000240326	-7.662963867	5.421447754	3.079223633	0.100517345	0.020837799	0.012016305	0.660644531	0.001220703	-0.720458984	898.88	61.78447235	52.19657303	-80.03101633	-72
21212	0	-0.305171967	0.218341827	0.119718552	0.999999046	0.001214027	0.000402451	-1.62125E-05	-7.629299164	5.458545685	2.992963791	0.060701387	0.020122534	-0.000810623	0.660644531	-0.000976563	-0.720214844	898.82	61.9609452	52.21390232	-79.97399403	-73
21213	0	-0.30670166	0.21484375	0.117919922	0.999999046	0.000659943	0.000329018	-7.24792E-05	-7.667541504	5.37109375	2.947998047	0.032997134	0.016450883	-0.003623963	0.663085938	-0.003417969	-0.717285156	898.82	62.06053742	52.23299067	-79.933206	-72
21214	0	-0.309008598	0.214038849	0.118227959	0.999999046	-3.8147E-06	0.000173569	-0.000123024	-7.725214958	5.350971222	2.955698967	-0.000190735	0.008678436	-0.006151199	0.663085938	-0.003417969	-0.714355469	898.94	62.06019918	52.24901714	-79.92210391	-72
21215	0	-0.307983398	0.211791992	0.11920166	0.999999046	9.91821E-05	0.000290871	-0.00038147	-7.699584961	5.294799805	2.980041504	0.004959107	0.014543534	-0.019073487	0.663085938	-0.001220703	-0.717529297	898.88	62.06883007	52.29771755	-79.91506511	-73
21216	0	-0.307480812	0.210176468	0.11824894	0.999999046	0.000674248	0.000522614	-8.39233E-05	-7.687020302	5.254411697	2.956223488	0.033712391	0.026130679	-0.004196168	0.660888672	-0.003417969	-0.720214844	898.84	62.19421008	52.32893745	-79.84568808	-73
21217	0	-0.309265137	0.20690918	0.118286133	0.999998093	0.001603127	0.000709534	0.00043869	-7.731628418	5.172729492	2.95715332	0.08015637	0.035476704	0.021934521	0.665527344	-0.003417969	-0.717529297	898.9	62.48639472	52.31728651	-79.69748323	-73
21218	0	-0.308751106	0.21535778	0.113556862	0.999997139	0.001974106	0.000444412	0.000427246	-7.718777657	5.383944511	2.838921547	0.098705362	0.022220627	0.02136232	0.665771484	-0.008056641	-0.719970703	898.84	62.78544921	52.29253262	-79.59562611	-72
21219	0	-0.309326172	0.216430664	0.112854004	0.999999046	0.000648499	0.000226021	0.000205994	-7.733154297	5.410766602	2.821350098	0.03242493	0.011301042	0.010299683	0.663330078	-0.010253906	-0.713867188	898.82	62.88886388	52.2788462	-79.54865826	-72
21220	0	-0.308189392	0.216948509	0.11298275	0.999999046	7.15256E-05	-8.58307E-05	-4.19617E-05	-7.704734802	5.42371273	2.824568748	0.003576279	-0.004291534	-0.002098084	0.668212891	-0.012451172	-0.713867188	898.84	62.86841569	52.27424066	-79.57392007	-72
21221	0	-0.307556152	0.213745117	0.114685059	0.999999046	-3.05176E-05	0.000126839	-0.000244141	-7.688903809	5.34362793	2.867126465	-0.001525879	0.006341934	-0.012207031	0.665771484	-0.008056641	-0.714111328	898.8	62.85053261	52.30153292	-79.58090088	-72
21222	0	-0.307811737	0.212306023	0.114620209	0.999999046	0.000314713	-7.62939E-06	1.14441E-05	-7.695293427	5.307650566	2.865505219	0.015735626	-0.00038147	0.000572205	0.668212891	-0.010253906	-0.714111328	898.9	62.87160012	52.29594824	-79.58848271	-72
21223	0	-0.310546875	0.214538574	0.115783691	0.999999046	-0.000164032	-4.48227E-05	-6.10352E-05	-7.763671875	5.363464355	2.894592285	-0.008201599	-0.002241135	-0.003051758	0.668212891	-0.010253906	-0.719970703	898.76	62.82783316	52.29600931	-79.61026578	-72
21224	0	-0.307999611	0.212753296	0.116552353	0.999999046	9.44138E-05	0.000221252	-0.000137329	-7.699990273	5.318832397	2.913808823	0.004720688	0.011062622	-0.006866455	0.665771484	-0.010253906	-0.713867188	898.82	62.84335264	52.31792546	-79.59369394	-72
21225	0	-0.307128906	0.211547852	0.114074707	0.999999046	0.000873566	0.000374794	3.8147E-05	-7.678222656	5.288696289	2.851867676	0.04367829	0.018739703	0.001907349	0.668212891	-0.010253906	-0.717041016	898.84	62.98022617	52.33014718	-79.53658373	-72
21226	0	-0.308174133	0.21176815	0.112863541	0.999998093	0.001723289	0.00061512	0.000156403	-7.704353333	5.294203758	2.821588516	0.086164523	0.030756014	0.007820134	0.670654297	-0.010498047	-0.717041016	898.82	63.2542698	52.34284706	-79.42820874	-72
21227	0	-0.309631348	0.217468262	0.109680176	0.999998093	0.001694679	0.000320435	0.00018692	-7.740783691	5.436706543	2.742004395	0.084734006	0.016021737	0.009346013	0.668457031	-0.014892578	-0.713623047	898.88	63.48835733	52.33712194	-79.36692386	-73
21228	0	-0.307912827	0.217409134	0.110455513	0.999999046	0.000704765	-0.000146866	4.19617E-05	-7.697820663	5.435228348	2.761387825	0.035238269	-0.007343293	0.002098084	0.670898438	-0.017089844	-0.713623047	898.88	63.53746915	52.32234858	-79.39559722	-72
21229	0	-0.309448242	0.215576172	0.108398438	0.999999046	-0.000312805	-9.05991E-05	-0.000160217	-7.736206055	5.389404297	2.709960938	-0.015640259	-0.004529953	-0.008010864	0.668457031	-0.017089844	-0.710693359	898.84	63.46427351	52.33140429	-79.43174162	-73
21230	0	-0.310168266	0.212598801	0.11121273	0.999999046	-0.00094986	-0.000326157	4.1008E-05	-7.754206657	5.314970016	2.78031826	-0.047492989	-0.016307834	0.0020504	0.670654297	-0.014892578	-0.7109375	898.9	63.30007942	52.3079985	-79.48945868	-72
21231	0	-0.308227539	0.210449219	0.112304688	0.999999046	-0.000259399	-0.000117302	4.57764E-05	-7.705688477	5.261230469	2.807617188	-0.012969971	-0.005865097	0.002288818	0.668212891	-0.014892578	-0.710693359	898.84	63.24285091	52.29509599	-79.51278141	-72
21232	0	-0.30921936	0.21353054	0.113586426	0.999999046	0.000206947	-5.14984E-05	0.000132561	-7.730484009	5.338263512	2.839660645	0.010347366	-0.002574921	0.006628037	0.670898438	-0.014892578	-0.716796875	898.82	63.25341403	52.27688826	-79.51866179	-72
21233	0	-0.307800293	0.215942383	0.111694336	0.999999046	0.000205994	-1.81198E-05	0.000110626	-7.695007324	5.39855957	2.792358398	0.010299683	-0.000905991	0.005531311	0.670654297	-0.014892578	-0.7109375	898.9	63.26690403	52.26272977	-79.51896302	-72
21234	0	-0.30805397	0.21617794	0.11167717	0.999999046	-5.53131E-05	-3.43323E-05	3.43323E-05	-7.701349258	5.404448509	2.791929245	-0.002765656	-0.001716614	0.001716614	0.668457031	-0.014892578	-0.716552734	898.82	63.24329334	52.25564249	-79.53089316	-72
21235	0	-0.309387207	0.215332031	0.111328125	0.999999046	-0.000396729	-0.000174522	0	-7.734680176	5.383300781	2.783203125	-0.019836426	-0.00872612	0	0.668457031	-0.017089844	-0.713623047	898.8	63.15983292	52.24498887	-79.56895204	-72
21236	0	-0.308859825	0.214632034	0.112522125	0.999999046	-0.000349998	-9.34601E-05	0.00019455	-7.721495628	5.365800858	2.813053131	-0.017499924	-0.004673004	0.009727478	0.668212891	-0.010253906	-0.717041016	898.76	63.10544654	52.21877382	-79.57574037	-72
21237	0	-0.30871582	0.213378906	0.112426758	0.999999046	2.67029E-05	-6.38962E-05	3.43323E-05	-7.717895508	5.334472656	2.810668945	0.001335144	-0.003194809	0.001716614	0.668212891	-0.012451172	-0.7109375	898.88	63.08740178	52.21066237	-79.59000472	-72
21238	0	-0.307710648	0.214443207	0.109524727	0.999999046	0.000267029	-0.000181198	0.000330925	-7.69276619	5.36108017	2.738118172	0.013351441	-0.009059906	0.01654625	0.670898438	-0.017089844	-0.713623047	898.82	63.10151012	52.16634679	-79.59976953	-72
21239	0	-0.310119629	0.216003418	0.113952637	0.999999046	-0.000724792	-0.000235558	0.000202179	-7.752990723	5.400085449	2.848815918	-0.036239628	-0.011777879	0.010108949	0.670654297	-0.014892578	-0.7109375	898.76	62.98622522	52.13248287	-79.62798131	-72
21240	0	-0.307965279	0.212970734	0.114955902	0.999999046	3.14713E-05	8.58307E-05	0.0001297	-7.699131966	5.324268341	2.873897552	0.001573563	0.004291534	0.006484985	0.668212891	-0.010253906	-0.717041016	898.8	62.99479085	52.12289834	-79.61033285	-72
21241	0	-0.307128906	0.213745117	0.110900879	0.999999046	0.000518799	0.000123024	0.000259399	-7.678222656	5.34362793	2.772521973	0.025939943	0.0061512	0.012969971	0.668457031	-0.014892578	-0.713623047	898.88	63.07286324	52.10217581	-79.57572372	-72
21242	0	-0.308020592	0.217375755	0.110538483	0.999999046	0.000463486	7.82013E-05	0.000232697	-7.700514793	5.434393883	2.763462067	0.023174287	0.003910065	0.011634827	0.670654297	-0.014892578	-0.7109375	898.76	63.13716401	52.08191541	-79.54867499	-72
21243	0	-0.308837891	0.218017578	0.110290527	0.999999046	-0.000160217	-0.00014019	-3.05176E-05	-7.720947266	5.450439453	2.757263184	-0.008010864	-0.007009506	-0.001525879	0.668457031	-0.014892578	-0.713623047	898.82	63.08409681	52.07734371	-79.58182053	-72
21244	0	-0.307965279	0.213384628	0.113313675	0.999999046	-0.000533104	-0.000249863	5.34058E-05	-7.699131966	5.334615707	2.832841873	-0.026655199	-0.012493134	0.002670288	0.670898438	-0.017089844	-0.713623047	898.76	62.97943201	52.05865879	-79.62612699	-72
21245	0	-0.308898926	0.21270752	0.112487793	0.999999046	-0.000141144	-9.82285E-05	0.000156403	-7.722473145	5.317687988	2.812194824	-0.00705719	-0.004911423	0.007820129	0.668212891	-0.014892578	-0.710693359	898.84	62.94642415	52.03758026	-79.63564523	-72
21246	0	-0.308992386	0.214053154	0.11486721	0.999999046	-0.000175476	-7.05719E-05	0.000202179	-7.724809647	5.35132885	2.87168026	-0.008773804	-0.003528595	0.010108948	0.670898438	-0.014892578	-0.716796875	898.8	62.91602616	52.01344029	-79.63789302	-72
21247	0	-0.308227539	0.213867188	0.113098145	0.999999046	0.00012207	-9.05991E-05	0.000106812	-7.705688477	5.346679688	2.827453613	0.006103516	-0.004529953	0.005340576	0.665771484	-0.012451172	-0.713867188	898.82	62.91074273	51.9981697	-79.65141165	-72
21248	0	-0.307673454	0.215607643	0.110659599	0.999999046	0.000275612	-1.90735E-06	0.000155449	-7.691836357	5.390191078	2.766489983	0.013780594	-9.53674E-05	0.007772446	0.665771484	-0.012451172	-0.713867188	898.96	62.93812468	51.98271337	-79.64572722	-72
21249	0	-0.308288574	0.21685791	0.112243652	0.999999046	-3.8147E-05	-0.000105858	0.0001297	-7.707214355	5.421447754	2.806091309	-0.001907349	-0.005292892	0.006484985	0.668212891	-0.012451172	-0.708007813	898.8	62.91443407	51.96455107	-79.65601811	-72
21250	0	-0.307721138	0.215768814	0.112752914	0.999999046	-0.00021553	-0.000152588	6.48499E-05	-7.69302845	5.394220352	2.818822861	-0.01077652	-0.007629395	0.003242493	0.666015625	-0.014648438	-0.716552734	898.8	62.86008403	51.95068627	-79.68467891	-72
21251	0	-0.308410645	0.213867188	0.113647461	0.999999046	-4.57764E-05	-0.000155449	-3.8147E-06	-7.710266113	5.346679688	2.841186523	-0.002288818	-0.007772446	-0.000190735	0.668457031	-0.012695313	-0.716796875	898.82	62.82021152	51.94384151	-79.71768298	-72
21252	0	-0.30782795	0.213853836	0.11370182	0.999999046	4.29153E-05	-0.000154495	0.000163078	-7.695698738	5.346345901	2.842545509	0.002145767	-0.007724762	0.008153915	0.668457031	-0.014892578	-0.716552734	898.82	62.80177343	51.92019245	-79.73698748	-72
21253	0	-0.308288574	0.215270996	0.113464355	0.999999046	4.95911E-05	-2.95639E-05	0.000110626	-7.707214355	5.381774902	2.836608887	0.002479553	-0.001478195	0.005531311	0.668212891	-0.014892578	-0.710693359	898.82	62.79691224	51.90856328	-79.73779552	-72
21254	0	-0.307624817	0.214800835	0.113217354	0.999999046	0.000307083	-6.29425E-05	0.000197411	-7.690620422	5.370020866	2.830433846	0.015354157	-0.003147125	0.009870529	0.668457031	-0.014892578	-0.713623047	898.88	62.82306167	51.88648216	-79.73752332	-72
21255	0	-0.309082031	0.215270996	0.110290527	0.999999046	3.8147E-05	-0.000163078	0.000167847	-7.727050781	5.381774902	2.757263184	0.001907349	-0.008153915	0.008392334	0.668457031	-0.014892578	-0.716552734	898.88	62.80368546	51.86239979	-79.75703227	-72
21256	0	-0.308850288	0.215870857	0.115318298	0.999999046	-0.000477791	-0.000324249	0.000198364	-7.72125721	5.396771431	2.882957458	-0.023889543	-0.016212464	0.009918214	0.668457031	-0.014892578	-0.716552734	898.84	62.70629639	51.82684935	-79.80039619	-72
21257	0	-0.306274414	0.213867188	0.11505127	0.999999046	0.000217438	-1.04904E-05	4.57764E-05	-7.656860352	5.346679688	2.876281738	0.010871887	-0.000524521	0.002288818	0.666015625	-0.012451172	-0.716796875	898.9	62.71898144	51.82341484	-79.80506003	-72
21258	0	-0.307351112	0.214614868	0.111973763	0.999999046	0.00053978	-6.67572E-05	0.000110626	-7.683777809	5.365371704	2.799344063	0.026988985	-0.00333786	0.005531311	0.666015625	-0.014648438	-0.713623047	898.84	62.76580615	51.81059291	-79.81264393	-72
21259	0	-0.307922363	0.219299316	0.112304688	0.999999046	0.000377655	-7.9155E-05	0.000160217	-7.698059082	5.48248291	2.807617188	0.018882752	-0.003957749	0.008010864	0.668457031	-0.014892578	-0.716552734	898.84	62.79603761	51.79208845	-79.81767381	-72
21260	0	-0.307835579	0.217712402	0.112067223	0.999999046	-0.000432014	-0.000183105	7.62939E-06	-7.695889473	5.442810059	2.801680565	-0.021600724	-0.009155274	0.00038147	0.666015625	-0.014648438	-0.716552734	898.82	62.7101054	51.78376098	-79.85379277	-72
21261	0	-0.307495117	0.214233398	0.112304688	0.999999046	-0.000423431	-0.000208855	-9.91821E-05	-7.68737793	5.355834961	2.807617188	-0.021171571	-0.010442734	-0.004959107	0.668457031	-0.014892578	-0.716552734	898.82	62.6148073	51.78510824	-79.90221842	-72
21262	0	-0.308221817	0.213158607	0.11536026	0.999999046	-0.000339508	-0.000207901	0.000182152	-7.705545425	5.328965187	2.8840065	-0.016975403	-0.01039505	0.00910759	0.663574219	-0.014648438	-0.713378906	898.82	62.54797416	51.75804109	-79.92745576	-72
21263	0	-0.30871582	0.213684082	0.115356445	0.999999046	0.000110626	-7.53403E-05	8.39233E-05	-7.717895508	5.342102051	2.883911133	0.005531311	-0.003767014	0.004196167	0.665771484	-0.012451172	-0.7109375	898.88	62.54319423	51.74814143	-79.93595388	-72
21264	0	-0.308358192	0.214675903	0.113219261	0.999999046	0.000464439	2.09808E-05	-4.673E-05	-7.708954811	5.366897583	2.830481529	0.02322197	0.001049042	-0.002336502	0.666015625	-0.012451172	-0.716796875	898.88	62.58274198	51.75680683	-79.94207894	-72
21265	0	-0.306274414	0.216552734	0.112915039	0.999999046	0.000347137	-9.82285E-05	0.000209808	-7.656860352	5.413818359	2.822875977	0.017356873	-0.004911423	0.010490418	0.666015625	-0.014648438	-0.713623047	898.82	62.61083058	51.73313556	-79.9450564	-72
21266	0	-0.307748795	0.217431068	0.112519264	0.999999046	4.76837E-05	-0.000179291	9.53674E-05	-7.693719864	5.435776711	2.812981606	0.002384186	-0.008964539	0.004768372	0.666015625	-0.014648438	-0.716552734	898.84	62.58674221	51.71691376	-79.97201343	-73
21267	0	-0.307800293	0.21496582	0.113586426	0.999999046	-0.000137329	-4.86374E-05	-2.28882E-05	-7.695007324	5.374145508	2.839660645	-0.006866455	-0.00243187	-0.001144409	0.666015625	-0.017089844	-0.713378906	898.88	62.55046374	51.71976007	-79.98747218	-72
21268	0	-0.307799339	0.213577271	0.112820625	0.999999046	0.000107765	-0.000116348	7.15256E-05	-7.694983482	5.339431763	2.820515633	0.00538826	-0.005817413	0.003576279	0.668457031	-0.012695313	-0.716796875	898.8	62.53995063	51.70963053	-80.00379026	-72
21269	0	-0.308044434	0.215698242	0.112304688	0.999999046	0.000350952	-4.86374E-05	5.72205E-05	-7.70111084	5.392456055	2.807617188	0.017547608	-0.00243187	0.002861023	0.666015625	-0.014648438	-0.713623047	898.8	62.56527391	51.70468492	-80.0107124	-72
21270	0	-0.307887077	0.215567589	0.112610817	0.999999046	0.000165939	-0.000183105	0.000167847	-7.697176933	5.38918972	2.815270424	0.008296967	-0.009155274	0.008392334	0.666015625	-0.014892578	-0.719482422	898.8	62.55963956	51.6815367	-80.03265382	-72
21271	0	-0.307067871	0.21697998	0.112915039	0.999999046	0.00012207	-3.71933E-05	6.86646E-05	-7.676696777	5.424499512	2.822875977	0.006103516	-0.001859665	0.003433228	0.666015625	-0.017089844	-0.716308594	898.84	62.56132781	51.67624352	-80.03849558	-73
21272	0	-0.307457924	0.215644836	0.111115456	0.999999046	0.000330925	-0.000169754	0.000152588	-7.686448097	5.391120911	2.777886391	0.01654625	-0.008487702	0.007629395	0.666015625	-0.014648438	-0.716552734	898.88	62.57576955	51.65557087	-80.05703562	-73
21273	0	-0.308959961	0.216003418	0.111022949	0.999999046	-0.000144958	-0.000323296	0.000144958	-7.723999023	5.400085449	2.77557373	-0.007247925	-0.01616478	0.007247925	0.666015625	-0.014648438	-0.713623047	898.82	62.5157409	51.62775011	-80.09944091	-73
21274	0	-0.30796814	0.215204239	0.116228104	0.999999046	-0.000213623	-0.000274658	0.000133514	-7.699203491	5.380105972	2.905702591	-0.010681153	-0.01373291	0.00667572	0.668457031	-0.014892578	-0.716552734	898.84	62.45326529	51.60374061	-80.13494673	-73
21275	0	-0.306213379	0.214660645	0.115783691	0.999999046	0.000339508	7.72476E-05	4.95911E-05	-7.655334473	5.366516113	2.894592285	0.016975403	0.003862381	0.002479553	0.666015625	-0.014648438	-0.713623047	898.82	62.49362344	51.60697193	-80.11990882	-72
21276	0	-0.306941986	0.216049194	0.112843513	0.999999046	0.000609398	-5.34058E-05	0.000171661	-7.673549652	5.401229858	2.821087837	0.030469896	-0.002670288	0.008583069	0.666015625	-0.017089844	-0.713378906	898.84	62.55646406	51.59098501	-80.11648114	-72
21277	0	-0.30682373	0.218688965	0.113830566	0.999999046	0.000602722	0.00017643	0.000148773	-7.670593262	5.467224121	2.84576416	0.03013611	0.008821488	0.00743866	0.666015625	-0.017089844	-0.713378906	898.82	62.64665523	51.58943778	-80.07711272	-72
21278	0	-0.308385849	0.21958828	0.113335609	0.999999046	1.52588E-05	-1.90735E-06	-6.48499E-05	-7.709646225	5.489706993	2.833390236	0.000762939	-9.53674E-05	-0.003242493	0.666259766	-0.017089844	-0.719238281	898.84	62.632644	51.60025179	-80.08791048	-72
21279	0	-0.306762695	0.213195801	0.113830566	0.999999046	-1.14441E-05	-3.33786E-05	-4.95911E-05	-7.669067383	5.32989502	2.84576416	-0.000572205	-0.00166893	-0.002479553	0.666259766	-0.019287109	-0.713134766	898.84	62.61246722	51.60803064	-80.10089598	-72
21280	0	-0.308058739	0.214016914	0.113368034	0.999999046	0.000346184	4.95911E-05	0.000136375	-7.701468468	5.350422859	2.834200859	0.017309189	0.002479553	0.006818772	0.666259766	-0.019287109	-0.718994141	898.9	62.6562855	51.601457	-80.08732805	-72
21281	0	-0.308105469	0.217529297	0.114318848	0.999999046	0.000549316	0.000180244	5.72205E-05	-7.702636719	5.438232422	2.857971191	0.027465822	0.009012223	0.002861023	0.666015625	-0.017089844	-0.713378906	898.84	62.73496401	51.60984376	-80.05484207	-72
21282	0	-0.306839943	0.217139244	0.113298416	0.999999046	0.000534058	5.14984E-05	-5.72205E-05	-7.670998573	5.428481102	2.832460403	0.026702882	0.002574921	-0.002861023	0.668457031	-0.019287109	-0.713378906	898.8	62.78785931	51.62315498	-80.05275392	-72
21283	0	-0.307006836	0.21697998	0.110595703	0.999999046	0.000305176	0.000126839	3.8147E-06	-7.675170898	5.424499512	2.764892578	0.015258789	0.006341934	0.000190735	0.668701172	-0.021484375	-0.716064453	898.88	62.8285227	51.63429019	-80.03563076	-72
21284	0	-0.307522774	0.217477798	0.112826347	0.999999046	0.000243187	6.48499E-05	1.52588E-05	-7.688069344	5.436944962	2.820658684	0.012159348	0.003242493	0.000762939	0.668701172	-0.021484375	-0.716064453	898.88	62.8549505	51.64105633	-80.02764928	-73
21285	0	-0.308044434	0.215087891	0.11114502	0.999999046	0.000385284	9.63211E-05	-0.000156403	-7.70111084	5.377197266	2.778625488	0.019264222	0.004816055	-0.00782013	0.668701172	-0.019287109	-0.716308594	898.88	62.89049543	51.667143	-80.02773738	-72
21286	0	-0.308255196	0.214894295	0.11183548	0.999999046	0.000558853	8.01086E-05	-9.15527E-05	-7.70637989	5.372357368	2.795886993	0.027942659	0.004005432	-0.004577637	0.668457031	-0.019287109	-0.710449219	898.84	62.9481811	51.68592216	-80.02183958	-73
21287	0	-0.307739258	0.215820313	0.11151123	0.999999046	0.000545502	0.000191689	6.86646E-05	-7.693481445	5.395507813	2.787780762	0.027275087	0.009584427	0.003433228	0.668457031	-0.019287109	-0.713378906	898.84	63.02940997	51.69426063	-79.98563253	-73
21288	0	-0.308301926	0.216104507	0.110486031	0.999999046	0.000607491	0.000131607	-3.8147E-06	-7.707548141	5.402612686	2.762150764	0.030374529	0.006580353	-0.000190735	0.668701172	-0.021484375	-0.713134766	898.82	63.10535803	51.70698629	-79.96623796	-72
21289	0	-0.308898926	0.217529297	0.112121582	0.999999046	0.00050354	0.000107765	-9.15527E-05	-7.722473145	5.438232422	2.803039551	0.025177003	0.00538826	-0.004577637	0.666259766	-0.021484375	-0.710205078	898.88	63.16060821	51.72749119	-79.95798107	-73
21290	0	-0.307069778	0.215628624	0.108603477	0.999999046	0.000675201	5.72205E-05	-9.15527E-05	-7.676744461	5.390715599	2.715086937	0.033760073	0.002861023	-0.004577637	0.670898438	-0.021484375	-0.707519531	898.8	63.2292079	51.74549363	-79.95309189	-73
21291	0	-0.308532715	0.216247559	0.108398438	0.999999046	0.000740051	0.000149727	1.90735E-05	-7.713317871	5.406188965	2.709960938	0.037002567	0.007486344	0.000953674	0.671142578	-0.023925781	-0.710205078	898.84	63.32471953	51.75708744	-79.92630517	-73
21292	0	-0.310511589	0.219049454	0.112132072	0.999999046	-0.000252724	-0.000156403	0.000164032	-7.762789726	5.476236343	2.803301811	-0.012636185	-0.00782013	0.008201599	0.668701172	-0.021484375	-0.713134766	898.8	63.27618255	51.73810642	-79.93980499	-73
21293	0	-0.305847168	0.214660645	0.11340332	0.999999046	0.000343323	0.000317574	-0.000171661	-7.646179199	5.366516113	2.835083008	0.017166138	0.015878678	-0.008583069	0.668701172	-0.021484375	-0.713134766	898.82	63.33534149	51.77791681	-79.9035919	-73
21294	0	-0.307394028	0.211395264	0.110133171	0.999997139	0.001852036	0.000774384	0.000183105	-7.684850693	5.284881592	2.753329277	0.092601839	0.038719203	0.00915528	0.671142578	-0.023925781	-0.710205078	898.8	63.65001155	51.80486779	-79.76007746	-73
21295	0	-0.308837891	0.22052002	0.105041504	0.999997139	0.002010345	0.000607491	0.000312805	-7.720947266	5.513000488	2.626037598	0.100517348	0.03037455	0.015640271	0.673828125	-0.028564453	-0.709960938	898.88	63.97007232	51.80958717	-79.6333314	-72
21296	0	-0.309861183	0.223567963	0.102119446	0.999999046	0.000897408	0.000242233	-7.24792E-05	-7.746529579	5.589199066	2.552986145	0.044870383	0.012111666	-0.003623963	0.673828125	-0.030761719	-0.706787109	898.84	64.09090576	51.83537227	-79.59765107	-73
21297	0	-0.308410645	0.222045898	0.102478027	0.999999046	-0.001102448	-0.000330925	-0.00019455	-7.710266113	5.551147461	2.561950684	-0.055122388	-0.016546253	-0.00972748	0.673828125	-0.030761719	-0.709716797	898.82	63.90016613	51.8449404	-79.66966288	-73
21298	0	-0.30842495	0.214612961	0.105719566	0.999998093	-0.001545906	-0.000380516	-0.000278473	-7.710623741	5.36532402	2.642989159	-0.077295337	-0.019025811	-0.013923651	0.673583984	-0.028320313	-0.70703125	898.82	63.64670008	51.86064379	-79.75490899	-73
21299	0	-0.309387207	0.210876465	0.11328125	0.999999046	-0.000370026	-0.000144005	-0.000156403	-7.734680176	5.271911621	2.83203125	-0.018501282	-0.007200241	-0.00782013	0.671142578	-0.026123047	-0.709960938	898.82	63.56618775	51.87592625	-79.79372875	-73
21300	0	-0.307958603	0.213506699	0.108828545	0.999999046	0.001139641	0.000255585	1.43051E-05	-7.698965073	5.337667465	2.720713615	0.056982053	0.012779239	0.000715256	0.673583984	-0.023925781	-0.707275391	898.84	63.72196493	51.89416159	-79.7465606	-73
21301	0	-0.308349609	0.217468262	0.106262207	0.999998093	0.001477242	0.000221252	0.000263214	-7.708740234	5.436706543	2.656555176	0.073862104	0.011062626	0.013160711	0.673583984	-0.026123047	-0.707275391	898.88	63.9282624	51.88503536	-79.68500887	-73
21302	0	-0.308279991	0.221359253	0.105045319	0.999999046	0.00066185	3.05176E-05	0.0001297	-7.706999779	5.533981323	2.626132965	0.033092501	0.001525879	0.006484986	0.673828125	-0.030761719	-0.706787109	898.8	64.00786287	51.87991426	-79.66835599	-72
21303	0	-0.309020996	0.220092773	0.104858398	0.999999046	-0.000144958	1.23978E-05	-1.52588E-05	-7.725524902	5.502319336	2.621459961	-0.007247925	0.000619888	-0.000762939	0.673828125	-0.030761719	-0.712646484	898.8	63.9836402	51.88882319	-79.67041134	-72
21304	0	-0.309457779	0.214802742	0.105950356	0.999999046	-9.63211E-05	2.28882E-05	-6.48499E-05	-7.736444473	5.37006855	2.648758888	-0.004816055	0.001144409	-0.003242493	0.673828125	-0.030761719	-0.709716797	898.84	63.96320732	51.90355313	-79.67321824	-72
21305	0	-0.308837891	0.214172363	0.106933594	0.999999046	0.000442505	8.58307E-06	2.28882E-05	-7.720947266	5.354309082	2.673339844	0.022125245	0.000429153	0.001144409	0.671386719	-0.028320313	-0.709716797	898.9	64.00820331	51.90869395	-79.6710097	-73
21306	0	-0.308891296	0.217087746	0.106247902	0.999999046	0.000680923	-0.00012207	0.000183105	-7.72228241	5.427193642	2.656197548	0.034046176	-0.006103516	0.009155274	0.673828125	-0.030761719	-0.706787109	898.8	64.07368845	51.89083651	-79.67464887	-72
21307	0	-0.308349609	0.220458984	0.104553223	0.999999046	6.10352E-05	-2.19345E-05	0.00018692	-7.708740234	5.511474609	2.613830566	0.003051758	-0.001096725	0.009346008	0.676269531	-0.030761719	-0.70703125	898.8	64.08182698	51.87756707	-79.65924904	-72
21308	0	-0.30887413	0.216924667	0.104356766	0.999999046	-5.43594E-05	-0.000179291	0.000102997	-7.721853256	5.423116684	2.608919144	-0.002717972	-0.008964539	0.005149841	0.676269531	-0.030761719	-0.70703125	898.8	64.05089986	51.86517838	-79.67664515	-73
21309	0	-0.308837891	0.216064453	0.103820801	0.999999046	-0.000205994	-0.000220299	0.000114441	-7.720947266	5.401611328	2.59552002	-0.010299683	-0.011014939	0.005722046	0.671386719	-0.032958984	-0.706542969	898.8	63.99816057	51.84970543	-79.70494091	-73
21310	0	-0.311182976	0.215847015	0.106732368	0.999999046	-0.000610352	-0.00019455	0.000274658	-7.779574394	5.396175385	2.668309212	-0.030517581	-0.009727479	0.013732911	0.673828125	-0.030761719	-0.709716797	898.8	63.91273616	51.81919852	-79.71447391	-73
21311	0	-0.307250977	0.216247559	0.108154297	0.999999046	0.000526428	0.000126839	0.000110626	-7.681274414	5.406188965	2.703857422	0.026321412	0.006341935	0.005531311	0.671142578	-0.028320313	-0.706787109	898.9	63.9890851	51.82178055	-79.68185535	-72
21312	0	-0.308327675	0.217644691	0.103513718	0.999999046	0.000555992	1.14441E-05	0.000240326	-7.708191872	5.441117287	2.587842941	0.027799608	0.000572205	0.012016297	0.676269531	-0.030761719	-0.709960938	898.8	64.06227191	51.80528179	-79.65711512	-72
21313	0	-0.308959961	0.221618652	0.104125977	0.999999046	0.00018692	-8.29697E-05	3.43323E-05	-7.723999023	5.540466309	2.603149414	0.009346008	-0.004148483	0.001716614	0.671386719	-0.030761719	-0.712646484	898.98	64.06801438	51.80524227	-79.67023444	-72
21314	0	-0.308744431	0.21954155	0.104217529	0.999999046	-0.0004673	-9.91821E-05	-6.10352E-05	-7.718610764	5.488538742	2.605438232	-0.023365022	-0.004959107	-0.003051758	0.673828125	-0.030761719	-0.712646484	898.82	63.99084	51.81423907	-79.69214223	-72
21315	0	-0.308898926	0.213928223	0.106933594	0.999999046	-0.00044632	-0.000174522	-4.57764E-05	-7.722473145	5.348205566	2.673339844	-0.02231598	-0.00872612	-0.002288818	0.671142578	-0.028320313	-0.706787109	898.8	63.90704013	51.81803541	-79.72192174	-73
21316	0	-0.309186935	0.214963913	0.10662365	0.999999046	0.000157356	-0.000108719	0.00014019	-7.729673386	5.374097824	2.66559124	0.007867813	-0.005435944	0.007009506	0.673828125	-0.030761719	-0.715576172	898.8	63.91291127	51.80615874	-79.73133716	-73
21317	0	-0.309692383	0.217651367	0.106323242	0.999999046	0.000160217	-5.24521E-05	0.000236511	-7.74230957	5.44128418	2.658081055	0.008010864	-0.002622604	0.011825562	0.673828125	-0.030761719	-0.706787109	898.84	63.93272229	51.78727778	-79.71675482	-73
21318	0	-0.307930946	0.218317986	0.103417397	0.999999046	0.000328064	-5.72205E-06	0.000113487	-7.698273659	5.457949638	2.585434914	0.016403199	-0.000286102	0.005674362	0.671386719	-0.030761719	-0.712646484	898.84	63.97031824	51.78347651	-79.71023623	-73
21319	0	-0.308166504	0.219726563	0.104492188	0.999999046	6.86646E-05	-3.71933E-05	0.000225067	-7.704162598	5.493164063	2.612304688	0.003433228	-0.001859665	0.011253357	0.673828125	-0.030761719	-0.709716797	898.76	63.98145965	51.76659296	-79.69521008	-72
21320	0	-0.308303833	0.21987915	0.105583191	0.999999046	-0.000130653	-0.000198364	0.000183105	-7.707595825	5.49697876	2.639579773	-0.006532669	-0.009918213	0.009155274	0.671386719	-0.030517578	-0.709716797	898.88	63.94620887	51.74590834	-79.71190722	-72
21321	0	-0.309020996	0.218566895	0.106384277	0.999999046	-0.000286102	-0.000182152	4.57764E-05	-7.725524902	5.464172363	2.659606934	-0.014305115	-0.00910759	0.002288818	0.671386719	-0.028320313	-0.712646484	898.84	63.88659683	51.7402104	-79.73736199	-72
21322	0	-0.309084892	0.215664864	0.10710907	0.999999046	-0.000347137	-0.000196457	6.48499E-05	-7.727122307	5.39162159	2.677726746	-0.017356873	-0.009822846	0.003242493	0.673828125	-0.028564453	-0.709960938	898.96	63.81930087	51.73194414	-79.75986034	-72
21323	0	-0.308837891	0.216674805	0.106384277	0.999999046	3.8147E-05	-0.000155449	0.000114441	-7.720947266	5.416870117	2.659606934	0.001907349	-0.007772446	0.005722046	0.671386719	-0.030761719	-0.712646484	898.84	63.8047529	51.72075223	-79.77729704	-73
21324	0	-0.30826664	0.217790604	0.106158257	0.999999046	0.000172615	-5.14984E-05	0.00014019	-7.706665993	5.444765091	2.653956413	0.008630753	-0.002574921	0.007009506	0.673828125	-0.030761719	-0.706787109	898.8	63.82092713	51.712217	-79.76836926	-73
21325	0	-0.308288574	0.219116211	0.106994629	0.999999046	-7.62939E-05	-9.05991E-05	0.000152588	-7.707214355	5.477905273	2.674865723	-0.003814697	-0.004529953	0.007629395	0.673828125	-0.030761719	-0.709716797	898.9	63.80437583	51.70042635	-79.76709403	-72
21326	0	-0.308020592	0.218277931	0.104703903	0.999999046	0.000246048	-0.000135422	0.000117302	-7.700514793	5.45694828	2.61759758	0.012302399	-0.006771088	0.005865097	0.671386719	-0.030517578	-0.709716797	898.82	63.81690713	51.69005909	-79.77745511	-73
21327	0	-0.309326172	0.220336914	0.104370117	0.999999046	-0.000267029	-0.000250816	0.00019455	-7.733154297	5.508422852	2.60925293	-0.013351441	-0.012540818	0.009727478	0.673828125	-0.030761719	-0.712646484	898.76	63.7609172	51.66594261	-79.80039995	-73
21328	0	-0.308514595	0.216612816	0.111476898	0.999999046	-0.000626564	-0.000240326	0.00018692	-7.712864876	5.415320396	2.786922455	-0.031328204	-0.012016297	0.009346009	0.671386719	-0.028320313	-0.709716797	898.74	63.66433721	51.64314391	-79.82038675	-73
21329	0	-0.307312012	0.216064453	0.109375	0.999999046	0.00025177	3.52859E-05	0.000164032	-7.682800293	5.401611328	2.734375	0.012588501	0.001764298	0.008201599	0.671386719	-0.030761719	-0.712646484	898.82	63.70258937	51.63674481	-79.80110238	-73
21330	0	-0.307919502	0.218354225	0.1061306	0.999999046	0.000646591	4.76837E-05	0.000263214	-7.697987556	5.458855629	2.653264999	0.032329562	0.002384186	0.013160707	0.673828125	-0.030761719	-0.712646484	898.82	63.79419408	51.62081292	-79.7684571	-73
21331	0	-0.307556152	0.221435547	0.105102539	0.999999046	0.000259399	-0.000117302	7.24792E-05	-7.688903809	5.535888672	2.627563477	0.012969971	-0.005865097	0.003623962	0.671386719	-0.032958984	-0.709472656	898.84	63.80812292	51.61607811	-79.77983902	-73
21332	0	-0.308903694	0.220252991	0.105121613	0.999999046	-0.000470161	-0.000133514	-1.90735E-05	-7.722592354	5.506324768	2.628040314	-0.023508073	-0.00667572	-0.000953674	0.671386719	-0.032958984	-0.706542969	898.8	63.73075523	51.61996193	-79.79937293	-73
21333	0	-0.308044434	0.214782715	0.105957031	0.999999046	-0.00030899	-0.000117302	7.62939E-05	-7.70111084	5.369567871	2.648925781	-0.015449524	-0.005865097	0.003814697	0.671386719	-0.030517578	-0.706787109	898.84	63.68008512	51.61503962	-79.8066081	-73
21334	0	-0.308779716	0.216654778	0.108299255	0.999999046	-7.62939E-06	-0.000139236	0.000247002	-7.719492912	5.416369438	2.707481384	-0.00038147	-0.006961823	0.012350083	0.673828125	-0.032958984	-0.709472656	898.84	63.67199513	51.59156485	-79.80536765	-73
21335	0	-0.308532715	0.21875	0.108276367	0.999999046	0.000133514	3.14713E-05	0.00025177	-7.713317871	5.46875	2.70690918	0.00667572	0.001573563	0.012588501	0.671386719	-0.030761719	-0.712646484	898.88	63.70250865	51.5762959	-79.77823526	-73
21336	0	-0.307269096	0.220397949	0.107160568	0.999999046	8.29697E-05	-2.47955E-05	7.62939E-06	-7.681727409	5.50994873	2.679014206	0.004148483	-0.001239777	0.00038147	0.674072266	-0.032958984	-0.712402344	898.88	63.70445445	51.5831946	-79.77961322	-73
21337	0	-0.307434082	0.219116211	0.107177734	0.999999046	-0.0001297	-0.000159264	0.000190735	-7.685852051	5.477905273	2.679443359	-0.006484985	-0.007963181	0.009536743	0.673828125	-0.030761719	-0.712646484	898.84	63.6764334	51.56445033	-79.78627447	-73
21338	0	-0.30731678	0.21999836	0.107455254	0.999999046	-2.86102E-05	-0.000198364	3.71933E-05	-7.682919502	5.499958992	2.68638134	-0.001430511	-0.009918213	0.001859665	0.671386719	-0.032958984	-0.709472656	898.84	63.64523222	51.55944699	-79.81352369	-73
21339	0	-0.308410645	0.218566895	0.10736084	0.999999046	-5.34058E-05	-8.29697E-05	8.01086E-05	-7.710266113	5.464172363	2.684020996	-0.002670288	-0.004148483	0.004005432	0.671386719	-0.030517578	-0.709716797	898.9	63.62894735	51.5559538	-79.81597111	-73
21340	0	-0.307686806	0.216711998	0.106275558	0.999999046	-6.96182E-05	-0.00022316	0.00014782	-7.692170143	5.41779995	2.656888962	-0.003480911	-0.01115799	0.007390976	0.671386719	-0.030517578	-0.709716797	898.84	63.59712043	51.53848398	-79.83556748	-73
21341	0	-0.307678223	0.217590332	0.10723877	0.999999046	0.000144958	-0.000113487	0.0001297	-7.691955566	5.439758301	2.680969238	0.007247925	-0.005674362	0.006484985	0.668945313	-0.030517578	-0.712402344	898.8	63.60296784	51.52853157	-79.84288133	-72
21342	0	-0.307414055	0.219286919	0.106390953	0.999999046	0.000282288	-8.2016E-05	0.000243187	-7.685351372	5.482172966	2.659773827	0.01411438	-0.0041008	0.012159348	0.671386719	-0.032958984	-0.709472656	898.88	63.63606515	51.50854912	-79.83234327	-73
21343	0	-0.307128906	0.219543457	0.10736084	0.999999046	-1.52588E-05	-6.38962E-05	0.000198364	-7.678222656	5.488586426	2.684020996	-0.000762939	-0.003194809	0.009918213	0.669189453	-0.032714844	-0.712158203	898.72	63.63463357	51.49408176	-79.82659683	-73
21344	0	-0.307210922	0.219722748	0.108139038	0.999999046	4.1008E-05	-0.000139236	0.000166893	-7.680273056	5.493068695	2.703475952	0.0020504	-0.006961823	0.00834465	0.671630859	-0.032958984	-0.715332031	898.9	63.62796725	51.4789885	-79.83586812	-73
21345	0	-0.308898926	0.21875	0.106445313	0.999999046	-0.000278473	-0.00026989	0.000198364	-7.722473145	5.46875	2.661132813	-0.013923645	-0.013494492	0.009918213	0.671386719	-0.030761719	-0.715576172	898.84	63.57002087	51.45410415	-79.86183007	-73
21346	0	-0.308447838	0.218200684	0.110029221	0.999999046	-0.000619888	-0.000400543	0.000198364	-7.711195946	5.45501709	2.750730515	-0.030994418	-0.020027163	0.009918214	0.671630859	-0.032958984	-0.715332031	898.82	63.45608798	51.42256501	-79.91086421	-73
21347	0	-0.306030273	0.217712402	0.110046387	0.999999046	0.000236511	0.000100136	7.62939E-05	-7.650756836	5.442810059	2.751159668	0.011825562	0.00500679	0.003814697	0.671630859	-0.032958984	-0.712402344	898.82	63.49676589	51.42914026	-79.88511259	-73
21348	0	-0.306690216	0.220067024	0.106340408	0.999999046	0.000609398	8.39233E-05	0.000213623	-7.667255402	5.501675606	2.658510208	0.030469897	0.004196167	0.010681153	0.671386719	-0.030517578	-0.709716797	898.88	63.58712808	51.42078044	-79.84531085	-73
21349	0	-0.306640625	0.22253418	0.106872559	0.999999046	0.000423431	-3.33786E-05	3.8147E-05	-7.666015625	5.563354492	2.671813965	0.02117157	-0.00166893	0.001907349	0.671386719	-0.032958984	-0.709472656	898.84	63.63012208	51.4243407	-79.84092544	-73
21350	0	-0.308081627	0.221121788	0.106583595	0.999999046	-0.000226974	-5.53131E-05	-4.95911E-05	-7.702040672	5.528044701	2.664589882	-0.011348724	-0.002765656	-0.002479553	0.671630859	-0.032958984	-0.715332031	898.82	63.59036434	51.43579929	-79.85273662	-73
21351	0	-0.30682373	0.215393066	0.108276367	0.999999046	6.48499E-05	-0.000105858	6.86646E-05	-7.670593262	5.38482666	2.70690918	0.003242493	-0.005292892	0.003433228	0.671630859	-0.032958984	-0.712402344	898.88	63.58497444	51.43267557	-79.86044429	-73
21352	0	-0.307808876	0.216608047	0.108374596	0.999999046	0.000569344	-5.53131E-05	7.9155E-05	-7.695221901	5.415201187	2.709364891	0.02846718	-0.002765656	0.003957749	0.671386719	-0.032958984	-0.709472656	898.76	63.64449297	51.43117038	-79.85587754	-73
21353	0	-0.308349609	0.220703125	0.107727051	0.999999046	0.000480652	3.14713E-05	8.01086E-05	-7.708740234	5.517578125	2.69317627	0.024032594	0.001573563	0.004005432	0.671386719	-0.032958984	-0.709472656	898.84	63.70518542	51.43397913	-79.83650758	-73
21354	0	-0.307405472	0.220181465	0.105298996	0.999999046	0.000259399	8.96454E-05	-2.38419E-05	-7.685136795	5.504536629	2.632474899	0.012969971	0.004482269	-0.001192093	0.671386719	-0.030517578	-0.709716797	898.82	63.74164712	51.45044341	-79.81373447	-73
21355	0	-0.30657959	0.218994141	0.10534668	0.999999046	0.000301361	-4.1008E-05	-2.28882E-05	-7.664489746	5.474853516	2.633666992	0.015068054	-0.0020504	-0.001144409	0.669189453	-0.032714844	-0.709228516	898.84	63.76631168	51.46022551	-79.816479	-73
21356	0	-0.307313919	0.22075367	0.107375145	0.999999046	0.000348091	6.48499E-05	8.29697E-05	-7.682847977	5.518841743	2.684378624	0.017404557	0.003242493	0.004148483	0.671630859	-0.032958984	-0.712402344	898.82	63.81679918	51.46444477	-79.79348971	-73
21357	0	-0.308044434	0.219848633	0.105041504	0.999999046	0.000160217	8.10623E-05	-0.000164032	-7.70111084	5.49621582	2.626037598	0.008010864	0.004053116	-0.008201599	0.671630859	-0.032958984	-0.712402344	898.82	63.83237002	51.49493453	-79.78829634	-73
21358	0	-0.307888985	0.217949867	0.105593681	0.999999046	0.000164032	-1.90735E-05	-9.91821E-05	-7.697224617	5.448746681	2.639842033	0.008201599	-0.000953674	-0.004959106	0.671630859	-0.03515625	-0.715087891	898.88	63.83963092	51.51379334	-79.79937085	-73
21359	0	-0.308410645	0.21862793	0.105712891	0.999999046	0.000537872	9.25064E-05	-2.28882E-05	-7.710266113	5.465698242	2.642822266	0.026893617	0.004625321	-0.001144409	0.671630859	-0.03515625	-0.712158203	898.82	63.90910949	51.53051372	-79.78275629	-73
21360	0	-0.307768822	0.220375061	0.105846405	0.999999046	0.000494957	0.000293732	2.19345E-05	-7.694220543	5.509376526	2.646160126	0.02474785	0.014686585	0.001096726	0.671630859	-0.037353516	-0.708984375	898.9	64.00274079	51.55271574	-79.72889662	-73
21361	0	-0.308349609	0.220397949	0.103820801	0.999999046	0.000343323	0.000119209	-0.000164032	-7.708740234	5.50994873	2.59552002	0.017166138	0.005960465	-0.008201599	0.671630859	-0.037353516	-0.711914063	898.8	64.04487237	51.58530966	-79.72185603	-73
21362	0	-0.307591438	0.218536377	0.102804184	0.999999046	0.000429153	5.34058E-05	-4.19617E-05	-7.689785957	5.463409424	2.570104599	0.021457673	0.002670288	-0.002098084	0.671630859	-0.03515625	-0.709228516	898.84	64.09624744	51.60209899	-79.71054393	-73
21363	0	-0.309692383	0.221496582	0.103637695	0.999999046	-9.53674E-05	-6.77109E-05	0.000141144	-7.74230957	5.537414551	2.590942383	-0.004768372	-0.003385544	0.00705719	0.674072266	-0.037597656	-0.712158203	898.84	64.08357613	51.59396642	-79.70720229	-73
21364	0	-0.30809021	0.217717171	0.109030724	0.999999046	-0.000279427	-2.28882E-05	-0.00019455	-7.702255249	5.442929268	2.725768089	-0.013971329	-0.001144409	-0.009727478	0.674072266	-0.03515625	-0.709472656	898.82	64.03410822	51.62267954	-79.71944338	-73
21365	0	-0.30682373	0.217041016	0.106201172	0.999999046	0.000789642	0.000275612	-0.000106812	-7.670593262	5.426025391	2.655029297	0.039482121	0.013780596	-0.005340577	0.674072266	-0.037353516	-0.709228516	898.88	64.15148671	51.65733418	-79.67746291	-74
21366	0	-0.307844162	0.219093323	0.104769707	0.999999046	0.001188278	0.000339508	0.000106812	-7.69610405	5.477333069	2.619242668	0.059413925	0.016975407	0.005340578	0.674072266	-0.037353516	-0.709228516	898.8	64.33652701	51.67306446	-79.60682552	-73
21367	0	-0.308532715	0.223144531	0.101806641	0.999999046	0.000862122	0.000172615	-0.00012207	-7.713317871	5.578613281	2.545166016	0.043106085	0.008630754	-0.006103516	0.674072266	-0.037353516	-0.709228516	898.88	64.44845542	51.70400073	-79.58165187	-73
21368	0	-0.308744431	0.222085953	0.102232933	0.999999046	3.91006E-05	7.82013E-05	-0.000283241	-7.718610764	5.552148819	2.555823326	0.001955032	0.003910065	-0.014162064	0.674072266	-0.039794922	-0.708984375	898.84	64.44389331	51.74687582	-79.58839847	-73
21369	0	-0.307250977	0.216552734	0.10357666	0.999999046	0.000110626	5.43594E-05	-0.000118256	-7.681274414	5.413818359	2.589416504	0.005531311	0.002717972	-0.005912781	0.674072266	-0.039794922	-0.706054688	898.9	64.45466987	51.77158315	-79.58366702	-73
21370	0	-0.30981636	0.214426994	0.105204582	0.999999046	0.000837326	0.000225067	0.000106812	-7.745409012	5.360674858	2.630114555	0.041866308	0.011253358	0.005340577	0.676513672	-0.037597656	-0.709228516	898.88	64.58499767	51.78160924	-79.5298726	-73
21371	0	-0.309570313	0.221618652	0.102355957	0.999999046	0.000881195	0.000153542	0.000190735	-7.739257813	5.540466309	2.558898926	0.04405976	0.007677079	0.009536744	0.676513672	-0.039794922	-0.706298828	898.84	64.71636558	51.77932985	-79.48010161	-73
21372	0	-0.308175087	0.220145226	0.101812363	0.999999046	0.000756264	0.000234604	-2.76566E-05	-7.704377174	5.503630638	2.545309067	0.037813191	0.011730195	-0.001382828	0.676757813	-0.041992188	-0.706054688	898.82	64.83064645	51.80357546	-79.4359252	-73
21373	0	-0.308166504	0.221008301	0.100463867	0.999999046	0.000736237	0.00023365	3.43323E-05	-7.704162598	5.52520752	2.51159668	0.036811832	0.011682512	0.001716614	0.676757813	-0.041992188	-0.706054688	898.9	64.9466078	51.8212601	-79.38665199	-73
21374	0	-0.308198929	0.222276688	0.10115242	0.999999046	0.000473022	0.000196457	-9.25064E-05	-7.704973221	5.556917191	2.528810501	0.023651124	0.009822846	-0.004625321	0.674072266	-0.041992188	-0.702880859	898.94	65.01987015	51.85017257	-79.35380957	-73
21375	0	-0.309265137	0.220214844	0.100524902	0.999999046	0.000106812	0.000134468	-4.57764E-05	-7.731628418	5.505371094	2.513122559	0.005340576	0.006723404	-0.002288818	0.678955078	-0.044433594	-0.700195313	898.82	65.04597281	51.87122974	-79.32286625	-73
21376	0	-0.308702469	0.217888832	0.101921082	0.999999046	0.000325203	7.24792E-05	-0.000110626	-7.717561722	5.447220802	2.548027039	0.016260147	0.003623962	-0.005531311	0.676757813	-0.041992188	-0.708984375	898.88	65.08481407	51.89607528	-79.31614247	-73
21377	0	-0.309448242	0.217468262	0.10144043	0.999999046	0.000518799	0.000245094	0.000137329	-7.736206055	5.436706543	2.536010742	0.025939943	0.012254716	0.006866455	0.676757813	-0.044189453	-0.705810547	898.84	65.18389853	51.9035408	-79.26048122	-73
21378	0	-0.309009552	0.220768929	0.099350929	0.999999046	0.000577927	0.000114441	0.000156403	-7.7252388	5.519223213	2.483773232	0.028896334	0.005722046	0.00782013	0.676757813	-0.044189453	-0.705810547	898.8	65.27373945	51.90267709	-79.22471228	-73
21379	0	-0.308898926	0.221191406	0.096618652	0.999999046	0.000244141	0.00011158	9.53674E-05	-7.722473145	5.529785156	2.415466309	0.012207031	0.005578995	0.004768372	0.678955078	-0.044433594	-0.700195313	898.84	65.32153581	51.9080141	-79.18618395	-73
21380	0	-0.308024406	0.220870018	0.097113609	0.999999046	-0.000115395	-0.000190735	9.53674E-05	-7.700610161	5.52175045	2.427840233	-0.00576973	-0.009536743	0.004768372	0.676757813	-0.044189453	-0.705810547	898.8	65.28823358	51.89886199	-79.20627759	-73
21381	0	-0.312316895	0.219543457	0.101989746	0.999999046	-0.000957489	-0.000105858	0.000160217	-7.807922363	5.488586426	2.549743652	-0.047874458	-0.005292893	0.008010866	0.676757813	-0.044189453	-0.702880859	898.8	65.17352462	51.88710583	-79.2054841	-73
21382	0	-0.308564186	0.216086388	0.104056358	0.999999046	0.000141144	1.71661E-05	0.000221252	-7.714104652	5.402159691	2.601408958	0.00705719	0.000858307	0.011062622	0.676757813	-0.044189453	-0.708740234	898.88	65.20438369	51.87497869	-79.18514999	-73
21383	0	-0.307861328	0.219848633	0.099609375	0.999999046	0.000831604	0.00017643	0.000190735	-7.696533203	5.49621582	2.490234375	0.041580205	0.008821489	0.009536744	0.681396484	-0.042236328	-0.703369141	898.82	65.3336577	51.87362241	-79.12615732	-73
21384	0	-0.308970451	0.224216461	0.096869469	0.999999046	0.000502586	7.62939E-06	0.000274658	-7.724261284	5.60541153	2.421736717	0.02512932	0.00038147	0.013732911	0.679199219	-0.046630859	-0.705810547	898.88	65.40830371	51.85532129	-79.09854678	-73
21385	0	-0.309387207	0.224182129	0.096923828	0.999999046	-0.000370026	-0.000136375	-0.000152588	-7.734680176	5.604553223	2.423095703	-0.018501282	-0.006818772	-0.007629395	0.676757813	-0.046386719	-0.702636719	898.84	65.33819898	51.87457653	-79.12825506	-73
21386	0	-0.310097694	0.218458176	0.100831985	0.999999046	-0.000801086	-0.000249863	2.28882E-05	-7.75244236	5.461454391	2.520799637	-0.040054326	-0.012493135	0.001144409	0.679199219	-0.044433594	-0.708984375	898.76	65.21418109	51.87017996	-79.16555014	-73
21387	0	-0.308898926	0.216186523	0.102416992	0.999999046	-0.000144958	-0.00020504	0.000164032	-7.722473145	5.404663086	2.560424805	-0.007247925	-0.010251999	0.008201599	0.679199219	-0.044433594	-0.703125	898.84	65.17966022	51.8533252	-79.17821803	-73
21388	0	-0.309639931	0.219798088	0.101448059	0.999999046	0.000164986	-7.05719E-05	0.000285149	-7.740998268	5.494952202	2.536201477	0.008249283	-0.003528595	0.014257431	0.674316406	-0.041992188	-0.705810547	898.8	65.20581401	51.83035393	-79.163937	-73
21389	0	-0.308776855	0.221801758	0.100402832	0.999999046	9.91821E-05	-2.86102E-06	0.0001297	-7.719421387	5.545043945	2.510070801	0.004959106	-0.000143051	0.006484985	0.676513672	-0.044189453	-0.699951172	898.9	65.22394031	51.82674494	-79.14432531	-73
21390	0	-0.308657646	0.221961975	0.09822464	0.999999046	6.67572E-05	-0.0001297	0.000164032	-7.716441154	5.549049377	2.455615997	0.00333786	-0.006484985	0.008201599	0.676757813	-0.044189453	-0.705810547	898.8	65.2238946	51.81344468	-79.14854021	-73
21391	0	-0.308166504	0.222290039	0.100036621	0.999999046	-0.000232697	-0.000254631	0.000144958	-7.704162598	5.557250977	2.500915527	-0.011634827	-0.012731552	0.007247925	0.676757813	-0.044189453	-0.705810547	898.88	65.17196215	51.79604024	-79.17485095	-73
21392	0	-0.30841732	0.221416473	0.101578712	0.999999046	-0.000288963	-0.000167847	9.91821E-05	-7.710433006	5.535411835	2.539467812	-0.014448166	-0.008392334	0.004959107	0.676757813	-0.044189453	-0.705810547	898.72	65.12224638	51.78749978	-79.19026043	-73
21393	0	-0.309143066	0.21862793	0.102233887	0.999999046	-0.000289917	-7.15256E-05	4.19617E-05	-7.72857666	5.465698242	2.555847168	-0.01449585	-0.003576279	0.002098084	0.679199219	-0.044433594	-0.706054688	898.8	65.08148569	51.78960162	-79.19215085	-73
21394	0	-0.308683395	0.218716621	0.101855278	0.999999046	1.90735E-05	-0.000146866	0.000174522	-7.717084885	5.467915535	2.54638195	0.000953674	-0.007343292	0.00872612	0.676757813	-0.044189453	-0.705810547	898.82	65.07421296	51.77433283	-79.19846619	-73
21395	0	-0.308410645	0.22064209	0.101135254	0.999999046	9.15527E-05	-0.000102043	0.000148773	-7.710266113	5.516052246	2.528381348	0.004577637	-0.005102158	0.00743866	0.676757813	-0.044189453	-0.702880859	898.88	65.07960069	51.76388619	-79.19583793	-73
21396	0	-0.308691025	0.22178936	0.10030365	0.999999046	1.23978E-05	-7.62939E-06	0.000159264	-7.71727562	5.544734001	2.507591248	0.000619888	-0.00038147	0.007963181	0.676757813	-0.044189453	-0.705810547	898.84	65.08913026	51.75687643	-79.17956479	-73
21397	0	-0.307800293	0.221313477	0.101745605	0.999999046	0.000171661	-9.44138E-05	1.52588E-05	-7.695007324	5.532836914	2.543640137	0.008583069	-0.004720688	0.000762939	0.676757813	-0.044189453	-0.705810547	898.88	65.09663216	51.76058058	-79.18884926	-73
21398	0	-0.308690071	0.222577095	0.100140572	0.999999046	-0.000240326	-0.000228882	0.000137329	-7.717251778	5.564427376	2.50351429	-0.012016297	-0.011444092	0.006866455	0.674316406	-0.044189453	-0.705810547	898.82	65.04682626	51.74504949	-79.21389445	-73
21399	0	-0.309631348	0.22052002	0.104675293	0.999999046	-0.000640869	-0.00026989	0.000202179	-7.740783691	5.513000488	2.616882324	-0.03204346	-0.013494493	0.010108949	0.676757813	-0.044189453	-0.705810547	898.82	64.94949672	51.72075557	-79.23801733	-73
21400	0	-0.30606842	0.219470978	0.105182648	0.999999046	0.000115395	-2.09808E-05	7.15256E-05	-7.65171051	5.486774445	2.629566193	0.00576973	-0.001049042	0.003576279	0.676757813	-0.041992188	-0.706054688	898.88	64.96329475	51.72199218	-79.22830166	-73
21401	0	-0.308349609	0.219909668	0.100402832	0.999999046	0.00043869	-3.71933E-05	0.000205994	-7.708740234	5.497741699	2.510070801	0.02193451	-0.001859665	0.010299683	0.676757813	-0.041992188	-0.706054688	898.76	65.02035215	51.70852309	-79.20989488	-73
21402	0	-0.308677673	0.223605156	0.101756096	0.999999046	0.000143051	-0.000125885	0.000213623	-7.716941833	5.590128899	2.543902397	0.007152557	-0.006294251	0.010681152	0.676757813	-0.044189453	-0.708740234	898.88	65.03241765	51.6898711	-79.21067625	-73
21403	0	-0.308654785	0.222290039	0.101867676	0.999999046	-0.000453949	-0.000361443	6.48499E-05	-7.716369629	5.557250977	2.546691895	-0.02269745	-0.018072129	0.003242493	0.676757813	-0.041992188	-0.706054688	898.8	64.93604999	51.67520729	-79.25672569	-73
21404	0	-0.308247566	0.217413902	0.103264809	0.999999046	-0.000338554	-0.000211716	0.000167847	-7.706189156	5.435347557	2.581620216	-0.01692772	-0.010585785	0.008392334	0.676757813	-0.044189453	-0.705810547	898.82	64.87873428	51.65718928	-79.27231968	-73
21405	0	-0.308654785	0.220031738	0.101867676	0.999999046	-9.91821E-05	-0.000250816	0.000209808	-7.716369629	5.500793457	2.546691895	-0.004959107	-0.012540818	0.010490418	0.676757813	-0.041992188	-0.708984375	898.76	64.84635138	51.63295236	-79.29103994	-73
21406	0	-0.308022499	0.221483231	0.103225708	0.999999046	-0.000200272	-0.000236511	0.000198364	-7.700562477	5.537080765	2.5806427	-0.010013581	-0.011825562	0.009918213	0.676757813	-0.041992188	-0.706054688	898.82	64.80356542	51.6105488	-79.30478689	-73
21407	0	-0.308410645	0.220153809	0.101806641	0.999999046	-3.8147E-06	-9.05991E-05	8.7738E-05	-7.710266113	5.503845215	2.545166016	-0.000190735	-0.004529953	0.004386902	0.676513672	-0.041992188	-0.703125	898.84	64.79564516	51.60678085	-79.30004204	-73
21408	0	-0.307193756	0.22197628	0.102413177	0.999999046	0.000109673	-0.000177383	0.000166893	-7.679843903	5.549407005	2.560329437	0.005483627	-0.008869171	0.00834465	0.674072266	-0.041992188	-0.702880859	898.78	64.79432579	51.59051034	-79.30580854	-73
21409	0	-0.307556152	0.222351074	0.102172852	0.999999046	-0.000114441	-0.000163078	0.000144958	-7.688903809	5.558776855	2.554321289	-0.005722046	-0.008153915	0.007247925	0.674316406	-0.041992188	-0.708740234	898.8	64.76795903	51.57715979	-79.31658534	-73
21410	0	-0.308496475	0.221440315	0.102995872	0.999999046	-0.000123978	-0.000141144	0.000114441	-7.71241188	5.536007881	2.574896812	-0.006198883	-0.00705719	0.005722046	0.674316406	-0.041992188	-0.708740234	898.84	64.74151245	51.56804269	-79.32598721	-72
21411	0	-0.307067871	0.22052002	0.102294922	0.999999046	0.000179291	-0.000239372	0.000179291	-7.676696777	5.513000488	2.557373047	0.008964539	-0.011968613	0.008964539	0.671875	-0.041992188	-0.708740234	898.88	64.74104012	51.5474067	-79.34869059	-73
21412	0	-0.306940079	0.221886635	0.102362633	0.999999046	0.000180244	-0.000167847	0.000247002	-7.673501968	5.547165871	2.559065819	0.009012222	-0.008392334	0.012350083	0.671875	-0.041992188	-0.708740234	898.72	64.75427161	51.52320995	-79.35309577	-73
21413	0	-0.308166504	0.222473145	0.10369873	0.999999046	-4.19617E-05	-2.19345E-05	0.000160217	-7.704162598	5.561828613	2.592468262	-0.002098084	-0.001096725	0.008010864	0.676757813	-0.044189453	-0.708740234	898.88	64.75572842	51.5151013	-79.33662428	-74
21414	0	-0.307236671	0.220975876	0.102876663	0.999999046	-0.000116348	-0.000125885	3.71933E-05	-7.680916786	5.524396896	2.57191658	-0.005817413	-0.006294251	0.001859665	0.671875	-0.044189453	-0.702636719	898.8	64.72755269	51.51466647	-79.34703788	-74
21415	0	-0.307556152	0.220703125	0.10345459	0.999999046	0.000118256	2.38419E-05	0.000137329	-7.688903809	5.517578125	2.586364746	0.005912781	0.001192093	0.006866455	0.674316406	-0.041992188	-0.705810547	898.78	64.75190243	51.5111887	-79.32211399	-73
21416	0	-0.306707382	0.221360207	0.10027504	0.999999046	0.000441551	-7.05719E-05	0.000164032	-7.667684555	5.534005165	2.506875992	0.022077561	-0.003528595	0.008201599	0.674316406	-0.044189453	-0.705810547	898.88	64.80284115	51.50034644	-79.31266272	-74
21417	0	-0.308532715	0.223022461	0.100891113	0.999999046	-0.000404358	-0.000338554	0.000202179	-7.713317871	5.575561523	2.522277832	-0.020217897	-0.01692772	0.010108948	0.674316406	-0.044189453	-0.705810547	898.84	64.72448904	51.47246822	-79.34431001	-74
21418	0	-0.30745697	0.221168518	0.105672836	0.999999046	-0.000448227	-0.000255585	6.48499E-05	-7.686424255	5.529212952	2.641820908	-0.022411347	-0.012779236	0.003242493	0.674316406	-0.041992188	-0.708740234	898.84	64.64333131	51.46281772	-79.37358125	-74
21419	0	-0.305664063	0.220703125	0.103149414	0.999999046	0.000366211	-7.15256E-05	0.000171661	-7.641601563	5.517578125	2.578735352	0.018310547	-0.003576279	0.008583069	0.674316406	-0.041992188	-0.708740234	898.78	64.68603118	51.45110046	-79.36306169	-74
21420	0	-0.306550026	0.223262787	0.10119915	0.999999046	0.000491142	-0.00015831	0.000160217	-7.663750648	5.581569672	2.529978752	0.024557115	-0.007915497	0.008010865	0.674316406	-0.044189453	-0.705810547	898.8	64.73127917	51.43627164	-79.36618477	-74
21421	0	-0.307067871	0.224365234	0.1015625	0.999999046	4.57764E-05	-9.82285E-05	4.19617E-05	-7.676696777	5.609130859	2.5390625	0.002288818	-0.004911423	0.002098084	0.671875	-0.044189453	-0.708496094	898.84	64.72626175	51.43657098	-79.37448229	-74
21422	0	-0.308006287	0.223117828	0.102273941	0.999999046	-0.000379562	-0.00019455	-1.90735E-05	-7.700157166	5.577945709	2.556848526	-0.018978119	-0.009727478	-0.000953674	0.674316406	-0.044189453	-0.705810547	898.88	64.65635539	51.4384612	-79.39782763	-74
21423	0	-0.306396484	0.217712402	0.103515625	0.999999046	7.62939E-06	-0.000174522	4.95911E-05	-7.659912109	5.442810059	2.587890625	0.00038147	-0.00872612	0.002479553	0.674316406	-0.041992188	-0.705810547	898.84	64.63750525	51.43432102	-79.40946438	-74
