Counter	Temperature	VelInc_X	VelInc_Y	VelInc_Z	OriInc_w	OriInc_x	OriInc_y	OriInc_z	Acc_X	Acc_Y	Acc_Z	Gyr_X	Gyr_Y	Gyr_Z	Mag_X	Mag_Y	Mag_Z	Pressure	Roll	Pitch	Yaw	RSSI
10236	0	-0.052770615	-0.229132652	0.324391365	0.999999046	-6.58035E-05	-0.000118256	-4.29153E-05	-1.319265366	-5.728316307	8.109784126	-0.003290176	-0.005912781	-0.002145767	-0.455566406	0.161621094	-0.951904297	886.82	-34.71913248	7.209187028	157.9931036	-92
10237	0	-0.053039551	-0.229492188	0.325805664	0.999999046	-4.95911E-05	-0.000144005	8.39233E-05	-1.32598877	-5.737304688	8.145141602	-0.002479553	-0.007200241	0.004196167	-0.455810547	0.163818359	-0.94921875	886.86	-34.72905761	7.200359627	158.0053589	-91
10238	0	-0.05182457	-0.229027748	0.325613976	0.999999046	-0.000116348	-0.00012207	8.01086E-05	-1.295614243	-5.725693703	8.140349388	-0.005817413	-0.006103516	0.004005432	-0.455566406	0.161621094	-0.948974609	886.88	-34.74695301	7.193359437	158.012247	-90
10239	0	-0.052062988	-0.228515625	0.325805664	0.999999046	-0.000167847	2.00272E-05	0.000114441	-1.301574707	-5.712890625	8.145141602	-0.008392334	0.001001358	0.005722046	-0.455810547	0.163818359	-0.94921875	886.86	-34.77141062	7.201981777	158.0150169	-89
10240	0	-0.052128792	-0.230382919	0.325176239	0.999999046	-0.000313759	-1.52588E-05	0.000121117	-1.303219795	-5.759572983	8.129405975	-0.015687943	-0.000762939	0.006055832	-0.458007813	0.161621094	-0.951660156	886.86	-34.81240313	7.207756206	158.0164905	-90
10241	0	-0.052185059	-0.231140137	0.324035645	0.999999046	-1.14441E-05	9.53674E-07	0.000167847	-1.304626465	-5.778503418	8.100891113	-0.000572205	4.76837E-05	0.008392334	-0.455810547	0.163818359	-0.946289063	886.88	-34.81829235	7.218095031	158.0261349	-91
10242	0	-0.052811623	-0.228689194	0.325738907	0.999999046	-6.29425E-05	-2.67029E-05	0.000185966	-1.320290565	-5.717229843	8.143472672	-0.003147125	-0.001335144	0.009298325	-0.455810547	0.163818359	-0.943359375	886.86	-34.82952153	7.227048034	158.0408669	-90
10243	0	-0.053405762	-0.229858398	0.325012207	0.999999046	-0.000225067	-0.000102043	0.000110626	-1.335144043	-5.746459961	8.125305176	-0.011253357	-0.005102158	0.005531311	-0.458251953	0.163818359	-0.946044922	886.86	-34.85967095	7.224071101	158.0517111	-88
10244	0	-0.051254272	-0.231336594	0.325222969	0.999999046	-2.38419E-05	-4.95911E-05	-9.53674E-07	-1.281356812	-5.783414841	8.130574226	-0.001192093	-0.002479553	-4.76837E-05	-0.458251953	0.163818359	-0.948974609	886.88	-34.86868041	7.218682499	158.0453482	-88
10245	0	-0.052368164	-0.228027344	0.324951172	0.999999046	-1.52588E-05	-2.95639E-05	0.000137329	-1.309204102	-5.700683594	8.123779297	-0.000762939	-0.001478195	0.006866455	-0.455810547	0.163818359	-0.946289063	886.82	-34.87512784	7.224255605	158.0504639	-87
10246	0	-0.05332756	-0.229366302	0.324703217	0.999999046	-0.000314713	-0.000118256	-1.90735E-05	-1.333189011	-5.734157562	8.117580414	-0.015735627	-0.005912781	-0.000953674	-0.455810547	0.163818359	-0.943359375	886.88	-34.91696404	7.211305861	158.0476708	-87
10247	0	-0.05279541	-0.233520508	0.323669434	0.999999046	-0.000160217	2.38419E-05	8.39233E-05	-1.319885254	-5.838012695	8.09173584	-0.008010864	0.001192093	0.004196167	-0.455810547	0.166015625	-0.946533203	886.86	-34.94127117	7.218504324	158.0445492	-88
10248	0	-0.053582191	-0.230564117	0.323348045	0.999999046	0.000247002	-0.000162125	5.24521E-05	-1.339554787	-5.764102936	8.083701134	0.012350083	-0.008106232	0.002622604	-0.458251953	0.166259766	-0.94921875	886.82	-34.91780931	7.206255509	158.0507028	-88
10249	0	-0.051513672	-0.229064941	0.325927734	0.999999046	3.8147E-05	-0.000128746	6.86646E-05	-1.287841797	-5.726623535	8.148193359	0.001907349	-0.006437302	0.003433228	-0.455810547	0.166015625	-0.94921875	886.94	-34.91834806	7.198188644	158.0528556	-88
10250	0	-0.052316666	-0.229887962	0.323638916	0.999999046	-0.000225067	-7.62939E-05	4.19617E-05	-1.307916641	-5.747199059	8.0909729	-0.011253357	-0.003814697	0.002098084	-0.458251953	0.166259766	-0.946289063	886.88	-34.94971322	7.193292534	158.0532915	-87
10251	0	-0.052124023	-0.232055664	0.324890137	0.999999046	0.000102997	-0.000105858	-2.67029E-05	-1.303100586	-5.801391602	8.122253418	0.005149841	-0.005292892	-0.001335144	-0.455810547	0.166015625	-0.952148438	886.86	-34.94436699	7.181185515	158.0400117	-87
10252	0	-0.052653313	-0.230466843	0.32281208	0.999999046	0.000370979	-0.000144958	5.62668E-05	-1.316332817	-5.761671066	8.07030201	0.018548966	-0.007247925	0.002813339	-0.455810547	0.166015625	-0.952148438	886.86	-34.90705211	7.170892918	158.037835	-87
10253	0	-0.053039551	-0.228759766	0.324768066	0.999999046	3.05176E-05	-0.000124931	7.62939E-05	-1.32598877	-5.718994141	8.11920166	0.001525879	-0.006246567	0.003814697	-0.456054688	0.168457031	-0.943603516	886.82	-34.90824877	7.163746751	158.0492928	-87
10254	0	-0.053665161	-0.23086834	0.323451996	0.999999046	-5.72205E-05	-6.86646E-05	5.34058E-05	-1.341629028	-5.771708488	8.086299896	-0.002861023	-0.003433228	0.002670288	-0.455810547	0.166015625	-0.946533203	886.88	-34.9205596	7.160575011	158.0457887	-87
10255	0	-0.052978516	-0.230895996	0.323974609	0.999999046	0.00012207	-5.62668E-05	-3.8147E-06	-1.324462891	-5.772399902	8.099365234	0.006103516	-0.002813339	-0.000190735	-0.455810547	0.163818359	-0.94921875	886.72	-34.9133496	7.154944593	158.0289741	-87
10256	0	-0.052574158	-0.229963303	0.324707985	0.999999046	0.000214577	-8.7738E-05	2.95639E-05	-1.314353943	-5.749082565	8.117699623	0.010728836	-0.004386902	0.001478195	-0.455810547	0.166015625	-0.946533203	886.8	-34.89466745	7.148516066	158.0248917	-87
10257	0	-0.052246094	-0.229248047	0.325866699	0.999999046	0.00012207	-6.38962E-05	3.05176E-05	-1.306152344	-5.731201172	8.14666748	0.006103516	-0.003194809	0.001525879	-0.455810547	0.161621094	-0.946044922	886.82	-34.88690308	7.144483723	158.0114673	-87
10258	0	-0.052889824	-0.230875015	0.323854446	0.999999046	2.67029E-05	-7.24792E-05	6.10352E-05	-1.322245598	-5.771875381	8.09636116	0.001335144	-0.003623962	0.003051758	-0.458251953	0.163818359	-0.946044922	886.72	-34.88955061	7.141650951	158.0079343	-86
10259	0	-0.052612305	-0.229980469	0.323242188	0.999999046	0.000244141	-8.29697E-05	0.000164032	-1.315307617	-5.749511719	8.081054688	0.012207031	-0.004148483	0.008201599	-0.458251953	0.163818359	-0.946044922	886.92	-34.86602708	7.144633886	158.0148685	-86
10260	0	-0.052817345	-0.230172157	0.322447777	0.999999046	0.000142097	-4.57764E-05	0.000109673	-1.320433617	-5.754303932	8.06119442	0.007104874	-0.002288818	0.005483627	-0.455810547	0.166015625	-0.946533203	886.88	-34.85519517	7.147603424	158.0150174	-86
10261	0	-0.05291748	-0.229675293	0.323669434	0.999999046	0.000339508	-6.38962E-05	9.53674E-05	-1.322937012	-5.741882324	8.09173584	0.016975403	-0.003194809	0.004768372	-0.455810547	0.163818359	-0.952148438	886.82	-34.82208164	7.148104567	158.0041673	-86
10262	0	-0.050661087	-0.229445457	0.325723648	0.999999046	0.000139236	-6.10352E-05	7.62939E-05	-1.266527176	-5.736136436	8.143091202	0.006961823	-0.003051758	0.003814697	-0.455810547	0.163818359	-0.94921875	886.86	-34.81202055	7.147508678	157.9952306	-85
10263	0	-0.052734375	-0.227722168	0.323669434	0.999999046	0.00012207	-0.00014782	8.39233E-05	-1.318359375	-5.693054199	8.09173584	0.006103516	-0.007390976	0.004196167	-0.458251953	0.163818359	-0.948974609	886.82	-34.80302026	7.139284324	157.9955102	-85
10264	0	-0.052493095	-0.229587555	0.325327873	0.999999046	-0.000206947	-0.000202179	-1.14441E-05	-1.312327385	-5.739688873	8.133196831	-0.010347366	-0.010108948	-0.000572205	-0.455810547	0.166015625	-0.94921875	886.8	-34.83238874	7.11974622	157.9898808	-85
10265	0	-0.052490234	-0.231140137	0.322021484	0.999999046	0.000125885	-6.38962E-05	4.19617E-05	-1.312255859	-5.778503418	8.050537109	0.006294251	-0.003194809	0.002098084	-0.455810547	0.163818359	-0.94921875	886.82	-34.82441789	7.116823535	157.9751939	-85
10266	0	-0.052833557	-0.228307724	0.324160576	0.999999046	0.000349045	-0.00022316	9.91821E-05	-1.320838928	-5.7076931	8.104014397	0.017452241	-0.01115799	0.004959107	-0.455810547	0.163818359	-0.94921875	886.92	-34.78884728	7.102725018	157.9768919	-85
10267	0	-0.051818848	-0.229858398	0.323974609	0.999999046	0.000198364	-0.000113487	9.15527E-05	-1.295471191	-5.746459961	8.099365234	0.009918213	-0.005674362	0.004577637	-0.458007813	0.161621094	-0.948730469	886.88	-34.77163895	7.098477116	157.9690668	-85
10268	0	-0.051970482	-0.22795105	0.323405266	0.999999046	9.82285E-05	-0.000144958	0.000118256	-1.299262047	-5.698776245	8.085131645	0.004911423	-0.007247925	0.005912781	-0.455566406	0.161621094	-0.951904297	886.82	-34.76550906	7.093131503	157.9580288	-85
10269	0	-0.051879883	-0.230224609	0.323242188	0.999999046	0.000160217	-0.000151634	9.15527E-05	-1.29699707	-5.755615234	8.081054688	0.008010864	-0.007581711	0.004577637	-0.460449219	0.161621094	-0.951660156	886.86	-34.75251427	7.085374941	157.9511537	-85
10270	0	-0.051579475	-0.228586197	0.324246407	0.999999046	0.000307083	-7.82013E-05	3.71933E-05	-1.289486885	-5.714654922	8.106160164	0.015354157	-0.003910065	0.001859665	-0.458007813	0.161621094	-0.948730469	886.86	-34.72383757	7.080958649	157.9364878	-85
10271	0	-0.052246094	-0.227478027	0.323547363	0.999999046	9.53674E-05	-4.1008E-05	0.000125885	-1.306152344	-5.686950684	8.088684082	0.004768372	-0.0020504	0.006294251	-0.455566406	0.161621094	-0.948974609	886.86	-34.71873291	7.085928117	157.9242714	-85
10272	0	-0.05380249	-0.229599953	0.325365067	0.999999046	0.000191689	1.71661E-05	6.00815E-05	-1.345062256	-5.739998817	8.134126663	0.009584427	0.000858307	0.003004074	-0.458007813	0.159423828	-0.951660156	886.86	-34.70401942	7.092277806	157.8964224	-85
10273	0	-0.052612305	-0.226806641	0.325439453	0.999999046	-0.000221252	-0.00020504	-2.67029E-05	-1.315307617	-5.670166016	8.135986328	-0.011062622	-0.010251999	-0.001335144	-0.458007813	0.159423828	-0.945800781	886.86	-34.73554086	7.072013426	157.8819747	-85
10274	0	-0.052650452	-0.230127335	0.323283195	0.999999046	-0.000242233	-6.48499E-05	-8.7738E-05	-1.316261292	-5.753183365	8.082079887	-0.012111664	-0.003242493	-0.004386902	-0.458007813	0.159423828	-0.945800781	886.8	-34.77147028	7.061059501	157.8508179	-85
10275	0	-0.051757813	-0.230285645	0.32434082	0.999999046	0.000171661	9.53674E-07	6.48499E-05	-1.293945313	-5.757141113	8.108520508	0.008583069	4.76837E-05	0.003242493	-0.458251953	0.163818359	-0.946044922	886.8	-34.75850666	7.066148615	157.8412038	-85
10276	0	-0.052641869	-0.227604866	0.324418068	0.999999046	0.00014782	-4.3869E-05	1.52588E-05	-1.316046715	-5.690121651	8.110451698	0.007390976	-0.002193451	0.000762939	-0.458251953	0.161621094	-0.945800781	886.88	-34.74856539	7.063913957	157.8245417	-85
10277	0	-0.052490234	-0.229492188	0.325744629	0.999999046	-3.05176E-05	-1.43051E-05	7.62939E-05	-1.312255859	-5.737304688	8.143615723	-0.001525879	-0.000715256	0.003814697	-0.455810547	0.163818359	-0.952148438	886.92	-34.75878053	7.068601497	157.8032162	-85
10278	0	-0.053004265	-0.229260445	0.324205399	0.999999046	5.72205E-06	-0.000112534	2.19345E-05	-1.325106621	-5.731511116	8.105134964	0.000286102	-0.005626678	0.001096725	-0.458251953	0.161621094	-0.945800781	886.88	-34.76455077	7.060494892	157.7900951	-85
10279	0	-0.052734375	-0.228515625	0.32434082	0.999999046	0.000335693	-0.00014782	6.10352E-05	-1.318359375	-5.712890625	8.108520508	0.016784668	-0.007390976	0.003051758	-0.458007813	0.161621094	-0.948730469	886.94	-34.7318687	7.051748361	157.7784689	-85
10280	0	-0.052604675	-0.228107452	0.325974464	0.999999046	-8.58307E-06	-7.24792E-05	3.8147E-05	-1.315116882	-5.70268631	8.14936161	-0.000429153	-0.003623962	0.001907349	-0.458007813	0.159423828	-0.948730469	886.8	-34.7396066	7.048745049	157.7529942	-85
10281	0	-0.05078125	-0.229309082	0.325378418	0.999999046	-3.43323E-05	6.19888E-05	0.000152588	-1.26953125	-5.732727051	8.134460449	-0.001716614	0.003099442	0.007629395	-0.458007813	0.159423828	-0.948730469	886.92	-34.75006443	7.065844252	157.7290067	-85
10282	0	-0.052660942	-0.227362633	0.32559967	0.999999046	9.53674E-06	-0.000112534	0.000178337	-1.316523552	-5.684065819	8.13999176	0.000476837	-0.005626679	0.008916855	-0.458251953	0.163818359	-0.948974609	886.82	-34.75340597	7.068119205	157.7299896	-85
10283	0	-0.052429199	-0.230041504	0.325500488	0.999999046	-6.48499E-05	-5.24521E-05	8.7738E-05	-1.31072998	-5.751037598	8.137512207	-0.003242493	-0.002622604	0.004386902	-0.458251953	0.161621094	-0.945800781	886.88	-34.76689277	7.070200034	157.7163278	-84
10284	0	-0.053167343	-0.22909832	0.323766708	0.999999046	0.000254631	-0.000101089	0.000132561	-1.329183578	-5.727458	8.094167709	0.012731552	-0.005054474	0.006628037	-0.458251953	0.161621094	-0.945800781	886.82	-34.74288474	7.070719104	157.7102641	-84
10285	0	-0.052062988	-0.227966309	0.326416016	0.999999046	0.000137329	-6.00815E-05	7.24792E-05	-1.301574707	-5.699157715	8.160400391	0.006866455	-0.003004074	0.003623962	-0.458251953	0.161621094	-0.945800781	886.8	-34.73326169	7.071189986	157.6956251	-84
10286	0	-0.051629066	-0.227869987	0.325935364	0.999999046	-0.000190735	-6.10352E-05	0.000118256	-1.290726662	-5.696749687	8.148384094	-0.009536743	-0.003051758	0.005912781	-0.458251953	0.161621094	-0.945800781	886.92	-34.76066879	7.0745883	157.6830894	-84
10287	0	-0.05255127	-0.229858398	0.325561523	0.999999046	-5.34058E-05	-9.44138E-05	-1.14441E-05	-1.313781738	-5.746459961	8.139038086	-0.002670288	-0.004720688	-0.000572205	-0.458007813	0.161621094	-0.948730469	886.8	-34.77377885	7.06651032	157.6533399	-84
10288	0	-0.051996231	-0.229101181	0.326644897	0.999999046	0.000216484	3.8147E-06	-3.14713E-05	-1.299905777	-5.727529526	8.166122437	0.010824204	0.000190735	-0.001573563	-0.458007813	0.161621094	-0.948730469	886.86	-34.7569125	7.066365411	157.6162265	-84
10289	0	-0.05267334	-0.227050781	0.325439453	0.999999046	3.43323E-05	-7.15256E-05	0.000114441	-1.316833496	-5.676269531	8.135986328	0.001716614	-0.003576279	0.005722046	-0.458007813	0.159423828	-0.945800781	886.86	-34.75854283	7.068747537	157.5959493	-84
10290	0	-0.052129745	-0.229641914	0.32497406	0.999999046	-0.000144958	4.57764E-05	4.19617E-05	-1.303243637	-5.741047859	8.124351501	-0.007247925	0.002288818	0.002098084	-0.458007813	0.161621094	-0.948730469	886.92	-34.78256278	7.077464952	157.5608594	-84
10291	0	-0.052490234	-0.229492188	0.326171875	0.999999046	3.05176E-05	-0.000132561	0.000106812	-1.312255859	-5.737304688	8.154296875	0.001525879	-0.006628037	0.005340576	-0.458007813	0.159423828	-0.945800781	886.86	-34.78429811	7.073700755	157.5413324	-84
10292	0	-0.05355072	-0.228302002	0.326077461	0.999999046	0.000105858	-7.82013E-05	-4.76837E-06	-1.338768005	-5.707550049	8.151936531	0.005292892	-0.003910065	-0.000238419	-0.458251953	0.161621094	-0.945800781	886.88	-34.77889866	7.067758521	157.514863	-84
10293	0	-0.052001953	-0.227355957	0.325866699	0.999999046	-7.62939E-05	-8.29697E-05	3.8147E-05	-1.300048828	-5.683898926	8.14666748	-0.003814697	-0.004148483	0.001907349	-0.458007813	0.161621094	-0.948730469	886.82	-34.793916	7.064297032	157.4849175	-84
10294	0	-0.051537514	-0.22837925	0.326084137	0.999999046	-0.000175476	7.62939E-06	4.95911E-05	-1.288437843	-5.709481239	8.152103424	-0.008773804	0.00038147	0.002479553	-0.458251953	0.163818359	-0.951904297	886.86	-34.82085801	7.070109706	157.4493764	-84
10295	0	-0.05291748	-0.230224609	0.325500488	0.999999046	3.8147E-05	-3.71933E-05	9.15527E-05	-1.322937012	-5.755615234	8.137512207	0.001907349	-0.001859665	0.004577637	-0.458251953	0.161621094	-0.945800781	886.92	-34.82237299	7.074444235	157.4254388	-84
10296	0	-0.052690506	-0.228359222	0.325460434	0.999999046	0.000117302	-0.000104904	7.9155E-05	-1.31726265	-5.70898056	8.136510849	0.005865097	-0.005245209	0.003957748	-0.460449219	0.159423828	-0.951416016	886.86	-34.81477824	7.071880997	157.3884782	-83
10297	0	-0.051696777	-0.226867676	0.32623291	0.999999046	-0.000114441	-2.19345E-05	0.000110626	-1.292419434	-5.671691895	8.155822754	-0.005722046	-0.001096725	0.005531311	-0.458007813	0.159423828	-0.948730469	886.82	-34.8338421	7.079165619	157.349629	-84
10298	0	-0.052648544	-0.229799271	0.324900627	0.999999046	-0.000249863	-1.90735E-05	0.000118256	-1.316213608	-5.744981766	8.122515678	-0.012493134	-0.000953674	0.005912781	-0.458007813	0.159423828	-0.951660156	886.88	-34.86860212	7.087394924	157.3024426	-84
10299	0	-0.053344727	-0.230163574	0.325866699	0.999999046	0.000102997	-7.15256E-05	3.8147E-06	-1.333618164	-5.754089355	8.14666748	0.005149841	-0.003576279	0.000190735	-0.458251953	0.161621094	-0.945800781	886.86	-34.86332944	7.082973858	157.2689284	-84
10300	0	-0.051224709	-0.228998184	0.323601723	0.999999046	3.52859E-05	-3.8147E-05	8.7738E-05	-1.280617714	-5.724954605	8.090043068	0.001764297	-0.001907349	0.004386902	-0.458251953	0.161621094	-0.945800781	886.88	-34.86515004	7.087169555	157.2403635	-84
10301	0	-0.052368164	-0.227539063	0.325744629	0.999999046	-0.000198364	1.23978E-05	5.34058E-05	-1.309204102	-5.688476563	8.143615723	-0.009918213	0.000619888	0.002670288	-0.455810547	0.161621094	-0.946044922	886.88	-34.89455622	7.093980649	157.1988431	-84
10302	0	-0.053316116	-0.229494095	0.325530052	0.999999046	-0.000368118	-0.000175476	6.00815E-05	-1.332902908	-5.737352371	8.138251305	-0.018405915	-0.008773804	0.003004074	-0.458251953	0.161621094	-0.945800781	886.88	-34.94180992	7.083656475	157.170375	-84
10303	0	-0.05255127	-0.232116699	0.323608398	0.999999046	-0.000137329	-8.29697E-05	9.15527E-05	-1.313781738	-5.80291748	8.090209961	-0.006866455	-0.004148483	0.004577637	-0.455810547	0.166015625	-0.94921875	886.92	-34.96307073	7.08409572	157.1407899	-84
10304	0	-0.053027153	-0.229206085	0.325018883	0.999999046	0.000361443	-9.72748E-05	4.48227E-05	-1.325678825	-5.73015213	8.125472069	0.018072129	-0.004863739	0.002241135	-0.458251953	0.163818359	-0.946044922	886.94	-34.92747004	7.080120081	157.1124579	-84
10305	0	-0.051757813	-0.228210449	0.325683594	0.999999046	-3.8147E-05	-7.9155E-05	5.34058E-05	-1.293945313	-5.70526123	8.142089844	-0.001907349	-0.003957748	0.002670288	-0.458007813	0.161621094	-0.948730469	886.92	-34.93798536	7.078632014	157.0673644	-84
10306	0	-0.052402496	-0.229512215	0.323781967	0.999999046	-4.3869E-05	-0.000110626	6.67572E-06	-1.310062408	-5.737805367	8.094549179	-0.002193451	-0.005531311	0.000333786	-0.458251953	0.1640625	-0.943115234	886.92	-34.94894476	7.07084147	157.0416576	-84
10307	0	-0.051879883	-0.230407715	0.325622559	0.999999046	-0.000152588	-4.1008E-05	-3.8147E-06	-1.29699707	-5.760192871	8.140563965	-0.007629395	-0.0020504	-0.000190735	-0.455810547	0.163818359	-0.943359375	886.92	-34.97318637	7.068996404	157.0027645	-84
10308	0	-0.05264473	-0.229104042	0.324580193	0.999999046	0.0001688	-8.2016E-05	8.67844E-05	-1.31611824	-5.727601051	8.114504814	0.008440018	-0.0041008	0.004339218	-0.458251953	0.163818359	-0.948974609	886.88	-34.95944971	7.069448534	156.9653196	-84
10309	0	-0.052612305	-0.228271484	0.323913574	0.999999046	-8.01086E-05	-1.43051E-05	4.95911E-05	-1.315307617	-5.706787109	8.097839355	-0.004005432	-0.000715256	0.002479553	-0.458251953	0.163818359	-0.948974609	886.94	-34.97519832	7.07388722	156.9185761	-84
10310	0	-0.053113937	-0.230332375	0.32418251	0.999999046	-0.000169754	-5.72205E-05	2.57492E-05	-1.327848434	-5.758309364	8.104562759	-0.008487701	-0.002861023	0.00128746	-0.455810547	0.163818359	-0.946289063	886.86	-35.00111672	7.072782546	156.8730278	-85
10311	0	-0.052124023	-0.229003906	0.324584961	0.999999046	-0.00012207	-8.67844E-05	3.8147E-06	-1.303100586	-5.725097656	8.114624023	-0.006103516	-0.004339218	0.000190735	-0.455810547	0.163818359	-0.94921875	886.88	-35.02175099	7.06761279	156.8180948	-85
10312	0	-0.052251816	-0.230792046	0.325391769	0.999999046	0.000136375	-8.96454E-05	6.67572E-06	-1.306295395	-5.76980114	8.134794235	0.006818771	-0.004482269	0.000333786	-0.455810547	0.163818359	-0.946289063	886.92	-35.01251805	7.062257685	156.7715473	-85
10313	0	-0.052001953	-0.228881836	0.324707031	0.999999046	0.000125885	-7.53403E-05	-1.52588E-05	-1.300048828	-5.722045898	8.117675781	0.006294251	-0.003767014	-0.000762939	-0.458496094	0.166259766	-0.943359375	886.88	-35.00432394	7.056496882	156.744035	-85
10314	0	-0.052800179	-0.23002243	0.325078011	0.999999046	-3.8147E-05	-4.19617E-05	7.62939E-05	-1.320004463	-5.75056076	8.126950264	-0.001907349	-0.002098083	0.003814697	-0.458251953	0.1640625	-0.943115234	886.92	-35.01435013	7.060089673	156.7125584	-85
10315	0	-0.051818848	-0.229003906	0.325256348	0.999999046	-0.000141144	3.14713E-05	0.000102997	-1.295471191	-5.725097656	8.131408691	-0.00705719	0.001573563	0.005149841	-0.458251953	0.163818359	-0.948974609	886.86	-35.036829	7.07260071	156.6603688	-85
10316	0	-0.052678108	-0.221883774	0.327814102	0.999998093	-0.001647949	0.000321388	-0.000309944	-1.316952705	-5.547094345	8.195352554	-0.082397501	0.01606942	-0.015497215	-0.458251953	0.163818359	-0.951904297	886.82	-35.23911234	7.085392758	156.5306744	-85
10317	0	-0.053894043	-0.229125977	0.323852539	0.999993324	-0.00345993	0.000592232	-0.000652313	-1.347351074	-5.728149414	8.096313477	-0.172996889	0.02961165	-0.032615731	-0.455810547	0.166015625	-0.946533203	886.88	-35.6552501	7.100609195	156.3456421	-85
10318	0	-0.051392555	-0.242073059	0.316813469	0.999998093	-0.00137043	0.000189781	-3.14713E-05	-1.284813881	-6.051826477	7.920336723	-0.068521522	0.009489062	-0.001573563	-0.456298828	0.175048828	-0.947265625	886.86	-35.82144967	7.119012199	156.2712969	-85
10319	0	-0.054443359	-0.238708496	0.315795898	0.999999046	0.000732422	-0.00014782	8.39233E-05	-1.361083984	-5.967712402	7.894897461	0.036621097	-0.007390977	0.004196167	-0.453857422	0.175048828	-0.944335938	886.8	-35.74262607	7.11374183	156.2397042	-85
10320	0	-0.051639557	-0.231084824	0.323901176	0.999999046	0.001255989	-0.000366211	0.000217438	-1.290988922	-5.77712059	8.097529411	0.062799472	-0.018310552	0.01087189	-0.456298828	0.172851563	-0.947021484	886.92	-35.60036477	7.097067213	156.2306091	-86
10321	0	-0.052307129	-0.229919434	0.324523926	0.999999046	8.39233E-05	-6.00815E-05	0.000118256	-1.307678223	-5.74798584	8.113098145	0.004196167	-0.003004074	0.005912781	-0.453613281	0.170410156	-0.947021484	887.02	-35.59615517	7.102461553	156.1767328	-85
10322	0	-0.053544998	-0.235468864	0.319076538	0.999999046	0.000110626	-1.33514E-05	0.000132561	-1.338624954	-5.886721611	7.976913452	0.005531311	-0.000667572	0.006628037	-0.456298828	0.172851563	-0.944091797	886.86	-35.58882689	7.112910776	156.1445118	-85
10323	0	-0.052429199	-0.234558105	0.321533203	0.999999046	0.001056671	-0.000266075	0.00018692	-1.31072998	-5.863952637	8.038330078	0.052833568	-0.013303759	0.00934601	-0.456298828	0.172851563	-0.947021484	886.88	-35.4704714	7.103424674	156.1329857	-85
10324	0	-0.051549911	-0.229706764	0.323022842	0.999999046	0.001111031	-0.000358582	0.000255585	-1.288747787	-5.742669106	8.07557106	0.055551542	-0.017929081	0.012779239	-0.456054688	0.170654297	-0.943847656	886.88	-35.34401979	7.089663162	156.1401235	-86
10325	0	-0.052185059	-0.228820801	0.324279785	0.999999046	0.000507355	-0.000216484	0.0001297	-1.304626465	-5.72052002	8.106994629	0.025367738	-0.010824204	0.006484986	-0.456054688	0.168212891	-0.949462891	886.88	-35.28976915	7.081144063	156.1016388	-85
10326	0	-0.052472115	-0.23116684	0.321790695	0.999999046	0.00018692	-9.91821E-05	0.000213623	-1.311802864	-5.77917099	8.04476738	0.009346008	-0.004959107	0.010681153	-0.458251953	0.166259766	-0.94921875	886.82	-35.27240044	7.089236928	156.0592632	-85
10327	0	-0.053161621	-0.231750488	0.322692871	0.999999046	0.00044632	-7.9155E-05	0.000175476	-1.329040527	-5.793762207	8.067321777	0.02231598	-0.003957749	0.008773804	-0.455810547	0.166015625	-0.94921875	886.86	-35.22594175	7.096747076	156.0101659	-85
10328	0	-0.05355835	-0.231566429	0.322968483	0.999999046	0.000567436	-0.000120163	0.000110626	-1.33895874	-5.789160728	8.074212074	0.028371813	-0.006008149	0.005531311	-0.456054688	0.168212891	-0.949462891	886.8	-35.16575528	7.095989234	155.9715739	-85
10329	0	-0.051635742	-0.229675293	0.323730469	0.999999046	0.000442505	-0.000220299	0.000141144	-1.290893555	-5.741882324	8.093261719	0.022125245	-0.011014939	0.00705719	-0.458496094	0.166259766	-0.943359375	886.76	-35.11834862	7.087597552	155.9577245	-85
10330	0	-0.051435471	-0.228032112	0.323954582	0.999999046	0.000392914	-5.72205E-06	7.9155E-05	-1.285886765	-5.700802803	8.098864555	0.019645691	-0.000286102	0.003957749	-0.458251953	0.166259766	-0.946289063	886.88	-35.07913891	7.095278969	155.9177536	-85
10331	0	-0.051757813	-0.23059082	0.323486328	0.999999046	4.95911E-05	-8.29697E-05	4.95911E-05	-1.293945313	-5.764770508	8.087158203	0.002479553	-0.004148483	0.002479553	-0.458251953	0.166259766	-0.94921875	886.88	-35.07924089	7.093882972	155.870969	-85
10332	0	-0.052580833	-0.230127335	0.323273659	0.999999046	9.25064E-05	-1.52588E-05	0.000113487	-1.314520836	-5.753183365	8.081841469	0.00462532	-0.000762939	0.005674362	-0.455810547	0.163818359	-0.94921875	886.98	-35.07453662	7.103282407	155.8110564	-85
10333	0	-0.051696777	-0.229003906	0.324279785	0.999999046	0.000110626	-7.9155E-05	0.00019455	-1.292419434	-5.725097656	8.106994629	0.005531311	-0.003957748	0.009727478	-0.458251953	0.163818359	-0.948974609	886.82	-35.06617335	7.111938095	155.7678429	-85
10334	0	-0.051917076	-0.228973389	0.3245821	0.999999046	6.29425E-05	-5.91278E-05	8.7738E-05	-1.297926903	-5.724334717	8.114552498	0.003147125	-0.00295639	0.004386902	-0.458251953	0.1640625	-0.943115234	886.92	-35.06418864	7.11514281	155.7318849	-85
10335	0	-0.053466797	-0.229736328	0.323974609	0.999999046	6.48499E-05	-7.9155E-05	4.95911E-05	-1.336669922	-5.743408203	8.099365234	0.003242493	-0.003957748	0.002479553	-0.458251953	0.1640625	-0.943115234	886.8	-35.06226946	7.114031703	155.6933449	-85
10336	0	-0.051301956	-0.229628563	0.324500084	0.999999046	0.000138283	1.71661E-05	2.19345E-05	-1.282548904	-5.740714073	8.112502098	0.006914139	0.000858307	0.001096725	-0.458007813	0.161621094	-0.948730469	886.86	-35.05364782	7.120483403	155.6185792	-85
10337	0	-0.051269531	-0.22845459	0.325439453	0.999999046	8.01086E-05	3.91006E-05	0.000171661	-1.281738281	-5.711364746	8.135986328	0.004005432	0.001955032	0.008583069	-0.458251953	0.1640625	-0.943115234	886.86	-35.04935396	7.138353485	155.5858366	-85
10338	0	-0.052411079	-0.228262901	0.325899124	0.999999046	-0.000123978	-0.000102997	0.000110626	-1.310276985	-5.706572533	8.147478104	-0.006198883	-0.005149841	0.005531311	-0.458007813	0.161621094	-0.948730469	886.88	-35.06855997	7.139334476	155.5258585	-85
10339	0	-0.052062988	-0.232177734	0.325195313	0.999999046	-0.000133514	3.52859E-05	7.62939E-05	-1.301574707	-5.804443359	8.129882813	-0.00667572	0.001764297	0.003814697	-0.458251953	0.163818359	-0.948974609	886.94	-35.0902955	7.15086692	155.4623531	-85
10340	0	-0.052426338	-0.229937553	0.323969841	0.999999046	0.000304222	-0.000127792	8.67844E-05	-1.310658455	-5.748438835	8.099246025	0.015211106	-0.006389618	0.004339218	-0.455810547	0.163818359	-0.946289063	886.8	-35.06018508	7.147688242	155.4172774	-85
10341	0	-0.051879883	-0.229492188	0.326416016	0.999999046	8.7738E-05	-9.05991E-05	0.000102997	-1.29699707	-5.737304688	8.160400391	0.004386902	-0.004529953	0.005149841	-0.458251953	0.163818359	-0.948974609	886.82	-35.0550746	7.14909371	155.3670364	-85
10342	0	-0.051319122	-0.228265762	0.324023247	0.999999046	7.43866E-05	-9.72748E-05	-8.4877E-05	-1.282978058	-5.706644058	8.100581169	0.00371933	-0.004863739	-0.004243851	-0.458007813	0.161621094	-0.948730469	886.88	-35.05377763	7.137585271	155.2904602	-85
10343	0	-0.051696777	-0.230224609	0.326965332	0.999999046	7.62939E-05	-0.000128746	1.90735E-05	-1.292419434	-5.755615234	8.174133301	0.003814697	-0.006437302	0.000953674	-0.458251953	0.1640625	-0.943115234	886.88	-35.05005882	7.129481017	155.2551775	-85
10344	0	-0.051744461	-0.230051994	0.323411942	0.999999046	0.000157356	-7.24792E-05	0.000128746	-1.293611526	-5.751299858	8.085298538	0.007867813	-0.003623962	0.006437302	-0.455810547	0.163818359	-0.946289063	886.8	-35.03653701	7.134050116	155.2124512	-85
10345	0	-0.052429199	-0.22869873	0.327026367	0.999999046	0.000102997	-7.15256E-05	7.24792E-05	-1.31072998	-5.717468262	8.17565918	0.005149841	-0.003576279	0.003623962	-0.458251953	0.161621094	-0.945800781	886.86	-35.02994228	7.135081491	155.1598096	-85
10346	0	-0.052049637	-0.228747368	0.324456215	0.999999046	9.53674E-06	-7.62939E-05	4.19617E-05	-1.301240921	-5.718684196	8.111405373	0.000476837	-0.003814697	0.002098083	-0.458251953	0.163818359	-0.946044922	886.86	-35.03413742	7.133514692	155.1139883	-85
10347	0	-0.052856445	-0.229309082	0.32598877	0.999999046	2.28882E-05	-9.44138E-05	7.62939E-06	-1.321411133	-5.732727051	8.149719238	0.001144409	-0.004720688	0.00038147	-0.460449219	0.161865234	-0.945800781	886.88	-35.03716647	7.128106199	155.0607625	-85
10348	0	-0.051943779	-0.229537964	0.326313972	0.999999046	9.05991E-05	-0.000116348	-3.52859E-05	-1.298594475	-5.738449097	8.157849312	0.004529953	-0.005817413	-0.001764297	-0.460693359	0.1640625	-0.946044922	886.82	-35.03247694	7.117640093	155.0154648	-85
10349	0	-0.051513672	-0.22857666	0.325256348	0.999999046	0.000331879	-6.00815E-05	4.95911E-05	-1.287841797	-5.714416504	8.131408691	0.016593933	-0.003004074	0.002479553	-0.458251953	0.163818359	-0.946044922	886.92	-34.99952353	7.118022766	154.9724285	-85
10350	0	-0.052228928	-0.227928162	0.326878548	0.999999046	3.05176E-05	-1.52588E-05	7.24792E-05	-1.30572319	-5.698204041	8.171963692	0.001525879	-0.000762939	0.003623962	-0.458251953	0.161621094	-0.945800781	886.92	-35.0012767	7.124256853	154.9190824	-85
10351	0	-0.052612305	-0.229614258	0.325744629	0.999999046	-7.62939E-06	4.29153E-05	0.000110626	-1.315307617	-5.740356445	8.143615723	-0.00038147	0.002145767	0.005531311	-0.458251953	0.163818359	-0.946044922	886.92	-35.0072156	7.138341882	154.8751153	-85
10352	0	-0.051836014	-0.228387833	0.326773643	1	1.90735E-06	1.81198E-05	9.05991E-05	-1.295900345	-5.709695816	8.169341087	9.53674E-05	0.000905991	0.004529953	-0.458251953	0.161621094	-0.945800781	886.86	-35.01219695	7.148896275	154.821242	-85
10353	0	-0.052307129	-0.22845459	0.324951172	0.999999046	-0.00012207	-4.48227E-05	4.95911E-05	-1.307678223	-5.711364746	8.123779297	-0.006103516	-0.002241135	0.002479553	-0.455810547	0.161621094	-0.946044922	886.92	-35.03136509	7.150924978	154.7620449	-85
10354	0	-0.05297184	-0.229994774	0.326242447	0.999999046	6.67572E-05	-0.000173569	-9.53674E-07	-1.324295998	-5.749869347	8.156061172	0.00333786	-0.008678436	-4.76837E-05	-0.455566406	0.161621094	-0.948974609	886.92	-35.02860455	7.137709775	154.6975224	-85
10355	0	-0.051513672	-0.228149414	0.326416016	0.999999046	5.72205E-05	-0.00014782	5.72205E-05	-1.287841797	-5.703735352	8.160400391	0.002861023	-0.007390976	0.002861023	-0.458007813	0.161621094	-0.948730469	886.92	-35.02631685	7.130635353	154.6415355	-85
10356	0	-0.051259995	-0.228838921	0.326579094	0.999999046	-4.48227E-05	1.90735E-05	0.000114441	-1.281499863	-5.720973015	8.164477348	-0.002241135	0.000953674	0.005722046	-0.458251953	0.161621094	-0.945800781	886.88	-35.03614675	7.142794577	154.5892083	-85
10357	0	-0.052612305	-0.228393555	0.325256348	0.999999046	-3.43323E-05	-7.15256E-05	0.000160217	-1.315307617	-5.709838867	8.131408691	-0.001716614	-0.003576279	0.008010864	-0.458251953	0.161621094	-0.945800781	886.92	-35.04344919	7.149505932	154.5463484	-85
10358	0	-0.052089691	-0.230658531	0.326773643	0.999999046	-7.82013E-05	-6.10352E-05	1.14441E-05	-1.302242279	-5.76646328	8.169341087	-0.003910065	-0.003051758	0.000572205	-0.460693359	0.1640625	-0.948974609	886.86	-35.05759433	7.147338666	154.4932856	-85
10359	0	-0.05267334	-0.229309082	0.32598877	0.999999046	0.000270844	-0.000124931	0.000137329	-1.316833496	-5.732727051	8.149719238	0.013542176	-0.006246567	0.006866455	-0.458007813	0.161621094	-0.948730469	886.94	-35.02988246	7.147652467	154.4436437	-85
10360	0	-0.051311493	-0.228873253	0.328261375	0.999999046	-6.96182E-05	-9.91821E-05	5.34058E-05	-1.282787323	-5.721831322	8.206534386	-0.003480911	-0.004959106	0.002670288	-0.458251953	0.163818359	-0.948974609	886.86	-35.04206838	7.144658849	154.3936165	-85
10361	0	-0.052368164	-0.229187012	0.32623291	0.999999046	6.10352E-05	-5.24521E-05	5.72205E-05	-1.309204102	-5.729675293	8.155822754	0.003051758	-0.002622604	0.002861023	-0.458007813	0.159423828	-0.945800781	886.86	-35.03978133	7.146457452	154.3302755	-85
10362	0	-0.051932335	-0.22883606	0.327670097	0.999999046	0.000169754	-0.000143051	7.53403E-05	-1.298308372	-5.720901489	8.191752434	0.008487701	-0.007152557	0.003767014	-0.460449219	0.161621094	-0.951660156	886.92	-35.02411381	7.140975156	154.2719169	-85
10363	0	-0.051391602	-0.228759766	0.327575684	0.999999046	0.000244141	-6.00815E-05	0.000152588	-1.284790039	-5.718994141	8.18939209	0.012207031	-0.003004074	0.007629395	-0.458251953	0.161621094	-0.942871094	886.86	-34.99894831	7.147906483	154.241588	-85
10364	0	-0.05136013	-0.226387978	0.326410294	0.999999046	-9.53674E-07	-6.86646E-05	0.000102997	-1.284003258	-5.65969944	8.160257339	-4.76837E-05	-0.003433228	0.005149841	-0.458251953	0.161621094	-0.945800781	886.86	-35.00243529	7.150870531	154.1976727	-85
10365	0	-0.05255127	-0.228881836	0.32598877	0.999999046	-8.39233E-05	5.81741E-05	0.000114441	-1.313781738	-5.722045898	8.149719238	-0.004196167	0.002908707	0.005722046	-0.460449219	0.161621094	-0.951660156	886.86	-35.0167274	7.166751615	154.1311975	-85
10366	0	-0.052092552	-0.229779243	0.326493263	0.999999046	0.00021553	-0.000234604	0.000128746	-1.302313805	-5.744481087	8.162331581	0.01077652	-0.011730194	0.006437302	-0.460449219	0.159423828	-0.948486328	886.86	-34.99407609	7.156062206	154.0861609	-85
10367	0	-0.052307129	-0.227416992	0.327392578	0.999999046	6.10352E-05	-0.000121117	9.91821E-05	-1.307678223	-5.685424805	8.184814453	0.003051758	-0.006055832	0.004959106	-0.458007813	0.159423828	-0.945800781	886.88	-34.99008677	7.153990433	154.0361423	-85
10368	0	-0.051175117	-0.228404999	0.325845718	0.999999046	-0.00014019	-3.8147E-05	6.86646E-05	-1.279377937	-5.710124969	8.14614296	-0.007009506	-0.001907349	0.003433228	-0.458007813	0.159423828	-0.948730469	886.8	-35.01039082	7.157795993	153.967837	-85
10369	0	-0.052612305	-0.229675293	0.325805664	0.999999046	-0.000137329	-0.000132561	8.7738E-05	-1.315307617	-5.741882324	8.145141602	-0.006866455	-0.006628037	0.004386902	-0.455810547	0.161621094	-0.946044922	886.88	-35.02901471	7.153804675	153.9216636	-85
10370	0	-0.051955223	-0.228779793	0.325939178	0.999999046	-6.10352E-05	-2.47955E-05	9.15527E-05	-1.298880577	-5.71949482	8.148479462	-0.003051758	-0.001239777	0.004577637	-0.458251953	0.161621094	-0.945800781	886.82	-35.03970219	7.160129307	153.8724454	-85
10371	0	-0.052185059	-0.22833252	0.325683594	0.999999046	-2.67029E-05	-4.86374E-05	-7.62939E-06	-1.304626465	-5.708312988	8.142089844	-0.001335144	-0.00243187	-0.00038147	-0.458007813	0.159423828	-0.948730469	886.92	-35.04778648	7.157974008	153.7961987	-85
10372	0	-0.052271843	-0.227619171	0.325737	0.999999046	-0.000258446	5.91278E-05	7.62939E-05	-1.306796074	-5.690479279	8.143424988	-0.012922287	0.00295639	0.003814697	-0.460449219	0.161621094	-0.951660156	886.88	-35.08226409	7.171431872	153.7240562	-85
10373	0	-0.052001953	-0.229614258	0.325378418	0.999999046	6.86646E-05	-4.86374E-05	3.43323E-05	-1.300048828	-5.740356445	8.134460449	0.003433228	-0.00243187	0.001716614	-0.458007813	0.161621094	-0.948730469	886.88	-35.07864308	7.171892363	153.6620773	-85
10374	0	-0.052718163	-0.22797966	0.326879501	0.999999046	5.14984E-05	-0.000165939	-3.05176E-05	-1.317954063	-5.699491501	8.171987534	0.002574921	-0.008296967	-0.001525879	-0.455566406	0.161621094	-0.948974609	886.86	-35.07666241	7.157138758	153.5984844	-86
10375	0	-0.050842285	-0.229736328	0.325073242	0.999999046	-0.000209808	4.29153E-05	-1.14441E-05	-1.271057129	-5.743408203	8.126831055	-0.010490418	0.002145767	-0.000572205	-0.458251953	0.161621094	-0.945800781	886.82	-35.10597265	7.162990571	153.5353254	-86
10376	0	-0.051719666	-0.22761631	0.32442379	0.999999046	-3.91006E-05	2.47955E-05	0.000144958	-1.292991638	-5.690407753	8.110594749	-0.001955032	0.001239777	0.007247925	-0.458251953	0.161621094	-0.945800781	886.82	-35.11367672	7.177441515	153.4881025	-86
10377	0	-0.052368164	-0.228027344	0.325744629	0.999999046	-0.000247955	-8.29697E-05	8.7738E-05	-1.309204102	-5.700683594	8.143615723	-0.012397766	-0.004148483	0.004386902	-0.458007813	0.161621094	-0.948730469	886.86	-35.1452521	7.178200086	153.4311175	-85
10378	0	-0.052782059	-0.230071068	0.324112892	0.999999046	-3.8147E-05	-5.14984E-05	9.44138E-05	-1.319551468	-5.751776695	8.102822304	-0.001907349	-0.002574921	0.004720688	-0.458251953	0.161621094	-0.945800781	886.82	-35.15282697	7.182256857	153.3818812	-86
10379	0	-0.052368164	-0.22833252	0.324523926	0.999999046	-4.95911E-05	-2.95639E-05	3.8147E-05	-1.309204102	-5.708312988	8.113098145	-0.002479553	-0.001478195	0.001907349	-0.458007813	0.161621094	-0.948730469	886.88	-35.16270803	7.184802685	153.3168653	-86
10380	0	-0.051328659	-0.229154587	0.325541496	0.999999046	-0.000201225	-5.72205E-05	9.91821E-05	-1.283216476	-5.72886467	8.138537407	-0.010061264	-0.002861023	0.004959106	-0.458251953	0.163818359	-0.948974609	886.94	-35.1888167	7.188622126	153.2675668	-86
10381	0	-0.051269531	-0.228088379	0.324707031	0.999999046	-0.000278473	8.58307E-06	0.000106812	-1.281738281	-5.702209473	8.117675781	-0.013923645	0.000429153	0.005340576	-0.458251953	0.1640625	-0.943115234	886.86	-35.22380372	7.198826063	153.2311586	-86
10382	0	-0.052178383	-0.23106575	0.323600769	0.999999046	-0.000154495	-1.33514E-05	9.05991E-05	-1.304459572	-5.776643753	8.090019226	-0.007724762	-0.000667572	0.004529953	-0.458251953	0.163818359	-0.946044922	886.82	-35.24493004	7.206069937	153.1833634	-86
10383	0	-0.05267334	-0.230773926	0.323913574	0.999999046	0.000217438	-7.9155E-05	5.72205E-05	-1.316833496	-5.769348145	8.097839355	0.010871887	-0.003957748	0.002861023	-0.458251953	0.163818359	-0.946044922	886.92	-35.22329132	7.204939237	153.138981	-86
10384	0	-0.052342415	-0.227697372	0.32572937	0.999999046	6.96182E-05	-1.90735E-05	7.9155E-05	-1.308560371	-5.692434311	8.143234253	0.003480911	-0.000953674	0.003957748	-0.458007813	0.161621094	-0.948730469	886.92	-35.21904679	7.211127068	153.0756393	-85
10385	0	-0.053283691	-0.230712891	0.325500488	0.999999046	-0.000179291	-0.00014019	4.19617E-05	-1.332092285	-5.767822266	8.137512207	-0.008964539	-0.007009506	0.002098084	-0.458251953	0.166259766	-0.946289063	886.82	-35.24221604	7.203183537	153.0437175	-86
10386	0	-0.052296638	-0.229604721	0.323418617	0.999999046	4.19617E-05	-5.53131E-05	0.000136375	-1.307415962	-5.740118027	8.085465431	0.002098084	-0.002765656	0.006818771	-0.458251953	0.163818359	-0.948974609	886.86	-35.24003511	7.209703743	152.996354	-85
10387	0	-0.052001953	-0.229858398	0.323181152	0.999999046	2.67029E-05	-7.9155E-05	4.19617E-05	-1.300048828	-5.746459961	8.079528809	0.001335144	-0.003957748	0.002098083	-0.458251953	0.166259766	-0.952148438	886.86	-35.24053059	7.207711571	152.9438966	-85
10388	0	-0.051786423	-0.228372574	0.326436043	0.999999046	2.19345E-05	-8.2016E-05	2.57492E-05	-1.294660568	-5.709314346	8.16090107	0.001096725	-0.0041008	0.00128746	-0.458251953	0.166259766	-0.94921875	886.86	-35.24140625	7.204211079	152.8993656	-86
10389	0	-0.05255127	-0.230224609	0.324829102	0.999999046	-0.000148773	0.000138283	5.72205E-05	-1.313781738	-5.755615234	8.120727539	-0.00743866	0.006914139	0.002861023	-0.460693359	0.166259766	-0.948974609	886.8	-35.26332807	7.223386117	152.8467865	-85
10390	0	-0.052728653	-0.231292725	0.324623108	0.999999046	0.000108719	-6.29425E-05	0.0001297	-1.318216324	-5.782318115	8.115577698	0.005435944	-0.003147125	0.006484985	-0.458251953	0.163818359	-0.951904297	886.88	-35.25362391	7.228829754	152.7929355	-85
10391	0	-0.052001953	-0.228027344	0.324951172	0.999999046	0.000125885	-9.82285E-05	6.86646E-05	-1.300048828	-5.700683594	8.123779297	0.006294251	-0.004911423	0.003433228	-0.455810547	0.166015625	-0.94921875	886.92	-35.24187606	7.226672228	152.7515805	-85
10392	0	-0.051908493	-0.22977066	0.324286461	0.999999046	-8.10623E-05	-5.72205E-05	1.52588E-05	-1.297712326	-5.74426651	8.107161522	-0.004053116	-0.002861023	0.000762939	-0.458251953	0.163818359	-0.948974609	886.88	-35.25501559	7.224894035	152.6964635	-85
10393	0	-0.053344727	-0.23059082	0.32434082	0.999999046	8.39233E-05	-0.000121117	0.000106812	-1.333618164	-5.764770508	8.108520508	0.004196167	-0.006055832	0.005340576	-0.455810547	0.166015625	-0.94921875	886.82	-35.24746492	7.223139682	152.6606671	-85
10394	0	-0.050995827	-0.229976654	0.326161385	0.999999046	4.57764E-05	-2.47955E-05	4.48227E-05	-1.274895668	-5.749416351	8.154034615	0.002288818	-0.001239777	0.002241135	-0.458251953	0.166259766	-0.94921875	886.82	-35.24575232	7.226155929	152.6177563	-85
10395	0	-0.051940918	-0.228088379	0.325134277	0.999999046	-9.15527E-05	4.673E-05	-3.8147E-06	-1.298522949	-5.702209473	8.128356934	-0.004577637	0.002336502	-0.000190735	-0.458251953	0.1640625	-0.943115234	886.88	-35.26067538	7.232512191	152.5734805	-86
10396	0	-0.053068161	-0.230650902	0.325086594	0.999999046	-0.000161171	-3.62396E-05	6.67572E-06	-1.326704025	-5.766272545	8.127164841	-0.008058548	-0.001811981	0.000333786	-0.455810547	0.163818359	-0.946289063	886.88	-35.2830018	7.23201938	152.521291	-85
10397	0	-0.052429199	-0.231933594	0.322143555	0.999999046	0.000202179	-0.00020504	9.53674E-05	-1.31072998	-5.798339844	8.053588867	0.010108948	-0.010251999	0.004768372	-0.458251953	0.163818359	-0.946044922	886.88	-35.26134856	7.22155605	152.4938298	-85
10398	0	-0.052400589	-0.228802681	0.324515343	0.999999046	0.00025177	-0.000139236	0.000105858	-1.310014725	-5.720067024	8.112883568	0.012588501	-0.006961823	0.005292893	-0.458251953	0.1640625	-0.943115234	886.82	-35.23415288	7.217787541	152.4741373	-85
10399	0	-0.051391602	-0.229553223	0.323974609	0.999999046	0.000102997	-7.9155E-05	1.90735E-05	-1.284790039	-5.738830566	8.099365234	0.005149841	-0.003957748	0.000953674	-0.458251953	0.166259766	-0.94921875	886.86	-35.22570862	7.213958935	152.4353592	-85
10400	0	-0.052386284	-0.228814125	0.322748184	0.999999046	0.000153542	-4.95911E-05	4.86374E-05	-1.309657097	-5.720353127	8.068704605	0.007677078	-0.002479553	0.00243187	-0.458251953	0.163818359	-0.946044922	886.88	-35.21137388	7.214871158	152.3974634	-85
10401	0	-0.052001953	-0.229309082	0.324462891	0.999999046	1.52588E-05	-6.38962E-05	0.000141144	-1.300048828	-5.732727051	8.111572266	0.000762939	-0.003194809	0.00705719	-0.458251953	0.163818359	-0.946044922	886.82	-35.21166177	7.220546334	152.3692056	-85
10402	0	-0.051841736	-0.229224205	0.325025558	0.999999046	0.000249863	-0.000177383	0.000117302	-1.296043396	-5.730605125	8.125638962	0.012493134	-0.008869171	0.005865097	-0.455810547	0.163818359	-0.94921875	886.82	-35.18450724	7.214122183	152.3359363	-85
10403	0	-0.052734375	-0.228515625	0.325561523	0.999999046	1.90735E-05	4.29153E-05	-6.86646E-05	-1.318359375	-5.712890625	8.139038086	0.000953674	0.002145767	-0.003433228	-0.455810547	0.163818359	-0.94921875	886.86	-35.18775133	7.216053017	152.2720611	-85
10404	0	-0.051876068	-0.22985363	0.32416153	1	4.3869E-05	2.00272E-05	-1.52588E-05	-1.296901703	-5.746340752	8.104038239	0.002193451	0.001001358	-0.000762939	-0.458251953	0.163818359	-0.948974609	886.8	-35.18734068	7.219292391	152.2200473	-85
10405	0	-0.051818848	-0.229431152	0.325195313	0.999999046	7.62939E-05	-0.000102043	-2.28882E-05	-1.295471191	-5.735778809	8.129882813	0.003814697	-0.005102158	-0.001144409	-0.458251953	0.163818359	-0.946044922	886.86	-35.18208451	7.210443614	152.1843907	-85
10406	0	-0.051497459	-0.229445457	0.324019432	0.999999046	0.000106812	1.14441E-05	0.000128746	-1.287436485	-5.736136436	8.100485802	0.005340576	0.000572205	0.006437302	-0.458251953	0.163818359	-0.946044922	886.88	-35.17249446	7.222190549	152.1565287	-85
10407	0	-0.051879883	-0.229370117	0.323974609	0.999999046	6.86646E-05	-9.44138E-05	8.01086E-05	-1.29699707	-5.73425293	8.099365234	0.003433228	-0.004720688	0.004005432	-0.458251953	0.163818359	-0.951904297	886.88	-35.16730954	7.221013969	152.1157248	-85
10408	0	-0.051305771	-0.229317665	0.325480461	1	-2.67029E-05	-1.81198E-05	2.67029E-05	-1.282644272	-5.732941628	8.137011528	-0.001335144	-0.000905991	0.001335144	-0.458007813	0.161621094	-0.948730469	886.92	-35.17428908	7.223404553	152.0645752	-85
10409	0	-0.052612305	-0.228881836	0.326293945	0.999999046	-1.14441E-05	-6.77109E-05	1.14441E-05	-1.315307617	-5.722045898	8.157348633	-0.000572205	-0.003385544	0.000572205	-0.460693359	0.166259766	-0.946044922	886.88	-35.17871434	7.219763678	152.0452503	-85
10410	0	-0.051474571	-0.229193687	0.327393532	0.999999046	-9.34601E-05	-3.24249E-05	3.8147E-06	-1.286864281	-5.729842186	8.184838295	-0.004673004	-0.001621246	0.000190735	-0.460693359	0.1640625	-0.946044922	886.92	-35.19301614	7.219004759	152.0130752	-85
10411	0	-0.051757813	-0.229492188	0.32611084	0.999999046	8.7738E-05	-2.86102E-06	7.62939E-05	-1.293945313	-5.737304688	8.152770996	0.004386902	-0.000143051	0.003814697	-0.458007813	0.161621094	-0.948730469	886.86	-35.18620653	7.226024045	151.966262	-85
10412	0	-0.052523613	-0.229732513	0.325174332	0.999999046	0.000224113	-0.000101089	6.86646E-05	-1.313090324	-5.743312836	8.129358292	0.011205673	-0.005054474	0.003433228	-0.458251953	0.1640625	-0.943115234	886.88	-35.16252596	7.222984985	151.9521569	-85
10413	0	-0.051330566	-0.229553223	0.327026367	0.999999046	-3.8147E-05	4.76837E-06	4.95911E-05	-1.28326416	-5.738830566	8.17565918	-0.001907349	0.000238419	0.002479553	-0.458251953	0.163818359	-0.946044922	886.92	-35.17013979	7.228669108	151.9203004	-85
10414	0	-0.051783562	-0.228779793	0.325909615	0.999999046	0	5.91278E-05	7.62939E-05	-1.294589043	-5.71949482	8.147740364	0	0.00295639	0.003814697	-0.458007813	0.161621094	-0.948730469	886.88	-35.1737627	7.241395533	151.8718815	-85
10415	0	-0.052490234	-0.227966309	0.324035645	0.999999046	-1.52588E-05	-0.000136375	-3.8147E-06	-1.312255859	-5.699157715	8.100891113	-0.000762939	-0.006818771	-0.000190735	-0.458251953	0.163818359	-0.946044922	886.86	-35.17811449	7.230326787	151.8449539	-85
10416	0	-0.051484108	-0.231455803	0.32404232	0.999999046	-2.95639E-05	-7.43866E-05	8.01086E-05	-1.287102699	-5.786395073	8.101058006	-0.001478195	-0.00371933	0.004005432	-0.458251953	0.163818359	-0.951904297	886.82	-35.18406491	7.230781128	151.8063593	-85
10417	0	-0.053344727	-0.22857666	0.323608398	0.999999046	0.000328064	-0.000212669	7.62939E-06	-1.333618164	-5.714416504	8.090209961	0.016403199	-0.010633469	0.00038147	-0.458251953	0.163818359	-0.948974609	886.82	-35.14853988	7.213433591	151.7801388	-85
10418	0	-0.052049637	-0.228302002	0.32567215	0.999999046	0.000125885	-6.10352E-05	5.62668E-05	-1.301240921	-5.707550049	8.141803741	0.006294251	-0.003051758	0.002813339	-0.458007813	0.161621094	-0.948730469	886.86	-35.13693376	7.213591802	151.7413865	-85
10419	0	-0.051574707	-0.22857666	0.324584961	0.999999046	-5.72205E-05	-7.15256E-05	0.000137329	-1.289367676	-5.714416504	8.114624023	-0.002861023	-0.003576279	0.006866455	-0.460693359	0.1640625	-0.946044922	886.76	-35.14496441	7.217847221	151.7303365	-85
10420	0	-0.05195713	-0.228478432	0.326274872	0.999999046	6.96182E-05	-3.62396E-05	0.000121117	-1.298928261	-5.711960793	8.156871796	0.003480911	-0.001811981	0.006055832	-0.458251953	0.161621094	-0.945800781	886.88	-35.13902562	7.224471381	151.7036854	-84
10421	0	-0.052185059	-0.229309082	0.326049805	0.999999046	-7.62939E-06	-1.04904E-05	3.8147E-05	-1.304626465	-5.732727051	8.151245117	-0.00038147	-0.000524521	0.001907349	-0.458251953	0.1640625	-0.943115234	886.88	-35.14281855	7.227811733	151.6839111	-84
10422	0	-0.051829338	-0.228517532	0.325253487	0.999999046	9.72748E-05	-0.000211716	6.77109E-05	-1.295733452	-5.712938309	8.131337166	0.004863739	-0.010585785	0.003385544	-0.460449219	0.161865234	-0.948730469	886.86	-35.13295145	7.21451291	151.660635	-84
10423	0	-0.052062988	-0.229370117	0.325927734	0.999999046	-1.90735E-05	-9.05991E-05	9.91821E-05	-1.301574707	-5.73425293	8.148193359	-0.000953674	-0.004529953	0.004959106	-0.458007813	0.161621094	-0.948730469	886.94	-35.13706006	7.214677181	151.6279907	-84
10424	0	-0.052415848	-0.2301054	0.324951172	1	1.52588E-05	-1.62125E-05	2.57492E-05	-1.310396194	-5.752635002	8.123779297	0.000762939	-0.000810623	0.00128746	-0.455810547	0.161621094	-0.943115234	886.88	-35.13850112	7.216814196	151.5951358	-84
10425	0	-0.051635742	-0.228759766	0.325683594	0.999999046	9.53674E-05	4.29153E-05	6.86646E-05	-1.290893555	-5.718994141	8.142089844	0.004768372	0.002145767	0.003433228	-0.458007813	0.161621094	-0.948730469	886.88	-35.13096784	7.227446365	151.5529444	-83
10426	0	-0.051389694	-0.228263855	0.32602787	0.999999046	9.72748E-05	-3.43323E-05	0.000152588	-1.284742355	-5.706596375	8.150696754	0.004863739	-0.001716614	0.007629395	-0.458007813	0.161621094	-0.948730469	886.88	-35.12149494	7.236318236	151.5248378	-83
10427	0	-0.052368164	-0.228637695	0.325195313	0.999999046	-2.28882E-05	-1.81198E-05	6.86646E-05	-1.309204102	-5.715942383	8.129882813	-0.001144409	-0.000905991	0.003433228	-0.460449219	0.161865234	-0.948730469	886.88	-35.12689709	7.241147532	151.4922237	-83
10428	0	-0.052937508	-0.229928017	0.3248806	0.999999046	7.53403E-05	-0.000123978	6.00815E-05	-1.323437691	-5.748200417	8.122014999	0.003767014	-0.006198883	0.003004074	-0.458251953	0.161621094	-0.942871094	886.86	-35.12004778	7.235368028	151.4765043	-83
10429	0	-0.051940918	-0.227661133	0.325927734	0.999999046	6.10352E-05	-3.33786E-05	8.01086E-05	-1.298522949	-5.69152832	8.148193359	0.003051758	-0.00166893	0.004005432	-0.458251953	0.163818359	-0.948974609	886.94	-35.1154073	7.23947597	151.4506456	-83
10430	0	-0.052443504	-0.228528976	0.326020241	0.999999046	-9.53674E-05	6.48499E-05	6.67572E-06	-1.311087608	-5.713224411	8.15050602	-0.004768372	0.003242493	0.000333786	-0.458007813	0.161621094	-0.948730469	886.86	-35.13047848	7.248062992	151.403647	-83
10431	0	-0.051879883	-0.229064941	0.327148438	0.999999046	-1.90735E-05	-1.81198E-05	6.86646E-05	-1.29699707	-5.726623535	8.178710938	-0.000953674	-0.000905991	0.003433228	-0.460449219	0.161865234	-0.948730469	886.86	-35.13530057	7.252886098	151.372555	-84
10432	0	-0.052814484	-0.228277206	0.325126648	0.999999046	7.15256E-05	-9.72748E-05	7.9155E-05	-1.320362091	-5.706930161	8.128166199	0.003576279	-0.004863739	0.003957748	-0.460693359	0.1640625	-0.948974609	886.86	-35.12878639	7.250910854	151.3559316	-84
10433	0	-0.052001953	-0.228637695	0.325744629	0.999999046	0.000156403	-9.05991E-05	1.90735E-05	-1.300048828	-5.715942383	8.143615723	0.007820129	-0.004529953	0.000953674	-0.458007813	0.161621094	-0.948730469	886.98	-35.11340571	7.245706228	151.3225202	-84
10434	0	-0.050913811	-0.227802277	0.325214386	0.999999046	-0.000137329	-9.53674E-05	7.24792E-05	-1.272845268	-5.695056915	8.13035965	-0.006866455	-0.004768372	0.003623962	-0.458007813	0.159423828	-0.948730469	886.88	-35.13111455	7.243623885	151.2857423	-84
10435	0	-0.051940918	-0.228271484	0.327026367	0.999999046	-3.8147E-05	-0.000128746	-7.62939E-06	-1.298522949	-5.706787109	8.17565918	-0.001907349	-0.006437302	-0.00038147	-0.458251953	0.161621094	-0.942871094	886.8	-35.13765878	7.232821302	151.2654561	-84
10436	0	-0.05185318	-0.230067253	0.326472282	0.999999046	8.4877E-05	-0.000101089	0.000178337	-1.296329498	-5.751681328	8.16180706	0.004243851	-0.005054474	0.008916855	-0.458251953	0.161621094	-0.945800781	886.86	-35.12826503	7.23694269	151.254201	-85
10437	0	-0.052368164	-0.228088379	0.324707031	0.999999046	0.00018692	-0.000132561	8.7738E-05	-1.309204102	-5.702209473	8.117675781	0.009346008	-0.006628037	0.004386902	-0.458251953	0.163818359	-0.948974609	886.88	-35.10795877	7.232141922	151.2381173	-85
10438	0	-0.051711082	-0.228628159	0.328834534	0.999999046	-1.33514E-05	-0.000131607	-1.90735E-05	-1.292777061	-5.715703964	8.220863342	-0.000667572	-0.006580353	-0.000953674	-0.460693359	0.1640625	-0.943115234	886.82	-35.1115107	7.220135463	151.229107	-85
10439	0	-0.051818848	-0.227966309	0.325317383	0.999999046	6.86646E-05	-0.000136375	6.10352E-05	-1.295471191	-5.699157715	8.13293457	0.003433228	-0.006818771	0.003051758	-0.460693359	0.161865234	-0.942871094	886.86	-35.10476454	7.213054875	151.220529	-85
10440	0	-0.051391602	-0.227732658	0.326521873	0.999999046	-2.19345E-05	3.05176E-05	9.82285E-05	-1.284790039	-5.69331646	8.163046837	-0.001096725	0.001525879	0.004911423	-0.458251953	0.161621094	-0.945800781	886.88	-35.1094118	7.224168222	151.1936992	-85
10441	0	-0.052062988	-0.230224609	0.325195313	0.999999046	9.53674E-05	-4.48227E-05	0.000152588	-1.301574707	-5.755615234	8.129882813	0.004768372	-0.002241135	0.007629395	-0.455810547	0.161621094	-0.946044922	886.82	-35.09942419	7.23183025	151.1738271	-84
10442	0	-0.051980972	-0.228926659	0.326341629	0.999999046	0.000165939	-6.29425E-05	6.77109E-05	-1.299524307	-5.723166466	8.158540726	0.008296967	-0.003147125	0.003385544	-0.458251953	0.161621094	-0.945800781	886.86	-35.0821626	7.232140107	151.1524056	-84
10443	0	-0.05255127	-0.22845459	0.32598877	0.999999046	1.14441E-05	-3.71933E-05	0.000125885	-1.313781738	-5.711364746	8.149719238	0.000572205	-0.001859665	0.006294251	-0.458007813	0.161621094	-0.948730469	886.88	-35.08222528	7.238811532	151.1281747	-84
10444	0	-0.053072929	-0.22922802	0.32691288	0.999999046	-0.000136375	2.67029E-05	-1.52588E-05	-1.326823235	-5.730700493	8.172821999	-0.006818771	0.001335144	-0.000762939	-0.455566406	0.161621094	-0.948974609	886.86	-35.10144601	7.242258775	151.0824977	-84
10445	0	-0.052185059	-0.229431152	0.324645996	0.999999046	-3.8147E-05	4.76837E-06	0.000133514	-1.304626465	-5.735778809	8.116149902	-0.001907349	0.000238419	0.00667572	-0.458251953	0.161621094	-0.942871094	886.82	-35.10728542	7.253251236	151.0694019	-84
10446	0	-0.052126884	-0.228038788	0.325848579	0.999999046	5.72205E-06	-6.48499E-05	-4.76837E-06	-1.303172112	-5.700969696	8.146214485	0.000286102	-0.003242493	-0.000238419	-0.458251953	0.1640625	-0.943115234	886.72	-35.10899866	7.24850344	151.0555781	-85
10447	0	-0.052429199	-0.22857666	0.325927734	0.999999046	-0.000263214	3.14713E-05	3.8147E-06	-1.31072998	-5.714416504	8.148193359	-0.013160706	0.001573563	0.000190735	-0.455566406	0.161621094	-0.948974609	886.94	-35.14260088	7.253685219	151.0102738	-85
10448	0	-0.053732872	-0.230700493	0.32470417	0.999999046	0.000185966	-0.000162125	0.000216484	-1.3433218	-5.767512321	8.117604256	0.009298325	-0.008106232	0.010824204	-0.458251953	0.163818359	-0.946044922	886.82	-35.12043019	7.254612222	151.0159643	-84
10449	0	-0.052246094	-0.227050781	0.325866699	0.999999046	9.15527E-05	-0.000109673	0.000408173	-1.306152344	-5.676269531	8.14666748	0.004577637	-0.005483627	0.020408631	-0.456054688	0.166015625	-0.943603516	886.82	-35.10693697	7.272960177	151.0451027	-85
10450	0	-0.05278492	-0.2252388	0.327567101	0.999999046	-0.000419617	8.39233E-05	0.000324249	-1.319622993	-5.630970001	8.189177513	-0.020980836	0.004196167	0.016212464	-0.458251953	0.163818359	-0.946044922	886.92	-35.15467733	7.304132124	151.0409044	-85
10451	0	-0.05847168	-0.22644043	0.328613281	0.999998093	-0.001360893	0.000385284	0.001155853	-1.461791992	-5.661010742	8.215332031	-0.0680447	0.019264232	0.057792696	-0.455810547	0.166015625	-0.94921875	886.86	-35.30274318	7.418985104	151.0823407	-85
10452	0	-0.059762955	-0.238970757	0.325353622	0.999997139	-0.000309944	0.000392914	0.001922607	-1.494073868	-5.974268913	8.133840561	-0.015497218	0.019645704	0.096130434	-0.456054688	0.170654297	-0.946777344	886.86	-35.32101427	7.585557543	151.2114179	-85
10453	0	-0.04699707	-0.227416992	0.317993164	0.999994278	-9.05991E-05	0.00075531	0.00308609	-1.174926758	-5.685424805	7.949829102	-0.004529961	0.037765567	0.154304764	-0.453613281	0.170410156	-0.947021484	886.82	-35.30231046	7.862817534	151.4170914	-85
10454	0	-0.057971001	-0.223586082	0.329645157	0.999991417	0.000101089	0.000749588	0.003902435	-1.449275017	-5.589652061	8.241128922	0.005054487	0.037479499	0.195122279	-0.448974609	0.172607422	-0.947265625	886.92	-35.24910349	8.193530769	151.6963351	-85
10455	0	-0.053955078	-0.213012695	0.327026367	0.999972343	-0.001880646	0.00150013	0.00693512	-1.348876953	-5.325317383	8.17565918	-0.094033132	0.075007159	0.346759096	-0.449462891	0.181640625	-0.945068359	886.76	-35.38461592	8.795200232	152.224286	-85
10456	0	-0.05065918	-0.208435059	0.321228027	0.999959946	-0.005134583	0.002274513	0.006916046	-1.266479492	-5.210876465	8.030700684	-0.256732522	0.113727167	0.345806882	-0.442382813	0.190429688	-0.952148438	886.92	-35.89563198	9.470654522	152.6597813	-85
10457	0	-0.071105957	-0.237854004	0.297424316	0.999973297	-0.004561424	0.001163483	0.005504608	-1.777648926	-5.946350098	7.43560791	-0.228073207	0.058174642	0.275232814	-0.436035156	0.208007813	-0.948242188	886.88	-36.34716139	9.952058719	153.0523169	-84
10458	0	-0.05655098	-0.266819	0.302622795	0.999948502	0.006615639	-0.000113487	0.007614136	-1.41377449	-6.670475006	7.565569878	0.330787547	-0.005674458	0.380713244	-0.431640625	0.217041016	-0.94921875	886.86	-35.46439026	10.4536329	153.7828582	-83
10459	0	-0.08984375	-0.225769043	0.331420898	0.999955177	0.003643036	0.000115395	0.008712769	-2.24609375	-5.644226074	8.285522461	0.182154502	0.005769815	0.435644904	-0.428955078	0.209960938	-0.954589844	886.76	-34.89739286	11.04142045	154.579726	-83
10460	0	-0.056512833	-0.182408333	0.350449562	0.99996376	0.000370026	0.001145363	0.008384705	-1.412820816	-4.560208321	8.761239052	0.018501503	0.057268828	0.419240243	-0.421630859	0.212158203	-0.955078125	886.92	-34.71263071	11.69833652	155.2700877	-85
10461	0	-0.073730469	-0.171691895	0.309265137	0.999929428	-0.009394646	0.004032135	0.005950928	-1.843261719	-4.292297363	7.731628418	-0.46974324	0.201611453	0.297553326	-0.412841797	0.227539063	-0.95703125	886.86	-35.72674387	12.47005454	155.5043442	-86
10462	0	-0.104502678	-0.219733238	0.306064606	0.999915123	-0.01036644	0.004003525	0.006725311	-2.612566948	-5.493330956	7.651615143	-0.518336567	0.200181868	0.336275021	-0.404052734	0.247314453	-0.953125	886.86	-36.83474072	13.29795257	155.7921373	-85
10463	0	-0.115661621	-0.334228516	0.276611328	0.999999046	-0.00069046	0.000271797	-0.000797272	-2.891540527	-8.355712891	6.915283203	-0.034523017	0.013589862	-0.039863594	-0.395507813	0.26953125	-0.946777344	886.8	-36.94047806	13.26981	155.6957262	-82
10464	0	-0.143274307	-0.270876884	0.277563095	0.999814987	0.017511368	-0.005986214	-0.005191803	-3.581857681	-6.771922112	6.939077377	0.87562231	-0.299329117	-0.259606135	-0.399658203	0.258544922	-0.951416016	886.98	-34.95824872	12.36892388	155.6801731	-83
10465	0	-0.097290039	-0.196289063	0.345092773	0.999834061	0.015248299	-0.00553894	-0.008213043	-2.432250977	-4.907226563	8.627319336	0.762456953	-0.276962286	-0.410674794	-0.414550781	0.216308594	-0.958740234	886.86	-33.30423121	11.32019439	155.2827873	-84
10466	0	-0.119732857	-0.301568985	0.40080452	0.999785423	0.006893158	-0.00450325	-0.018968582	-2.993321419	-7.539224625	10.02011299	0.344682465	-0.225178556	-0.948496712	-0.427734375	0.185302734	-0.958251953	886.88	-32.80671651	9.707757021	153.7376608	-86
10467	0	-0.171875	-0.507873535	0.312255859	0.99861908	0.047104836	-0.010147095	-0.020896912	-4.296875	-12.69683838	7.806396484	2.356325948	-0.507588284	-1.045326548	-0.445068359	0.143066406	-0.959716797	886.86	-27.6480428	7.504903194	152.457407	-91
10468	0	-0.155273438	-0.419372559	0.396850586	0.996006966	0.084462166	-0.022914886	-0.017604828	-3.881835938	-10.48431396	9.921264648	4.228737408	-1.147271523	-0.881414696	-0.470458984	0.004882813	-0.952392578	886.86	-18.0666244	4.312413504	151.9274441	-74
10469	0	-0.218112946	-0.705023766	0.621227264	0.994758606	0.093142509	-0.038520813	-0.017126083	-5.452823639	-17.62559414	15.53068161	4.665277117	-1.929411913	-0.857803009	-0.518798828	-0.1640625	-0.923828125	886.88	-7.450667047	-0.407947564	151.3345865	-76
10470	0	0.048622131	-0.644870758	0.744326591	0.985657692	0.162778854	-0.044487	-0.00116539	1.215553284	-16.12176895	18.60816479	8.178075634	-2.235044891	-0.058549667	-0.595947266	-0.371826172	-0.817382813	886.86	11.24916593	-5.48756773	151.7769498	-74
10471	0	0.343688965	0.18359375	0.564575195	0.997003555	0.076378822	0.009979248	0.007083893	8.592224121	4.58984375	14.11437988	3.822759841	0.499461336	0.354548816	-0.644775391	-0.595703125	-0.640625	886.82	19.83877818	-4.59769457	153.0527666	-72
10472	0	0.157087326	0.072418213	0.436364174	0.997193336	-0.0008955	0.061218262	0.043070793	3.927183151	1.810455322	10.90910435	-0.044816932	3.063778992	2.155555998	-0.629394531	-0.612060547	-0.648925781	886.92	19.38781198	0.376882945	159.7087644	-79
10473	0	0.160705566	-0.016784668	0.323730469	0.996513367	0.027562141	0.060123444	0.0508461	4.01763916	-0.419616699	8.093261719	1.379710663	3.009670219	2.545263267	-0.58984375	-0.544677734	-0.741699219	886.88	22.82336234	4.72653251	167.6163334	-78
10474	0	0.09362793	-0.249389648	0.17388916	0.994828224	0.084617615	0.043064117	0.036071777	2.340698242	-6.234741211	4.347229004	4.23818889	2.156925181	1.806704271	-0.551269531	-0.534912109	-0.773925781	886.82	33.0804346	7.150976716	174.3578321	-74
10475	0	0.098361015	-0.10133934	-0.150129318	0.98938179	0.138243675	0.025661469	0.036741257	2.459025383	-2.533483505	-3.753232956	6.936748539	1.28763326	1.843591458	-0.523681641	-0.643310547	-0.707763672	886.86	49.52408578	6.576762176	-179.3912863	-76
10476	0	-0.048298836	0.07717514	-0.258853912	0.992929459	0.112640381	0.003220558	0.037311554	-1.207470894	1.92937851	-6.471347809	5.64532983	0.161408484	1.869986828	-0.544921875	-0.778320313	-0.540283203	886.82	62.63052189	3.248441227	-176.026458	-74
10477	0	0.003112793	0.068664551	-0.18951416	0.996735573	0.069004059	-0.005824089	0.041496277	0.077819824	1.71661377	-4.737854004	3.453961714	-0.291521701	2.077074218	-0.605712891	-0.820068359	-0.395996094	886.82	70.51222326	-1.356310702	-174.4472656	-69
10478	0	0.014799118	0.046715736	-0.127635956	0.997139931	0.058603287	-0.010957718	0.046438217	0.369977951	1.16789341	-3.190898895	2.93296052	-0.548408729	2.3241266	-0.677734375	-0.807861328	-0.293457031	886.86	77.1682276	-6.792442722	-173.9454459	-72
10479	0	0.170227051	0.264953613	-0.137817383	0.995070457	0.083698273	-0.010935783	0.052051544	4.25567627	6.623840332	-3.44543457	4.191803491	-0.547689379	2.606861977	-0.758300781	-0.772705078	-0.177978516	886.82	86.81663862	-12.85870003	-174.0984768	-81
10480	0	0.121373177	0.469628334	-0.181512833	0.997211456	0.056972504	-0.006819725	0.047698021	3.034329414	11.74070835	-4.537820816	2.851275103	-0.341303453	2.387119589	-0.838134766	-0.708251953	-0.050292969	886.82	93.54999673	-18.30364635	-174.8539554	-72
10481	0	0.17767334	0.411621094	-0.120910645	0.997612953	0.05386734	-0.010996819	0.041770935	4.441833496	10.29052734	-3.022766113	2.695511682	-0.550278755	2.090209824	-0.902832031	-0.631347656	0.022949219	886.76	100.3965157	-22.88628963	-176.7299564	-74
10482	0	0.243348122	0.37773037	-0.136377335	0.998166084	0.050319672	-0.008148193	0.032631874	6.083703041	9.443259239	-3.409433365	2.517522254	-0.407658823	1.63259152	-0.948486328	-0.552734375	0.106689453	886.8	106.9671946	-26.28595053	-178.6728182	-77
10483	0	0.255126953	0.323059082	-0.154724121	0.997947693	0.056206703	-0.008358002	0.029518127	6.378173828	8.076477051	-3.868103027	2.812259281	-0.418186204	1.476916865	-0.979248047	-0.483642578	0.166748047	886.82	114.4950971	-29.10238248	178.9899399	-79
10484	0	0.219629288	0.375023842	-0.20611763	0.998364449	0.050917625	-0.008029938	0.024721146	5.490732193	9.375596046	-5.15294075	2.547270065	-0.401715906	1.236731558	-1.005371094	-0.403808594	0.228759766	886.86	121.5614768	-31.16192059	176.5222864	-79
10485	0	0.183044434	0.198547363	-0.225097656	0.998706818	0.043869972	-0.009716034	0.023750305	4.57611084	4.963684082	-5.627441406	2.194444031	-0.486011082	1.18802709	-1.018798828	-0.337646484	0.279541016	886.76	128.1202608	-32.75199186	173.6192424	-87
10486	0	0.209937096	0.233768463	-0.306092262	0.998670578	0.046639442	-0.011744499	0.018504143	5.248427391	5.844211578	-7.652306557	2.333005478	-0.587485175	0.925617121	-1.030029297	-0.262695313	0.329589844	886.8	135.0353106	-33.43626799	170.7407057	-80
10487	0	0.166381836	0.081848145	-0.28717041	0.998701096	0.041703224	-0.014419556	0.025447845	4.159545898	2.046203613	-7.179260254	2.086063983	-0.721289932	1.272943157	-1.03125	-0.199462891	0.368164063	886.82	142.0148637	-34.1208813	166.7956185	-74
10488	0	0.094331741	0.188727379	-0.274512291	0.998556137	0.041187286	-0.022631645	0.025985718	2.358293533	4.718184471	-6.862807274	2.060355419	-1.132126851	1.29991119	-1.03125	-0.111572266	0.422119141	886.86	149.3762731	-33.6415985	162.0708447	-73
10489	0	0.161437988	-0.010925293	-0.201538086	0.998397827	0.0434618	-0.022766113	0.028171539	4.035949707	-0.273132324	-5.038452148	2.174250947	-1.1389138	1.409329493	-1.016357422	-0.030761719	0.472900391	886.86	157.0271626	-32.7549809	157.2192269	-78
10490	0	0.196545601	-0.013957977	-0.293633461	0.997211456	0.063838005	-0.021397591	0.032179832	4.913640022	-0.348949432	-7.340836525	3.194870152	-1.070875	1.610488707	-1.000488281	0.079101563	0.518310547	886.88	167.05061	-31.54644121	152.179154	-80
10491	0	0.16027832	-0.027404785	-0.352905273	0.995908737	0.074376106	-0.025211334	0.044692993	4.006958008	-0.685119629	-8.822631836	3.723884598	-1.262288441	2.237701827	-0.973144531	0.217773438	0.546142578	886.88	178.8101402	-29.29098098	145.8690289	-83
10492	0	0.148136139	-0.115777969	-0.41288662	0.994766235	0.08203125	-0.029515266	0.053286552	3.703403473	-2.894449234	-10.32216549	4.108732773	-1.478343222	2.668985348	-0.921142578	0.398193359	0.557373047	886.86	-168.7418879	-25.35830825	139.3520975	-86
10493	0	0.183105469	-0.210693359	-0.481872559	0.993273735	0.091495514	-0.036170006	0.0610466	4.577636719	-5.267333984	-12.04681396	4.585059728	-1.812565773	3.059191612	-0.835449219	0.594970703	0.532958984	886.88	-155.9639352	-19.25191359	133.5036519	-85
10494	0	0.081359863	-0.28338623	-0.432983398	0.992740631	0.088875771	-0.048007011	0.065280914	2.033996582	-7.084655762	-10.82458496	4.454572234	-2.406175482	3.271966548	-0.713378906	0.794677734	0.477294922	886.94	-144.6902199	-10.72493662	129.5976417	-81
10495	0	-0.01441288	-0.079958916	-0.170603752	0.991373062	0.100665092	-0.057006836	0.06159687	-0.360321999	-1.998972893	-4.265093803	5.047776877	-2.858565777	3.088729674	-0.548583984	0.970214844	0.377197266	886.94	-132.9655346	-1.116131712	128.5855107	-91
10496	0	0.011294365	-0.053650856	-0.146428108	0.995425224	0.067259789	-0.060983658	0.0297575	0.282359123	-1.3412714	-3.660702705	3.368127007	-3.053841076	1.490147986	-0.395263672	1.098876953	0.235107422	886.88	-125.0757257	5.971009587	131.8621738	-81
10497	0	0.145385742	-0.95880127	-0.803955078	0.997449875	0.060307503	-0.037826538	-0.004943848	3.634643555	-23.97003174	-20.09887695	3.01794021	-1.892935789	-0.247402661	-0.333740234	1.149902344	0.157226563	886.88	-117.6595363	7.758195338	135.887493	-82
10498	0	0.097120285	-0.203458786	0.162853241	0.999269485	0.026125908	-0.003407478	0.027653694	2.428007126	-5.08646965	4.071331024	1.306613229	-0.17041537	1.383021129	-0.344238281	1.165283203	0.039550781	886.78	-114.8072915	10.78090905	134.8335689	-83
10499	0	-0.14251709	-0.717834473	-0.78314209	0.998914719	0.025776863	-0.010028839	0.037471771	-3.562927246	-17.94586182	-19.57855225	1.289309561	-0.501623417	1.874266576	-0.227783203	1.203613281	0.020996094	886.82	-111.9963101	15.18312504	134.1698888	-85
10500	0	-0.161546707	-0.554117203	-0.399364471	0.996928215	0.072827339	-0.028049469	0.006492615	-4.038667679	-13.85293007	-9.984111786	3.645099199	-1.403910923	0.324963469	-0.166015625	1.214111328	-0.088623047	886.86	-102.8275716	16.8578154	137.1303427	-82
10501	0	-0.197937012	-0.354064941	0.026489258	0.9971838	0.069107056	-0.028880119	0.003734589	-4.948425293	-8.851623535	0.662231445	3.458599705	-1.445362868	0.186904897	-0.173583984	1.179443359	-0.2578125	886.94	-93.8952318	17.76989175	140.4971658	-83
10502	0	-0.140832901	-0.250994682	0.127837181	0.999645233	0.020602226	-0.016587257	-0.00287056	-3.520822525	-6.274867058	3.195929527	1.030232875	-0.829460742	-0.143544922	-0.186523438	1.138671875	-0.370605469	886.94	-90.91464263	17.53082066	142.5041189	-90
10503	0	-0.169189453	-0.27947998	0.055725098	0.999659538	0.020946503	-0.009295464	-0.012432098	-4.229736328	-6.986999512	1.393127441	1.047443818	-0.464825847	-0.62167536	-0.211669922	1.119140625	-0.402832031	886.94	-88.18124033	16.11098166	143.6098676	-87
10504	0	-0.108794212	-0.262618065	0.073831558	0.999146461	0.028933525	-0.004415512	-0.029120445	-2.719855309	-6.565451622	1.845788956	1.447087582	-0.220838376	-1.456436247	-0.254882813	1.088623047	-0.453369141	886.86	-84.76925579	12.76302924	143.9258379	-80
10505	0	0.063720703	-0.551025391	0.015625	0.998575211	0.033551216	0.012397766	-0.039577484	1.593017578	-13.77563477	0.390625	1.678357484	0.620182692	-1.979813979	-0.328613281	1.036865234	-0.515136719	886.88	-81.27334375	8.436674676	141.9368762	-81
10506	0	0.085012436	-0.513069153	-0.106646538	0.993432999	0.101969719	0.014801979	-0.049734116	2.125310898	-12.82672882	-2.666163445	5.109675528	0.741723239	-2.492163321	-0.404296875	0.944335938	-0.622802734	886.88	-69.86470514	3.33274919	138.8660316	-79
10507	0	-0.03137207	-0.184387207	-0.005554199	0.998592377	0.044892311	0.019374847	-0.020545959	-0.784301758	-4.609680176	-0.13885498	2.24566918	0.969197099	-1.027780189	-0.455322266	0.758056641	-0.814941406	886.82	-64.85509522	2.01155064	135.9039989	-83
10508	0	-0.214904785	-0.256713867	0.032165527	0.998980522	-0.04064846	0.009571075	-0.017101288	-5.372619629	-6.41784668	0.804138184	-2.033113442	0.478716339	-0.855354861	-0.455078125	0.710693359	-0.843261719	886.98	-69.5613267	0.637851912	134.1248698	-79
10509	0	-0.10537529	-0.502886772	0.111187935	0.999217033	0.039083481	-0.004010201	-0.004160881	-2.634382248	-12.5721693	2.779698372	1.954682782	-0.200562225	-0.208098213	-0.465087891	0.758544922	-0.796875	886.88	-65.08891175	0.033775019	134.365757	-84
10510	0	-0.030845642	-0.353181839	0.192050934	0.999772072	0.020650864	-0.003509521	-0.004014969	-0.771141052	-8.829545975	4.801273346	1.032621482	-0.175489381	-0.200763667	-0.487304688	0.677978516	-0.844482422	886.92	-62.7302464	-0.541919639	134.5219775	-79
10511	0	-0.062316895	-0.353149414	0.225830078	0.999826431	0.015595436	-0.009788513	0.002807617	-1.557922363	-8.828735352	5.645751953	0.779816898	-0.489453962	0.140388977	-0.504882813	0.646972656	-0.861328125	886.86	-60.96072649	-0.769975706	135.6602159	-79
10512	0	-0.031337738	-0.282026291	0.222496986	0.998466492	0.05014801	-0.015152931	0.017883301	-0.783443451	-7.050657272	5.56242466	2.508682831	-0.758034031	0.894622327	-0.515136719	0.613769531	-0.872558594	886.94	-55.22645308	0.071288661	138.2189853	-85
10513	0	0.038024902	-0.184753418	0.240661621	0.997032166	0.071061134	-0.016284943	0.024711609	0.950622559	-4.618835449	6.016540527	3.556575075	-0.815053427	1.236803958	-0.52734375	0.526123047	-0.917236328	886.86	-47.03395905	1.122069442	141.4517104	-85
10514	0	0.138358116	-0.317215919	0.45316124	0.996601105	0.07930088	-0.014224052	0.017149925	3.458952904	-7.930397987	11.32903099	3.96954162	-0.712009347	0.85846893	-0.534179688	0.424804688	-0.966796875	886.82	-37.86973862	1.254351728	144.0058188	-81
10515	0	0.039001465	-0.038391113	0.518310547	0.999750137	0.011212349	0.002357483	0.019176483	0.975036621	-0.959777832	12.95776367	0.560664083	0.117883951	0.95890392	-0.546875	0.292480469	-1.004638672	886.86	-36.50041626	2.803320265	145.5917675	-83
10516	0	-0.028353691	-0.070810318	0.282002449	0.997948647	-0.061087608	0.004497528	0.018568039	-0.708842278	-1.77025795	7.050061226	-3.056469749	0.225030229	0.929037015	-0.520996094	0.356689453	-0.996826172	886.98	-43.38902037	4.569867267	146.8905223	-89
10517	0	-0.04309082	-0.278625488	0.275024414	0.999653816	-0.025432587	-0.002673149	0.006183624	-1.077270508	-6.965637207	6.875610352	-1.271776083	-0.13367288	0.309216894	-0.503417969	0.486816406	-0.950195313	886.92	-46.21247741	4.856569218	147.6192747	-88
10518	0	-0.027051926	-0.312618256	0.296017647	0.999714851	-0.023542404	0.001379013	0.003499031	-0.676298141	-7.81545639	7.40044117	-1.177231748	0.068957187	0.174968131	-0.502929688	0.522949219	-0.935791016	886.92	-48.86586316	5.262696825	147.78007	-83
10519	0	-0.025024414	-0.369445801	0.274169922	0.999760628	-0.021327972	0.003430367	0.003387451	-0.625610352	-9.23614502	6.854248047	-1.066483617	0.171531997	0.169386058	-0.493896484	0.581054688	-0.908935547	886.88	-51.28701712	5.815064375	147.7350227	-81
10520	0	-0.042526245	-0.308117867	0.216140747	0.999982834	-0.00497818	0.002356529	0.001551628	-1.063156128	-7.702946663	5.403518677	-0.248910355	0.117827105	0.077581829	-0.483642578	0.614746094	-0.892089844	886.82	-51.84201896	6.124639482	147.6419509	-81
10521	0	-0.08215332	-0.290527344	0.223632813	0.999995232	-0.002883911	0.000882149	0.000572205	-2.053833008	-7.263183594	5.590820313	-0.144195783	0.044107506	0.028610274	-0.479003906	0.616699219	-0.889404297	886.86	-52.15172099	6.243053218	147.6088156	-81
10522	0	-0.056606293	-0.35444355	0.234371185	0.999997139	0.001800537	0.000139236	-0.001447678	-1.415157318	-8.861088753	5.859279633	0.090026936	0.006961829	-0.072383945	-0.474365234	0.62109375	-0.887207031	886.86	-51.93532709	6.126902015	147.4991867	-82
10523	0	-0.04510498	-0.321166992	0.239074707	0.999948502	0.009991646	-0.000778198	-0.001438141	-1.127624512	-8.029174805	5.976867676	0.499590826	-0.038910577	-0.071908272	-0.478759766	0.612304688	-0.892089844	886.88	-50.7725818	5.947290513	147.4715295	-83
10524	0	-0.036120415	-0.284166336	0.265429497	0.999939919	0.010876656	-0.000638962	-0.000941277	-0.903010368	-7.104158401	6.635737419	0.54384362	-0.031948726	-0.047064766	-0.482421875	0.592041016	-0.901855469	886.92	-49.5054286	5.822004189	147.4639381	-84
10525	0	-0.039245605	-0.277404785	0.282226563	0.999990463	0.00414753	0.000442505	-0.000640869	-0.981140137	-6.935119629	7.055664063	0.207377096	0.02212531	-0.032043552	-0.486328125	0.57421875	-0.917724609	886.94	-49.01561691	5.803724137	147.3814321	-85
10526	0	-0.046151161	-0.278351784	0.276812553	0.999995232	-0.002439499	0.001249313	-0.000792503	-1.15377903	-6.958794594	6.920313835	-0.121975111	0.062465752	-0.039625222	-0.486083984	0.569580078	-0.917236328	886.92	-49.2881478	5.833152153	147.2172519	-85
10527	0	-0.047973633	-0.293884277	0.260803223	0.999993324	-0.003013611	0.000779152	-0.001644135	-1.19934082	-7.347106934	6.520080566	-0.150680853	0.038957676	-0.082206896	-0.483886719	0.573974609	-0.917724609	886.86	-49.62906721	5.752780701	147.030373	-85
10528	0	-0.044265747	-0.304689407	0.258475304	0.999998093	-0.000278473	4.76837E-06	-0.001786232	-1.106643677	-7.617235184	6.461882591	-0.013923653	0.000238419	-0.089311648	-0.486328125	0.57421875	-0.911865234	887	-49.65118664	5.602002418	146.9017265	-86
10529	0	-0.038085938	-0.299987793	0.26159668	0.999995232	0.002788544	-0.000674248	-0.001029968	-0.952148438	-7.499694824	6.539916992	0.139427401	-0.033712439	-0.051498493	-0.486328125	0.576416016	-0.914794922	886.86	-49.3107553	5.466707342	146.8887377	-87
10530	0	-0.03810215	-0.289595604	0.269737244	0.999993324	0.003498077	-0.000917435	0	-0.952553749	-7.239890099	6.743431091	0.174904251	-0.045871835	0	-0.490722656	0.567382813	-0.919677734	886.86	-48.87950121	5.402317381	146.9732517	-86
10531	0	-0.036682129	-0.28302002	0.275390625	0.999998093	0.001202583	-0.00075531	0.000480652	-0.917053223	-7.075500488	6.884765625	0.060129188	-0.037765517	0.024032602	-0.490478516	0.560791016	-0.919189453	886.88	-48.70874069	5.390948494	147.0796205	-86
10532	0	-0.037459373	-0.285562515	0.273875237	0.999998093	-0.001556396	-0.000288963	0.000721931	-0.936484337	-7.139062881	6.846880913	-0.077819863	-0.014448173	0.036096591	-0.490234375	0.560791016	-0.922119141	886.92	-48.85589405	5.435359444	147.1636332	-85
10533	0	-0.038696289	-0.289794922	0.267456055	0.999995232	-0.002811432	1.62125E-05	0.000556946	-0.967407227	-7.244873047	6.686401367	-0.140571787	0.000810624	0.027847328	-0.490478516	0.565185547	-0.919677734	886.88	-49.15059012	5.488600008	147.2088219	-85
10534	0	-0.039464951	-0.299725533	0.26412487	0.999996185	-0.002362251	5.24521E-05	0.00082016	-0.986623764	-7.493138313	6.603121758	-0.118112687	0.002622607	0.041008038	-0.488525391	0.572021484	-0.917236328	886.86	-49.39264623	5.567444401	147.2705428	-84
10535	0	-0.042541504	-0.298950195	0.260009766	0.999998093	-0.001284599	-1.52588E-05	0.000617981	-1.063537598	-7.473754883	6.500244141	-0.064229987	-0.00076294	0.030899058	-0.488769531	0.576416016	-0.914794922	886.92	-49.51256133	5.623821241	147.3229682	-84
10536	0	-0.043453217	-0.299443245	0.25942421	0.999999046	0.000201225	-0.000154495	0.000163078	-1.086330414	-7.486081123	6.48560524	0.010061264	-0.007724762	0.008153916	-0.488769531	0.576416016	-0.911865234	886.92	-49.46481455	5.630273525	147.3535018	-84
10537	0	-0.042053223	-0.299621582	0.26159668	0.999999046	0.000854492	-0.000216484	-0.000205994	-1.051330566	-7.490539551	6.539916992	0.042724615	-0.010824205	-0.010299684	-0.486572266	0.578613281	-0.912109375	886.92	-49.34479724	5.599925084	147.3616458	-85
10538	0	-0.041085243	-0.29693222	0.262671471	0.999999046	0.001218796	-0.000156403	-0.00024128	-1.027131081	-7.423305511	6.566786766	0.060939805	-0.007820131	-0.012063983	-0.486572266	0.576416016	-0.90625	886.88	-49.18410843	5.570949654	147.3619975	-85
10539	0	-0.041687012	-0.294921875	0.265319824	0.999998093	0.00167942	-0.000190735	-0.000259399	-1.042175293	-7.373046875	6.632995605	0.083971064	-0.009536748	-0.012969977	-0.488769531	0.57421875	-0.914550781	886.92	-48.97066626	5.537839005	147.3632347	-85
10540	0	-0.040213585	-0.292216301	0.267477036	0.999998093	0.001386642	-0.000203133	-0.000461578	-1.005339622	-7.305407524	6.686925888	0.069332148	-0.010156635	-0.023078927	-0.488525391	0.569824219	-0.911376953	886.94	-48.79220747	5.486292935	147.3502254	-85
10541	0	-0.038269043	-0.291809082	0.26940918	0.999999046	0.000770569	-9.05991E-05	-0.00019455	-0.956726074	-7.295227051	6.735229492	0.038528446	-0.004529953	-0.009727479	-0.490966797	0.567626953	-0.910888672	886.92	-48.683371	5.466151227	147.3476657	-85
10542	0	-0.0385952	-0.292572975	0.267364502	0.999999046	0.000789642	-7.24792E-05	6.38962E-05	-0.96487999	-7.314324379	6.684112549	0.039482121	-0.003623963	0.003194809	-0.490722656	0.567626953	-0.916748047	886.82	-48.57081546	5.469496635	147.3627415	-85
10543	0	-0.039733887	-0.290283203	0.268432617	0.999999046	0.000553131	-0.000231743	0.000190735	-0.993347168	-7.257080078	6.71081543	0.027656557	-0.011587144	0.009536744	-0.490478516	0.562988281	-0.916503906	886.98	-48.48322116	5.471563563	147.4010651	-84
10544	0	-0.038376808	-0.289726257	0.270357132	0.999999046	-0.000277519	-8.39233E-05	0.000144958	-0.959420204	-7.243156433	6.758928299	-0.013875962	-0.004196167	0.007247925	-0.490478516	0.562988281	-0.919433594	886.88	-48.49237828	5.480765956	147.4230648	-84
10545	0	-0.03918457	-0.290710449	0.269897461	0.999999046	-0.000858307	-5.24521E-05	0.000179291	-0.979614258	-7.26776123	6.747436523	-0.04291535	-0.002622605	0.00896454	-0.493164063	0.567626953	-0.913818359	886.88	-48.56815152	5.495220872	147.4457596	-84
10546	0	-0.039505959	-0.293352127	0.266590118	0.999999046	-0.000741959	-0.000219345	0.000201225	-0.987648964	-7.333803177	6.66475296	-0.037097935	-0.010967256	0.010061265	-0.493164063	0.565429688	-0.916503906	886.94	-48.62933377	5.498842205	147.4837183	-84
10547	0	-0.039550781	-0.296691895	0.264770508	0.999999046	-0.000114441	-0.000170708	3.8147E-06	-0.988769531	-7.417297363	6.619262695	-0.005722046	-0.008535385	0.000190735	-0.490722656	0.567626953	-0.913818359	886.88	-48.62088526	5.489096653	147.502604	-84
10548	0	-0.038485527	-0.294006348	0.265631676	0.999999046	0.000796318	-0.000267029	-4.29153E-05	-0.962138176	-7.350158691	6.640791893	0.039815907	-0.013351442	-0.002145767	-0.490966797	0.567626953	-0.910888672	886.92	-48.50791557	5.467890396	147.5264186	-85
10549	0	-0.039001465	-0.293273926	0.268493652	0.999999046	0.000766754	-7.15256E-05	-1.14441E-05	-0.975036621	-7.331848145	6.712341309	0.038337711	-0.003576279	-0.000572205	-0.490722656	0.565429688	-0.910888672	886.92	-48.39990742	5.464112463	147.5354877	-85
10550	0	-0.039322853	-0.292190552	0.269741058	0.999999046	0.000356674	-7.05719E-05	-7.62939E-06	-0.983071327	-7.304763794	6.743526459	0.01783371	-0.003528595	-0.00038147	-0.493164063	0.565429688	-0.916503906	886.86	-48.33900684	5.460657611	147.5444859	-85
10551	0	-0.039123535	-0.290527344	0.269042969	0.999999046	0.000255585	-2.95639E-05	2.67029E-05	-0.978088379	-7.263183594	6.726074219	0.012779236	-0.001478195	0.001335144	-0.490722656	0.565185547	-0.916748047	886.92	-48.28989548	5.463193563	147.552493	-85
10552	0	-0.038269043	-0.292036057	0.269804001	0.999999046	0.000113487	-8.96454E-05	-3.8147E-05	-0.956726074	-7.300901413	6.745100021	0.005674362	-0.004482269	-0.001907349	-0.492919922	0.562988281	-0.919189453	886.82	-48.25720763	5.455477687	147.5605726	-85
10553	0	-0.038696289	-0.291870117	0.268554688	0.999999046	-0.000156403	8.10623E-05	1.14441E-05	-0.967407227	-7.29675293	6.713867188	-0.007820129	0.004053116	0.000572205	-0.490722656	0.565185547	-0.916748047	886.88	-48.25668809	5.464939419	147.5580048	-85
10554	0	-0.039357185	-0.292625427	0.269310951	0.999999046	-0.000310898	-7.43866E-05	0.000151634	-0.983929634	-7.315635681	6.732773781	-0.015544892	-0.00371933	0.007581711	-0.492919922	0.565429688	-0.922363281	886.88	-48.27178227	5.474467986	147.5791612	-85
10555	0	-0.03918457	-0.292602539	0.267089844	0.999999046	-0.000125885	-8.29697E-05	0.000118256	-0.979614258	-7.315063477	6.677246094	-0.006294251	-0.004148483	0.005912781	-0.492919922	0.565429688	-0.919433594	886.94	-48.26612278	5.480421209	147.5986989	-85
10556	0	-0.039209366	-0.292600632	0.268609047	0.999999046	-0.000195503	-0.000125885	9.44138E-05	-0.980234146	-7.315015793	6.715226173	-0.009775162	-0.006294251	0.004720688	-0.493164063	0.565429688	-0.913574219	886.86	-48.26846953	5.480990685	147.6203193	-85
10557	0	-0.038391113	-0.293457031	0.265991211	0.999999046	-0.000225067	-4.86374E-05	3.8147E-05	-0.959777832	-7.336425781	6.649780273	-0.011253357	-0.00243187	0.001907349	-0.490722656	0.565185547	-0.913818359	886.82	-48.27559958	5.482534016	147.6305021	-85
10558	0	-0.038692474	-0.292963982	0.265618324	0.999999046	3.05176E-05	-7.43866E-05	0.00014782	-0.967311859	-7.324099541	6.640458107	0.001525879	-0.00371933	0.007390976	-0.490478516	0.562988281	-0.919433594	886.98	-48.25276121	5.491404818	147.6507569	-85
10559	0	-0.039733887	-0.291992188	0.267333984	0.999999046	7.24792E-05	-2.19345E-05	0.000106812	-0.993347168	-7.299804688	6.683349609	0.003623962	-0.001096725	0.005340576	-0.493408203	0.569824219	-0.9140625	886.88	-48.2260497	5.500736333	147.664457	-85
10560	0	-0.038991928	-0.293837547	0.266523361	0.999999046	4.86374E-05	-2.09808E-05	4.48227E-05	-0.974798203	-7.345938683	6.66308403	0.00243187	-0.001049042	0.002241135	-0.490722656	0.565429688	-0.910888672	886.78	-48.20286859	5.504762646	147.6726455	-85
10561	0	-0.039306641	-0.294494629	0.267700195	0.999999046	0.000354767	-9.82285E-05	0.000137329	-0.982666016	-7.362365723	6.692504883	0.017738343	-0.004911423	0.006866455	-0.490722656	0.565185547	-0.916748047	886.92	-48.14359668	5.510714696	147.6941157	-85
10562	0	-0.038235664	-0.291731834	0.26718235	0.999999046	0.000379562	-0.000143051	0.000141144	-0.955891609	-7.29329586	6.679558754	0.018978119	-0.007152558	0.00705719	-0.493164063	0.567626953	-0.913818359	886.92	-48.08131194	5.513432561	147.7202783	-85
10563	0	-0.039001465	-0.29119873	0.269104004	0.999999046	4.57764E-05	-3.71933E-05	0.000156403	-0.975036621	-7.279968262	6.727600098	0.002288818	-0.001859665	0.007820129	-0.493164063	0.565429688	-0.913574219	886.86	-48.05819044	5.525466278	147.7381816	-85
10564	0	-0.03882885	-0.292627335	0.26809597	0.999999046	-0.000231743	4.57764E-05	-5.34058E-05	-0.970721245	-7.315683365	6.702399254	-0.011587143	0.002288818	-0.002670288	-0.492919922	0.563232422	-0.916259766	886.88	-48.06936524	5.525883267	147.7324122	-85
10565	0	-0.038085938	-0.29309082	0.26776123	0.999999046	-4.19617E-05	4.76837E-06	0.000164032	-0.952148438	-7.327270508	6.694030762	-0.002098084	0.000238419	0.008201599	-0.492919922	0.565429688	-0.919433594	886.94	-48.05711368	5.541574021	147.7469171	-85
10566	0	-0.039466858	-0.293344498	0.267674446	0.999999046	-0.000110626	4.57764E-05	0.000228882	-0.986671448	-7.333612442	6.691861153	-0.005531311	0.002288818	0.011444092	-0.490722656	0.567626953	-0.913818359	886.98	-48.05286032	5.565877535	147.7632573	-85
10567	0	-0.040588379	-0.293945313	0.266418457	0.999999046	0.000144958	-0.000121117	0.000171661	-1.014709473	-7.348632813	6.660461426	0.007247925	-0.006055832	0.008583069	-0.493164063	0.565429688	-0.913574219	887	-48.01870685	5.572510177	147.7892478	-84
10568	0	-0.039525032	-0.292266846	0.269380569	0.999999046	0.000178337	-0.000127792	4.86374E-05	-0.988125801	-7.306671143	6.734514236	0.008916855	-0.006389618	0.00243187	-0.490722656	0.565185547	-0.913818359	886.92	-47.98176359	5.568077144	147.8060826	-84
10569	0	-0.03894043	-0.292663574	0.267456055	0.999999046	0.000225067	-0.000109673	9.53674E-05	-0.973510742	-7.316589355	6.686401367	0.011253357	-0.005483627	0.004768372	-0.490722656	0.565185547	-0.916748047	886.86	-47.9395404	5.568917192	147.8247839	-84
10570	0	-0.040219307	-0.293451309	0.268328667	0.999999046	0.000171661	-7.62939E-05	7.9155E-05	-1.005482674	-7.33628273	6.708216667	0.008583069	-0.003814697	0.003957748	-0.490722656	0.562988281	-0.913574219	886.82	-47.90410716	5.570910011	147.839464	-84
10571	0	-0.039123535	-0.291625977	0.269287109	0.999999046	4.57764E-05	2.00272E-05	3.8147E-05	-0.978088379	-7.290649414	6.732177734	0.002288818	0.001001358	0.001907349	-0.490722656	0.565185547	-0.916748047	886.82	-47.88437882	5.576738811	147.8426528	-84
10572	0	-0.039645195	-0.292697906	0.268030167	0.999999046	-0.000115395	0	0.000144005	-0.991129875	-7.317447662	6.700754166	-0.00576973	0	0.007200241	-0.490722656	0.565185547	-0.916748047	886.86	-47.88242476	5.58998085	147.8556498	-84
10573	0	-0.040466309	-0.292663574	0.267700195	0.999999046	-0.000118256	6.19888E-05	9.53674E-05	-1.011657715	-7.316589355	6.692504883	-0.005912781	0.003099442	0.004768372	-0.490722656	0.565185547	-0.913818359	886.92	-47.8819496	5.603847469	147.8596837	-84
10574	0	-0.039273262	-0.293147087	0.267686844	0.999999046	-1.71661E-05	-8.58307E-05	2.57492E-05	-0.981831551	-7.328677177	6.692171097	-0.000858307	-0.004291534	0.00128746	-0.490722656	0.567626953	-0.916748047	886.92	-47.86946791	5.600361113	147.8707623	-84
10575	0	-0.0390625	-0.293029785	0.268798828	0.999999046	-3.05176E-05	-1.43051E-05	0.000144958	-0.9765625	-7.325744629	6.719970703	-0.001525879	-0.000715256	0.007247925	-0.490478516	0.565185547	-0.919677734	886.86	-47.85844644	5.61241538	147.8845484	-84
10576	0	-0.040909767	-0.291935921	0.268110275	0.999999046	-0.000340462	-9.91821E-05	0.000148773	-1.022744179	-7.298398018	6.702756882	-0.017023087	-0.004959107	0.00743866	-0.490722656	0.567382813	-0.919677734	886.98	-47.88241499	5.61828494	147.9060433	-84
10577	0	-0.040405273	-0.29486084	0.26574707	0.999999046	-0.000175476	-6.77109E-05	9.91821E-05	-1.010131836	-7.371520996	6.643676758	-0.008773804	-0.003385544	0.004959106	-0.490722656	0.565185547	-0.913818359	886.88	-47.88851816	5.622343733	147.9210926	-84
10578	0	-0.040610313	-0.294032097	0.268517494	0.999999046	0.000192642	-0.000108719	4.86374E-05	-1.015257835	-7.350802422	6.712937355	0.009632111	-0.005435944	0.00243187	-0.490722656	0.567626953	-0.913818359	886.92	-47.85272444	5.61893839	147.9357332	-84
10579	0	-0.040222168	-0.290588379	0.268432617	0.999999046	0.000156403	-0.000124931	3.05176E-05	-1.005554199	-7.264709473	6.71081543	0.007820129	-0.006246567	0.001525879	-0.490722656	0.565185547	-0.913818359	886.88	-47.821219	5.61272239	147.9500652	-84
10580	0	-0.039928436	-0.290929794	0.26944828	0.999999046	-0.000170708	1.52588E-05	0.000118256	-0.998210907	-7.273244858	6.736207008	-0.008535385	0.000762939	0.005912781	-0.490478516	0.565185547	-0.919677734	886.92	-47.82781696	5.624705901	147.9588506	-85
10581	0	-0.039733887	-0.294433594	0.26751709	0.999999046	-0.000228882	1.23978E-05	0.000125885	-0.993347168	-7.360839844	6.687927246	-0.011444092	0.000619888	0.006294251	-0.490722656	0.565185547	-0.916748047	886.98	-47.84130822	5.637063045	147.9687146	-85
10582	0	-0.040608406	-0.293813705	0.266465187	0.999999046	0.000230789	-2.47955E-05	7.9155E-05	-1.015210152	-7.345342636	6.661629677	0.011539459	-0.001239777	0.003957748	-0.490966797	0.567626953	-0.910888672	886.92	-47.80248184	5.642582713	147.9785387	-85
10583	0	-0.04119873	-0.291503906	0.268066406	0.999999046	0.000366211	-4.48227E-05	6.10352E-05	-1.029968262	-7.287597656	6.701660156	0.018310547	-0.002241135	0.003051758	-0.490722656	0.567626953	-0.916748047	886.88	-47.74828545	5.645044572	147.9880732	-85
10584	0	-0.040782928	-0.291546822	0.268710136	0.999999046	8.29697E-05	-0.000127792	0	-1.019573212	-7.28867054	6.71775341	0.004148483	-0.006389618	0	-0.490722656	0.565185547	-0.916748047	886.86	-47.72648201	5.635933025	147.9998	-85
10585	0	-0.039855957	-0.291992188	0.267272949	0.999999046	-0.000225067	-1.43051E-05	0.000164032	-0.996398926	-7.299804688	6.68182373	-0.011253357	-0.000715256	0.008201599	-0.490722656	0.565185547	-0.916748047	886.88	-47.73992187	5.649435669	148.0145384	-85
10586	0	-0.041043282	-0.294723511	0.26628685	0.999999046	4.76837E-05	-0.000185013	7.15256E-05	-1.026082039	-7.368087769	6.657171249	0.002384186	-0.009250641	0.003576279	-0.490722656	0.567382813	-0.919677734	886.82	-47.7217536	5.641944787	148.0365528	-85
10587	0	-0.04095459	-0.292358398	0.267150879	0.999999046	0.000335693	-0.00014019	4.19617E-05	-1.023864746	-7.308959961	6.678771973	0.016784668	-0.007009506	0.002098084	-0.490722656	0.567382813	-0.919677734	886.86	-47.6714313	5.635407223	148.0524613	-84
10588	0	-0.039683342	-0.290283203	0.268333435	0.999999046	5.43594E-05	3.8147E-06	0.000117302	-0.992083549	-7.257080078	6.708335876	0.002717972	0.000190735	0.005865097	-0.490722656	0.567382813	-0.919677734	886.92	-47.65411182	5.646311159	148.0619171	-84
10589	0	-0.040588379	-0.292907715	0.268310547	0.999999046	-0.000324249	9.25064E-05	5.72205E-05	-1.014709473	-7.322692871	6.707763672	-0.016212464	0.004625321	0.002861023	-0.48828125	0.565185547	-0.913818359	886.92	-47.68161455	5.658960546	148.0591348	-84
10590	0	-0.041342735	-0.293992996	0.268051147	0.999999046	2.09808E-05	-9.91821E-05	-3.52859E-05	-1.033568382	-7.349824905	6.701278687	0.001049042	-0.004959106	-0.001764297	-0.490722656	0.567626953	-0.916748047	886.82	-47.66892527	5.649004078	148.0654527	-84
10591	0	-0.03918457	-0.292785645	0.268920898	0.999999046	0.00050354	-0.00014782	0	-0.979614258	-7.319641113	6.723022461	0.025177003	-0.007390976	0	-0.490722656	0.565185547	-0.913818359	886.92	-47.60045048	5.638189187	148.0786084	-84
10592	0	-0.039714813	-0.289034843	0.270810127	0.999999046	6.19888E-05	-3.8147E-05	0.000152588	-0.992870331	-7.225871086	6.770253181	0.003099442	-0.001907349	0.007629395	-0.48828125	0.565185547	-0.913818359	886.92	-47.58231776	5.64870675	148.0941127	-84
10593	0	-0.04095459	-0.293395996	0.270202637	0.999999046	-0.000431061	7.34329E-05	5.72205E-05	-1.023864746	-7.334899902	6.755065918	-0.02155304	0.003671646	0.002861023	-0.490722656	0.565185547	-0.913818359	886.88	-47.62253051	5.659780789	148.0927319	-84
10594	0	-0.040844917	-0.294904709	0.267622948	0.999999046	7.82013E-05	-3.24249E-05	3.71933E-05	-1.021122932	-7.372617722	6.690573692	0.003910065	-0.001621246	0.001859665	-0.48828125	0.565185547	-0.913818359	886.88	-47.60397897	5.660978788	148.0985985	-84
10595	0	-0.040527344	-0.293151855	0.268676758	0.999999046	0.000305176	-0.000197411	7.62939E-06	-1.013183594	-7.328796387	6.716918945	0.015258789	-0.009870529	0.00038147	-0.490722656	0.565185547	-0.916748047	886.88	-47.55847819	5.646902721	148.116143	-84
10596	0	-0.039875984	-0.292132378	0.269968987	0.999999046	0.000163078	-0.000101089	-3.91006E-05	-0.996899605	-7.303309441	6.749224663	0.008153915	-0.005054474	-0.001955032	-0.490722656	0.567382813	-0.919677734	886.94	-47.53056261	5.636269427	148.1218288	-84
10597	0	-0.039794922	-0.291992188	0.269897461	0.999999046	-1.52588E-05	-8.29697E-05	-3.8147E-05	-0.994873047	-7.299804688	6.747436523	-0.000762939	-0.004148483	-0.001907349	-0.490722656	0.567626953	-0.916748047	886.92	-47.52336753	5.627073199	148.1261739	-84
10598	0	-0.038995743	-0.294261932	0.268185616	0.999999046	-2.67029E-05	-7.82013E-05	0.000128746	-0.97489357	-7.356548309	6.704640388	-0.001335144	-0.003910065	0.006437302	-0.490722656	0.567626953	-0.916748047	886.86	-47.51654537	5.6322643	148.1429193	-84
10599	0	-0.041137695	-0.29296875	0.26739502	0.999999046	0.000156403	-3.71933E-05	0.0001297	-1.028442383	-7.32421875	6.684875488	0.007820129	-0.001859665	0.006484985	-0.490966797	0.567626953	-0.910888672	886.88	-47.48934397	5.640741325	148.1564715	-84
10600	0	-0.041499138	-0.29244709	0.268404961	0.999999046	5.24521E-05	-4.3869E-05	3.8147E-05	-1.037478447	-7.311177254	6.710124016	0.002622604	-0.002193451	0.001907349	-0.490722656	0.565185547	-0.916748047	886.88	-47.47491683	5.641015025	148.162786	-84
10601	0	-0.040039063	-0.291687012	0.268432617	0.999999046	-0.000148773	-3.33786E-05	-6.48499E-05	-1.000976563	-7.292175293	6.71081543	-0.00743866	-0.00166893	-0.003242493	-0.490722656	0.567626953	-0.916748047	886.86	-47.48460705	5.63337688	148.1603954	-84
10602	0	-0.040349007	-0.292749405	0.268836021	0.999999046	-0.000291824	5.72205E-06	-7.62939E-06	-1.008725166	-7.318735123	6.720900536	-0.014591217	0.000286102	-0.00038147	-0.490722656	0.565185547	-0.913818359	886.82	-47.51077787	5.633588778	148.1590697	-84
10603	0	-0.040039063	-0.293701172	0.267944336	0.999999046	0.000202179	-6.67572E-06	-3.8147E-06	-1.000976563	-7.342529297	6.698608398	0.010108948	-0.000333786	-0.000190735	-0.490722656	0.565185547	-0.913818359	886.82	-47.48046335	5.633136241	148.1590642	-85
10604	0	-0.039606094	-0.290967941	0.270381927	0.999999046	0.000313759	-0.000118256	1.90735E-05	-0.990152359	-7.274198532	6.759548187	0.015687943	-0.005912781	0.000953674	-0.490722656	0.565185547	-0.916748047	886.92	-47.43631891	5.625924902	148.1701626	-84
10605	0	-0.039733887	-0.29119873	0.269470215	0.999999046	-0.000160217	1.23978E-05	0.000110626	-0.993347168	-7.279968262	6.736755371	-0.008010864	0.000619888	0.005531311	-0.490722656	0.565185547	-0.913818359	886.92	-47.44699437	5.636529386	148.1774503	-84
10606	0	-0.041087151	-0.292984962	0.267604828	0.999999046	-0.000190735	2.28882E-05	-8.58307E-06	-1.027178764	-7.324624062	6.690120697	-0.009536743	0.001144409	-0.000429153	-0.490478516	0.565185547	-0.919677734	886.82	-47.46242298	5.6379187	148.1741241	-84
10607	0	-0.038879395	-0.294006348	0.268676758	0.999999046	0.000144958	5.81741E-05	-7.62939E-06	-0.971984863	-7.350158691	6.716918945	0.007247925	0.002908707	-0.00038147	-0.48828125	0.565185547	-0.916748047	886.86	-47.43990668	5.642031596	148.1680668	-84
10608	0	-0.039272308	-0.292220116	0.269611359	0.999999046	9.44138E-05	-1.90735E-05	0.00018692	-0.981807709	-7.305502892	6.740283966	0.004720688	-0.000953674	0.009346008	-0.490478516	0.565185547	-0.919677734	886.92	-47.42118073	5.656510579	148.1836496	-84
10609	0	-0.041442871	-0.291015625	0.268920898	0.999999046	-0.000301361	-3.33786E-05	3.05176E-05	-1.036071777	-7.275390625	6.723022461	-0.015068054	-0.00166893	0.001525879	-0.490722656	0.565185547	-0.913818359	886.98	-47.44900543	5.656733247	148.1885034	-84
10610	0	-0.039794922	-0.293739319	0.268868446	0.999999046	-0.000291824	1.90735E-05	-3.05176E-05	-0.994873047	-7.343482971	6.721711159	-0.014591217	0.000953674	-0.001525879	-0.490722656	0.565185547	-0.916748047	886.82	-47.47685646	5.655821009	148.183789	-84
10611	0	-0.040649414	-0.294067383	0.266967773	0.999999046	0.000202179	-7.9155E-05	8.39233E-05	-1.016235352	-7.35168457	6.674194336	0.010108948	-0.003957748	0.004196167	-0.490722656	0.565185547	-0.916748047	886.92	-47.44668254	5.656966978	148.196308	-84
10612	0	-0.040472984	-0.292182922	0.268312454	0.999999046	0.000430107	-0.000219345	3.8147E-05	-1.011824608	-7.304573059	6.707811356	0.021505357	-0.010967255	0.001907349	-0.490722656	0.565185547	-0.916748047	886.88	-47.38973372	5.643369119	148.2171431	-84
10613	0	-0.038879395	-0.291137695	0.269348145	0.999999046	0.000183105	5.05447E-05	-5.72205E-05	-0.971984863	-7.278442383	6.733703613	0.009155273	0.002527237	-0.002861023	-0.490722656	0.565185547	-0.916748047	886.84	-47.36417077	5.642577712	148.2076502	-84
10614	0	-0.039177895	-0.292325974	0.269207001	0.999999046	-0.000106812	-5.14984E-05	-2.28882E-05	-0.979447365	-7.308149338	6.730175018	-0.005340576	-0.002574921	-0.001144409	-0.492919922	0.565429688	-0.919433594	886.88	-47.37087282	5.636696707	148.209354	-84
10615	0	-0.039978027	-0.293029785	0.269897461	0.999999046	0.000133514	6.19888E-05	4.57764E-05	-0.999450684	-7.325744629	6.747436523	0.00667572	0.003099442	0.002288818	-0.493164063	0.565429688	-0.913574219	886.88	-47.35059959	5.645387605	148.2070949	-84
10616	0	-0.040099144	-0.291550636	0.269176483	0.999999046	8.29697E-05	6.86646E-05	5.24521E-05	-1.0024786	-7.288765907	6.729412079	0.004148483	0.003433228	0.002622604	-0.490722656	0.565185547	-0.916748047	886.98	-47.33625001	5.655148855	148.2043486	-83
10617	0	-0.039794922	-0.292297363	0.268493652	0.999999046	-3.05176E-05	-5.24521E-05	0.000137329	-0.994873047	-7.307434082	6.712341309	-0.001525879	-0.002622604	0.006866455	-0.490722656	0.567626953	-0.916748047	886.88	-47.3334225	5.662623146	148.2186037	-83
10618	0	-0.039542198	-0.292608261	0.269089699	0.999999046	-7.24792E-05	-1.14441E-05	0.000102997	-0.988554955	-7.315206528	6.72724247	-0.003623962	-0.000572205	0.005149841	-0.490722656	0.565185547	-0.913818359	886.92	-47.33617472	5.670336806	148.2266344	-83
10619	0	-0.038757324	-0.292480469	0.268554688	0.999999046	1.14441E-05	-7.9155E-05	4.95911E-05	-0.968933105	-7.312011719	6.713867188	0.000572205	-0.003957748	0.002479553	-0.490722656	0.565185547	-0.916748047	886.88	-47.32933267	5.668198659	148.2360178	-83
10620	0	-0.038988113	-0.292165756	0.268200874	0.999999046	-7.9155E-05	-2.67029E-05	1.52588E-05	-0.974702835	-7.304143906	6.705021858	-0.003957748	-0.001335144	0.000762939	-0.490722656	0.565429688	-0.910888672	886.88	-47.33375185	5.667165803	148.2385865	-83
10621	0	-0.039672852	-0.292602539	0.268554688	0.999999046	-0.0001297	-7.9155E-05	3.8147E-05	-0.991821289	-7.315063477	6.713867188	-0.006484985	-0.003957748	0.001907349	-0.490722656	0.562988281	-0.910644531	886.88	-47.34352228	5.663950396	148.2470745	-84
10622	0	-0.03983593	-0.292365074	0.269095421	0.999999046	-8.96454E-05	-2.86102E-05	2.28882E-05	-0.995898247	-7.309126854	6.727385521	-0.004482269	-0.001430511	0.001144409	-0.490722656	0.567626953	-0.916748047	886.86	-47.3493767	5.663345806	148.2499982	-84
10623	0	-0.040405273	-0.293212891	0.268249512	0.999999046	0.000106812	-8.29697E-05	6.48499E-05	-1.010131836	-7.330322266	6.706237793	0.005340576	-0.004148483	0.003242493	-0.490722656	0.562988281	-0.913574219	886.82	-47.33213536	5.662058543	148.2607321	-84
10624	0	-0.038384438	-0.293028831	0.267707825	0.999999046	0.000275612	-6.67572E-05	7.53403E-05	-0.959610939	-7.325720787	6.692695618	0.013780594	-0.00333786	0.003767014	-0.493164063	0.565429688	-0.916503906	886.92	-47.29581485	5.662806593	148.2710222	-84
10625	0	-0.0390625	-0.289794922	0.268676758	0.999999046	-7.62939E-06	-2.19345E-05	0.000202179	-0.9765625	-7.244873047	6.716918945	-0.00038147	-0.001096725	0.010108948	-0.493164063	0.567626953	-0.916748047	886.88	-47.2914035	5.677660379	148.2874702	-84
10626	0	-0.04057312	-0.292591095	0.269223213	0.999999046	-0.000537872	3.43323E-05	-1.14441E-05	-1.014328003	-7.314777374	6.73058033	-0.026893617	0.001716614	-0.000572205	-0.490478516	0.562988281	-0.916503906	886.86	-47.35001569	5.678906324	148.2819864	-84
10627	0	-0.040649414	-0.295593262	0.266906738	0.999999046	-7.62939E-06	-0.000113487	2.28882E-05	-1.016235352	-7.389831543	6.672668457	-0.00038147	-0.005674362	0.001144409	-0.490966797	0.567626953	-0.910888672	886.86	-47.34668128	5.671574387	148.2923005	-84
10628	0	-0.039992332	-0.291934013	0.266605377	0.999999046	0.000536919	-0.000188828	5.24521E-05	-0.999808311	-7.298350334	6.66513443	0.026845933	-0.009441376	0.002622605	-0.493164063	0.565429688	-0.916503906	886.82	-47.28028066	5.660866413	148.3108037	-84
10629	0	-0.038269043	-0.29095459	0.269287109	0.999999046	0.000175476	-7.9155E-05	0.000102997	-0.956726074	-7.273864746	6.732177734	0.008773804	-0.003957748	0.005149841	-0.490722656	0.565185547	-0.916748047	886.92	-47.25588935	5.662824488	148.3239121	-84
10630	0	-0.040056229	-0.291584969	0.268601418	0.999999046	-0.000278473	8.39233E-05	7.62939E-05	-1.001405716	-7.289624214	6.715035439	-0.013923645	0.004196167	0.003814697	-0.490722656	0.565185547	-0.916748047	886.92	-47.28520604	5.675211485	148.321152	-84
10631	0	-0.039855957	-0.294555664	0.267883301	0.999999046	4.19617E-05	-3.33786E-05	5.72205E-05	-0.996398926	-7.363891602	6.69708252	0.002098083	-0.00166893	0.002861023	-0.493164063	0.565429688	-0.913574219	886.92	-47.27721715	5.676844471	148.327059	-84
10632	0	-0.039749146	-0.292453766	0.268825531	0.999999046	0.000330925	-0.000120163	0.000109673	-0.993728638	-7.311344147	6.720638275	0.01654625	-0.006008148	0.005483627	-0.490478516	0.565185547	-0.919677734	886.88	-47.2351131	5.676111576	148.3438899	-84
10633	0	-0.039733887	-0.291259766	0.270141602	0.999999046	0.000183105	-9.05991E-05	0.000156403	-0.993347168	-7.281494141	6.753540039	0.009155274	-0.004529953	0.007820129	-0.490478516	0.560791016	-0.916259766	886.88	-47.2098743	5.681570734	148.3619824	-84
10634	0	-0.039592743	-0.291210175	0.269217491	0.999999046	-9.53674E-05	1.52588E-05	0.000125885	-0.989818573	-7.280254364	6.730437279	-0.004768372	0.000762939	0.006294251	-0.493164063	0.567626953	-0.919677734	886.92	-47.21775132	5.692665351	148.369059	-84
10635	0	-0.039733887	-0.292602539	0.268920898	0.999999046	-0.000240326	1.62125E-05	5.34058E-05	-0.993347168	-7.315063477	6.723022461	-0.012016297	0.000810623	0.002670288	-0.490478516	0.565185547	-0.919677734	886.86	-47.24295547	5.697705875	148.3699953	-84
10636	0	-0.03940773	-0.292544365	0.268168449	0.999999046	0.000151634	-0.000104904	7.15256E-05	-0.985193253	-7.313609123	6.704211235	0.007581711	-0.005245209	0.003576279	-0.490722656	0.567382813	-0.919677734	886.94	-47.22224624	5.694796432	148.3827675	-84
10637	0	-0.038574219	-0.291992188	0.268798828	0.999999046	0.000144958	4.76837E-06	0.000125885	-0.964355469	-7.299804688	6.719970703	0.007247925	0.000238419	0.006294251	-0.490478516	0.562988281	-0.919433594	886.88	-47.20291711	5.704899283	148.3902774	-84
10638	0	-0.03944397	-0.291110992	0.269371033	0.999999046	-9.53674E-06	-1.14441E-05	0.000102997	-0.986099243	-7.277774811	6.734275818	-0.000476837	-0.000572205	0.005149841	-0.490478516	0.562988281	-0.919433594	886.88	-47.20139714	5.711768517	148.3974448	-84
10639	0	-0.040222168	-0.292236328	0.268432617	0.999999046	-0.000167847	7.72476E-05	0.000171661	-1.005554199	-7.305908203	6.71081543	-0.008392334	0.003862381	0.008583069	-0.490722656	0.565185547	-0.916748047	886.88	-47.21837166	5.731310518	148.4027163	-84
10640	0	-0.041523933	-0.292495728	0.268632889	0.999999046	0.000136375	-4.00543E-05	1.90735E-05	-1.038098335	-7.312393188	6.71582222	0.006818771	-0.002002716	0.000953674	-0.48828125	0.565185547	-0.916748047	886.92	-47.20082232	5.728945643	148.4057433	-84
10641	0	-0.037841797	-0.292053223	0.270446777	0.999999046	0.000125885	-5.62668E-05	6.48499E-05	-0.946044922	-7.301330566	6.761169434	0.006294251	-0.002813339	0.003242493	-0.492919922	0.565429688	-0.919433594	886.92	-47.18402866	5.729017348	148.4137733	-84
10642	0	-0.039924622	-0.290576935	0.269364357	0.999999046	-0.000106812	2.67029E-05	0.000183105	-0.99811554	-7.26442337	6.734108925	-0.005340576	0.001335144	0.009155274	-0.492919922	0.562988281	-0.919189453	886.94	-47.19371678	5.745468721	148.4238815	-84
10643	0	-0.04119873	-0.292419434	0.267456055	0.999999046	-0.000278473	0.000115395	-6.10352E-05	-1.029968262	-7.31048584	6.686401367	-0.013923645	0.00576973	-0.003051758	-0.48828125	0.565185547	-0.916748047	886.88	-47.22592159	5.748337816	148.4074208	-84
10644	0	-0.039515495	-0.294099808	0.268136978	0.999999046	2.00272E-05	-0.000139236	6.00815E-05	-0.987887383	-7.352495193	6.703424454	0.001001358	-0.006961823	0.003004074	-0.490722656	0.565185547	-0.916748047	886.98	-47.22101855	5.741512162	148.4219901	-84
10645	0	-0.040466309	-0.29095459	0.269897461	0.999999046	0.000339508	-8.67844E-05	9.53674E-05	-1.011657715	-7.273864746	6.747436523	0.016975403	-0.004339218	0.004768372	-0.490478516	0.562988281	-0.916503906	886.98	-47.17968301	5.741731325	148.4347759	-84
10646	0	-0.03974247	-0.291374207	0.270467758	0.999999046	-0.000139236	-0.000110626	-3.8147E-06	-0.993561745	-7.284355164	6.761693954	-0.006961823	-0.005531311	-0.000190735	-0.490722656	0.562988281	-0.913574219	886.82	-47.19379987	5.731709909	148.4419445	-84
10647	0	-0.039794922	-0.293457031	0.268737793	0.999999046	-0.000274658	4.673E-05	8.01086E-05	-0.994873047	-7.336425781	6.718444824	-0.01373291	0.002336502	0.004005432	-0.493164063	0.565429688	-0.916503906	886.94	-47.22426674	5.740960757	148.4423229	-83
10648	0	-0.040233612	-0.293720245	0.268083572	0.999999046	0.000124931	7.82013E-05	0.000232697	-1.005840302	-7.343006134	6.70208931	0.006246567	0.003910065	0.011634827	-0.493164063	0.565429688	-0.916503906	886.86	-47.20819387	5.765479546	148.4519153	-83
10649	0	-0.04083252	-0.291442871	0.270446777	0.999999046	0.000217438	-4.86374E-05	0.000232697	-1.020812988	-7.286071777	6.761169434	0.010871887	-0.00243187	0.011634827	-0.48828125	0.565185547	-0.913818359	886.88	-47.18043851	5.780127507	148.4721669	-83
10650	0	-0.040514946	-0.292038918	0.271126747	1	-3.52859E-05	-6.77109E-05	7.62939E-06	-1.01287365	-7.300972939	6.778168678	-0.001764297	-0.003385544	0.00038147	-0.490722656	0.565429688	-0.913818359	887	-47.18325755	5.774348599	148.4765055	-83
10651	0	-0.040100098	-0.291931152	0.269836426	0.999999046	-1.52588E-05	-0.000166893	0.000102997	-1.002502441	-7.298278809	6.745910645	-0.000762939	-0.00834465	0.005149841	-0.490722656	0.565429688	-0.916748047	886.86	-47.18224135	5.76882866	148.4964707	-83
10652	0	-0.03860569	-0.293213844	0.26984024	0.999999046	-0.00014019	-2.28882E-05	8.7738E-05	-0.96514225	-7.330346107	6.746006012	-0.007009506	-0.001144409	0.004386902	-0.493164063	0.565429688	-0.919677734	886.88	-47.19698375	5.773126527	148.5030544	-84
10653	0	-0.040222168	-0.293395996	0.269958496	0.999999046	0.00018692	-0.000132561	9.91821E-05	-1.005554199	-7.334899902	6.748962402	0.009346008	-0.006628037	0.004959106	-0.490722656	0.567626953	-0.919921875	886.94	-47.17331279	5.769815923	148.519873	-83
10654	0	-0.039353371	-0.29102993	0.26977253	0.999999046	0.000169754	-9.72748E-05	5.24521E-05	-0.983834267	-7.275748253	6.74431324	0.008487701	-0.004863739	0.002622604	-0.490722656	0.565429688	-0.916748047	886.94	-47.15229544	5.765257963	148.5301255	-83
10655	0	-0.040466309	-0.29119873	0.269836426	0.999999046	-0.000366211	4.76837E-06	0.000183105	-1.011657715	-7.279968262	6.745910645	-0.018310547	0.000238419	0.009155274	-0.490722656	0.565429688	-0.916748047	886.86	-47.19256207	5.779630691	148.5419037	-83
10656	0	-0.041369438	-0.293272972	0.268705368	0.999999046	-0.000178337	1.71661E-05	0.000133514	-1.034235954	-7.331824303	6.717634201	-0.008916855	0.000858307	0.00667572	-0.490722656	0.565429688	-0.913818359	886.82	-47.21193148	5.790843381	148.5488473	-83
10657	0	-0.041381836	-0.293273926	0.267456055	0.999999046	0.000198364	-0.000182152	-4.19617E-05	-1.034545898	-7.331848145	6.686401367	0.009918213	-0.00910759	-0.002098084	-0.488525391	0.567626953	-0.920166016	886.92	-47.18799832	5.771823172	148.5585345	-83
10658	0	-0.038391113	-0.291889191	0.268562317	0.999999046	0.000183105	-8.01086E-05	0.00014019	-0.959777832	-7.297229767	6.714057922	0.009155274	-0.004005432	0.007009506	-0.490722656	0.565429688	-0.919677734	886.92	-47.16533185	5.775941274	148.5739798	-84
10659	0	-0.040588379	-0.289794922	0.268615723	0.999999046	-0.000396729	-1.43051E-05	9.53674E-05	-1.014709473	-7.244873047	6.715393066	-0.019836426	-0.000715256	0.004768372	-0.490722656	0.565429688	-0.913818359	886.92	-47.21003074	5.781431501	148.5806218	-83
10660	0	-0.041613579	-0.294333458	0.267406464	0.999999046	-0.000355721	-7.24792E-05	-3.14713E-05	-1.04033947	-7.358336449	6.685161591	-0.017786026	-0.003623962	-0.001573563	-0.490722656	0.565429688	-0.919677734	886.88	-47.2507472	5.771784032	148.5817558	-83
10661	0	-0.040405273	-0.294128418	0.267272949	0.999999046	0.000270844	-0.000102043	8.01086E-05	-1.010131836	-7.353210449	6.68182373	0.013542175	-0.005102158	0.004005432	-0.490722656	0.565429688	-0.919677734	886.94	-47.21872376	5.769213764	148.5942481	-84
10662	0	-0.039786339	-0.290924072	0.270123482	0.999999046	0.000226974	-7.82013E-05	5.62668E-05	-0.99465847	-7.273101807	6.753087044	0.011348724	-0.003910065	0.002813339	-0.490722656	0.567626953	-0.919921875	886.88	-47.19207762	5.766448771	148.6030474	-83
10663	0	-0.039794922	-0.291687012	0.269958496	0.999999046	-0.000167847	-1.81198E-05	9.53674E-05	-0.994873047	-7.292175293	6.748962402	-0.008392334	-0.000905991	0.004768372	-0.490722656	0.565429688	-0.919677734	886.78	-47.2108842	5.771610104	148.6096462	-83
10664	0	-0.039230347	-0.292990685	0.268213272	1	5.72205E-06	4.76837E-06	-8.58307E-06	-0.980758667	-7.324767113	6.705331802	0.000286102	0.000238419	-0.000429153	-0.490722656	0.565429688	-0.916748047	886.92	-47.21093145	5.769742893	148.6063661	-83
10665	0	-0.039855957	-0.293762207	0.268920898	0.999999046	0.000431061	-0.000170708	0.000102997	-0.996398926	-7.344055176	6.723022461	0.02155304	-0.008535385	0.005149842	-0.490722656	0.565429688	-0.916748047	886.82	-47.15998671	5.763552146	148.6266094	-83
10666	0	-0.040311813	-0.290347099	0.270894051	0.999999046	0.00031662	-0.000106812	9.44138E-05	-1.007795334	-7.258677483	6.772351265	0.015830994	-0.005340576	0.004720688	-0.490722656	0.563232422	-0.919677734	886.92	-47.12269202	5.761602071	148.64048	-83
10667	0	-0.04119873	-0.291564941	0.269897461	0.999999046	-0.000110626	-7.53403E-05	-0.000106812	-1.029968262	-7.289123535	6.747436523	-0.005531311	-0.003767014	-0.005340576	-0.490722656	0.563232422	-0.919677734	886.94	-47.13623202	5.745246415	148.6359934	-83
10668	0	-0.039936066	-0.292121887	0.270570755	0.999999046	-4.86374E-05	-0.000104904	-4.673E-05	-0.998401642	-7.30304718	6.764268875	-0.00243187	-0.005245209	-0.002336502	-0.490722656	0.563232422	-0.919677734	886.94	-47.14196138	5.731607703	148.6387538	-83
10669	0	-0.039794922	-0.292541504	0.269226074	0.999999046	4.19617E-05	-0.000113487	9.15527E-05	-0.994873047	-7.313537598	6.730651855	0.002098084	-0.005674362	0.004577637	-0.493164063	0.563232422	-0.913574219	886.86	-47.13623591	5.728890806	148.6536173	-83
10670	0	-0.039970398	-0.292572975	0.269808769	0.999999046	0.000125885	-6.29425E-05	7.9155E-05	-0.999259949	-7.314324379	6.745219231	0.006294251	-0.003147125	0.003957748	-0.490722656	0.565429688	-0.916748047	886.88	-47.12147706	5.729057948	148.662836	-83
10671	0	-0.040161133	-0.291931152	0.269042969	0.999999046	6.10352E-05	-9.05991E-05	4.19617E-05	-1.00402832	-7.298278809	6.726074219	0.003051758	-0.004529953	0.002098084	-0.490722656	0.565429688	-0.913818359	886.92	-47.11427796	5.723945288	148.6716229	-83
10672	0	-0.038854599	-0.292262077	0.270061493	0.999999046	1.04904E-05	-0.000123978	-2.28882E-05	-0.971364975	-7.306551933	6.751537323	0.000524521	-0.006198883	-0.001144409	-0.490722656	0.563232422	-0.916748047	886.92	-47.11314143	5.710713588	148.6776425	-83
10673	0	-0.039855957	-0.291748047	0.268981934	0.999999046	5.72205E-05	7.34329E-05	0.000110626	-0.996398926	-7.293701172	6.72454834	0.002861023	0.003671646	0.005531311	-0.490722656	0.563232422	-0.919677734	886.86	-47.10733334	5.72408252	148.6773851	-83
10674	0	-0.039715767	-0.292075157	0.269008636	0.999999046	0.000112534	-0.000165939	-4.95911E-05	-0.992894173	-7.301878929	6.725215912	0.005626679	-0.008296967	-0.002479553	-0.490722656	0.565429688	-0.922607422	886.88	-47.0945041	5.705311264	148.6848456	-83
10675	0	-0.037963867	-0.292175293	0.270141602	0.999999046	3.05176E-05	-2.57492E-05	8.39233E-05	-0.94909668	-7.304382324	6.753540039	0.001525879	-0.00128746	0.004196167	-0.490722656	0.563232422	-0.919677734	886.88	-47.09124773	5.708571342	148.6911018	-83
10676	0	-0.039890289	-0.290382385	0.270587921	0.999999046	-0.000170708	9.53674E-05	0.000225067	-0.997257233	-7.259559631	6.764698029	-0.008535385	0.004768372	0.011253357	-0.493164063	0.563232422	-0.919433594	886.94	-47.11091756	5.733128596	148.6983876	-83
10677	0	-0.04083252	-0.292785645	0.268005371	0.999999046	-0.000156403	-7.15256E-05	-5.72205E-05	-1.020812988	-7.319641113	6.700134277	-0.007820129	-0.003576279	-0.002861023	-0.490722656	0.563232422	-0.919677734	886.86	-47.12989274	5.721014414	148.6973312	-83
10678	0	-0.039173126	-0.292814255	0.269932747	0.999999046	0.000148773	-0.000143051	6.00815E-05	-0.979328156	-7.320356369	6.748318672	0.00743866	-0.007152557	0.003004074	-0.490722656	0.565429688	-0.919677734	886.84	-47.11243364	5.713121532	148.7117656	-83
10679	0	-0.039550781	-0.29107666	0.269104004	0.999999046	0.000118256	-9.44138E-05	1.52588E-05	-0.988769531	-7.276916504	6.727600098	0.005912781	-0.004720688	0.000762939	-0.492919922	0.561035156	-0.916259766	886.88	-47.09925906	5.705239269	148.7185921	-84
10680	0	-0.039203644	-0.291500092	0.269729614	0.999999046	-0.000218391	9.53674E-06	-1.90735E-05	-0.980091095	-7.287502289	6.743240356	-0.010919571	0.000476837	-0.000953674	-0.490722656	0.563232422	-0.916748047	886.88	-47.12582399	5.702546685	148.7138626	-84
10681	0	-0.040039063	-0.293151855	0.268249512	0.999999046	-0.000148773	-0.000113487	-3.05176E-05	-1.000976563	-7.328796387	6.706237793	-0.00743866	-0.005674362	-0.001525879	-0.493164063	0.565429688	-0.916748047	886.82	-47.14360172	5.689310687	148.7188954	-84
10682	0	-0.038679123	-0.293416977	0.2673769	0.999999046	0.00012207	-6.29425E-05	9.44138E-05	-0.966978073	-7.335424423	6.684422493	0.006103516	-0.003147125	0.004720688	-0.490722656	0.563232422	-0.916748047	886.98	-47.12996534	5.690453726	148.7289169	-83
10683	0	-0.040100098	-0.29119873	0.270507813	0.999999046	0.000190735	7.72476E-05	0.000118256	-1.002502441	-7.279968262	6.762695313	0.009536743	0.003862381	0.005912781	-0.490722656	0.563232422	-0.916748047	886.92	-47.10940762	5.704545855	148.7291245	-83
10684	0	-0.040027618	-0.291696548	0.270856857	0.999999046	-6.96182E-05	-0.000133514	-1.14441E-05	-1.00069046	-7.292413712	6.771421432	-0.003480911	-0.00667572	-0.000572205	-0.490722656	0.565429688	-0.916748047	886.86	-47.11790051	5.691317369	148.7371467	-83
10685	0	-0.039733887	-0.292297363	0.268920898	1	-2.86102E-06	0	-3.8147E-06	-0.993347168	-7.307434082	6.723022461	-0.000143051	0	-0.000190735	-0.493164063	0.563232422	-0.916503906	886.84	-47.11987365	5.689141361	148.7344087	-83
10686	0	-0.039426804	-0.292422295	0.268185616	0.999999046	4.19617E-05	-3.8147E-05	0.000121117	-0.98567009	-7.310557365	6.704640388	0.002098084	-0.001907349	0.006055832	-0.493164063	0.563232422	-0.916503906	886.94	-47.11552335	5.694467264	148.744633	-83
10687	0	-0.039306641	-0.291809082	0.270141602	0.999999046	-1.14441E-05	-1.43051E-05	8.7738E-05	-0.982666016	-7.295227051	6.753540039	-0.000572205	-0.000715256	0.004386902	-0.490722656	0.563232422	-0.913818359	886.88	-47.11775142	5.698822696	148.7502982	-83
10688	0	-0.039289474	-0.291625977	0.269769669	1	-2.86102E-05	-1.81198E-05	6.77109E-05	-0.982236862	-7.290649414	6.744241714	-0.001430511	-0.000905991	0.003385544	-0.490478516	0.561035156	-0.916503906	886.86	-47.12207854	5.701174578	148.7540851	-83
10689	0	-0.039550781	-0.292236328	0.268920898	0.999999046	7.62939E-06	-0.000105858	0.000114441	-0.988769531	-7.305908203	6.723022461	0.00038147	-0.005292892	0.005722046	-0.490722656	0.563232422	-0.919677734	887	-47.12121605	5.700597594	148.7689884	-82
10690	0	-0.039560318	-0.290820122	0.268872261	0.999999046	2.09808E-05	-6.67572E-05	6.77109E-05	-0.98900795	-7.270503044	6.721806526	0.001049042	-0.00333786	0.003385544	-0.492919922	0.561035156	-0.922119141	886.82	-47.11952578	5.699140989	148.7766959	-83
10691	0	-0.039733887	-0.292358398	0.269104004	0.999999046	-6.10352E-05	8.58307E-06	-6.10352E-05	-0.993347168	-7.308959961	6.727600098	-0.003051758	0.000429153	-0.003051758	-0.490722656	0.563232422	-0.916748047	886.82	-47.12892432	5.692743064	148.7689	-82
10692	0	-0.039153099	-0.292762756	0.268029213	0.999999046	8.4877E-05	-6.86646E-05	-0.000138283	-0.978827477	-7.319068909	6.700730324	0.004243851	-0.003433228	-0.006914139	-0.490478516	0.560791016	-0.919433594	886.92	-47.12166802	5.673808503	148.7607812	-82
10693	0	-0.038757324	-0.292236328	0.269958496	0.999999046	0.000148773	-4.48227E-05	0.00018692	-0.968933105	-7.305908203	6.748962402	0.00743866	-0.002241135	0.009346008	-0.490722656	0.563232422	-0.919677734	886.92	-47.10478036	5.683990792	148.7766604	-82
10694	0	-0.041282654	-0.289821625	0.26943779	0.999999046	-0.000234604	-2.67029E-05	4.57764E-05	-1.032066345	-7.245540619	6.735944748	-0.011730194	-0.001335144	0.002288818	-0.493164063	0.563232422	-0.919433594	886.88	-47.13302124	5.683834323	148.7801277	-82
10695	0	-0.039245605	-0.29309082	0.268859863	0.999999046	-0.000152588	-0.000144005	-3.8147E-06	-0.981140137	-7.327270508	6.721496582	-0.007629395	-0.007200241	-0.000190735	-0.493164063	0.563232422	-0.913574219	886.94	-47.15135542	5.67034407	148.7902501	-82
10696	0	-0.039227486	-0.2912817	0.268232346	0.999999046	0.000103951	-0.000146866	4.1008E-05	-0.980687141	-7.282042503	6.70580864	0.005197525	-0.007343292	0.0020504	-0.490722656	0.563232422	-0.916748047	886.84	-47.13996139	5.660388925	148.8031363	-82
10697	0	-0.039001465	-0.291931152	0.268676758	0.999999046	-0.000190735	-6.77109E-05	-3.43323E-05	-0.975036621	-7.298278809	6.716918945	-0.009536743	-0.003385544	-0.001716614	-0.490722656	0.563232422	-0.913818359	886.88	-47.16362303	5.650249973	148.803799	-82
10698	0	-0.039616585	-0.292647362	0.26789856	1	-2.76566E-05	-3.33786E-05	-3.91006E-05	-0.990414619	-7.316184044	6.697463989	-0.001382828	-0.00166893	-0.001955032	-0.493164063	0.563232422	-0.919433594	886.88	-47.16901349	5.642401623	148.800515	-83
10699	0	-0.038818359	-0.292297363	0.26940918	0.999999046	0.000331879	4.76837E-06	7.62939E-05	-0.970458984	-7.307434082	6.735229492	0.016593933	0.000238419	0.003814697	-0.493164063	0.563232422	-0.919433594	886.94	-47.13264697	5.647190287	148.8033215	-83
10700	0	-0.03898716	-0.290770531	0.269296646	0.999999046	0.000243187	-6.48499E-05	0.000137329	-0.974678993	-7.269263268	6.732416153	0.012159348	-0.003242493	0.006866455	-0.493164063	0.563232422	-0.919433594	886.88	-47.10537008	5.651657698	148.8169258	-83
10701	0	-0.039123535	-0.29095459	0.268371582	0.999999046	-3.43323E-05	-4.86374E-05	0.000156403	-0.978088379	-7.273864746	6.709289551	-0.001716614	-0.00243187	0.007820129	-0.492919922	0.561035156	-0.919189453	886.94	-47.10991235	5.658982632	148.8302653	-83
10702	0	-0.039737701	-0.292609215	0.269759178	0.999999046	0.000295639	-0.000108719	9.05991E-05	-0.993442535	-7.31523037	6.743979454	0.014781952	-0.005435944	0.004529953	-0.493164063	0.563232422	-0.913574219	886.86	-47.07668359	5.656102183	148.8450515	-83
10703	0	-0.039489746	-0.290466309	0.27166748	0.999999046	0.000209808	-0.000132561	5.34058E-05	-0.987243652	-7.261657715	6.791687012	0.010490418	-0.006628037	0.002670288	-0.492919922	0.561035156	-0.919189453	886.94	-47.05327295	5.648238988	148.8573439	-83
10704	0	-0.039083481	-0.291264534	0.270030022	1	4.3869E-05	-1.62125E-05	-1.62125E-05	-0.977087021	-7.28161335	6.750750542	0.002193451	-0.000810623	-0.000810623	-0.493164063	0.565429688	-0.919677734	886.84	-47.05037732	5.64359989	148.8552405	-83
10705	0	-0.038513184	-0.291931152	0.26940918	0.999999046	-0.00012207	1.23978E-05	9.91821E-05	-0.96282959	-7.298278809	6.735229492	-0.006103516	0.000619888	0.004959106	-0.493164063	0.563232422	-0.913574219	886.88	-47.06589117	5.650828453	148.8602745	-82
10706	0	-0.039676666	-0.291623116	0.268543243	0.999999046	4.3869E-05	-7.82013E-05	0.000220299	-0.991916656	-7.290577888	6.713581085	0.002193451	-0.003910065	0.011014938	-0.490722656	0.563232422	-0.916748047	886.88	-47.06076633	5.661171194	148.8812923	-82
