Counter	Temperature	VelInc_X	VelInc_Y	VelInc_Z	OriInc_w	OriInc_x	OriInc_y	OriInc_z	Acc_X	Acc_Y	Acc_Z	Gyr_X	Gyr_Y	Gyr_Z	Mag_X	Mag_Y	Mag_Z	Pressure	Roll	Pitch	Yaw	RSSI
9566	0	0.387317657	-0.105595589	-0.021639824	0.999965668	0.008011818	-0.00124073	-0.001572609	9.682941437	-2.639889717	-0.540995598	0.40059545	-0.062037219	-0.078631341	-0.803222656	0.072021484	0.760009766	880.92	-104.4603922	-76.14040912	-83.53479629	-68
9567	0	0.385925293	-0.091369629	-0.016601563	0.999944687	0.010331154	-0.001483917	-0.001106262	9.648132324	-2.284240723	-0.415039063	0.516567178	-0.074197224	-0.055314126	-0.801269531	0.087646484	0.755615234	880.98	-104.0464739	-76.23962255	-82.74656546	-68
9568	0	0.381569862	-0.07679081	-0.023284912	0.999974251	0.007031441	-0.000890732	-0.000120163	9.539246559	-1.919770241	-0.582122803	0.351574981	-0.044536964	-0.006008199	-0.801757813	0.096679688	0.763671875	880.96	-103.6327856	-76.24738086	-82.34777393	-67
9569	0	0.38470459	-0.081176758	-0.024230957	0.999992371	0.003594398	6.10352E-05	0.000808716	9.617614746	-2.029418945	-0.605773926	0.179720332	0.003051765	0.040435883	-0.797363281	0.107666016	0.753662109	881.08	-103.0809569	-76.17796846	-82.49375329	-68
9570	0	0.37816143	-0.084827423	-0.023273468	0.999996185	0.002354622	0.00057888	0.000317574	9.454035759	-2.120685577	-0.5818367	0.117731212	0.028944044	0.015878693	-0.797607422	0.112304688	0.759277344	881.12	-102.4913168	-76.17636772	-82.82390658	-68
9571	0	0.377685547	-0.090087891	-0.020935059	0.999996185	0.002369881	0.000259399	-0.000301361	9.442138672	-2.252197266	-0.523376465	0.118494148	0.012969983	-0.015068069	-0.797851563	0.114501953	0.759033203	880.9	-102.1074574	-76.23548909	-82.94067327	-68
9572	0	0.382394791	-0.103667259	-0.015789986	0.999986649	0.00466156	0.000882149	-0.001759529	9.559869766	-2.59168148	-0.394749641	0.233078998	0.044107625	-0.087976831	-0.797851563	0.119140625	0.752685547	881.06	-101.3084555	-76.4717624	-83.21381087	-67
9573	0	0.380126953	-0.102600098	-0.009094238	0.999940872	0.01038456	0.001750946	-0.002429962	9.503173828	-2.565002441	-0.227355957	0.519238091	0.087549007	-0.121500473	-0.805175781	0.123779297	0.749755859	880.92	-99.46964694	-76.79942712	-83.88603887	-67
9574	0	0.377333641	-0.095544815	-0.008397102	0.999894142	0.014379501	0.000541687	-0.001811981	9.433341026	-2.388620377	-0.209927559	0.719000275	0.0270853	-0.090602237	-0.805908203	0.139404297	0.745605469	880.92	-97.65772007	-77.03102629	-84.06121881	-66
9575	0	0.380615234	-0.096191406	-0.007019043	0.9998703	0.015961647	-0.001171112	-0.001487732	9.515380859	-2.404785156	-0.175476074	0.798116721	-0.058558125	-0.0743898	-0.803955078	0.157470703	0.73828125	881.06	-96.46680828	-77.20020393	-83.41477873	-66
9576	0	0.384334564	-0.090568542	-0.011608124	0.999876976	0.015557289	-0.001550674	-0.000753403	9.608364105	-2.264213562	-0.290203094	0.777896223	-0.077536888	-0.037671674	-0.804931641	0.177734375	0.736572266	881.08	-95.46831418	-77.28383732	-82.61981481	-65
9577	0	0.385681152	-0.085510254	-0.016784668	0.99990654	0.013585091	-0.001293182	6.48499E-05	9.642028809	-2.137756348	-0.419616699	0.679275617	-0.064661126	0.003242593	-0.803222656	0.199951172	0.728759766	880.92	-94.52862842	-77.27972416	-81.99434117	-64
9578	0	0.389766693	-0.082710266	-0.020254135	0.999933243	0.011462212	-0.001019478	0.000582695	9.744167328	-2.067756653	-0.506353378	0.573123262	-0.05097502	0.029135395	-0.801757813	0.220214844	0.729736328	880.92	-93.6779554	-77.22108232	-81.52511433	-63
9579	0	0.385803223	-0.080566406	-0.012390137	0.999946594	0.010266304	-0.000915527	8.7738E-05	9.645080566	-2.014160156	-0.309753418	0.513324291	-0.045777178	0.00438698	-0.797851563	0.238037109	0.728027344	880.98	-92.93127584	-77.2215341	-81.08729196	-63
9580	0	0.386202812	-0.077427864	-0.006872177	0.999958992	0.008957863	-0.000549316	-0.000239372	9.655070305	-1.935696602	-0.171804428	0.44789916	-0.027466189	-0.011968773	-0.798095703	0.251464844	0.718261719	880.96	-92.15884066	-77.26306024	-80.82851223	-63
9581	0	0.386169434	-0.07611084	0.001220703	0.999969482	0.007775307	-3.8147E-06	-0.000637054	9.65423584	-1.902770996	0.030517578	0.388769279	-0.000190737	-0.031853045	-0.798583984	0.262695313	0.714355469	880.86	-91.24891078	-77.35334906	-80.84866277	-63
9582	0	0.384741783	-0.077504158	0.009018898	0.999974251	0.006961823	0.000291824	-0.001185417	9.618544579	-1.937603951	0.22547245	0.348094024	0.014591339	-0.059271352	-0.796386719	0.271484375	0.707763672	881.06	-90.27541548	-77.50722114	-81.02785744	-63
9583	0	0.385986328	-0.0703125	0.007263184	0.999988556	0.004616737	0.000434875	-0.001098633	9.649658203	-1.7578125	0.18157959	0.230837742	0.021743857	-0.054931849	-0.796875	0.280517578	0.706787109	881.02	-89.48233104	-77.65116472	-81.29427498	-63
9584	0	0.38773632	-0.075407028	0.004393578	0.999998093	0.001495361	-0.000113487	-0.000792503	9.693408012	-1.885175705	0.109839439	0.074768102	-0.005674365	-0.039625187	-0.799316406	0.282958984	0.703857422	880.9	-89.32849124	-77.76055031	-81.27129382	-63
9585	0	0.385681152	-0.079345703	-0.002868652	0.999999046	0.00050354	6.96182E-05	-0.000709534	9.642028809	-1.983642578	-0.071716309	0.025177005	0.003480912	-0.035476689	-0.801513672	0.282958984	0.701171875	880.96	-89.19216593	-77.86024479	-81.34647398	-63
9586	0	0.384331703	-0.080880165	-0.00358963	0.999999046	0.000822067	0.000522614	-0.000733376	9.60829258	-2.022004128	-0.089740753	0.041103373	0.026130683	-0.036668787	-0.801757813	0.282958984	0.704101563	880.96	-88.77559852	-77.96161549	-81.67133755	-63
9587	0	0.382873535	-0.08013916	-0.001525879	0.999999046	0.000907898	0.000519753	-0.000545502	9.571838379	-2.003479004	-0.038146973	0.045394908	0.025987631	-0.027275092	-0.799316406	0.28515625	0.703857422	880.96	-88.34860455	-78.04089444	-81.99495219	-63
9588	0	0.383692741	-0.081183434	0.001888275	0.999999046	-0.000264168	0.00047493	-0.000271797	9.592318535	-2.029585838	0.047206879	-0.01320839	0.023746492	-0.01358986	-0.801513672	0.280761719	0.704345703	880.98	-88.08142926	-78.08842957	-82.2956548	-63
9589	0	0.383239746	-0.083251953	0.003356934	0.999999046	-0.001083374	0.000367165	-1.14441E-05	9.580993652	-2.081298828	0.08392334	-0.054168713	0.018358235	-0.000572205	-0.804199219	0.282958984	0.704101563	881.08	-87.97025598	-78.10609247	-82.53017201	-63
9590	0	0.382992744	-0.085515022	0.005831718	0.999999046	-0.001106262	0.000377655	-7.24792E-05	9.574818611	-2.137875557	0.145792961	-0.055313123	0.018882756	-0.003623963	-0.803955078	0.280761719	0.701416016	880.98	-87.85392554	-78.13021174	-82.77262678	-63
9591	0	0.381530762	-0.088745117	0.008972168	0.999999046	-0.000911713	0.000344276	-0.000301361	9.538269043	-2.21862793	0.224304199	-0.04558564	0.017213824	-0.015068057	-0.806152344	0.276367188	0.701904297	881	-87.72674357	-78.18001047	-83.00582318	-63
9592	0	0.386278152	-0.088892937	0.007548332	0.999999046	-0.000287056	0.000225067	-0.000152588	9.656953812	-2.222323418	0.188708305	-0.014352799	0.011253357	-0.007629395	-0.803710938	0.276367188	0.701904297	881.06	-87.59473753	-78.21269631	-83.16972118	-63
9593	0	0.385620117	-0.091125488	0.006530762	0.999999046	0.000888824	0.000195503	-0.00019455	9.64050293	-2.278137207	0.163269043	0.04444123	0.009775163	-0.009727479	-0.805908203	0.273925781	0.696289063	881	-87.34207062	-78.24959054	-83.32178775	-63
9594	0	0.38479805	-0.08956337	0.005129814	0.999997139	0.002264023	5.72205E-05	0.000301361	9.619951248	-2.239084244	0.128245354	0.11320124	0.002861025	0.015068067	-0.806152344	0.276367188	0.701904297	880.9	-87.02061478	-78.22980381	-83.38497245	-62
9595	0	0.38482666	-0.087036133	0.000549316	0.999993324	0.003498077	4.673E-05	0.000953674	9.620666504	-2.17590332	0.01373291	0.174904253	0.002336507	0.04768382	-0.806152344	0.278564453	0.695800781	880.9	-86.58594036	-78.13499236	-83.42248382	-62
9596	0	0.381191254	-0.082081795	0.001155853	0.999988556	0.004491806	-0.000136375	0.001544952	9.529781342	-2.052044868	0.028896332	0.224591147	-0.006818797	0.07724791	-0.804199219	0.287353516	0.695068359	880.96	-86.16183732	-77.97371791	-83.33260892	-62
9597	0	0.378540039	-0.077270508	-0.001525879	0.99998951	0.004070282	-0.000365257	0.001731873	9.463500977	-1.931762695	-0.038146973	0.203514767	-0.018262923	0.086593912	-0.804443359	0.296386719	0.69140625	880.92	-85.91999591	-77.79315968	-83.10502807	-61
9598	0	0.383102417	-0.075126648	-0.000712395	0.999991417	0.003744125	-0.000579834	0.000966072	9.577560425	-1.878166199	-0.017809868	0.187206745	-0.028991773	0.048303727	-0.802246094	0.305419922	0.6875	880.96	-85.80124653	-77.70241902	-82.786824	-61
9599	0	0.382385254	-0.074707031	0.004211426	0.999994278	0.003216743	-0.000598907	0.000225067	9.559631348	-1.867675781	0.105285645	0.160837462	-0.029945427	0.011253377	-0.800292969	0.309814453	0.692871094	880.92	-85.72433169	-77.69701836	-82.48866768	-61
9600	0	0.386267662	-0.073484421	0.008431435	0.999996185	0.002256393	-0.00086689	-0.000349998	9.656691551	-1.837110519	0.210785866	0.112819784	-0.043344541	-0.017499941	-0.800292969	0.314208984	0.689697266	880.92	-85.87643816	-77.76000066	-82.06654596	-61
9601	0	0.38848877	-0.076416016	0.009643555	0.999999046	0.000553131	-0.000647545	-0.000804901	9.712219238	-1.910400391	0.241088867	0.027656562	-0.03237725	-0.040245065	-0.798095703	0.318603516	0.686279297	881.02	-86.0940205	-77.87322208	-81.77142756	-61
9602	0	0.387591362	-0.080910683	0.00776577	0.999999046	-0.000257492	-0.00021553	-0.001102448	9.68978405	-2.022767067	0.194144249	-0.012874606	-0.010776522	-0.055122388	-0.800292969	0.314208984	0.689697266	880.92	-86.16666179	-78.01698189	-81.72267312	-61
9603	0	0.386474609	-0.083496094	0.005187988	0.999999046	-5.72205E-05	-0.000102043	-0.001045227	9.661865234	-2.087402344	0.129699707	-0.002861023	-0.005102159	-0.052261362	-0.800292969	0.312011719	0.687011719	880.92	-86.15826435	-78.15315146	-81.7330607	-61
9604	0	0.385986328	-0.085327148	0.003601074	0.999999046	0.000630379	-0.000118256	-0.000572205	9.649658203	-2.133178711	0.090026855	0.03151894	-0.005912781	-0.028610233	-0.800292969	0.309814453	0.689941406	880.98	-86.09779172	-78.2350618	-81.71872671	-60
9605	0	0.382845879	-0.085717201	0.006186485	0.999998093	0.000794411	-0.000156403	7.53403E-05	9.571146965	-2.142930031	0.154662132	0.03972054	-0.00782013	0.003767014	-0.800292969	0.309814453	0.689941406	880.86	-86.06380205	-78.24286047	-81.65931194	-61
9606	0	0.38222599	-0.08486557	0.006292343	0.999998093	0.00124836	-0.000161171	0.000693321	9.555649757	-2.121639252	0.157308578	0.062418005	-0.008058551	0.034666073	-0.802734375	0.312255859	0.692871094	880.92	-86.00393925	-78.17972265	-81.57471544	-60
9607	0	0.383666992	-0.081604004	0.004577637	0.999997139	0.00189209	-0.000250816	0.000823975	9.591674805	-2.040100098	0.114440918	0.09460456	-0.012540826	0.04119876	-0.798095703	0.31640625	0.686279297	880.92	-85.92459579	-78.10226909	-81.43228307	-60
9608	0	0.383728981	-0.075256348	0.00594902	0.999998093	0.001424789	-0.000433922	0.000965118	9.593224525	-1.881408691	0.14872551	0.071239509	-0.021696102	0.048255946	-0.800537109	0.318847656	0.686279297	881.02	-86.0023273	-78.01037827	-81.18574346	-60
9609	0	0.389648438	-0.075744629	0.003234863	0.999999046	-9.53674E-05	-0.000170708	0.00062561	9.741210938	-1.893615723	0.080871582	-0.004768372	-0.008535386	0.03128052	-0.798339844	0.321044922	0.688964844	881	-86.09893509	-77.9554325	-81.09651719	-60
9610	0	0.387659073	-0.079526901	0.006259918	0.999999046	-0.00125885	-7.62939E-06	0.000278473	9.691476822	-1.988172531	0.156497955	-0.062942522	-0.00038147	0.013923649	-0.798095703	0.320800781	0.686035156	881	-86.2283412	-77.93896461	-81.10801545	-60
9611	0	0.382751465	-0.083679199	0.007385254	0.999999046	-0.000839233	5.05447E-05	-1.90735E-05	9.568786621	-2.09197998	0.184631348	-0.041961675	0.002527237	-0.000953674	-0.798095703	0.318603516	0.686279297	881.06	-86.26772229	-77.95590475	-81.16326877	-61
9612	0	0.385072708	-0.084223747	0.005572319	0.999999046	0.000214577	-0.000167847	-3.91006E-05	9.626817703	-2.105593681	0.139307976	0.010728836	-0.008392334	-0.001955032	-0.798339844	0.321044922	0.688964844	881.02	-86.30298371	-77.97658451	-81.09738206	-61
9613	0	0.388183594	-0.084594727	0.003540039	0.999999046	0.000652313	-0.000113487	-0.000232697	9.704589844	-2.114868164	0.088500977	0.032615664	-0.005674363	-0.011634828	-0.795898438	0.318603516	0.691894531	880.86	-86.25296127	-78.01884322	-81.07065394	-61
9614	0	0.383034706	-0.082517624	0.005696297	0.999999046	0.001008987	4.19617E-05	1.04904E-05	9.575867653	-2.062940598	0.142407417	0.05044938	0.002098084	0.000524521	-0.800537109	0.318847656	0.692138672	880.96	-86.08691098	-78.03199182	-81.12313733	-61
9615	0	0.385925293	-0.083618164	0.004516602	0.999999046	0.000888824	6.96182E-05	0.000324249	9.648132324	-2.090454102	0.112915039	0.04444123	0.003480912	0.016212466	-0.798095703	0.320800781	0.683105469	881	-85.93190343	-78.00887374	-81.17556455	-62
9616	0	0.383308411	-0.080867767	0.005139351	0.999999046	0.001093864	-6.48499E-05	0.000564575	9.582710266	-2.021694183	0.128483772	0.054693236	-0.003242493	0.028228767	-0.798339844	0.323242188	0.688720703	881.08	-85.83569191	-77.95934115	-81.14520945	-61
9617	0	0.382995605	-0.079711914	0.004943848	0.999999046	0.000392914	-0.000372887	0.000846863	9.574890137	-1.992797852	0.123596191	0.019645694	-0.018644336	0.042343147	-0.795898438	0.322998047	0.688720703	880.92	-85.99523317	-77.88009863	-80.93724279	-62
9618	0	0.384506226	-0.082679749	0.003988266	0.999999046	-0.000900269	-0.000198364	0.000732422	9.61265564	-2.066993713	0.09970665	-0.045013438	-0.009918215	0.036621102	-0.796142578	0.327636719	0.685302734	880.9	-86.20433058	-77.81237751	-80.82373534	-61
9619	0	0.382263184	-0.088745117	0.005004883	0.999999046	-0.000793457	-0.000288963	0.000392914	9.55657959	-2.21862793	0.12512207	-0.039672857	-0.014448168	0.019645694	-0.793701172	0.325195313	0.688232422	880.96	-86.43630242	-77.78369748	-80.67647673	-61
9620	0	0.381829262	-0.089603424	0.00512886	0.999999046	0.000819206	-0.000329971	6.77109E-05	9.545731544	-2.240085602	0.128221512	0.040960317	-0.016498568	0.003385544	-0.796142578	0.325439453	0.69140625	880.92	-86.49435634	-77.79203586	-80.52059494	-61
9621	0	0.38269043	-0.0859375	0.003417969	0.999997139	0.001911163	-0.000472069	-9.53674E-05	9.567260742	-2.1484375	0.085449219	0.095558228	-0.023603455	-0.004768375	-0.796142578	0.327636719	0.685302734	880.86	-86.49806534	-77.8198196	-80.29125943	-61
9622	0	0.383379936	-0.079443932	0.003297806	0.999998093	0.001467705	-9.63211E-05	-0.000390053	9.584498405	-1.986098289	0.082445145	0.073385267	-0.004816057	-0.019502647	-0.793701172	0.329833984	0.687988281	880.96	-86.34438191	-77.87882172	-80.27400069	-62
9623	0	0.385864258	-0.078674316	0.004760742	0.999999046	-0.000225067	-0.000254631	-0.000270844	9.646606445	-1.96685791	0.119018555	-0.011253357	-0.012731553	-0.013542176	-0.793945313	0.329833984	0.690917969	881	-86.47333187	-77.92550186	-80.16571179	-62
9624	0	0.388959885	-0.080784798	0.001778603	0.999999046	-0.001126289	-3.24249E-05	-0.000495911	9.723997116	-2.019619942	0.044465065	-0.056314483	-0.001621247	-0.024795538	-0.793701172	0.327636719	0.688232422	880.92	-86.58090366	-77.99642645	-80.18357446	-62
9625	0	0.384521484	-0.08203125	0.008056641	0.999998093	-0.001769066	0.000232697	-0.00031662	9.613037109	-2.05078125	0.201416016	-0.088453341	0.011634833	-0.015831002	-0.793457031	0.322998047	0.688476563	880.96	-86.62457173	-78.04498078	-80.34362882	-62
9626	0	0.384082794	-0.085297585	0.008543015	0.999997139	-0.002328873	0.000272751	-1.23978E-05	9.602069855	-2.132439613	0.213575363	-0.116443741	0.013637555	-0.000619889	-0.795898438	0.322998047	0.688720703	880.98	-86.71937777	-78.05825411	-80.51307365	-63
9627	0	0.384765625	-0.088500977	0.006591797	0.999997139	-0.002170563	0.00036335	0.000286102	9.619140625	-2.212524414	0.164794922	-0.108528226	0.018167511	0.014305126	-0.798095703	0.318603516	0.689208984	881	-86.75616618	-78.036432	-80.7259396	-63
9628	0	0.383246422	-0.088858604	0.003615379	0.999999046	-0.000821114	0.000173569	0.000205994	9.581160545	-2.221465111	0.090384483	-0.041055684	0.008678437	0.010299684	-0.795654297	0.31640625	0.692138672	881.02	-86.73906125	-78.02461433	-80.83742623	-62
9629	0	0.381408691	-0.085327148	0.001525879	0.999999046	-0.000225067	-0.000308037	0.000278473	9.535217285	-2.133178711	0.038146973	-0.011253357	-0.015401841	0.013923646	-0.798095703	0.31640625	0.695068359	880.86	-86.91642763	-78.0073678	-80.68170387	-62
9630	0	0.384658813	-0.084077835	0.00179863	0.999999046	-0.000583649	-0.000164032	0.000225067	9.616470337	-2.101945877	0.044965744	-0.029182436	-0.0082016	0.011253358	-0.795654297	0.31640625	0.692138672	880.92	-87.05618965	-77.99516033	-80.60422435	-63
9631	0	0.383544922	-0.084655762	0.008239746	0.999999046	-0.000804901	-0.000407219	0.000225067	9.588623047	-2.116394043	0.205993652	-0.040245062	-0.02036095	0.011253359	-0.795654297	0.314208984	0.698242188	881	-87.35099155	-77.98408938	-80.3972191	-63
9632	0	0.384794235	-0.086368561	0.007907867	0.999999046	-0.001330376	-0.000232697	0.000213623	9.619855881	-2.15921402	0.197696686	-0.066518804	-0.01163483	0.010681156	-0.795410156	0.311767578	0.692382813	881.02	-87.61062607	-77.97301325	-80.28703952	-63
9633	0	0.383544922	-0.085083008	0.005126953	0.999999046	-0.000873566	3.14713E-05	1.14441E-05	9.588623047	-2.127075195	0.128173828	-0.043678289	0.001573563	0.000572205	-0.795410156	0.309570313	0.698486328	881	-87.67101298	-77.98361447	-80.32949596	-63
9634	0	0.382260323	-0.083875656	0.002256393	0.999999046	-0.000564575	-5.34058E-05	-0.000149727	9.556508064	-2.096891403	0.056409836	-0.028228761	-0.002670288	-0.007486344	-0.795410156	0.309570313	0.692626953	880.96	-87.73863325	-78.01295929	-80.32520466	-62
9635	0	0.38269043	-0.084716797	0.002624512	0.999999046	8.01086E-05	-0.000353813	-0.000549316	9.567260742	-2.117919922	0.065612793	0.004005432	-0.01769066	-0.027465822	-0.795410156	0.309570313	0.695556641	881.02	-87.88724025	-78.08922024	-80.16203257	-62
9636	0	0.384980202	-0.08453846	0.000288963	0.999998093	0.001255035	-0.000685692	-0.000805855	9.624505043	-2.113461494	0.007224083	0.062751798	-0.034284607	-0.040292758	-0.795410156	0.307373047	0.698730469	880.96	-88.08044083	-78.19596272	-79.82009528	-62
9637	0	0.389648438	-0.081542969	0.003540039	0.999997139	0.001964569	-0.000464439	-0.000808716	9.741210938	-2.038574219	0.088500977	0.098228532	-0.023221988	-0.040435823	-0.795410156	0.309570313	0.698486328	881.02	-88.07430801	-78.30208862	-79.59764387	-62
9638	0	0.389168739	-0.078027725	0.004461288	0.999997139	0.001966476	-0.000236511	-0.000657082	9.729218483	-1.95069313	0.111532211	0.098323893	-0.01182557	-0.032854104	-0.795654297	0.309814453	0.704345703	881.06	-87.94519654	-78.39014782	-79.50417214	-62
9639	0	0.389770508	-0.075439453	-0.000732422	0.999999046	0.00082016	0.000115395	-0.000171661	9.744262695	-1.885986328	-0.018310547	0.041008	0.00576973	-0.00858307	-0.795654297	0.312011719	0.698242188	881	-87.76147876	-78.42142378	-79.59689189	-62
9640	0	0.38466835	-0.075484276	0.004240036	0.999999046	-0.000634193	0.000307083	-0.000187874	9.616708755	-1.887106895	0.1060009	-0.031709674	0.015354158	-0.009393693	-0.795410156	0.311767578	0.692382813	880.92	-87.63585861	-78.45379984	-79.79702063	-62
9641	0	0.381347656	-0.076293945	0.002075195	0.999998093	-0.001704216	0.000328064	-0.000183105	9.533691406	-1.907348633	0.051879883	-0.085210843	0.016403207	-0.009155278	-0.795410156	0.309570313	0.695556641	881.06	-87.62079466	-78.48557034	-80.00914535	-62
9642	0	0.383206367	-0.079331398	0.0008955	0.999997139	-0.002300262	4.19617E-05	-0.000321388	9.580159187	-1.98328495	0.022387505	-0.115013226	0.002098085	-0.016069427	-0.795410156	0.307373047	0.695800781	880.92	-87.83230877	-78.53449526	-80.05702923	-62
9643	0	0.385986328	-0.081237793	-0.001037598	0.999996185	-0.002505302	6.86646E-05	-0.000328064	9.649658203	-2.030944824	-0.025939941	-0.125265255	0.003433231	-0.016403216	-0.800048828	0.303222656	0.702148438	881.12	-88.053878	-78.58398378	-80.12125559	-63
9644	0	0.383721352	-0.084728241	0.003411293	0.999996185	-0.002527237	0.000277519	8.01086E-05	9.593033791	-2.118206024	0.085282326	-0.126361983	0.013875976	0.004005436	-0.795166016	0.298339844	0.699462891	880.98	-88.1676118	-78.58562457	-80.2974888	-62
9645	0	0.386901855	-0.0859375	0.003051758	0.999998093	-0.001540184	0.000320435	9.53674E-05	9.672546387	-2.1484375	0.076293945	-0.077009233	0.016021735	0.004768374	-0.797363281	0.296386719	0.705566406	881	-88.14415679	-78.58501866	-80.49998839	-62
9646	0	0.384867668	-0.085536957	0.004621506	0.999999046	-5.34058E-05	0.000156403	-1.14441E-05	9.621691704	-2.13842392	0.115537643	-0.002670288	0.007820129	-0.000572205	-0.799804688	0.294189453	0.702880859	881.06	-88.04088327	-78.59686414	-80.61300693	-62
9647	0	0.385986328	-0.081176758	0.004150391	0.999999046	0.000846863	-0.000182152	-0.000167847	9.649658203	-2.029418945	0.103759766	0.042343145	-0.009107591	-0.008392335	-0.799560547	0.291748047	0.697265625	881.08	-88.02330646	-78.62780296	-80.53664737	-62
9648	0	0.383571625	-0.078723907	0.002861023	0.999999046	0.001139641	-0.00028038	-0.000297546	9.589290619	-1.968097687	0.071525574	0.056982054	-0.014019016	-0.014877323	-0.799560547	0.294189453	0.700195313	881.08	-88.02593096	-78.67395221	-80.40404725	-62
9649	0	0.384216309	-0.076721191	0.001159668	0.999999046	0.000881195	-0.000601768	-0.000213623	9.605407715	-1.918029785	0.028991699	0.044059762	-0.030088431	-0.010681154	-0.797363281	0.293945313	0.699951172	881.02	-88.24519671	-78.71169724	-80.08151581	-62
9650	0	0.386324883	-0.077898026	0.000525475	0.999999046	0.000793457	-0.000699997	-0.000202179	9.658122063	-1.947450638	0.013136864	0.039672859	-0.034999854	-0.01010895	-0.797363281	0.296142578	0.699707031	881	-88.53359453	-78.74817408	-79.69638143	-62
9651	0	0.385375977	-0.077514648	-0.000244141	0.999999046	0.001041412	-0.000647545	8.7738E-05	9.634399414	-1.937866211	-0.006103516	0.052070631	-0.032377251	0.004386903	-0.797363281	0.296386719	0.702636719	881.06	-88.76940718	-78.75095762	-79.33868475	-62
9652	0	0.384632111	-0.075809479	0.001489639	0.999999046	0.001122475	-0.000473022	0.000529289	9.615802765	-1.895236969	0.037240982	0.05612375	-0.02365113	0.02646447	-0.794921875	0.296142578	0.699707031	881.14	-88.90012955	-78.70260154	-79.08105643	-62
9653	0	0.385437012	-0.074401855	0.000610352	0.999999046	0.000671387	-0.00032711	0.00063324	9.635925293	-1.860046387	0.015258789	0.033569341	-0.016355517	0.031661992	-0.795166016	0.298583984	0.705322266	881.06	-88.99864447	-78.6420999	-78.9097005	-62
9654	0	0.389431	-0.073921204	-0.001866341	0.999999046	2.09808E-05	-0.000190735	0.000370026	9.735774994	-1.84803009	-0.046658516	0.001049042	-0.009536743	0.018501282	-0.795410156	0.302978516	0.701904297	881.06	-89.09112951	-78.61169387	-78.81346786	-62
9655	0	0.386962891	-0.075439453	-0.000915527	0.999999046	-0.000587463	0.000172615	5.34058E-05	9.674072266	-1.885986328	-0.022888184	-0.029373171	0.008630753	0.002670288	-0.792724609	0.302734375	0.698974609	881.06	-89.04404726	-78.61703853	-78.92792412	-62
9656	0	0.383595467	-0.077130318	0.002238274	0.999998093	-0.000616074	8.29697E-05	-0.000152588	9.589886665	-1.928257942	0.055956841	-0.030803683	0.004148484	-0.007629395	-0.792724609	0.300537109	0.702148438	881.06	-89.04892059	-78.64617885	-78.99497931	-62
9657	0	0.383972168	-0.078491211	0.00390625	0.999999046	-0.000682831	-0.000189781	2.67029E-05	9.599304199	-1.962280273	0.09765625	-0.034141543	-0.00948906	0.001335144	-0.795166016	0.30078125	0.705078125	881	-89.21811774	-78.65522496	-78.90162561	-62
9658	0	0.387263298	-0.079673767	0.000902176	0.999999046	-0.000131607	-0.000282288	-0.000138283	9.681582451	-1.991844177	0.022554398	-0.006580353	-0.01411438	-0.006914139	-0.795166016	0.298583984	0.705322266	881	-89.37621981	-78.68318405	-78.75774506	-62
9659	0	0.385681152	-0.08026123	-0.001647949	0.999999046	-2.28882E-05	-0.000460625	-0.000102997	9.642028809	-2.006530762	-0.04119873	-0.001144409	-0.023031236	-0.005149842	-0.792724609	0.300537109	0.705078125	881	-89.62575423	-78.70705555	-78.50338789	-62
9660	0	0.388503075	-0.083355904	-0.002438545	0.999999046	0.000815392	-0.000362396	-0.000180244	9.712576866	-2.083897591	-0.060963631	0.040769583	-0.018119815	-0.009012224	-0.795410156	0.30078125	0.708007813	881.02	-89.72426611	-78.73931243	-78.30772087	-62
9661	0	0.383728027	-0.081481934	-0.000854492	0.999997139	0.002071381	-0.000353813	0	9.593200684	-2.03704834	-0.021362305	0.103569107	-0.017690672	0	-0.790283203	0.298339844	0.702148438	881.12	-89.67516055	-78.75067945	-78.12108347	-62
9662	0	0.383483887	-0.076901436	0.000900269	0.999996185	0.00249958	-0.000624657	0.000232697	9.587097168	-1.922535896	0.022506714	0.124979159	-0.031232869	0.01163484	-0.792724609	0.302734375	0.698974609	880.96	-89.73338199	-78.73555202	-77.77403988	-61
9663	0	0.38458252	-0.074645996	-0.001220703	0.999998093	0.001851082	-0.000457764	0.000236511	9.614562988	-1.866149902	-0.030517578	0.092554149	-0.022888198	0.011825569	-0.790527344	0.305175781	0.704589844	881.06	-89.7697665	-78.71998999	-77.52700395	-62
9664	0	0.386047363	-0.074279785	-0.003234863	0.999999046	0.00098896	-0.00044632	0.000205994	9.651184082	-1.856994629	-0.080871582	0.049448023	-0.022315984	0.010299685	-0.788330078	0.307128906	0.701171875	881.06	-89.8987555	-78.70802734	-77.28389265	-62
9665	0	0.385877609	-0.075192451	-0.002182007	0.999998093	0.00092411	-0.000408173	9.82285E-05	9.646940231	-1.879811287	-0.054550171	0.046205529	-0.020408634	0.004911424	-0.790771484	0.309570313	0.704101563	880.96	-90.01350352	-78.70843715	-77.06288676	-62
9666	0	0.383771896	-0.074809074	0.001018524	0.999999046	0.000677109	-0.000509262	-0.000185966	9.594297409	-1.87022686	0.025463104	0.033855442	-0.025463107	-0.009298326	-0.788330078	0.309570313	0.704101563	880.86	-90.2149636	-78.74139322	-76.78230798	-62
9667	0	0.386291504	-0.075500488	-0.000793457	0.999999046	0.00019455	-0.000346184	-0.000175476	9.657287598	-1.887512207	-0.019836426	0.009727478	-0.017309189	-0.008773804	-0.788574219	0.311767578	0.703857422	880.96	-90.37909088	-78.77316777	-76.5922196	-62
9668	0	0.38564682	-0.07682991	0.000249863	0.999999046	-2.19345E-05	-0.000432968	3.8147E-06	9.641170502	-1.920747757	0.006246567	-0.001096725	-0.021648408	0.000190735	-0.788330078	0.309570313	0.704101563	880.92	-90.61789637	-78.78419578	-76.35453813	-62
9669	0	0.389770508	-0.078857422	-0.002746582	0.999999046	0.000106812	-0.000227928	0.000125885	9.744262695	-1.971435547	-0.068664551	0.005340576	-0.011396408	0.006294251	-0.788330078	0.309570313	0.70703125	880.96	-90.72333808	-78.78131973	-76.23906542	-62
9670	0	0.388650894	-0.079872131	-0.001870155	0.999999046	0.000242233	-0.000234604	-9.63211E-05	9.716272354	-1.996803284	-0.046753883	0.012111664	-0.011730194	-0.004816055	-0.788330078	0.309570313	0.704101563	881.02	-90.81908032	-78.80374304	-76.11659272	-62
9671	0	0.383422852	-0.080871582	0.000366211	0.999999046	0.001075745	-0.000216484	-4.57764E-05	9.585571289	-2.021789551	0.009155273	0.053787242	-0.010824206	-0.002288819	-0.788330078	0.309570313	0.704101563	880.96	-90.80820828	-78.82016998	-76.0076792	-62
9672	0	0.383856773	-0.079127312	0.000124931	0.999997139	0.002045631	-0.000350952	-5.05447E-05	9.596419334	-1.978182793	0.003123283	0.102281644	-0.01754762	-0.002527239	-0.788330078	0.311767578	0.700927734	880.96	-90.76396453	-78.83681646	-75.81934912	-62
9673	0	0.385620117	-0.076782227	-0.000549316	0.999997139	0.002147675	-0.000464439	1.52588E-05	9.64050293	-1.919555664	-0.01373291	0.107383814	-0.023221988	0.00076294	-0.788818359	0.316162109	0.706298828	881.08	-90.77342062	-78.84576507	-75.56432009	-62
9674	0	0.385434151	-0.075389862	8.67844E-05	0.999998093	0.00158596	-0.0001688	-8.10623E-05	9.635853767	-1.884746552	0.002169609	0.079298053	-0.008440021	-0.004053118	-0.783935547	0.316162109	0.706054688	880.92	-90.67592675	-78.86628712	-75.48569251	-62
9675	0	0.386535645	-0.075134277	-0.002075195	0.999999046	0.001285553	6.19888E-05	1.14441E-05	9.663391113	-1.878356934	-0.051879883	0.064277667	0.003099442	0.000572205	-0.786376953	0.318359375	0.703125	880.92	-90.47797847	-78.87660119	-75.54348806	-62
9676	0	0.384702682	-0.07349968	-0.001412392	0.999999046	0.000906944	-4.95911E-05	9.91821E-05	9.617567062	-1.837491989	-0.035309792	0.04534722	-0.002479554	0.004959107	-0.788818359	0.320800781	0.703125	880.98	-90.38805186	-78.87688099	-75.53434332	-62
9677	0	0.385620117	-0.072875977	0.000732422	0.999999046	-7.62939E-05	-8.67844E-05	0.000301361	9.64050293	-1.821899414	0.018310547	-0.003814697	-0.004339218	0.015068054	-0.786376953	0.322753906	0.699951172	880.96	-90.43122611	-78.85414414	-75.49923216	-62
9678	0	0.386795044	-0.075489998	-0.001117706	0.999999046	-0.001213074	0.000236511	0.00030899	9.669876099	-1.887249947	-0.027942657	-0.060653703	0.011825565	0.015449528	-0.786376953	0.320556641	0.702880859	881.12	-90.41681501	-78.83086921	-75.65792821	-62
9679	0	0.388427734	-0.077087402	-0.001342773	0.999998093	-0.001830101	0.00043869	0.000339508	9.710693359	-1.927185059	-0.033569336	-0.091505106	0.021934523	0.016975413	-0.786621094	0.320556641	0.705810547	881.02	-90.35641287	-78.8042415	-75.93267344	-62
9680	0	0.386480331	-0.080708504	0.000226974	0.999998093	-0.001647949	0.000594139	0.000411987	9.662008286	-2.017712593	0.005674362	-0.082397505	0.029706971	0.020599376	-0.786376953	0.316162109	0.703369141	881.06	-90.18590583	-78.7691011	-76.30152346	-63
9681	0	0.384643555	-0.081848145	0.000488281	0.999999046	-0.000793457	0.000412941	0.000499725	9.616088867	-2.046203613	0.012207031	-0.039672859	0.020647053	0.024986271	-0.791015625	0.31640625	0.703613281	881	-90.02336705	-78.72341978	-76.56277483	-63
9682	0	0.384197235	-0.079852104	0.000189781	0.999999046	0.000108719	0.000322342	0.000545502	9.604930878	-1.996302605	0.00474453	0.005435944	0.016117097	0.027275087	-0.788818359	0.316162109	0.706298828	880.92	-89.81121323	-78.67221727	-76.771519	-62
9683	0	0.383117676	-0.077697754	-0.000305176	0.999999046	0.000293732	-0.000197411	0.00056076	9.577941895	-1.942443848	-0.007629395	0.014686586	-0.00987053	0.028038027	-0.788574219	0.313964844	0.700683594	881.08	-89.87586554	-78.61936968	-76.6799239	-63
9684	0	0.383947372	-0.075628281	-0.002305984	0.999998093	-0.000455856	-0.00114727	0.000652313	9.598684311	-1.890707016	-0.057649612	-0.022792824	-0.057363529	0.032615672	-0.786376953	0.318359375	0.700195313	881.06	-90.56380962	-78.555611	-76.03158469	-63
9685	0	0.388671875	-0.077087402	-0.005249023	0.999999046	-0.001110077	-0.000678062	0.00044632	9.716796875	-1.927185059	-0.131225586	-0.055503863	-0.033903133	0.022315986	-0.786132813	0.316162109	0.700439453	881.02	-91.0581468	-78.51501532	-75.65901365	-63
9686	0	0.385914803	-0.081707001	0.00069809	0.999999046	-0.000679016	0.000104904	0.000480652	9.647870064	-2.042675018	0.01745224	-0.03395081	0.005245209	0.024032596	-0.786376953	0.316162109	0.706298828	881	-91.05920936	-78.47169702	-75.74096957	-63
9687	0	0.383178711	-0.080505371	0.003417969	0.999999046	0.000102997	0.000172615	0.00038147	9.579467773	-2.012634277	0.085449219	0.005149841	0.008630753	0.019073487	-0.786132813	0.313964844	0.700683594	880.92	-90.93283724	-78.43978421	-75.8641658	-63
9688	0	0.38537693	-0.078419685	0.000452995	0.999999046	0.000338554	0.000112534	0.000499725	9.634423256	-1.960492134	0.011324883	0.01692772	0.005626679	0.024986269	-0.786376953	0.318359375	0.703125	880.98	-90.81232862	-78.39422757	-75.94909642	-63
9689	0	0.384033203	-0.078857422	-0.002929688	0.999999046	0.00030899	-9.05991E-05	0.000274658	9.600830078	-1.971435547	-0.073242188	0.015449524	-0.004529953	0.013732911	-0.783935547	0.318359375	0.703125	880.92	-90.81112874	-78.37414842	-75.91616027	-63
9690	0	0.385697365	-0.079499245	-0.003317833	0.999999046	-7.05719E-05	-0.000270844	0.000484467	9.64243412	-1.987481117	-0.082945824	-0.003528595	-0.013542176	0.024223329	-0.786376953	0.318359375	0.706054688	880.92	-90.95211976	-78.32973161	-75.78542696	-63
9691	0	0.386108398	-0.082336426	-0.004943848	0.999999046	7.62939E-06	-9.05991E-05	0.000511169	9.652709961	-2.058410645	-0.123596191	0.00038147	-0.004529953	0.025558473	-0.783935547	0.318359375	0.706054688	881.06	-90.98412854	-78.28246822	-75.75710465	-63
9692	0	0.380836487	-0.081078529	-0.001899719	0.999999046	-0.000195503	-0.000652313	0.000537872	9.52091217	-2.026963234	-0.047492981	-0.009775163	-0.032615666	0.026893619	-0.784179688	0.320556641	0.708740234	880.9	-91.34783945	-78.23074854	-75.41159894	-63
9693	0	0.380432129	-0.08215332	-0.000488281	0.999998093	-0.000815392	-0.001342773	0.000431061	9.510803223	-2.053833008	-0.012207031	-0.040769595	-0.067138702	0.021553049	-0.781738281	0.320556641	0.705566406	881.02	-92.15887726	-78.18802083	-74.67796363	-63
9694	0	0.386825562	-0.086271286	-0.00099659	0.999998093	-0.001084328	-0.001181602	0.00018692	9.670639038	-2.15678215	-0.024914742	-0.054216408	-0.05908015	0.009346012	-0.781738281	0.320556641	0.708496094	881.08	-92.91319165	-78.17180354	-74.0319558	-63
9695	0	0.386108398	-0.08972168	-0.001708984	0.999999046	-0.000827789	-0.000536919	-0.000137329	9.652709961	-2.243041992	-0.042724609	-0.041389472	-0.026845936	-0.006866456	-0.779296875	0.315917969	0.714599609	880.9	-93.29378403	-78.19499785	-73.74456782	-63
9696	0	0.385094643	-0.09223938	-0.001360893	0.999999046	0.001046181	-0.000576019	-4.76837E-05	9.627366066	-2.305984497	-0.034022331	0.052309049	-0.028800971	-0.002384186	-0.779296875	0.315917969	0.714599609	880.92	-93.47811967	-78.20685968	-73.44067782	-63
9697	0	0.384338379	-0.085510254	-0.004455566	0.999995232	0.002883911	-0.000288963	-0.000148773	9.608459473	-2.137756348	-0.11138916	0.144195759	-0.014448186	-0.00743867	-0.779296875	0.318115234	0.711425781	881.06	-93.29796956	-78.23203373	-73.29604296	-62
9698	0	0.384358406	-0.079322815	-0.005075455	0.999997139	0.00210762	-0.000135422	-0.000157356	9.608960152	-1.983070374	-0.126886368	0.105381091	-0.006771093	-0.007867819	-0.777099609	0.322509766	0.7109375	880.98	-93.1226649	-78.25938059	-73.2333744	-62
9699	0	0.379333496	-0.077636719	-0.002746582	0.999999046	0.000736237	-0.000212669	-0.000141144	9.483337402	-1.940917969	-0.068664551	0.036811832	-0.01063347	-0.007057191	-0.777099609	0.322509766	0.7109375	880.96	-93.14617726	-78.28454048	-73.12941795	-62
9700	0	0.384784698	-0.078635216	-0.005419731	0.999999046	-0.000144005	-0.000551224	-3.05176E-05	9.619617462	-1.965880394	-0.135493279	-0.007200241	-0.027561189	-0.001525879	-0.779541016	0.324951172	0.708007813	880.96	-93.45471595	-78.29486934	-72.83159429	-62
9701	0	0.388671875	-0.083007813	-0.006774902	0.999999046	-0.000221252	6.19888E-05	6.86646E-05	9.716796875	-2.075195313	-0.169372559	-0.011062622	0.003099442	0.003433228	-0.777099609	0.324951172	0.7109375	880.96	-93.43097819	-78.29785684	-72.88181384	-61
9702	0	0.384815216	-0.081289291	-0.003346443	0.999999046	0.000225067	0.000349045	-4.19617E-05	9.620380402	-2.032232285	-0.083661079	0.011253357	0.01745224	-0.002098084	-0.777099609	0.322509766	0.7109375	881.06	-93.20051834	-78.31536789	-73.09568716	-62
9703	0	0.380859375	-0.076721191	-0.003662109	0.999999046	-0.000148773	-0.000151634	8.01086E-05	9.521484375	-1.918029785	-0.091552734	-0.00743866	-0.007581711	0.004005432	-0.779541016	0.324951172	0.7109375	880.96	-93.28565317	-78.31578236	-73.02684403	-61
9704	0	0.387069702	-0.076903343	-0.006855011	0.999999046	-0.001229286	-0.000453949	6.48499E-05	9.676742554	-1.92258358	-0.171375275	-0.061464327	-0.022697455	0.003242494	-0.777099609	0.322509766	0.7109375	881.02	-93.66298981	-78.31599719	-72.78594433	-61
9705	0	0.38494873	-0.082763672	-0.008239746	0.999997139	-0.001903534	-0.000422478	0.000171661	9.623718262	-2.069091797	-0.205993652	-0.095176758	-0.0211239	0.008583074	-0.774414063	0.318115234	0.714111328	880.98	-94.09684803	-78.30378706	-72.5693823	-61
9706	0	0.385828972	-0.084700584	-0.007363319	0.999998093	-0.001719475	-7.15256E-05	0.000137329	9.645724297	-2.11751461	-0.184082985	-0.085973782	-0.00357628	0.006866458	-0.774414063	0.318115234	0.714111328	881.06	-94.31717454	-78.29800845	-72.54436144	-61
9707	0	0.385375977	-0.084594727	-0.006530762	0.999999046	-0.000858307	-0.000113487	0.000259399	9.634399414	-2.114868164	-0.163269043	-0.04291535	-0.005674363	0.012969972	-0.777099609	0.318115234	0.717285156	880.96	-94.45672193	-78.27772088	-72.50142798	-61
9708	0	0.386795998	-0.083200455	-0.004870415	0.999999046	-0.000346184	-2.86102E-05	0.000156403	9.66989994	-2.080011368	-0.121760368	-0.017309189	-0.001430512	0.00782013	-0.776855469	0.315917969	0.717529297	881.06	-94.4946982	-78.26986772	-72.50561313	-61
9709	0	0.386169434	-0.082580566	-0.006530762	0.999999046	-0.000225067	0.000348091	0.000171661	9.65423584	-2.06451416	-0.163269043	-0.011253357	0.017404557	0.008583069	-0.776855469	0.313720703	0.714599609	880.98	-94.31098619	-78.26352802	-72.72454015	-61
9710	0	0.386880875	-0.079901695	-0.009167671	0.999999046	0.000137329	0.000463486	0.000202179	9.672021866	-1.997542381	-0.22919178	0.006866455	0.023174287	0.010108948	-0.776855469	0.315917969	0.714599609	880.9	-94.0221207	-78.25455901	-73.00506077	-61
9711	0	0.386535645	-0.079711914	-0.008789063	0.999999046	0.000167847	0.000447273	0.000221252	9.663391113	-1.992797852	-0.219726563	0.008392334	0.022363664	0.011062623	-0.774414063	0.315917969	0.714355469	881.02	-93.73918153	-78.24308584	-73.27588628	-60
9712	0	0.38424778	-0.079274178	-0.00640583	0.999999046	0.00024128	0.00028038	9.91821E-05	9.606194496	-1.981854439	-0.16014576	0.01206398	0.014019013	0.004959107	-0.776855469	0.318115234	0.714355469	880.92	-93.54440952	-78.24422317	-73.44561355	-61
9713	0	0.383850098	-0.078491211	-0.007019043	0.999999046	0.000427246	0.000203133	-3.8147E-05	9.596252441	-1.962280273	-0.175476074	0.021362305	0.010156632	-0.001907349	-0.779296875	0.318115234	0.714355469	881.06	-93.37570282	-78.26054786	-73.56881832	-60
9714	0	0.382637978	-0.078225136	-0.007347107	0.999999046	0.000720978	0.000284195	-0.000152588	9.56594944	-1.955628395	-0.183677673	0.036048893	0.014209749	-0.007629395	-0.779296875	0.318115234	0.714355469	880.98	-93.13229934	-78.29051745	-73.73532791	-61
9715	0	0.38458252	-0.074707031	-0.007324219	0.999999046	-2.67029E-05	-1.43051E-05	-8.39233E-05	9.614562988	-1.867675781	-0.183105469	-0.001335144	-0.000715256	-0.004196167	-0.779296875	0.318115234	0.714355469	880.92	-93.13748157	-78.31098763	-73.7347929	-61
9716	0	0.390332222	-0.076716423	-0.012833595	0.999999046	-0.000573158	0.000307083	-0.000259399	9.75830555	-1.917910576	-0.320839882	-0.028657916	0.015354158	-0.012969972	-0.779296875	0.318115234	0.711425781	881.08	-93.03441678	-78.35374897	-73.90472735	-60
9717	0	0.385498047	-0.077575684	-0.008483887	0.999999046	-0.00056839	0.000489235	-3.05176E-05	9.637451172	-1.93939209	-0.212097168	-0.028419497	0.024461749	-0.001525879	-0.779052734	0.313720703	0.71484375	881	-92.82298728	-78.3714139	-74.19247283	-61
9718	0	0.382455826	-0.077363968	-0.005391121	0.999999046	-0.000179291	0.000247955	-5.72205E-05	9.561395645	-1.934099197	-0.134778023	-0.008964539	0.012397766	-0.002861023	-0.779052734	0.315917969	0.708740234	880.98	-92.70151786	-78.39074281	-74.33496551	-61
9719	0	0.384643555	-0.075012207	-0.008544922	0.999999046	-0.000247955	5.05447E-05	-0.000114441	9.616088867	-1.875305176	-0.213623047	-0.012397766	0.002527237	-0.005722046	-0.781738281	0.316162109	0.71484375	880.86	-92.7002157	-78.41575142	-74.36461612	-61
9720	0	0.385943413	-0.077240944	-0.006714821	0.999999046	-0.000803947	-0.000110626	-0.000386238	9.64858532	-1.931023598	-0.167870522	-0.040197378	-0.005531312	-0.019311908	-0.781494141	0.311523438	0.712158203	880.96	-92.86083642	-78.47110281	-74.29772754	-61
9721	0	0.382141113	-0.07989502	-0.00567627	0.999999046	-0.000331879	-0.000296593	-0.00056076	9.553527832	-1.997375488	-0.141906738	-0.016593935	-0.014829637	-0.028038027	-0.781494141	0.309326172	0.715332031	880.86	-93.07860701	-78.54520747	-74.11963219	-61
9722	0	0.384607315	-0.080192566	-0.006874084	0.999999046	0.000261307	-0.000293732	-0.000576973	9.615182877	-2.004814148	-0.171852112	0.013065339	-0.014686586	-0.02884865	-0.781494141	0.309326172	0.718261719	880.92	-93.23007243	-78.62098017	-73.93955028	-61
9723	0	0.381958008	-0.077880859	-0.003723145	0.999999046	0.000652313	-0.000418663	-0.000209808	9.548950195	-1.947021484	-0.093078613	0.032615665	-0.020933153	-0.010490419	-0.779052734	0.309326172	0.715087891	880.98	-93.39723739	-78.65380394	-73.69631645	-61
9724	0	0.385281563	-0.076383591	-0.004984856	0.999999046	0.000229836	-0.00053215	-0.000209808	9.63203907	-1.909589767	-0.124621391	0.011491776	-0.026607515	-0.010490418	-0.78125	0.309326172	0.712402344	880.9	-93.6787986	-78.68571271	-73.38505641	-61
9725	0	0.387817383	-0.077209473	-0.006103516	0.999999046	-8.01086E-05	-0.000510216	-5.34058E-05	9.69543457	-1.930236816	-0.152587891	-0.004005432	-0.025510789	-0.002670288	-0.779052734	0.309326172	0.718017578	880.86	-93.97883775	-78.69964066	-73.09187226	-61
9726	0	0.387025833	-0.077350616	-0.006206512	0.999999046	5.91278E-05	-0.000450134	-0.000184059	9.675645828	-1.933765411	-0.155162811	0.00295639	-0.022506715	-0.009202958	-0.779052734	0.309326172	0.718017578	880.98	-94.23475151	-78.72873923	-72.82655636	-61
9727	0	0.385253906	-0.077026367	-0.004577637	0.999999046	0.000301361	-0.000243187	-0.000183105	9.631347656	-1.92565918	-0.114440918	0.015068055	-0.012159348	-0.009155274	-0.779052734	0.307128906	0.721191406	881.02	-94.34467273	-78.75935302	-72.68728765	-61
9728	0	0.383569717	-0.07627964	-0.005879402	0.999999046	0.000494957	-0.000183105	-0.000145912	9.589242935	-1.906991005	-0.146985054	0.02474785	-0.009155274	-0.007295609	-0.776611328	0.309082031	0.715087891	880.86	-94.39657369	-78.78622424	-72.57776447	-61
9729	0	0.383911133	-0.075134277	-0.007568359	0.999999046	0.00038147	-0.000388145	-8.01086E-05	9.59777832	-1.878356934	-0.189208984	0.019073487	-0.019407273	-0.004005432	-0.776611328	0.309082031	0.715087891	880.98	-94.57747295	-78.80376177	-72.35049821	-61
9730	0	0.383491516	-0.074832916	-0.005430222	0.999999046	-0.000102997	-0.000642776	-7.24792E-05	9.587287903	-1.870822906	-0.135755539	-0.005149842	-0.032138827	-0.003623963	-0.779052734	0.311523438	0.718017578	880.98	-94.96089966	-78.81786321	-71.96980965	-61
9731	0	0.387573242	-0.075256348	-0.008666992	0.999999046	-0.000484467	-0.000529289	-7.62939E-06	9.689331055	-1.881408691	-0.216674805	-0.02422333	-0.026464465	-0.00038147	-0.776611328	0.309082031	0.720947266	880.98	-95.32028296	-78.82533138	-71.66142885	-61
9732	0	0.386219025	-0.076154709	-0.011958122	0.999999046	-0.000555992	-0.000188828	0.000205994	9.655475616	-1.903867722	-0.298953056	-0.027799608	-0.009441376	0.010299683	-0.779052734	0.309326172	0.720947266	880.92	-95.48084308	-78.81183057	-71.56312085	-61
9733	0	0.38494873	-0.075134277	-0.006225586	0.999999046	-0.000648499	-0.000277519	0.000301361	9.623718262	-1.878356934	-0.155639648	-0.03242493	-0.013875963	0.015068056	-0.776611328	0.306884766	0.724121094	880.98	-95.6968103	-78.78647208	-71.42289941	-61
9734	0	0.386181831	-0.074321747	-0.006842613	0.999999046	-0.001077652	-0.000339508	0.000320435	9.654545784	-1.858043671	-0.171065331	-0.053882611	-0.016975407	0.016021732	-0.774169922	0.3046875	0.727050781	880.96	-95.99513599	-78.75821993	-71.25066039	-61
9735	0	0.388122559	-0.075683594	-0.009033203	0.999997139	-0.002059937	-0.00014019	0.000343323	9.703063965	-1.892089844	-0.225830078	-0.102996901	-0.007009511	0.01716615	-0.774169922	0.3046875	0.724121094	880.9	-96.28940047	-78.72970593	-71.19037482	-62
9736	0	0.385257721	-0.07982254	-0.008006096	0.999998093	-0.001811981	5.24521E-05	0.000358582	9.631443024	-1.995563507	-0.200152397	-0.090599112	0.002622606	0.017929087	-0.773925781	0.302490234	0.724365234	881.06	-96.44321063	-78.70171764	-71.24388346	-62
9737	0	0.385009766	-0.080871582	-0.00970459	0.999999046	-0.000663757	-0.000144005	0.000247955	9.625244141	-2.021789551	-0.242614746	-0.033187869	-0.007200242	0.012397767	-0.773925781	0.297851563	0.724609375	880.98	-96.58419209	-78.68360419	-71.18389215	-62
9738	0	0.382586479	-0.079339981	-0.009676933	0.999999046	0.000379562	-0.000249863	0.000376701	9.56466198	-1.983499527	-0.241923332	0.01897812	-0.012493134	0.018835069	-0.776367188	0.300292969	0.721679688	881.08	-96.65685494	-78.64928067	-71.06849389	-61
9739	0	0.385192871	-0.078369141	-0.00958252	0.999999046	0.000900269	-0.000411034	0.000312805	9.629821777	-1.959228516	-0.239562988	0.045013436	-0.020551685	0.015640262	-0.773925781	0.300048828	0.724365234	880.86	-96.76465028	-78.6199877	-70.86038601	-61
9740	0	0.384343147	-0.075881958	-0.010251999	0.999998093	0.001379013	-0.000451088	0.000102043	9.608578682	-1.89704895	-0.256299973	0.068950677	-0.022554406	0.005102159	-0.773925781	0.302490234	0.724365234	880.9	-96.85396123	-78.61413387	-70.61443771	-61
9741	0	0.385253906	-0.074707031	-0.011169434	0.999999046	0.000957489	-0.000502586	5.72205E-05	9.631347656	-1.867675781	-0.27923584	0.04787446	-0.025129323	0.002861024	-0.771728516	0.3046875	0.729736328	880.92	-97.0239314	-78.61268986	-70.33524004	-61
9742	0	0.388407707	-0.075749397	-0.01123333	0.999999046	0.000577927	-0.000371933	-0.000164032	9.71019268	-1.893734932	-0.280833244	0.028896334	-0.018596651	-0.0082016	-0.771728516	0.3046875	0.726806641	880.98	-97.17966348	-78.63821067	-70.11445566	-61
9743	0	0.386474609	-0.075378418	-0.010803223	0.999999046	0.000606537	-0.000174522	-2.67029E-05	9.661865234	-1.884460449	-0.270080566	0.030326845	-0.008726121	-0.001335144	-0.771728516	0.306884766	0.723876953	880.96	-97.21123774	-78.65098405	-70.01272115	-62
9744	0	0.38684082	-0.07475853	-0.008834839	0.999999046	0.000519753	-0.00019455	0.00012207	9.671020508	-1.868963242	-0.220870972	0.025987627	-0.009727479	0.006103516	-0.774169922	0.306884766	0.726806641	880.92	-97.25308946	-78.64668554	-69.91444566	-62
9745	0	0.385498047	-0.075134277	-0.011047363	0.999999046	0.00050354	-0.000159264	4.57764E-05	9.637451172	-1.878356934	-0.276184082	0.025177003	-0.007963181	0.002288818	-0.774414063	0.309082031	0.7265625	881.02	-97.28247664	-78.65165426	-69.82768783	-62
9746	0	0.384755135	-0.075057983	-0.009631157	0.999999046	0.00028801	-0.000448227	3.8147E-06	9.618878365	-1.876449585	-0.240778923	0.014400483	-0.022411347	0.000190735	-0.76953125	0.306640625	0.7265625	880.92	-97.50318141	-78.65718949	-69.57438594	-62
9747	0	0.388244629	-0.075439453	-0.013549805	0.999999046	-0.000427246	-0.000189781	-4.19617E-05	9.706115723	-1.885986328	-0.338745117	-0.021362305	-0.00948906	-0.002098084	-0.769287109	0.306640625	0.723632813	880.92	-97.66388845	-78.6717496	-69.4625555	-62
9748	0	0.386719704	-0.078448296	-0.012666702	0.999999046	-0.000529289	0.000188828	9.53674E-05	9.667992592	-1.96120739	-0.316667557	-0.026464464	0.009441376	0.004768372	-0.771972656	0.306884766	0.729736328	880.96	-97.61162777	-78.67637811	-69.58133264	-62
9749	0	0.383605957	-0.07800293	-0.009765625	0.999999046	0.000240326	3.91006E-05	0.000152588	9.590148926	-1.950073242	-0.244140625	0.012016297	0.001955032	0.007629395	-0.771972656	0.306884766	0.729736328	880.86	-97.55133622	-78.6721501	-69.61915991	-62
9750	0	0.384559631	-0.075501442	-0.010738373	0.999999046	7.82013E-05	-9.53674E-05	0.000232697	9.613990784	-1.887536049	-0.26845932	0.003910065	-0.004768372	0.011634827	-0.771972656	0.306884766	0.726806641	881.06	-97.57978141	-78.65685012	-69.58469485	-62
9751	0	0.388244629	-0.076538086	-0.012878418	0.999999046	-0.000476837	0.000222206	0.000247955	9.706115723	-1.913452148	-0.321960449	-0.023841859	0.011110306	0.012397767	-0.76953125	0.306884766	0.729492188	880.96	-97.49139969	-78.64462818	-69.73341445	-62
9752	0	0.382900238	-0.076840401	-0.010707855	0.999999046	-0.000908852	0.000118256	0.000319481	9.572505951	-1.921010017	-0.267696381	-0.045442588	0.005912782	0.015974047	-0.771972656	0.306884766	0.729736328	881.02	-97.50613158	-78.62269315	-69.82627614	-63
9753	0	0.387695313	-0.079101563	-0.010620117	0.999999046	-0.000881195	0.000180244	0.000347137	9.692382813	-1.977539063	-0.26550293	-0.04405976	0.009012224	0.017356875	-0.771728516	0.302246094	0.727050781	880.98	-97.48069807	-78.59847119	-69.96278739	-63
9754	0	0.386727333	-0.079474449	-0.010194778	0.999999046	-0.000453949	0.000360489	0.000362396	9.668183327	-1.986861229	-0.254869461	-0.02269745	0.018024446	0.018119813	-0.771728516	0.302246094	0.729980469	881.06	-97.30392775	-78.57504273	-70.20426055	-63
9755	0	0.383605957	-0.078186035	-0.00793457	0.999999046	-3.43323E-05	-1.43051E-05	0.00031662	9.590148926	-1.954650879	-0.198364258	-0.001716614	-0.000715256	0.015830994	-0.771728516	0.3046875	0.729736328	880.98	-97.29286914	-78.55125705	-70.22305878	-63
9756	0	0.386425018	-0.077575684	-0.012102127	0.999999046	-1.43051E-05	0.000139236	0.000228882	9.660625458	-1.93939209	-0.302553177	-0.000715256	0.006961823	0.011444092	-0.771728516	0.302246094	0.724121094	881.06	-97.20011368	-78.53967232	-70.32560831	-63
9757	0	0.385803223	-0.077453613	-0.012207031	0.999999046	-0.000217438	0.000393867	0.000255585	9.645080566	-1.936340332	-0.305175781	-0.010871888	0.019693376	0.012779236	-0.771728516	0.304443359	0.723876953	881.06	-96.98666882	-78.52861788	-70.57032142	-63
9758	0	0.384735107	-0.07691288	-0.012000084	0.999999046	-0.000120163	0.000333786	0.000423431	9.618377686	-1.922821999	-0.300002098	-0.006008148	0.016689301	0.021171571	-0.774169922	0.3046875	0.724121094	881.02	-96.78544368	-78.4975022	-70.79246358	-63
9759	0	0.387573242	-0.077880859	-0.011230469	0.999999046	-0.000450134	0.000447273	0.00056839	9.689331055	-1.947021484	-0.280761719	-0.022506717	0.022363665	0.028419498	-0.774169922	0.3046875	0.724121094	881.02	-96.55082135	-78.45126231	-71.08741458	-63
9760	0	0.385113716	-0.077272415	-0.010346413	0.999999046	-0.000357628	0.000627518	0.000476837	9.627842903	-1.931810379	-0.258660316	-0.017881396	0.031375889	0.023841861	-0.774169922	0.3046875	0.727050781	880.92	-96.21328129	-78.41750942	-71.47797438	-64
9761	0	0.385925293	-0.077758789	-0.009887695	0.999999046	-0.000328064	0.000645638	0.000682831	9.648132324	-1.943969727	-0.247192383	-0.016403201	0.032281881	0.034141546	-0.774169922	0.3046875	0.727050781	880.92	-95.85288715	-78.36008131	-71.88930157	-64
9762	0	0.388212204	-0.077550888	-0.00962162	0.999999046	-0.000406265	0.00043869	0.000754356	9.705305099	-1.938772202	-0.240540504	-0.020313266	0.021934513	0.037717825	-0.774169922	0.3046875	0.721191406	881.06	-95.61553329	-78.29180992	-72.18255986	-64
9763	0	0.389892578	-0.07989502	-0.012817383	0.999999046	-0.000125885	0.000760078	0.000743866	9.747314453	-1.997375488	-0.32043457	-0.006294252	0.038003929	0.037193305	-0.774169922	0.3046875	0.724121094	880.98	-95.17475552	-78.22786511	-72.65380498	-64
9764	0	0.386984825	-0.078332901	-0.010357857	0.999999046	0.000397682	0.000947952	0.000823975	9.674620628	-1.958322525	-0.258946419	0.019884115	0.047397627	0.041198742	-0.776611328	0.3046875	0.724121094	881.02	-94.57368112	-78.15583687	-73.23218867	-64
9765	0	0.385986328	-0.076599121	-0.009399414	0.999998093	0.001034737	0.000862122	0.000816345	9.649658203	-1.914978027	-0.234985352	0.051736853	0.043106097	0.040817278	-0.776611328	0.306884766	0.718261719	881.02	-93.95422677	-78.08290893	-73.75348262	-65
9766	0	0.386860847	-0.073407173	-0.009985924	0.999998093	0.000723839	0.000805855	0.00090313	9.671521187	-1.835179329	-0.249648094	0.036191952	0.040292753	0.045156494	-0.776611328	0.309082031	0.718017578	881.12	-93.40558992	-77.99895121	-74.23925836	-65
9767	0	0.391357422	-0.074401855	-0.012451172	0.999998093	0.000199318	0.000976563	0.001079559	9.783935547	-1.860046387	-0.311279297	0.0099659	0.048828143	0.053977986	-0.779052734	0.311523438	0.715087891	881.02	-92.82967996	-77.89529907	-74.81322873	-65
9768	0	0.389691353	-0.075920105	-0.011660576	0.999998093	0.000530243	0.000994682	0.001010895	9.742283821	-1.898002625	-0.291514397	0.026512156	0.049734135	0.050544758	-0.779296875	0.315917969	0.711669922	881.06	-92.21909167	-77.79871467	-75.37857037	-65
9769	0	0.391296387	-0.07434082	-0.011169434	0.999997139	0.001144409	0.001088142	0.001159668	9.782409668	-1.858520508	-0.27923584	0.057220496	0.054407155	0.057983436	-0.781494141	0.315917969	0.708984375	881.08	-91.4979925	-77.68452015	-75.99212967	-64
9770	0	0.389438629	-0.073802948	-0.009544373	0.999997139	0.001054764	0.001190186	0.001467705	9.735965729	-1.8450737	-0.238609314	0.052738231	0.059509324	0.073385296	-0.781738281	0.320556641	0.708496094	881.06	-90.74543287	-77.5341146	-76.64711439	-63
9771	0	0.387756348	-0.072631836	-0.007385254	0.999996185	0.001317024	0.001251221	0.001873016	9.693908691	-1.815795898	-0.184631348	0.065851286	0.062561106	0.093650924	-0.784179688	0.322753906	0.705566406	880.98	-89.94948237	-77.33601729	-77.32157787	-62
9772	0	0.388381004	-0.067579269	-0.008008003	0.999994278	0.000137329	0.001772881	0.002598763	9.709525108	-1.689481735	-0.200200081	0.006866466	0.088644174	0.12993834	-0.784423828	0.327392578	0.702392578	880.92	-89.05574278	-77.05302808	-78.23375421	-60
9773	0	0.386657715	-0.062072754	-0.005249023	0.999988556	-0.001479149	0.002376556	0.003631592	9.666442871	-1.551818848	-0.131225586	-0.073957702	0.118828236	0.181580226	-0.784423828	0.331787109	0.698974609	880.96	-88.10798151	-76.6480602	-79.38990223	-60
9774	0	0.382946014	-0.058813095	0.000430107	0.999974251	-0.004764557	0.003206253	0.004155159	9.57365036	-1.470327377	0.010752678	-0.238229839	0.160313995	0.20775969	-0.786865234	0.331787109	0.696289063	881.06	-87.21782897	-76.17658614	-80.87522304	-58
9775	0	0.385925293	-0.071594238	0.000427246	0.999956131	-0.007166862	0.003608704	0.004718781	9.648132324	-1.789855957	0.010681152	-0.3583483	0.180437787	0.235942434	-0.7890625	0.329589844	0.696533203	881.06	-86.51344458	-75.63432751	-82.45524589	-59
9776	0	0.376643181	-0.087040901	-0.000271797	0.999976158	-0.00165844	0.004285812	0.005022049	9.416079521	-2.17602253	-0.00679493	-0.082922622	0.214292274	0.251104387	-0.7890625	0.331787109	0.693359375	881.12	-84.99423528	-75.04461189	-84.23466723	-60
9777	0	0.353881836	-0.07635498	0.003112793	0.999967575	0.005620003	0.004371643	0.003505707	8.847045898	-1.908874512	0.077819824	0.281003087	0.218584448	0.175287179	-0.793945313	0.336425781	0.684570313	881.12	-82.67053163	-74.61259672	-86.00537709	-61
9778	0	0.342622757	-0.087965012	0.019294739	0.999908447	0.011622429	0.005063057	0.00467968	8.565568924	-2.19912529	0.482368469	0.581139133	0.253160553	0.233991116	-0.799316406	0.352294922	0.674560547	881.12	-79.58507246	-74.01429629	-87.87366871	-60
9779	0	0.281311035	-0.075317383	0.004089355	0.999660492	0.013585091	0.017871857	0.013195038	7.032775879	-1.88293457	0.102233887	0.679331319	0.893693851	0.659826474	-0.802734375	0.381591797	0.657714844	880.98	-72.68191035	-72.07389675	-93.52906452	-59
9780	0	0.389962196	-0.120536804	0.089663506	0.999192238	-0.016123772	0.015022278	0.033586502	9.749054909	-3.013420105	2.241587639	-0.806405565	0.75131605	1.679777086	-0.80859375	0.419677734	0.622802734	881.06	-73.1021364	-67.90729766	-95.10373383	-57
9781	0	0.385803223	-0.20123291	0.095947266	0.999263763	0.009755135	0.024425507	0.027927399	9.645080566	-5.030822754	2.398681641	0.487876448	1.221575088	1.396712669	-0.804931641	0.459960938	0.595703125	881.08	-68.40372041	-63.97614219	-99.10513546	-57
9782	0	0.48826313	-0.22163105	0.109274864	0.998700142	0.027532578	0.027837753	0.032622337	12.20657825	-5.540776253	2.731871605	1.37722547	1.392490872	1.63182375	-0.804443359	0.526855469	0.534423828	880.98	-62.70941398	-59.26467244	-102.0987961	-56
9783	0	0.423400879	-0.198974609	0.111633301	0.998707771	0.02167511	0.024136543	0.039115906	10.58502197	-4.974365234	2.79083252	1.084222491	1.207347194	1.956638054	-0.794921875	0.615966797	0.46484375	881.06	-59.7943109	-54.01731277	-102.7221681	-55
9784	0	0.341543198	-0.239933014	0.136693954	0.998441696	0.030935287	0.025752068	0.038640022	8.538579941	-5.998325348	3.417348862	1.547568068	1.288272413	1.933004976	-0.768310547	0.697753906	0.389160156	881.06	-56.04260322	-48.70917263	-103.100861	-56
9785	0	0.19909668	-0.152526855	0.1484375	0.998080254	0.037712097	0.030385017	0.038597107	4.977416992	-3.813171387	3.7109375	1.886812218	1.520223652	1.93109104	-0.726806641	0.778808594	0.292236328	881.06	-51.49705805	-43.09187005	-103.5152988	-57
9786	0	0.111418724	-0.082242012	0.147480965	0.997777939	0.031704903	0.035037041	0.046967506	2.785468102	-2.056050301	3.687024117	1.58642023	1.753150634	2.350116105	-0.677734375	0.859375	0.186279297	881.02	-48.17444885	-36.39397366	-103.1363577	-58
9787	0	0.126098633	-0.09173584	0.108520508	0.997465134	0.031849861	0.04019928	0.049316406	3.15246582	-2.293395996	2.713012695	1.593839795	2.011663773	2.467905604	-0.597167969	0.929931641	0.085205078	881.14	-44.8528381	-29.1275313	-102.6222808	-62
9788	0	0.223261833	-0.068413734	0.044147491	0.997042656	0.03586483	0.045944214	0.050070763	5.58154583	-1.710343361	1.103687286	1.795010827	2.299477267	2.506008281	-0.506347656	0.991210938	-0.033447266	880.92	-41.01081021	-21.37472494	-102.0699919	-65
9789	0	0.444519043	-0.049377441	-0.141723633	0.996476173	0.025588989	0.060154915	0.052547455	11.11297607	-1.234436035	-3.54309082	1.28095431	3.011283357	2.630462973	-0.395507813	1.035888672	-0.148681641	880.96	-38.1418103	-12.2529798	-101.9328805	-63
9790	0	0.537641525	-0.018977165	-0.333591461	0.995175362	0.022817612	0.082321167	0.04823494	13.44103813	-0.474429131	-8.33978653	1.142718533	4.122689284	2.415632282	-0.2578125	1.064208984	-0.246582031	881.12	-35.37871222	-1.43604299	-103.2671315	-62
9791	0	0.444702148	0.064453125	-0.27154541	0.994835854	0.003211975	0.090405464	0.046005249	11.11755371	1.611328125	-6.788635254	0.160875734	4.52806916	2.30422963	-0.105224609	1.071777344	-0.325927734	881.06	-35.15132337	10.00026638	-105.0673644	-73
9792	0	0.138210297	0.089543343	-0.140727043	0.996190071	-0.002577782	0.070791245	0.0508461	3.455257416	2.238583565	-3.518176079	-0.129052977	3.544063076	2.545537747	0.048095703	1.084472656	-0.323730469	881.02	-35.44769311	19.91031135	-105.1054822	-79
9793	0	-0.718994141	-0.167907715	0.461730957	0.998831749	0.000476837	0.046982765	-0.011222839	-17.97485352	-4.197692871	11.54327393	0.02385114	2.350052863	-0.56136044	0.202392578	1.074707031	-0.319824219	881.02	-37.0828508	23.43201666	-109.433727	-70
9794	0	-1.021737099	-0.742310524	1.083055496	0.991235733	-0.10425663	-0.039530754	-0.070841789	-25.54342747	-18.5577631	27.07638741	-5.228113053	-1.982331978	-3.552473193	0.140136719	1.102050781	-0.263183594	881.06	-50.04558909	14.50237331	-112.2329509	-66
9795	0	-0.891662598	-1.28717041	1.071777344	0.999013901	-0.008322716	-0.038051605	-0.021263123	-22.29156494	-32.17926025	26.79443359	-0.416272493	-1.903205278	-1.063505385	-0.019775391	1.138671875	-0.023193359	881.14	-50.61198573	9.822579801	-110.3276481	-68
9796	0	-0.816547394	-0.755846977	0.585206985	0.999124527	-0.007453918	-0.020516396	0.035666466	-20.41368484	-18.89617443	14.63017464	-0.372804623	-1.026118969	1.783843411	-0.029052734	1.140869141	-0.058105469	881.08	-50.63616736	11.50540934	-105.914908	-77
9797	0	-0.405456543	-0.484741211	0.070861816	0.998366356	-0.033843994	0.008564949	0.045215607	-10.13641357	-12.11853027	1.77154541	-1.693121399	0.428480706	2.262011716	0.063720703	1.142578125	-0.001953125	881	-53.94027481	16.23589404	-103.5269532	-80
9798	0	-0.047574043	-0.171642303	-0.101662636	0.998064995	0.023643494	0.021181107	0.053458214	-1.189351082	-4.291057587	-2.541565895	1.182937614	1.059738803	2.674635686	0.169433594	1.132568359	0.034179688	881.12	-50.6026384	22.59985556	-101.6231318	-75
9799	0	0.131713867	-0.00390625	-0.153076172	0.999580383	-0.004340172	0.012153625	0.025928497	3.29284668	-0.09765625	-3.826904297	-0.217038941	0.607766264	1.296606182	0.274658203	1.110351563	-0.013916016	881.14	-50.76752085	25.80645444	-100.7579884	-67
9800	0	0.18494606	-0.072677612	-0.030545235	0.998005867	-0.062085152	-0.011232376	-0.001358986	4.623651505	-1.816940308	-0.763630867	-3.106321777	-0.561992256	-0.067994478	0.312988281	1.095947266	0.034912109	881.12	-57.46812414	24.94038913	-99.72223101	-67
9801	0	0.189453125	-0.177185059	0.12097168	0.996599197	-0.076296806	-0.029273987	-0.010482788	4.736328125	-4.429626465	3.024291992	-3.819169446	-1.465360366	-0.524734204	0.303466797	1.081787109	0.194824219	881.06	-65.21841915	22.2767354	-97.15207505	-66
9802	0	0.168162346	-0.298549652	0.249299049	0.999312401	-0.018993378	-0.031602859	-0.003874779	4.204058647	-7.463741302	6.232476234	-0.949886573	-1.580505184	-0.193783347	0.302734375	1.049072266	0.311767578	881.08	-66.20111215	20.36629176	-93.81013593	-63
9803	0	0.035705566	-0.319580078	0.31237793	0.999599457	0.003041267	-0.028018951	-0.002235413	0.89263916	-7.989501953	7.809448242	0.152083635	-1.401134269	-0.111785525	0.314697266	1.048583984	0.311035156	881.06	-64.86458782	18.77928857	-90.82540074	-64
9804	0	-0.04605484	-0.33088398	0.302107811	0.999729156	0.004606247	-0.02071476	-0.009515762	-1.151371002	-8.272099495	7.552695274	0.230333114	-1.03583138	-0.475831017	0.327148438	1.050292969	0.286865234	881	-63.80931506	16.74055091	-89.07361004	-64
9805	0	-0.121337891	-0.380065918	0.315307617	0.999641418	0.012261391	-0.014389038	-0.018928528	-3.033447266	-9.501647949	7.88269043	0.613142684	-0.719537748	-0.946539317	0.314941406	1.061767578	0.269042969	881.08	-62.27072828	14.03141667	-88.56381585	-64
9806	0	-0.178779602	-0.349464417	0.23706913	0.999432564	0.003181458	-0.00891304	-0.03231144	-4.469490051	-8.736610413	5.926728249	0.159102945	-0.445736249	-1.615877365	0.273681641	1.083251953	0.234375	881.12	-62.08143915	10.25566197	-89.40039765	-68
9807	0	-0.204589844	-0.392272949	0.238647461	0.999629974	-0.011214256	-0.004787445	-0.024299622	-5.114746094	-9.80682373	5.966186523	-0.560781913	-0.239401752	-1.215130805	0.210449219	1.098876953	0.233642578	881.08	-63.48570799	7.510927038	-90.19613422	-70
9808	0	-0.11048317	-0.48402977	0.229641914	0.999717712	-0.000843048	-0.00322628	-0.023497581	-2.762079239	-12.10074425	5.741047859	-0.042156363	-0.161329158	-1.174989395	0.176269531	1.100097656	0.26171875	881.12	-63.67297978	4.919678283	-91.06663935	-67
9809	0	-0.11541748	-0.448608398	0.231323242	0.999970436	0.000946045	0.000515938	-0.007507324	-2.885437012	-11.21520996	5.783081055	0.0473027	0.025797138	-0.37536981	0.11328125	1.109130859	0.258544922	881.14	-63.59477354	4.16389626	-91.51448195	-63
9810	0	-0.067762375	-0.455425262	0.187860489	0.99998188	0.003850937	0.003274918	-0.002965927	-1.694059372	-11.38563156	4.696512222	0.192547947	0.163746818	-0.148297205	0.108642578	1.113769531	0.246826172	881.14	-63.18587802	4.018628301	-92.01374536	-62
9811	0	-0.11328125	-0.41583252	0.172790527	0.999926567	0.01108551	0.004551888	-0.001506805	-2.83203125	-10.39581299	4.319763184	0.55428899	0.22759991	-0.075342103	0.099121094	1.116210938	0.23828125	881.12	-61.95338718	4.100483862	-92.56848801	-62
9812	0	-0.087952614	-0.383519173	0.19866848	0.999966621	0.008120537	-0.000396729	-0.000309944	-2.198815346	-9.587979317	4.966711998	0.40603132	-0.019836645	-0.015497379	0.094482422	1.122802734	0.208740234	881.02	-61.02091609	4.045350774	-92.55717616	-63
9813	0	-0.059082031	-0.376831055	0.184936523	0.999964714	0.007556915	-0.003417015	0.000434875	-1.477050781	-9.420776367	4.623413086	0.377850108	-0.170852718	0.021744024	0.094482422	1.127197266	0.199707031	881.08	-60.13039336	3.895614313	-92.20255836	-63
9814	0	-0.054932594	-0.35723877	0.173399925	0.999958038	0.008831978	-0.002211571	-0.0008955	-1.373314857	-8.930969238	4.334998131	0.441605053	-0.11058008	-0.044775634	0.094726563	1.129394531	0.176025391	881.18	-59.10948191	3.679494152	-92.04642797	-62
9815	0	-0.062927246	-0.341247559	0.186218262	0.999961853	0.007706642	-0.002342224	-0.003360748	-1.573181152	-8.531188965	4.655456543	0.385337	-0.117112693	-0.168039548	0.090332031	1.131591797	0.155517578	881.12	-58.22754648	3.213377996	-92.0274842	-62
9816	0	-0.058093071	-0.333035469	0.177426338	0.999923706	0.011606216	-0.003329277	-0.00242424	-1.452326775	-8.325886726	4.435658455	0.580325491	-0.16646806	-0.12121507	0.080810547	1.134033203	0.138427734	881.08	-56.89256312	2.778451583	-91.86566556	-63
9817	0	-0.064147949	-0.312927246	0.172729492	0.999938011	0.010158539	-0.00416851	-0.001438141	-1.60369873	-7.823181152	4.318237305	0.507937324	-0.208429782	-0.071908513	0.079101563	1.133789063	0.106201172	881.12	-55.71990873	2.382777451	-91.57037117	-64
9818	0	-0.061157227	-0.303032875	0.183774948	0.999949455	0.007081985	-0.007003784	-0.001210213	-1.528930664	-7.575821877	4.594373703	0.354105215	-0.350195085	-0.060511651	0.076904297	1.138183594	0.082519531	881.18	-54.89295346	1.82052615	-91.00016417	-66
9819	0	-0.04510498	-0.296203613	0.199462891	0.999915123	0.007759094	-0.010184288	-0.002315521	-1.127624512	-7.405090332	4.986572266	0.387965659	-0.509228769	-0.115779329	0.074707031	1.138183594	0.071044922	881.12	-53.99050007	0.936026933	-90.21542123	-67
9820	0	0.11325264	-0.401369095	0.244441032	0.999287605	0.033755302	0.011745453	-0.012076378	2.831315994	-10.03422737	6.11102581	1.68816572	0.587412036	-0.603962213	0.0703125	1.135986328	0.048095703	881.08	-50.15577737	0.675522213	-92.13270401	-75
9821	0	-0.024719238	-0.177185059	0.341918945	0.999361038	0.028492928	0.01909256	-0.009971619	-0.617980957	-4.429626465	8.547973633	1.42494948	0.954831094	-0.498687009	0.041015625	1.136230469	-0.055664063	881.12	-46.9307972	1.272922591	-94.53806585	-80
9822	0	0.025414467	-0.325396538	0.261460304	0.999933243	0.00057888	-0.001036644	-0.011461258	0.635361671	-8.134913445	6.536507607	0.028944656	-0.051833346	-0.573075578	0.015136719	1.134765625	-0.086181641	881.14	-46.87757516	0.236138771	-95.35847189	-72
9823	0	0.041137695	-0.309448242	0.237548828	0.999835014	0.013896942	0.002346992	-0.011432648	1.028442383	-7.736206055	5.938720703	0.694885253	0.117356067	-0.571663767	-0.013427734	1.131103516	-0.090332031	881.06	-45.28655349	-0.519892345	-96.47166537	-65
9824	0	0.047369003	-0.260124207	0.276665688	0.999722481	0.022322655	0.001529694	-0.007331848	1.184225082	-6.503105164	6.916642189	1.116235892	0.076491749	-0.366626289	-0.036621094	1.127197266	-0.129638672	881.28	-42.722363	-0.97837883	-97.21056527	-61
9825	0	0.047851563	-0.245910645	0.328430176	0.999768257	0.020626068	0.003373146	-0.005092621	1.196289063	-6.147766113	8.210754395	1.031382961	0.168670313	-0.254650685	-0.049804688	1.120361328	-0.183837891	881	-40.34753084	-1.078586839	-97.91741951	-60
9826	0	0.0207901	-0.22701931	0.343722343	0.999956131	0.009209633	0.000462532	-0.001333237	0.519752502	-5.67548275	8.593058586	0.460488306	0.023126937	-0.066662799	-0.058349609	1.111328125	-0.223632813	881.12	-39.28814679	-1.138683948	-98.08401866	-59
9827	0	0.001037598	-0.216552734	0.319458008	0.999996185	-0.001971245	-0.001186371	-0.001270294	0.025939941	-5.413818359	7.986450195	-0.098562354	-0.059318611	-0.063514783	-0.060302734	1.109130859	-0.240966797	881.22	-39.51067908	-1.338743671	-98.1248613	-60
9828	0	-0.001302719	-0.241238594	0.299042702	0.999997139	-0.001915932	-0.000654221	-0.001112938	-0.032567978	-6.030964851	7.476067543	-0.09579667	-0.032711058	-0.055646946	-0.065429688	1.111572266	-0.229003906	881.06	-39.72607954	-1.480023586	-98.19002739	-60
9829	0	0.004516602	-0.262023926	0.301757813	0.999993324	-0.002910614	0.0004282	-0.001899719	0.112915039	-6.550598145	7.543945313	-0.145530998	0.021410032	-0.094986156	-0.065429688	1.109375	-0.223144531	881	-40.05194905	-1.584019876	-98.40177514	-60
9830	0	0.014015198	-0.268848419	0.289100647	0.999995232	-0.00223732	0.000778198	-0.001936913	0.350379944	-6.72121048	7.227516174	-0.111866172	0.038909973	-0.096845778	-0.072753906	1.112060547	-0.219970703	881.14	-40.30064625	-1.661408734	-98.6428611	-60
9831	0	0.020935059	-0.276672363	0.278259277	0.999997139	-0.001285553	0.001126289	-0.001335144	0.523376465	-6.916809082	6.956481934	-0.064277699	0.056314513	-0.066757254	-0.073242188	1.114257813	-0.211425781	881	-40.44256355	-1.665110995	-98.85592283	-60
9832	0	0.021157265	-0.290142059	0.298862457	0.999994278	0.002433777	0.002024651	0.000142097	0.528931618	-7.253551483	7.471561432	0.121689046	0.101232698	0.007104886	-0.077636719	1.112060547	-0.216796875	881.18	-40.16173662	-1.481078169	-99.00797767	-60
9833	0	0.008178711	-0.275512695	0.309936523	0.999987602	0.004291534	0.002301216	0.000785828	0.204467773	-6.887817383	7.748413086	0.214577591	0.115061273	0.039291541	-0.075195313	1.112060547	-0.219726563	881.06	-39.67003393	-1.224321997	-99.12211663	-60
9834	0	0.001221657	-0.265317917	0.307656288	0.999985695	0.004562378	0.002450943	0.000414848	0.03054142	-6.632947922	7.691407204	0.228119923	0.122547701	0.02074251	-0.072509766	1.109619141	-0.228515625	881.02	-39.14737765	-0.979989313	-99.27718476	-60
9835	0	0.000610352	-0.256103516	0.302612305	0.999970436	0.006778717	0.00338459	0.000255585	0.015258789	-6.402587891	7.565307617	0.338939099	0.169231128	0.012779358	-0.069824219	1.107177734	-0.243164063	881.14	-38.37074166	-0.661677815	-99.51025322	-60
9836	0	0.000774384	-0.243250847	0.310528755	0.999964714	0.007250786	0.004098892	-0.000370026	0.019359589	-6.081271172	7.76321888	0.362543492	0.204946985	-0.018501496	-0.069335938	1.104736328	-0.260498047	881.14	-37.54034569	-0.319575858	-99.84578937	-60
9837	0	0.003173828	-0.249145508	0.319885254	0.999958038	0.007309914	0.00504303	-0.001869202	0.079345703	-6.228637695	7.997131348	0.365500699	0.252154951	-0.093461366	-0.06640625	1.102294922	-0.281005859	881.12	-36.70472511	0.009816948	-100.3769836	-60
9838	0	0.004024506	-0.252585411	0.320611954	0.999946594	0.008440971	0.005675316	-0.001724243	0.10061264	-6.314635277	8.015298843	0.422056056	0.283770827	-0.086213688	-0.070800781	1.097900391	-0.297851563	881.08	-35.74352972	0.415486544	-100.9337223	-61
9839	0	-0.004699707	-0.243713379	0.323791504	0.99993515	0.010033607	0.00535202	-0.000305176	-0.117492676	-6.092834473	8.094787598	0.501691195	0.267606785	-0.015259118	-0.0703125	1.090820313	-0.314941406	881.06	-34.60268167	0.894692281	-101.3291995	-61
9840	0	-0.016200066	-0.226888657	0.34840107	0.999954224	0.008586884	0.003632545	0.002073288	-0.40500164	-5.672216415	8.710026741	0.429350706	0.181630035	0.103665974	-0.066894531	1.083740234	-0.34375	881.12	-33.62348577	1.371253015	-101.3810185	-61
9841	0	-0.022644043	-0.222290039	0.340942383	0.999972343	0.004341125	0.002106667	0.005638123	-0.566101074	-5.557250977	8.52355957	0.217058267	0.105334295	0.281908716	-0.059326172	1.078857422	-0.35546875	881.12	-33.1182618	1.927674865	-100.9911259	-61
9842	0	-0.029823303	-0.222473145	0.337338448	0.999966621	0.004257202	0.001403809	0.006773949	-0.745582581	-5.561828613	8.433461189	0.212862448	0.070191202	0.338701158	-0.042480469	1.078369141	-0.362060547	881.06	-32.61277517	2.484330378	-100.4417594	-62
9843	0	-0.018859863	-0.222717285	0.333374023	0.999939919	0.00951004	-0.000258446	0.005401611	-0.471496582	-5.567932129	8.334350586	0.4755115	-0.012922545	0.270085954	-0.029785156	1.073242188	-0.377197266	881.12	-31.50264181	2.788223332	-99.91547287	-62
9844	0	-0.012032509	-0.177004814	0.325758934	0.999960899	0.008584023	-0.001327515	0.0010252	-0.300812721	-4.425120354	8.143973351	0.429206599	-0.066376579	0.051260648	-0.019287109	1.063720703	-0.400146484	881.12	-30.5138947	2.718647051	-99.74727008	-61
9845	0	-0.007385254	-0.168823242	0.331542969	0.999994278	0.001881599	-0.001953125	-0.002006531	-0.184631348	-4.220581055	8.288574219	0.09408015	-0.097656435	-0.100326728	-0.021484375	1.061523438	-0.417480469	881.06	-30.30439953	2.409043198	-99.84282399	-61
9846	0	0.004595757	-0.210215569	0.350998878	0.999998093	-0.000636101	-0.001189232	-0.001210213	0.114893913	-5.255389214	8.774971962	-0.031805056	-0.059461626	-0.060510668	-0.026123047	1.059326172	-0.416992188	881.12	-30.3818448	2.220008148	-99.90504542	-61
9847	0	-0.005004883	-0.212585449	0.342529297	0.999993324	0.003322601	0.000473976	-0.000892639	-0.12512207	-5.31463623	8.563232422	0.1661304	0.023698854	-0.044632048	-0.028564453	1.057128906	-0.413818359	881.02	-30.008583	2.213582857	-100.0323909	-61
9848	0	-0.011156082	-0.190042496	0.346718788	0.999997139	0.00184536	0.000585556	-0.000787735	-0.278902054	-4.751062393	8.667969704	0.092268057	0.029277823	-0.039386778	-0.030517578	1.054931641	-0.422363281	881.06	-29.80399898	2.224638581	-100.1563264	-61
9849	0	-0.014282227	-0.191894531	0.353027344	0.999999046	0.000152588	0.000748634	-0.000823975	-0.357055664	-4.797363281	8.825683594	0.007629396	0.037431725	-0.041198739	-0.032958984	1.055175781	-0.422119141	881.08	-29.79348854	2.249985443	-100.2936304	-61
9850	0	-0.01025486	-0.200962067	0.344406128	0.999999046	-0.00107193	0.000459671	-0.000554085	-0.256371498	-5.024051666	8.610153198	-0.053596511	0.022983557	-0.027704247	-0.032958984	1.054931641	-0.425048828	881.06	-29.92182256	2.261571264	-100.3875258	-61
9851	0	-0.011779785	-0.201538086	0.336364746	0.999998093	-0.001284599	0.000675201	-0.000591278	-0.294494629	-5.038452148	8.409118652	-0.064229991	0.033760085	-0.029563916	-0.033203125	1.055175781	-0.419189453	881.14	-30.07556325	2.291978566	-100.4972231	-61
9852	0	-0.019449234	-0.20629406	0.344841957	0.999998093	-0.001039505	0.00092411	-0.000595093	-0.48623085	-5.157351494	8.621048927	-0.05197527	0.046205538	-0.02975465	-0.035644531	1.059570313	-0.419433594	881.02	-30.20219087	2.346720385	-100.6224566	-61
9853	0	-0.024475098	-0.21472168	0.355407715	0.999999046	-0.000785828	0.000683784	-0.000408173	-0.611877441	-5.368041992	8.885192871	-0.03929139	0.034189231	-0.020408635	-0.035644531	1.057373047	-0.416503906	881	-30.29886049	2.38858077	-100.7152464	-61
9854	0	-0.023926735	-0.213645935	0.351255417	0.999999046	0.000190735	0	-0.000339508	-0.598168373	-5.341148376	8.781385422	0.009536743	0	-0.016975403	-0.038085938	1.059814453	-0.416503906	881.12	-30.28207277	2.367002467	-100.7622374	-62
9855	0	-0.019775391	-0.200439453	0.346984863	0.999999046	0.000347137	-0.000472069	-3.8147E-05	-0.494384766	-5.010986328	8.674621582	0.017356874	-0.023603441	-0.001907349	-0.035644531	1.057373047	-0.413574219	881	-30.244881	2.316256466	-100.750631	-61
9856	0	-0.014369965	-0.19947052	0.343596458	0.999998093	-0.001106262	-0.001006126	0.000469208	-0.359249115	-4.986763	8.589911461	-0.055313133	-0.050306341	0.023460398	-0.035644531	1.057373047	-0.416503906	881.08	-30.37096051	2.241899457	-100.6582116	-61
9857	0	-0.011962891	-0.20715332	0.34765625	0.999999046	-0.000705719	-0.000716209	0.000823975	-0.299072266	-5.178833008	8.69140625	-0.03528596	-0.035810481	0.041198742	-0.035644531	1.057617188	-0.410644531	881.06	-30.4506342	2.216706313	-100.5477191	-61
9858	0	-0.011975288	-0.194617271	0.342882156	0.999998093	-0.001297951	-0.000739098	0.000301361	-0.29938221	-4.865431786	8.572053909	-0.064897562	-0.036954894	0.01506806	-0.038085938	1.057617188	-0.416259766	881.06	-30.59984294	2.158859755	-100.4889792	-61
9859	0	-0.00994873	-0.202819824	0.340026855	0.999998093	-0.001776695	-0.00030899	0.000225067	-0.248718262	-5.070495605	8.500671387	-0.088834811	-0.015449532	0.011253363	-0.035888672	1.062011719	-0.407958984	881.02	-30.80523367	2.138838536	-100.4612608	-61
9860	0	-0.010195732	-0.213885307	0.349284172	0.999999046	-0.000554085	-1.90735E-05	-7.24792E-05	-0.254893303	-5.347132683	8.732104301	-0.02770424	-0.000953674	-0.003623963	-0.036132813	1.062011719	-0.402099609	881.08	-30.87248434	2.129653816	-100.4795942	-61
9861	0	-0.01373291	-0.210021973	0.339294434	0.999999046	9.91821E-05	0.000340462	-0.000614166	-0.343322754	-5.250549316	8.48236084	0.004959107	0.017023088	-0.030708316	-0.036132813	1.064208984	-0.40234375	881.08	-30.86792845	2.123907073	-100.5717224	-61
9862	0	-0.013895035	-0.208506584	0.345002174	0.999999046	0.000352859	0.000602722	-0.000663757	-0.34737587	-5.212664604	8.625054359	0.017642978	0.030136113	-0.033187871	-0.038574219	1.064453125	-0.407958984	881.06	-30.83513948	2.141013209	-100.685148	-61
9863	0	-0.017089844	-0.208496094	0.339416504	0.999999046	0.000255585	0.000706673	-0.00075531	-0.427246094	-5.212402344	8.485412598	0.012779238	0.03533364	-0.03776551	-0.038574219	1.064453125	-0.402099609	881	-30.81432928	2.163129811	-100.8127083	-61
9864	0	-0.018424034	-0.203954697	0.341997147	0.999999046	-0.000311852	0.000352859	-0.000512123	-0.460600853	-5.098867416	8.549928665	-0.015592576	0.017642976	-0.025606157	-0.040771484	1.062255859	-0.407714844	881.02	-30.85684297	2.164852885	-100.8967331	-62
9865	0	-0.017150879	-0.211486816	0.346069336	0.999999046	0.000141144	0.000393867	-0.000534058	-0.428771973	-5.28717041	8.651733398	0.00705719	0.019693376	-0.026702883	-0.041015625	1.064453125	-0.405029297	881.12	-30.84779469	2.169374582	-100.9846043	-62
9866	0	-0.016708374	-0.209211349	0.342269897	0.999999046	0.000284195	0.000469208	-0.000469208	-0.417709351	-5.230283737	8.556747437	0.014209749	0.02346039	-0.02346039	-0.043457031	1.062255859	-0.401855469	881.12	-30.8224647	2.18520397	-101.0713517	-61
9867	0	-0.015869141	-0.202331543	0.339477539	0.999999046	-0.000339508	-1.04904E-05	-0.000347137	-0.396728516	-5.058288574	8.486938477	-0.016975403	-0.000524521	-0.017356873	-0.043212891	1.060058594	-0.404541016	881.02	-30.867021	2.161018141	-101.1175393	-61
9868	0	-0.012421608	-0.208065033	0.340312958	0.999999046	-0.000393867	0.000135422	0.000213623	-0.310540199	-5.201625824	8.507823944	-0.019693375	0.006771088	0.010681153	-0.043457031	1.064453125	-0.407714844	881.06	-30.91619888	2.18398292	-101.117475	-61
9869	0	-0.015441895	-0.211486816	0.344238281	0.999999046	-0.000545502	-6.77109E-05	0.000370026	-0.386047363	-5.28717041	8.605957031	-0.027275087	-0.003385544	0.018501283	-0.043457031	1.062255859	-0.401855469	881.06	-30.98189246	2.196190925	-101.0902313	-61
9870	0	-0.015490532	-0.210320473	0.339676857	0.999999046	-0.000619888	-0.00019455	0.000235558	-0.387263298	-5.258011818	8.491921425	-0.030994418	-0.009727479	0.011777879	-0.043457031	1.064453125	-0.401855469	880.98	-31.05655277	2.188032652	-101.0687566	-61
9871	0	-0.016357422	-0.210876465	0.343566895	0.999999046	0.000453949	-1.43051E-05	0.000213623	-0.408935547	-5.271911621	8.589172363	0.02269745	-0.000715256	0.010681153	-0.043457031	1.064453125	-0.404785156	880.92	-31.0087648	2.196318395	-101.0603041	-61
9872	0	-0.015275955	-0.20720005	0.343876839	0.999998093	-4.19617E-05	-0.000407219	0.000286102	-0.38189888	-5.180001259	8.596920967	-0.002098084	-0.020360948	0.014305115	-0.040771484	1.062255859	-0.407714844	881.06	-31.01660939	2.170273423	-101.0201896	-61
9873	0	-0.014099121	-0.210632324	0.342102051	0.999999046	-1.14441E-05	-0.000220299	0.000167847	-0.352478027	-5.265808105	8.55255127	-0.000572205	-0.011014938	0.008392334	-0.040771484	1.062255859	-0.404785156	881	-31.02198028	2.155537213	-101.0025883	-61
9874	0	-0.015115738	-0.209537506	0.345826149	0.999999046	0.000394821	-0.000173569	6.38962E-05	-0.377893448	-5.238437653	8.645653725	0.019741059	-0.008678437	0.003194809	-0.041015625	1.062255859	-0.398925781	881.06	-30.98129041	2.139234539	-100.9975741	-61
9875	0	-0.014221191	-0.205078125	0.341125488	0.999999046	3.8147E-06	-0.000212669	0.000171661	-0.355529785	-5.126953125	8.528137207	0.000190735	-0.010633469	0.008583069	-0.041015625	1.062255859	-0.401855469	880.92	-30.98487474	2.125403171	-100.9799483	-61
9876	0	-0.013356209	-0.21135807	0.33942318	0.999999046	0.000166893	-2.86102E-05	-2.76566E-05	-0.33390522	-5.283951759	8.485579491	0.00834465	-0.001430511	-0.001382828	-0.043457031	1.062255859	-0.401855469	881.12	-30.97116807	2.11781254	-100.9942453	-61
9877	0	-0.015686035	-0.20892334	0.342712402	0.999999046	0.000602722	0.000161171	-9.91821E-05	-0.392150879	-5.223083496	8.567810059	0.03013611	0.008058549	-0.004959107	-0.041015625	1.062255859	-0.398925781	881.06	-30.90826241	2.124704867	-101.0245495	-61
9878	0	-0.016426086	-0.206015587	0.33929348	0.999999046	0.000394821	0.000160217	0.000136375	-0.410652161	-5.150389671	8.482336998	0.019741059	0.008010865	0.006818772	-0.043212891	1.062255859	-0.407470703	881.02	-30.86837829	2.145466101	-101.0339199	-61
9879	0	-0.013671875	-0.210632324	0.343139648	0.999998093	0.001358986	0.000850677	0.000236511	-0.341796875	-5.265808105	8.578491211	0.067949325	0.042533893	0.011825567	-0.041015625	1.062255859	-0.401855469	881.02	-30.7193559	2.239999875	-101.072309	-61
9880	0	-0.015634537	-0.202367783	0.343847275	0.999999046	0.000638008	0.000528336	-3.91006E-05	-0.390863419	-5.059194565	8.59618187	0.03190041	0.026416782	-0.001955033	-0.040771484	1.059814453	-0.410400391	881.06	-30.65316047	2.286715495	-101.1195244	-61
9881	0	-0.015808105	-0.198242188	0.345214844	0.999999046	-0.000629425	0.000187874	-8.01086E-05	-0.395202637	-4.956054688	8.630371094	-0.031471255	0.009393693	-0.004005432	-0.038330078	1.059814453	-0.410644531	881	-30.73123917	2.297464393	-101.1491057	-61
9882	0	-0.015841484	-0.21308136	0.342803955	0.999999046	-0.000823975	-0.00025177	-0.000130653	-0.396037102	-5.327033997	8.570098877	-0.041198736	-0.012588503	-0.00653267	-0.040771484	1.062255859	-0.410644531	881.02	-30.83111922	2.261891047	-101.1593119	-61
9883	0	-0.01763916	-0.209533691	0.342712402	0.999999046	0.000152588	-0.000479698	-0.000106812	-0.440979004	-5.238342285	8.567810059	0.007629395	-0.02398491	-0.005340576	-0.040771484	1.062255859	-0.404785156	881	-30.81861222	2.205363134	-101.1526544	-61
9884	0	-0.015376091	-0.201621056	0.341629028	0.999999046	-0.000349998	-0.000741959	-3.8147E-05	-0.384402275	-5.04052639	8.540725708	-0.017499926	-0.037097935	-0.001907349	-0.040771484	1.062255859	-0.404785156	881.02	-30.86269123	2.1270637	-101.1233252	-61
9885	0	-0.015869141	-0.208557129	0.343994141	0.999999046	-0.000686646	-0.000727654	6.48499E-05	-0.396728516	-5.213928223	8.599853516	-0.034332281	-0.036382681	0.003242493	-0.043457031	1.062255859	-0.401855469	881.06	-30.9450987	2.056301948	-101.0862338	-61
9886	0	-0.012286186	-0.211222649	0.341769218	0.999999046	-0.000551224	-0.000793457	-7.34329E-05	-0.307154655	-5.280566216	8.544230461	-0.027561192	-0.039672858	-0.003671647	-0.043212891	1.062255859	-0.404785156	881	-31.01257534	1.970849425	-101.0582115	-61
9887	0	-0.014709473	-0.210205078	0.339172363	0.999999046	-2.28882E-05	-0.000353813	-0.00025177	-0.367736816	-5.255126953	8.479309082	-0.001144409	-0.017690659	-0.012588501	-0.043457031	1.062255859	-0.395996094	881.12	-31.02120827	1.918103108	-101.0723451	-61
9888	0	-0.015280724	-0.204369545	0.341187477	0.999999046	-0.000155449	-0.000364304	-1.52588E-05	-0.382018089	-5.109238625	8.529686928	-0.007772446	-0.01821518	-0.000762939	-0.045898438	1.064697266	-0.404785156	881.08	-31.04411036	1.87838529	-101.0648339	-61
9889	0	-0.011413574	-0.20916748	0.339416504	0.999999046	-0.000289917	-0.000315666	1.52588E-05	-0.285339355	-5.229187012	8.485412598	-0.01449585	-0.01578331	0.000762939	-0.045654297	1.0625	-0.401611328	880.9	-31.08255105	1.845155458	-101.0566385	-61
9890	0	-0.010958672	-0.210404396	0.343024254	0.999999046	-0.000270844	-0.000226974	0.00012207	-0.273966789	-5.260109901	8.575606346	-0.013542176	-0.011348725	0.006103516	-0.045898438	1.064697266	-0.398925781	881.06	-31.11871301	1.826846077	-101.0429421	-61
9891	0	-0.012695313	-0.206787109	0.339050293	0.999999046	-0.000160217	-4.1008E-05	-1.14441E-05	-0.317382813	-5.169677734	8.476257324	-0.008010864	-0.0020504	-0.000572205	-0.045654297	1.0625	-0.401611328	880.96	-31.14297346	1.818871013	-101.0534628	-61
9892	0	-0.012906075	-0.209400177	0.343622208	0.999999046	0.000170708	-0.000114441	-5.05447E-05	-0.322651863	-5.235004425	8.590555191	0.008535385	-0.005722046	-0.002527237	-0.045898438	1.064697266	-0.395996094	881.06	-31.12928197	1.801376366	-101.0625956	-61
9893	0	-0.012023926	-0.20715332	0.342895508	0.999999046	-0.000152588	-0.000224113	-9.91821E-05	-0.300598145	-5.178833008	8.572387695	-0.007629395	-0.011205673	-0.004959107	-0.045898438	1.0625	-0.395751953	881.06	-31.15249508	1.770207114	-101.069795	-61
9894	0	-0.013050079	-0.208969116	0.341128349	0.999999046	0.000133514	1.14441E-05	5.24521E-05	-0.326251984	-5.224227905	8.528208733	0.00667572	0.000572205	0.002622604	-0.048339844	1.064697266	-0.398681641	881.06	-31.14293088	1.771156666	-101.0782296	-61
9895	0	-0.012512207	-0.208496094	0.344970703	0.999999046	-0.000114441	-0.000247002	-0.000160217	-0.312805176	-5.212402344	8.624267578	-0.005722046	-0.012350083	-0.008010864	-0.048339844	1.064697266	-0.401611328	881.06	-31.16186338	1.734150266	-101.0917968	-61
9896	0	-0.010567665	-0.211567879	0.338396072	0.999999046	-0.000216484	-0.000246048	-8.7738E-05	-0.264191628	-5.289196968	8.45990181	-0.010824204	-0.012302399	-0.004386902	-0.048339844	1.064697266	-0.401611328	881.06	-31.19248625	1.701448645	-101.097811	-61
9897	0	-0.011413574	-0.210266113	0.339294434	0.999999046	0.000255585	9.53674E-07	-0.000118256	-0.285339355	-5.256652832	8.48236084	0.012779236	4.76837E-05	-0.005912781	-0.048339844	1.0625	-0.3984375	881.08	-31.16965453	1.69112516	-101.1209202	-61
9898	0	-0.01447773	-0.208997726	0.340316772	0.999999046	0	-8.01086E-05	1.52588E-05	-0.361943245	-5.224943161	8.507919312	0	-0.004005432	0.000762939	-0.048339844	1.0625	-0.3984375	881.02	-31.17562356	1.680910199	-101.1259371	-61
9899	0	-0.013916016	-0.212768555	0.34362793	0.999999046	-0.000156403	-8.67844E-05	-3.43323E-05	-0.347900391	-5.319213867	8.590698242	-0.007820129	-0.004339218	-0.001716614	-0.05078125	1.064941406	-0.398681641	881	-31.19976427	1.667195064	-101.137229	-61
9900	0	-0.013171196	-0.210312843	0.340695381	0.999999046	4.29153E-05	-0.000150681	0.000189781	-0.3292799	-5.257821083	8.517384529	0.002145767	-0.007534027	0.00948906	-0.05078125	1.064941406	-0.398681641	881.02	-31.20039106	1.660587349	-101.1227527	-61
9901	0	-0.010009766	-0.208862305	0.343566895	0.999999046	3.8147E-06	-0.000220299	0.00019455	-0.250244141	-5.221557617	8.589172363	0.000190735	-0.011014939	0.009727478	-0.05078125	1.064941406	-0.401611328	881.02	-31.20530457	1.647347482	-101.103939	-61
9902	0	-0.012381554	-0.209588051	0.341864586	0.999999046	0.00019455	-0.000154495	0.000166893	-0.309538841	-5.239701271	8.546614647	0.009727478	-0.007724762	0.00834465	-0.048095703	1.0625	-0.401367188	881	-31.18856349	1.63894997	-101.0892453	-61
9903	0	-0.011535645	-0.210571289	0.343444824	0.999999046	-0.000293732	-0.000315666	0.000156403	-0.288391113	-5.264282227	8.586120605	-0.014686585	-0.01578331	0.00782013	-0.048095703	1.0625	-0.404296875	881.06	-31.22755588	1.614128914	-101.0663282	-61
9904	0	-0.009860039	-0.208631516	0.339544296	0.999999046	0.000220299	-0.000265121	0.000102043	-0.246500969	-5.215787888	8.488607407	0.011014939	-0.013256073	0.005102158	-0.048339844	1.0625	-0.395507813	881.02	-31.20790735	1.590959655	-101.0508302	-61
9905	0	-0.011352539	-0.20892334	0.340881348	0.999999046	3.05176E-05	-0.000250816	0.000156403	-0.283813477	-5.223083496	8.522033691	0.001525879	-0.012540817	0.00782013	-0.048339844	1.064697266	-0.398681641	881	-31.20989399	1.572425565	-101.0309245	-61
9906	0	-0.009415627	-0.206459045	0.339006424	0.999999046	-0.000318527	-0.000240326	9.15527E-05	-0.235390663	-5.161476135	8.475160599	-0.015926362	-0.012016297	0.004577637	-0.045898438	1.064697266	-0.398925781	881.06	-31.25201867	1.550991629	-101.0154468	-61
9907	0	-0.011413574	-0.212646484	0.341003418	0.999999046	0.00025177	6.19888E-05	-0.000171661	-0.285339355	-5.316162109	8.525085449	0.012588501	0.003099442	-0.008583069	-0.048339844	1.064697266	-0.398681641	880.98	-31.23013026	1.543558281	-101.0458579	-61
9908	0	-0.01138401	-0.209000587	0.340251923	0.999999046	5.43594E-05	-0.000150681	-6.86646E-05	-0.284600258	-5.225014687	8.506298065	0.002717972	-0.007534027	-0.003433228	-0.048339844	1.0625	-0.3984375	881.06	-31.23026281	1.521437235	-101.0533615	-61
9909	0	-0.013305664	-0.208618164	0.340759277	0.999999046	0.000274658	2.00272E-05	-6.48499E-05	-0.332641602	-5.215454102	8.518981934	0.01373291	0.001001358	-0.003242493	-0.048339844	1.0625	-0.3984375	880.96	-31.20539253	1.516404358	-101.0702911	-62
9910	0	-0.010972977	-0.21099472	0.34392643	0.999999046	-0.000137329	-0.000328064	9.53674E-05	-0.274324417	-5.274868011	8.598160744	-0.006866455	-0.016403199	0.004768372	-0.048339844	1.0625	-0.3984375	880.98	-31.22678736	1.486779742	-101.0507152	-61
9911	0	-0.011047363	-0.209411621	0.338928223	0.999999046	0.000125885	-0.000117302	0.00019455	-0.276184082	-5.235290527	8.473205566	0.006294251	-0.005865097	0.009727478	-0.05078125	1.064941406	-0.395751953	880.96	-31.21816958	1.483730585	-101.0362054	-61
9912	0	-0.011656761	-0.20480442	0.342521667	0.999999046	-0.000123024	-0.000259399	9.53674E-05	-0.291419029	-5.120110512	8.563041687	-0.006151199	-0.012969971	0.004768372	-0.048095703	1.0625	-0.401367188	881.02	-31.23788372	1.460923305	-101.020765	-61
9913	0	-0.009338379	-0.209838867	0.342407227	0.999999046	-0.000255585	-0.000227928	-0.000118256	-0.233459473	-5.24597168	8.560180664	-0.012779236	-0.011396408	-0.005912781	-0.05078125	1.064941406	-0.398681641	881.12	-31.27336774	1.428447073	-101.0299827	-62
9914	0	-0.008704185	-0.210017204	0.344561577	0.999999046	2.47955E-05	-6.10352E-05	-0.0001688	-0.217604637	-5.250430107	8.614039421	0.001239777	-0.003051758	-0.008440018	-0.048339844	1.064697266	-0.401611328	880.96	-31.2770161	1.409224612	-101.0509654	-62
9915	0	-0.00982666	-0.20892334	0.340148926	0.999999046	-0.000190735	-0.00026989	-9.91821E-05	-0.245666504	-5.223083496	8.503723145	-0.009536743	-0.013494492	-0.004959107	-0.050537109	1.0625	-0.3984375	881.02	-31.30489005	1.373679119	-101.0546672	-62
9916	0	-0.010620117	-0.212341309	0.34197998	0.999999046	0.000260353	-0.000137329	-0.000125885	-0.26550293	-5.308532715	8.549499512	0.013017655	-0.006866455	-0.006294251	-0.05078125	1.067138672	-0.398681641	880.92	-31.28141123	1.349565323	-101.0678073	-62
9917	0	-0.010447502	-0.211576462	0.339987755	0.999998093	0.000426292	-0.000177383	5.91278E-05	-0.261187553	-5.289411545	8.499693871	0.021314622	-0.008869171	0.00295639	-0.05078125	1.064941406	-0.398681641	880.98	-31.23855096	1.332581898	-101.060476	-62
9918	0	-0.011007309	-0.208102226	0.339941025	0.999999046	0.000648499	1.90735E-05	7.9155E-05	-0.275182724	-5.202555656	8.49852562	0.032424929	0.000953674	0.003957749	-0.050537109	1.0625	-0.401367188	880.96	-31.17043728	1.336117748	-101.0631123	-62
9919	0	-0.009643555	-0.20703125	0.343200684	0.999999046	0.000213623	-9.05991E-05	2.67029E-05	-0.241088867	-5.17578125	8.58001709	0.010681152	-0.004529953	0.001335144	-0.052978516	1.064941406	-0.401367188	880.98	-31.15200261	1.32579791	-101.066702	-62
9920	0	-0.009043694	-0.209448814	0.340483665	0.999999046	0.000359535	3.8147E-05	0.000174522	-0.226092339	-5.23622036	8.512091637	0.017976761	0.001907349	0.00872612	-0.055419922	1.062744141	-0.404052734	880.96	-31.11675543	1.336845143	-101.0671546	-62
9921	0	-0.010070801	-0.208618164	0.341674805	0.999999046	0.000286102	-4.48227E-05	7.24792E-05	-0.25177002	-5.215454102	8.541870117	0.014305115	-0.002241135	0.003623962	-0.050537109	1.0625	-0.404296875	880.98	-31.09003518	1.333733597	-101.0663724	-62
9922	0	-0.012206078	-0.208238602	0.340818405	0.999999046	0.000389099	7.05719E-05	-3.14713E-05	-0.305151939	-5.205965042	8.520460129	0.019454957	0.003528595	-0.001573563	-0.050537109	1.0625	-0.404296875	880.98	-31.05192812	1.335937104	-101.0823134	-62
9923	0	-0.013305664	-0.203613281	0.344604492	0.999999046	2.67029E-05	-6.38962E-05	0.000358582	-0.332641602	-5.090332031	8.615112305	0.001335144	-0.003194809	0.017929078	-0.052734375	1.060302734	-0.404052734	881.06	-31.05400683	1.348189601	-101.0558041	-62
9924	0	-0.009138107	-0.207190514	0.340221405	0.999999046	-1.62125E-05	-0.000286102	0.000324249	-0.228452682	-5.17976284	8.505535126	-0.000810623	-0.014305115	0.016212464	-0.052734375	1.060302734	-0.406982422	880.96	-31.06078414	1.336571051	-101.0201882	-62
9925	0	-0.006774902	-0.209838867	0.34197998	0.999999046	-0.000152588	-9.44138E-05	0.00030899	-0.169372559	-5.24597168	8.549499512	-0.007629395	-0.004720688	0.015449524	-0.052734375	1.058105469	-0.400878906	880.86	-31.08356556	1.342724474	-100.9974228	-62
9926	0	-0.008975029	-0.208351135	0.341490746	0.999999046	0.000293732	1.71661E-05	0.000227928	-0.224375725	-5.208778381	8.537268639	0.014686585	0.000858307	0.011396408	-0.050537109	1.0625	-0.401367188	880.92	-31.05554851	1.35499913	-100.9859181	-62
9927	0	-0.010375977	-0.205932617	0.342468262	0.999999046	8.39233E-05	0.000351906	0.0001297	-0.259399414	-5.14831543	8.561706543	0.004196167	0.017595292	0.006484986	-0.048095703	1.060302734	-0.404296875	880.92	-31.05216559	1.394357009	-101.0018837	-62
9928	0	-0.01134491	-0.207215309	0.346279144	0.999999046	0.000355721	0.00028038	2.67029E-05	-0.283622742	-5.180382729	8.656978607	0.017786027	0.014019013	0.001335144	-0.050537109	1.060302734	-0.401123047	880.9	-31.01765051	1.420675407	-101.0265866	-62
9929	0	-0.010131836	-0.205505371	0.343933105	0.999999046	0.000164032	0.000248909	3.05176E-05	-0.253295898	-5.137634277	8.598327637	0.008201599	0.01244545	0.001525879	-0.050292969	1.060302734	-0.406982422	880.98	-31.00491406	1.444130501	-101.0495421	-62
9930	0	-0.012206078	-0.209666252	0.34039402	0.999999046	0.000165939	0.000370026	5.24521E-05	-0.305151939	-5.241656303	8.509850502	0.008296967	0.018501282	0.002622604	-0.050537109	1.0625	-0.404296875	880.92	-30.99223626	1.480872068	-101.0772628	-62
9931	0	-0.015563965	-0.210754395	0.345275879	0.999999046	0.000270844	0.000248909	0.000144958	-0.389099121	-5.268859863	8.631896973	0.013542176	0.01244545	0.007247925	-0.047851563	1.060302734	-0.407226563	880.86	-30.96718496	1.51141827	-101.0861579	-62
9932	0	-0.012559891	-0.204949379	0.345135689	0.999999046	0.000342369	-7.62939E-05	0.000205994	-0.313997269	-5.123734474	8.62839222	0.017118454	-0.003814697	0.010299683	-0.048095703	1.060302734	-0.404296875	881.06	-30.93309264	1.513683567	-101.0699468	-62
9933	0	-0.00982666	-0.207214355	0.341186523	0.999999046	0.000205994	-0.000102043	0.000328064	-0.245666504	-5.180358887	8.529663086	0.010299683	-0.005102158	0.016403199	-0.050292969	1.060302734	-0.406982422	880.96	-30.91431085	1.520538475	-101.0442429	-62
9934	0	-0.011353493	-0.202731133	0.346338272	0.999999046	0.000326157	-0.000295639	0.000297546	-0.283837318	-5.068278313	8.658456802	0.016307832	-0.014781953	0.01487732	-0.050292969	1.060302734	-0.406982422	881.06	-30.88124979	1.506561431	-101.0101782	-63
9935	0	-0.008728027	-0.203979492	0.343200684	0.999999046	0.000137329	-0.000113487	-0.000118256	-0.218200684	-5.099487305	8.58001709	0.006866455	-0.005674362	-0.005912781	-0.048095703	1.0625	-0.407226563	881.06	-30.87104357	1.485918287	-101.0233417	-63
9936	0	-0.0116539	-0.202911377	0.344174385	0.999999046	-0.000103951	-2.09808E-05	-0.000175476	-0.291347504	-5.072784424	8.604359627	-0.005197525	-0.001049042	-0.008773804	-0.047851563	1.060058594	-0.41015625	880.98	-30.88856866	1.471047476	-101.0473753	-63
9937	0	-0.013366699	-0.20690918	0.344970703	0.999999046	-0.00012207	-6.67572E-06	-0.00012207	-0.33416748	-5.172729492	8.624267578	-0.006103516	-0.000333786	-0.006103516	-0.047851563	1.060058594	-0.41015625	880.98	-30.90800479	1.460845196	-101.0664586	-63
9938	0	-0.01111412	-0.208582878	0.340768814	0.999999046	-0.000247955	-0.000185013	0.000185966	-0.277853012	-5.214571953	8.519220352	-0.012397766	-0.009250641	0.009298325	-0.047851563	1.060302734	-0.407226563	880.98	-30.94095592	1.451260278	-101.0445467	-63
9939	0	-0.012145996	-0.212158203	0.34197998	0.999999046	0.000152588	-0.000159264	0.000144958	-0.303649902	-5.303955078	8.549499512	0.007629395	-0.007963181	0.007247925	-0.050537109	1.060302734	-0.404052734	880.98	-30.92839656	1.441865765	-101.031689	-63
9940	0	-0.011730194	-0.210401535	0.346320152	0.999999046	0.000288963	-0.000370026	0.000328064	-0.293254852	-5.260038376	8.658003807	0.014448167	-0.018501283	0.016403199	-0.050292969	1.058105469	-0.406738281	881.06	-30.89950183	1.422575198	-100.9890363	-63
9941	0	-0.013305664	-0.204040527	0.341308594	0.999999046	0.000453949	-0.00014782	0.000240326	-0.332641602	-5.101013184	8.532714844	0.02269745	-0.007390976	0.012016297	-0.047851563	1.060302734	-0.407226563	880.92	-30.85215057	1.420096175	-100.9640744	-63
9942	0	-0.012629509	-0.20158577	0.344607353	0.999999046	9.53674E-06	-0.000270844	0.000427246	-0.315737724	-5.039644241	8.61518383	0.000476837	-0.013542176	0.021362306	-0.047851563	1.0625	-0.413085938	881.06	-30.85483114	1.416597336	-100.9148384	-63
9943	0	-0.007995605	-0.208618164	0.34161377	0.999999046	0.000427246	-5.24521E-05	6.10352E-05	-0.199890137	-5.215454102	8.540344238	0.021362305	-0.002622604	0.003051758	-0.050292969	1.060302734	-0.406982422	880.92	-30.81098715	1.412929812	-100.9173733	-63
9944	0	-0.008838654	-0.204721451	0.344841003	0.999999046	0.000304222	-9.91821E-05	0.000106812	-0.220966339	-5.11803627	8.621025085	0.015211106	-0.004959107	0.005340576	-0.050292969	1.057861328	-0.412597656	880.98	-30.78095103	1.407262477	-100.9137686	-63
9945	0	-0.010925293	-0.201538086	0.34197998	0.999999046	0.000572205	0.000145912	4.95911E-05	-0.273132324	-5.038452148	8.549499512	0.028610231	0.007295609	0.002479553	-0.047851563	1.060058594	-0.41015625	881.02	-30.72052571	1.422403972	-100.925125	-63
9946	0	-0.012143135	-0.202366829	0.341719627	0.999999046	-2.09808E-05	2.28882E-05	9.82285E-05	-0.303578377	-5.059170723	8.542990685	-0.001049042	0.001144409	0.004911423	-0.047851563	1.057861328	-0.409912109	881.06	-30.72768441	1.428364461	-100.9250187	-63
9947	0	-0.010253906	-0.206359863	0.344665527	0.999999046	-0.0001297	-0.000220299	-4.57764E-05	-0.256347656	-5.158996582	8.616638184	-0.006484985	-0.011014938	-0.002288818	-0.050292969	1.058105469	-0.406738281	881.08	-30.74730531	1.401914764	-100.9275597	-63
9948	0	-0.009840012	-0.207670212	0.341197968	0.999999046	0.000123024	-4.3869E-05	9.44138E-05	-0.24600029	-5.191755295	8.529949188	0.006151199	-0.002193451	0.004720688	-0.050292969	1.058105469	-0.406738281	881.02	-30.73802171	1.401021629	-100.9264804	-63
9949	0	-0.014343262	-0.206970215	0.343017578	0.999999046	-1.90735E-05	8.4877E-05	0.000225067	-0.358581543	-5.174255371	8.575439453	-0.000953674	0.004243851	0.011253357	-0.050292969	1.060302734	-0.412841797	881.06	-30.7449564	1.420658732	-100.9212098	-63
9950	0	-0.014555931	-0.206061363	0.345082283	0.999999046	-0.000371933	-2.67029E-05	0.000300407	-0.363898277	-5.151534081	8.627057076	-0.01859665	-0.001335144	0.015020371	-0.050292969	1.060302734	-0.406982422	881.02	-30.79194231	1.433922778	-100.9017955	-63
9951	0	-0.010986328	-0.210021973	0.339904785	0.999999046	-5.34058E-05	-0.000197411	0.000339508	-0.274658203	-5.250549316	8.497619629	-0.002670288	-0.009870529	0.016975403	-0.047851563	1.060058594	-0.41015625	881.06	-30.80233148	1.432693472	-100.8656487	-63
9952	0	-0.009890556	-0.203643799	0.342694283	0.999999046	0.00045681	-0.000307083	0.000449181	-0.247263908	-5.091094971	8.567357063	0.022840502	-0.015354158	0.022459032	-0.047851563	1.060058594	-0.41015625	881.06	-30.75372235	1.427041049	-100.8129078	-63
9953	0	-0.010314941	-0.202514648	0.34552002	0.999999046	0.00012207	-0.000254631	0.000366211	-0.257873535	-5.062866211	8.638000488	0.006103516	-0.012731553	0.018310548	-0.047851563	1.060058594	-0.416015625	880.98	-30.74355211	1.421644148	-100.7730196	-63
9954	0	-0.011262894	-0.202300072	0.346184731	0.999999046	0.000104904	-0.000154495	0.000189781	-0.281572342	-5.057501793	8.654618263	0.005245209	-0.007724762	0.00948906	-0.047851563	1.057861328	-0.406982422	881.08	-30.73570124	1.415795817	-100.7552782	-63
9955	0	-0.011047363	-0.202026367	0.344909668	0.999999046	8.01086E-05	-9.82285E-05	0.000106812	-0.276184082	-5.05065918	8.622741699	0.004005432	-0.004911423	0.005340576	-0.047851563	1.057861328	-0.412841797	880.92	-30.73078429	1.410645752	-100.7499023	-63
9956	0	-0.010168076	-0.204165459	0.343661308	0.999998093	9.53674E-05	-0.000123024	-0.000208855	-0.254201889	-5.104136467	8.591532707	0.004768372	-0.006151199	-0.010442734	-0.045654297	1.062255859	-0.413330078	880.98	-30.72477027	1.384543032	-100.768074	-63
9957	0	-0.013244629	-0.206054688	0.343933105	0.999999046	0.000343323	-4.1008E-05	-0.000167847	-0.331115723	-5.151367188	8.598327637	0.017166138	-0.0020504	-0.008392334	-0.050292969	1.060302734	-0.409912109	881.02	-30.69038239	1.369067077	-100.7939014	-63
9958	0	-0.013939857	-0.207715988	0.343770981	0.999999046	8.01086E-05	-0.000423431	-1.90735E-05	-0.348496437	-5.192899704	8.594274521	0.004005432	-0.02117157	-0.000953674	-0.047851563	1.057861328	-0.412841797	880.96	-30.68537206	1.324788566	-100.7783086	-63
9959	0	-0.010681152	-0.206176758	0.346496582	0.999999046	0.000240326	-0.000460625	0.000160217	-0.267028809	-5.154418945	8.662414551	0.012016297	-0.023031236	0.008010865	-0.050292969	1.058105469	-0.409667969	880.9	-30.66152903	1.287342049	-100.7461266	-63
9960	0	-0.011284828	-0.203018188	0.342881203	0.999999046	0.000336647	-0.000303268	0.000155449	-0.282120705	-5.075454712	8.572030067	0.016832352	-0.015163422	0.007772446	-0.047607422	1.057861328	-0.415771484	880.98	-30.62680481	1.265182818	-100.7195133	-63
9961	0	-0.006652832	-0.205444336	0.344787598	0.999999046	3.05176E-05	-0.000296593	8.01086E-05	-0.166320801	-5.136108398	8.619689941	0.001525879	-0.014829636	0.004005432	-0.047851563	1.057861328	-0.409912109	880.98	-30.62733985	1.239113342	-100.6996761	-63
9962	0	-0.005871773	-0.206277847	0.342605591	0.999999046	0.000764847	-9.34601E-05	-5.05447E-05	-0.146794319	-5.156946182	8.565139771	0.038242344	-0.004673005	-0.002527237	-0.047607422	1.057861328	-0.415771484	881.02	-30.54435903	1.225265775	-100.7042082	-63
9963	0	-0.009521484	-0.201538086	0.345947266	0.999999046	0.000892639	0.000180244	-0.000236511	-0.238037109	-5.038452148	8.648681641	0.044631965	0.009012224	-0.011825563	-0.050048828	1.057861328	-0.415527344	880.92	-30.44730238	1.227653349	-100.7460867	-63
9964	0	-0.011014938	-0.199467659	0.342453957	0.999999046	0.000390053	0	-6.48499E-05	-0.275373459	-4.986691475	8.561348915	0.01950264	0	-0.003242493	-0.049804688	1.055664063	-0.421386719	881.06	-30.40712072	1.222332029	-100.7609028	-62
9965	0	-0.010620117	-0.20526123	0.346130371	0.999999046	0.000370026	0.000161171	-0.000125885	-0.26550293	-5.131530762	8.653259277	0.018501282	0.008058548	-0.006294251	-0.050048828	1.057861328	-0.415527344	881.06	-30.36960336	1.229474415	-100.7890586	-62
9966	0	-0.010986328	-0.202138901	0.34694767	0.999999046	0.000383377	8.7738E-05	3.43323E-05	-0.274658203	-5.053472519	8.67369175	0.019168854	0.004386902	0.001716614	-0.050048828	1.057861328	-0.415527344	881.02	-30.33002691	1.238727386	-100.796847	-62
9967	0	-0.010925293	-0.20123291	0.342224121	0.999999046	0.000469208	0.000145912	0.000144958	-0.273132324	-5.030822754	8.555603027	0.023460389	0.007295609	0.007247925	-0.047607422	1.055664063	-0.421386719	881.02	-30.28044717	1.260212496	-100.7943372	-62
9968	0	-0.009681702	-0.204139709	0.34680748	0.999999046	-2.38419E-05	-8.39233E-05	0.000152588	-0.242042542	-5.103492737	8.670186996	-0.001192093	-0.004196167	0.007629395	-0.049804688	1.053466797	-0.421142578	880.92	-30.2870933	1.259388442	-100.782835	-62
9969	0	-0.009033203	-0.203552246	0.342956543	0.999999046	0.000583649	-6.77109E-05	0.000152588	-0.225830078	-5.088806152	8.573913574	0.029182436	-0.003385544	0.007629395	-0.049804688	1.053466797	-0.418212891	881.02	-30.22423856	1.260128735	-100.7714694	-62
9970	0	-0.010816574	-0.197712898	0.346301079	0.999999046	0.000209808	0.000171661	0.000201225	-0.270414352	-4.942822456	8.65752697	0.010490418	0.008583069	0.010061264	-0.047607422	1.055664063	-0.421386719	880.98	-30.20418686	1.28742739	-100.7654918	-62
9971	0	-0.012207031	-0.200500488	0.346069336	0.999999046	-5.34058E-05	2.38419E-05	8.01086E-05	-0.305175781	-5.012512207	8.651733398	-0.002670288	0.001192093	0.004005432	-0.049804688	1.053466797	-0.421142578	881.08	-30.21429992	1.293215933	-100.7680154	-62
9972	0	-0.009814262	-0.20151329	0.347328186	0.999999046	1.23978E-05	4.76837E-05	0.0001297	-0.24535656	-5.03783226	8.683204651	0.000619888	0.002384186	0.006484985	-0.049804688	1.053466797	-0.424072266	880.98	-30.2167201	1.304207849	-100.7678437	-62
9973	0	-0.009277344	-0.199890137	0.346435547	0.999999046	1.52588E-05	3.14713E-05	0.000179291	-0.231933594	-4.997253418	8.660888672	0.000762939	0.001573563	0.008964539	-0.049804688	1.053466797	-0.421142578	880.98	-30.21855573	1.31640939	-100.7615927	-63
9974	0	-0.011080742	-0.201828957	0.346928596	0.999999046	-0.000209808	3.05176E-05	0.000121117	-0.277018547	-5.045723915	8.673214912	-0.010490418	0.001525879	0.006055832	-0.049804688	1.055664063	-0.421386719	880.96	-30.24626484	1.325202452	-100.7607987	-62
9975	0	-0.011535645	-0.200683594	0.345458984	0.999999046	-1.14441E-05	6.19888E-05	0.000102997	-0.288391113	-5.017089844	8.636474609	-0.000572205	0.003099442	0.005149841	-0.049804688	1.055664063	-0.427246094	880.98	-30.25126252	1.336126026	-100.7650183	-63
9976	0	-0.0131464	-0.202581406	0.349480629	0.999999046	-0.000374794	-9.53674E-05	0.00014782	-0.328660011	-5.064535141	8.737015724	-0.018739701	-0.004768372	0.007390976	-0.050048828	1.055664063	-0.418457031	881.06	-30.29749084	1.334197697	-100.7545902	-63
9977	0	-0.010009766	-0.20526123	0.346557617	0.999999046	-9.53674E-05	-0.000231743	4.19617E-05	-0.250244141	-5.131530762	8.66394043	-0.004768372	-0.011587143	0.002098084	-0.050048828	1.055664063	-0.418457031	880.98	-30.31184903	1.312632965	-100.7461804	-63
9978	0	-0.01151371	-0.199284554	0.346280098	0.999999046	1.14441E-05	-8.58307E-05	0.000155449	-0.287842751	-4.982113838	8.657002449	0.000572205	-0.004291534	0.007772446	-0.049804688	1.055664063	-0.421386719	881.06	-30.31373263	1.312128402	-100.7352157	-63
9979	0	-0.010681152	-0.199157715	0.34375	0.999999046	-0.000480652	-0.00033474	0.000171661	-0.267028809	-4.978942871	8.59375	-0.024032594	-0.016736985	0.008583069	-0.047363281	1.053222656	-0.421142578	881.06	-30.37152761	1.287970926	-100.7038549	-63
9980	0	-0.007346153	-0.203332901	0.34539032	0.999999046	-0.000502586	-0.000120163	0.000301361	-0.183653831	-5.083322525	8.634757996	-0.02512932	-0.006008149	0.015068055	-0.047607422	1.055664063	-0.421386719	881.06	-30.43184536	1.292422053	-100.6731562	-63
9981	0	-0.009094238	-0.20526123	0.345214844	0.999999046	-6.86646E-05	-9.44138E-05	0.000118256	-0.227355957	-5.131530762	8.630371094	-0.003433228	-0.004720688	0.005912781	-0.047607422	1.057861328	-0.415771484	881.06	-30.4429559	1.288748295	-100.6602512	-63
9982	0	-0.011822701	-0.199446678	0.344395638	0.999999046	-0.000278473	-3.8147E-06	7.24792E-05	-0.295567513	-4.986166954	8.609890938	-0.013923645	-0.000190735	0.003623962	-0.050048828	1.057861328	-0.418457031	880.9	-30.47818232	1.291455798	-100.6631456	-63
9983	0	-0.010253906	-0.203796387	0.345214844	0.999999046	-0.000648499	3.91006E-05	0.000236511	-0.256347656	-5.094909668	8.630371094	-0.032424929	0.001955033	0.011825562	-0.047851563	1.057861328	-0.409912109	880.98	-30.5554922	1.30794403	-100.646845	-63
9984	0	-0.008303642	-0.208209991	0.346897125	0.999999046	7.34329E-05	0.000165939	-1.14441E-05	-0.207591057	-5.205249786	8.672428131	0.003671646	0.008296967	-0.000572205	-0.050048828	1.057861328	-0.418457031	880.98	-30.5509425	1.322403812	-100.6689832	-63
9985	0	-0.013916016	-0.201782227	0.344848633	0.999999046	5.72205E-05	6.58035E-05	6.10352E-05	-0.347900391	-5.044555664	8.62121582	0.002861023	0.003290176	0.003051758	-0.047607422	1.055664063	-0.415527344	880.92	-30.5478405	1.331388148	-100.6726437	-63
9986	0	-0.012948036	-0.203634262	0.344259262	0.999999046	-0.000204086	-3.05176E-05	0.000128746	-0.323700905	-5.090856552	8.606481552	-0.010204315	-0.001525879	0.006437302	-0.047607422	1.057861328	-0.415771484	881.08	-30.57439125	1.334936755	-100.6637501	-63
9987	0	-0.009765625	-0.205688477	0.345825195	0.999999046	-4.57764E-05	-9.05991E-05	4.57764E-05	-0.244140625	-5.142211914	8.645629883	-0.002288818	-0.004529953	0.002288818	-0.047851563	1.060058594	-0.418945313	881.06	-30.58294527	1.327678285	-100.6599013	-63
9988	0	-0.01130867	-0.204010963	0.34428215	0.999999046	1.23978E-05	-5.91278E-05	4.86374E-05	-0.282716751	-5.100274086	8.607053757	0.000619888	-0.00295639	0.00243187	-0.047607422	1.057861328	-0.415771484	881.12	-30.58486471	1.323732187	-100.6567161	-63
9989	0	-0.014953613	-0.200195313	0.34588623	0.999999046	0.000175476	6.19888E-05	4.95911E-05	-0.373840332	-5.004882813	8.647155762	0.008773804	0.003099442	0.002479553	-0.047607422	1.055664063	-0.412597656	881.06	-30.56804708	1.332018692	-100.660262	-63
9990	0	-0.010438919	-0.203857422	0.345528603	0.999999046	-0.000619888	-0.00031662	0.000164032	-0.260972977	-5.096435547	8.638215065	-0.030994418	-0.015830995	0.0082016	-0.047607422	1.057861328	-0.415771484	880.9	-30.64157092	1.309621359	-100.6308538	-63
9991	0	-0.0078125	-0.208068848	0.343811035	0.999999046	0.000190735	-8.29697E-05	1.90735E-05	-0.1953125	-5.201721191	8.595275879	0.009536743	-0.004148483	0.000953674	-0.050048828	1.057861328	-0.415527344	880.98	-30.62302704	1.301669832	-100.6342647	-63
9992	0	-0.011791229	-0.199636459	0.345414162	0.999999046	0.000117302	1.33514E-05	-5.43594E-05	-0.294780731	-4.990911484	8.635354042	0.005865097	0.000667572	-0.002717972	-0.047851563	1.057861328	-0.412841797	880.98	-30.61294211	1.299007016	-100.644076	-63
9993	0	-0.011535645	-0.206420898	0.343017578	0.999999046	-8.01086E-05	3.52859E-05	-7.62939E-06	-0.288391113	-5.160522461	8.575439453	-0.004005432	0.001764297	-0.00038147	-0.047607422	1.057861328	-0.415771484	881.02	-30.62553754	1.301291358	-100.6505008	-63
9994	0	-0.010824203	-0.201654434	0.342923164	0.999999046	0.000389099	0.000167847	-0.00018692	-0.270605087	-5.041360855	8.573079109	0.019454957	0.008392334	-0.009346009	-0.050048828	1.055664063	-0.418457031	881	-30.58487717	1.306214977	-100.6880984	-63
9995	0	-0.010253906	-0.205505371	0.346313477	0.999999046	-0.000312805	-0.000182152	-2.67029E-05	-0.256347656	-5.137634277	8.657836914	-0.015640259	-0.00910759	-0.001335144	-0.045410156	1.057861328	-0.415771484	881.02	-30.62381653	1.285952449	-100.6766842	-63
9996	0	-0.010422707	-0.206880569	0.343013763	1	-7.05719E-05	-9.53674E-07	0	-0.260567665	-5.172014236	8.575344086	-0.003528595	-4.76837E-05	0	-0.047607422	1.055664063	-0.412597656	880.98	-30.63533196	1.28511663	-100.6781354	-63
9997	0	-0.014587402	-0.199890137	0.341674805	0.999999046	-0.000156403	-0.000102043	0.000301361	-0.364685059	-4.997253418	8.541870117	-0.00782013	-0.005102158	0.015068055	-0.050048828	1.057861328	-0.415527344	880.98	-30.65576361	1.292134106	-100.65083	-63
9998	0	-0.01103878	-0.202859879	0.342833519	0.999999046	-0.000768661	-0.000423431	0.000469208	-0.275969505	-5.071496964	8.570837975	-0.038433081	-0.021171573	0.023460392	-0.047851563	1.057861328	-0.412841797	880.92	-30.74551908	1.277356931	-100.5840565	-63
9999	0	-0.009033203	-0.207702637	0.345703125	0.999999046	0.000225067	-0.000155449	0.000370026	-0.225830078	-5.192565918	8.642578125	0.011253357	-0.007772446	0.018501282	-0.045410156	1.057861328	-0.412841797	881	-30.72203431	1.283128074	-100.5380304	-63
10000	0	-0.00992775	-0.199361801	0.344574928	0.999999046	-0.000340462	-0.000270844	0.000293732	-0.248193741	-4.984045029	8.614373207	-0.017023087	-0.013542176	0.014686585	-0.045166016	1.055664063	-0.412841797	880.96	-30.76311658	1.273048283	-100.4939229	-63
10001	0	-0.01171875	-0.202941895	0.345275879	0.999999046	-0.00038147	-0.000208855	0.000301361	-0.29296875	-5.073547363	8.631896973	-0.019073487	-0.010442734	0.015068055	-0.045410156	1.060058594	-0.413085938	881.02	-30.80883598	1.269613324	-100.4530378	-63
10002	0	-0.010232925	-0.203992844	0.344452858	0.999999046	-0.000198364	-8.01086E-05	0.000144958	-0.255823135	-5.099821091	8.611321449	-0.009918213	-0.004005432	0.007247925	-0.045410156	1.057861328	-0.409912109	881	-30.83400972	1.269677392	-100.435494	-63
10003	0	-0.008544922	-0.203979492	0.343322754	0.999999046	-0.000335693	2.00272E-05	-6.48499E-05	-0.213623047	-5.099487305	8.583068848	-0.016784668	0.001001358	-0.003242493	-0.045410156	1.060058594	-0.413085938	881.02	-30.87545655	1.267175055	-100.4442883	-63
10004	0	-0.010667801	-0.207262993	0.341778755	0.999999046	-0.000203133	0.000221252	-0.000106812	-0.266695023	-5.181574821	8.54446888	-0.010156632	0.011062622	-0.005340576	-0.045410156	1.057861328	-0.412841797	880.96	-30.90219283	1.281999887	-100.4695362	-63
10005	0	-0.010314941	-0.208312988	0.343383789	0.999999046	-8.01086E-05	0.000359535	-0.000213623	-0.257873535	-5.207824707	8.584594727	-0.004005432	0.017976761	-0.010681153	-0.045654297	1.060058594	-0.407226563	881.06	-30.91536964	1.304115124	-100.511115	-63
10006	0	-0.009802818	-0.205199242	0.343709946	0.999999046	0.000209808	0.000411987	-0.000255585	-0.245070457	-5.129981041	8.592748642	0.010490418	0.020599366	-0.012779236	-0.047851563	1.060058594	-0.41015625	881.08	-30.89548408	1.328882478	-100.5651219	-63
10007	0	-0.012634277	-0.203552246	0.344909668	0.999999046	3.05176E-05	0.0002985	-0.000156403	-0.315856934	-5.088806152	8.622741699	0.001525879	0.014925003	-0.00782013	-0.047851563	1.057861328	-0.406982422	881.12	-30.89564877	1.348434951	-100.601953	-63
10008	0	-0.013080597	-0.205183983	0.343510628	0.999999046	-0.000313759	0.000104904	-5.05447E-05	-0.327014923	-5.129599571	8.587765694	-0.015687943	0.005245209	-0.002527237	-0.047851563	1.060058594	-0.41015625	881.06	-30.93473744	1.355282605	-100.6169544	-63
10009	0	-0.01171875	-0.210388184	0.343261719	0.999999046	3.8147E-06	-4.86374E-05	9.53674E-05	-0.29296875	-5.25970459	8.581542969	0.000190735	-0.00243187	0.004768372	-0.047851563	1.060058594	-0.41015625	880.98	-30.93707832	1.35565916	-100.6086203	-63
10010	0	-0.015325546	-0.20452404	0.34326458	0.999999046	-7.82013E-05	-0.000167847	0.000152588	-0.383138657	-5.113101006	8.581614494	-0.003910065	-0.008392334	0.007629395	-0.047851563	1.060058594	-0.41015625	881	-30.9484526	1.347910721	-100.5878132	-63
10011	0	-0.01385498	-0.206665039	0.344299316	0.999999046	-0.000484467	-0.00026989	0.000247955	-0.346374512	-5.166625977	8.60748291	-0.024223329	-0.013494492	0.012397767	-0.050292969	1.060302734	-0.406982422	881.08	-31.0060296	1.335908353	-100.5575074	-63
10012	0	-0.010537148	-0.208580971	0.344041824	0.999999046	-0.000121117	-0.000207901	0.000338554	-0.263428688	-5.214524269	8.601045609	-0.006055832	-0.01039505	0.01692772	-0.047851563	1.060302734	-0.407226563	880.98	-31.0219062	1.335331977	-100.516936	-63
10013	0	-0.00994873	-0.204040527	0.340820313	0.999999046	-0.000293732	-0.000247002	0.000209808	-0.248718262	-5.101013184	8.520507813	-0.014686585	-0.012350083	0.010490418	-0.045654297	1.062255859	-0.410400391	881.02	-31.0577419	1.323272632	-100.4819138	-63
10014	0	-0.008033752	-0.208880424	0.347353935	0.999999046	4.3869E-05	-0.000257492	0.000201225	-0.200843811	-5.222010612	8.683848381	0.002193451	-0.012874604	0.010061264	-0.045654297	1.0625	-0.404541016	880.92	-31.0548689	1.309530154	-100.4455727	-63
10015	0	-0.010131836	-0.202209473	0.343017578	0.999999046	0.000148773	-2.19345E-05	3.43323E-05	-0.253295898	-5.055236816	8.575439453	0.00743866	-0.001096725	0.001716614	-0.045654297	1.060058594	-0.404296875	881.02	-31.04047114	1.309017793	-100.440145	-63
10016	0	-0.012877464	-0.203694344	0.342163086	0.999999046	-1.04904E-05	0.00015831	-0.00017643	-0.321936607	-5.092358589	8.554077148	-0.000524521	0.007915497	-0.008821488	-0.047851563	1.060302734	-0.407226563	880.98	-31.04495085	1.313859058	-100.4715116	-63
10017	0	-0.012573242	-0.209228516	0.344299316	0.999999046	3.8147E-06	5.05447E-05	-3.43323E-05	-0.314331055	-5.230712891	8.60748291	0.000190735	0.002527237	-0.001716614	-0.045654297	1.0625	-0.404541016	881.06	-31.04739518	1.31660137	-100.4748816	-63
10018	0	-0.01271534	-0.210326195	0.342163086	0.999999046	0.000102997	2.67029E-05	-9.15527E-05	-0.317883492	-5.258154869	8.554077148	0.005149841	0.001335144	-0.004577637	-0.045654297	1.060058594	-0.404296875	881	-31.03875666	1.31371283	-100.4825961	-63
10019	0	-0.013427734	-0.206054688	0.34197998	0.999999046	0.000160217	0.000123024	8.01086E-05	-0.335693359	-5.151367188	8.549499512	0.008010864	0.006151199	0.004005432	-0.045654297	1.062255859	-0.407470703	880.92	-31.02330833	1.330556006	-100.4795878	-63
10020	0	-0.012202263	-0.209972382	0.341799736	0.999999046	-0.000100136	-0.000144958	0.00019455	-0.305056572	-5.24930954	8.544993401	-0.00500679	-0.007247925	0.009727478	-0.048095703	1.0625	-0.404296875	881.02	-31.03725869	1.327899835	-100.4553545	-63
10021	0	-0.009338379	-0.208129883	0.343505859	0.999999046	0.000431061	-2.86102E-06	0.000106812	-0.233459473	-5.20324707	8.587646484	0.02155304	-0.000143051	0.005340576	-0.047851563	1.060058594	-0.41015625	881.12	-30.99078569	1.33392239	-100.4500741	-63
10022	0	-0.011027336	-0.202219009	0.341054916	0.999999046	0.000123978	-9.53674E-06	-9.53674E-05	-0.275683403	-5.055475235	8.52637291	0.006198883	-0.000476837	-0.004768372	-0.045410156	1.060058594	-0.413085938	881.06	-30.97981171	1.327363545	-100.4578048	-63
10023	0	-0.014587402	-0.207580566	0.344482422	0.999999046	6.10352E-05	0.000123024	-0.000198364	-0.364685059	-5.18951416	8.612060547	0.003051758	0.006151199	-0.009918213	-0.048095703	1.060302734	-0.404296875	881.06	-30.97648904	1.327932885	-100.4864682	-63
10024	0	-0.011843681	-0.205529213	0.344138145	0.999999046	0.000172615	-3.8147E-05	-0.000118256	-0.296092033	-5.138230324	8.603453636	0.008630753	-0.001907349	-0.005912781	-0.047851563	1.060058594	-0.41015625	881.02	-30.95991979	1.317430281	-100.4978223	-63
10025	0	-0.009094238	-0.208862305	0.343688965	0.999999046	0.000175476	-0.000170708	0.000106812	-0.227355957	-5.221557617	8.592224121	0.008773804	-0.008535385	0.005340576	-0.047851563	1.057861328	-0.409912109	881.06	-30.94243959	1.307066882	-100.4798087	-63
10026	0	-0.012438774	-0.204955101	0.344008446	0.999999046	0.000171661	-0.000104904	8.67844E-05	-0.310969353	-5.123877525	8.600211143	0.008583069	-0.005245209	0.004339218	-0.048095703	1.0625	-0.404296875	880.98	-30.92544798	1.302064352	-100.464384	-63
10027	0	-0.013122559	-0.205810547	0.34362793	0.999999046	0	-0.000189781	2.28882E-05	-0.328063965	-5.145263672	8.590698242	0	-0.00948906	0.001144409	-0.047851563	1.060058594	-0.413085938	880.92	-30.92815113	1.285063106	-100.4528408	-63
10028	0	-0.010803223	-0.206481934	0.346500397	0.999999046	0.000119209	-0.000188828	9.05991E-05	-0.270080566	-5.16204834	8.662509918	0.005960465	-0.009441376	0.004529953	-0.050292969	1.060302734	-0.412841797	881.02	-30.91699535	1.272133888	-100.4405946	-63
10029	0	-0.00958252	-0.206176758	0.340759277	0.999999046	0.000225067	-0.000163078	0.000137329	-0.239562988	-5.154418945	8.518981934	0.011253357	-0.008153916	0.006866455	-0.047851563	1.057861328	-0.412841797	881.06	-30.89371211	1.264423686	-100.4195831	-63
10030	0	-0.011113167	-0.204920769	0.343540192	0.999999046	0.000240326	-0.000133514	0.000231743	-0.27782917	-5.123019218	8.588504791	0.012016297	-0.00667572	0.011587143	-0.045410156	1.060058594	-0.41015625	880.96	-30.86845441	1.265189422	-100.3832637	-63
10031	0	-0.010681152	-0.20690918	0.343200684	0.999999046	0.000293732	3.14713E-05	0.000244141	-0.267028809	-5.172729492	8.58001709	0.014686585	0.001573563	0.012207032	-0.047851563	1.060302734	-0.407226563	881.06	-30.83733678	1.282901726	-100.3618903	-63
10032	0	-0.011230469	-0.205418587	0.347775459	0.999999046	0.000277519	-6.67572E-05	3.05176E-05	-0.280761719	-5.135464668	8.694386482	0.013875961	-0.00333786	0.001525879	-0.050292969	1.060302734	-0.412841797	881.02	-30.8083235	1.278414392	-100.3634887	-63
10033	0	-0.010009766	-0.205078125	0.343811035	0.999999046	0.000225067	3.52859E-05	-4.57764E-05	-0.250244141	-5.126953125	8.595275879	0.011253357	0.001764298	-0.002288818	-0.047607422	1.055664063	-0.412597656	881.12	-30.7856049	1.279454816	-100.3724029	-63
10034	0	-0.014348984	-0.202239037	0.345975876	1	2.95639E-05	2.38419E-05	1.43051E-05	-0.358724594	-5.055975914	8.649396896	0.001478195	0.001192093	0.000715256	-0.047851563	1.060302734	-0.407226563	880.92	-30.7849517	1.283075005	-100.3714389	-63
10035	0	-0.010437012	-0.204345703	0.34362793	0.999999046	9.15527E-05	-0.000235558	-1.90735E-05	-0.260925293	-5.108642578	8.590698242	0.004577637	-0.011777878	-0.000953674	-0.047851563	1.057861328	-0.412841797	880.92	-30.77691356	1.259175247	-100.3604322	-63
10036	0	-0.007460594	-0.205077171	0.341593742	0.999999046	-4.48227E-05	-7.62939E-05	0.000137329	-0.186514854	-5.126929283	8.539843559	-0.002241135	-0.003814697	0.006866455	-0.047851563	1.057861328	-0.409912109	881.08	-30.78443207	1.259960714	-100.3427938	-63
10037	0	-0.011108398	-0.206359863	0.343322754	0.999999046	-0.000110626	2.00272E-05	0.000144958	-0.277709961	-5.158996582	8.583068848	-0.005531311	0.001001358	0.007247925	-0.050292969	1.058105469	-0.409667969	881	-30.79968486	1.270697418	-100.33715	-63
