Counter	Temperature	VelInc_X	VelInc_Y	VelInc_Z	OriInc_w	OriInc_x	OriInc_y	OriInc_z	Acc_X	Acc_Y	Acc_Z	Gyr_X	Gyr_Y	Gyr_Z	Mag_X	Mag_Y	Mag_Z	Pressure	Roll	Pitch	Yaw	RSSI
4712	0	0.381103516	-0.083695412	0.05005455	0.999999046	-0.000519753	-0.000366211	0.000464439	9.527587891	-2.092385292	1.251363754	-0.025987628	-0.018310549	0.023221972	-0.644775391	0.485107422	0.440185547	887.22	-57.5724199	-75.42995554	-100.3860495	-54
4713	0	0.380615234	-0.085449219	0.052856445	0.999999046	0.000160217	-0.000632286	7.62939E-06	9.515380859	-2.136230469	1.321411133	0.008010865	-0.031614306	0.00038147	-0.647216797	0.485351563	0.446044922	887.2	-57.75939807	-75.4726581	-100.1743369	-54
4714	0	0.381353378	-0.084095001	0.05410862	0.999999046	0.000520706	-0.000501633	-0.000164986	9.533834457	-2.102375031	1.352715492	0.026035311	-0.025081637	-0.008249284	-0.647216797	0.485351563	0.443115234	887.1	-57.81599185	-75.52394522	-100.0521992	-54
4715	0	0.383117676	-0.083557129	0.05456543	0.999999046	-0.00019455	-0.000300407	0.000190735	9.577941895	-2.088928223	1.364135742	-0.009727478	-0.015020371	0.009536743	-0.647216797	0.485351563	0.443115234	887.2	-57.96288957	-75.52835494	-99.92104784	-52
4716	0	0.382933617	-0.085555077	0.053141594	0.999999046	-0.000430107	-1.90735E-05	0.00038147	9.573340416	-2.138876915	1.328539848	-0.021505357	-0.000953674	0.019073487	-0.644775391	0.485107422	0.443115234	887.16	-58.07558505	-75.49699022	-99.85189912	-54
4717	0	0.383850098	-0.085754395	0.052612305	0.999999046	-0.000156403	3.91006E-05	0.000228882	9.596252441	-2.143859863	1.315307617	-0.007820129	0.001955032	0.011444092	-0.644775391	0.485107422	0.440185547	887.22	-58.09907499	-75.47686789	-99.83989388	-54
4718	0	0.382403374	-0.08460331	0.050905228	0.999999046	-6.86646E-05	0.00015831	0.000160217	9.560084343	-2.115082741	1.272630692	-0.003433228	0.007915497	0.008010864	-0.644775391	0.485107422	0.443115234	887.2	-58.05191139	-75.45622538	-99.89348635	-54
4719	0	0.38104248	-0.084716797	0.051391602	0.999999046	-0.000362396	0.000332832	0.000411987	9.526062012	-2.117919922	1.284790039	-0.018119813	0.016641618	0.020599367	-0.644775391	0.485107422	0.440185547	887.24	-58.03216863	-75.40050903	-99.95117628	-54
4720	0	0.381976128	-0.084519386	0.050972939	0.999999046	-0.000302315	0.000171661	0.000304222	9.549403191	-2.112984657	1.274323463	-0.015115738	0.008583069	0.015211106	-0.649658203	0.485351563	0.440429688	887.12	-58.04092235	-75.36509343	-99.97523557	-54
4721	0	0.382629395	-0.08404541	0.050109863	0.999999046	-0.000392914	0.000332832	4.57764E-05	9.565734863	-2.101135254	1.252746582	-0.019645692	0.016641618	0.002288818	-0.644775391	0.487548828	0.439941406	887.2	-57.94050876	-75.34510989	-100.1130338	-54
4722	0	0.383625984	-0.085401535	0.049747467	0.999999046	-0.000326157	0.00022316	7.15256E-05	9.590649605	-2.135038376	1.243686676	-0.016307831	0.01115799	0.003576279	-0.644775391	0.487548828	0.442871094	887.22	-57.87991638	-75.32933021	-100.2038445	-54
4723	0	0.382385254	-0.084472656	0.04864502	0.999999046	-0.000247955	0.000123024	0.000263214	9.559631348	-2.111816406	1.216125488	-0.012397766	0.006151199	0.013160706	-0.644775391	0.485107422	0.443115234	887.16	-57.89273411	-75.301171	-100.2156479	-54
4724	0	0.381596565	-0.083844185	0.049062729	0.999999046	-0.000325203	-0.000144958	0.000323296	9.539914131	-2.096104622	1.226568222	-0.016260148	-0.007247925	0.01616478	-0.644775391	0.487548828	0.439941406	887.24	-58.02781814	-75.2836236	-100.1014147	-54
4725	0	0.381530762	-0.085144043	0.049987793	0.999999046	-0.000183105	-0.000239372	3.8147E-06	9.538269043	-2.128601074	1.249694824	-0.009155274	-0.011968613	0.000190735	-0.647216797	0.485351563	0.446044922	887.16	-58.10803018	-75.3028887	-100.0386913	-54
4726	0	0.382835388	-0.084677696	0.05080986	0.999999046	0.000169754	-0.000179291	-0.000271797	9.570884705	-2.116942406	1.270246506	0.008487702	-0.008964539	-0.013589859	-0.644775391	0.485351563	0.448974609	887.2	-58.06201783	-75.34539372	-100.0648047	-54
4727	0	0.381530762	-0.083862305	0.051574707	0.999999046	-0.000522614	-0.000117302	0.000160217	9.538269043	-2.096557617	1.289367676	-0.026130678	-0.005865097	0.008010865	-0.644775391	0.485107422	0.440185547	887.16	-58.17219097	-75.34217405	-100.0026175	-54
4728	0	0.382918358	-0.085320473	0.050784111	0.999999046	-0.000685692	9.53674E-06	0.000282288	9.572958946	-2.133011818	1.269602776	-0.034284595	0.000476837	0.014114381	-0.647216797	0.483154297	0.446289063	887.2	-58.28206573	-75.31941735	-99.97067849	-54
4729	0	0.382507324	-0.086120605	0.052185059	0.999999046	-2.28882E-05	-0.000174522	8.39233E-05	9.562683105	-2.153015137	1.304626465	-0.001144409	-0.00872612	0.004196167	-0.647216797	0.485351563	0.443115234	887.2	-58.33875769	-75.32703802	-99.9068858	-54
4730	0	0.382511139	-0.085393906	0.051924706	0.999999046	2.09808E-05	-0.000110626	-0.00023365	9.562778473	-2.134847641	1.298117638	0.001049042	-0.005531311	-0.011682511	-0.647216797	0.483154297	0.446289063	887.12	-58.29348663	-75.36177708	-99.95029792	-54
4731	0	0.381469727	-0.085327148	0.051330566	0.999999046	-0.000286102	-0.000174522	-2.28882E-05	9.536743164	-2.133178711	1.28326416	-0.014305115	-0.00872612	-0.001144409	-0.644775391	0.482910156	0.448974609	887.22	-58.35583741	-75.37980121	-99.91887566	-54
4732	0	0.382407188	-0.085400581	0.052062988	0.999999046	2.76566E-05	-0.000165939	9.44138E-05	9.56017971	-2.135014534	1.301574707	0.001382828	-0.008296967	0.004720688	-0.649658203	0.483154297	0.44921875	887.12	-58.40600837	-75.38583192	-99.86564852	-54
4733	0	0.381286621	-0.085510254	0.051330566	0.999999046	0.000164032	-0.000170708	-0.000102997	9.532165527	-2.137756348	1.28326416	0.008201599	-0.008535385	-0.005149841	-0.644775391	0.482910156	0.446044922	887.24	-58.39691236	-75.41138733	-99.85164924	-54
4734	0	0.382263184	-0.085266113	0.052856445	0.999999046	0.000160217	-6.10352E-05	-0.000148773	9.55657959	-2.131652832	1.321411133	0.008010864	-0.003051758	-0.00743866	-0.644775391	0.485351563	0.448974609	887.22	-58.33624043	-75.43476653	-99.88789135	-54
4735	0	0.384317398	-0.084881783	0.052201271	0.999998093	6.96182E-05	-0.000116348	0.000105858	9.607934952	-2.122044563	1.305031776	0.003480911	-0.005817413	0.005292892	-0.647216797	0.483154297	0.44921875	887.12	-58.36536713	-75.43663002	-99.84932534	-54
4736	0	0.380980492	-0.084811211	0.050457954	0.999999046	9.25064E-05	-0.000167847	7.62939E-05	9.524512291	-2.120280266	1.26144886	0.00462532	-0.008392334	0.003814697	-0.644775391	0.482910156	0.446044922	887.28	-58.40450097	-75.44447447	-99.79393142	-54
4737	0	0.3828125	-0.085998535	0.053527832	0.999999046	0.000415802	-0.000445366	3.8147E-06	9.5703125	-2.149963379	1.338195801	0.020790101	-0.022268297	0.000190735	-0.644775391	0.482910156	0.446044922	887.16	-58.49410346	-75.47591832	-99.64882233	-54
4738	0	0.381577492	-0.086628914	0.053747177	0.999999046	0.000768661	-0.000242233	-0.000222206	9.539437294	-2.165722847	1.343679428	0.038433079	-0.012111665	-0.011110307	-0.644775391	0.482910156	0.443115234	887.2	-58.41424524	-75.51709164	-99.63536672	-55
4739	0	0.381713867	-0.084655762	0.054443359	0.999999046	0.000530243	-5.24521E-05	-2.28882E-05	9.54284668	-2.116394043	1.361083984	0.026512147	-0.002622604	-0.001144409	-0.647216797	0.485351563	0.446044922	887.2	-58.33558642	-75.5273086	-99.64856846	-54
4740	0	0.381540298	-0.086414337	0.052601814	0.999999046	-8.67844E-05	0.00012207	0.000452995	9.538507462	-2.160358429	1.315045357	-0.004339218	0.006103516	0.022649766	-0.64453125	0.482910156	0.440185547	887.2	-58.37236026	-75.48047541	-99.61547452	-54
4741	0	0.382385254	-0.086303711	0.050964355	0.999999046	0.000312805	0.000119209	0.000427246	9.559631348	-2.157592773	1.274108887	0.01564026	0.005960465	0.021362306	-0.647216797	0.485351563	0.443115234	887.16	-58.35857524	-75.43626944	-99.58832848	-54
4742	0	0.383460045	-0.084096909	0.05245018	0.999999046	0.000339508	0.000196457	0.000247002	9.586501122	-2.102422714	1.311254501	0.016975403	0.009822846	0.012350083	-0.646972656	0.483154297	0.440429688	887.2	-58.27082855	-75.40502578	-99.63879297	-54
4743	0	0.381225586	-0.084594727	0.051330566	0.999999046	8.7738E-05	0.000172615	0.000263214	9.530639648	-2.114868164	1.28326416	0.004386902	0.008630753	0.013160706	-0.647216797	0.487548828	0.440185547	887.22	-58.22489865	-75.37364608	-99.66640427	-54
4744	0	0.380674362	-0.085091591	0.052818298	0.999999046	0.000498772	3.24249E-05	0.000423431	9.516859055	-2.127289772	1.320457458	0.024938585	0.001621246	0.021171571	-0.647216797	0.485351563	0.440185547	887.2	-58.22104546	-75.33507742	-99.60998255	-54
4745	0	0.381591797	-0.082763672	0.054199219	0.999999046	0.00037384	-2.86102E-06	0.000179291	9.539794922	-2.069091797	1.354980469	0.018692017	-0.000143051	0.008964539	-0.647216797	0.485351563	0.440185547	887.2	-58.18761031	-75.32247371	-99.60037425	-54
4746	0	0.382049561	-0.084020615	0.05358696	0.999999046	-0.000114441	0.000154495	-8.86917E-05	9.551239014	-2.100515366	1.339673996	-0.005722046	0.007724762	-0.004434586	-0.644775391	0.485107422	0.437255859	887.1	-58.08940459	-75.32646177	-99.71087309	-54
4747	0	0.382751465	-0.086120605	0.053833008	0.999999046	-1.52588E-05	0.000115395	-0.000118256	9.568786621	-2.153015137	1.345825195	-0.000762939	0.00576973	-0.005912781	-0.644775391	0.485107422	0.437255859	887.12	-57.98726084	-75.33558106	-99.81303544	-54
4748	0	0.381599426	-0.085849762	0.053733826	0.999999046	0.000411034	5.72205E-05	-7.24792E-05	9.539985657	-2.146244049	1.343345642	0.020551682	0.002861023	-0.003623963	-0.647216797	0.487548828	0.440185547	887.12	-57.86826842	-75.34367414	-99.88142498	-54
4749	0	0.381774902	-0.084655762	0.055480957	0.999999046	9.53674E-05	-2.86102E-06	0.000133514	9.544372559	-2.116394043	1.387023926	0.004768372	-0.000143051	0.00667572	-0.647216797	0.485351563	0.443115234	887.06	-57.85515357	-75.33535693	-99.88627073	-54
4750	0	0.381507874	-0.085784912	0.054639816	0.999999046	0.000114441	5.53131E-05	-0.000203133	9.537696838	-2.144622803	1.365995407	0.005722046	0.002765656	-0.010156632	-0.644775391	0.487304688	0.437011719	887.22	-57.73947209	-75.35604563	-99.98209058	-52
4751	0	0.379821777	-0.086608887	0.056396484	0.999999046	0.000461578	0.000157356	-0.000274658	9.495544434	-2.165222168	1.409912109	0.02307892	0.007867814	-0.013732911	-0.646972656	0.485351563	0.437255859	887.2	-57.52857278	-75.3771246	-100.1418554	-54
4752	0	0.380888939	-0.085738182	0.056044579	0.999999046	0.000338554	0.000282288	-9.53674E-07	9.522223473	-2.143454552	1.401114464	0.01692772	0.01411438	-4.76837E-05	-0.647216797	0.485351563	0.443115234	887.22	-57.3495635	-75.3637828	-100.2898293	-54
4753	0	0.379333496	-0.086486816	0.053100586	0.999999046	0.000236511	0.000370979	0.000335693	9.483337402	-2.16217041	1.327514648	0.011825562	0.018548966	0.016784669	-0.646972656	0.485351563	0.437255859	887.24	-57.22999321	-75.31229427	-100.3845927	-54
4754	0	0.379358292	-0.086229324	0.052201271	0.999999046	0.000366211	0.000188828	6.10352E-05	9.483957291	-2.155733109	1.305031776	0.018310547	0.009441376	0.003051758	-0.649658203	0.487548828	0.443115234	887.2	-57.09851869	-75.29846852	-100.4795368	-54
4755	0	0.380371094	-0.087219238	0.052368164	0.999999046	0.000473022	8.58307E-06	-0.000152588	9.509277344	-2.180480957	1.309204102	0.023651124	0.000429153	-0.007629395	-0.647216797	0.485351563	0.440185547	887.2	-56.97075957	-75.31629594	-100.559323	-54
4756	0	0.380029678	-0.085102081	0.051477432	0.999999046	0.000477791	-0.000102997	0.000343323	9.500741959	-2.127552032	1.286935806	0.023889543	-0.005149842	0.017166139	-0.649658203	0.487548828	0.437255859	887.16	-57.00188834	-75.29345484	-100.4701579	-54
4757	0	0.381103516	-0.084716797	0.051025391	0.999999046	0.000148773	-0.000407219	0.000476837	9.527587891	-2.117919922	1.275634766	0.00743866	-0.020360948	0.02384186	-0.649414063	0.487548828	0.434326172	887.24	-57.21404119	-75.27673525	-100.2315308	-54
4758	0	0.381370544	-0.084394455	0.051836967	0.999999046	0.00015831	-0.000524521	0.000476837	9.534263611	-2.109861374	1.295924187	0.007915498	-0.026226046	0.02384186	-0.647216797	0.487548828	0.434326172	887.24	-57.46795241	-75.26710795	-99.94877493	-54
4759	0	0.381469727	-0.084411621	0.052368164	0.999999046	0.000141144	-0.00057888	0.000205994	9.536743164	-2.110290527	1.309204102	0.00705719	-0.028944017	0.010299683	-0.647460938	0.491943359	0.436767578	887.28	-57.6805975	-75.28679621	-99.70329985	-54
4760	0	0.3820467	-0.084432602	0.053657532	0.999999046	0.000203133	-0.000623703	0.000235558	9.551167488	-2.110815048	1.341438293	0.010156632	-0.031185153	0.011777879	-0.644775391	0.489746094	0.433837891	887.16	-57.90994613	-75.3061582	-99.43479591	-54
4761	0	0.38092041	-0.082580566	0.053161621	0.999999046	0.000160217	-0.000590324	0.000286102	9.523010254	-2.06451416	1.329040527	0.008010865	-0.029516222	0.014305116	-0.647460938	0.491943359	0.436767578	887.16	-58.14373848	-75.31841504	-99.16714279	-54
4762	0	0.382339478	-0.082294464	0.053162575	0.999999046	-5.91278E-05	-0.000469208	6.48499E-05	9.558486938	-2.057361603	1.329064369	-0.00295639	-0.023460389	0.003242493	-0.644775391	0.489746094	0.436767578	887.22	-58.30657292	-75.3448161	-99.00184737	-55
4763	0	0.384277344	-0.08392334	0.053955078	0.999999046	1.90735E-05	-0.000437737	-0.000328064	9.606933594	-2.098083496	1.348876953	0.000953674	-0.021886827	-0.016403199	-0.645019531	0.489746094	0.439697266	887.2	-58.35828036	-75.40761665	-98.94343223	-54
4764	0	0.382486343	-0.084280968	0.052645683	0.999999046	0.000304222	-0.000354767	-0.000515938	9.562158585	-2.107024193	1.316142082	0.015211107	-0.017738344	-0.025796892	-0.647216797	0.489746094	0.437011719	887.22	-58.30261219	-75.4837702	-98.95953121	-54
4765	0	0.383728027	-0.08380127	0.053466797	0.999999046	-0.000148773	-0.000170708	1.90735E-05	9.593200684	-2.095031738	1.336669922	-0.00743866	-0.008535385	0.000953674	-0.642333984	0.487304688	0.437011719	887.06	-58.35336101	-75.49668055	-98.92121662	-55
4766	0	0.381362915	-0.084870338	0.054164886	0.999999046	-7.62939E-05	0.000177383	-3.8147E-06	9.534072876	-2.121758461	1.354122162	-0.003814697	0.008869171	-0.000190735	-0.642333984	0.487304688	0.439697266	887.16	-58.25887658	-75.49077704	-99.02654291	-54
4767	0	0.381896973	-0.083618164	0.052185059	0.999999046	-6.48499E-05	0.000290871	-0.000267029	9.547424316	-2.090454102	1.304626465	-0.003242493	0.014543534	-0.013351441	-0.645019531	0.489746094	0.442626953	887.16	-58.0587556	-75.50359002	-99.23706238	-54
4768	0	0.381607056	-0.084764481	0.051113129	0.999999046	-0.000393867	0.000341415	-0.000161171	9.540176392	-2.119112015	1.277828217	-0.019693376	0.017070771	-0.008058548	-0.645019531	0.489746094	0.442626953	887.2	-57.90220329	-75.50287531	-99.43966235	-54
4769	0	0.381652832	-0.085632324	0.051391602	0.999999046	-0.000228882	0.000473976	0.00012207	9.541320801	-2.140808105	1.284790039	-0.011444092	0.023698808	0.006103516	-0.647216797	0.485351563	0.443115234	887.06	-57.74439384	-75.46641012	-99.63630633	-54
4770	0	0.383049965	-0.084344864	0.049578667	0.999999046	-0.000108719	0.000318527	0.000152588	9.576249123	-2.108621597	1.239466667	-0.005435944	0.015926361	0.007629395	-0.649658203	0.489746094	0.439941406	887.22	-57.63936684	-75.43648892	-99.75226911	-54
4771	0	0.382507324	-0.08404541	0.049194336	0.999999046	-0.000377655	0.00017643	0.000183105	9.562683105	-2.101135254	1.229858398	-0.018882752	0.008821488	0.009155274	-0.649658203	0.489746094	0.439941406	887.1	-57.62619273	-75.41241312	-99.80462853	-54
4772	0	0.381421089	-0.08489418	0.04944706	0.999999046	-0.000462532	-1.90735E-06	0.000250816	9.535527229	-2.122354507	1.236176491	-0.023126603	-9.53674E-05	0.012540818	-0.647216797	0.487548828	0.437255859	887.12	-57.70562285	-75.3927849	-99.77178141	-54
4773	0	0.38079834	-0.083435059	0.05065918	0.999999046	-0.000213623	7.72476E-05	0.00030899	9.519958496	-2.085876465	1.266479492	-0.010681153	0.003862381	0.015449524	-0.647216797	0.489746094	0.439941406	887.18	-57.74090519	-75.36275787	-99.75272933	-54
4774	0	0.379336357	-0.080945015	0.050621033	0.999999046	-0.000501633	-0.000335693	0.000411034	9.483408928	-2.023625374	1.265525818	-0.025081637	-0.016784669	0.020551683	-0.647216797	0.489746094	0.439941406	887.22	-57.98596592	-75.34817916	-99.55057388	-54
4775	0	0.382263184	-0.083312988	0.050964355	0.999999046	-0.000602722	-0.000357628	0.00012207	9.55657959	-2.082824707	1.274108887	-0.030136111	-0.017881395	0.006103516	-0.647216797	0.487548828	0.437255859	887.16	-58.18358323	-75.36296461	-99.41037746	-54
4776	0	0.383133888	-0.083469391	0.051809311	0.999999046	9.82285E-05	-0.000495911	-0.0004282	9.578347206	-2.086734772	1.295232773	0.004911423	-0.024795534	-0.02140999	-0.644775391	0.485107422	0.440185547	887.16	-58.22539778	-75.43971074	-99.35339768	-55
4777	0	0.382385254	-0.082214355	0.054077148	0.999999046	-0.000221252	-0.000342369	-0.000221252	9.559631348	-2.055358887	1.351928711	-0.011062622	-0.017118455	-0.011062622	-0.644775391	0.485107422	0.440185547	887.18	-58.2940474	-75.48706108	-99.30447592	-55
4778	0	0.381543159	-0.08359623	0.054204941	0.999999046	-0.00063324	-0.000173569	4.19617E-05	9.538578987	-2.089905739	1.35512352	-0.03166199	-0.008678437	0.002098084	-0.647216797	0.485351563	0.443115234	887.2	-58.40724515	-75.49851829	-99.25992259	-55
4779	0	0.381896973	-0.084777832	0.054321289	0.999999046	-0.000282288	-9.05991E-05	-0.000110626	9.547424316	-2.119445801	1.358032227	-0.01411438	-0.004529953	-0.005531311	-0.647216797	0.483154297	0.443359375	887.24	-58.41302674	-75.51977923	-99.28862561	-55
4780	0	0.383877754	-0.08417511	0.054080963	0.999999046	-2.38419E-05	0.000106812	-0.000480652	9.596943855	-2.104377747	1.352024078	-0.001192093	0.005340576	-0.024032594	-0.644775391	0.482910156	0.443115234	887.24	-58.22746206	-75.56518367	-99.48089056	-55
4781	0	0.382873535	-0.085144043	0.05267334	0.999999046	-0.000595093	0.000214577	-0.000270844	9.571838379	-2.128601074	1.316833496	-0.029754641	0.010728837	-0.013542176	-0.646972656	0.480712891	0.440673828	887.18	-58.11486611	-75.58344212	-99.66681051	-55
4782	0	0.381738663	-0.08731842	0.051815987	0.999999046	-0.000253677	0.000196457	0.000198364	9.543466568	-2.18296051	1.295399666	-0.012683869	0.009822846	0.009918213	-0.646972656	0.482910156	0.4375	887.2	-58.08076316	-75.55692349	-99.72279218	-55
4783	0	0.381896973	-0.086242676	0.051330566	0.999999046	0.000404358	6.19888E-05	9.15527E-05	9.547424316	-2.156066895	1.28326416	0.020217896	0.003099442	0.004577637	-0.647216797	0.483154297	0.443359375	887.22	-57.99738153	-75.54883188	-99.75839834	-55
4784	0	0.382180214	-0.084745407	0.051567078	0.999999046	2.76566E-05	0.000148773	2.95639E-05	9.554505348	-2.118635178	1.289176941	0.001382828	0.00743866	0.001478195	-0.646972656	0.480712891	0.440673828	887.2	-57.91002298	-75.54144262	-99.84589604	-55
4785	0	0.382324219	-0.088012695	0.051269531	0.999999046	3.05176E-05	0.000199318	0.000312805	9.558105469	-2.200317383	1.281738281	0.001525879	0.009965897	0.015640259	-0.646972656	0.482910156	0.4375	887.22	-57.87091926	-75.50330465	-99.87599847	-54
4786	0	0.383103371	-0.0858078	0.052463531	0.999999046	0.0004673	2.47955E-05	0.00056839	9.577584267	-2.145195007	1.311588287	0.023365023	0.001239777	0.028419497	-0.649414063	0.483154297	0.440673828	887.16	-57.90750308	-75.45092406	-99.78366797	-55
4787	0	0.381408691	-0.08380127	0.051147461	0.999999046	7.62939E-05	4.673E-05	0.000823975	9.535217285	-2.095031738	1.278686523	0.003814698	0.002336502	0.041198735	-0.646972656	0.485351563	0.437255859	887.2	-58.03979664	-75.37240006	-99.63155983	-54
4788	0	0.382974625	-0.083997726	0.050157547	0.999999046	7.53403E-05	-5.91278E-05	0.000728607	9.574365616	-2.099943161	1.253938675	0.003767014	-0.002956391	0.036430362	-0.647216797	0.485351563	0.443115234	887.22	-58.18833764	-75.30959149	-99.47124246	-55
4789	0	0.383300781	-0.085266113	0.053527832	0.999999046	0.000579834	-0.000220299	0.000492096	9.582519531	-2.131652832	1.338195801	0.028991702	-0.01101494	0.0246048	-0.644775391	0.487548828	0.439941406	887.12	-58.28327839	-75.27946068	-99.29964994	-55
4790	0	0.382572174	-0.08240509	0.055772781	0.999999046	0.000904083	-6.67572E-05	0.000384331	9.564304352	-2.060127258	1.394319534	0.04520417	-0.003337861	0.019216541	-0.644775391	0.487304688	0.437011719	887.2	-58.25807528	-75.25061717	-99.21550252	-55
4791	0	0.380432129	-0.081420898	0.055847168	0.999999046	0.000270844	5.05447E-05	0.000495911	9.510803223	-2.035522461	1.396179199	0.013542176	0.002527237	0.024795534	-0.642333984	0.487304688	0.437011719	887.2	-58.28632101	-75.20391122	-99.15186929	-54
4792	0	0.381137848	-0.082929611	0.054037094	0.999999046	6.19888E-05	0.000324249	0.000411034	9.528446198	-2.07324028	1.350927353	0.003099442	0.016212464	0.020551682	-0.645019531	0.489746094	0.439697266	887.24	-58.21770917	-75.14906678	-99.21331962	-54
4793	0	0.382080078	-0.083007813	0.053405762	0.999999046	0.000148773	0.000466347	-9.91821E-05	9.552001953	-2.075195313	1.335144043	0.00743866	0.023317338	-0.004959107	-0.644775391	0.489746094	0.436767578	887.16	-57.97088821	-75.13533757	-99.44592352	-54
4794	0	0.382473946	-0.08480835	0.053664207	0.999999046	-3.8147E-05	0.000314713	-0.000321388	9.56184864	-2.12020874	1.341605186	-0.001907349	0.015735627	-0.016069413	-0.644775391	0.489746094	0.436767578	887.12	-57.74993111	-75.15221895	-99.67254846	-54
4795	0	0.380249023	-0.086181641	0.053161621	0.999999046	0.000102997	0.000260353	-0.000183105	9.506225586	-2.154541016	1.329040527	0.005149841	0.013017655	-0.009155274	-0.649658203	0.487548828	0.437255859	887.18	-57.56436783	-75.15880781	-99.85447933	-54
4796	0	0.380251884	-0.086764336	0.055146217	0.999999046	0.000466347	0.000164032	-0.000167847	9.506297112	-2.169108391	1.378655434	0.023317338	0.008201599	-0.008392334	-0.649658203	0.489746094	0.437011719	887.1	-57.37563981	-75.16960063	-99.99154523	-54
4797	0	0.381896973	-0.087646484	0.055725098	0.999999046	0.000343323	0.000264168	-8.39233E-05	9.547424316	-2.191162109	1.393127441	0.017166138	0.01320839	-0.004196167	-0.647216797	0.487548828	0.434326172	887.16	-57.18401183	-75.16584474	-100.1478557	-54
4798	0	0.382676125	-0.088949203	0.054522514	0.999999046	-2.86102E-05	0.000518799	4.1008E-05	9.566903114	-2.223730087	1.363062859	-0.001430512	0.025939943	0.0020504	-0.649658203	0.487548828	0.437255859	887.16	-56.97266214	-75.1339268	-100.3732746	-54
4799	0	0.380737305	-0.088012695	0.053039551	0.999999046	-3.8147E-05	0.000653267	0.000366211	9.518432617	-2.200317383	1.32598877	-0.001907349	0.032663348	0.018310549	-0.649414063	0.487548828	0.434326172	887.16	-56.79225631	-75.06211048	-100.5661798	-54
4800	0	0.383410454	-0.087748528	0.0535326	0.999999046	-0.000100136	0.000511169	0.000697136	9.585261345	-2.193713188	1.33831501	-0.005006791	0.025558475	0.034856801	-0.649658203	0.489746094	0.431152344	887.2	-56.7496665	-74.96738847	-100.617989	-54
4801	0	0.380432129	-0.085632324	0.05078125	0.999999046	-8.39233E-05	0.000367165	0.000816345	9.510803223	-2.140808105	1.26953125	-0.004196168	0.018358233	0.040817266	-0.647216797	0.489746094	0.434082031	887.18	-56.78542124	-74.8704285	-100.5908096	-54
4802	0	0.381112099	-0.084127426	0.051167488	0.999999046	-0.000333786	8.39233E-05	0.000693321	9.527802467	-2.103185654	1.279187202	-0.016689302	0.004196167	0.034666065	-0.649658203	0.491943359	0.434082031	887.24	-56.92151511	-74.80324659	-100.4870787	-54
4803	0	0.379089355	-0.084472656	0.050842285	0.999999046	-0.000164032	-6.77109E-05	0.00030899	9.477233887	-2.111816406	1.271057129	-0.008201599	-0.003385544	0.015449524	-0.647216797	0.489746094	0.434082031	887.1	-57.00319764	-74.78263213	-100.4235221	-54
4804	0	0.377824783	-0.082771301	0.052960396	0.999999046	1.43051E-05	-0.000242233	0.000216484	9.445619583	-2.069282532	1.324009895	0.000715256	-0.012111664	0.010824204	-0.649658203	0.491943359	0.434082031	887.16	-57.10478552	-74.78198193	-100.3148725	-53
4805	0	0.378173828	-0.079956055	0.053039551	0.999999046	-0.000663757	-0.000349998	0.000511169	9.454345703	-1.998901367	1.32598877	-0.033187871	-0.017499926	0.025558475	-0.647216797	0.491943359	0.430908203	887.22	-57.38887782	-74.75985596	-100.0922155	-54
4806	0	0.380567551	-0.081268311	0.051016808	0.999999046	-0.001325607	-0.000244141	0.000144958	9.514188766	-2.031707764	1.275420189	-0.066280385	-0.012207035	0.007247927	-0.647216797	0.491943359	0.427978516	887.18	-57.62803306	-74.76672176	-99.98810012	-53
4807	0	0.383850098	-0.084838867	0.054443359	0.999998093	-0.001723289	-0.000423431	-0.000717163	9.596252441	-2.12097168	1.361083984	-0.086164527	-0.021171583	-0.035858176	-0.647216797	0.489746094	0.437011719	887.18	-57.78242751	-74.8681517	-100.0246853	-54
4808	0	0.382070541	-0.088751793	0.054057121	0.999998093	-0.001235962	-0.000597954	-0.000878334	9.551763535	-2.218794823	1.351428032	-0.061798123	-0.029897703	-0.043916722	-0.647216797	0.487548828	0.437255859	887.16	-57.90809595	-74.99583141	-100.0310279	-54
4809	0	0.378845215	-0.089111328	0.056640625	0.999999046	-0.00038147	-0.000712395	-0.000556946	9.471130371	-2.227783203	1.416015625	-0.019073489	-0.035619741	-0.027847295	-0.647216797	0.485351563	0.440185547	887.1	-58.05130552	-75.09901778	-99.92204698	-55
4810	0	0.380979538	-0.086779594	0.059509277	0.999999046	-0.000543594	-0.000528336	-0.00050354	9.524488449	-2.169489861	1.487731934	-0.027179722	-0.026416782	-0.025177005	-0.647216797	0.483154297	0.443359375	887.18	-58.15823054	-75.18559443	-99.87397672	-54
4811	0	0.382080078	-0.089111328	0.059875488	0.999998093	-0.001261711	6.10352E-05	-0.000637054	9.552001953	-2.227783203	1.496887207	-0.063085577	0.003051759	-0.031852733	-0.646972656	0.480712891	0.443603516	887.16	-58.09896783	-75.24916851	-100.0822715	-55
4812	0	0.383166313	-0.091883659	0.058102608	0.999998093	-0.001504898	0.000300407	-0.00056076	9.579157829	-2.297091484	1.452565193	-0.075244937	0.015020377	-0.028038037	-0.64453125	0.480712891	0.446289063	887.24	-57.99534372	-75.29032867	-100.3591643	-54
4813	0	0.382324219	-0.092895508	0.059082031	0.999999046	-0.000770569	0.000267982	-0.000133514	9.558105469	-2.322387695	1.477050781	-0.038528447	0.013399126	-0.006675721	-0.651611328	0.474365234	0.447265625	887.12	-57.91754768	-75.29136267	-100.5405285	-54
4814	0	0.380180359	-0.091114998	0.058472633	0.999999046	-0.000265121	0.000246048	0.000476837	9.504508972	-2.277874947	1.461815834	-0.013256074	0.012302399	0.023841859	-0.651611328	0.4765625	0.447021484	887.22	-57.9311911	-75.23403135	-100.5624725	-55
4815	0	0.380187988	-0.088134766	0.057312012	0.999999046	-0.000125885	0.000306129	0.000305176	9.504699707	-2.203369141	1.432800293	-0.006294251	0.015306473	0.01525879	-0.649169922	0.474121094	0.444091797	887.18	-57.86691136	-75.1894822	-100.6506364	-54
4816	0	0.381565094	-0.088931084	0.054836273	0.999999046	-0.000212669	0.000259399	-3.52859E-05	9.53912735	-2.223277092	1.37090683	-0.010633469	0.012969971	-0.001764298	-0.649169922	0.476318359	0.444091797	887.16	-57.75170649	-75.18061815	-100.7953388	-54
4817	0	0.381103516	-0.088928223	0.054931641	0.999999046	2.67029E-05	0.00023365	1.52588E-05	9.527587891	-2.223205566	1.373291016	0.001335144	0.01168251	0.000762939	-0.646728516	0.476318359	0.440917969	887.16	-57.63051892	-75.16820795	-100.9132629	-54
4818	0	0.379915237	-0.086435318	0.054807663	0.999999046	0.00022316	0.000286102	0.000492096	9.497880936	-2.16088295	1.370191574	0.01115799	0.014305116	0.024604799	-0.651611328	0.478759766	0.444091797	887.18	-57.57835428	-75.10634	-100.9392875	-55
4819	0	0.379577637	-0.085571289	0.0546875	0.999999046	0.000114441	0.000237465	0.000526428	9.489440918	-2.139282227	1.3671875	0.005722046	0.011873246	0.026321413	-0.651611328	0.4765625	0.441162109	887.1	-57.56432303	-75.0441455	-100.9436205	-55
4820	0	0.380254745	-0.085410118	0.05574131	0.999999046	0.000432014	0.000135422	0.000133514	9.506368637	-2.135252953	1.393532753	0.021600724	0.006771088	0.00667572	-0.649414063	0.478759766	0.443847656	887.12	-57.46030682	-75.02622483	-101.0005607	-55
4821	0	0.382751465	-0.085998535	0.055358887	0.999999046	-7.62939E-06	0.000123024	-0.000102997	9.568786621	-2.149963379	1.383972168	-0.00038147	0.006151199	-0.005149841	-0.649414063	0.478759766	0.443847656	887.18	-57.35657893	-75.03191837	-101.1086653	-55
4822	0	0.383914948	-0.088301659	0.055877686	0.999999046	-0.00021553	0.000139236	0.00026226	9.597873688	-2.207541466	1.396942139	-0.01077652	0.006961823	0.013113022	-0.649414063	0.478759766	0.443847656	887.18	-57.35534247	-75.00128365	-101.1354434	-55
4823	0	0.385620117	-0.089233398	0.055664063	0.999999046	0.000324249	0.000317574	0.000530243	9.64050293	-2.230834961	1.391601563	0.016212465	0.015878679	0.026512148	-0.649414063	0.478759766	0.443847656	887.16	-57.29030306	-74.93370878	-101.1671201	-55
4824	0	0.38689518	-0.088327408	0.054195404	0.999999046	0.001030922	0.000482559	0.000732422	9.672379494	-2.208185196	1.354885101	0.051546113	0.024127968	0.036621105	-0.649414063	0.480957031	0.440673828	887.16	-57.13291652	-74.83646948	-101.2081636	-56
4825	0	0.384521484	-0.0859375	0.05255127	0.999998093	0.00092411	0.000782013	0.001075745	9.613037109	-2.1484375	1.313781738	0.046205541	0.039100664	0.053787255	-0.651855469	0.483154297	0.440673828	887.24	-56.96241746	-74.68773207	-101.2789346	-55
4826	0	0.379447937	-0.081782341	0.04908371	0.999997139	0.000883102	0.001068115	0.001532555	9.486198425	-2.044558525	1.227092743	0.044155152	0.0534058	0.076627786	-0.651855469	0.483154297	0.440673828	887.16	-56.80368286	-74.4776467	-101.3512043	-56
4827	0	0.378295898	-0.079040527	0.046875	0.999997139	0.001110077	0.000878334	0.001537323	9.457397461	-1.976013184	1.171875	0.055503886	0.043916734	0.076866206	-0.649658203	0.487548828	0.437255859	887.2	-56.68836797	-74.2796689	-101.3452911	-56
4828	0	0.380119324	-0.077673912	0.043379784	0.999998093	0.000854492	0.000840187	0.001193047	9.502983093	-1.941847801	1.084494591	0.04272463	0.042009374	0.059652357	-0.651855469	0.487548828	0.434570313	887.24	-56.54109586	-74.117954	-101.4092658	-56
4829	0	0.383911133	-0.079528809	0.0390625	0.999998093	0.001217842	0.000312805	0.001091003	9.59777832	-1.988220215	0.9765625	0.060892133	0.015640266	0.054550196	-0.649414063	0.489746094	0.425292969	887.16	-56.50943442	-74.00034039	-101.3014865	-56
4830	0	0.386572838	-0.083264351	0.040970802	0.999995232	0.002405167	-0.000192642	0.001378059	9.664320946	-2.081608772	1.024270058	0.120258486	-0.009632123	0.068903058	-0.647216797	0.494140625	0.427734375	887.2	-56.57379113	-73.88808131	-100.9543522	-55
4831	0	0.38482666	-0.080627441	0.039978027	0.999992371	0.003376961	-0.000480652	0.00189209	9.620666504	-2.015686035	0.999450684	0.168848466	-0.024032654	0.094604732	-0.647460938	0.496337891	0.427734375	887.18	-56.73167489	-73.74556506	-100.4052243	-57
4832	0	0.380352974	-0.080442429	0.041920662	0.99998951	0.003600121	-0.000858307	0.002350807	9.508824348	-2.011060715	1.048016548	0.180006604	-0.042915482	0.117540736	-0.642822266	0.502929688	0.423828125	887.22	-57.0796271	-73.58284422	-99.62651574	-57
4833	0	0.379943848	-0.081359863	0.042419434	0.999987602	0.003940582	-0.001265526	0.002532959	9.498596191	-2.033996582	1.06048584	0.197029887	-0.063276539	0.126648446	-0.638183594	0.509521484	0.423095703	887.18	-57.54900957	-73.42703947	-98.68007927	-56
4834	0	0.381357193	-0.0802145	0.041955948	0.999986649	0.004172325	-0.001576424	0.002602577	9.533929825	-2.005362511	1.048898697	0.208617184	-0.078821533	0.130129439	-0.633789063	0.516113281	0.419433594	887.18	-58.09470047	-73.28202258	-97.62367759	-56
4835	0	0.379150391	-0.078552246	0.043029785	0.999988556	0.003846169	-0.001914978	0.001983643	9.478759766	-1.963806152	1.075744629	0.192309144	-0.095749259	0.099182499	-0.631591797	0.522705078	0.412841797	887.12	-58.65318061	-73.2158101	-96.58541611	-55
4836	0	0.376436234	-0.079234123	0.041765213	0.999990463	0.003444672	-0.002192497	0.00106144	9.410905838	-1.980853081	1.044130325	0.172234092	-0.109625188	0.053072133	-0.626953125	0.527099609	0.418212891	887.2	-59.16479084	-73.25467976	-95.64850401	-55
4837	0	0.374206543	-0.080383301	0.039611816	0.999990463	0.003380775	-0.002521515	0.000228882	9.355163574	-2.00958252	0.99029541	0.169039275	-0.126076119	0.011444126	-0.624755859	0.531494141	0.417724609	887.18	-59.63722616	-73.39341558	-94.7569217	-54
4838	0	0.378143311	-0.084023476	0.03723526	0.99998951	0.003341675	-0.002994537	-0.000819206	9.453582764	-2.100586891	0.9308815	0.16708432	-0.149727387	-0.040960454	-0.622314453	0.535888672	0.411376953	887.18	-60.0853718	-73.66194696	-93.8814914	-54
4839	0	0.381408691	-0.085021973	0.034667969	0.999985695	0.003669739	-0.003336906	-0.001796722	9.535217285	-2.125549316	0.866699219	0.18348779	-0.166846096	-0.089836537	-0.620117188	0.535644531	0.4140625	887.16	-60.4479703	-74.04618937	-93.06128644	-52
4840	0	0.379812241	-0.083396912	0.034705162	0.999983788	0.003516197	-0.003667831	-0.002188683	9.495306015	-2.084922791	0.867629051	0.175810757	-0.183392507	-0.109434686	-0.617431641	0.533447266	0.411132813	887.16	-60.90044695	-74.48716127	-92.16681289	-54
4841	0	0.372131348	-0.082214355	0.039611816	0.999986649	0.00288868	-0.003643036	-0.001800537	9.303283691	-2.055358887	0.99029541	0.144434574	-0.182152549	-0.090027228	-0.617675781	0.535644531	0.411132813	887.18	-61.53442755	-74.88574736	-91.15434101	-52
4842	0	0.365841866	-0.083280563	0.040851593	0.99998951	0.002622604	-0.003490448	-0.001213074	9.146046638	-2.082014084	1.021289825	0.131130667	-0.174522997	-0.060653894	-0.617675781	0.535644531	0.416992188	887.22	-62.30278378	-75.21341451	-90.04361258	-53
4843	0	0.363220215	-0.082092285	0.04510498	0.999993324	0.001987457	-0.002882957	-0.000362396	9.080505371	-2.052307129	1.127624512	0.099373069	-0.144148171	-0.018119849	-0.617675781	0.533447266	0.419921875	887.16	-63.11482039	-75.41835216	-88.974914	-52
4844	0	0.356859207	-0.085173607	0.049734116	0.999996185	0.001688004	-0.001854897	0.000757217	8.921480179	-2.129340172	1.24335289	0.084400274	-0.092744933	0.037860914	-0.615478516	0.537841797	0.422363281	887.2	-63.79349658	-75.45170808	-88.07690677	-51
4845	0	0.34185791	-0.08795166	0.048950195	0.999991417	0.003376007	-0.000525475	0.00202179	8.546447754	-2.198791504	1.223754883	0.168800797	-0.026273796	0.101089743	-0.613037109	0.537841797	0.419433594	887.16	-63.99418069	-75.28527712	-87.4845892	-49
4846	0	0.330897331	-0.08224678	0.048970222	0.999980927	0.004862785	0.000689507	0.003511429	8.272433281	-2.05616951	1.224255562	0.243140744	0.034475536	0.175572508	-0.608642578	0.544433594	0.418457031	887.26	-63.82337852	-74.90354726	-87.10855282	-48
4847	0	0.324035645	-0.079284668	0.048095703	0.99997139	0.005608559	0.002357483	0.004440308	8.100891113	-1.982116699	1.202392578	0.280430584	0.11787526	0.22201748	-0.606445313	0.557617188	0.405761719	887.24	-63.11465437	-74.34146694	-87.18797723	-49
4848	0	0.314612389	-0.076582909	0.045360565	0.999956131	0.005847931	0.004872322	0.005311966	7.865309715	-1.914572716	1.13401413	0.292400744	0.243619602	0.265602111	-0.601806641	0.56640625	0.395996094	887.12	-61.68971363	-73.55678433	-87.99036981	-48
4849	0	0.30670166	-0.075805664	0.041015625	0.999930382	0.006362915	0.007149696	0.00687027	7.667541504	-1.895141602	1.025390625	0.318153112	0.357493088	0.343521436	-0.600097656	0.579833984	0.383056641	887.16	-59.86213189	-72.4828912	-89.15879454	-49
4850	0	0.298761368	-0.078961372	0.039810181	0.999872208	0.00955677	0.009190559	0.008921623	7.469034195	-1.974034309	0.995254517	0.477858858	0.459547532	0.446100151	-0.595703125	0.597412109	0.366699219	887.12	-57.62837777	-71.07545047	-90.38443995	-49
4851	0	0.280456543	-0.069519043	0.040466309	0.999755859	0.014164925	0.011245728	0.012630463	7.011413574	-1.737976074	1.011657715	0.708303687	0.562331992	0.631574364	-0.588867188	0.6171875	0.341308594	887.18	-55.23428765	-69.17009312	-91.24936009	-51
4852	0	0.276947975	-0.068096161	0.046070099	0.999612808	0.016288757	0.014239311	0.017442703	6.923699379	-1.702404022	1.151752472	0.814542738	0.712057238	0.872247464	-0.577636719	0.645751953	0.312011719	887.2	-52.98435386	-66.60780123	-91.72580393	-50
4853	0	0.294677734	-0.071411133	0.051025391	0.99936676	0.019158363	0.018943787	0.023223877	7.366943359	-1.78527832	1.275634766	0.958120285	0.947389185	1.161438856	-0.559082031	0.680664063	0.270263672	887.2	-50.64582622	-63.18852528	-91.96030216	-51
4854	0	0.276698112	-0.054739952	0.056279182	0.999164581	0.018877983	0.023163795	0.027870178	6.917452812	-1.368498802	1.406979561	0.944162021	1.158512318	1.39389699	-0.536132813	0.722167969	0.21875	887.12	-48.5579513	-59.0523211	-91.95314503	-49
4855	0	0.339660645	-0.109436035	0.084716797	0.99845314	0.036644936	0.035049438	0.022800446	8.491516113	-2.735900879	2.117919922	1.833192062	1.753376048	1.140610431	-0.500976563	0.765380859	0.166503906	887.16	-42.75028888	-54.39353285	-93.98126779	-49
4856	0	0.287386894	-0.062921524	0.136796951	0.99750042	0.05221653	0.043819427	0.018589973	7.184672356	-1.573038101	3.419923782	2.613003723	2.192798478	0.930273804	-0.476318359	0.797363281	0.054443359	887.18	-34.85542829	-49.16240287	-96.51451375	-52
4857	0	0.388916016	-0.111206055	0.130981445	0.998260498	0.030426979	0.042476654	0.027290344	9.722900391	-2.780151367	3.274536133	1.522231405	2.125064623	1.365308694	-0.443847656	0.819824219	-0.069091797	887.24	-31.31606066	-43.39932077	-96.65992638	-57
4858	0	0.317809105	-0.140284538	0.123714447	0.998558044	0.010174751	0.042080879	0.031716347	7.945227623	-3.507113457	3.092861176	0.508982097	2.105055302	1.586579584	-0.381347656	0.846435547	-0.141845703	887.18	-30.68424989	-37.4203848	-95.87101909	-67
4859	0	0.356872559	-0.216003418	-0.031738281	0.999004364	-0.006903648	0.029773712	0.032474518	8.921813965	-5.400085449	-0.793457031	-0.345296934	1.489179482	1.624264565	-0.3125	0.875	-0.174316406	887.1	-32.45910014	-32.60345916	-94.15095962	-59
4860	0	0.455874443	-0.190693855	0.465139389	0.995141029	-0.085373878	0.039829254	0.028604507	11.39686108	-4.767346382	11.62848473	-4.275620459	1.994694126	1.432546107	-0.248779297	0.899902344	-0.171386719	887.12	-42.18199374	-27.03032984	-94.1549429	-57
4861	0	0.457641602	-1.016662598	0.79699707	0.985624313	-0.146346092	0.075321198	0.038116455	11.44104004	-25.41656494	19.92492676	-7.352569511	3.784209963	1.915007645	-0.178222656	0.930908203	0.09375	887.18	-57.51414503	-18.15091469	-98.13077877	-60
4862	0	0.030735016	-0.628546715	0.538169861	0.999081612	-0.016544342	0.030994415	0.024500847	0.768375397	-15.71366787	13.45424652	-0.827470255	1.550195024	1.225417242	-0.127197266	0.914306641	0.2265625	887.24	-58.97967961	-13.92213015	-99.63720128	-60
4863	0	-0.092346191	-0.469421387	0.231384277	0.999926567	-0.006710052	0.00949192	0.003158569	-2.308654785	-11.73553467	5.784606934	-0.335510738	0.474607501	0.157932286	-0.108154297	0.909423828	0.252197266	887.28	-59.58235562	-13.07310056	-100.3000998	-57
4864	0	-0.113247871	-0.292262077	0.087714195	0.999666214	0.023605347	-0.009015083	0.005372047	-2.831196785	-7.306551933	2.192854881	1.180398647	-0.450804315	0.268632255	-0.108154297	0.913818359	0.237060547	887.24	-57.17351386	-13.0986333	-99.01837664	-57
4865	0	-0.043579102	-0.295410156	0.157165527	0.999400139	0.029319763	-0.01639843	0.008354187	-1.089477539	-7.385253906	3.929138184	1.466281112	-0.820085341	0.417792823	-0.090576172	0.919433594	0.188964844	887.18	-54.32249518	-13.36594419	-96.84684229	-58
4866	0	0.012256622	-0.252786636	0.186816216	0.998454094	0.051225662	-0.015073776	0.015370369	0.306415558	-6.319665909	4.670405388	2.562602955	-0.754077192	0.76891447	-0.065917969	0.933837891	0.119384766	887.2	-49.03976957	-13.05141975	-94.33390315	-59
4867	0	0.016845703	-0.131774902	0.168457031	0.998657227	0.047337532	-0.009365082	0.018848419	0.421142578	-3.294372559	4.211425781	2.367936591	-0.468463794	0.942843016	-0.031005859	0.943115234	0.020263672	887.26	-44.1332645	-12.21320818	-92.01786558	-60
4868	0	0.025568008	-0.144026756	0.192894936	0.99895668	0.042106628	-0.00641346	0.016414642	0.639200211	-3.600668907	4.82237339	2.106063198	-0.320784449	0.821017389	0.004150391	0.94140625	-0.057373047	887.12	-39.7142699	-11.49406765	-90.08578041	-63
4869	0	0.073181152	-0.04864502	0.318969727	0.999538422	0.028492928	0.001270294	0.010410309	1.829528809	-1.216125488	7.974243164	1.42486535	0.063524472	0.520595447	0.030029297	0.933105469	-0.145751953	887.16	-36.61661726	-10.63350639	-89.21114101	-63
4870	0	0.121642113	-0.099882126	0.457966805	0.999808311	-0.012212753	0.015134811	0.001810074	3.041052818	-2.497053146	11.44917011	-0.610676497	0.756788693	0.090509448	0.049804688	0.927734375	-0.1640625	887.12	-37.8546238	-9.120253766	-90.08369852	-65
4871	0	0.139892578	-0.171875	0.460021973	0.999617577	-0.018768311	0.020039558	-0.003036499	3.497314453	-4.296875	11.50054932	-0.938534912	1.002105391	-0.151844266	0.053710938	0.932373047	-0.132568359	887.18	-39.74071243	-7.544981265	-91.78860073	-66
4872	0	0.044524193	-0.24361515	0.32714653	0.999479294	-0.02809906	0.014714241	-0.00578022	1.11310482	-6.090378761	8.178663254	-1.40519652	0.73583957	-0.289061095	0.055175781	0.937011719	-0.089111328	887.2	-42.74522953	-6.710035587	-93.38069283	-63
4873	0	0.024658203	-0.291137695	0.319274902	0.999662399	-0.024207115	0.007461548	-0.005649567	0.616455078	-7.278442383	7.981872559	-1.210491678	0.373119288	-0.282510054	0.041992188	0.942382813	-0.039306641	887.16	-45.38199794	-6.541198286	-94.42551885	-59
4874	0	-0.013841629	-0.316134453	0.298756599	0.999860764	-0.015822411	0.003539085	-0.003899574	-0.346040726	-7.90336132	7.468914986	-0.7911572	0.176962472	-0.194987752	0.033935547	0.9453125	0.001953125	887.18	-47.11256747	-6.575997635	-95.01234357	-57
4875	0	-0.007324219	-0.30291748	0.255126953	0.999978065	-0.005977631	0.000782967	-0.002407074	-0.183105469	-7.572937012	6.378173828	-0.29888363	0.039148606	-0.120354544	0.026123047	0.945800781	0.031494141	887.16	-47.7560979	-6.708637271	-95.25283143	-57
4876	0	0.004134178	-0.267541885	0.241880417	0.999977112	-0.006519318	-0.001542091	-0.00056839	0.103354454	-6.688547134	6.047010422	-0.325968337	-0.077105149	-0.028419709	0.021240234	0.948242188	0.040283203	887.12	-48.50194191	-6.863767375	-95.1558174	-57
4877	0	0.017456055	-0.291625977	0.229858398	0.99995327	-0.009075165	-0.002951622	0.001186371	0.436401367	-7.290649414	5.746459961	-0.453765234	-0.147583375	0.059319457	0.023681641	0.943603516	0.049316406	887.24	-49.57332348	-6.970731114	-94.80239852	-57
4878	0	0.023093224	-0.328660965	0.235333443	0.999937057	-0.010094643	-0.003998756	0.002663612	0.577330589	-8.216524124	5.883336067	-0.504742647	-0.199941986	0.133183393	0.023193359	0.943847656	0.075439453	887.2	-50.7887588	-7.017001049	-94.25162717	-57
4879	0	0.052490234	-0.360717773	0.245361328	0.999966621	-0.006336212	-0.004332542	0.002761841	1.312255859	-9.017944336	6.134033203	-0.316814122	-0.216629524	0.138093573	0.029785156	0.946044922	0.095458984	887.26	-51.58066927	-7.069528223	-93.66141347	-57
4880	0	0.074995995	-0.32986927	0.247085571	0.99998951	-0.000342369	-0.004022598	0.001974106	1.874899864	-8.246731758	6.177139282	-0.017118512	-0.20113059	0.098705624	0.039550781	0.943603516	0.100830078	887.2	-51.67672363	-7.168013995	-93.14989977	-57
4881	0	0.083068848	-0.300109863	0.236450195	0.999991417	-0.00176239	-0.003626823	-0.000415802	2.076721191	-7.502746582	5.911254883	-0.088119748	-0.181341668	-0.020790157	0.039550781	0.943603516	0.097900391	887.26	-51.91100438	-7.454437251	-92.8451142	-57
4882	0	0.08281517	-0.312912941	0.256545067	0.999988556	-0.003108025	-0.002701759	-0.0020504	2.070379257	-7.822823524	6.413626671	-0.155401778	-0.135088443	-0.102520351	0.039306641	0.943603516	0.106689453	887.24	-52.27436186	-7.823877939	-92.73626668	-56
4883	0	0.079711914	-0.313171387	0.270996094	0.999990463	-0.00322628	-0.00195694	-0.001777649	1.992797852	-7.829284668	6.774902344	-0.161314478	-0.097847269	-0.088882704	0.036865234	0.94140625	0.113037109	887.12	-52.64428238	-8.117388876	-92.67468469	-56
4884	0	0.080907822	-0.311214447	0.240724564	0.999987602	-0.004496574	-0.001783371	-0.000889778	2.022695541	-7.780361176	6.01811409	-0.224829627	-0.089168908	-0.044489086	0.034423828	0.943847656	0.115722656	887.18	-53.16690428	-8.318908653	-92.56592227	-56
4885	0	0.075500488	-0.326599121	0.23059082	0.999991417	-0.003990173	-0.000979424	6.86646E-05	1.887512207	-8.164978027	5.764770508	-0.199509228	-0.048971314	0.003433237	0.031738281	0.941650391	0.127685547	887.2	-53.63144429	-8.377622881	-92.46845049	-55
4886	0	0.059225082	-0.322751999	0.219117165	0.999998093	-0.001521111	-0.000191689	0.000461578	1.48062706	-8.068799973	5.477929115	-0.076055559	-0.009584431	0.023078928	0.031738281	0.941894531	0.130615234	887.2	-53.80727103	-8.346420499	-92.41838402	-55
4887	0	0.048828125	-0.31048584	0.219238281	0.999998093	-0.001601219	0.000217438	0.000217438	1.220703125	-7.762145996	5.480957031	-0.080060994	0.010871892	0.010871892	0.034179688	0.939453125	0.139404297	887.16	-53.98476261	-8.309876232	-92.42164947	-55
4888	0	0.054021835	-0.326051712	0.221147537	0.999993324	-0.003632545	0.00025177	0.000208855	1.350545883	-8.151292801	5.528688431	-0.181627676	0.012588529	0.010442757	0.036621094	0.937255859	0.13671875	887.16	-54.39530025	-8.271881042	-92.42604674	-55
4889	0	0.059204102	-0.342529297	0.221069336	0.999994278	-0.003027916	0.000705719	0.000904083	1.480102539	-8.563232422	5.526733398	-0.151396062	0.035286011	0.045204242	0.033935547	0.939697266	0.151123047	887.2	-54.73817924	-8.1391269	-92.43211427	-55
4890	0	0.062862396	-0.33302021	0.223966599	0.999997139	-0.001434326	0.001420975	0.000964165	1.571559906	-8.325505257	5.599164963	-0.071716368	0.071048796	0.048208277	0.036376953	0.937255859	0.151123047	887.2	-54.89008921	-7.95401769	-92.50124945	-55
4891	0	0.06060791	-0.319335938	0.231933594	0.999997139	1.90735E-05	0.001908302	0.000720978	1.515197754	-7.983398438	5.798339844	0.000953675	0.095415182	0.036048914	0.038818359	0.935058594	0.16015625	887.16	-54.8669265	-7.760078338	-92.63180455	-55
4892	0	0.054135323	-0.313241959	0.234351158	0.999998093	-0.000106812	0.001660347	9.44138E-05	1.353383064	-7.831048965	5.858778954	-0.005340579	0.083017388	0.00472069	0.033935547	0.9375	0.157226563	887.16	-54.85561147	-7.641336328	-92.78595818	-55
4893	0	0.053649902	-0.322998047	0.230773926	0.999999046	-0.000289917	0.001206398	-0.000133514	1.341247559	-8.074951172	5.769348145	-0.014495853	0.060319916	-0.006675722	0.033935547	0.9375	0.16015625	887.18	-54.86916891	-7.574031001	-92.9116177	-55
4894	0	0.055261612	-0.328609467	0.228580475	0.999999046	0.000389099	0.000846863	-0.000156403	1.381540298	-8.215236664	5.714511871	0.019454959	0.042343146	-0.007820131	0.036376953	0.937255859	0.156982422	887.16	-54.80954562	-7.532754457	-93.00071338	-55
4895	0	0.054382324	-0.325378418	0.223510742	0.999999046	0.000953674	0.0004282	-0.000125885	1.359558105	-8.134460449	5.587768555	0.047683725	0.021409992	-0.006294252	0.036376953	0.937255859	0.156982422	887.18	-54.69106013	-7.51638023	-93.04788978	-55
4896	0	0.053904533	-0.322372437	0.225514412	0.999998093	0.001678467	0.000142097	-0.000102997	1.347613335	-8.059310913	5.637860298	0.08392338	0.007104877	-0.005149844	0.033935547	0.939697266	0.151123047	887.2	-54.49343993	-7.516915212	-93.0690339	-55
4897	0	0.048828125	-0.315429688	0.227355957	0.999998093	0.001488686	0.000110626	-0.000282288	1.220703125	-7.885742188	5.683898926	0.074434309	0.005531313	-0.014114385	0.031494141	0.9375	0.151611328	887.18	-54.31632001	-7.536135462	-93.10251034	-55
4898	0	0.048773766	-0.317772865	0.229533195	0.999999046	0.001079559	0.000169754	-0.00073719	1.219344139	-7.944321632	5.738329887	0.053977982	0.008487704	-0.036859523	0.033935547	0.937255859	0.151367188	887.24	-54.18130747	-7.593530732	-93.16718462	-55
4899	0	0.056518555	-0.320800781	0.228271484	0.999998093	0.001179695	9.15527E-05	-0.000743866	1.412963867	-8.020019531	5.706787109	0.058984776	0.004577638	-0.03719331	0.029296875	0.9375	0.142822266	887.18	-54.03583171	-7.656927439	-93.22913558	-55
4900	0	0.058350563	-0.316687584	0.232995987	0.999998093	0.00173378	0.0001688	-0.000535011	1.458764076	-7.917189598	5.824899673	0.086689043	0.008440022	-0.026750579	0.029296875	0.939697266	0.139648438	887.18	-53.82763952	-7.695926928	-93.28247378	-55
4901	0	0.055541992	-0.310974121	0.233032227	0.999999046	0.00088501	8.86917E-05	-0.000495911	1.388549805	-7.774353027	5.825805664	0.044250496	0.004434586	-0.024795537	0.027099609	0.9375	0.137207031	887.2	-53.71783552	-7.736805004	-93.32787923	-55
4902	0	0.056667328	-0.314536095	0.232194901	0.999999046	0.000736237	9.53674E-06	-0.000514984	1.416683197	-7.863402367	5.804872513	0.036811834	0.000476837	-0.02574921	0.026855469	0.939697266	0.139892578	887.24	-53.62585373	-7.784985545	-93.36615154	-55
4903	0	0.055664063	-0.317749023	0.231811523	0.999999046	0.000576019	5.81741E-05	-0.000286102	1.391601563	-7.943725586	5.795288086	0.028800966	0.002908707	-0.014305116	0.026855469	0.941894531	0.133789063	887.18	-53.55388325	-7.808850824	-93.39160029	-55
4904	0	0.053010941	-0.317878723	0.232610703	0.999999046	0.000163078	0.000152588	6.00815E-05	1.325273514	-7.946968079	5.815267563	0.008153915	0.007629395	0.003004074	0.024658203	0.939941406	0.137207031	887.2	-53.53139709	-7.794373865	-93.40594262	-55
4905	0	0.053100586	-0.313903809	0.233520508	0.999999046	0.000198364	0.000317574	-6.48499E-05	1.327514648	-7.847595215	5.838012695	0.009918213	0.015878678	-0.003242493	0.024658203	0.939697266	0.134277344	887.2	-53.50163577	-7.780199992	-93.44355404	-55
4906	0	0.056165695	-0.31459713	0.234718323	0.999999046	-0.000387192	0.000307083	-5.05447E-05	1.40414238	-7.864928246	5.867958069	-0.019359589	0.015354157	-0.002527237	0.024658203	0.939697266	0.134277344	887.2	-53.53923205	-7.765620929	-93.4786948	-55
4907	0	0.059509277	-0.319519043	0.233154297	0.999999046	4.57764E-05	0.000191689	-7.62939E-06	1.487731934	-7.987976074	5.828857422	0.002288818	0.009584427	-0.00038147	0.024658203	0.939697266	0.134277344	887.26	-53.52925196	-7.755303146	-93.49987862	-55
4908	0	0.05484581	-0.312111855	0.236987114	0.999999046	7.9155E-05	0.000228882	0.000148773	1.371145248	-7.802796364	5.924677849	0.003957748	0.011444092	0.00743866	0.024658203	0.939697266	0.134277344	887.24	-53.51623097	-7.728161794	-93.51396774	-56
4909	0	0.053588867	-0.31829834	0.235107422	0.999999046	-0.000450134	-1.43051E-05	3.43323E-05	1.33972168	-7.957458496	5.877685547	-0.022506715	-0.000715256	0.001716614	0.024658203	0.939697266	0.134277344	887.2	-53.5659235	-7.728178614	-93.51310577	-55
4910	0	0.053329468	-0.321564674	0.233228683	0.999999046	0.000543594	-0.000137329	-0.000123024	1.333236694	-8.039116859	5.830717087	0.02717972	-0.006866455	-0.0061512	0.024658203	0.9375	0.140136719	887.2	-53.50204252	-7.751096531	-93.5122593	-55
4911	0	0.054443359	-0.313537598	0.235290527	0.999999046	0.000232697	-0.000250816	-0.000133514	1.361083984	-7.838439941	5.882263184	0.011634827	-0.012540818	-0.00667572	0.024658203	0.939697266	0.131347656	887.3	-53.47504272	-7.782814164	-93.49981705	-56
4912	0	0.055620193	-0.317016602	0.231015205	0.999999046	-0.000245094	-0.000238419	-0.000125885	1.390504837	-7.925415039	5.775380135	-0.012254715	-0.011920929	-0.006294251	0.024414063	0.939941406	0.139892578	887.18	-53.50289933	-7.813135531	-93.48878245	-55
4913	0	0.057739258	-0.31817627	0.233703613	0.999999046	0.000228882	-0.000102043	3.8147E-05	1.443481445	-7.954406738	5.842590332	0.011444092	-0.005102158	0.001907349	0.022216797	0.937744141	0.137451172	887.18	-53.47637305	-7.819277074	-93.48272123	-55
4914	0	0.0573349	-0.314901352	0.232248306	0.999999046	-0.000240326	0	0.000183105	1.433372498	-7.872533798	5.806207657	-0.012016297	0	0.009155274	0.024658203	0.9375	0.131347656	887.26	-53.50378866	-7.805326992	-93.47177734	-55
4915	0	0.056335449	-0.319396973	0.23248291	0.999999046	-0.000236511	0.000195503	0.000156403	1.40838623	-7.984924316	5.812072754	-0.011825562	0.009775162	0.00782013	0.024658203	0.9375	0.137207031	887.16	-53.52823826	-7.780659414	-93.48166253	-55
4916	0	0.053703308	-0.314154625	0.235040665	0.999999046	0.000258446	0.000139236	0.000141144	1.342582703	-7.853865623	5.876016617	0.012922287	0.006961823	0.00705719	0.024658203	0.939941406	0.137207031	887.12	-53.49645761	-7.761261063	-93.48713919	-55
4917	0	0.054748535	-0.31829834	0.235229492	0.999999046	-0.00025177	7.34329E-05	0.000110626	1.368713379	-7.957458496	5.880737305	-0.012588501	0.003671646	0.005531311	0.022216797	0.939941406	0.134277344	887.12	-53.5237449	-7.749224947	-93.49221088	-55
4918	0	0.055742264	-0.318000793	0.232574463	0.999999046	4.76837E-05	-1.71661E-05	7.9155E-05	1.393556595	-7.950019836	5.814361572	0.002384186	-0.000858307	0.003957748	0.026855469	0.939697266	0.136962891	887.28	-53.51770897	-7.74639376	-93.48370377	-55
4919	0	0.055114746	-0.315734863	0.23223877	0.999999046	-8.39233E-05	0.000107765	6.48499E-05	1.377868652	-7.893371582	5.805969238	-0.004196167	0.00538826	0.003242493	0.024658203	0.939697266	0.134277344	887.24	-53.52514381	-7.73648228	-93.49105102	-56
4920	0	0.055389404	-0.317734718	0.233539581	0.999999046	1.04904E-05	6.29425E-05	0.000152588	1.384735107	-7.943367958	5.838489532	0.000524521	0.003147125	0.007629395	0.024658203	0.939697266	0.134277344	887.24	-53.52322184	-7.721650796	-93.48840076	-55
4921	0	0.054504395	-0.314819336	0.23425293	0.999999046	0.000125885	3.14713E-05	0.000141144	1.362609863	-7.870483398	5.856323242	0.006294251	0.001573563	0.00705719	0.022216797	0.939941406	0.134277344	887.16	-53.50832747	-7.710098287	-93.48792115	-56
4922	0	0.054400444	-0.317156792	0.233908653	0.999999046	-0.000249863	-6.10352E-05	7.9155E-05	1.360011101	-7.928919792	5.847716331	-0.012493134	-0.003051758	0.003957748	0.024658203	0.939941406	0.137207031	887.26	-53.53712996	-7.710625413	-93.47919306	-56
4923	0	0.054321289	-0.320678711	0.234436035	0.999999046	0.000255585	5.43594E-05	4.19617E-05	1.358032227	-8.016967773	5.860900879	0.012779236	0.002717972	0.002098084	0.024658203	0.939941406	0.137207031	887.16	-53.50636286	-7.706756461	-93.48365066	-56
4924	0	0.054208755	-0.313606262	0.234357834	0.999999046	0.00014782	-1.52588E-05	3.8147E-05	1.355218887	-7.840156555	5.858945847	0.007390976	-0.000762939	0.001907349	0.022216797	0.939941406	0.137207031	887.16	-53.48870234	-7.708051002	-93.48604027	-56
4925	0	0.055175781	-0.316101074	0.23449707	0.999999046	-9.15527E-05	-9.82285E-05	-7.62939E-06	1.379394531	-7.902526855	5.862426758	-0.004577637	-0.004911423	-0.00038147	0.024414063	0.942138672	0.136962891	887.24	-53.49908869	-7.719322006	-93.47921596	-55
4926	0	0.055592537	-0.315838814	0.23546505	0.999999046	0.000209808	-0.000123978	3.33786E-05	1.389813423	-7.895970345	5.886626244	0.010490418	-0.006198883	0.00166893	0.024658203	0.939941406	0.137207031	887.2	-53.47559749	-7.72868789	-93.46716739	-56
4927	0	0.05456543	-0.315795898	0.234069824	0.999999046	-0.000156403	-2.95639E-05	0.000183105	1.364135742	-7.894897461	5.851745605	-0.007820129	-0.001478195	0.009155274	0.026855469	0.941894531	0.13671875	887.24	-53.49429415	-7.717890838	-93.44954977	-56
4928	0	0.054767609	-0.317781448	0.233478546	0.999999046	-0.000239372	3.43323E-05	0.000198364	1.369190216	-7.944536209	5.836963654	-0.011968613	0.001716614	0.009918213	0.024658203	0.9375	0.134277344	887.24	-53.52195305	-7.701398935	-93.44157021	-56
4929	0	0.05670166	-0.316223145	0.23236084	0.999999046	-0.000331879	0.000142097	0.000320435	1.417541504	-7.905578613	5.809020996	-0.016593934	0.007104874	0.016021729	0.024658203	0.939941406	0.137207031	887.24	-53.56006677	-7.66650317	-93.43579214	-55
4930	0	0.054234505	-0.316903114	0.234728813	0.999999046	-0.000240326	0.000106812	0.000133514	1.355862617	-7.922577858	5.868220329	-0.012016297	0.005340576	0.00667572	0.027099609	0.9375	0.137207031	887.18	-53.58640957	-7.651295627	-93.43562466	-56
4931	0	0.05267334	-0.317077637	0.234619141	0.999999046	-8.39233E-05	0.000252724	0.000167847	1.316833496	-7.926940918	5.865478516	-0.004196167	0.012636185	0.008392334	0.024658203	0.9375	0.140136719	887.26	-53.59332947	-7.62297585	-93.45174448	-56
4932	0	0.053668976	-0.316830635	0.233921051	1	5.34058E-05	4.48227E-05	0	1.341724396	-7.920765877	5.848026276	0.002670288	0.002241135	0	0.026855469	0.939697266	0.136962891	887.24	-53.58556778	-7.624317688	-93.45473429	-56
4933	0	0.054382324	-0.316589355	0.234130859	0.999999046	0.00012207	-6.38962E-05	7.62939E-06	1.359558105	-7.914733887	5.853271484	0.006103516	-0.003194809	0.00038147	0.024658203	0.939697266	0.134277344	887.2	-53.57135368	-7.632425793	-93.45058709	-56
4934	0	0.054712296	-0.315069199	0.232674599	0.999999046	-0.000167847	-0.000198364	2.67029E-05	1.367807388	-7.876729965	5.816864967	-0.008392334	-0.009918213	0.001335144	0.024414063	0.939941406	0.139892578	887.16	-53.59220159	-7.648027035	-93.43371175	-55
4935	0	0.054199219	-0.321472168	0.233581543	0.999999046	0	-0.000235558	-5.34058E-05	1.354980469	-8.036804199	5.839538574	0	-0.011777878	-0.002670288	0.026855469	0.939697266	0.139892578	887.24	-53.59371155	-7.673575463	-93.41390966	-55
4936	0	0.053976059	-0.315607071	0.232701302	0.999999046	0.000164986	-0.000244141	0.000121117	1.349401474	-7.890176773	5.817532539	0.008249283	-0.012207031	0.006055832	0.024658203	0.9375	0.140136719	887.2	-53.57805145	-7.683657823	-93.3863034	-56
4937	0	0.053405762	-0.315551758	0.232543945	0.999999046	-0.000247955	-0.000170708	7.24792E-05	1.335144043	-7.888793945	5.813598633	-0.012397766	-0.008535385	0.003623962	0.024658203	0.939697266	0.134277344	887.16	-53.60839321	-7.693240079	-93.36738377	-56
4938	0	0.054048538	-0.320557594	0.230778694	0.999999046	-6.86646E-05	-5.53131E-05	0.000231743	1.351213455	-8.013939857	5.769467354	-0.003433228	-0.002765656	0.011587143	0.024658203	0.939697266	0.134277344	887.2	-53.61846017	-7.680302982	-93.3487563	-55
4939	0	0.056091309	-0.318481445	0.233459473	0.999999046	0.000106812	-0.000178337	0.000213623	1.402282715	-7.962036133	5.836486816	0.005340576	-0.008916855	0.010681153	0.026855469	0.939697266	0.142822266	887.16	-53.60981513	-7.677531461	-93.31765749	-56
4940	0	0.057933807	-0.312719345	0.236312866	0.999999046	-0.000178337	0.000156403	0.000293732	1.448345184	-7.817983627	5.907821655	-0.008916855	0.00782013	0.014686585	0.029296875	0.939697266	0.139648438	887.18	-53.63018293	-7.644856541	-93.307604	-56
4941	0	0.054504395	-0.316833496	0.234008789	0.999999046	-1.14441E-05	0.000145912	9.53674E-05	1.362609863	-7.920837402	5.850219727	-0.000572205	0.007295609	0.004768372	0.027099609	0.9375	0.134277344	887.2	-53.62975873	-7.631253494	-93.31404626	-55
4942	0	0.051994324	-0.320572853	0.233283997	0.999999046	0.0001297	0.000146866	4.19617E-05	1.299858093	-8.014321327	5.832099915	0.006484985	0.007343292	0.002098084	0.026855469	0.942138672	0.139648438	887.1	-53.61277454	-7.62242664	-93.32445543	-55
4943	0	0.05267334	-0.318603516	0.233825684	0.999999046	0.000350952	-0.000182152	0	1.316833496	-7.965087891	5.84564209	0.017547608	-0.00910759	0	0.024658203	0.939941406	0.137207031	887.24	-53.57418707	-7.639797977	-93.31139974	-56
4944	0	0.052269936	-0.314290047	0.233599663	0.999999046	0.000216484	-0.000265121	-0.000160217	1.30674839	-7.857251167	5.83999157	0.010824204	-0.013256073	-0.008010864	0.024658203	0.939941406	0.137207031	887.24	-53.55051114	-7.677552605	-93.30087394	-56
4945	0	0.054626465	-0.319030762	0.233215332	0.999999046	5.72205E-05	-0.000342369	-1.90735E-05	1.365661621	-7.975769043	5.830383301	0.002861023	-0.017118454	-0.000953674	0.026855469	0.942138672	0.139648438	887.26	-53.5474378	-7.707606373	-93.26880714	-56
4946	0	0.056568146	-0.317171097	0.233700752	0.999999046	9.53674E-05	-0.000152588	7.53403E-05	1.414203644	-7.92927742	5.842518806	0.004768372	-0.007629395	0.003767014	0.026855469	0.942138672	0.139648438	887.24	-53.53853347	-7.716179429	-93.24800241	-56
4947	0	0.054748535	-0.314331055	0.23248291	0.999999046	-1.90735E-05	3.52859E-05	0.000114441	1.368713379	-7.858276367	5.812072754	-0.000953674	0.001764297	0.005722046	0.027099609	0.939697266	0.134033203	887.26	-53.54077501	-7.708417375	-93.24114899	-56
4948	0	0.054964066	-0.318564415	0.235159874	0.999999046	0.000159264	-0.000169754	-3.8147E-05	1.374101639	-7.964110374	5.878996849	0.007963181	-0.008487701	-0.001907349	0.024414063	0.939941406	0.139892578	887.16	-53.52374524	-7.728719355	-93.23179952	-56
4949	0	0.054077148	-0.318115234	0.234802246	0.999999046	0.000488281	-0.00014019	-0.000164032	1.351928711	-7.952880859	5.870056152	0.024414064	-0.007009507	-0.0082016	0.024658203	0.939697266	0.134277344	887.2	-53.46750715	-7.758593488	-93.23167877	-55
4950	0	0.053453445	-0.316710472	0.234119415	0.999999046	0.000484467	-0.000282288	-3.43323E-05	1.336336136	-7.917761803	5.852985382	0.024223329	-0.014114381	-0.001716614	0.024658203	0.9375	0.137207031	887.2	-53.41471587	-7.786178567	-93.21027268	-55
4951	0	0.054199219	-0.31439209	0.232788086	0.999999046	0.000392914	-0.00033474	-0.000114441	1.354980469	-7.859802246	5.819702148	0.019645692	-0.016736985	-0.005722046	0.024658203	0.939941406	0.137207031	887.16	-53.37235221	-7.824735254	-93.18852043	-56
4952	0	0.055221558	-0.316087723	0.234585762	0.999999046	0.000187874	-0.00034523	-9.15527E-05	1.38053894	-7.902193069	5.864644051	0.009393692	-0.017261506	-0.004577637	0.024658203	0.939697266	0.134277344	887.24	-53.35386565	-7.86193927	-93.16330235	-56
4953	0	0.056091309	-0.315002441	0.232971191	0.999999046	0.000110626	-4.1008E-05	0.000125885	1.402282715	-7.875061035	5.824279785	0.005531311	-0.0020504	0.006294251	0.024414063	0.942138672	0.136962891	887.24	-53.34247631	-7.858418349	-93.1519532	-56
4954	0	0.055420876	-0.313866615	0.235354424	0.999999046	-0.000400543	6.48499E-05	0.000171661	1.385521889	-7.846665382	5.883860588	-0.020027161	0.003242493	0.008583069	0.027099609	0.939697266	0.134033203	887.16	-53.38868049	-7.843483871	-93.14182086	-56
4955	0	0.054199219	-0.317260742	0.233459473	0.999999046	-0.000450134	0.000264168	0.000171661	1.354980469	-7.931518555	5.836486816	-0.022506715	0.01320839	0.008583069	0.024414063	0.942138672	0.134033203	887.2	-53.43815537	-7.814900868	-93.15533735	-56
4956	0	0.054819107	-0.320055008	0.235092163	0.999999046	1.81198E-05	0.000146866	0.000198364	1.370477676	-8.001375198	5.877304077	0.000905991	0.007343292	0.009918213	0.024414063	0.942138672	0.136962891	887.18	-53.4358012	-7.791860973	-93.15696919	-56
4957	0	0.051879883	-0.316650391	0.234313965	0.999999046	-0.000339508	-9.44138E-05	0.000312805	1.29699707	-7.916259766	5.857849121	-0.016975403	-0.004720688	0.015640259	0.024658203	0.939697266	0.131347656	887.16	-53.47857947	-7.774615232	-93.12810509	-55
4958	0	0.052333832	-0.320322037	0.234147072	0.999999046	-4.3869E-05	-0.000337601	0.000277519	1.308345795	-8.008050919	5.853676796	-0.002193451	-0.016880036	0.013875962	0.027099609	0.9375	0.137207031	887.16	-53.49031303	-7.777072397	-93.07634576	-56
4959	0	0.054992676	-0.313354492	0.237121582	0.999999046	0.000297546	-0.000338554	0.000213623	1.374816895	-7.833862305	5.928039551	0.01487732	-0.01692772	0.010681153	0.024658203	0.9375	0.137207031	887.24	-53.46214145	-7.785522428	-93.0349261	-55
4960	0	0.057460785	-0.313055992	0.236780167	1	2.86102E-05	-1.23978E-05	6.67572E-06	1.436519623	-7.826399803	5.919504166	0.001430511	-0.000619888	0.000333786	0.026855469	0.939697266	0.136962891	887.2	-53.45853167	-7.79095402	-93.03243899	-56
4961	0	0.054870605	-0.315673828	0.23614502	0.999999046	-0.000167847	6.96182E-05	8.39233E-05	1.371765137	-7.891845703	5.903625488	-0.008392334	0.003480911	0.004196167	0.027099609	0.939697266	0.134033203	887.26	-53.47704176	-7.783696399	-93.0310741	-55
4962	0	0.054174423	-0.31789875	0.235129356	0.999999046	9.53674E-06	-0.000120163	0.000113487	1.35436058	-7.947468758	5.87823391	0.000476837	-0.006008148	0.005674362	0.026855469	0.941894531	0.133789063	887.08	-53.47790793	-7.786636329	-93.01021258	-55
4963	0	0.052185059	-0.315002441	0.235351563	0.999999046	-7.24792E-05	-6.67572E-06	0.000110626	1.304626465	-7.875061035	5.883789063	-0.003623962	-0.000333786	0.005531311	0.024658203	0.939697266	0.134277344	887.24	-53.48666139	-7.781984869	-93.00553351	-55
4964	0	0.05297184	-0.319076538	0.23390007	0.999999046	-7.72476E-05	-4.95911E-05	-3.91006E-05	1.324295998	-7.976913452	5.847501755	-0.003862381	-0.002479553	-0.001955032	0.029296875	0.941894531	0.130859375	887.18	-53.49517662	-7.793974585	-92.99534736	-56
4965	0	0.052612305	-0.318908691	0.233886719	0.999999046	0.000259399	-0.000121117	-0.000114441	1.315307617	-7.972717285	5.847167969	0.012969971	-0.006055832	-0.005722046	0.027099609	0.939697266	0.134033203	887.18	-53.46541978	-7.817672619	-92.9890948	-55
4966	0	0.054755211	-0.312975883	0.235378265	0.999999046	-1.14441E-05	-0.000221252	4.95911E-05	1.368880272	-7.824397087	5.884456635	-0.000572205	-0.011062622	0.002479553	0.026855469	0.941894531	0.133789063	887.16	-53.46935534	-7.83312397	-92.96224081	-56
4967	0	0.058776855	-0.318603516	0.235046387	0.999999046	-6.10352E-05	-0.000124931	8.01086E-05	1.469421387	-7.965087891	5.876159668	-0.003051758	-0.006246567	0.004005432	0.027099609	0.939697266	0.131103516	887.26	-53.47810196	-7.83939117	-92.94178314	-55
4968	0	0.055062294	-0.315101624	0.235970497	0.999999046	0.000273705	6.67572E-05	-3.14713E-05	1.37655735	-7.877540588	5.899262428	0.013685227	0.00333786	-0.001573563	0.027099609	0.939697266	0.134033203	887.2	-53.44489916	-7.842870644	-92.94700265	-55
4969	0	0.05255127	-0.315002441	0.234802246	0.999999046	-0.000282288	-5.62668E-05	5.72205E-05	1.313781738	-7.875061035	5.870056152	-0.01411438	-0.002813339	0.002861023	0.024658203	0.939697266	0.134277344	887.2	-53.47778057	-7.846464558	-92.93997796	-55
4970	0	0.054860115	-0.320207596	0.234858513	0.999999046	0.00047493	-0.000185013	2.57492E-05	1.371502876	-8.005189896	5.871462822	0.023746492	-0.009250641	0.00128746	0.024658203	0.939697266	0.131347656	887.26	-53.42534028	-7.861722426	-92.92259165	-55
4971	0	0.054443359	-0.312072754	0.235534668	0.999999046	0.000595093	-0.000121117	-2.67029E-05	1.361083984	-7.801818848	5.888366699	0.029754641	-0.006055832	-0.001335144	0.024658203	0.939697266	0.134277344	887.2	-53.35765395	-7.877444997	-92.91511945	-55
4972	0	0.05421257	-0.314655304	0.238702774	0.999999046	0.000128746	-5.91278E-05	-9.15527E-05	1.355314255	-7.866382599	5.967569351	0.006437302	-0.00295639	-0.004577637	0.029541016	0.939697266	0.134033203	887.12	-53.34177252	-7.894848579	-92.90617747	-55
4973	0	0.052856445	-0.315429688	0.234680176	0.999999046	0.000141144	-7.53403E-05	-5.34058E-05	1.321411133	-7.885742188	5.867004395	0.00705719	-0.003767014	-0.002670288	0.027099609	0.941894531	0.130859375	887.24	-53.32507585	-7.909739918	-92.89714294	-56
4974	0	0.053963661	-0.317067146	0.234456062	0.999999046	0.000171661	-0.000207901	-6.86646E-05	1.34909153	-7.926678658	5.861401558	0.008583069	-0.01039505	-0.003433228	0.027099609	0.939697266	0.134033203	887.16	-53.30651181	-7.935042768	-92.87765277	-55
4975	0	0.055786133	-0.313781738	0.234130859	0.999999046	1.90735E-05	-9.05991E-05	8.39233E-05	1.39465332	-7.844543457	5.853271484	0.000953674	-0.004529953	0.004196167	0.027099609	0.941894531	0.127929688	887.2	-53.30539634	-7.938337009	-92.85694382	-55
4976	0	0.055531502	-0.313538551	0.234742165	0.999999046	-0.000220299	0.000282288	3.8147E-05	1.388287544	-7.838463783	5.868554115	-0.011014939	0.01411438	0.001907349	0.027099609	0.939697266	0.128173828	887.2	-53.32647624	-7.920335846	-92.8742736	-56
4977	0	0.055053711	-0.315734863	0.234375	0.999999046	-0.000335693	0.000477791	8.39233E-05	1.376342773	-7.893371582	5.859375	-0.016784669	0.023889543	0.004196167	0.026855469	0.939697266	0.136962891	887.24	-53.35876034	-7.884763122	-92.90842637	-55
4978	0	0.053982735	-0.315840721	0.23445797	0.999999046	-0.000177383	0.000471115	0.000247955	1.349568367	-7.896018028	5.861449242	-0.008869172	0.023555757	0.012397767	0.024658203	0.939697266	0.128417969	887.2	-53.37464998	-7.834532705	-92.93456932	-55
4979	0	0.051940918	-0.315795898	0.235412598	0.999999046	-0.00031662	0.000187874	0.000133514	1.298522949	-7.894897461	5.885314941	-0.015830994	0.009393692	0.00667572	0.024658203	0.939697266	0.134277344	887.18	-53.40899282	-7.814065257	-92.94332591	-55
4980	0	0.053721428	-0.317545891	0.234315872	0.999999046	-7.34329E-05	1.90735E-06	9.82285E-05	1.343035698	-7.93864727	5.857896805	-0.003671646	9.53674E-05	0.004911423	0.027099609	0.939697266	0.134033203	887.2	-53.41753836	-7.809518676	-92.93158464	-55
4981	0	0.052429199	-0.31640625	0.236694336	0.999999046	0.000114441	4.76837E-06	-1.14441E-05	1.31072998	-7.91015625	5.917358398	0.005722046	0.000238419	-0.000572205	0.024658203	0.9375	0.134277344	887.24	-53.40345546	-7.814756905	-92.93366247	-55
4982	0	0.05328846	-0.313544273	0.235362053	0.999999046	-6.48499E-05	-0.000120163	-5.72205E-05	1.332211494	-7.838606834	5.884051323	-0.003242493	-0.006008148	-0.002861023	0.024658203	0.942138672	0.131103516	887.16	-53.41096138	-7.832702452	-92.92491518	-55
4983	0	0.055419922	-0.317932129	0.235900879	0.999999046	-6.48499E-05	0.000187874	-9.91821E-05	1.385498047	-7.948303223	5.897521973	-0.003242493	0.009393692	-0.004959106	0.024414063	0.942138672	0.136962891	887.3	-53.41417743	-7.833507353	-92.94832809	-56
4984	0	0.053685188	-0.315693855	0.236124039	0.999999046	2.19345E-05	0.000534058	-0.000217438	1.342129707	-7.892346382	5.903100967	0.001096726	0.026702882	-0.010871888	0.024658203	0.939697266	0.128417969	887.2	-53.40192461	-7.8215011	-93.00902755	-55
4985	0	0.054382324	-0.315979004	0.233215332	0.999999046	-6.10352E-05	0.0004282	-5.34058E-05	1.359558105	-7.899475098	5.830383301	-0.003051758	0.021409989	-0.002670288	0.024658203	0.9375	0.134277344	887.24	-53.40213937	-7.801638873	-93.04936046	-55
4986	0	0.054443359	-0.315063477	0.233703613	0.999999046	-0.000205994	0.000595093	6.86646E-05	1.361083984	-7.876586914	5.842590332	-0.010299683	0.029754641	0.003433228	0.022216797	0.939941406	0.134277344	887.16	-53.41807671	-7.759173238	-93.10135628	-55
4987	0	0.054149628	-0.31643486	0.236398697	0.999998093	0.000153542	0.000535965	0.000118256	1.353740692	-7.910871506	5.909967422	0.007677079	0.02679825	0.005912781	0.024658203	0.939697266	0.134277344	887.18	-53.39398196	-7.716187715	-93.13859061	-55
4988	0	0.051669121	-0.315862656	0.236115456	0.999999046	-2.38419E-05	0.000452042	0.000102997	1.29172802	-7.896566391	5.902886391	-0.001192093	0.022602082	0.005149841	0.024658203	0.939941406	0.137207031	887.16	-53.39109801	-7.68022542	-93.16933748	-55
4989	0	0.051391602	-0.317626953	0.236694336	0.999999046	0.000156403	0.000226021	3.43323E-05	1.284790039	-7.940673828	5.917358398	0.007820129	0.011301041	0.001716614	0.027099609	0.939697266	0.134033203	887.12	-53.36971621	-7.66590851	-93.17740786	-55
4990	0	0.051690102	-0.315848351	0.236388206	0.999999046	0.000524521	-1.71661E-05	1.14441E-05	1.292252541	-7.896208763	5.909705162	0.026226045	-0.000858307	0.000572205	0.024658203	0.939697266	0.131347656	887.16	-53.30893731	-7.670230414	-93.1699467	-55
4991	0	0.051574707	-0.31439209	0.235961914	0.999999046	0.000526428	-6.67572E-06	-1.90735E-05	1.289367676	-7.859802246	5.899047852	0.026321412	-0.000333786	-0.000953674	0.022216797	0.939941406	0.131347656	887.16	-53.2474966	-7.676549536	-93.17113898	-55
4992	0	0.052505493	-0.314447403	0.236474991	0.999999046	0.00026989	3.43323E-05	2.19345E-05	1.312637329	-7.861185074	5.911874771	0.013494492	0.001716614	0.001096725	0.024658203	0.942138672	0.131103516	887.2	-53.21523628	-7.676257417	-93.16661984	-55
4993	0	0.051757813	-0.315307617	0.236633301	0.999999046	0.000377655	-8.67844E-05	-6.10352E-05	1.293945313	-7.88269043	5.91583252	0.018882752	-0.004339218	-0.003051758	0.024658203	0.939697266	0.128417969	887.2	-53.17135375	-7.69181184	-93.15660136	-55
4994	0	0.053424835	-0.315793991	0.237472534	0.999999046	0.000549316	-0.000167847	0.000114441	1.33562088	-7.894849777	5.936813354	0.027465822	-0.008392334	0.005722046	0.024658203	0.939697266	0.128417969	887.12	-53.11040997	-7.696846381	-93.12750377	-56
4995	0	0.053222656	-0.313964844	0.238708496	0.999999046	0.000587463	-0.000128746	6.48499E-05	1.330566406	-7.849121094	5.967712402	0.029373171	-0.006437302	0.003242493	0.024658203	0.942138672	0.131103516	887.24	-53.04402324	-7.703743026	-93.10550147	-56
4996	0	0.051716805	-0.312777519	0.23729229	0.999999046	7.72476E-05	-0.000167847	0.000125885	1.292920113	-7.819437981	5.932307243	0.003862381	-0.008392334	0.006294251	0.022216797	0.942138672	0.128173828	887.26	-53.0371373	-7.707673134	-93.08149248	-56
4997	0	0.05255127	-0.316833496	0.236022949	0.999999046	3.43323E-05	-7.9155E-05	7.62939E-05	1.313781738	-7.920837402	5.90057373	0.001716614	-0.003957748	0.003814697	0.024658203	0.941894531	0.125244141	887.16	-53.0337155	-7.709993075	-93.06291468	-55
4998	0	0.05279541	-0.315002441	0.236633301	0.999999046	3.43323E-05	0.0001297	9.53674E-05	1.319885254	-7.875061035	5.91583252	0.001716614	0.006484985	0.004768372	0.022460938	0.939941406	0.125488281	887.24	-53.02795961	-7.696145159	-93.06833263	-56
4999	0	0.05291748	-0.313415527	0.23815918	0.999999046	0.000148773	6.58035E-05	4.57764E-05	1.322937012	-7.835388184	5.953979492	0.00743866	0.003290176	0.002288818	0.024658203	0.941894531	0.125244141	887.24	-53.00931486	-7.691231633	-93.0652266	-56
5000	0	0.052674294	-0.313045502	0.237098694	0.999999046	-0.000214577	-2.28882E-05	0.00014782	1.316857338	-7.826137543	5.927467346	-0.010728836	-0.001144409	0.007390976	0.022216797	0.942138672	0.125244141	887.18	-53.03435475	-7.683072135	-93.05303798	-56
5001	0	0.051818848	-0.316101074	0.237060547	0.999999046	-0.000102997	-6.67572E-06	0.000179291	1.295471191	-7.902526855	5.926513672	-0.005149841	-0.000333786	0.008964539	0.022216797	0.944335938	0.125244141	887.2	-53.04675266	-7.670842686	-93.03991503	-56
5002	0	0.051892281	-0.313972473	0.238520622	0.999999046	9.53674E-06	-8.2016E-05	6.38962E-05	1.297307014	-7.849311829	5.963015556	0.000476837	-0.0041008	0.003194809	0.024658203	0.939697266	0.131347656	887.24	-53.04601115	-7.674317154	-93.02418441	-55
5003	0	0.053527832	-0.314086914	0.236022949	0.999999046	5.72205E-05	-0.000182152	0.000148773	1.338195801	-7.852172852	5.90057373	0.002861023	-0.00910759	0.00743866	0.022460938	0.939941406	0.125488281	887.12	-53.04191026	-7.676951978	-92.99823171	-55
5004	0	0.053344727	-0.313842773	0.235778809	0.999999046	-4.86374E-05	-0.00025177	0.000171661	1.333618164	-7.846069336	5.894470215	-0.00243187	-0.012588501	0.008583069	0.024902344	0.939697266	0.122558594	887.14	-53.05103472	-7.682318881	-92.95847061	-55
5005	0	0.053466797	-0.313781738	0.237243652	0.999999046	-0.000110626	-9.44138E-05	6.86646E-05	1.336669922	-7.844543457	5.931091309	-0.005531311	-0.004720688	0.003433228	0.022216797	0.942138672	0.125244141	887.2	-53.06434881	-7.686300227	-92.94671901	-56
5006	0	0.05163765	-0.312438011	0.237286568	0.999999046	-0.00025177	-0.000108719	0.000270844	1.290941238	-7.810950279	5.932164192	-0.012588501	-0.005435944	0.013542176	0.024658203	0.942138672	0.131103516	887.2	-53.09577139	-7.67268506	-92.91531837	-56
5007	0	0.053405762	-0.314147949	0.236938477	0.999999046	-0.000499725	-0.000128746	0.000171661	1.335144043	-7.85369873	5.923461914	-0.024986268	-0.006437302	0.008583069	0.024658203	0.941894531	0.128173828	887.26	-53.15492965	-7.669551169	-92.88897323	-55
5008	0	0.053236008	-0.315927505	0.235204697	0.999999046	-0.000567436	0.00028801	0.000209808	1.330900192	-7.898187637	5.880117416	-0.028371813	0.014400483	0.010490418	0.024658203	0.939697266	0.128417969	887.24	-53.21716079	-7.634302495	-92.89953664	-55
5009	0	0.049377441	-0.313171387	0.236694336	0.999999046	-0.000907898	0.000405312	0.00019455	1.234436035	-7.829284668	5.917358398	-0.045394905	0.020265583	0.00972748	0.024658203	0.939697266	0.128417969	887.18	-53.31675855	-7.592286626	-92.92207185	-55
5010	0	0.05223465	-0.316494942	0.238725662	0.999999046	-0.000818253	0.000188828	0.000239372	1.305866241	-7.912373543	5.968141556	-0.040912633	0.009441377	0.011968614	0.027099609	0.939697266	0.134033203	887.2	-53.4090131	-7.560992866	-92.91666301	-55
5011	0	0.055419922	-0.316101074	0.235656738	0.999999046	-0.000335693	0.000180244	0.000362396	1.385498047	-7.902526855	5.891418457	-0.016784669	0.009012223	0.018119813	0.027099609	0.939697266	0.134033203	887.24	-53.44718438	-7.519143668	-92.90323111	-56
5012	0	0.050285339	-0.314769745	0.235096931	0.999999046	-0.00033474	0.000226974	0.000408173	1.257133484	-7.869243622	5.877423286	-0.016736985	0.011348725	0.020408631	0.024658203	0.939697266	0.134277344	887.18	-53.48508463	-7.469813906	-92.89845091	-55
5013	0	0.047790527	-0.316589355	0.237854004	0.999999046	-0.000427246	0.000172615	0.000133514	1.194763184	-7.914733887	5.946350098	-0.021362306	0.008630753	0.00667572	0.024658203	0.939697266	0.134277344	887.18	-53.53167604	-7.449290378	-92.90747584	-56
5014	0	0.050736427	-0.319795609	0.235461235	0.999999046	-1.71661E-05	5.14984E-05	0.000133514	1.268410683	-7.994890213	5.886530876	-0.000858307	0.002574921	0.00667572	0.027099609	0.9375	0.134277344	887.3	-53.53278856	-7.436979235	-92.90002981	-55
5015	0	0.050170898	-0.315856934	0.235046387	0.999999046	-9.53674E-05	-4.86374E-05	0.000198364	1.254272461	-7.89642334	5.876159668	-0.004768372	-0.00243187	0.009918213	0.029296875	0.939697266	0.139648438	887.3	-53.54455488	-7.425468255	-92.87405929	-56
5016	0	0.050312042	-0.317997932	0.235713005	0.999999046	4.86374E-05	-0.000249863	0.000113487	1.257801056	-7.949948311	5.892825127	0.00243187	-0.012493134	0.005674362	0.024658203	0.939697266	0.134277344	887.2	-53.54156176	-7.435423739	-92.84652525	-56
5017	0	0.05090332	-0.313659668	0.234924316	0.999999046	0.000106812	-0.000193596	8.39233E-05	1.272583008	-7.841491699	5.87310791	0.005340576	-0.009679794	0.004196167	0.026855469	0.939697266	0.136962891	887.2	-53.53082658	-7.444283426	-92.8212637	-56
5018	0	0.051550865	-0.316548347	0.233750343	0.999999046	-0.000181198	-0.000305176	6.48499E-05	1.288771629	-7.913708687	5.843758583	-0.009059906	-0.015258789	0.003242493	0.027099609	0.9375	0.134277344	887.2	-53.55433477	-7.462521228	-92.7867589	-56
5019	0	0.051635742	-0.319152832	0.234619141	0.999999046	5.72205E-05	-7.15256E-05	-0.000110626	1.290893555	-7.978820801	5.865478516	0.002861023	-0.003576279	-0.005531311	0.027099609	0.939697266	0.134033203	887.18	-53.54620259	-7.481029068	-92.78454059	-56
5020	0	0.050946236	-0.318932533	0.235197067	0.999999046	0.000279427	-7.24792E-05	2.86102E-06	1.273655891	-7.973313332	5.879926682	0.013971329	-0.003623962	0.000143051	0.026855469	0.939697266	0.136962891	887.2	-53.51366948	-7.489100799	-92.77530432	-56
5021	0	0.050231934	-0.314575195	0.233154297	0.999999046	-3.8147E-05	-3.71933E-05	2.28882E-05	1.25579834	-7.864379883	5.828857422	-0.001907349	-0.001859665	0.001144409	0.026855469	0.939697266	0.136962891	887.2	-53.51728744	-7.492876239	-92.7677721	-55
5022	0	0.05218792	-0.316793442	0.233858109	0.999999046	-0.000331879	-9.53674E-06	0.000213623	1.30469799	-7.919836044	5.846452713	-0.016593934	-0.000476837	0.010681153	0.029541016	0.939697266	0.131103516	887.2	-53.55597497	-7.477234721	-92.74279992	-56
5023	0	0.051818848	-0.31628418	0.234558105	0.999999046	3.43323E-05	8.86917E-05	0.000205994	1.295471191	-7.907104492	5.863952637	0.001716614	0.004434586	0.010299683	0.026855469	0.939697266	0.139892578	887.24	-53.55143403	-7.455629008	-92.73613164	-56
5024	0	0.049939156	-0.313603401	0.235075951	0.999999046	-0.000308037	0.000221252	0.000163078	1.248478889	-7.84008503	5.876898766	-0.015401841	0.011062622	0.008153916	0.024658203	0.939697266	0.131347656	887.24	-53.58409509	-7.428901869	-92.74931292	-56
5025	0	0.050292969	-0.320007324	0.235168457	0.999999046	-9.15527E-05	0.000226021	0.00012207	1.257324219	-8.000183105	5.879211426	-0.004577637	0.011301041	0.006103516	0.027099609	0.939697266	0.134033203	887.36	-53.5915652	-7.405585665	-92.75992108	-56
5026	0	0.050902367	-0.319025993	0.234460831	0.999999046	0.000608444	-5.91278E-05	-1.14441E-05	1.272559166	-7.975649834	5.861520767	0.030422213	-0.002956391	-0.000572205	0.026855469	0.939697266	0.136962891	887.3	-53.52111453	-7.4139667	-92.75402491	-56
5027	0	0.04888916	-0.314453125	0.236633301	0.999999046	0.000171661	-0.000189781	3.8147E-06	1.222229004	-7.861328125	5.91583252	0.008583069	-0.00948906	0.000190735	0.027099609	0.941894531	0.130859375	887.16	-53.50227868	-7.429742105	-92.73273223	-56
5028	0	0.049769402	-0.317486763	0.23440361	0.999999046	0.000159264	-0.000246048	-0.000190735	1.244235039	-7.937169075	5.860090256	0.007963181	-0.012302399	-0.009536743	0.027099609	0.941894531	0.130859375	887.18	-53.48385674	-7.467212308	-92.71862811	-55
5029	0	0.051025391	-0.315002441	0.233032227	0.999999046	0.000160217	-0.000216484	-0.000160217	1.275634766	-7.875061035	5.825805664	0.008010864	-0.010824204	-0.008010864	0.024658203	0.939941406	0.137207031	887.24	-53.46529025	-7.499860109	-92.71195052	-56
5030	0	0.052206039	-0.317657471	0.235673904	0.999999046	-7.62939E-05	-0.000131607	2.67029E-05	1.305150986	-7.941436768	5.89184761	-0.003814697	-0.006580353	0.001335144	0.027099609	0.939697266	0.134033203	887.12	-53.47447158	-7.509541575	-92.69358915	-56
5031	0	0.049865723	-0.317321777	0.235595703	0.999999046	8.39233E-05	-0.000113487	0.000213623	1.246643066	-7.933044434	5.889892578	0.004196167	-0.005674362	0.010681152	0.029296875	0.939697266	0.13671875	887.2	-53.46672396	-7.500688496	-92.65970581	-56
5032	0	0.048564911	-0.313152313	0.23905468	0.999999046	-0.000145912	-6.10352E-05	-6.86646E-05	1.214122772	-7.828807831	5.976366997	-0.007295609	-0.003051758	-0.003433228	0.027099609	0.941894531	0.130859375	887.18	-53.48191223	-7.514103898	-92.65371657	-56
5033	0	0.05291748	-0.321105957	0.237243652	0.999999046	0.000137329	-0.00020504	-6.86646E-05	1.322937012	-8.027648926	5.931091309	0.006866455	-0.010251999	-0.003433228	0.027099609	0.939697266	0.134033203	887.18	-53.46644521	-7.537383799	-92.63506738	-56
5034	0	0.052324295	-0.316152573	0.233768463	0.999999046	0.000341415	1.14441E-05	-5.05447E-05	1.308107376	-7.903814316	5.844211578	0.017070771	0.000572205	-0.002527237	0.027099609	0.939697266	0.131103516	887.2	-53.42517644	-7.544266621	-92.63451534	-56
5035	0	0.050170898	-0.315124512	0.235351563	0.999999046	0.000297546	-8.67844E-05	-9.15527E-05	1.254272461	-7.878112793	5.883789063	0.01487732	-0.004339218	-0.004577637	0.027099609	0.941894531	0.130859375	887.24	-53.3897117	-7.561552697	-92.62640851	-55
5036	0	0.050513268	-0.314669609	0.236750603	0.999999046	0.000172615	-0.000221252	-1.52588E-05	1.262831688	-7.866740227	5.918765068	0.008630753	-0.011062622	-0.000762939	0.027099609	0.941894531	0.130859375	887.2	-53.37080376	-7.580948264	-92.60049041	-56
5037	0	0.050598145	-0.319396973	0.236022949	0.999999046	0.000282288	-0.000418663	-0.000358582	1.264953613	-7.984924316	5.90057373	0.014114381	-0.020933153	-0.017929078	0.027099609	0.939697266	0.134033203	887.18	-53.33870594	-7.645332387	-92.57952897	-56
5038	0	0.049864769	-0.317641258	0.237503052	0.999999046	0.000530243	-0.000514984	-0.000222206	1.246619225	-7.941031456	5.937576294	0.026512149	-0.025749209	-0.011110307	0.024658203	0.939697266	0.131347656	887.24	-53.2806652	-7.703639771	-92.54537771	-56
5039	0	0.051818848	-0.315185547	0.235473633	0.999999046	0.000675201	-0.00057888	-0.000259399	1.295471191	-7.879638672	5.88684082	0.033760076	-0.02894402	-0.012969973	0.024658203	0.941894531	0.128173828	887.24	-53.20648683	-7.769735479	-92.5058557	-56
5040	0	0.053048134	-0.311360359	0.236747742	0.999999046	0.000208855	-0.000616074	-0.000347137	1.326203346	-7.78400898	5.918693542	0.010442735	-0.030803683	-0.017356874	0.024658203	0.939697266	0.128417969	887.24	-53.18528548	-7.846476948	-92.46835516	-55
5041	0	0.055358887	-0.319458008	0.23626709	0.999999046	0.000274658	-0.000555992	-0.00025177	1.383972168	-7.986450195	5.906677246	0.013732911	-0.027799608	-0.012588502	0.022216797	0.942138672	0.131103516	887.3	-53.15686668	-7.910421187	-92.43455748	-56
5042	0	0.054801941	-0.313747406	0.235462189	0.999999046	0.000473022	-0.000537872	8.29697E-05	1.370048523	-7.84368515	5.886554718	0.023651125	-0.026893618	0.004148484	0.024902344	0.939697266	0.125488281	887.26	-53.10871771	-7.942500756	-92.37304446	-55
5043	0	0.049316406	-0.311279297	0.23828125	0.999999046	9.53674E-05	-0.000559807	-0.000156403	1.232910156	-7.781982422	5.95703125	0.004768372	-0.027990343	-0.00782013	0.022216797	0.942138672	0.128173828	887.3	-53.10169977	-7.997804877	-92.33193963	-56
5044	0	0.049251556	-0.313355446	0.23657608	0.999999046	0.000494957	-0.000598907	-0.000561714	1.23128891	-7.833886147	5.914402008	0.024747852	-0.029945378	-0.028085713	0.022460938	0.942138672	0.122314453	887.2	-53.04547511	-8.092685797	-92.31152943	-56
5045	0	0.05859375	-0.319458008	0.237426758	0.999999046	0.000530243	-0.000666618	-0.000366211	1.46484375	-7.986450195	5.935668945	0.02651215	-0.033330922	-0.018310549	0.024658203	0.942138672	0.131103516	887.14	-52.98809652	-8.174501599	-92.26558655	-56
5046	0	0.05737114	-0.312693596	0.238718987	0.999999046	0.00056839	-0.000495911	-0.000245094	1.434278488	-7.817339897	5.967974663	0.028419498	-0.024795535	-0.012254716	0.022216797	0.942138672	0.125244141	887.24	-52.92527344	-8.233564422	-92.2316569	-55
5047	0	0.05657959	-0.313171387	0.237609863	0.999999046	0.000312805	-0.00039196	-0.00019455	1.414489746	-7.829284668	5.940246582	0.01564026	-0.019598008	-0.009727478	0.022216797	0.942138672	0.125244141	887.26	-52.89086289	-8.28086492	-92.20304197	-56
5048	0	0.056277275	-0.314527512	0.236663818	0.999999046	0.00024128	-0.000286102	-5.43594E-05	1.406931877	-7.86318779	5.916595459	0.01206398	-0.014305115	-0.002717972	0.019775391	0.942138672	0.125488281	887.24	-52.86477263	-8.308027082	-92.18046577	-56
5049	0	0.055358887	-0.313415527	0.23828125	0.999999046	0.000221252	-0.000235558	0.000312805	1.383972168	-7.835388184	5.95703125	0.011062622	-0.011777878	0.015640259	0.019775391	0.942138672	0.125488281	887.16	-52.84400989	-8.298090549	-92.13825401	-56
5050	0	0.053387642	-0.308216095	0.240833282	0.999999046	-8.96454E-05	-6.86646E-05	-2.67029E-05	1.334691048	-7.705402374	6.020832062	-0.004482269	-0.003433228	-0.001335144	0.020019531	0.939941406	0.119873047	887.18	-52.85298076	-8.307469281	-92.13407763	-56
5051	0	0.057250977	-0.314453125	0.239929199	0.999999046	0.000259399	-1.81198E-05	-0.000110626	1.431274414	-7.861328125	5.99822998	0.012969971	-0.000905991	-0.005531311	0.020019531	0.942138672	0.119628906	887.24	-52.82038096	-8.321033434	-92.13884357	-55
5052	0	0.055009842	-0.314501762	0.237464905	1	2.09808E-05	1.81198E-05	-2.38419E-05	1.375246048	-7.86254406	5.93662262	0.001049042	0.000905991	-0.001192093	0.019775391	0.944335938	0.119384766	887.18	-52.81557027	-8.324071594	-92.14024907	-55
5053	0	0.056640625	-0.310974121	0.239501953	0.999999046	-1.14441E-05	-7.15256E-05	0.000205994	1.416015625	-7.774353027	5.987548828	-0.000572205	-0.003576279	0.010299683	0.022216797	0.944335938	0.125244141	887.26	-52.81783734	-8.312347222	-92.11261749	-56
5054	0	0.055081367	-0.311063766	0.236434937	0.999999046	-0.000490189	-0.000144958	0.000160217	1.377034187	-7.776594162	5.910873413	-0.024509431	-0.007247925	0.008010865	0.019775391	0.942138672	0.125488281	887.18	-52.87555033	-8.309820354	-92.08896697	-56
5055	0	0.058166504	-0.315185547	0.24029541	0.999999046	-0.000118256	0.000199318	0.000114441	1.454162598	-7.879638672	6.007385254	-0.005912781	0.009965897	0.005722046	0.019775391	0.942138672	0.125488281	887.24	-52.88556013	-8.287722886	-92.10031022	-56
5056	0	0.054459572	-0.313485146	0.239265442	0.999999046	-0.000353813	0.00044632	0.000216484	1.361489296	-7.837128639	5.981636047	-0.01769066	0.02231598	0.010824204	0.020019531	0.939941406	0.128662109	887.18	-52.92027799	-8.239128274	-92.12819207	-56
5057	0	0.05291748	-0.315246582	0.237915039	0.999999046	-0.000236511	0.000245094	0.000179291	1.322937012	-7.881164551	5.947875977	-0.011825562	0.012254715	0.008964539	0.022216797	0.942138672	0.125244141	887.16	-52.94389929	-8.207686805	-92.13345741	-55
5058	0	0.055435181	-0.313365936	0.238037109	0.999999046	-0.000211716	-8.58307E-05	0.000170708	1.385879517	-7.834148407	5.950927734	-0.010585785	-0.004291534	0.008535385	0.022216797	0.942138672	0.125244141	887.2	-52.96894976	-8.199869892	-92.1093235	-56
5059	0	0.05682373	-0.314819336	0.237609863	0.999999046	-0.000156403	8.58307E-06	0.000259399	1.420593262	-7.870483398	5.940246582	-0.00782013	0.000429153	0.012969971	0.022216797	0.942138672	0.128173828	887.24	-52.98732678	-8.177475526	-92.08905385	-56
5060	0	0.054763794	-0.314557076	0.238976479	0.999999046	-0.000462532	0	0.000437737	1.369094849	-7.863926888	5.974411964	-0.023126604	0	0.021886827	0.022460938	0.939941406	0.125488281	887.26	-53.04264999	-8.139292963	-92.05707542	-56
5061	0	0.053588867	-0.313781738	0.23840332	0.999999046	-0.000358582	-0.000166893	0.000522614	1.33972168	-7.844543457	5.960083008	-0.017929078	-0.008344651	0.026130678	0.022216797	0.942138672	0.125244141	887.24	-53.0890097	-8.104723232	-92.00578221	-56
5062	0	0.051750183	-0.316447258	0.236510277	0.999999046	-0.00028801	-0.000289917	0.00033474	1.293754578	-7.91118145	5.91275692	-0.014400483	-0.01449585	0.016736985	0.022216797	0.942138672	0.128173828	887.2	-53.1271165	-8.095632332	-91.95790578	-56
5063	0	0.053344727	-0.310424805	0.238952637	0.999999046	-0.000137329	-0.000258446	0.000293732	1.333618164	-7.760620117	5.973815918	-0.006866455	-0.012922287	0.014686585	0.024658203	0.941894531	0.125244141	887.16	-53.14691243	-8.088060558	-91.91039385	-56
5064	0	0.056518555	-0.313392639	0.238592148	0.999999046	-0.000655174	-3.8147E-05	0.000198364	1.412963867	-7.834815979	5.964803696	-0.032758715	-0.001907349	0.009918214	0.024658203	0.941894531	0.128173828	887.2	-53.22212873	-8.074173835	-91.8907974	-56
5065	0	0.055297852	-0.319519043	0.235839844	0.999999046	-0.000553131	0.000222206	0.000335693	1.382446289	-7.987976074	5.895996094	-0.027656557	0.011110307	0.016784669	0.024658203	0.942138672	0.131103516	887.16	-53.28376641	-8.029828381	-91.88712329	-55
5066	0	0.051932335	-0.311148643	0.236006737	0.999999046	-0.000732422	0.00019455	0.000155449	1.298308372	-7.778716087	5.900168419	-0.036621097	0.009727479	0.007772446	0.027099609	0.939697266	0.131103516	887.24	-53.36443593	-8.00385141	-91.88805065	-55
5067	0	0.053405762	-0.317321777	0.236022949	0.999999046	-0.000919342	0.000199318	0.000118256	1.335144043	-7.933044434	5.90057373	-0.045967109	0.009965898	0.005912782	0.027099609	0.939697266	0.131103516	887.24	-53.46616275	-7.980948734	-91.89196943	-56
5068	0	0.053297043	-0.318016052	0.237290382	0.999999046	-0.000386238	1.33514E-05	0.000254631	1.332426071	-7.950401306	5.93225956	-0.019311906	0.000667572	0.012731553	0.027099609	0.939697266	0.134033203	887.24	-53.51047557	-7.958136348	-91.87048772	-56
5069	0	0.054260254	-0.315063477	0.235229492	0.999999046	-0.000530243	9.53674E-07	0.000133514	1.356506348	-7.876586914	5.880737305	-0.026512147	4.76837E-05	0.006675721	0.024658203	0.9375	0.134277344	887.2	-53.5702968	-7.947349423	-91.86356564	-56
5070	0	0.053894043	-0.315429688	0.23425293	0.999999046	-0.000274658	-2.28882E-05	-6.10352E-05	1.347351074	-7.885742188	5.856323242	-0.01373291	-0.001144409	-0.003051758	0.027099609	0.939697266	0.131103516	887.24	-53.59924385	-7.95614638	-91.8595762	-56
5071	0	0.052918434	-0.31747818	0.232732773	0.999998093	-0.000382423	-0.000274658	4.00543E-05	1.322960854	-7.936954498	5.818319321	-0.019121171	-0.013732911	0.002002716	0.026855469	0.939697266	0.136962891	887.18	-53.64483392	-7.97269586	-91.82659089	-56
5072	0	0.052371979	-0.323931694	0.233392715	0.999999046	3.52859E-05	-0.000181198	9.44138E-05	1.309299469	-8.098292351	5.834817886	0.001764297	-0.009059906	0.004720688	0.027099609	0.9375	0.134277344	887.18	-53.64215111	-7.97775753	-91.79877885	-56
5073	0	0.05090332	-0.313964844	0.235046387	0.999999046	0.000217438	-0.000105858	-0.000183105	1.272583008	-7.849121094	5.876159668	0.010871887	-0.005292893	-0.009155274	0.024414063	0.939941406	0.139892578	887.14	-53.61483837	-8.003169489	-91.80278073	-56
5074	0	0.053265572	-0.316163063	0.234928131	0.999999046	-0.000371933	-0.000108719	-0.00018692	1.33163929	-7.904076576	5.873203278	-0.01859665	-0.005435944	-0.009346009	0.026855469	0.941894531	0.133789063	887.18	-53.65499997	-8.029096737	-91.79770381	-56
5075	0	0.055236816	-0.319702148	0.232971191	0.999999046	0.000228882	-2.95639E-05	-4.95911E-05	1.38092041	-7.992553711	5.824279785	0.011444092	-0.001478195	-0.002479553	0.027099609	0.939697266	0.134033203	887.26	-53.6267382	-8.037019342	-91.79047981	-56
5076	0	0.055098534	-0.315865517	0.236286163	0.999999046	0.000369072	9.91821E-05	4.1008E-05	1.377463341	-7.896637917	5.907154083	0.018453598	0.004959107	0.0020504	0.024414063	0.942138672	0.136962891	887.24	-53.5814958	-8.027863159	-91.79551289	-56
5077	0	0.052185059	-0.313171387	0.235107422	0.999999046	0.000240326	0.000248909	-3.8147E-05	1.304626465	-7.829284668	5.877685547	0.012016297	0.01244545	-0.001907349	0.024658203	0.939941406	0.137207031	887.14	-53.54818251	-8.015717163	-91.81952291	-56
5078	0	0.052763939	-0.319524765	0.235103607	0.999999046	0.000150681	2.28882E-05	7.62939E-05	1.319098473	-7.988119125	5.877590179	0.007534027	0.001144409	0.003814697	0.024414063	0.942138672	0.136962891	887.26	-53.52925404	-8.008315192	-91.81449812	-56
5079	0	0.052246094	-0.317565918	0.233703613	0.999999046	0.000423431	4.673E-05	-7.62939E-06	1.306152344	-7.939147949	5.842590332	0.02117157	0.002336502	-0.00038147	0.024658203	0.939697266	0.131347656	887.2	-53.47807806	-8.00692305	-91.81687689	-56
5080	0	0.05119133	-0.314191818	0.236109734	0.999999046	0.000329018	-8.96454E-05	-8.01086E-05	1.279783249	-7.854795456	5.90274334	0.016450882	-0.004482269	-0.004005432	0.024658203	0.939697266	0.131347656	887.26	-53.43868304	-8.021365396	-91.81108185	-55
5081	0	0.05279541	-0.312988281	0.236328125	0.999999046	0.000133514	-2.95639E-05	-9.53674E-05	1.319885254	-7.824707031	5.908203125	0.00667572	-0.001478195	-0.004768372	0.024658203	0.941894531	0.128173828	887.18	-53.42062675	-8.033061221	-91.81011155	-56
5082	0	0.053602219	-0.318408966	0.233235359	0.999999046	-0.000141144	-8.96454E-05	-0.000118256	1.340055466	-7.960224152	5.83088398	-0.00705719	-0.004482269	-0.005912781	0.024658203	0.939697266	0.134277344	887.26	-53.43475757	-8.050942301	-91.80587068	-56
5083	0	0.053955078	-0.318847656	0.23449707	0.999999046	0.000389099	-0.000296593	-0.000244141	1.348876953	-7.971191406	5.862426758	0.019454957	-0.014829636	-0.012207032	0.024658203	0.939697266	0.134277344	887.18	-53.38971932	-8.094519453	-91.78999295	-55
5084	0	0.055472374	-0.31240654	0.242580414	0.999999046	0.000849724	-0.00028801	-0.000603676	1.386809349	-7.810163498	6.064510345	0.042486199	-0.014400485	-0.030183798	0.024658203	0.939697266	0.131347656	887.14	-53.28785399	-8.170603122	-91.79681651	-56
5085	0	0.054504395	-0.314880371	0.238891602	0.999999046	0.000843048	-0.000479698	-0.000785828	1.362609863	-7.872009277	5.972290039	0.042152416	-0.023984915	-0.039291392	0.022216797	0.942138672	0.128173828	887.24	-53.18731775	-8.276476757	-91.80029074	-56
5086	0	0.054623604	-0.321174622	0.234375954	0.999997139	0.001411438	-0.000915527	-0.00077343	1.365590096	-8.02936554	5.859398842	0.07057194	-0.045776393	-0.038671516	0.022216797	0.939941406	0.131347656	887.24	-53.02782637	-8.411073368	-91.76112025	-56
5087	0	0.054443359	-0.311584473	0.23614502	0.999998093	0.001194954	-0.000808716	-0.000637054	1.361083984	-7.789611816	5.903625488	0.059747721	-0.040435808	-0.031852735	0.019775391	0.942138672	0.128417969	887.18	-52.893069	-8.525788015	-91.72545641	-56
5088	0	0.054302216	-0.309734344	0.235454559	0.999999046	0.000287056	-0.000703812	-0.000370026	1.357555389	-7.743358612	5.886363983	0.0143528	-0.035190586	-0.018501284	0.017578125	0.939941406	0.122802734	887.2	-52.86375189	-8.608754696	-91.68542589	-56
5089	0	0.055419922	-0.317626953	0.233947754	0.999999046	-8.7738E-05	-0.000430107	-0.000301361	1.385498047	-7.940673828	5.848693848	-0.004386902	-0.021505357	-0.015068055	0.017578125	0.942138672	0.122802734	887.26	-52.87463835	-8.666395989	-91.66349771	-56
5090	0	0.058989525	-0.32202816	0.234999657	0.999999046	-3.62396E-05	-4.00543E-05	-0.000118256	1.474738121	-8.050704002	5.874991417	-0.001811981	-0.002002716	-0.005912781	0.012695313	0.942382813	0.120117188	887.24	-52.87659887	-8.680327149	-91.67624198	-56
5091	0	0.063232422	-0.308776855	0.244262695	0.999999046	0.001087189	0.000454903	-0.00025177	1.580810547	-7.719421387	6.106567383	0.054359449	0.022745138	-0.012588504	0.017578125	0.942138672	0.125488281	887.18	-52.74099578	-8.672407543	-91.73048347	-56
5092	0	0.062004089	-0.301260948	0.242715836	0.999999046	0.000252724	0.000547409	-0.000321388	1.550102234	-7.531523705	6.067895889	0.012636186	0.027370455	-0.016069413	0.017578125	0.942138672	0.116943359	887.2	-52.69850866	-8.664542103	-91.79507638	-56
5093	0	0.059631348	-0.319519043	0.240661621	0.999999046	0.000328064	0.000260353	-0.000556946	1.490783691	-7.987976074	6.016540527	0.0164032	0.013017655	-0.027847292	0.012695313	0.942382813	0.120117188	887.24	-52.64906264	-8.69802788	-91.85982502	-55
5094	0	0.051429749	-0.311003685	0.240525246	0.999999046	0.000947952	0.000171661	-0.00031662	1.285743713	-7.775092125	6.013131142	0.047397622	0.00858307	-0.015830996	0.015380859	0.939941406	0.120117188	887.24	-52.53222268	-8.715346149	-91.8918431	-55
5095	0	0.053833008	-0.313720703	0.239501953	0.999999046	0.000705719	-0.00045681	-0.000419617	1.345825195	-7.843017578	5.987548828	0.035285955	-0.022840503	-0.020980838	0.010253906	0.942382813	0.120117188	887.14	-52.45091054	-8.78553889	-91.88396948	-56
5096	0	0.059075356	-0.312784195	0.239645004	0.999999046	0.001114845	-0.000595093	-0.000466347	1.476883888	-7.819604874	5.991125107	0.055742281	-0.029754648	-0.023317344	0.010253906	0.944580078	0.116943359	887.24	-52.32419922	-8.869654767	-91.86354424	-56
5097	0	0.059997559	-0.310241699	0.241821289	0.999999046	0.000717163	-0.000628471	-0.000305176	1.499938965	-7.75604248	6.045532227	0.03585816	-0.031423574	-0.015258792	0.010498047	0.942382813	0.111328125	887.3	-52.24526879	-8.941545051	-91.82713269	-56
