Counter	Temperature	VelInc_X	VelInc_Y	VelInc_Z	OriInc_w	OriInc_x	OriInc_y	OriInc_z	Acc_X	Acc_Y	Acc_Z	Gyr_X	Gyr_Y	Gyr_Z	Mag_X	Mag_Y	Mag_Z	Pressure	Roll	Pitch	Yaw	RSSI
9892	0	-0.029438019	-0.119430542	0.381049156	0.999999046	9.82285E-05	-3.62396E-05	9.05991E-05	-0.73595047	-2.98576355	9.526228905	0.004911423	-0.001811981	0.004529953	-0.177978516	-0.077636719	-0.995117188	885.22	-17.1169884	3.88320657	140.2644217	-86
9893	0	-0.029968262	-0.117553711	0.382568359	0.999999046	0.0001297	-8.67844E-05	6.86646E-05	-0.749206543	-2.938842773	9.564208984	0.006484985	-0.004339218	0.003433228	-0.177978516	-0.077636719	-0.995117188	885.22	-17.10427938	3.882467184	140.2442551	-86
9894	0	-0.02900219	-0.115680695	0.382358551	0.999999046	-0.000104904	-0.000141144	-1.90735E-05	-0.725054741	-2.892017365	9.558963776	-0.005245209	-0.00705719	-0.000953674	-0.177978516	-0.077636719	-0.995117188	885.22	-17.11886038	3.872789858	140.2157375	-86
9895	0	-0.02947998	-0.119445801	0.383789063	0.999999046	-0.000198364	-1.43051E-05	1.90735E-05	-0.736999512	-2.98614502	9.594726563	-0.009918213	-0.000715256	0.000953674	-0.177978516	-0.077636719	-0.995117188	885.22	-17.14419674	3.878281469	140.1866165	-86
9896	0	-0.02953434	-0.120389938	0.380872726	0.999999046	0.000151634	1.52588E-05	-3.05176E-05	-0.738358498	-3.009748459	9.521818161	0.007581711	0.000762939	-0.001525879	-0.177978516	-0.077636719	-0.995117188	885.22	-17.12997971	3.885339738	140.1519079	-86
9897	0	-0.02923584	-0.11706543	0.383605957	0.999999046	0.000232697	-0.000113487	0.000141144	-0.730895996	-2.926635742	9.590148926	0.011634827	-0.005674362	0.00705719	-0.177978516	-0.077636719	-0.995117188	885.22	-17.10481855	3.884073305	140.1409559	-86
9898	0	-0.028877258	-0.117246628	0.382141113	0.999999046	-2.28882E-05	-1.90735E-05	8.7738E-05	-0.721931458	-2.931165695	9.553527832	-0.001144409	-0.000953674	0.004386902	-0.177978516	-0.077636719	-0.995117188	885.22	-17.10951699	3.891313426	140.1209668	-86
9899	0	-0.029907227	-0.119506836	0.382263184	0.999999046	4.57764E-05	-4.1008E-05	-5.34058E-05	-0.747680664	-2.987670898	9.55657959	0.002288818	-0.0020504	-0.002670288	-0.177978516	-0.077636719	-0.995117188	885.22	-17.10741401	3.891409258	140.0865213	-85
9900	0	-0.029497147	-0.119170189	0.382641792	0.999999046	0.000260353	-6.48499E-05	1.81198E-05	-0.737428665	-2.979254723	9.566044807	0.013017655	-0.003242493	0.000905991	-0.177978516	-0.077636719	-0.995117188	885.22	-17.08017674	3.891300723	140.0616241	-85
9901	0	-0.029907227	-0.116821289	0.384765625	0.999999046	0.000106812	-1.43051E-05	0.0001297	-0.747680664	-2.920532227	9.619140625	0.005340576	-0.000715256	0.006484985	-0.177978516	-0.077636719	-0.995117188	885.22	-17.06972298	3.900494868	140.047684	-85
9902	0	-0.029499054	-0.118440628	0.384425163	0.999999046	9.53674E-06	-0.000101089	0	-0.737476349	-2.961015701	9.610629082	0.000476837	-0.005054474	0	-0.177978516	-0.077636719	-0.995117188	885.22	-17.07118085	3.895804515	140.0223159	-85
9903	0	-0.029296875	-0.118408203	0.383117676	0.999999046	6.10352E-05	-1.81198E-05	0.000175476	-0.732421875	-2.960205078	9.577941895	0.003051758	-0.000905991	0.008773804	-0.177978516	-0.077636719	-0.995117188	885.22	-17.06563	3.906086946	140.0136006	-85
9904	0	-0.02871418	-0.11780262	0.382217407	0.999999046	1.81198E-05	-7.82013E-05	-7.62939E-05	-0.7178545	-2.945065498	9.555435181	0.000905991	-0.003910065	-0.003814697	-0.177978516	-0.077636719	-0.995117188	885.22	-17.06673958	3.901272802	139.979325	-85
9905	0	-0.029418945	-0.118835449	0.382995605	0.999999046	7.24792E-05	-8.29697E-05	9.15527E-05	-0.735473633	-2.97088623	9.574890137	0.003623962	-0.004148483	0.004577637	-0.177978516	-0.077636719	-0.995117188	885.22	-17.06039158	3.901568501	139.9637184	-85
9906	0	-0.02980423	-0.118653297	0.382040977	0.999999046	0.000108719	-0.000123978	4.48227E-05	-0.745105743	-2.966332436	9.551024437	0.005435944	-0.006198883	0.002241135	-0.177978516	-0.077636719	-0.995117188	885.22	-17.05018878	3.89581167	139.9444713	-85
9907	0	-0.029785156	-0.116699219	0.383666992	0.999999046	6.10352E-05	-0.000132561	-1.14441E-05	-0.744628906	-2.917480469	9.591674805	0.003051758	-0.006628037	-0.000572205	-0.177978516	-0.077636719	-0.995117188	885.22	-17.04577661	3.887231884	139.9193062	-85
9908	0	-0.027666092	-0.118606567	0.384054184	0.999999046	-0.00014019	5.14984E-05	1.90735E-05	-0.691652298	-2.965164185	9.601354599	-0.007009506	0.002574921	0.000953674	-0.177978516	-0.077636719	-0.995117188	885.22	-17.0646358	3.899741267	139.8911397	-85
9909	0	-0.029052734	-0.11920166	0.384094238	0.999999046	-4.19617E-05	-0.000124931	0.000110626	-0.726318359	-2.980041504	9.602355957	-0.002098084	-0.006246567	0.005531311	-0.177978516	-0.077636719	-0.995117188	885.22	-17.07119133	3.895968731	139.8784962	-85
9910	0	-0.030264854	-0.118494987	0.381649971	0.999999046	0.000112534	-0.000150681	0.000109673	-0.756621361	-2.962374687	9.541249275	0.005626679	-0.007534027	0.005483627	-0.177978516	-0.077636719	-0.995117188	885.22	-17.0600277	3.889383771	139.8666051	-85
9911	0	-0.028564453	-0.116699219	0.382751465	0.999999046	9.53674E-05	-5.62668E-05	0.000148773	-0.714111328	-2.917480469	9.568786621	0.004768372	-0.002813339	0.00743866	-0.177978516	-0.077636719	-0.995117188	885.22	-17.05069155	3.894408606	139.8560433	-85
9912	0	-0.028739929	-0.118632317	0.382838249	0.999999046	-0.00023365	-4.95911E-05	1.90735E-05	-0.71849823	-2.965807915	9.57095623	-0.01168251	-0.002479553	0.000953674	-0.177978516	-0.077636719	-0.995117188	885.22	-17.08007604	3.895764318	139.8302202	-85
9913	0	-0.028930664	-0.120056152	0.382385254	0.999999046	0.00012207	-6.38962E-05	6.48499E-05	-0.723266602	-3.001403809	9.559631348	0.006103516	-0.003194809	0.003242493	-0.177978516	-0.077636719	-0.995117188	885.22	-17.068422	3.897062756	139.8102649	-85
9914	0	-0.028835297	-0.117030144	0.383027077	0.999999046	0.000276566	-5.53131E-05	-9.53674E-07	-0.720882416	-2.925753593	9.575676918	0.013828278	-0.002765656	-4.76837E-05	-0.177978516	-0.077636719	-0.995117188	885.22	-17.03951717	3.897056923	139.7837747	-85
9915	0	-0.028320313	-0.117126465	0.382568359	0.999999046	8.01086E-05	-9.82285E-05	0.000133514	-0.708007813	-2.928161621	9.564208984	0.004005432	-0.004911423	0.00667572	-0.177978516	-0.077636719	-0.995117188	885.22	-17.03198994	3.896809008	139.7735168	-85
9916	0	-0.028459549	-0.118888855	0.383446693	0.999999046	-0.000161171	-6.48499E-05	6.10352E-05	-0.711488724	-2.972221375	9.586167336	-0.008058548	-0.003242493	0.003051758	-0.177978516	-0.077636719	-0.995117188	885.22	-17.0527727	3.897731687	139.7535314	-85
9917	0	-0.029052734	-0.11907959	0.382080078	0.999999046	0.000179291	-0.000102043	6.48499E-05	-0.726318359	-2.976989746	9.552001953	0.008964539	-0.005102158	0.003242493	-0.177978516	-0.077636719	-0.995117188	885.22	-17.0344909	3.894690195	139.735634	-85
9918	0	-0.029050827	-0.116924286	0.383653641	0.999999046	0.000123978	-0.000175476	6.10352E-05	-0.726270676	-2.923107147	9.591341019	0.006198883	-0.008773804	0.003051758	-0.177978516	-0.077636719	-0.995117188	885.22	-17.02234881	3.883455214	139.7197732	-85
9919	0	-0.028991699	-0.117553711	0.383422852	0.999999046	-7.62939E-05	-7.53403E-05	1.90735E-05	-0.72479248	-2.938842773	9.585571289	-0.003814697	-0.003767014	0.000953674	-0.177978516	-0.077636719	-0.995117188	885.22	-17.03367778	3.881765878	139.695597	-85
9920	0	-0.028511047	-0.118832588	0.383408546	0.999999046	9.53674E-07	-6.67572E-05	3.71933E-05	-0.712776184	-2.970814705	9.585213661	4.76837E-05	-0.00333786	0.001859665	-0.177978516	-0.077636719	-0.995117188	885.22	-17.03607946	3.881582411	139.6730643	-85
9921	0	-0.028259277	-0.118041992	0.383483887	0.999999046	5.34058E-05	-0.000113487	0.000171661	-0.706481934	-2.951049805	9.587097168	0.002670288	-0.005674362	0.008583069	-0.177978516	-0.077636719	-0.995117188	885.22	-17.03136257	3.880739748	139.6667252	-85
9922	0	-0.028456688	-0.118174553	0.382708549	0.999999046	-3.24249E-05	-7.62939E-05	3.8147E-05	-0.711417198	-2.954363823	9.567713737	-0.001621246	-0.003814697	0.001907349	-0.177978516	-0.077636719	-0.995117188	885.22	-17.03757605	3.879451375	139.6442732	-85
9923	0	-0.030273438	-0.118164063	0.382202148	0.999999046	1.90735E-05	-0.000185966	4.57764E-05	-0.756835938	-2.954101563	9.555053711	0.000953674	-0.009298325	0.002288818	-0.177978516	-0.077636719	-0.995117188	885.22	-17.03760386	3.866458893	139.625966	-87
9924	0	-0.028981209	-0.117109299	0.384414673	0.999999046	4.86374E-05	-5.14984E-05	-2.00272E-05	-0.72453022	-2.927732468	9.610366821	0.00243187	-0.002574921	-0.001001358	-0.177978516	-0.077636719	-0.995117188	885.22	-17.03497352	3.865977074	139.5961389	-87
9925	0	-0.028137207	-0.118469238	0.382629395	0.999999046	-0.000114441	-9.82285E-05	1.14441E-05	-0.703430176	-2.961730957	9.565734863	-0.005722046	-0.004911423	0.000572205	-0.177978516	-0.077636719	-0.995117188	885.22	-17.05072531	3.861381024	139.5708204	-85
9926	0	-0.030200958	-0.11800766	0.38248539	0.999999046	4.00543E-05	-4.57764E-05	-2.76566E-05	-0.755023956	-2.950191498	9.562134743	0.002002716	-0.002288818	-0.001382828	-0.177978516	-0.077636719	-0.995117188	885.22	-17.04918651	3.861274807	139.5396733	-85
9927	0	-0.029052734	-0.117492676	0.384094238	0.999999046	0.000183105	-0.000105858	9.53674E-05	-0.726318359	-2.937316895	9.602355957	0.009155274	-0.005292893	0.004768372	-0.177978516	-0.077636719	-0.995117188	885.22	-17.03016593	3.858712829	139.5244697	-85
9928	0	-0.028261185	-0.115028381	0.382188797	0.999999046	-0.000126839	-8.39233E-05	-7.62939E-06	-0.706529617	-2.875709534	9.554719925	-0.006341934	-0.004196167	-0.00038147	-0.177978516	-0.077636719	-0.995117188	885.22	-17.04734787	3.85505834	139.4967346	-85
9929	0	-0.028930664	-0.119750977	0.381835938	0.999999046	2.67029E-05	-0.000109673	-4.19617E-05	-0.723266602	-2.993774414	9.545898438	0.001335144	-0.005483627	-0.002098084	-0.177978516	-0.077636719	-0.995117188	885.22	-17.0472353	3.847424752	139.4660811	-85
9930	0	-0.028958321	-0.118085861	0.383008003	0.999999046	0.00012207	-0.000102997	-9.53674E-07	-0.723958015	-2.95214653	9.575200081	0.006103516	-0.005149841	-4.76837E-05	-0.177978516	-0.077636719	-0.995117188	885.22	-17.03591061	3.841899003	139.4400069	-85
9931	0	-0.028503418	-0.116516113	0.383361816	0.999999046	0.000141144	-9.05991E-05	8.39233E-05	-0.712585449	-2.912902832	9.58404541	0.00705719	-0.004529953	0.004196167	-0.177978516	-0.077636719	-0.995117188	885.22	-17.02172986	3.840558891	139.4231682	-85
9932	0	-0.028574944	-0.116281509	0.383093834	0.999999046	-2.19345E-05	-6.86646E-05	9.15527E-05	-0.714373589	-2.907037735	9.577345848	-0.001096725	-0.003433228	0.004577637	-0.177978516	-0.077636719	-0.995117188	885.22	-17.02615644	3.841861018	139.4062658	-85
9933	0	-0.02923584	-0.118713379	0.382263184	0.999999046	6.86646E-05	-5.24521E-05	-1.90735E-05	-0.730895996	-2.967834473	9.55657959	0.003433228	-0.002622604	-0.000953674	-0.177978516	-0.077636719	-0.995117188	885.22	-17.02110842	3.841245617	139.3769603	-85
9934	0	-0.029068947	-0.117564201	0.382526398	0.999999046	0.000152588	-0.000106812	6.77109E-05	-0.726723671	-2.939105034	9.563159943	0.007629395	-0.005340576	0.003385544	-0.177978516	-0.077636719	-0.995117188	885.22	-17.00567988	3.837594189	139.3593327	-85
9935	0	-0.029174805	-0.1171875	0.383728027	0.999999046	-8.7738E-05	-9.05991E-05	3.8147E-06	-0.729370117	-2.9296875	9.593200684	-0.004386902	-0.004529953	0.000190735	-0.177978516	-0.077636719	-0.995117188	885.22	-17.01826449	3.833588409	139.3337453	-85
9936	0	-0.028617859	-0.118231773	0.383345604	0.999999046	-0.000105858	-5.72205E-06	8.7738E-05	-0.715446472	-2.955794334	9.583640099	-0.005292892	-0.000286102	0.004386902	-0.177978516	-0.077636719	-0.995117188	885.22	-17.03252065	3.841681428	139.3142748	-85
9937	0	-0.028869629	-0.118103027	0.383300781	0.999999046	6.48499E-05	-0.000102043	4.57764E-05	-0.721740723	-2.952575684	9.582519531	0.003242493	-0.005102158	0.002288818	-0.177978516	-0.077636719	-0.995117188	885.22	-17.02731541	3.837807872	139.2934962	-85
9938	0	-0.028557777	-0.117807388	0.384237289	0.999999046	8.01086E-05	-8.96454E-05	6.00815E-05	-0.713944435	-2.945184708	9.605932236	0.004005432	-0.004482269	0.003004074	-0.177978516	-0.077636719	-0.995117188	885.22	-17.02026627	3.835751175	139.274009	-85
9939	0	-0.029296875	-0.117675781	0.383422852	0.999999046	4.57764E-05	9.53674E-07	0.000110626	-0.732421875	-2.941894531	9.585571289	0.002288818	4.76837E-05	0.005531311	-0.177978516	-0.077636719	-0.995117188	885.22	-17.01697387	3.84533685	139.2572976	-85
9940	0	-0.029689789	-0.116597176	0.384287834	0.999999046	2.57492E-05	-8.58307E-05	4.19617E-05	-0.74224472	-2.91492939	9.607195854	0.00128746	-0.004291534	0.002098083	-0.177978516	-0.077636719	-0.995117188	885.22	-17.01621309	3.84314399	139.2359354	-85
9941	0	-0.027832031	-0.118225098	0.385314941	0.999999046	-0.000137329	0.000134468	0.000141144	-0.695800781	-2.955627441	9.632873535	-0.006866455	0.006723404	0.00705719	-0.177978516	-0.077636719	-0.995117188	885.22	-17.03389985	3.868351351	139.2181085	-85
9942	0	-0.029372215	-0.118383408	0.38179493	0.999999046	-7.05719E-05	3.24249E-05	0.000124931	-0.734305382	-2.95958519	9.544873238	-0.003528595	0.001621246	0.006246567	-0.177978516	-0.077636719	-0.995117188	885.22	-17.0438723	3.88185152	139.2018819	-85
9943	0	-0.029052734	-0.117797852	0.382202148	0.999999046	9.53674E-05	-0.000136375	5.34058E-05	-0.726318359	-2.944946289	9.555053711	0.004768372	-0.006818771	0.002670288	-0.177978516	-0.077636719	-0.995117188	885.22	-17.03498363	3.874450858	139.1835103	-85
9944	0	-0.029082298	-0.116196632	0.382231712	0.999999046	-6.67572E-06	-5.72205E-05	9.91821E-05	-0.727057457	-2.90491581	9.555792809	-0.000333786	-0.002861023	0.004959106	-0.177978516	-0.077636719	-0.995117188	885.22	-17.0375609	3.877259748	139.1674148	-85
9945	0	-0.028930664	-0.118713379	0.3828125	0.999999046	-0.000183105	1.23978E-05	-5.72205E-05	-0.723266602	-2.967834473	9.5703125	-0.009155273	0.000619888	-0.002861023	-0.177978516	-0.077636719	-0.995117188	885.22	-17.06172424	3.882428849	139.1314732	-85
9946	0	-0.029170036	-0.119589806	0.382584572	0.999999046	0.0001297	-0.000106812	2.19345E-05	-0.729250908	-2.98974514	9.564614296	0.006484985	-0.005340576	0.001096725	-0.177978516	-0.077636719	-0.995117188	885.22	-17.04926583	3.877195209	139.1085161	-85
9947	0	-0.028686523	-0.116821289	0.384277344	0.999999046	7.24792E-05	-5.24521E-05	7.62939E-05	-0.717163086	-2.920532227	9.606933594	0.003623962	-0.002622604	0.003814697	-0.177978516	-0.077636719	-0.995117188	885.22	-17.0430098	3.879716112	139.089915	-85
9948	0	-0.029090881	-0.116945267	0.382283211	0.999999046	-0.000142097	-0.000125885	6.10352E-05	-0.727272034	-2.923631668	9.557080269	-0.007104874	-0.006294251	0.003051758	-0.177978516	-0.077636719	-0.995117188	885.22	-17.06125502	3.873678378	139.0713669	-85
9949	0	-0.028930664	-0.118103027	0.383666992	0.999999046	-0.0001297	-2.86102E-06	-4.95911E-05	-0.723266602	-2.952575684	9.591674805	-0.006484985	-0.000143051	-0.002479553	-0.177978516	-0.077636719	-0.995117188	885.22	-17.07917711	3.87738346	139.036344	-86
9950	0	-0.029526711	-0.119487762	0.383635521	0.999999046	0.000106812	-7.05719E-05	7.15256E-05	-0.738167763	-2.987194061	9.590888023	0.005340576	-0.003528595	0.003576279	-0.177978516	-0.077636719	-0.995117188	885.22	-17.06900056	3.87776114	139.0171881	-85
9951	0	-0.029174805	-0.11706543	0.383850098	0.999999046	-5.34058E-05	-3.33786E-05	2.67029E-05	-0.729370117	-2.926635742	9.596252441	-0.002670288	-0.00166893	0.001335144	-0.177978516	-0.077636719	-0.995117188	885.22	-17.07753998	3.880703618	138.9917617	-86
9952	0	-0.029521942	-0.117593765	0.382007599	0.999999046	-0.000126839	-7.62939E-05	2.86102E-06	-0.738048553	-2.939844131	9.550189972	-0.006341934	-0.003814697	0.000143051	-0.177978516	-0.077636719	-0.995117188	885.22	-17.0945643	3.878161976	138.9647032	-86
9953	0	-0.029174805	-0.11920166	0.382019043	0.999999046	-1.14441E-05	1.62125E-05	0.000118256	-0.729370117	-2.980041504	9.550476074	-0.000572205	0.000810623	0.005912781	-0.177978516	-0.077636719	-0.995117188	885.22	-17.09778145	3.889640807	138.9473334	-86
9954	0	-0.028299332	-0.116885185	0.382564545	0.999999046	-6.67572E-05	-7.24792E-05	6.77109E-05	-0.707483292	-2.922129631	9.564113617	-0.00333786	-0.003623962	0.003385544	-0.177978516	-0.077636719	-0.995117188	885.22	-17.10744938	3.889656543	138.9271241	-86
9955	0	-0.028991699	-0.118225098	0.382141113	0.999999046	-4.19617E-05	-8.29697E-05	0.000125885	-0.72479248	-2.955627441	9.553527832	-0.002098084	-0.004148483	0.006294251	-0.177978516	-0.077636719	-0.995117188	885.22	-17.11382707	3.89047522	138.9133729	-86
9956	0	-0.029872894	-0.117761612	0.382562637	1	3.62396E-05	-5.05447E-05	2.19345E-05	-0.746822357	-2.944040298	9.564065933	0.001811981	-0.002527237	0.001096725	-0.177978516	-0.077636719	-0.995117188	885.22	-17.11206848	3.891374202	138.8873053	-87
9957	0	-0.028747559	-0.117553711	0.383422852	0.999999046	-0.000152588	-6.77109E-05	1.90735E-05	-0.718688965	-2.938842773	9.585571289	-0.007629395	-0.003385544	0.000953674	-0.177978516	-0.077636719	-0.995117188	885.22	-17.13188643	3.890268737	138.8609982	-87
9958	0	-0.028272629	-0.119623184	0.383267403	0.999999046	-2.67029E-05	-6.67572E-05	3.71933E-05	-0.70681572	-2.990579605	9.581685066	-0.001335144	-0.00333786	0.001859665	-0.177978516	-0.077636719	-0.995117188	885.22	-17.13719894	3.889827232	138.8365587	-88
9959	0	-0.030700684	-0.118896484	0.383361816	0.999999046	0.000114441	-6.00815E-05	4.95911E-05	-0.76751709	-2.972412109	9.58404541	0.005722046	-0.003004074	0.002479553	-0.177978516	-0.077636719	-0.995117188	885.22	-17.12627172	3.890609223	138.813653	-87
9960	0	-0.028713226	-0.116304398	0.383208275	0.999999046	7.72476E-05	-7.24792E-05	0.0001297	-0.717830658	-2.90760994	9.580206871	0.003862381	-0.003623962	0.006484985	-0.177978516	-0.077636719	-0.995117188	885.22	-17.11887327	3.892710292	138.8001257	-87
9961	0	-0.028991699	-0.116516113	0.3828125	0.999999046	-0.00025177	-1.43051E-05	0.000137329	-0.72479248	-2.912902832	9.5703125	-0.012588501	-0.000715256	0.006866455	-0.177978516	-0.077636719	-0.995117188	885.22	-17.14916879	3.901429182	138.7847049	-87
9962	0	-0.029379845	-0.120911598	0.380982399	0.999999046	-0.000101089	-1.71661E-05	5.24521E-05	-0.734496117	-3.022789955	9.524559975	-0.005054474	-0.000858307	0.002622604	-0.177978516	-0.077636719	-0.995117188	885.22	-17.16297121	3.906976037	138.7598777	-86
9963	0	-0.029541016	-0.118408203	0.382629395	0.999999046	0.000225067	-7.9155E-05	7.62939E-05	-0.738525391	-2.960205078	9.565734863	0.011253357	-0.003957748	0.003814697	-0.177978516	-0.077636719	-0.995117188	885.22	-17.13906756	3.906552198	138.7404726	-86
9964	0	-0.028216362	-0.116156578	0.383173943	0.999999046	-6.19888E-05	-0.000110626	9.91821E-05	-0.70540905	-2.903914452	9.579348564	-0.003099442	-0.005531311	0.004959106	-0.177978516	-0.077636719	-0.995117188	885.22	-17.14769773	3.90339878	138.7242495	-86
9965	0	-0.029418945	-0.117614746	0.382629395	0.999999046	-8.01086E-05	-9.82285E-05	0.000144958	-0.735473633	-2.940368652	9.565734863	-0.004005432	-0.004911423	0.007247925	-0.177978516	-0.077636719	-0.995117188	885.22	-17.15805254	3.903158167	138.7121822	-86
9966	0	-0.029438972	-0.119438171	0.383470535	0.999999046	2.47955E-05	-3.24249E-05	4.48227E-05	-0.735974312	-2.985954285	9.586763382	0.001239777	-0.001621246	0.002241135	-0.177978516	-0.077636719	-0.995117188	885.22	-17.15732038	3.906742524	138.6871084	-86
9967	0	-0.029724121	-0.117797852	0.381286621	0.999999046	0.000267029	-0.00014782	0.000125885	-0.743103027	-2.944946289	9.532165527	0.013351441	-0.007390976	0.006294251	-0.177978516	-0.077636719	-0.995117188	885.22	-17.12794413	3.900456445	138.6754193	-86
9968	0	-0.029579163	-0.116609573	0.383127213	0.999999046	-3.91006E-05	-0.000125885	6.10352E-05	-0.739479065	-2.915239334	9.578180313	-0.001955032	-0.006294251	0.003051758	-0.177978516	-0.077636719	-0.995117188	885.22	-17.13409572	3.894396757	138.6555361	-86
9969	0	-0.028991699	-0.118713379	0.382263184	0.999999046	-6.10352E-05	-3.71933E-05	3.8147E-06	-0.72479248	-2.967834473	9.55657959	-0.003051758	-0.001859665	0.000190735	-0.177978516	-0.077636719	-0.995117188	885.22	-17.14341966	3.896105128	138.626311	-86
9970	0	-0.029269218	-0.118638039	0.383105278	0.999999046	6.86646E-05	-5.72205E-06	0.000124931	-0.731730461	-2.965950966	9.57763195	0.003433228	-0.000286102	0.006246567	-0.177978516	-0.077636719	-0.995117188	885.22	-17.13705728	3.905349017	138.609692	-86
9971	0	-0.028686523	-0.117492676	0.383178711	0.999999046	-7.62939E-06	-0.00014019	-2.67029E-05	-0.717163086	-2.937316895	9.579467773	-0.00038147	-0.007009506	-0.001335144	-0.177978516	-0.077636719	-0.995117188	885.22	-17.14021344	3.894714836	138.5807814	-86
9972	0	-0.029061317	-0.118171692	0.3820858	1	-2.28882E-05	-2.00272E-05	4.95911E-05	-0.726532936	-2.954292297	9.552145004	-0.001144409	-0.001001358	0.002479553	-0.177978516	-0.077636719	-0.995117188	885.22	-17.14482769	3.899808789	138.5562623	-86
9973	0	-0.030273438	-0.116455078	0.383605957	0.999999046	7.62939E-06	-0.000121117	0.000133514	-0.756835938	-2.911376953	9.590148926	0.00038147	-0.006055832	0.00667572	-0.177978516	-0.077636719	-0.995117188	885.22	-17.1449804	3.896717972	138.5441625	-86
9974	0	-0.028380394	-0.118333817	0.38361454	0.999999046	-0.000200272	-8.39233E-05	-1.52588E-05	-0.70950985	-2.958345413	9.590363503	-0.01001358	-0.004196167	-0.000762939	-0.177978516	-0.077636719	-0.995117188	885.22	-17.17014159	3.892624383	138.5138112	-86
9975	0	-0.029418945	-0.11920166	0.381713867	0.999999046	9.53674E-05	-3.71933E-05	-4.95911E-05	-0.735473633	-2.980041504	9.54284668	0.004768372	-0.001859665	-0.002479553	-0.177978516	-0.077636719	-0.995117188	885.22	-17.16183802	3.892497906	138.478639	-86
9976	0	-0.0303545	-0.119071007	0.383020401	0.999999046	0.000123024	-0.000141144	9.53674E-05	-0.758862495	-2.976775169	9.575510025	0.006151199	-0.00705719	0.004768372	-0.177978516	-0.077636719	-0.995117188	885.22	-17.149072	3.885948067	138.4630342	-86
9977	0	-0.029052734	-0.116027832	0.381835938	0.999999046	-6.86646E-05	-7.53403E-05	0.000164032	-0.726318359	-2.900695801	9.545898438	-0.003433228	-0.003767014	0.008201599	-0.177978516	-0.077636719	-0.995117188	885.22	-17.15781223	3.888921204	138.4523991	-86
9978	0	-0.028850555	-0.118146896	0.384081841	0.999999046	-0.000200272	-5.72205E-05	-9.91821E-05	-0.721263885	-2.953672409	9.602046013	-0.01001358	-0.002861023	-0.004959106	-0.177978516	-0.077636719	-0.995117188	885.22	-17.18360326	3.88495356	138.4117737	-86
9979	0	-0.02947998	-0.12097168	0.383422852	0.999999046	-1.52588E-05	-8.29697E-05	6.10352E-05	-0.736999512	-3.024291992	9.585571289	-0.000762939	-0.004148483	0.003051758	-0.177978516	-0.077636719	-0.995117188	885.22	-17.18705012	3.883597447	138.3895079	-86
9980	0	-0.028942108	-0.11786747	0.382142067	0.999999046	0.000388145	-0.000249863	9.05991E-05	-0.723552704	-2.946686745	9.553551674	0.019407273	-0.012493134	0.004529953	-0.177978516	-0.077636719	-0.995117188	885.22	-17.14363857	3.864959711	138.3768393	-86
9981	0	-0.028442383	-0.116394043	0.383911133	0.999999046	2.67029E-05	-4.48227E-05	0.000125885	-0.71105957	-2.909851074	9.59777832	0.001335144	-0.002241135	0.006294251	-0.177978516	-0.077636719	-0.995117188	885.22	-17.14174331	3.86993035	138.361213	-86
9982	0	-0.028986931	-0.118929863	0.382760048	0.999999046	-5.53131E-05	-2.67029E-05	1.52588E-05	-0.724673271	-2.973246574	9.569001198	-0.002765656	-0.001335144	0.000762939	-0.177978516	-0.077636719	-0.995117188	885.22	-17.15014132	3.873144183	138.332817	-86
9983	0	-0.02923584	-0.119018555	0.383117676	0.999999046	0.000270844	-0.00014782	0.000148773	-0.730895996	-2.975463867	9.577941895	0.013542176	-0.007390976	0.00743866	-0.177978516	-0.077636719	-0.995117188	885.22	-17.11992609	3.867610791	138.3237386	-86
9984	0	-0.029278755	-0.116483688	0.38270092	0.999999046	0.000220299	-0.000139236	2.28882E-05	-0.73196888	-2.912092209	9.567523003	0.011014938	-0.006961823	0.001144409	-0.177978516	-0.077636719	-0.995117188	885.22	-17.09637565	3.858782673	138.3010766	-86
9985	0	-0.028991699	-0.117370605	0.383544922	0.999999046	-0.000118256	-2.86102E-06	-4.95911E-05	-0.72479248	-2.934265137	9.588623047	-0.005912781	-0.000143051	-0.002479553	-0.177978516	-0.077636719	-0.995117188	885.22	-17.11243037	3.862446716	138.2657392	-86
9986	0	-0.028794289	-0.119418144	0.383638382	0.999999046	1.90735E-05	-5.53131E-05	0.000113487	-0.719857216	-2.985453606	9.590959549	0.000953674	-0.002765656	0.005674362	-0.177978516	-0.077636719	-0.995117188	885.22	-17.11148009	3.86584811	138.2501041	-86
9987	0	-0.029296875	-0.118347168	0.381835938	0.999999046	1.90735E-05	-6.67572E-06	7.62939E-05	-0.732421875	-2.958679199	9.545898438	0.000953674	-0.000333786	0.003814697	-0.177978516	-0.077636719	-0.995117188	885.22	-17.11094546	3.873339022	138.2289693	-86
9988	0	-0.028393745	-0.117840767	0.380742073	0.999999046	-3.14713E-05	-8.7738E-05	2.67029E-05	-0.709843636	-2.946019173	9.518551826	-0.001573563	-0.004386902	0.001335144	-0.177978516	-0.077636719	-0.995117188	885.22	-17.11640724	3.870251882	138.20496	-86
9989	0	-0.028869629	-0.118530273	0.382141113	0.999999046	0.000102997	-0.000144005	0.000118256	-0.721740723	-2.963256836	9.553527832	0.005149841	-0.007200241	0.005912781	-0.177978516	-0.077636719	-0.995117188	885.22	-17.10568455	3.864082245	138.1929218	-86
9990	0	-0.029824257	-0.116857529	0.38302803	0.999999046	6.67572E-05	-8.2016E-05	3.71933E-05	-0.745606422	-2.921438217	9.57570076	0.00333786	-0.0041008	0.001859665	-0.177978516	-0.077636719	-0.995117188	885.22	-17.09979477	3.862010812	138.1700727	-86
9991	0	-0.028198242	-0.11730957	0.383300781	0.999999046	-0.000102997	2.38419E-05	5.72205E-05	-0.704956055	-2.932739258	9.582519531	-0.005149841	0.001192093	0.002861023	-0.177978516	-0.077636719	-0.995117188	885.22	-17.1134127	3.872165789	138.1457897	-86
9992	0	-0.029084206	-0.118606567	0.382663727	0.999999046	-2.19345E-05	3.43323E-05	-3.8147E-05	-0.727105141	-2.965164185	9.56659317	-0.001096725	0.001716614	-0.001907349	-0.177978516	-0.077636719	-0.995117188	885.22	-17.1185044	3.880253809	138.1110144	-86
9993	0	-0.029785156	-0.119018555	0.382080078	0.999999046	0.000125885	-9.05991E-05	7.62939E-05	-0.744628906	-2.975463867	9.552001953	0.006294251	-0.004529953	0.003814697	-0.177978516	-0.077636719	-0.995117188	885.22	-17.10557822	3.878554824	138.0933263	-86
9994	0	-0.029001236	-0.115805626	0.382236481	0.999999046	0.000133514	-6.86646E-05	0.000212669	-0.725030899	-2.895140648	9.555912018	0.00667572	-0.003433228	0.010633469	-0.177978516	-0.077636719	-0.995117188	885.22	-17.09071437	3.883850269	138.0901617	-86
9995	0	-0.028869629	-0.117736816	0.382995605	0.999999046	-0.000267029	-9.44138E-05	1.14441E-05	-0.721740723	-2.94342041	9.574890137	-0.013351441	-0.004720688	0.000572205	-0.177978516	-0.077636719	-0.995117188	885.22	-17.12317833	3.879530004	138.0647961	-86
9996	0	-0.028800011	-0.119894028	0.38177681	0.999999046	1.04904E-05	-0.000112534	1.43051E-05	-0.720000267	-2.997350693	9.544420242	0.000524521	-0.005626678	0.000715256	-0.177978516	-0.077636719	-0.995117188	885.22	-17.12388074	3.873305964	138.040267	-86
9997	0	-0.028869629	-0.116638184	0.381225586	0.999999046	0.00030899	-0.000178337	-1.14441E-05	-0.721740723	-2.91595459	9.530639648	0.015449524	-0.008916855	-0.000572205	-0.177978516	-0.077636719	-0.995117188	885.22	-17.09036629	3.859004924	138.0158656	-86
9998	0	-0.028547287	-0.117196083	0.383321762	0.999999046	5.34058E-05	-0.000133514	3.05176E-05	-0.713682175	-2.929902077	9.583044052	0.002670288	-0.00667572	0.001525879	-0.177978516	-0.077636719	-0.995117188	885.22	-17.08589017	3.85100617	137.9945208	-86
9999	0	-0.029418945	-0.118225098	0.38269043	0.999999046	-3.8147E-05	-1.81198E-05	4.57764E-05	-0.735473633	-2.955627441	9.567260742	-0.001907349	-0.000905991	0.002288818	-0.177978516	-0.077636719	-0.995117188	885.22	-17.09207545	3.856187258	137.9709879	-86
10000	0	-0.029110909	-0.118923187	0.383109093	0.999999046	7.9155E-05	-5.53131E-05	1.81198E-05	-0.727772713	-2.973079681	9.577727318	0.003957748	-0.002765656	0.000905991	-0.177978516	-0.077636719	-0.995117188	885.22	-17.08498464	3.856369845	137.9459948	-86
10001	0	-0.028259277	-0.116149902	0.38269043	0.999999046	0.000167847	-0.000124931	3.8147E-06	-0.706481934	-2.903747559	9.567260742	0.008392334	-0.006246567	0.000190735	-0.177978516	-0.077636719	-0.995117188	885.22	-17.06759644	3.84841336	137.9221811	-86
10002	0	-0.028713226	-0.116693497	0.382614136	0.999999046	-7.05719E-05	-0.000108719	-3.05176E-05	-0.717830658	-2.917337418	9.565353394	-0.003528595	-0.005435944	-0.001525879	-0.177978516	-0.077636719	-0.995117188	885.22	-17.07777325	3.841071455	137.8937261	-86
10003	0	-0.028564453	-0.117980957	0.381713867	0.999999046	1.52588E-05	-6.67572E-06	5.34058E-05	-0.714111328	-2.949523926	9.54284668	0.000762939	-0.000333786	0.002670288	-0.177978516	-0.077636719	-0.995117188	885.22	-17.07775584	3.84772113	137.8712854	-86
10004	0	-0.028449059	-0.117539406	0.382816315	0.999999046	9.44138E-05	-2.47955E-05	0.000136375	-0.711226463	-2.938485146	9.570407867	0.004720688	-0.001239777	0.006818771	-0.177978516	-0.077636719	-0.995117188	885.22	-17.06800466	3.855157042	137.8589378	-86
10005	0	-0.02911377	-0.117248535	0.38269043	0.999999046	2.67029E-05	-6.00815E-05	0.00012207	-0.727844238	-2.931213379	9.567260742	0.001335144	-0.003004074	0.006103516	-0.177978516	-0.077636719	-0.995117188	885.22	-17.06601829	3.858257487	137.8462408	-86
10006	0	-0.029034615	-0.117038727	0.383554459	0.999999046	6.67572E-05	-8.96454E-05	5.24521E-05	-0.725865364	-2.92596817	9.588861465	0.00333786	-0.004482269	0.002622604	-0.177978516	-0.077636719	-0.995117188	885.22	-17.0598479	3.855781539	137.8270241	-86
10007	0	-0.029052734	-0.117797852	0.385070801	1	-1.04904E-05	-1.90735E-05	7.62939E-06	-0.726318359	-2.944946289	9.62677002	-0.000524521	-0.000953674	0.00038147	-0.177978516	-0.077636719	-0.995117188	885.22	-17.06299749	3.859529214	137.8006444	-86
10008	0	-0.027514458	-0.118416786	0.384641647	0.999999046	-0.00014782	7.43866E-05	0.000141144	-0.687861443	-2.960419655	9.616041183	-0.007390976	0.00371933	0.00705719	-0.177978516	-0.077636719	-0.995117188	885.22	-17.08112306	3.877925938	137.7856394	-86
10009	0	-0.028930664	-0.117980957	0.382263184	0.999999046	1.90735E-05	-4.1008E-05	8.01086E-05	-0.723266602	-2.949523926	9.55657959	0.000953674	-0.0020504	0.004005432	-0.177978516	-0.077636719	-0.995117188	885.22	-17.08033377	3.881625463	137.7679177	-86
10010	0	-0.029588699	-0.117412567	0.383307457	0.999999046	0.000139236	-0.000104904	0.000170708	-0.739717484	-2.935314178	9.582686424	0.006961823	-0.005245209	0.008535385	-0.177978516	-0.077636719	-0.995117188	885.22	-17.06493133	3.881399515	137.7625014	-86
10011	0	-0.028686523	-0.115478516	0.382385254	0.999999046	-0.000228882	3.91006E-05	0.000167847	-0.717163086	-2.886962891	9.559631348	-0.011444092	0.001955032	0.008392334	-0.177978516	-0.077636719	-0.995117188	885.22	-17.09196464	3.896836604	137.7513802	-86
10012	0	-0.029061317	-0.119367599	0.382511139	0.999999046	-0.00020504	1.90735E-05	4.86374E-05	-0.726532936	-2.984189987	9.562778473	-0.010251999	0.000953674	0.00243187	-0.177978516	-0.077636719	-0.995117188	885.22	-17.11719271	3.906059957	137.7274257	-86
10013	0	-0.029907227	-0.118713379	0.383972168	0.999999046	0.000164032	-3.33786E-05	9.91821E-05	-0.747680664	-2.967834473	9.599304199	0.008201599	-0.00166893	0.004959106	-0.177978516	-0.077636719	-0.995117188	885.22	-17.09964682	3.911271977	137.7113989	-85
10014	0	-0.028256416	-0.116202354	0.383522987	0.999999046	0.000131607	-7.82013E-05	5.34058E-05	-0.706410408	-2.905058861	9.588074684	0.006580353	-0.003910065	0.002670288	-0.177978516	-0.077636719	-0.995117188	885.22	-17.08596411	3.90997963	137.692243	-86
10015	0	-0.028564453	-0.117370605	0.383239746	0.999999046	-9.15527E-05	-9.44138E-05	6.10352E-05	-0.714111328	-2.934265137	9.580993652	-0.004577637	-0.004720688	0.003051758	-0.177978516	-0.077636719	-0.995117188	885.22	-17.09773669	3.907133195	137.6740342	-86
10016	0	-0.029543877	-0.118902206	0.382735252	0.999999046	-6.96182E-05	-3.43323E-05	-1.14441E-05	-0.738596916	-2.972555161	9.56838131	-0.003480911	-0.001716614	-0.000572205	-0.177978516	-0.077636719	-0.995117188	885.22	-17.10773161	3.908441085	137.6457449	-86
10017	0	-0.02947998	-0.116882324	0.383056641	0.999999046	0.000213623	-3.33786E-05	9.91821E-05	-0.736999512	-2.922058105	9.576416016	0.010681152	-0.00166893	0.004959106	-0.177978516	-0.077636719	-0.995117188	885.22	-17.08438998	3.913594347	137.6303381	-86
10018	0	-0.028744698	-0.11537075	0.383778572	0.999999046	-7.43866E-05	-5.34058E-05	0.000125885	-0.718617439	-2.884268761	9.594464302	-0.00371933	-0.002670288	0.006294251	-0.177978516	-0.077636719	-0.995117188	885.22	-17.09367842	3.917425402	137.6182481	-86
10019	0	-0.028869629	-0.118225098	0.38293457	0.999999046	-8.01086E-05	-1.43051E-05	3.8147E-05	-0.721740723	-2.955627441	9.573364258	-0.004005432	-0.000715256	0.001907349	-0.177978516	-0.077636719	-0.995117188	885.22	-17.1043952	3.922562494	137.5951002	-85
10020	0	-0.028928757	-0.117980003	0.38267231	0.999999046	5.24521E-05	-8.58307E-05	3.71933E-05	-0.723218918	-2.949500084	9.566807747	0.002622604	-0.004291534	0.001859665	-0.177978516	-0.077636719	-0.995117188	885.22	-17.09977526	3.919814888	137.5743635	-85
10021	0	-0.028686523	-0.117431641	0.383605957	0.999999046	-7.62939E-06	-9.05991E-05	0.000118256	-0.717163086	-2.935791016	9.590148926	-0.00038147	-0.004529953	0.005912781	-0.177978516	-0.077636719	-0.995117188	885.22	-17.10139324	3.919244638	137.5625009	-85
10022	0	-0.028705597	-0.118286133	0.383364677	0.999999046	3.8147E-06	-2.47955E-05	0.000159264	-0.717639923	-2.95715332	9.584116936	0.000190735	-0.001239777	0.007963181	-0.177978516	-0.077636719	-0.995117188	885.22	-17.10156068	3.927233728	137.5529571	-85
10023	0	-0.030273438	-0.118225098	0.3828125	0.999999046	0.000148773	9.53674E-07	0.000148773	-0.756835938	-2.955627441	9.5703125	0.00743866	4.76837E-05	0.00743866	-0.177978516	-0.077636719	-0.995117188	885.22	-17.08527507	3.937738129	137.542008	-85
10024	0	-0.029149055	-0.115722656	0.383396149	0.999999046	-0.000149727	-0.000125885	8.7738E-05	-0.728726387	-2.893066406	9.584903717	-0.007486343	-0.006294251	0.004386902	-0.177978516	-0.077636719	-0.995117188	885.22	-17.10325884	3.932281611	137.5278847	-85
10025	0	-0.028137207	-0.118469238	0.382019043	0.999999046	-0.000255585	7.72476E-05	2.67029E-05	-0.703430176	-2.961730957	9.550476074	-0.012779236	0.003862381	0.001335144	-0.177978516	-0.077636719	-0.995117188	885.22	-17.13435356	3.946954812	137.4998399	-85
10026	0	-0.030765533	-0.119274139	0.38207531	0.999999046	3.24249E-05	-0.000150681	1.81198E-05	-0.769138336	-2.981853485	9.551882744	0.001621246	-0.007534027	0.000905991	-0.177978516	-0.077636719	-0.995117188	885.22	-17.13205335	3.936445512	137.4784039	-85
10027	0	-0.030456543	-0.118164063	0.380554199	0.999999046	0.000301361	-0.00014019	0.000225067	-0.761413574	-2.954101563	9.51385498	0.015068055	-0.007009506	0.011253357	-0.177978516	-0.077636719	-0.995117188	885.22	-17.0974395	3.934126977	137.4799301	-85
10028	0	-0.028814316	-0.116210938	0.384050369	0.999999046	7.72476E-05	-3.8147E-05	0.000205994	-0.720357895	-2.905273438	9.601259232	0.003862381	-0.001907349	0.010299683	-0.177978516	-0.077636719	-0.995117188	885.22	-17.08879097	3.942303467	137.4761322	-85
10029	0	-0.02923584	-0.118591309	0.381774902	0.999999046	-0.000144958	7.72476E-05	0.000198364	-0.730895996	-2.964782715	9.544372559	-0.007247925	0.003862381	0.009918213	-0.177978516	-0.077636719	-0.995117188	885.22	-17.10598878	3.962855633	137.4674614	-85
10030	0	-0.029829979	-0.119117737	0.380331039	0.999999046	-2.47955E-05	6.67572E-05	0.000209808	-0.745749474	-2.97794342	9.508275986	-0.001239777	0.00333786	0.010490418	-0.177978516	-0.077636719	-0.995117188	885.22	-17.10940166	3.982666424	137.4606171	-85
10031	0	-0.025939941	-0.114379883	0.38269043	0.999999046	-0.00030899	0.000172615	0.000301361	-0.648498535	-2.85949707	9.567260742	-0.015449524	0.008630753	0.015068055	-0.177978516	-0.077636719	-0.995117188	885.22	-17.14475752	4.016974263	137.4598154	-85
10032	0	-0.03236866	-0.117771149	0.382606506	0.999999046	-0.000437737	0.000179291	-8.10623E-05	-0.809216499	-2.944278717	9.565162659	-0.021886826	0.008964539	-0.004053116	-0.177978516	-0.077636719	-0.995117188	885.22	-17.19781394	4.039214836	137.4162902	-85
10033	0	-0.033630371	-0.120117188	0.381530762	0.999999046	-0.000255585	0.000157356	8.01086E-05	-0.840759277	-3.002929688	9.538269043	-0.012779236	0.007867813	0.004005432	-0.177978516	-0.077636719	-0.995117188	885.22	-17.22880728	4.064682296	137.3910777	-85
10034	0	-0.028582573	-0.122689247	0.383716583	0.999999046	0.000272751	0.000593185	0.000408173	-0.714564323	-3.067231178	9.592914581	0.013637544	0.029659274	0.020408632	-0.177978516	-0.077636719	-0.995117188	885.22	-17.1979234	4.148882769	137.389868	-85
10035	0	-0.029907227	-0.116516113	0.383483887	0.999999046	-4.19617E-05	0.000828743	0.000606537	-0.747680664	-2.912902832	9.587097168	-0.002098084	0.041437156	0.030326849	-0.177978516	-0.077636719	-0.995117188	885.22	-17.20195299	4.265535436	137.4047997	-84
10036	0	-0.030797958	-0.113947868	0.380494118	0.999999046	-0.000454903	0.000915527	0.00077343	-0.769948959	-2.848696709	9.512352943	-0.022745139	0.04577638	0.038671504	-0.177978516	-0.077636719	-0.995117188	885.22	-17.25189448	4.397329526	137.4361428	-83
10037	0	-0.032470703	-0.119384766	0.384094238	0.999998093	-0.000620842	0.000999451	0.000789642	-0.811767578	-2.984619141	9.602355957	-0.031042109	0.049972551	0.03948213	-0.177978516	-0.077636719	-0.995117188	885.22	-17.32084961	4.538888955	137.4670402	-83
10038	0	-0.031404495	-0.112552643	0.384990692	0.999998093	-0.000840187	0.001233101	0.001044273	-0.785112381	-2.813816071	9.624767303	-0.042009377	0.061655079	0.052213698	-0.177978516	-0.077636719	-0.995117188	885.22	-17.41286952	4.71465474	137.5182945	-83
10039	0	-0.031066895	-0.112365723	0.385925293	0.999995232	-0.002254486	0.001465797	0.000743866	-0.776672363	-2.809143066	9.648132324	-0.11272445	0.073289966	0.037193347	-0.177978516	-0.077636719	-0.995117188	885.22	-17.66983949	4.905460813	137.5250319	-84
10040	0	-0.032535553	-0.118603706	0.378403664	0.999995232	-0.002528191	0.001350403	0.000575066	-0.813388824	-2.965092659	9.460091591	-0.126409711	0.067520238	0.028753322	-0.177978516	-0.077636719	-0.995117188	885.22	-17.95938105	5.077693114	137.512388	-85
10041	0	-0.033569336	-0.127990723	0.37878418	0.999996185	-0.002116203	0.001163483	7.24792E-05	-0.839233398	-3.199768066	9.469604492	-0.105810268	0.05817419	0.003623966	-0.177978516	-0.077636719	-0.995117188	885.22	-18.20638664	5.211531575	137.4478275	-86
10042	0	-0.03501606	-0.127875328	0.377066612	0.999998093	-0.001173973	0.000870705	-0.000183105	-0.875401497	-3.196883202	9.426665306	-0.058698675	0.043535248	-0.009155277	-0.177978516	-0.077636719	-0.995117188	885.22	-18.34734901	5.304038782	137.3650188	-87
10043	0	-0.035339355	-0.122009277	0.383239746	0.999999046	-0.000572205	0.000786781	-0.000102997	-0.883483887	-3.050231934	9.580993652	-0.028610234	0.039339072	-0.005149842	-0.177978516	-0.077636719	-0.995117188	885.22	-18.41813606	5.39002814	137.2950534	-87
10044	0	-0.035427094	-0.120074272	0.381887436	0.999998093	-0.001377106	0.000916481	-0.000416756	-0.885677338	-3.001856804	9.547185898	-0.068855319	0.045824073	-0.020837794	-0.177978516	-0.077636719	-0.995117188	885.22	-18.58462539	5.478413692	137.185257	-86
10045	0	-0.039855957	-0.124084473	0.376647949	0.999997139	-0.002071381	0.000863075	-0.000514984	-0.996398926	-3.102111816	9.41619873	-0.103569122	0.043153801	-0.025749229	-0.177978516	-0.077636719	-0.995117188	885.22	-18.83158632	5.557101352	137.0635101	-87
10046	0	-0.040383339	-0.132614136	0.383722305	0.999997139	-0.001871109	0.001213074	-0.000545502	-1.009583473	-3.315353394	9.593057632	-0.093555533	0.06065374	-0.027275109	-0.177978516	-0.077636719	-0.995117188	885.22	-19.05752234	5.672166355	136.9240529	-85
10047	0	-0.041381836	-0.133728027	0.387329102	0.999996185	-0.0020895	0.001678467	-0.000377655	-1.034545898	-3.343200684	9.683227539	-0.104475149	0.083923442	-0.018882775	-0.177978516	-0.077636719	-0.995117188	885.22	-19.30878661	5.843414973	136.7845729	-85
10048	0	-0.014160156	-0.117797852	0.423339844	0.999979019	-0.004421234	0.004631996	0.000804901	-0.354003906	-2.944946289	10.58349609	-0.221063241	0.231601415	0.040245336	-0.177978516	-0.077636719	-0.995117188	885.22	-19.82512983	6.376566452	136.6595883	-88
10049	0	-0.006164551	-0.153442383	0.436279297	0.999925613	-0.006552696	0.010032654	0.001998901	-0.15411377	-3.83605957	10.90698242	-0.327642871	0.50164503	0.099947527	-0.177978516	-0.077636719	-0.995117188	885.22	-20.59831911	7.534286509	136.4526099	-89
10050	0	-0.000878334	-0.216191292	0.495773315	0.99976635	-0.005430222	0.017951965	0.010699272	-0.021958351	-5.404782295	12.39433289	-0.27153218	0.89766803	0.535005186	-0.177978516	-0.077636719	-0.995117188	885.22	-21.15939026	9.889563929	136.8733754	-85
10051	0	-0.034118652	-0.256408691	0.493713379	0.999342918	-0.005458832	0.029370308	0.020519257	-0.852966309	-6.410217285	12.34283447	-0.273001374	1.468837057	1.026187555	-0.177978516	-0.077636719	-0.995117188	885.22	-21.58832919	13.87461408	137.8837548	-81
10052	0	-0.098028183	-0.217844009	0.434657097	0.998664856	-0.01641655	0.03674984	0.032351494	-2.450704575	-5.446100235	10.86642742	-0.821192736	1.838309636	1.61829448	-0.177978516	-0.077636719	-0.995117188	885.22	-22.93590314	19.17113766	139.8044201	-80
10053	0	-0.147338867	-0.230834961	0.376708984	0.997782707	-0.033622742	0.038144112	0.042934418	-3.68347168	-5.770874023	9.417724609	-1.682380475	1.908616175	2.148308628	-0.177978516	-0.077636719	-0.995117188	885.22	-25.71517075	25.17738415	142.6831999	-74
10054	0	-0.248947144	-0.317119598	0.311188698	0.997681618	-0.031352997	0.030296326	0.052218437	-6.223678589	-7.92798996	7.779717445	-1.568861453	1.515987062	2.6129398	-0.177978516	-0.077636719	-0.995117188	885.22	-27.30769127	30.95663695	146.9644383	-75
10055	0	-0.332641602	-0.377990723	0.275146484	0.998313904	0.001095772	0.015892029	0.055809021	-8.316040039	-9.449768066	6.878662109	0.054819395	0.795048208	2.79201999	-0.177978516	-0.077636719	-0.995117188	885.22	-23.9628246	35.37322481	152.8770312	-74
10056	0	-0.398639679	-0.292801857	0.241305351	0.998082161	0.020812035	0.001684189	0.058261871	-9.965991974	-7.320046425	6.032633781	1.041267202	0.084263295	2.91495651	-0.177978516	-0.077636719	-0.995117188	885.22	-17.01448271	37.90878866	160.5544674	-82
10057	0	-0.36706543	-0.266479492	0.206665039	0.997915268	0.019421577	-0.010894775	0.060569763	-9.176635742	-6.661987305	5.166625977	0.971754163	-0.545117582	3.030594177	-0.177978516	-0.077636719	-0.995117188	885.22	-9.309585584	38.29937675	169.4700279	-79
10058	0	-0.321949959	-0.261123657	0.173528671	0.997515678	0.022600174	-0.021570206	0.06313324	-8.04874897	-6.528091431	4.338216782	1.130945279	-1.079404182	3.159278313	-0.177978516	-0.077636719	-0.995117188	885.22	-1.083945962	36.52556966	178.7893649	-73
10059	0	-0.274597168	-0.209594727	0.149719238	0.996932983	0.030018806	-0.029434204	0.065998077	-6.864929199	-5.239868164	3.742980957	1.502476331	-1.4732163	3.303280871	-0.177978516	-0.077636719	-0.995117188	885.22	7.40417338	32.7819044	-172.2795385	-69
10060	0	-0.236869812	-0.117511749	0.119800568	0.996555328	0.031337738	-0.037034035	0.067250252	-5.9217453	-2.937793732	2.995014191	1.568688178	-1.853830432	3.366378096	-0.177978516	-0.077636719	-0.995117188	885.22	14.84848411	27.18283903	-164.5027469	-71
10061	0	-0.198852539	-0.053100586	0.114929199	0.996479034	0.026879311	-0.043403625	0.066497803	-4.971313477	-1.327514648	2.87322998	1.345544836	-2.172731473	3.328797244	-0.177978516	-0.077636719	-0.995117188	885.22	20.42195605	20.19800604	-158.2113231	-73
10062	0	-0.138485909	-0.012938499	0.109855652	0.996546745	0.021764755	-0.047384262	0.064605713	-3.462147713	-0.323462486	2.746391296	1.089491837	-2.371943361	3.234008193	-0.177978516	-0.077636719	-0.995117188	885.22	24.28770967	12.43295593	-153.2104219	-68
10063	0	-0.038757324	-0.004760742	0.112365723	0.996472359	0.023647308	-0.050425529	0.062763214	-0.968933105	-0.119018555	2.809143066	1.183757368	-2.52424467	3.141855134	-0.177978516	-0.077636719	-0.995117188	885.22	27.54969936	4.167514146	-149.1942969	-60
10064	0	0.064523697	0.012342453	0.133725166	0.996219635	0.031866074	-0.050206184	0.063318253	1.613092422	0.308561325	3.343129158	1.595314176	-2.513476829	3.169907505	-0.177978516	-0.077636719	-0.995117188	885.22	31.17941902	-4.332248008	-145.6484634	-58
10065	0	0.150756836	0.073303223	0.149780273	0.996398926	0.027405739	-0.045951843	0.065769196	3.768920898	1.832580566	3.744506836	1.371933932	-2.30035371	3.292412279	-0.177978516	-0.077636719	-0.995117188	885.22	33.77383634	-12.75599527	-142.0342429	-58
10066	0	0.228485107	0.109629631	0.159142494	0.996718407	0.014404297	-0.042524338	0.06734848	5.712127686	2.740740776	3.978562355	0.721003601	-2.128545455	3.371111909	-0.177978516	-0.077636719	-0.995117188	885.22	34.29165522	-21.05788063	-138.163504	-58
10067	0	0.317077637	0.124572754	0.15838623	0.996973038	0.00376606	-0.038162231	0.067619324	7.926940918	3.114318848	3.959655762	0.188493161	-1.910038575	3.384380627	-0.177978516	-0.077636719	-0.995117188	885.22	32.82058377	-28.94151881	-133.6789453	-63
10068	0	0.379894257	0.136470795	0.158299446	0.997223854	-0.004652977	-0.034231186	0.065955162	9.497356415	3.411769867	3.957486153	-0.232864336	-1.713144594	3.300812586	-0.177978516	-0.077636719	-0.995117188	885.22	29.43342143	-36.17510626	-128.391107	-58
10069	0	0.467834473	0.147949219	0.152099609	0.997543335	-0.016299248	-0.030185699	0.061077118	11.69586182	3.698730469	3.802490234	-0.815630402	-1.510522115	3.056359103	-0.177978516	-0.077636719	-0.995117188	885.22	23.6968141	-42.38085577	-122.2947197	-58
10070	0	0.534171104	0.117386818	0.175766945	0.99768734	-0.025878906	-0.030050278	0.055193901	13.35427761	2.934670448	4.394173622	-1.294943533	-1.503673008	2.761824034	-0.177978516	-0.077636719	-0.995117188	885.22	15.92579421	-47.75970628	-115.5213156	-61
10071	0	0.563537598	0.072570801	0.186462402	0.997858047	-0.026026726	-0.030735016	0.051540375	14.08843994	1.81427002	4.661560059	-1.302266028	-1.537848725	2.578859889	-0.177978516	-0.077636719	-0.995117188	885.22	6.847662816	-52.38814431	-107.5863482	-59
10072	0	0.513605118	0.023813248	0.185716629	0.998220444	-0.019346237	-0.029332161	0.048171043	12.84012794	0.595331192	4.642915726	-0.967885927	-1.467478431	2.409981566	-0.177978516	-0.077636719	-0.995117188	885.22	-2.857316585	-55.95891098	-98.36342011	-57
10073	0	0.493530273	0.011352539	0.151184082	0.998687744	-0.017401695	-0.026176453	0.040409088	12.33825684	0.283813477	3.779602051	-0.870465282	-1.309395027	2.021338024	-0.177978516	-0.077636719	-0.995117188	885.22	-12.58596804	-58.33319275	-89.16528223	-56
10074	0	0.445583344	-0.023188591	0.143138885	0.999015808	-0.021576881	-0.022265434	0.031714439	11.13958359	-0.579714775	3.578472137	-1.079198086	-1.113637026	1.586242314	-0.177978516	-0.077636719	-0.995117188	885.22	-22.10729744	-59.71127517	-80.95063025	-57
10075	0	0.380065918	-0.081054688	0.152099609	0.999185562	-0.027411461	-0.020996094	0.020835876	9.501647949	-2.026367188	3.802490234	-1.370944823	-1.050089456	1.042076418	-0.177978516	-0.077636719	-0.995117188	885.22	-30.87433654	-60.82661758	-74.47795905	-58
10076	0	0.354675293	-0.152893066	0.17401123	0.999394417	-0.024832726	-0.02130127	0.011795044	8.866882324	-3.82232666	4.350280762	-1.241886712	-1.065278298	0.589871149	-0.177978516	-0.077636719	-0.995117188	885.22	-38.32537421	-62.09341228	-69.24245918	-59
10077	0	0.338867188	-0.18548584	0.174438477	0.999648094	-0.014781952	-0.019457817	0.01027298	8.471679688	-4.637145996	4.360961914	-0.739184177	-0.973004823	0.513709158	-0.177978516	-0.077636719	-0.995117188	885.22	-44.57714543	-63.00615481	-64.11460566	-60
10078	0	0.312598228	-0.19655323	0.150927544	0.999705315	-0.00945282	-0.018663406	0.012274742	7.814955711	-4.913830757	3.773188591	-0.47268735	-0.933261848	0.613797304	-0.177978516	-0.077636719	-0.995117188	885.22	-50.6932016	-63.42359669	-58.48696729	-60
10079	0	0.288391113	-0.224914551	0.159362793	0.99960804	-0.006420135	-0.018961906	0.019523621	7.209777832	-5.62286377	3.984069824	-0.321048625	-0.948218925	0.976308295	-0.177978516	-0.077636719	-0.995117188	885.22	-57.52989147	-62.89181435	-51.66143603	-60
10080	0	0.272116661	-0.205255508	0.141069412	0.999380112	-0.00305748	-0.019848824	0.028883934	6.802916527	-5.131387711	3.526735306	-0.152905543	-0.992646	1.444494758	-0.177978516	-0.077636719	-0.995117188	885.22	-64.66342608	-61.09114195	-43.99288974	-58
10081	0	0.259216309	-0.18560791	0.104675293	0.999092102	-0.004649162	-0.019645691	0.037490845	6.480407715	-4.640197754	2.616882324	-0.232528418	-0.982581623	1.875109164	-0.177978516	-0.077636719	-0.995117188	885.22	-71.49664267	-57.93670439	-36.69832848	-58
10082	0	0.243297577	-0.210001945	0.066329956	0.998789787	-0.012428284	-0.021934509	0.042224884	6.082439423	-5.250048637	1.658248901	-0.621664942	-1.097168022	2.112096146	-0.177978516	-0.077636719	-0.995117188	885.22	-78.39277668	-53.90348517	-30.11101714	-63
10083	0	0.22869873	-0.241149902	0.038635254	0.998418808	-0.011878014	-0.027153015	0.04776001	5.717468262	-6.028747559	0.965881348	-0.594213853	-1.358366667	2.389259718	-0.177978516	-0.077636719	-0.995117188	885.22	-84.64799492	-48.93069956	-23.87298831	-72
10084	0	0.259690285	-0.245087624	-0.021554947	0.99842453	0.001390457	-0.028206825	0.048473358	6.492257118	-6.12719059	-0.538873672	0.069559377	-1.411082089	2.424941016	-0.177978516	-0.077636719	-0.995117188	885.22	-88.23908906	-43.56936797	-18.70333169	-61
10085	0	0.233520508	-0.20904541	-0.091430664	0.998315811	-0.012381554	-0.02614212	0.050270081	5.838012695	-5.226135254	-2.285766602	-0.619425284	-1.307839936	2.514915317	-0.177978516	-0.077636719	-0.995117188	885.22	-92.23660428	-37.78124918	-14.77777818	-57
10086	0	0.216035843	-0.351498604	-0.164329529	0.997627258	-0.02915287	-0.02644825	0.056476593	5.400896072	-8.787465096	-4.10823822	-1.458797268	-1.323459211	2.826064778	-0.177978516	-0.077636719	-0.995117188	885.22	-97.31326002	-31.06147612	-11.75932089	-57
10087	0	0.235290527	-0.27947998	-0.135070801	0.996842384	-0.04404068	-0.020552635	0.062782288	5.882263184	-6.986999512	-3.37677002	-2.204354044	-1.028714465	3.142421728	-0.177978516	-0.077636719	-0.995117188	885.22	-102.9460287	-23.54989259	-10.56418662	-62
10088	0	0.252609253	-0.297628403	-0.180874825	0.994859695	-0.07985878	-0.00776577	0.061768532	6.315231323	-7.440710068	-4.521870613	-3.999793994	-0.388955104	3.093728739	-0.177978516	-0.077636719	-0.995117188	885.22	-111.6982229	-16.51950582	-11.89325971	-66
10089	0	0.182556152	-0.317382813	-0.245910645	0.995167732	-0.079856873	-0.008151054	0.056541443	4.563903809	-7.934570313	-6.147766113	-3.999287118	-0.408210411	2.831634359	-0.177978516	-0.077636719	-0.995117188	885.22	-120.4325493	-10.28623354	-13.95003845	-69
10090	0	0.093463898	-0.355830193	-0.300133705	0.995406151	-0.078077316	-0.022352219	0.050702095	2.336597443	-8.895754814	-7.503342628	-3.909854611	-1.119325423	2.538993775	-0.177978516	-0.077636719	-0.995117188	885.22	-129.2895093	-4.054478998	-15.17651111	-72
10091	0	0.098815918	-0.633361816	-0.309448242	0.995731354	-0.065768242	-0.032089233	0.056236267	2.470397949	-15.83404541	-7.736206055	-3.293098362	-1.606748165	2.815820429	-0.177978516	-0.077636719	-0.995117188	885.22	-136.8650633	3.163293581	-16.89392901	-73
10092	0	0.072234154	-0.430031776	-0.323664665	0.998185158	-0.017445564	-0.026416779	0.051217079	1.805853844	-10.75079441	-8.091616631	-0.872806132	-1.321638324	2.562403834	-0.177978516	-0.077636719	-0.995117188	885.22	-139.1491988	9.331873689	-19.24741991	-74
10093	0	0.069824219	0.055725098	-0.499023438	0.999187469	-0.025206566	-0.008953094	0.030136108	1.745605469	1.393127441	-12.47558594	-1.260669611	-0.447775957	1.507213488	-0.177978516	-0.077636719	-0.995117188	885.22	-142.4702204	12.29052716	-21.31939545	-90
10094	0	-0.133890152	-0.359731674	-0.289364815	0.997321129	-0.067790985	-0.02731514	0.002682686	-3.347253799	-8.993291855	-7.234120369	-3.392578296	-1.366977485	0.134254161	-0.177978516	-0.077636719	-0.995117188	885.22	-149.9223179	15.04578507	-19.79950174	-81
10095	0	-0.200561523	-0.749450684	-0.107543945	0.997657776	-0.066538811	-0.015548706	0.003105164	-5.014038086	-18.73626709	-2.688598633	-3.329540372	-0.778042829	0.155379505	-0.177978516	-0.077636719	-0.995117188	885.22	-157.4233633	16.78849082	-19.30954494	-75
10096	0	-0.092849731	-0.322627068	-0.36823082	0.988777161	-0.147375107	-0.002614021	0.024353027	-2.321243286	-8.065676689	-9.205770493	-7.396445303	-0.131192207	1.222227	-0.177978516	-0.077636719	-0.995117188	885.22	-175.1935387	17.72777742	-22.07355605	-84
10097	0	-0.103515625	0.00958252	-0.507446289	0.992732048	-0.115364075	-0.001620293	0.034202576	-2.587890625	0.239562988	-12.68615723	-5.782217107	-0.081211452	1.7142834	-0.177978516	-0.077636719	-0.995117188	885.22	170.2974928	17.73338725	-26.19297587	-89
10098	0	-0.062072754	0.069030762	-0.472473145	0.998932838	-0.032032013	-0.00345993	0.033081055	-1.551818848	1.725769043	-11.81182861	-1.602170397	-0.173058062	1.654641143	-0.177978516	-0.077636719	-0.995117188	885.22	165.4320195	17.30907781	-30.16304098	-82
10099	0	-0.022909164	0.154504776	-0.451917648	0.99932003	0.009763718	-0.021157265	0.028501511	-0.572729111	3.8626194	-11.29794121	0.488296223	-1.058102334	1.425397627	-0.177978516	-0.077636719	-0.995117188	885.22	165.3247585	18.81157129	-34.12209889	-91
10100	0	-0.145469666	0.102392197	-0.535905838	0.99922657	-0.003090858	-0.036457062	0.014367104	-3.636741638	2.559804916	-13.39764595	-0.154582748	-1.823322825	0.718540294	-0.177978516	-0.077636719	-0.995117188	885.22	163.9647711	22.38479773	-36.98600309	-82
10101	0	-0.141540527	0.112304688	-0.352233887	0.997946739	-0.0259552	-0.058539391	-0.000766754	-3.538513184	2.807617188	-8.805847168	-1.298648696	-2.928973872	-0.038363961	-0.177978516	-0.077636719	-0.995117188	885.22	160.0405182	28.77599802	-39.17423478	-74
10102	0	-0.178063393	0.153151512	-0.215774536	0.996665001	-0.042577744	-0.069261551	-0.006882668	-4.451584816	3.828787804	-5.394363403	-2.131256423	-3.466931617	-0.344516364	-0.177978516	-0.077636719	-0.995117188	885.22	153.6204283	36.37382572	-42.00298904	-72
10103	0	-0.222839355	0.095825195	-0.27722168	0.997196198	-0.030528069	-0.067337036	-0.011508942	-5.570983887	2.395629883	-6.930541992	-1.527831339	-3.370001411	-0.575985399	-0.177978516	-0.077636719	-0.995117188	885.22	147.9215921	43.74501871	-45.40115307	-76
10104	0	-0.189957619	0.071258545	-0.295872688	0.997537613	-0.002555847	-0.067389488	-0.019241333	-4.748940468	1.781463623	-7.396817207	-0.12789734	-3.372242446	-0.962856991	-0.177978516	-0.077636719	-0.995117188	885.22	144.9895232	51.39260998	-48.96857795	-78
10105	0	-0.165405273	0.122680664	-0.252441406	0.997240067	-0.012934685	-0.069328308	-0.023197174	-4.135131836	3.067016602	-6.311035156	-0.647329831	-3.469607711	-1.160926846	-0.177978516	-0.077636719	-0.995117188	885.22	139.5379577	59.29554145	-53.77815284	-69
10106	0	-0.149570465	0.1339674	-0.199440002	0.9954319	-0.054690361	-0.075619698	-0.020114899	-3.739261627	3.34918499	-4.986000061	-2.738688905	-3.786751868	-1.007278958	-0.177978516	-0.077636719	-0.995117188	885.22	123.5165602	66.78350242	-64.673623	-73
10107	0	-0.189086914	0.164733887	-0.079467773	0.99415493	-0.070709229	-0.080046654	-0.015758514	-4.727172852	4.118347168	-1.986694336	-3.542365683	-4.010148679	-0.789464428	-0.177978516	-0.077636719	-0.995117188	885.22	93.98767903	71.52128157	-87.51971905	-67
10108	0	-0.225663185	0.181779861	0.022166252	0.994937897	-0.057641983	-0.081707954	-0.009934425	-5.641579628	4.544496536	0.554156303	-2.886971648	-4.092304521	-0.497561028	-0.177978516	-0.077636719	-0.995117188	885.22	59.86970226	70.4739171	-116.5395089	-69
10109	0	-0.219421387	0.199829102	0.151672363	0.996544838	-0.037830353	-0.073348045	-0.009273529	-5.485534668	4.995727539	3.791809082	-1.893698737	-3.671631127	-0.464211115	-0.177978516	-0.077636719	-0.995117188	885.22	38.00297872	65.68810805	-135.4003273	-72
10110	0	-0.189229012	0.232979774	0.245966911	0.998338699	-0.018830299	-0.052388191	-0.014820099	-4.730725288	5.824494362	6.149172783	-0.942036522	-2.620860585	-0.741415424	-0.177978516	-0.077636719	-0.995117188	885.22	26.54077308	61.49727081	-145.7916577	-73
10111	0	-0.244262695	0.287780762	0.233215332	0.998501778	-0.025562286	-0.03851223	-0.029270172	-6.106567383	7.194519043	5.830383301	-1.278752823	-1.926573469	-1.464239727	-0.177978516	-0.077636719	-0.995117188	885.22	15.49449505	58.563881	-155.1772722	-66
10112	0	-0.279543877	0.148756981	0.268421173	0.997882843	-0.034433365	-0.028992653	-0.046934128	-6.988596916	3.718924522	6.710529327	-1.72288406	-1.450656354	-2.3483636	-0.177978516	-0.077636719	-0.995117188	885.22	2.500955897	56.10743624	-165.9423769	-66
10113	0	-0.301269531	0.065246582	0.247070313	0.997625351	-0.024622917	-0.022815704	-0.060134888	-7.531738281	1.631164551	6.176757813	-1.232121173	-1.141688948	-3.009126328	-0.177978516	-0.077636719	-0.995117188	885.22	-9.718379089	53.04961058	-177.4922627	-72
10114	0	-0.201191902	0.02859211	0.203188896	0.997044563	-0.023220062	-0.022558212	-0.069663048	-5.029797554	0.714802742	5.079722404	-1.162147999	-1.129022867	-3.48658719	-0.177978516	-0.077636719	-0.995117188	885.22	-20.92932988	48.43193889	171.4484331	-72
10115	0	-0.112182617	-0.086120605	0.218933105	0.996636391	-0.01947403	-0.020483971	-0.076911926	-2.80456543	-2.153015137	5.473327637	-0.974794399	-1.025348134	-3.849912767	-0.177978516	-0.077636719	-0.995117188	885.22	-30.18517361	42.49758385	161.5753811	-75
10116	0	-0.105441093	-0.182688713	0.264701843	0.996598244	-0.003531456	-0.0216465	-0.079434395	-2.636027336	-4.567217827	6.617546082	-0.17677326	-1.083553727	-3.97622877	-0.177978516	-0.077636719	-0.995117188	885.22	-35.65068303	35.45591365	153.4969142	-78
10117	0	-0.108459473	-0.225830078	0.270690918	0.996705055	0.010562897	-0.024912834	-0.076454163	-2.711486816	-5.645751953	6.767272949	0.528725532	-1.247011293	-3.826911203	-0.177978516	-0.077636719	-0.995117188	885.22	-37.68956283	27.9253509	147.2551907	-75
10118	0	-0.060801506	-0.341376305	0.318088531	0.996664047	0.021452904	-0.027350426	-0.073833466	-1.520037651	-8.534407616	7.952213287	1.073839344	-1.369043723	-3.695783152	-0.177978516	-0.077636719	-0.995117188	885.22	-37.34270902	20.27667841	142.0007992	-70
10119	0	-0.062683105	-0.358947754	0.379089355	0.997038841	0.029582977	-0.028670311	-0.064929962	-1.567077637	-8.973693848	9.477233887	1.480610468	-1.43493206	-3.249706096	-0.177978516	-0.077636719	-0.995117188	885.22	-35.13718222	13.2193694	137.7627623	-67
10120	0	-0.048796654	-0.360482216	0.457057953	0.998231888	-0.005451202	-0.017027855	-0.056672096	-1.219916344	-9.012055397	11.42644882	-0.272720794	-0.851894644	-2.835275229	-0.177978516	-0.077636719	-0.995117188	885.22	-36.50173265	7.829360711	133.5618505	-66
10121	0	0.013793945	-0.483825684	0.467285156	0.998615265	-0.040808678	-0.000907898	-0.033180237	0.344848633	-12.09564209	11.68212891	-2.041376072	-0.045415859	-1.659777904	-0.177978516	-0.077636719	-0.995117188	885.22	-41.4931993	5.34911198	130.6429735	-66
10122	0	0.038858414	-0.479043007	0.302575111	0.99992466	-0.007461548	0.008342743	0.004962921	0.971460342	-11.97607517	7.564377785	-0.373086714	0.417147569	0.248152257	-0.177978516	-0.077636719	-0.995117188	885.22	-42.35632917	6.430352451	130.4168926	-66
10123	0	-0.058166504	-0.297912598	0.272460938	0.999728203	0.016597748	0.005436897	0.015415192	-1.454162598	-7.447814941	6.811523438	0.829962468	0.271869457	0.770829311	-0.177978516	-0.077636719	-0.995117188	885.22	-40.32611201	8.055853392	131.3308801	-66
10124	0	-0.081156731	-0.208639145	0.253159523	0.999786377	0.015295029	-0.000649452	0.013817787	-2.028918266	-5.215978622	6.328988075	0.764805652	-0.032474913	0.690938339	-0.177978516	-0.077636719	-0.995117188	885.22	-38.37135539	8.995151577	132.6086978	-66
10125	0	-0.096252441	-0.200500488	0.25201416	0.999836922	0.014362335	-0.005736351	0.009243011	-2.406311035	-5.012512207	6.300354004	0.718155618	-0.286833071	0.462175581	-0.177978516	-0.077636719	-0.995117188	885.22	-36.51709595	9.112526581	133.856419	-66
10126	0	-0.086467743	-0.215777397	0.291812897	0.999751091	0.020309448	-0.008037567	0.004522324	-2.161693573	-5.394434929	7.295322418	1.015556635	-0.401911689	0.226134934	-0.177978516	-0.077636719	-0.995117188	885.22	-34.03002188	8.656775875	134.8142706	-67
10127	0	-0.06652832	-0.179260254	0.354064941	0.999761581	0.020321846	-0.007400513	0.002922058	-1.663208008	-4.481506348	8.851623535	1.016172976	-0.370055014	0.146114505	-0.177978516	-0.077636719	-0.995117188	885.22	-31.5793225	8.122962526	135.5547762	-68
10128	0	-0.044208527	-0.169905663	0.382058144	0.999969482	0.005346298	-0.004853249	0.002645493	-1.105213165	-4.247641563	9.55145359	0.267317546	-0.242664822	0.132275931	-0.177978516	-0.077636719	-0.995117188	885.22	-30.8751355	7.801548901	136.0991321	-69
10129	0	-0.027587891	-0.180480957	0.376464844	0.999993324	0.000946045	-0.001833916	0.002902985	-0.689697266	-4.512023926	9.411621094	0.047302346	-0.091695979	0.145149538	-0.177978516	-0.077636719	-0.995117188	885.22	-30.69644751	7.786793823	136.4876534	-69
10130	0	-0.041531563	-0.153449059	0.352860451	0.999998093	-0.001509666	0.000206947	0.000616074	-1.03828907	-3.836226463	8.821511269	-0.075483356	0.010347371	0.030803694	-0.177978516	-0.077636719	-0.995117188	885.22	-30.84440826	7.838303264	136.5284661	-69
10131	0	-0.052001953	-0.175476074	0.342834473	0.999969482	-0.007441521	0.000648499	-0.002086639	-1.300048828	-4.386901855	8.570861816	-0.372079765	0.032425252	-0.104333016	-0.177978516	-0.077636719	-0.995117188	885.22	-31.71134472	7.772695234	136.274984	-68
10132	0	-0.055911064	-0.211153984	0.341610909	0.999968529	-0.007096291	0.001152039	-0.00315094	-1.397776604	-5.278849602	8.540272713	-0.354818173	0.05760252	-0.157548615	-0.177978516	-0.077636719	-0.995117188	885.22	-32.55699851	7.687570501	135.8871893	-68
10133	0	-0.057678223	-0.222106934	0.332214355	0.99998188	-0.005237579	0.001076698	-0.002429962	-1.441955566	-5.55267334	8.305358887	-0.261880473	0.053835225	-0.121498806	-0.177978516	-0.077636719	-0.995117188	885.22	-33.18004256	7.635493312	135.5752072	-68
10134	0	-0.056852341	-0.228989601	0.326293945	0.999994278	-0.002943993	0.000458717	-0.001408577	-1.421308517	-5.724740028	8.157348633	-0.147199897	0.022935909	-0.070428976	-0.177978516	-0.077636719	-0.995117188	885.22	-33.52284358	7.586329009	135.4015027	-68
10135	0	-0.055053711	-0.229675293	0.329650879	0.999999046	0.00037384	-0.000216484	-0.000255585	-1.376342773	-5.741882324	8.241271973	0.018692017	-0.010824204	-0.012779236	-0.177978516	-0.077636719	-0.995117188	885.22	-33.46596646	7.545309751	135.3821273	-68
10136	0	-0.053332329	-0.216878891	0.335573196	0.999997139	0.002114296	-0.000534058	0.000544548	-1.33330822	-5.421972275	8.38932991	0.105714887	-0.026702903	0.027227425	-0.177978516	-0.077636719	-0.995117188	885.22	-33.19714096	7.52441777	135.46014	-67
10137	0	-0.051879883	-0.203796387	0.338134766	0.999998093	0.001431465	-0.000392914	0.000644684	-1.29699707	-5.094909668	8.453369141	0.071573289	-0.019645699	0.032234206	-0.177978516	-0.077636719	-0.995117188	885.22	-33.00621283	7.52308071	135.5389251	-68
10138	0	-0.05095768	-0.201047897	0.340703964	0.999999046	1.71661E-05	-0.000125885	5.34058E-05	-1.273941994	-5.026197433	8.517599106	0.000858307	-0.006294251	0.002670288	-0.177978516	-0.077636719	-0.995117188	885.22	-32.98667036	7.510368653	135.5436173	-68
10139	0	-0.050598145	-0.206542969	0.33807373	0.999999046	-0.001087189	3.91006E-05	-0.00018692	-1.264953613	-5.163574219	8.451843262	-0.054359447	0.001955033	-0.00934601	-0.177978516	-0.077636719	-0.995117188	885.22	-33.09801175	7.498486893	135.5145982	-67
10140	0	-0.052558899	-0.212478638	0.334495544	0.999999046	-0.001042366	0.00012207	-0.000343323	-1.313972473	-5.311965942	8.362388611	-0.052118312	0.006103517	-0.017166141	-0.177978516	-0.077636719	-0.995117188	885.22	-33.20711447	7.484809737	135.4651753	-67
10141	0	-0.053527832	-0.21685791	0.335632324	0.999999046	-0.000202179	-0.000121117	-0.000118256	-1.338195801	-5.421447754	8.390808105	-0.010108948	-0.006055832	-0.005912781	-0.177978516	-0.077636719	-0.995117188	885.22	-33.21544844	7.46202297	135.4528825	-68
10142	0	-0.052968979	-0.214443207	0.334947586	0.999999046	0.000423431	-0.000144958	0.000132561	-1.324224472	-5.36108017	8.373689651	0.021171571	-0.007247925	0.006628037	-0.177978516	-0.077636719	-0.995117188	885.22	-33.14901103	7.45279905	135.466339	-67
10143	0	-0.051635742	-0.209228516	0.336608887	0.999999046	0.00044632	-0.000208855	0.000267029	-1.290893555	-5.230712891	8.415222168	0.02231598	-0.010442734	0.013351441	-0.177978516	-0.077636719	-0.995117188	885.22	-33.07775655	7.445895203	135.4968441	-68
10144	0	-0.05221653	-0.209083557	0.337244034	0.999999046	-3.52859E-05	-0.0001297	1.52588E-05	-1.305413246	-5.227088928	8.431100845	-0.001764297	-0.006484985	0.000762939	-0.177978516	-0.077636719	-0.995117188	885.22	-33.06551304	7.43090584	135.4979605	-68
10145	0	-0.05279541	-0.212219238	0.336303711	0.999999046	-0.000335693	-0.000117302	-6.48499E-05	-1.319885254	-5.305480957	8.407592773	-0.016784668	-0.005865097	-0.003242493	-0.177978516	-0.077636719	-0.995117188	885.22	-33.08897422	7.412205813	135.4904947	-67
10146	0	-0.052566528	-0.213672638	0.335805893	0.999999046	-0.00012207	-7.82013E-05	9.44138E-05	-1.314163208	-5.341815948	8.395147324	-0.006103516	-0.003910065	0.004720688	-0.177978516	-0.077636719	-0.995117188	885.22	-33.08652396	7.407319545	135.4959538	-68
10147	0	-0.052124023	-0.211791992	0.335144043	0.999999046	0.000175476	-0.000113487	0.000102997	-1.303100586	-5.294799805	8.378601074	0.008773804	-0.005674362	0.005149841	-0.177978516	-0.077636719	-0.995117188	885.22	-33.04975754	7.399663649	135.5044571	-68
10148	0	-0.052396774	-0.211603165	0.335351944	0.999999046	0.000281334	-0.000146866	6.38962E-05	-1.309919357	-5.290079117	8.383798599	0.014066696	-0.007343292	0.003194809	-0.177978516	-0.077636719	-0.995117188	885.22	-33.00124751	7.38645118	135.5112538	-68
10149	0	-0.05267334	-0.210876465	0.336914063	0.999999046	0.000171661	-0.000224113	-7.62939E-05	-1.316833496	-5.271911621	8.422851563	0.008583069	-0.011205673	-0.003814697	-0.177978516	-0.077636719	-0.995117188	885.22	-32.96653433	7.357172973	135.5092876	-68
10150	0	-0.052307129	-0.210830688	0.336582184	0.999999046	0.000106812	-1.14441E-05	2.86102E-06	-1.307678223	-5.270767212	8.414554596	0.005340576	-0.000572205	0.000143051	-0.177978516	-0.077636719	-0.995117188	885.22	-32.94010462	7.353381821	135.5016059	-68
10151	0	-0.052185059	-0.210083008	0.336486816	0.999999046	0	-0.000132561	7.24792E-05	-1.304626465	-5.252075195	8.41217041	0	-0.006628037	0.003623962	-0.177978516	-0.077636719	-0.995117188	885.22	-32.92417651	7.342378314	135.5082553	-68
10152	0	-0.051942825	-0.211297035	0.336988449	0.999999046	-0.00014019	-8.01086E-05	9.15527E-05	-1.298570633	-5.28242588	8.424711227	-0.007009506	-0.004005432	0.004577637	-0.177978516	-0.077636719	-0.995117188	885.22	-32.92463902	7.337683614	135.51343	-68
10153	0	-0.051330566	-0.212890625	0.335754395	0.999999046	-6.48499E-05	-4.1008E-05	4.95911E-05	-1.28326416	-5.322265625	8.393859863	-0.003242493	-0.0020504	0.002479553	-0.177978516	-0.077636719	-0.995117188	885.22	-32.91754053	7.334183975	135.5120493	-68
10154	0	-0.052056313	-0.210244179	0.335608482	1	-2.38419E-05	-6.19888E-05	4.48227E-05	-1.301407814	-5.256104469	8.390212059	-0.001192093	-0.003099442	0.002241135	-0.177978516	-0.077636719	-0.995117188	885.22	-32.90575944	7.328464311	135.5115064	-67
10155	0	-0.053161621	-0.211608887	0.3359375	0.999999046	-2.67029E-05	-0.000163078	-8.39233E-05	-1.329040527	-5.290222168	8.3984375	-0.001335144	-0.008153915	-0.004196167	-0.177978516	-0.077636719	-0.995117188	885.22	-32.89526449	7.305149153	135.504782	-68
10156	0	-0.052711487	-0.211880684	0.336004257	0.999999046	-0.000124931	-8.58307E-05	0.000133514	-1.31778717	-5.297017097	8.40010643	-0.006246567	-0.004291534	0.00667572	-0.177978516	-0.077636719	-0.995117188	885.22	-32.89414373	7.302922647	135.5142668	-68
10157	0	-0.052124023	-0.210693359	0.335205078	0.999999046	-8.39233E-05	-4.1008E-05	0.000133514	-1.303100586	-5.267333984	8.380126953	-0.004196167	-0.0020504	0.00667572	-0.177978516	-0.077636719	-0.995117188	885.22	-32.88883297	7.305106415	135.5209216	-67
10158	0	-0.051664352	-0.211651802	0.335967064	0.999999046	-2.09808E-05	-0.00012207	-2.38419E-05	-1.29160881	-5.291295052	8.399176598	-0.001049042	-0.006103516	-0.001192093	-0.177978516	-0.077636719	-0.995117188	885.22	-32.8777728	7.289764395	135.5173688	-67
10159	0	-0.052062988	-0.211425781	0.336303711	0.999999046	4.95911E-05	4.76837E-06	3.8147E-06	-1.301574707	-5.285644531	8.407592773	0.002479553	0.000238419	0.000190735	-0.177978516	-0.077636719	-0.995117188	885.22	-32.85944366	7.288442009	135.5085334	-67
10160	0	-0.051030159	-0.210598946	0.336812019	0.999999046	0.000201225	-4.57764E-05	0.000137329	-1.275753975	-5.26497364	8.420300484	0.010061264	-0.002288818	0.006866455	-0.177978516	-0.077636719	-0.995117188	885.22	-32.82179519	7.290590852	135.515816	-68
10161	0	-0.051635742	-0.210571289	0.335571289	0.999999046	0.000137329	-0.00020504	-3.8147E-06	-1.290893555	-5.264282227	8.389282227	0.006866455	-0.010251999	-0.000190735	-0.177978516	-0.077636719	-0.995117188	885.22	-32.79208961	7.26870321	135.5193272	-68
10162	0	-0.052228928	-0.211029053	0.336260796	0.999999046	0.000114441	-8.39233E-05	4.1008E-05	-1.30572319	-5.275726318	8.40651989	0.005722046	-0.004196167	0.0020504	-0.177978516	-0.077636719	-0.995117188	885.22	-32.76556996	7.261365034	135.5195827	-68
10163	0	-0.05279541	-0.209960938	0.336669922	0.999999046	-6.86646E-05	-9.05991E-05	9.15527E-05	-1.319885254	-5.249023438	8.416748047	-0.003433228	-0.004529953	0.004577637	-0.177978516	-0.077636719	-0.995117188	885.22	-32.75946163	7.256648408	135.5251362	-67
10164	0	-0.051063538	-0.210181236	0.335429192	0.999999046	-0.000170708	6.86646E-05	3.43323E-05	-1.27658844	-5.254530907	8.38572979	-0.008535385	0.003433228	0.001716614	-0.177978516	-0.077636719	-0.995117188	885.22	-32.76715205	7.263778774	135.5151594	-68
10165	0	-0.051269531	-0.211608887	0.334411621	0.999999046	-0.000160217	2.76566E-05	-3.05176E-05	-1.281738281	-5.290222168	8.360290527	-0.008010864	0.001382828	-0.001525879	-0.177978516	-0.077636719	-0.995117188	885.22	-32.77434083	7.262991843	135.5014135	-67
10166	0	-0.052801132	-0.211719513	0.334645271	0.999999046	-0.000101089	-7.82013E-05	4.1008E-05	-1.320028305	-5.292987823	8.366131783	-0.005054474	-0.003910065	0.0020504	-0.177978516	-0.077636719	-0.995117188	885.22	-32.77325613	7.256572081	135.5011919	-68
10167	0	-0.051635742	-0.213134766	0.336364746	0.999999046	0.000133514	-5.62668E-05	1.14441E-05	-1.290893555	-5.328369141	8.409118652	0.00667572	-0.002813339	0.000572205	-0.177978516	-0.077636719	-0.995117188	885.22	-32.74604882	7.25048915	135.496701	-68
10168	0	-0.051053047	-0.209688187	0.334228516	1	3.05176E-05	1.23978E-05	4.1008E-05	-1.27632618	-5.242204666	8.355712891	0.001525879	0.000619888	0.0020504	-0.177978516	-0.077636719	-0.995117188	885.22	-32.73096304	7.252910373	135.4907738	-68
10169	0	-0.052978516	-0.21105957	0.335998535	0.999999046	-8.39233E-05	-4.48227E-05	2.67029E-05	-1.324462891	-5.276489258	8.399963379	-0.004196167	-0.002241135	0.001335144	-0.177978516	-0.077636719	-0.995117188	885.22	-32.72886712	7.249061788	135.4869967	-67
10170	0	-0.051799774	-0.212334633	0.335600853	0.999999046	-0.000106812	8.58307E-05	0.0001297	-1.294994354	-5.308365822	8.390021324	-0.005340576	0.004291534	0.006484985	-0.177978516	-0.077636719	-0.995117188	885.22	-32.72937485	7.264256653	135.4850415	-68
10171	0	-0.051513672	-0.211120605	0.334655762	0.999999046	1.14441E-05	-0.000117302	7.62939E-05	-1.287841797	-5.278015137	8.366394043	0.000572205	-0.005865097	0.003814697	-0.177978516	-0.077636719	-0.995117188	885.22	-32.71556637	7.256614504	135.4905457	-67
10172	0	-0.051466942	-0.211166382	0.336441994	1	1.71661E-05	-3.52859E-05	1.43051E-05	-1.286673546	-5.279159546	8.411049843	0.000858307	-0.001764297	0.000715256	-0.177978516	-0.077636719	-0.995117188	885.22	-32.70264521	7.253084571	135.4848849	-67
10173	0	-0.052062988	-0.211303711	0.334838867	0.999999046	-3.8147E-06	-9.82285E-05	7.24792E-05	-1.301574707	-5.282592773	8.37097168	-0.000190735	-0.004911423	0.003623962	-0.177978516	-0.077636719	-0.995117188	885.22	-32.69110446	7.247169405	135.4887696	-67
10174	0	-0.050745964	-0.210567474	0.335639954	0.999999046	7.05719E-05	-7.43866E-05	-3.14713E-05	-1.268649101	-5.264186859	8.39099884	0.003528595	-0.00371933	-0.001573563	-0.177978516	-0.077636719	-0.995117188	885.22	-32.67263327	7.237135282	135.4810417	-67
10175	0	-0.051330566	-0.2109375	0.334533691	0.999999046	-3.8147E-06	-8.67844E-05	9.15527E-05	-1.28326416	-5.2734375	8.363342285	-0.000190735	-0.004339218	0.004577637	-0.177978516	-0.077636719	-0.995117188	885.22	-32.66126229	7.233568042	135.4860122	-68
10176	0	-0.052042961	-0.211663246	0.336127281	0.999999046	0.000134468	1.33514E-05	3.71933E-05	-1.301074028	-5.291581154	8.40318203	0.006723404	0.000667572	0.001859665	-0.177978516	-0.077636719	-0.995117188	885.22	-32.63566442	7.236376661	135.4794416	-68
10177	0	-0.052429199	-0.210632324	0.336853027	0.999999046	0	-9.44138E-05	0.000106812	-1.31072998	-5.265808105	8.421325684	0	-0.004720688	0.005340576	-0.177978516	-0.077636719	-0.995117188	885.22	-32.62388482	7.233181088	135.4863259	-67
10178	0	-0.051555634	-0.210682869	0.336008072	0.999999046	7.62939E-05	-6.29425E-05	8.67844E-05	-1.288890839	-5.267071724	8.400201797	0.003814697	-0.003147125	0.004339218	-0.177978516	-0.077636719	-0.995117188	885.22	-32.60398927	7.231834611	135.4892806	-68
10179	0	-0.051452637	-0.210693359	0.335876465	0.999999046	-7.24792E-05	-7.53403E-05	3.43323E-05	-1.286315918	-5.267333984	8.396911621	-0.003623962	-0.003767014	0.001716614	-0.177978516	-0.077636719	-0.995117188	885.22	-32.60182915	7.226097741	135.4878718	-67
10180	0	-0.052209854	-0.21031189	0.335426331	0.999999046	-6.38962E-05	-0.000116348	0.000128746	-1.305246353	-5.257797241	8.385658264	-0.003194809	-0.005817413	0.006437302	-0.177978516	-0.077636719	-0.995117188	885.22	-32.59734394	7.222318157	135.4981701	-67
10181	0	-0.051818848	-0.212768555	0.336181641	0.999999046	-6.48499E-05	-4.86374E-05	-5.72205E-05	-1.295471191	-5.319213867	8.404541016	-0.003242493	-0.00243187	-0.002861023	-0.177978516	-0.077636719	-0.995117188	885.22	-32.59598998	7.213649897	135.4861276	-68
10182	0	-0.050357819	-0.210803986	0.33518219	0.999999046	0.000110626	-6.10352E-05	4.86374E-05	-1.258945465	-5.27009964	8.379554749	0.005531311	-0.003051758	0.00243187	-0.177978516	-0.077636719	-0.995117188	885.22	-32.57329212	7.21031671	135.4851402	-67
10183	0	-0.052490234	-0.210021973	0.334777832	0.999999046	-6.48499E-05	-0.000132561	3.05176E-05	-1.312255859	-5.250549316	8.369445801	-0.003242493	-0.006628037	0.001525879	-0.177978516	-0.077636719	-0.995117188	885.22	-32.57050252	7.199067489	135.4867988	-67
10184	0	-0.051620483	-0.211344719	0.336411476	0.999999046	-0.000174522	-7.82013E-05	9.91821E-05	-1.290512085	-5.283617973	8.410286903	-0.00872612	-0.003910065	0.004959106	-0.177978516	-0.077636719	-0.995117188	885.22	-32.58001279	7.197355816	135.4917288	-67
10185	0	-0.051757813	-0.210754395	0.336730957	0.999999046	-0.000137329	-0.000136375	0.000133514	-1.293945313	-5.268859863	8.418273926	-0.006866455	-0.006818771	0.00667572	-0.177978516	-0.077636719	-0.995117188	885.22	-32.58449425	7.192203427	135.5035928	-67
10186	0	-0.050806999	-0.211016655	0.335770607	0.999999046	-0.000146866	-3.05176E-05	-2.28882E-05	-1.27017498	-5.275416374	8.394265175	-0.007343292	-0.001525879	-0.001144409	-0.177978516	-0.077636719	-0.995117188	885.22	-32.59293661	7.187635343	135.4936372	-67
10187	0	-0.052001953	-0.212524414	0.334838867	0.999999046	-3.8147E-06	-2.19345E-05	-5.34058E-05	-1.300048828	-5.313110352	8.37097168	-0.000190735	-0.001096725	-0.002670288	-0.177978516	-0.077636719	-0.995117188	885.22	-32.58564575	7.182091324	135.4801531	-68
10188	0	-0.051049232	-0.212716103	0.334838867	0.999999046	0.0001688	-0.00012207	0.000189781	-1.276230812	-5.317902565	8.37097168	0.008440018	-0.006103516	0.00948906	-0.177978516	-0.077636719	-0.995117188	885.22	-32.55506317	7.18191195	135.4965286	-67
10189	0	-0.051391602	-0.210266113	0.337219238	0.999999046	0.000225067	-2.19345E-05	6.86646E-05	-1.284790039	-5.256652832	8.430480957	0.011253357	-0.001096725	0.003433228	-0.177978516	-0.077636719	-0.995117188	885.22	-32.5203458	7.183971988	135.494892	-67
10190	0	-0.051527977	-0.21090126	0.336522102	0.999999046	4.76837E-05	-1.14441E-05	3.8147E-05	-1.288199425	-5.272531509	8.413052559	0.002384186	-0.000572205	0.001907349	-0.177978516	-0.077636719	-0.995117188	885.22	-32.50652626	7.185215001	135.4896109	-68
10191	0	-0.053161621	-0.212402344	0.335266113	0.999999046	6.86646E-05	-0.000144005	6.10352E-05	-1.329040527	-5.310058594	8.381652832	0.003433228	-0.007200241	0.003051758	-0.177978516	-0.077636719	-0.995117188	885.22	-32.48921392	7.175186234	135.4947356	-68
10192	0	-0.051504135	-0.210458755	0.334942818	0.999999046	0.000145912	-5.91278E-05	4.48227E-05	-1.287603378	-5.261468887	8.373570442	0.007295609	-0.00295639	0.002241135	-0.177978516	-0.077636719	-0.995117188	885.22	-32.46404952	7.172417551	135.492994	-68
10193	0	-0.051025391	-0.210266113	0.336608887	0.999999046	-4.95911E-05	-7.9155E-05	0.000217438	-1.275634766	-5.256652832	8.415222168	-0.002479553	-0.003957748	0.010871887	-0.177978516	-0.077636719	-0.995117188	885.22	-32.45912738	7.178350239	135.5092869	-68
10194	0	-0.050941467	-0.210582733	0.336290359	0.999999046	-9.72748E-05	-8.7738E-05	2.67029E-05	-1.273536682	-5.264568329	8.407258987	-0.004863739	-0.004386902	0.001335144	-0.177978516	-0.077636719	-0.995117188	885.22	-32.46204137	7.171735932	135.5075005	-68
10195	0	-0.051879883	-0.21105957	0.334594727	0.999999046	-4.57764E-05	-2.86102E-06	6.86646E-05	-1.29699707	-5.276489258	8.364868164	-0.002288818	-0.000143051	0.003433228	-0.177978516	-0.077636719	-0.995117188	885.22	-32.45938021	7.175981161	135.5045191	-68
10196	0	-0.051297188	-0.213219643	0.336222649	0.999999046	1.04904E-05	-1.52588E-05	-7.62939E-05	-1.282429695	-5.330491066	8.405566216	0.000524521	-0.000762939	-0.003814697	-0.177978516	-0.077636719	-0.995117188	885.22	-32.45216382	7.170138332	135.4881516	-67
10197	0	-0.051513672	-0.210693359	0.335754395	0.999999046	2.28882E-05	-7.9155E-05	0.000106812	-1.287841797	-5.267333984	8.393859863	0.001144409	-0.003957748	0.005340576	-0.177978516	-0.077636719	-0.995117188	885.22	-32.44092951	7.169423928	135.4935621	-67
10198	0	-0.052420616	-0.211033821	0.335771561	0.999999046	-9.91821E-05	-2.67029E-05	3.8147E-05	-1.310515404	-5.275845528	8.394289017	-0.004959106	-0.001335144	0.001907349	-0.177978516	-0.077636719	-0.995117188	885.22	-32.44506419	7.169650348	135.4890025	-67
10199	0	-0.052185059	-0.213012695	0.336303711	0.999999046	7.62939E-06	-8.67844E-05	4.19617E-05	-1.304626465	-5.325317383	8.407592773	0.00038147	-0.004339218	0.002098083	-0.177978516	-0.077636719	-0.995117188	885.22	-32.43665349	7.164367345	135.4885023	-67
10200	0	-0.051594734	-0.211234093	0.335399628	0.999999046	-3.33786E-05	-1.52588E-05	8.39233E-05	-1.289868355	-5.280852318	8.384990692	-0.00166893	-0.000762939	0.004196167	-0.177978516	-0.077636719	-0.995117188	885.22	-32.43313551	7.168628449	135.4876391	-68
10201	0	-0.050720215	-0.210998535	0.334655762	0.999999046	-3.8147E-06	3.52859E-05	0	-1.268005371	-5.274963379	8.366394043	-0.000190735	0.001764297	0	-0.177978516	-0.077636719	-0.995117188	885.22	-32.42780037	7.172627354	135.4754492	-67
10202	0	-0.051720619	-0.21246624	0.334039688	0.999999046	-9.53674E-06	-0.000125885	6.38962E-05	-1.29301548	-5.311655998	8.350992203	-0.000476837	-0.006294251	0.003194809	-0.177978516	-0.077636719	-0.995117188	885.22	-32.42133385	7.165016943	135.4794205	-68
10203	0	-0.052185059	-0.211486816	0.336486816	0.999999046	0.000183105	-6.67572E-06	0.000114441	-1.304626465	-5.28717041	8.41217041	0.009155274	-0.000333786	0.005722046	-0.177978516	-0.077636719	-0.995117188	885.22	-32.39322128	7.172109513	135.4809311	-67
10204	0	-0.050703049	-0.210132599	0.334244728	0.999999046	7.9155E-05	-0.000137329	0.000160217	-1.267576218	-5.253314972	8.356118202	0.003957748	-0.006866455	0.008010864	-0.177978516	-0.077636719	-0.995117188	885.22	-32.37558653	7.169372057	135.4949593	-68
10205	0	-0.051330566	-0.211181641	0.335388184	0.999999046	6.48499E-05	-4.86374E-05	-0.000106812	-1.28326416	-5.279541016	8.38470459	0.003242493	-0.00243187	-0.005340576	-0.177978516	-0.077636719	-0.995117188	885.22	-32.36367461	7.158861113	135.4774358	-67
10206	0	-0.051923752	-0.211576462	0.337068558	1	2.57492E-05	1.23978E-05	6.67572E-06	-1.298093796	-5.289411545	8.426713943	0.00128746	0.000619888	0.000333786	-0.177978516	-0.077636719	-0.995117188	885.22	-32.35545378	7.161273957	135.467192	-67
10207	0	-0.050720215	-0.210876465	0.335144043	0.999999046	-7.24792E-05	-1.43051E-05	0.000114441	-1.268005371	-5.271911621	8.378601074	-0.003623962	-0.000715256	0.005722046	-0.177978516	-0.077636719	-0.995117188	885.22	-32.35711571	7.167712262	135.4690843	-67
10208	0	-0.050637245	-0.211829185	0.334748268	0.999999046	1.81198E-05	-5.91278E-05	6.77109E-05	-1.265931129	-5.295729637	8.368706703	0.000905991	-0.00295639	0.003385544	-0.177978516	-0.077636719	-0.995117188	885.22	-32.34880906	7.166938404	135.4691586	-67
10209	0	-0.051269531	-0.211425781	0.334899902	0.999999046	-3.8147E-05	8.58307E-06	4.57764E-05	-1.281738281	-5.285644531	8.372497559	-0.001907349	0.000429153	0.002288818	-0.177978516	-0.077636719	-0.995117188	885.22	-32.34790618	7.171400459	135.4628852	-67
10210	0	-0.051538467	-0.211446762	0.335309982	0.999999046	7.05719E-05	-0.000104904	0.000121117	-1.288461685	-5.286169052	8.382749557	0.003528595	-0.005245209	0.006055832	-0.177978516	-0.077636719	-0.995117188	885.22	-32.33290448	7.169528687	135.4709469	-67
10211	0	-0.051818848	-0.211242676	0.333618164	0.999999046	-4.95911E-05	-7.9155E-05	9.91821E-05	-1.295471191	-5.281066895	8.340454102	-0.002479553	-0.003957748	0.004959106	-0.177978516	-0.077636719	-0.995117188	885.22	-32.33232901	7.168862011	135.4752414	-67
10212	0	-0.051441193	-0.213341713	0.337266922	0.999999046	7.53403E-05	-4.00543E-05	-9.63211E-05	-1.286029816	-5.333542824	8.43167305	0.003767014	-0.002002716	-0.004816055	-0.177978516	-0.077636719	-0.995117188	885.22	-32.3202958	7.160013191	135.4580236	-67
10213	0	-0.051269531	-0.210510254	0.335144043	0.999999046	-4.95911E-05	-7.15256E-05	9.53674E-05	-1.281738281	-5.262756348	8.378601074	-0.002479553	-0.003576279	0.004768372	-0.177978516	-0.077636719	-0.995117188	885.22	-32.32011601	7.159889708	135.4614307	-67
10214	0	-0.051445007	-0.211388588	0.336045265	0.999999046	-5.14984E-05	-9.91821E-05	-4.76837E-06	-1.286125183	-5.284714699	8.40113163	-0.002574921	-0.004959106	-0.000238419	-0.177978516	-0.077636719	-0.995117188	885.22	-32.32128246	7.150979628	135.4567483	-67
10215	0	-0.051452637	-0.212036133	0.335876465	0.999999046	-0.000102997	-0.000109673	7.24792E-05	-1.286315918	-5.30090332	8.396911621	-0.005149841	-0.005483627	0.003623962	-0.177978516	-0.077636719	-0.995117188	885.22	-32.3274824	7.14581479	135.4602225	-68
10216	0	-0.051226616	-0.210999489	0.334745407	0.999999046	-8.67844E-05	3.8147E-05	1.14441E-05	-1.280665398	-5.274987221	8.368635178	-0.004339218	0.001907349	0.000572205	-0.177978516	-0.077636719	-0.995117188	885.22	-32.33383348	7.151250503	135.4486024	-67
10217	0	-0.051269531	-0.211914063	0.334716797	0.999999046	-0.000102997	-1.81198E-05	0.000102997	-1.281738281	-5.297851563	8.367919922	-0.005149841	-0.000905991	0.005149841	-0.177978516	-0.077636719	-0.995117188	885.22	-32.3406643	7.156873299	135.4493647	-67
10218	0	-0.05221653	-0.212461472	0.335956573	0.999999046	-4.3869E-05	-6.67572E-05	0.000113487	-1.305413246	-5.311536789	8.398914337	-0.002193451	-0.00333786	0.005674362	-0.177978516	-0.077636719	-0.995117188	885.22	-32.34036647	7.1584904	135.4541288	-67
10219	0	-0.051330566	-0.211486816	0.336242676	0.999999046	8.39233E-05	-2.57492E-05	8.01086E-05	-1.28326416	-5.28717041	8.406066895	0.004196167	-0.00128746	0.004005432	-0.177978516	-0.077636719	-0.995117188	885.22	-32.3262415	7.162047147	135.4530968	-67
10220	0	-0.051163673	-0.211911201	0.335426331	0.999999046	0.000113487	-8.2016E-05	7.24792E-05	-1.279091835	-5.297780037	8.385658264	0.005674362	-0.0041008	0.003623962	-0.177978516	-0.077636719	-0.995117188	885.22	-32.30852682	7.159696369	135.4547746	-67
10221	0	-0.052124023	-0.211853027	0.334960938	0.999999046	0.000179291	-0.000182152	0	-1.303100586	-5.296325684	8.374023438	0.008964539	-0.00910759	0	-0.177978516	-0.077636719	-0.995117188	885.22	-32.28353483	7.143267869	135.4555243	-67
10222	0	-0.051939964	-0.210695267	0.337008476	0.999999046	6.86646E-05	-8.7738E-05	6.48499E-05	-1.298499107	-5.267381668	8.425211906	0.003433228	-0.004386902	0.003242493	-0.177978516	-0.077636719	-0.995117188	885.22	-32.27120747	7.140002756	135.4567661	-67
10223	0	-0.051147461	-0.2109375	0.33605957	0.999999046	1.52588E-05	-0.000182152	-2.28882E-05	-1.278686523	-5.2734375	8.401489258	0.000762939	-0.00910759	-0.001144409	-0.177978516	-0.077636719	-0.995117188	885.22	-32.26543081	7.122233944	135.4552364	-67
10224	0	-0.051269531	-0.21282959	0.335754395	0.999999046	3.52859E-05	-4.57764E-05	-3.05176E-05	-1.281738281	-5.320739746	8.393859863	0.001764297	-0.002288818	-0.001525879	-0.177978516	-0.077636719	-0.995117188	885.22	-32.25867288	7.117233665	135.444534	-67
10225	0	-0.051635742	-0.213195801	0.334838867	0.999999046	0.000106812	-2.95639E-05	3.8147E-05	-1.290893555	-5.32989502	8.37097168	0.005340576	-0.001478195	0.001907349	-0.177978516	-0.077636719	-0.995117188	885.22	-32.24322919	7.118049083	135.4395118	-67
10226	0	-0.051387787	-0.21098423	0.335802078	0.999999046	0.000303268	-0.000196457	8.7738E-05	-1.284694672	-5.274605751	8.395051956	0.015163422	-0.009822846	0.004386902	-0.177978516	-0.077636719	-0.995117188	885.22	-32.20349609	7.105749428	135.449592	-67
10227	0	-0.050964355	-0.209899902	0.334777832	0.999999046	3.05176E-05	-0.000159264	6.10352E-05	-1.274108887	-5.247497559	8.369445801	0.001525879	-0.007963181	0.003051758	-0.177978516	-0.077636719	-0.995117188	885.22	-32.19571398	7.09544375	135.4547425	-67
10228	0	-0.05100441	-0.211032867	0.337064743	0.999999046	-0.000164986	-0.000106812	2.28882E-05	-1.275110245	-5.275821686	8.426618576	-0.008249283	-0.005340576	0.001144409	-0.177978516	-0.077636719	-0.995117188	885.22	-32.21126951	7.087906286	135.4529173	-67
10229	0	-0.05090332	-0.212097168	0.335876465	0.999999046	7.62939E-05	-9.44138E-05	4.19617E-05	-1.272583008	-5.302429199	8.396911621	0.003814697	-0.004720688	0.002098084	-0.177978516	-0.077636719	-0.995117188	885.22	-32.19918649	7.082747545	135.4521799	-67
10230	0	-0.051528931	-0.211248398	0.335979462	0.999999046	-9.15527E-05	-7.62939E-05	6.48499E-05	-1.288223267	-5.281209946	8.399486542	-0.004577637	-0.003814697	0.003242493	-0.177978516	-0.077636719	-0.995117188	885.22	-32.20630605	7.080790557	135.4525426	-67
10231	0	-0.051391602	-0.211791992	0.336303711	0.999999046	-1.52588E-05	-0.00014782	3.05176E-05	-1.284790039	-5.294799805	8.407592773	-0.000762939	-0.007390976	0.001525879	-0.177978516	-0.077636719	-0.995117188	885.22	-32.20467024	7.069837566	135.4539308	-67
10232	0	-0.051732063	-0.211128235	0.336129189	0.999999046	2.38419E-05	-2.86102E-05	0.00014782	-1.293301582	-5.278205872	8.403229713	0.001192093	-0.001430511	0.007390976	-0.177978516	-0.077636719	-0.995117188	885.22	-32.1981356	7.077665687	135.4594372	-67
10233	0	-0.050354004	-0.210693359	0.336303711	0.999999046	-1.52588E-05	-9.05991E-05	-6.48499E-05	-1.258850098	-5.267333984	8.407592773	-0.000762939	-0.004529953	-0.003242493	-0.177978516	-0.077636719	-0.995117188	885.22	-32.19823699	7.066483256	135.4479683	-67
10234	0	-0.051363945	-0.21254158	0.335085869	0.999999046	-1.14441E-05	-0.000108719	4.48227E-05	-1.284098625	-5.313539505	8.377146721	-0.000572205	-0.005435944	0.002241135	-0.177978516	-0.077636719	-0.995117188	885.22	-32.19662232	7.060282266	135.4483002	-67
10235	0	-0.051940918	-0.212341309	0.3359375	0.999999046	0.000144958	-9.44138E-05	9.15527E-05	-1.298522949	-5.308532715	8.3984375	0.007247925	-0.004720688	0.004577637	-0.177978516	-0.077636719	-0.995117188	885.22	-32.17677375	7.058388638	135.4523008	-67
10236	0	-0.05090332	-0.209777832	0.3359375	0.999999046	-0.000224113	2.28882E-05	9.91821E-05	-1.272583008	-5.244445801	8.3984375	-0.011205673	0.001144409	0.004959106	-0.177978516	-0.077636719	-0.995117188	885.22	-32.20004704	7.068359603	135.4498209	-67
10237	0	-0.05090332	-0.212219238	0.335021973	0.999999046	-0.000137329	-0.000155449	-2.67029E-05	-1.272583008	-5.305480957	8.375549316	-0.006866455	-0.007772446	-0.001335144	-0.177978516	-0.077636719	-0.995117188	885.22	-32.21369385	7.053365574	135.4459812	-67
10238	0	-0.051764488	-0.213413239	0.335223198	0.999999046	0.00030899	-9.91821E-05	4.48227E-05	-1.294112206	-5.335330963	8.380579948	0.015449524	-0.004959107	0.002241135	-0.177978516	-0.077636719	-0.995117188	885.22	-32.17595545	7.048254513	135.4456559	-67
10239	0	-0.051696777	-0.210754395	0.335998535	0.999999046	0.00019455	-6.77109E-05	6.48499E-05	-1.292419434	-5.268859863	8.399963379	0.009727478	-0.003385544	0.003242493	-0.177978516	-0.077636719	-0.995117188	885.22	-32.15139348	7.047478695	135.445343	-67
10240	0	-0.050702095	-0.209641457	0.335903168	0.999999046	4.1008E-05	-9.53674E-05	3.05176E-05	-1.267552376	-5.241036415	8.397579193	0.0020504	-0.004768372	0.001525879	-0.177978516	-0.077636719	-0.995117188	885.22	-32.14465571	7.041939568	135.4433605	-67
10241	0	-0.05078125	-0.211364746	0.336791992	0.999999046	-0.000114441	-0.000197411	8.01086E-05	-1.26953125	-5.284118652	8.419799805	-0.005722046	-0.009870529	0.004005432	-0.177978516	-0.077636719	-0.995117188	885.22	-32.15444705	7.029532254	135.4524639	-67
10242	0	-0.050988197	-0.212593079	0.335115433	0.999999046	0.000165939	-0.000131607	3.71933E-05	-1.274704933	-5.314826965	8.377885818	0.008296967	-0.006580353	0.001859665	-0.177978516	-0.077636719	-0.995117188	885.22	-32.13328957	7.020919707	135.4533143	-68
10243	0	-0.051208496	-0.2109375	0.335388184	0.999999046	0.000247955	-9.05991E-05	6.86646E-05	-1.280212402	-5.2734375	8.38470459	0.012397766	-0.004529953	0.003433228	-0.177978516	-0.077636719	-0.995117188	885.22	-32.10276124	7.018249318	135.4547162	-67
10244	0	-0.051757813	-0.20916748	0.335998535	0.999999046	3.52859E-05	-0.000175476	0.000137329	-1.293945313	-5.229187012	8.399963379	0.001764298	-0.008773804	0.006866455	-0.177978516	-0.077636719	-0.995117188	885.22	-32.09515736	7.011595065	135.4680207	-68
10245	0	-0.051025391	-0.211547852	0.337280273	0.999999046	-0.000297546	-7.53403E-05	-0.000118256	-1.275634766	-5.288696289	8.432006836	-0.01487732	-0.003767014	-0.005912781	-0.177978516	-0.077636719	-0.995117188	885.22	-32.12957424	6.999118408	135.4501658	-67
10246	0	-0.050130844	-0.211637497	0.335453033	0.999999046	-0.000196457	1.33514E-05	-3.8147E-05	-1.253271103	-5.290937424	8.386325836	-0.009822846	0.000667572	-0.001907349	-0.177978516	-0.077636719	-0.995117188	885.22	-32.1522349	7.000115244	135.4346939	-68
10247	0	-0.051757813	-0.212097168	0.333862305	0.999999046	9.91821E-05	-6.77109E-05	8.39233E-05	-1.293945313	-5.302429199	8.346557617	0.004959106	-0.003385544	0.004196167	-0.177978516	-0.077636719	-0.995117188	885.22	-32.1391291	7.000769497	135.4361165	-68
10248	0	-0.051320076	-0.210985184	0.335680962	0.999999046	0.000254631	-0.000143051	0.000136375	-1.2830019	-5.274629593	8.39202404	0.012731552	-0.007152557	0.006818771	-0.177978516	-0.077636719	-0.995117188	885.22	-32.10709607	6.997357788	135.4472837	-67
10249	0	-0.05078125	-0.209655762	0.336975098	0.999999046	-8.01086E-05	-9.82285E-05	1.90735E-05	-1.26953125	-5.241394043	8.424377441	-0.004005432	-0.004911423	0.000953674	-0.177978516	-0.077636719	-0.995117188	885.22	-32.11514551	6.991169803	135.444219	-67
10250	0	-0.050845146	-0.210684776	0.336218834	0.999999046	-0.000234604	-0.000114441	2.67029E-05	-1.271128654	-5.267119408	8.405470848	-0.011730194	-0.005722046	0.001335144	-0.177978516	-0.077636719	-0.995117188	885.22	-32.1407402	6.983898851	135.4428769	-67
10251	0	-0.051025391	-0.211914063	0.334960938	0.999999046	-8.39233E-05	-6.77109E-05	7.24792E-05	-1.275634766	-5.297851563	8.374023438	-0.004196167	-0.003385544	0.003623962	-0.177978516	-0.077636719	-0.995117188	885.22	-32.14900324	6.983992165	135.4431283	-67
10252	0	-0.050460815	-0.211414337	0.335359573	0.999999046	0.000109673	-5.91278E-05	3.33786E-05	-1.261520386	-5.285358429	8.383989334	0.005483627	-0.00295639	0.00166893	-0.177978516	-0.077636719	-0.995117188	885.22	-32.13570254	6.982544332	135.4390307	-67
10253	0	-0.050354004	-0.210327148	0.335021973	0.999999046	8.7738E-05	-0.000155449	6.86646E-05	-1.258850098	-5.258178711	8.375549316	0.004386902	-0.007772446	0.003433228	-0.177978516	-0.077636719	-0.995117188	885.22	-32.1238337	6.973910736	135.4442837	-67
10254	0	-0.051438332	-0.210566521	0.336050987	0.999999046	0.000108719	-7.43866E-05	-3.52859E-05	-1.28595829	-5.264163017	8.401274681	0.005435944	-0.00371933	-0.001764297	-0.177978516	-0.077636719	-0.995117188	885.22	-32.11144045	6.966871707	135.4343942	-67
10255	0	-0.051513672	-0.2109375	0.335632324	0.999999046	0	-7.15256E-05	1.52588E-05	-1.287841797	-5.2734375	8.390808105	0	-0.003576279	0.000762939	-0.177978516	-0.077636719	-0.995117188	885.22	-32.11099912	6.963257387	135.4292556	-68
10256	0	-0.050556183	-0.210143089	0.335639	0.999999046	-6.67572E-06	-0.000123978	0.00012207	-1.263904572	-5.253577232	8.390974998	-0.000333786	-0.006198883	0.006103516	-0.177978516	-0.077636719	-0.995117188	885.22	-32.10970202	6.96107872	135.437767	-68
10257	0	-0.050537109	-0.210327148	0.335754395	0.999999046	-0.000125885	-4.86374E-05	-3.8147E-06	-1.263427734	-5.258178711	8.393859863	-0.006294251	-0.00243187	-0.000190735	-0.177978516	-0.077636719	-0.995117188	885.22	-32.12415746	6.958562708	135.4293402	-68
10258	0	-0.050380707	-0.211877823	0.336438179	0.999999046	-4.57764E-05	-5.53131E-05	2.95639E-05	-1.25951767	-5.296945572	8.410954475	-0.002288818	-0.002765656	0.001478195	-0.177978516	-0.077636719	-0.995117188	885.22	-32.12907053	6.957434387	135.4245793	-68
10259	0	-0.051025391	-0.211242676	0.336364746	0.999999046	0.000137329	-2.19345E-05	0	-1.275634766	-5.281066895	8.409118652	0.006866455	-0.001096725	0	-0.177978516	-0.077636719	-0.995117188	885.22	-32.11365303	6.957782692	135.4148837	-67
10260	0	-0.051254272	-0.210418701	0.334898949	0.999999046	1.23978E-05	-5.34058E-05	0.000167847	-1.281356812	-5.260467529	8.372473717	0.000619888	-0.002670288	0.008392334	-0.177978516	-0.077636719	-0.995117188	885.22	-32.11039025	6.965360815	135.4235154	-68
10261	0	-0.051635742	-0.210327148	0.336181641	0.999999046	-5.72205E-05	5.05447E-05	0	-1.290893555	-5.258178711	8.404541016	-0.002861023	0.002527237	0	-0.177978516	-0.077636719	-0.995117188	885.22	-32.11789158	6.972870881	135.4093561	-68
10262	0	-0.050632477	-0.212563515	0.336701393	0.999999046	-0.000137329	-8.01086E-05	-0.000126839	-1.26581192	-5.314087868	8.417534828	-0.006866455	-0.004005432	-0.006341934	-0.177978516	-0.077636719	-0.995117188	885.22	-32.13520561	6.959972013	135.3907924	-68
10263	0	-0.051025391	-0.209960938	0.335510254	0.999999046	-9.53674E-05	-0.000124931	0.000228882	-1.275634766	-5.249023438	8.387756348	-0.004768372	-0.006246567	0.011444092	-0.177978516	-0.077636719	-0.995117188	885.22	-32.14317303	6.964445868	135.4097428	-68
10264	0	-0.051588058	-0.21195507	0.335909843	0.999999046	-3.14713E-05	-0.000160217	5.62668E-05	-1.289701462	-5.298876762	8.397746086	-0.001573563	-0.008010864	0.002813339	-0.177978516	-0.077636719	-0.995117188	885.22	-32.14568494	6.955031504	135.4139725	-68
10265	0	-0.051025391	-0.211730957	0.336669922	0.999999046	2.28882E-05	-0.000136375	8.01086E-05	-1.275634766	-5.293273926	8.416748047	0.001144409	-0.006818771	0.004005432	-0.177978516	-0.077636719	-0.995117188	885.22	-32.14191423	6.949412376	135.4190638	-68
10266	0	-0.050845146	-0.210975647	0.335655212	0.999999046	1.90735E-05	7.43866E-05	6.77109E-05	-1.271128654	-5.274391174	8.39138031	0.000953674	0.00371933	0.003385544	-0.177978516	-0.077636719	-0.995117188	885.22	-32.14034094	6.963515791	135.4100123	-68
10267	0	-0.050720215	-0.211181641	0.334899902	0.999999046	-5.34058E-05	-1.43051E-05	7.62939E-05	-1.268005371	-5.279541016	8.372497559	-0.002670288	-0.000715256	0.003814697	-0.177978516	-0.077636719	-0.995117188	885.22	-32.1463874	6.969556488	135.4072338	-68
10268	0	-0.051170349	-0.211454391	0.336037636	0.999999046	5.62668E-05	-8.2016E-05	7.15256E-05	-1.279258728	-5.286359787	8.400940895	0.002813339	-0.0041008	0.003576279	-0.177978516	-0.077636719	-0.995117188	885.22	-32.1394699	6.968769549	135.4081391	-67
10269	0	-0.050354004	-0.210693359	0.335571289	0.999999046	9.91821E-05	-5.62668E-05	8.39233E-05	-1.258850098	-5.267333984	8.389282227	0.004959106	-0.002813339	0.004196167	-0.177978516	-0.077636719	-0.995117188	885.22	-32.12771182	6.971232854	135.4086747	-68
10270	0	-0.0511446	-0.210802078	0.334702492	0.999999046	-5.91278E-05	-5.72205E-05	4.95911E-05	-1.278614998	-5.270051956	8.367562294	-0.00295639	-0.002861023	0.002479553	-0.177978516	-0.077636719	-0.995117188	885.22	-32.13455899	6.971550475	135.4058973	-67
10271	0	-0.051452637	-0.211608887	0.336975098	0.999999046	7.24792E-05	-0.000105858	0.000137329	-1.286315918	-5.290222168	8.424377441	0.003623962	-0.005292892	0.006866455	-0.177978516	-0.077636719	-0.995117188	885.22	-32.12495422	6.972534529	135.4146769	-68
10272	0	-0.051012039	-0.210570335	0.333964348	0.999999046	-1.62125E-05	-0.000144958	0.000118256	-1.27530098	-5.264258385	8.349108696	-0.000810623	-0.007247925	0.005912781	-0.177978516	-0.077636719	-0.995117188	885.22	-32.12551975	6.968595553	135.4239738	-67
10273	0	-0.051147461	-0.210449219	0.337219238	1	2.38419E-05	-1.14441E-05	1.52588E-05	-1.278686523	-5.261230469	8.430480957	0.001192093	-0.000572205	0.000762939	-0.177978516	-0.077636719	-0.995117188	885.22	-32.1236888	6.971362896	135.4150191	-68
10274	0	-0.051146507	-0.21177578	0.336253166	0.999999046	-6.10352E-05	-7.62939E-05	8.7738E-05	-1.278662682	-5.294394493	8.406329155	-0.003051758	-0.003814697	0.004386902	-0.177978516	-0.077636719	-0.995117188	885.22	-32.13030265	6.972277913	135.4171175	-67
10275	0	-0.051208496	-0.211242676	0.337219238	0.999999046	-1.52588E-05	2.38419E-05	5.72205E-05	-1.280212402	-5.281066895	8.430480957	-0.000762939	0.001192093	0.002861023	-0.177978516	-0.077636719	-0.995117188	885.22	-32.13278835	6.981073598	135.4100922	-67
10276	0	-0.051187515	-0.210881233	0.335561752	0.999999046	-1.23978E-05	-7.82013E-05	7.9155E-05	-1.279687881	-5.27203083	8.389043808	-0.000619888	-0.003910065	0.003957748	-0.177978516	-0.077636719	-0.995117188	885.22	-32.13396125	6.981332335	135.4114667	-68
10277	0	-0.050842285	-0.210693359	0.335144043	0.999999046	-0.000125885	-0.000105858	-7.62939E-06	-1.271057129	-5.267333984	8.378601074	-0.006294251	-0.005292892	-0.00038147	-0.177978516	-0.077636719	-0.995117188	885.22	-32.14900158	6.973630011	135.4060433	-67
10278	0	-0.051805496	-0.21077919	0.336932182	1	-2.76566E-05	-3.71933E-05	-8.58307E-06	-1.295137405	-5.269479752	8.423304558	-0.001382828	-0.001859665	-0.000429153	-0.177978516	-0.077636719	-0.995117188	885.22	-32.15329627	6.972584658	135.396318	-67
10279	0	-0.049926758	-0.211669922	0.337341309	0.999999046	-7.24792E-05	-7.15256E-05	4.57764E-05	-1.248168945	-5.291748047	8.433532715	-0.003623962	-0.003576279	0.002288818	-0.177978516	-0.077636719	-0.995117188	885.22	-32.16183983	6.971476707	135.3940134	-67
10280	0	-0.050081253	-0.20976162	0.335486412	0.999999046	-0.000119209	-3.8147E-06	-2.28882E-05	-1.252031326	-5.244040489	8.387160301	-0.005960464	-0.000190735	-0.001144409	-0.177978516	-0.077636719	-0.995117188	885.22	-32.17703629	6.972725864	135.3808461	-67
10281	0	-0.052001953	-0.211425781	0.3359375	0.999999046	-3.8147E-05	-0.000159264	0	-1.300048828	-5.285644531	8.3984375	-0.001907349	-0.007963181	0	-0.177978516	-0.077636719	-0.995117188	885.22	-32.18154514	6.960360705	135.3794586	-68
10282	0	-0.050978661	-0.211086273	0.337341309	0.999999046	-9.91821E-05	-0.000165939	0.000110626	-1.274466515	-5.27715683	8.433532715	-0.004959106	-0.008296967	0.005531311	-0.177978516	-0.077636719	-0.995117188	885.22	-32.19166589	6.954113257	135.3892861	-68
10283	0	-0.050415039	-0.210083008	0.335693359	0.999999046	-0.000156403	3.14713E-05	8.7738E-05	-1.260375977	-5.252075195	8.392333984	-0.007820129	0.001573563	0.004386902	-0.177978516	-0.077636719	-0.995117188	885.22	-32.21006112	6.965610672	135.3847519	-67
10284	0	-0.050839424	-0.212010384	0.335074425	0.999999046	5.24521E-05	2.09808E-05	9.91821E-05	-1.270985603	-5.30025959	8.376860619	0.002622604	0.001049042	0.004959106	-0.177978516	-0.077636719	-0.995117188	885.22	-32.20438072	6.976801773	135.3819861	-68
10285	0	-0.051025391	-0.211608887	0.335754395	0.999999046	7.24792E-05	-2.86102E-06	4.95911E-05	-1.275634766	-5.290222168	8.393859863	0.003623962	-0.000143051	0.002479553	-0.177978516	-0.077636719	-0.995117188	885.22	-32.19685094	6.982668337	135.3758453	-68
10286	0	-0.050128937	-0.210029602	0.33706665	0.999999046	5.14984E-05	-3.8147E-05	0.000110626	-1.253223419	-5.250740051	8.42666626	0.002574921	-0.001907349	0.005531311	-0.177978516	-0.077636719	-0.995117188	885.22	-32.19066922	6.988806174	135.3778469	-68
10287	0	-0.050598145	-0.210266113	0.335632324	0.999999046	-0.000179291	-0.000220299	3.8147E-06	-1.264953613	-5.256652832	8.390808105	-0.008964539	-0.011014939	0.000190735	-0.177978516	-0.077636719	-0.995117188	885.22	-32.21082582	6.970754318	135.3805953	-67
10288	0	-0.052222252	-0.212766647	0.335517883	0.999999046	9.82285E-05	-0.000125885	-5.81741E-05	-1.305556297	-5.319166183	8.387947083	0.004911423	-0.006294251	-0.002908707	-0.177978516	-0.077636719	-0.995117188	885.22	-32.20071027	6.958146884	135.3714798	-68
10289	0	-0.051513672	-0.210510254	0.335083008	0.999999046	9.53674E-05	-0.000102043	0.000183105	-1.287841797	-5.262756348	8.377075195	0.004768372	-0.005102158	0.009155274	-0.177978516	-0.077636719	-0.995117188	885.22	-32.1882489	6.962636283	135.3844677	-68
10290	0	-0.050788879	-0.208963394	0.334949493	0.999999046	-0.000185013	-3.8147E-05	0	-1.269721985	-5.224084854	8.373737335	-0.009250641	-0.001907349	0	-0.177978516	-0.077636719	-0.995117188	885.22	-32.21050739	6.962160189	135.3756416	-68
10291	0	-0.050964355	-0.210876465	0.334960938	0.999999046	-0.000167847	-8.67844E-05	-1.14441E-05	-1.274108887	-5.271911621	8.374023438	-0.008392334	-0.004339218	-0.000572205	-0.177978516	-0.077636719	-0.995117188	885.22	-32.23059376	6.95628725	135.3686858	-68
10292	0	-0.0515728	-0.21282196	0.335264206	0.999999046	2.76566E-05	-7.43866E-05	4.1008E-05	-1.289319992	-5.320549011	8.381605148	0.001382828	-0.00371933	0.0020504	-0.177978516	-0.077636719	-0.995117188	885.22	-32.22783942	6.954865385	135.3660863	-68
10293	0	-0.050292969	-0.211547852	0.335205078	0.999999046	0.000225067	-9.44138E-05	6.10352E-05	-1.257324219	-5.288696289	8.380126953	0.011253357	-0.004720688	0.003051758	-0.177978516	-0.077636719	-0.995117188	885.22	-32.20211324	6.952710135	135.3666827	-68
10294	0	-0.050559998	-0.210414886	0.33591938	0.999999046	0.000183105	-0.0001297	9.53674E-05	-1.263999939	-5.260372162	8.397984505	0.009155274	-0.006484985	0.004768372	-0.177978516	-0.077636719	-0.995117188	885.22	-32.1805025	6.949227424	135.3728043	-68
10295	0	-0.052246094	-0.210083008	0.335021973	0.999999046	0.000148773	-0.000117302	7.62939E-05	-1.306152344	-5.252075195	8.375549316	0.00743866	-0.005865097	0.003814697	-0.177978516	-0.077636719	-0.995117188	885.22	-32.16313765	6.945871934	135.3762959	-68
10296	0	-0.051100731	-0.21089077	0.336561203	0.999999046	-5.05447E-05	-6.29425E-05	-2.28882E-05	-1.277518272	-5.272269249	8.414030075	-0.002527237	-0.003147125	-0.001144409	-0.177978516	-0.077636719	-0.995117188	885.22	-32.17018227	6.941759573	135.3667514	-68
10297	0	-0.050292969	-0.209411621	0.336914063	0.999999046	-0.000301361	9.63211E-05	2.28882E-05	-1.257324219	-5.235290527	8.422851563	-0.015068054	0.004816055	0.001144409	-0.177978516	-0.077636719	-0.995117188	885.22	-32.20653087	6.955867898	135.3519002	-68
10298	0	-0.050977707	-0.211260796	0.336349487	0.999999046	-6.29425E-05	2.47955E-05	6.10352E-05	-1.274442673	-5.28151989	8.408737183	-0.003147125	0.001239777	0.003051758	-0.177978516	-0.077636719	-0.995117188	885.22	-32.21457993	6.965377169	135.3451779	-68
10299	0	-0.051818848	-0.212341309	0.335754395	0.999999046	0.000106812	-0.000128746	0.000137329	-1.295471191	-5.308532715	8.393859863	0.005340576	-0.006437302	0.006866455	-0.177978516	-0.077636719	-0.995117188	885.22	-32.20118937	6.96470875	135.3553429	-68
10300	0	-0.050203323	-0.210364342	0.335811615	0.999999046	-9.53674E-07	-0.000112534	-1.90735E-05	-1.255083084	-5.259108543	8.395290375	-4.76837E-05	-0.005626678	-0.000953674	-0.177978516	-0.077636719	-0.995117188	885.22	-32.20209882	6.956033617	135.3492336	-68
10301	0	-0.049926758	-0.210021973	0.336791992	0.999999046	-0.000198364	-0.000128746	4.95911E-05	-1.248168945	-5.250549316	8.419799805	-0.009918213	-0.006437302	0.002479553	-0.177978516	-0.077636719	-0.995117188	885.22	-32.22463305	6.94993904	135.3508278	-68
10302	0	-0.051386833	-0.211737633	0.335316658	0.999999046	-8.2016E-05	-0.00012207	-5.81741E-05	-1.28467083	-5.293440819	8.382916451	-0.0041008	-0.006103516	-0.002908707	-0.177978516	-0.077636719	-0.995117188	885.22	-32.2352016	6.937944029	135.3414872	-68
10303	0	-0.051635742	-0.21270752	0.337280273	0.999999046	0.00012207	-2.86102E-06	0	-1.290893555	-5.317687988	8.432006836	0.006103516	-0.000143051	0	-0.177978516	-0.077636719	-0.995117188	885.22	-32.22261219	6.941100438	135.330506	-68
10304	0	-0.050718307	-0.209634781	0.336843491	0.999999046	0.00026226	-0.000114441	7.62939E-05	-1.267957687	-5.240869522	8.421087265	0.013113022	-0.005722046	0.003814697	-0.177978516	-0.077636719	-0.995117188	885.22	-32.19213977	6.938106301	135.3338598	-68
10305	0	-0.051025391	-0.210144043	0.335449219	0.999999046	-3.05176E-05	-6.00815E-05	-1.52588E-05	-1.275634766	-5.253601074	8.386230469	-0.001525879	-0.003004074	-0.000762939	-0.177978516	-0.077636719	-0.995117188	885.22	-32.19668588	6.934819422	135.3249209	-68
10306	0	-0.050551414	-0.211082458	0.335929871	0.999999046	-8.96454E-05	-4.00543E-05	-2.28882E-05	-1.263785362	-5.277061462	8.398246765	-0.004482269	-0.002002716	-0.001144409	-0.177978516	-0.077636719	-0.995117188	885.22	-32.20825687	6.933004783	135.3140021	-67
10307	0	-0.05065918	-0.211608887	0.335144043	1	-6.67572E-06	7.62939E-06	-1.90735E-05	-1.266479492	-5.290222168	8.378601074	-0.000333786	0.00038147	-0.000953674	-0.177978516	-0.077636719	-0.995117188	885.22	-32.21068057	6.936051062	135.3005243	-68
10308	0	-0.050900459	-0.210945129	0.335505486	0.999999046	0.000267982	-0.000148773	4.95911E-05	-1.272511482	-5.273628235	8.387637138	0.013399124	-0.00743866	0.002479553	-0.177978516	-0.077636719	-0.995117188	885.22	-32.17966945	6.928143404	135.303375	-68
10309	0	-0.05065918	-0.210510254	0.337219238	0.999999046	0.000171661	-8.67844E-05	5.34058E-05	-1.266479492	-5.262756348	8.430480957	0.008583069	-0.004339218	0.002670288	-0.177978516	-0.077636719	-0.995117188	885.22	-32.16006603	6.926479793	135.3027919	-67
10310	0	-0.050378799	-0.209962845	0.33662796	0.999999046	-1.14441E-05	-4.95911E-05	9.15527E-05	-1.259469986	-5.249071121	8.415699005	-0.000572205	-0.002479553	0.004577637	-0.177978516	-0.077636719	-0.995117188	885.22	-32.16122635	6.93074225	135.3036517	-67
10311	0	-0.050598145	-0.210083008	0.334838867	0.999999046	-0.000118256	9.53674E-07	-1.52588E-05	-1.264953613	-5.252075195	8.37097168	-0.005912781	4.76837E-05	-0.000762939	-0.177978516	-0.077636719	-0.995117188	885.22	-32.17627124	6.933400882	135.2909662	-67
10312	0	-0.05150795	-0.210713387	0.334849358	0.999999046	4.29153E-05	-0.000123978	8.29697E-05	-1.287698746	-5.267834663	8.37123394	0.002145767	-0.006198883	0.004148483	-0.177978516	-0.077636719	-0.995117188	885.22	-32.17079361	6.929986737	135.2955485	-68
10313	0	-0.05090332	-0.211242676	0.336608887	0.999999046	0.000167847	-0.000121117	4.19617E-05	-1.272583008	-5.281066895	8.415222168	0.008392334	-0.006055832	0.002098084	-0.177978516	-0.077636719	-0.995117188	885.22	-32.15151216	6.924358465	135.2959514	-67
10314	0	-0.050107002	-0.209478378	0.334554672	0.999999046	-9.53674E-05	-6.86646E-05	5.34058E-05	-1.252675056	-5.236959457	8.363866806	-0.004768372	-0.003433228	0.002670288	-0.177978516	-0.077636719	-0.995117188	885.22	-32.16264027	6.924505434	135.2942451	-68
10315	0	-0.050598145	-0.2109375	0.336425781	0.999999046	-0.000144958	-8.67844E-05	-4.57764E-05	-1.264953613	-5.2734375	8.410644531	-0.007247925	-0.004339218	-0.002288818	-0.177978516	-0.077636719	-0.995117188	885.22	-32.18048688	6.916842222	135.2839582	-68
10316	0	-0.050704002	-0.212199211	0.335517883	0.999999046	0.000123024	-0.000116348	6.77109E-05	-1.26760006	-5.304980278	8.387947083	0.006151199	-0.005817413	0.003385544	-0.177978516	-0.077636719	-0.995117188	885.22	-32.16614522	6.913243917	135.2865757	-67
10317	0	-0.05078125	-0.210083008	0.335998535	0.999999046	0.000183105	1.23978E-05	8.01086E-05	-1.26953125	-5.252075195	8.399963379	0.009155273	0.000619888	0.004005432	-0.177978516	-0.077636719	-0.995117188	885.22	-32.14569914	6.92290836	135.2825154	-67
10318	0	-0.050823212	-0.21025753	0.335219383	1	-5.62668E-05	3.52859E-05	2.19345E-05	-1.270580292	-5.256438255	8.380484581	-0.002813339	0.001764297	0.001096725	-0.177978516	-0.077636719	-0.995117188	885.22	-32.15354962	6.931265651	135.271362	-67
10319	0	-0.051086426	-0.211120605	0.335998535	0.999999046	-0.000118256	-1.81198E-05	4.95911E-05	-1.277160645	-5.278015137	8.399963379	-0.005912781	-0.000905991	0.002479553	-0.177978516	-0.077636719	-0.995117188	885.22	-32.16780622	6.936149028	135.2661802	-68
10320	0	-0.050545692	-0.211379051	0.336499214	0.999999046	5.62668E-05	-0.000120163	0.000136375	-1.263642311	-5.28447628	8.412480354	0.002813339	-0.006008148	0.006818771	-0.177978516	-0.077636719	-0.995117188	885.22	-32.1602976	6.936416414	135.2757438	-68
10321	0	-0.050354004	-0.210388184	0.336486816	0.999999046	-2.28882E-05	1.62125E-05	4.95911E-05	-1.258850098	-5.25970459	8.41217041	-0.001144409	0.000810623	0.002479553	-0.177978516	-0.077636719	-0.995117188	885.22	-32.16387096	6.944601929	135.2684593	-67
10322	0	-0.051362038	-0.21082592	0.33751297	0.999999046	6.67572E-05	-0.000143051	4.1008E-05	-1.284050941	-5.270648003	8.437824249	0.00333786	-0.007152557	0.0020504	-0.177978516	-0.077636719	-0.995117188	885.22	-32.15605594	6.936838537	135.270121	-68
10323	0	-0.050537109	-0.210449219	0.336181641	0.999999046	6.48499E-05	-1.04904E-05	7.24792E-05	-1.263427734	-5.261230469	8.404541016	0.003242493	-0.000524521	0.003623962	-0.177978516	-0.077636719	-0.995117188	885.22	-32.14906096	6.943847933	135.2667254	-67
10324	0	-0.050804138	-0.210154533	0.335965157	0.999999046	-7.72476E-05	-6.86646E-05	-2.28882E-05	-1.270103455	-5.253863335	8.399128914	-0.003862381	-0.003433228	-0.001144409	-0.177978516	-0.077636719	-0.995117188	885.22	-32.15902896	6.939403867	135.2575788	-68
10325	0	-0.050476074	-0.211181641	0.337097168	0.999999046	-8.39233E-05	-1.81198E-05	0.000118256	-1.261901855	-5.279541016	8.427429199	-0.004196167	-0.000905991	0.005912781	-0.177978516	-0.077636719	-0.995117188	885.22	-32.16846563	6.948453485	135.2591217	-68
10326	0	-0.051123619	-0.210860252	0.335475922	0.999999046	-0.000125885	2.28882E-05	6.10352E-05	-1.278090477	-5.27150631	8.386898041	-0.006294251	0.001144409	0.003051758	-0.177978516	-0.077636719	-0.995117188	885.22	-32.18371501	6.958010497	135.2525515	-68
10327	0	-0.050537109	-0.210632324	0.337341309	0.999999046	-8.39233E-05	8.86917E-05	9.91821E-05	-1.263427734	-5.265808105	8.433532715	-0.004196167	0.004434586	0.004959106	-0.177978516	-0.077636719	-0.995117188	885.22	-32.19415261	6.976255293	135.2456768	-67
10328	0	-0.049966812	-0.210373878	0.335770607	0.999999046	2.95639E-05	-2.47955E-05	0.000182152	-1.249170303	-5.259346962	8.394265175	0.001478195	-0.001239777	0.00910759	-0.177978516	-0.077636719	-0.995117188	885.22	-32.18973804	6.988512894	135.2538897	-67
10329	0	-0.052246094	-0.210876465	0.336547852	0.999999046	2.67029E-05	-9.05991E-05	-7.62939E-06	-1.306152344	-5.271911621	8.413696289	0.001335144	-0.004529953	-0.00038147	-0.177978516	-0.077636719	-0.995117188	885.22	-32.18740084	6.982862679	135.2476046	-68
10330	0	-0.050350189	-0.211774826	0.337605476	0.999999046	-0.000110626	-2.67029E-05	9.15527E-05	-1.25875473	-5.294370651	8.440136909	-0.005531311	-0.001335144	0.004577637	-0.177978516	-0.077636719	-0.995117188	885.22	-32.20009845	6.989419354	135.2470766	-68
10331	0	-0.05065918	-0.209106445	0.335876465	0.999999046	-3.8147E-05	8.58307E-06	5.72205E-05	-1.266479492	-5.227661133	8.396911621	-0.001907349	0.000429153	0.002861023	-0.177978516	-0.077636719	-0.995117188	885.22	-32.20508927	6.997288895	135.2410408	-67
10332	0	-0.051055908	-0.212849617	0.336896896	0.999999046	-0.000142097	-9.15527E-05	-8.58307E-06	-1.276397705	-5.321240425	8.422422409	-0.007104874	-0.004577637	-0.000429153	-0.177978516	-0.077636719	-0.995117188	885.22	-32.22208467	6.991417184	135.2347187	-67
10333	0	-0.05090332	-0.211242676	0.337097168	0.999999046	3.8147E-06	-5.62668E-05	0.000175476	-1.272583008	-5.281066895	8.427429199	0.000190735	-0.002813339	0.008773804	-0.177978516	-0.077636719	-0.995117188	885.22	-32.22041192	7.000198044	135.2442101	-67
10334	0	-0.050634384	-0.210978508	0.336188316	0.999999046	0.000137329	2.09808E-05	8.67844E-05	-1.265859604	-5.2744627	8.404707909	0.006866455	0.001049042	0.004339218	-0.177978516	-0.077636719	-0.995117188	885.22	-32.20506596	7.011025303	135.2403078	-67
10335	0	-0.051635742	-0.2109375	0.335693359	0.999999046	0.000160217	-0.000178337	0.000167847	-1.290893555	-5.2734375	8.392333984	0.008010864	-0.008916855	0.008392334	-0.177978516	-0.077636719	-0.995117188	885.22	-32.18464323	7.007500632	135.2565741	-67
10336	0	-0.051525116	-0.210812569	0.336389542	0.999999046	1.23978E-05	-8.39233E-05	8.39233E-05	-1.288127899	-5.270314217	8.409738541	0.000619888	-0.004196167	0.004196167	-0.177978516	-0.077636719	-0.995117188	885.22	-32.18285998	7.008024783	135.2588298	-67
10337	0	-0.050964355	-0.210632324	0.33770752	0.999999046	-7.62939E-06	-9.44138E-05	6.86646E-05	-1.274108887	-5.265808105	8.442687988	-0.00038147	-0.004720688	0.003433228	-0.177978516	-0.077636719	-0.995117188	885.22	-32.18342384	7.00658282	135.2602424	-67
10338	0	-0.051113129	-0.210448265	0.334539413	0.999999046	-0.000131607	-0.0001297	-5.34058E-05	-1.277828217	-5.261206627	8.363485336	-0.006580353	-0.006484985	-0.002670288	-0.177978516	-0.077636719	-0.995117188	885.22	-32.19941237	6.994275314	135.251882	-67
10339	0	-0.051391602	-0.21105957	0.33605957	0.999999046	4.57764E-05	-0.000117302	9.15527E-05	-1.284790039	-5.276489258	8.401489258	0.002288818	-0.005865097	0.004577637	-0.177978516	-0.077636719	-0.995117188	885.22	-32.19344884	6.992036556	135.2569255	-67
