Counter	Temperature	VelInc_X	VelInc_Y	VelInc_Z	OriInc_w	OriInc_x	OriInc_y	OriInc_z	Acc_X	Acc_Y	Acc_Z	Gyr_X	Gyr_Y	Gyr_Z	Mag_X	Mag_Y	Mag_Z	Pressure	Roll	Pitch	Yaw	RSSI
10723	0	0.382751465	-0.083862305	0.051757813	0.999999046	-0.000583649	0.000164986	0.00025177	9.568786621	-2.096557617	1.293945313	-0.029182436	0.008249283	0.012588502	-0.586425781	-0.229736328	-0.522460938	887.48	-58.44266344	-74.89173877	82.04476464	-61
10724	0	0.381043434	-0.085092545	0.052210808	0.999999046	-0.00101757	0.000114441	8.67844E-05	9.526085854	-2.127313614	1.305270195	-0.050878534	0.005722047	0.004339219	-0.586181641	-0.231933594	-0.519287109	887.52	-58.49774567	-74.88213265	81.98203074	-61
10725	0	0.38104248	-0.088745117	0.052368164	0.999999046	-0.000617981	-2.95639E-05	-0.000102997	9.526062012	-2.21862793	1.309204102	-0.03089905	-0.001478195	-0.005149842	-0.588867188	-0.227539063	-0.522460938	887.54	-58.51741104	-74.89968145	81.92736018	-61
10726	0	0.381551743	-0.090380669	0.053026199	0.999999046	-0.000427246	-8.39233E-05	-0.000123024	9.538793564	-2.259516716	1.325654984	-0.021362305	-0.004196167	-0.0061512	-0.588623047	-0.229736328	-0.522460938	887.54	-58.53084294	-74.92234053	81.89017237	-61
10727	0	0.380737305	-0.090393066	0.052612305	0.999999046	-0.000556946	6.58035E-05	0.000236511	9.518432617	-2.25982666	1.315307617	-0.027847292	0.003290177	0.011825562	-0.586425781	-0.227539063	-0.522705078	887.52	-58.58507514	-74.9007954	81.87873076	-61
10728	0	0.380809784	-0.08965683	0.053111076	0.999999046	-2.95639E-05	0.000112534	0.000244141	9.520244598	-2.241420746	1.327776909	-0.001478195	0.005626679	0.012207031	-0.586425781	-0.229736328	-0.522460938	887.52	-58.56391856	-74.87563328	81.85330561	-60
10729	0	0.381225586	-0.088012695	0.054138184	0.999999046	0	-0.000258446	-3.43323E-05	9.530639648	-2.200317383	1.35345459	0	-0.012922287	-0.001716614	-0.586425781	-0.229736328	-0.51953125	887.54	-58.61206067	-74.89984181	81.90406953	-61
10730	0	0.382784843	-0.089634895	0.053877831	0.999999046	-0.000160217	-1.71661E-05	0.000144958	9.569621086	-2.240872383	1.346945763	-0.008010864	-0.000858307	0.007247925	-0.588867188	-0.227539063	-0.51953125	887.52	-58.63095611	-74.89203635	81.90485267	-60
10731	0	0.380126953	-0.088195801	0.054626465	0.999999046	0.000164032	-3.33786E-05	0.000392914	9.503173828	-2.20489502	1.365661621	0.008201599	-0.00166893	0.019645692	-0.588623047	-0.227539063	-0.525390625	887.52	-58.67310389	-74.86087227	81.96591867	-60
10732	0	0.380794525	-0.086402893	0.054201126	0.999999046	0.000407219	-0.000143051	0.000301361	9.519863129	-2.160072327	1.355028152	0.020360948	-0.007152558	0.015068055	-0.586425781	-0.227539063	-0.525634766	887.58	-58.70647354	-74.84523966	82.04609143	-61
10733	0	0.380371094	-0.086364746	0.052429199	0.999999046	0.000183105	-6.38962E-05	-3.05176E-05	9.509277344	-2.159118652	1.31072998	0.009155273	-0.003194809	-0.001525879	-0.586425781	-0.229736328	-0.51953125	887.52	-58.66391073	-74.85747855	82.02460626	-60
10734	0	0.381847382	-0.088703156	0.052534103	0.999999046	-1.71661E-05	0.000131607	1.43051E-05	9.54618454	-2.217578888	1.313352585	-0.000858307	0.006580353	0.000715256	-0.586425781	-0.225341797	-0.520019531	887.44	-58.58370575	-74.85366627	81.93758924	-60
10735	0	0.38092041	-0.089904785	0.052185059	0.999999046	7.62939E-06	5.05447E-05	4.19617E-05	9.523010254	-2.247619629	1.304626465	0.00038147	0.002527237	0.002098083	-0.591308594	-0.227294922	-0.51953125	887.54	-58.53653089	-74.85192408	81.89013719	-60
10736	0	0.38139534	-0.088166237	0.05069828	0.999999046	-0.000119209	0.000102997	0.000243187	9.534883499	-2.204155922	1.267457008	-0.005960465	0.005149841	0.012159348	-0.586425781	-0.227539063	-0.525634766	887.54	-58.52996855	-74.82744214	81.86653658	-60
10737	0	0.380615234	-0.089538574	0.051452637	0.999999046	0.000255585	-0.000285149	0.000144958	9.515380859	-2.238464355	1.286315918	0.012779236	-0.014257431	0.007247925	-0.588623047	-0.227539063	-0.525390625	887.54	-58.5992826	-74.83575625	81.96630587	-60
10738	0	0.382512093	-0.090231895	0.054758072	0.999999046	0.001001358	-0.000486374	3.33786E-05	9.562802315	-2.255797386	1.368951797	0.050067912	-0.0243187	0.00166893	-0.588867188	-0.227539063	-0.522460938	887.52	-58.63142875	-74.86687136	82.11629171	-60
10739	0	0.384033203	-0.088256836	0.05645752	0.999999046	0.000988007	-0.000395775	0.000110626	9.600830078	-2.206420898	1.411437988	0.049400339	-0.019788746	0.005531312	-0.588867188	-0.229736328	-0.51953125	887.54	-58.64917095	-74.88495939	82.25145068	-60
10740	0	0.380150795	-0.08652401	0.054677963	0.999999046	0.000756264	-3.8147E-05	0.000311852	9.503769875	-2.163100243	1.366949081	0.037813191	-0.001907349	0.015592577	-0.586425781	-0.229736328	-0.51953125	887.58	-58.60804921	-74.86204534	82.29714431	-60
10741	0	0.379150391	-0.085083008	0.053466797	0.999999046	0.000972748	-0.000121117	-8.39233E-05	9.478759766	-2.127075195	1.336669922	0.048637398	-0.006055833	-0.004196168	-0.591308594	-0.229492188	-0.516357422	887.54	-58.48442898	-74.88289678	82.28446345	-60
10742	0	0.38186264	-0.087298393	0.052139282	0.999999046	0.000841141	-0.000337601	-0.000366211	9.54656601	-2.182459831	1.303482056	0.042057044	-0.016880038	-0.01831055	-0.588623047	-0.231933594	-0.519287109	887.52	-58.39153259	-74.94435439	82.28634671	-60
10743	0	0.383361816	-0.090148926	0.052246094	0.999999046	0.000896454	-0.000296593	-0.000289917	9.58404541	-2.253723145	1.306152344	0.0448227	-0.014829638	-0.014495852	-0.591064453	-0.234130859	-0.519042969	887.54	-58.29464535	-74.99584608	82.29152526	-60
10744	0	0.381734848	-0.087330818	0.052846909	0.999999046	0.001130104	-0.000133514	0.00020504	9.543371201	-2.183270454	1.321172714	0.056505216	-0.006675722	0.010252001	-0.588623047	-0.234130859	-0.516113281	887.52	-58.22288462	-74.98927832	82.35030002	-60
10745	0	0.381225586	-0.085083008	0.05291748	0.999999046	0.000602722	-0.00020504	0.00019455	9.530639648	-2.127075195	1.322937012	0.030136111	-0.010252	0.009727479	-0.591064453	-0.234130859	-0.516113281	887.58	-58.2351143	-74.98814807	82.43344019	-60
10746	0	0.381336212	-0.086935043	0.055550575	0.999999046	0.000482559	-0.000295639	-3.43323E-05	9.533405304	-2.173376083	1.388764381	0.024127961	-0.014781953	-0.001716614	-0.591064453	-0.236328125	-0.512939453	887.52	-58.24228654	-75.01472679	82.49949511	-60
10747	0	0.381774902	-0.08807373	0.05279541	0.999999046	0.000782013	-0.000258446	4.57764E-05	9.544372559	-2.201843262	1.319885254	0.039100651	-0.012922288	0.002288819	-0.588378906	-0.236328125	-0.518798828	887.48	-58.22000959	-75.0312266	82.56598913	-60
10748	0	0.381062508	-0.085339546	0.053951263	0.999999046	0.00074482	-0.0001297	0.000285149	9.526562691	-2.133488655	1.348781586	0.037240986	-0.006484986	0.014257433	-0.588623047	-0.236328125	-0.513183594	887.58	-58.20890611	-75.01668261	82.64204341	-60
10749	0	0.382568359	-0.084411621	0.053894043	0.999999046	4.95911E-05	-0.000132561	0.000202179	9.564208984	-2.110290527	1.347351074	0.002479553	-0.006628037	0.010108948	-0.588378906	-0.238525391	-0.512939453	887.54	-58.25945865	-75.01049055	82.70112005	-60
10750	0	0.382790565	-0.087674141	0.052945137	0.999999046	0.000394821	-6.29425E-05	-0.000142097	9.569764137	-2.191853523	1.323628426	0.019741059	-0.003147125	-0.007104874	-0.590820313	-0.236328125	-0.515869141	887.52	-58.16766708	-75.03362822	82.65062807	-60
10751	0	0.382263184	-0.086853027	0.053588867	0.999999046	0.000789642	-7.15256E-05	-0.000205994	9.55657959	-2.171325684	1.33972168	0.039482121	-0.003576279	-0.010299684	-0.591064453	-0.236328125	-0.512939453	887.54	-58.01903137	-75.06347046	82.58879802	-60
10752	0	0.382306099	-0.085327148	0.055254936	0.999999046	-3.71933E-05	0.0001297	0.000388145	9.557652473	-2.133178711	1.381373405	-0.001859665	0.006484986	0.019407273	-0.590820313	-0.238525391	-0.512695313	887.54	-58.02643033	-75.0233363	82.59262522	-60
10753	0	0.38079834	-0.086730957	0.05255127	0.999999046	-0.000202179	0.000191689	0.000701904	9.519958496	-2.168273926	1.313781738	-0.010108949	0.009584428	0.035095218	-0.590820313	-0.236328125	-0.515869141	887.48	-58.10130477	-74.94894412	82.64421611	-60
10754	0	0.381329536	-0.085639954	0.052661896	0.999999046	0.000326157	7.05719E-05	0.000282288	9.533238411	-2.14099884	1.316547394	0.016307831	0.003528595	0.01411438	-0.588378906	-0.236328125	-0.521728516	887.54	-58.06477165	-74.92278661	82.6392537	-60
10755	0	0.381774902	-0.084594727	0.05255127	0.999999046	0.000114441	3.52859E-05	-3.43323E-05	9.544372559	-2.114868164	1.313781738	0.005722046	0.001764297	-0.001716614	-0.593261719	-0.236083984	-0.512939453	887.48	-57.99400714	-74.92969629	82.57977225	-60
10756	0	0.380678177	-0.086387634	0.054428101	0.999999046	-0.000210762	0.000137329	0.000285149	9.516954422	-2.159690857	1.360702515	-0.010538101	0.006866455	0.014257431	-0.588623047	-0.238525391	-0.510009766	887.54	-57.99564442	-74.89935716	82.55963268	-60
10757	0	0.379882813	-0.085510254	0.054870605	0.999999046	-4.95911E-05	2.38419E-05	0.000350952	9.497070313	-2.137756348	1.371765137	-0.002479553	0.001192093	0.017547608	-0.590820313	-0.236328125	-0.515869141	887.52	-58.03419045	-74.86953972	82.59258136	-60
10758	0	0.382382393	-0.086761475	0.05561161	0.999999046	-0.000209808	7.62939E-06	-3.14713E-05	9.559559822	-2.169036865	1.39029026	-0.010490418	0.00038147	-0.001573563	-0.593261719	-0.236328125	-0.518554688	887.52	-58.01077763	-74.87787683	82.54166971	-60
10759	0	0.381713867	-0.089660645	0.056213379	0.999999046	-0.000137329	0.000206947	-0.000213623	9.54284668	-2.241516113	1.405334473	-0.006866455	0.010347367	-0.010681153	-0.588378906	-0.238525391	-0.512939453	887.52	-57.86625265	-74.89161228	82.37791173	-60
10760	0	0.380324364	-0.090003014	0.057443619	0.999999046	0.000229836	0.00012207	-0.000152588	9.508109093	-2.25007534	1.436090469	0.011491776	0.006103516	-0.007629395	-0.588378906	-0.238525391	-0.515869141	887.54	-57.72353396	-74.90428945	82.25754142	-60
10761	0	0.378051758	-0.089294434	0.058227539	0.999999046	0.00056839	6.58035E-05	2.28882E-05	9.451293945	-2.23236084	1.455688477	0.028419496	0.003290177	0.001144409	-0.588623047	-0.236328125	-0.516113281	887.54	-57.60163176	-74.90311796	82.19644314	-60
10762	0	0.379443169	-0.087415695	0.057948112	0.999999046	0.000181198	0.000240326	6.38962E-05	9.486079216	-2.18539238	1.448702812	0.009059906	0.012016297	0.003194809	-0.590820313	-0.238525391	-0.515625	887.54	-57.47057623	-74.8870888	82.08285173	-60
10763	0	0.378601074	-0.090515137	0.058532715	0.999999046	0.000164032	0.000199318	-0.000160217	9.465026855	-2.262878418	1.463317871	0.008201599	0.009965897	-0.008010864	-0.588378906	-0.238525391	-0.515869141	887.58	-57.30495685	-74.89487681	81.93043734	-60
10764	0	0.378728867	-0.090925217	0.056758881	0.999999046	0.000796318	0.000331879	7.24792E-05	9.468221664	-2.273130417	1.418972015	0.039815908	0.016593935	0.003623963	-0.588378906	-0.240722656	-0.512695313	887.6	-57.07337411	-74.87165111	81.78808909	-60
10765	0	0.379272461	-0.088134766	0.054626465	0.999999046	0.000244141	0.000355721	0.000652313	9.481811523	-2.203369141	1.365661621	0.012207032	0.017786028	0.032615665	-0.590820313	-0.238525391	-0.512695313	887.52	-57.03102706	-74.79104968	81.77557706	-60
10766	0	0.379304886	-0.087384224	0.05182457	0.999999046	-1.71661E-05	0.00038147	0.000998497	9.482622147	-2.184605598	1.295614243	-0.000858307	0.01907349	0.04992486	-0.588378906	-0.238525391	-0.515869141	887.44	-57.08943141	-74.67564582	81.83492809	-60
10767	0	0.379943848	-0.088195801	0.051513672	0.999999046	0.000247955	4.29153E-05	0.00069809	9.498596191	-2.20489502	1.287841797	0.012397767	0.002145767	0.034904483	-0.588378906	-0.238525391	-0.518798828	887.44	-57.16810073	-74.61030769	81.94524245	-60
10768	0	0.381101608	-0.085711479	0.052136421	0.999999046	0.000594139	-0.000192642	0.000522614	9.527540207	-2.14278698	1.30341053	0.029706958	-0.009632112	0.026130679	-0.5859375	-0.238769531	-0.515869141	887.58	-57.24970461	-74.57668683	82.10068984	-60
10769	0	0.380371094	-0.083496094	0.054016113	0.999999046	0.000137329	-0.000132561	0.00062561	9.509277344	-2.087402344	1.350402832	0.006866456	-0.006628037	0.03128052	-0.588378906	-0.238525391	-0.515869141	887.48	-57.38500971	-74.52960916	82.25838712	-60
10770	0	0.380037308	-0.084383011	0.058636665	0.999999046	-0.000558853	-0.000179291	0.000442505	9.500932693	-2.109575272	1.465916634	-0.02794266	-0.008964539	0.022125246	-0.588378906	-0.238525391	-0.515869141	887.52	-57.57402449	-74.50310532	82.39003175	-60
10771	0	0.379394531	-0.08807373	0.060852051	0.999999046	-0.000526428	-0.000159264	-3.8147E-05	9.484863281	-2.201843262	1.52130127	-0.026321412	-0.007963181	-0.001907349	-0.588378906	-0.236328125	-0.518798828	887.58	-57.64478073	-74.52171037	82.39927427	-60
10772	0	0.380702019	-0.090550423	0.060451508	0.999999046	0.000216484	-0.000331879	-0.000321388	9.517550468	-2.263760567	1.511287689	0.010824204	-0.016593934	-0.016069413	-0.588623047	-0.234130859	-0.519042969	887.54	-57.62754251	-74.57814638	82.40248525	-60
10773	0	0.38079834	-0.090576172	0.060180664	0.999999046	0.000770569	-1.04904E-05	-0.00019455	9.519958496	-2.264404297	1.504516602	0.038528446	-0.000524521	-0.009727479	-0.591064453	-0.236328125	-0.512939453	887.54	-57.46161665	-74.6023791	82.32334593	-60
10774	0	0.378697395	-0.088816643	0.056585312	0.999999046	0.000417709	0.000286102	0.000128746	9.467434883	-2.220416069	1.414632797	0.020885468	0.014305115	0.006437302	-0.588378906	-0.238525391	-0.518798828	887.52	-57.30450004	-74.57698193	82.20845076	-60
10775	0	0.382873535	-0.088378906	0.054138184	0.999999046	0.000137329	0.00036335	0.000110626	9.571838379	-2.209472656	1.35345459	0.006866455	0.018167496	0.005531311	-0.588378906	-0.238525391	-0.515869141	887.52	-57.14937345	-74.54856133	82.06470858	-60
10776	0	0.383792877	-0.088206291	0.051388741	0.999999046	-0.00014019	0.00038147	0.000113487	9.59482193	-2.20515728	1.284718513	-0.007009506	0.019073487	0.005674362	-0.588378906	-0.238525391	-0.515869141	887.52	-57.02181632	-74.51884651	81.91725079	-60
10777	0	0.38269043	-0.087890625	0.052185059	0.999999046	-0.00037384	0.000138283	0.000442505	9.567260742	-2.197265625	1.304626465	-0.018692018	0.006914139	0.022125245	-0.5859375	-0.238769531	-0.524658203	887.52	-57.08044143	-74.47281217	81.92939146	-60
10778	0	0.379487991	-0.084177017	0.052653313	0.999999046	-0.000585556	6.67572E-05	0.000796318	9.487199783	-2.10442543	1.316332817	-0.029277806	0.003337861	0.039815909	-0.588378906	-0.238525391	-0.518798828	887.6	-57.26680363	-74.39743818	82.05554335	-60
10779	0	0.37677002	-0.082946777	0.055603027	0.999999046	-0.00094986	3.52859E-05	0.000541687	9.419250488	-2.073669434	1.390075684	-0.04749299	0.001764298	0.027084356	-0.588623047	-0.234130859	-0.519042969	887.54	-57.44773222	-74.34872264	82.13011249	-60
10780	0	0.380091667	-0.084871292	0.05717659	0.999998093	-0.001464844	0.000149727	-0.000225067	9.502291679	-2.121782303	1.429414749	-0.073242215	0.007486346	-0.011253361	-0.588378906	-0.236328125	-0.521728516	887.44	-57.47850383	-74.36717505	81.98974893	-60
10781	0	0.383300781	-0.090270996	0.058166504	0.999997139	-0.001876831	0.000313759	-0.000450134	9.582519531	-2.256774902	1.454162598	-0.093841613	0.015687953	-0.022506728	-0.588378906	-0.234130859	-0.524902344	887.54	-57.44982074	-74.39723025	81.73662656	-60
10782	0	0.3829813	-0.092155457	0.05708313	0.999998093	-0.001347542	0.000315666	1.14441E-05	9.574532509	-2.303886414	1.427078247	-0.067377112	0.015783315	0.000572205	-0.586181641	-0.231933594	-0.522216797	887.54	-57.46177115	-74.38247576	81.58987811	-60
10783	0	0.379333496	-0.091430664	0.056640625	0.999999046	-0.000934601	0.000271797	0.000370026	9.483337402	-2.285766602	1.416015625	-0.04673005	0.013589861	0.018501285	-0.586425781	-0.227539063	-0.522705078	887.58	-57.52091855	-74.33570011	81.53837255	-61
10784	0	0.377891541	-0.089989662	0.058691025	0.999999046	-0.000910759	0.00031662	0.000217438	9.447288513	-2.249741554	1.46727562	-0.045537956	0.015830996	0.010871889	-0.583740234	-0.229980469	-0.525634766	887.44	-57.52824088	-74.30083522	81.43736268	-61
10785	0	0.377990723	-0.092529297	0.056213379	0.999998093	-0.001330376	0.000431061	7.62939E-06	9.449768066	-2.313232422	1.405334473	-0.066518805	0.021553047	0.00038147	-0.583984375	-0.229980469	-0.522705078	887.54	-57.49901592	-74.27908814	81.25318958	-61
10786	0	0.379650116	-0.091767311	0.055380821	0.999999046	-0.000461578	0.000358582	-0.000175476	9.491252899	-2.294182777	1.384520531	-0.02307892	0.017929078	-0.008773804	-0.586181641	-0.227539063	-0.528564453	887.52	-57.35566324	-74.2793888	81.04848339	-61
10787	0	0.380737305	-0.090759277	0.05456543	0.999999046	-0.000576019	7.72476E-05	0.000328064	9.518432617	-2.268981934	1.364135742	-0.028800966	0.003862381	0.016403199	-0.586425781	-0.227539063	-0.525634766	887.44	-57.43287463	-74.248473	81.06290462	-61
10788	0	0.379998207	-0.08930397	0.056229591	0.999999046	-0.000664711	-0.000144958	0.000182152	9.499955177	-2.232599258	1.405739784	-0.033235553	-0.007247925	0.00910759	-0.583984375	-0.227783203	-0.525634766	887.52	-57.56438468	-74.24540187	81.12351217	-61
10789	0	0.379577637	-0.087646484	0.057495117	0.999999046	-0.000553131	-0.000384331	-0.000259399	9.489440918	-2.191162109	1.43737793	-0.027656558	-0.019216539	-0.012969972	-0.583984375	-0.225585938	-0.528808594	887.52	-57.66885554	-74.29981384	81.16445177	-61
10790	0	0.380828857	-0.090261459	0.058627129	0.999999046	-0.00047493	-0.00037384	-0.000489235	9.520721436	-2.256536484	1.465678215	-0.023746493	-0.018692018	-0.024461749	-0.586425781	-0.227539063	-0.525634766	887.58	-57.71066307	-74.37578235	81.15493347	-61
10791	0	0.38104248	-0.090759277	0.061157227	0.999999046	-0.000961304	-2.19345E-05	-0.000339508	9.526062012	-2.268981934	1.528930664	-0.048065194	-0.001096726	-0.016975406	-0.583984375	-0.227783203	-0.525634766	887.44	-57.71836319	-74.41555266	81.05253691	-61
10792	0	0.381352425	-0.092993736	0.058458328	0.999998093	-0.001501083	0.000296593	0.000354767	9.533810616	-2.324843407	1.461458206	-0.0750542	0.014829642	0.01773835	-0.581787109	-0.225585938	-0.523193359	887.52	-57.82944091	-74.36840373	80.99480821	-61
10793	0	0.379211426	-0.092407227	0.05682373	0.999999046	-0.000999451	0.00024128	0.000175476	9.480285645	-2.310180664	1.420593262	-0.049972543	0.012063982	0.008773805	-0.581787109	-0.223388672	-0.529052734	887.54	-57.86327213	-74.34191952	80.91144871	-61
10794	0	0.379517555	-0.092103004	0.055906296	0.999999046	-0.000829697	4.19617E-05	3.71933E-05	9.487938881	-2.302575111	1.397657394	-0.041484838	0.002098084	0.001859665	-0.584228516	-0.220947266	-0.526123047	887.54	-57.91689922	-74.34094473	80.87058351	-61
10795	0	0.379150391	-0.093566895	0.058227539	0.999999046	-0.000476837	3.91006E-05	-3.05176E-05	9.478759766	-2.339172363	1.455688477	-0.023841859	0.001955032	-0.001525879	-0.584228516	-0.223144531	-0.526123047	887.48	-57.91639997	-74.34652965	80.81889925	-61
10796	0	0.378724098	-0.092441559	0.05914402	0.999999046	-0.000382423	-6.29425E-05	0.000155449	9.468102455	-2.311038971	1.478600502	-0.019121171	-0.003147125	0.007772446	-0.584228516	-0.220947266	-0.531982422	887.52	-57.98057532	-74.34009122	80.83903696	-61
10797	0	0.380249023	-0.092407227	0.058776855	0.999999046	-1.52588E-05	-0.000117302	9.53674E-05	9.506225586	-2.310180664	1.469421387	-0.000762939	-0.005865097	0.004768372	-0.581787109	-0.221191406	-0.532226563	887.48	-58.00829056	-74.34265198	80.86415848	-61
10798	0	0.380916595	-0.091200829	0.058988571	0.999999046	4.19617E-05	0.000127792	5.24521E-05	9.522914886	-2.280020714	1.474714279	0.002098084	0.006389618	0.002622604	-0.583984375	-0.220947266	-0.534912109	887.52	-57.93485949	-74.3344094	80.78978362	-61
10799	0	0.380737305	-0.092285156	0.058349609	0.999999046	0.000263214	0.000222206	0.000144958	9.518432617	-2.307128906	1.458740234	0.013160706	0.011110306	0.007247925	-0.581787109	-0.220947266	-0.526367188	887.44	-57.82352336	-74.31129961	80.70838777	-61
10800	0	0.38013649	-0.090535164	0.056734085	0.999999046	0.000145912	0.000249863	2.19345E-05	9.503412247	-2.263379097	1.418352127	0.007295609	0.012493134	0.001096725	-0.584228516	-0.220947266	-0.529052734	887.48	-57.68961766	-74.29838384	80.58854287	-61
10801	0	0.379760742	-0.089599609	0.055603027	0.999999046	0.000133514	0.000119209	0.000213623	9.494018555	-2.239990234	1.390075684	0.00667572	0.005960465	0.010681152	-0.583984375	-0.223144531	-0.531982422	887.52	-57.64422412	-74.2749416	80.55965939	-61
10802	0	0.379281998	-0.088709831	0.055532455	0.999999046	-0.000104904	-3.8147E-06	6.77109E-05	9.482049942	-2.217745781	1.388311386	-0.005245209	-0.000190735	0.003385544	-0.581787109	-0.221191406	-0.532226563	887.54	-57.63680602	-74.27328021	80.53848166	-61
10803	0	0.379333496	-0.089538574	0.057800293	0.999999046	-0.000141144	-0.000163078	-9.15527E-05	9.483337402	-2.238464355	1.445007324	-0.00705719	-0.008153915	-0.004577637	-0.581787109	-0.223388672	-0.529052734	887.54	-57.65341643	-74.29682482	80.54330213	-61
10804	0	0.380162239	-0.092110634	0.058442116	0.999999046	-0.000367165	-5.53131E-05	-8.39233E-05	9.504055977	-2.302765846	1.461052895	-0.018358231	-0.002765656	-0.004196167	-0.581787109	-0.220947266	-0.526367188	887.54	-57.66044062	-74.31292518	80.51071499	-61
10805	0	0.378417969	-0.091003418	0.056518555	0.999999046	-0.000267029	-3.71933E-05	0.000293732	9.460449219	-2.275085449	1.412963867	-0.013351441	-0.001859665	0.014686585	-0.581787109	-0.221191406	-0.529296875	887.52	-57.73223784	-74.29131462	80.55597562	-61
10806	0	0.379405975	-0.090524673	0.056746483	0.999999046	0.000207901	-0.000387192	0.000193596	9.485149384	-2.263116837	1.418662071	0.01039505	-0.019359589	0.009679795	-0.581787109	-0.221191406	-0.529296875	887.52	-57.84845259	-74.30077766	80.70323245	-61
10807	0	0.380371094	-0.091125488	0.057067871	0.999999046	8.7738E-05	-0.00032711	-8.7738E-05	9.509277344	-2.278137207	1.426696777	0.004386902	-0.016355515	-0.004386902	-0.584228516	-0.223388672	-0.531982422	887.52	-57.89686326	-74.33380725	80.76672827	-61
10808	0	0.379020691	-0.091720581	0.057689667	0.999999046	5.81741E-05	-0.000209808	0.000117302	9.475517273	-2.293014526	1.442241669	0.002908707	-0.010490418	0.005865097	-0.584228516	-0.220947266	-0.529296875	887.42	-57.9526705	-74.33968653	80.83312817	-61
10809	0	0.378234863	-0.091430664	0.058105469	0.999999046	0.000858307	-0.000388145	9.91821E-05	9.455871582	-2.285766602	1.452636719	0.042915351	-0.019407275	0.004959107	-0.581787109	-0.223388672	-0.529296875	887.44	-57.97459373	-74.35805722	80.95978662	-61
10810	0	0.380519867	-0.090003014	0.058329582	0.999999046	0.000944138	-0.000486374	-0.000144958	9.512996674	-2.25007534	1.458239555	0.047206888	-0.0243187	-0.007247926	-0.584228516	-0.220947266	-0.529296875	887.52	-57.9676654	-74.40609357	81.06189997	-61
10811	0	0.381896973	-0.090698242	0.057556152	0.999999046	0.000595093	-0.000308037	-8.39233E-05	9.547424316	-2.267456055	1.438903809	0.029754641	-0.015401841	-0.004196167	-0.584228516	-0.223144531	-0.526123047	887.52	-57.95200117	-74.4373424	81.11755367	-61
10812	0	0.381703377	-0.090688705	0.057488441	0.999999046	0.000958443	-0.000415802	-1.62125E-05	9.542584419	-2.267217636	1.437211037	0.047922143	-0.020790104	-0.000810623	-0.586425781	-0.227539063	-0.528564453	887.58	-57.94709011	-74.46853685	81.23005091	-61
10813	0	0.381774902	-0.090087891	0.056762695	0.999999046	0.001121521	-0.00033474	7.24792E-05	9.544372559	-2.252197266	1.419067383	0.056076063	-0.016736988	0.003623963	-0.586425781	-0.225341797	-0.528808594	887.44	-57.91464517	-74.48619635	81.32766248	-61
10814	0	0.382042885	-0.087090492	0.054991722	0.999999046	0.000642776	-0.000377655	6.10352E-05	9.551072121	-2.177262306	1.374793053	0.032138827	-0.018882753	0.003051758	-0.583984375	-0.227783203	-0.525878906	887.44	-57.9496354	-74.50774587	81.44155304	-61
10815	0	0.379882813	-0.088684082	0.056030273	0.999999046	0.000629425	-0.000449181	-0.000263214	9.497070313	-2.217102051	1.400756836	0.031471256	-0.022459033	-0.013160707	-0.586669922	-0.227539063	-0.522705078	887.54	-57.94020393	-74.5651642	81.509255	-61
10816	0	0.380898476	-0.089997292	0.05866909	0.999999046	0.001076698	-0.000602722	-0.000344276	9.522461891	-2.249932289	1.466727257	0.05383493	-0.030136117	-0.017213826	-0.584228516	-0.227539063	-0.520019531	887.58	-57.91558553	-74.63970528	81.61224935	-61
10817	0	0.381591797	-0.090148926	0.05859375	0.999999046	0.000961304	-0.000189781	-2.28882E-05	9.539794922	-2.253723145	1.46484375	0.048065193	-0.009489061	-0.001144409	-0.586425781	-0.232177734	-0.522460938	887.48	-57.82928458	-74.65780465	81.64073982	-61
10818	0	0.379663467	-0.088805199	0.055445671	0.999999046	0.000541687	3.43323E-05	0.000220299	9.491586685	-2.220129967	1.386141777	0.027084352	0.001716614	0.011014939	-0.586425781	-0.229736328	-0.519775391	887.58	-57.76600271	-74.63863946	81.64157945	-61
10819	0	0.380981445	-0.088867188	0.0546875	0.999999046	0.000679016	4.76837E-06	-3.8147E-05	9.524536133	-2.221679688	1.3671875	0.033950808	0.000238419	-0.001907349	-0.586425781	-0.229736328	-0.525390625	887.52	-57.64014473	-74.64635237	81.58732628	-61
10820	0	0.382452011	-0.088516235	0.057557106	0.999999046	0.000567436	1.33514E-05	-9.25064E-05	9.561300278	-2.212905884	1.43892765	0.028371812	0.000667572	-0.004625321	-0.586425781	-0.229736328	-0.522705078	887.52	-57.51155509	-74.65875701	81.51840797	-61
10821	0	0.380310059	-0.088256836	0.054931641	0.999999046	0.000118256	0.000199318	0.000423431	9.507751465	-2.206420898	1.373291016	0.005912781	0.009965897	0.021171571	-0.583984375	-0.234375	-0.51953125	887.52	-57.48488695	-74.60986333	81.51104182	-60
10822	0	0.377466202	-0.088136673	0.05540657	0.999999046	5.91278E-05	0.000144958	0.000487328	9.436655045	-2.203416824	1.385164261	0.002956391	0.007247925	0.02436638	-0.586425781	-0.229736328	-0.522705078	887.54	-57.4985172	-74.55814965	81.53069991	-61
10823	0	0.377868652	-0.088745117	0.05657959	0.999999046	0.000259399	-0.000220299	0.000167847	9.446716309	-2.21862793	1.414489746	0.012969971	-0.011014939	0.008392334	-0.586425781	-0.231933594	-0.51953125	887.52	-57.54573232	-74.5597681	81.61465599	-61
10824	0	0.379938126	-0.090491295	0.05682373	0.999999046	0.000452995	-0.000116348	-0.000206947	9.49845314	-2.262282372	1.420593262	0.022649766	-0.005817414	-0.010347367	-0.583984375	-0.232177734	-0.51953125	887.44	-57.45091602	-74.59114107	81.57204422	-61
10825	0	0.379211426	-0.090026855	0.055847168	0.999999046	0.000324249	-1.81198E-05	1.14441E-05	9.480285645	-2.250671387	1.396179199	0.016212464	-0.000905991	0.000572205	-0.583984375	-0.232177734	-0.522460938	887.52	-57.38538875	-74.59529905	81.54104159	-61
10826	0	0.379149437	-0.089084625	0.055523872	0.999999046	-0.000335693	0.000148773	0.000277519	9.478735924	-2.227115631	1.388096809	-0.016784669	0.00743866	0.013875962	-0.586425781	-0.232177734	-0.522460938	887.44	-57.39690927	-74.56346069	81.51408431	-61
10827	0	0.380493164	-0.090332031	0.053527832	0.999999046	-0.000629425	0.000206947	0.000259399	9.512329102	-2.258300781	1.338195801	-0.031471255	0.010347367	0.012969972	-0.586425781	-0.229736328	-0.525390625	887.38	-57.41843055	-74.52981102	81.45809985	-60
10828	0	0.379019737	-0.090169907	0.054180145	0.999999046	-0.000214577	-7.05719E-05	0.00014782	9.475493431	-2.254247665	1.354503632	-0.010728836	-0.003528595	0.007390976	-0.586425781	-0.232177734	-0.522460938	887.54	-57.46491417	-74.52406977	81.48442923	-60
10829	0	0.379272461	-0.089904785	0.05456543	0.999999046	1.90735E-05	-0.000136375	2.67029E-05	9.481811523	-2.247619629	1.364135742	0.000953674	-0.006818771	0.001335144	-0.586425781	-0.232177734	-0.525390625	887.52	-57.48103007	-74.53409604	81.50390481	-61
10830	0	0.378488541	-0.088947296	0.054525375	0.999999046	-0.000366211	-0.000156403	0.000377655	9.462213516	-2.223682404	1.363134384	-0.018310548	-0.00782013	0.018882752	-0.586425781	-0.229736328	-0.525390625	887.52	-57.62655484	-74.5114489	81.60925874	-61
10831	0	0.379394531	-0.089416504	0.056518555	0.999999046	-0.000713348	-9.82285E-05	0.00038147	9.484863281	-2.235412598	1.412963867	-0.035667423	-0.004911423	0.019073488	-0.586669922	-0.227539063	-0.522705078	887.44	-57.7919621	-74.48478262	81.69536885	-61
10832	0	0.381899834	-0.089970589	0.055276871	0.999999046	-0.000325203	-0.000148773	-0.000187874	9.547495842	-2.249264717	1.381921768	-0.016260148	-0.00743866	-0.009393692	-0.586425781	-0.229736328	-0.522705078	887.54	-57.80522968	-74.51641529	81.67314119	-61
10833	0	0.381835938	-0.090026855	0.056213379	0.999999046	-0.000518799	-0.000300407	-3.8147E-06	9.545898438	-2.250671387	1.405334473	-0.025939943	-0.015020371	-0.000190735	-0.586425781	-0.227539063	-0.525634766	887.58	-57.9344761	-74.53943788	81.74252882	-61
10834	0	0.380772591	-0.090817451	0.05790329	0.999999046	-0.000423431	-0.00015831	0.000270844	9.519314766	-2.270436287	1.447582245	-0.021171571	-0.007915497	0.013542176	-0.589111328	-0.227539063	-0.519775391	887.44	-58.06316012	-74.5270009	81.83099492	-61
10835	0	0.377990723	-0.087341309	0.057739258	0.999999046	-0.000255585	6.96182E-05	0.000431061	9.449768066	-2.183532715	1.443481445	-0.012779236	0.003480911	0.02155304	-0.586669922	-0.227539063	-0.519775391	887.44	-58.12682371	-74.48515736	81.87203652	-61
10836	0	0.37815094	-0.088611603	0.054937363	0.999999046	-0.001128197	0.000125885	8.67844E-05	9.453773499	-2.21529007	1.373434067	-0.056409848	0.006294252	0.004339219	-0.586669922	-0.225341797	-0.525878906	887.52	-58.1955718	-74.47347285	81.80770895	-60
10837	0	0.379150391	-0.09173584	0.054504395	0.999999046	-0.000679016	2.00272E-05	-0.000137329	9.478759766	-2.293395996	1.362609863	-0.033950808	0.001001358	-0.006866456	-0.586669922	-0.223144531	-0.520263672	887.52	-58.2015475	-74.48997252	81.73509843	-61
10838	0	0.378256798	-0.090549469	0.056531906	0.999999046	-0.000305176	-0.000244141	-9.25064E-05	9.456419945	-2.263736725	1.413297653	-0.015258789	-0.012207032	-0.004625321	-0.588867188	-0.225341797	-0.525634766	887.58	-58.2670868	-74.51798826	81.76807124	-61
10839	0	0.37713623	-0.090759277	0.055297852	0.999999046	-0.000709534	-0.000376701	1.52588E-05	9.428405762	-2.268981934	1.382446289	-0.035476688	-0.01883507	0.00076294	-0.589111328	-0.223144531	-0.522949219	887.52	-58.44946186	-74.5433761	81.87442032	-61
10840	0	0.380105972	-0.09396553	0.057196617	0.999999046	-0.000809669	-0.000656128	-0.000294685	9.502649307	-2.34913826	1.429915428	-0.040483483	-0.032806403	-0.014734271	-0.586669922	-0.223144531	-0.523193359	887.44	-58.67589346	-74.61545456	82.01313401	-61
10841	0	0.38104248	-0.09564209	0.058349609	0.999999046	-0.000358582	-0.00064373	-0.000465393	9.526062012	-2.391052246	1.458740234	-0.017929079	-0.032186512	-0.023269656	-0.589111328	-0.223144531	-0.525878906	887.38	-58.81069011	-74.70308157	82.10785635	-61
10842	0	0.380841255	-0.093683243	0.060110092	0.999999046	-0.001064301	-0.000745773	-0.000148773	9.52103138	-2.34208107	1.502752304	-0.053215042	-0.037288676	-0.007438662	-0.589111328	-0.223144531	-0.522949219	887.52	-59.13274778	-74.76523566	82.31669158	-61
10843	0	0.381774902	-0.093566895	0.06048584	0.999997139	-0.001647949	-0.001326561	-9.53674E-05	9.544372559	-2.339172363	1.512145996	-0.082397523	-0.066328098	-0.004768375	-0.591552734	-0.220703125	-0.520263672	887.42	-59.74635861	-74.85520191	82.75944756	-62
10844	0	0.375540733	-0.091738701	0.058819771	0.999997139	-0.00098896	-0.001873016	-0.00071907	9.388518333	-2.293467522	1.47049427	-0.049448055	-0.093650896	-0.035953552	-0.593994141	-0.222900391	-0.522705078	887.52	-60.36021274	-75.03682268	83.28048196	-62
10845	0	0.376281738	-0.08996582	0.06262207	0.999995232	-0.00094223	-0.002322197	-0.001495361	9.407043457	-2.249145508	1.565551758	-0.047111578	-0.116110013	-0.074768173	-0.593994141	-0.222900391	-0.516845703	887.52	-60.98729625	-75.31939007	83.82172103	-63
10846	0	0.376680374	-0.089273453	0.066501617	0.999991417	-0.002313614	-0.002519608	-0.002030373	9.417009354	-2.231836319	1.662540436	-0.115681	-0.125980709	-0.101518899	-0.596679688	-0.218261719	-0.514160156	887.44	-61.75681665	-75.6644201	84.34058348	-63
10847	0	0.375732422	-0.09576416	0.067443848	0.999985695	-0.003635406	-0.002631187	-0.002597809	9.393310547	-2.394104004	1.686096191	-0.181771139	-0.131559962	-0.129891024	-0.601318359	-0.220458984	-0.516845703	887.48	-62.63313411	-76.07010867	84.81477555	-64
10848	0	0.375827789	-0.102359772	0.065876961	0.999984741	-0.002515793	-0.003232002	-0.003644943	9.395694733	-2.558994293	1.646924019	-0.125790273	-0.161600923	-0.182248075	-0.598876953	-0.220458984	-0.516845703	887.48	-63.44883197	-76.61093876	85.35001639	-65
10849	0	0.372436523	-0.101013184	0.064697266	0.999979973	-0.001190186	-0.004317284	-0.004333496	9.310913086	-2.52532959	1.617431641	-0.059509663	-0.215865579	-0.216676207	-0.601318359	-0.224609375	-0.504638672	887.52	-64.50597694	-77.27371599	86.29604929	-67
10850	0	0.369719505	-0.102739334	0.06669426	0.999974251	-0.000499725	-0.005224228	-0.004792213	9.242987633	-2.568483353	1.667356491	-0.024986477	-0.261213594	-0.239612689	-0.603759766	-0.226806641	-0.501464844	887.52	-65.93051225	-78.02134488	87.68821869	-73
10851	0	0.367004395	-0.105712891	0.06463623	0.999970436	0.000873566	-0.00568676	-0.005062103	9.175109863	-2.642822266	1.615905762	0.043678711	-0.284340781	-0.253107641	-0.605712891	-0.233398438	-0.500732422	887.52	-67.56206582	-78.8081089	89.44069796	-71
10852	0	0.36752224	-0.098350525	0.061616898	0.999967575	0.001268387	-0.005843163	-0.005225182	9.188055992	-2.458763123	1.54042244	0.063420009	-0.292161197	-0.261261825	-0.610595703	-0.237792969	-0.491455078	887.6	-69.45153654	-79.60581713	91.49413848	-65
10853	0	0.373046875	-0.100158691	0.059020996	0.999962807	0.001747131	-0.00638485	-0.005516052	9.326171875	-2.503967285	1.475524902	0.087357648	-0.319246428	-0.275806025	-0.614990234	-0.246337891	-0.484619141	887.48	-71.89083118	-80.43846545	94.15525398	-65
10854	0	0.37077713	-0.095815659	0.05567646	0.999958038	0.002732277	-0.006686211	-0.005553246	9.269428253	-2.395391464	1.391911507	0.136615736	-0.334315157	-0.277666119	-0.6171875	-0.255126953	-0.475097656	887.48	-74.89390658	-81.26034577	97.49415104	-67
10855	0	0.365600586	-0.088806152	0.056945801	0.999959946	0.002636909	-0.006824493	-0.00510025	9.140014648	-2.220153809	1.42364502	0.131847222	-0.341229194	-0.255015893	-0.622070313	-0.26171875	-0.459716797	887.54	-78.72418995	-82.00043259	101.6546998	-75
10856	0	0.360773087	-0.081656456	0.055585861	0.999961853	0.00112915	-0.007216454	-0.004780769	9.019327164	-2.0414114	1.38964653	0.056458237	-0.360827261	-0.239041504	-0.629150391	-0.270263672	-0.447021484	887.44	-83.88452756	-82.65996227	106.9845168	-73
10857	0	0.358398438	-0.083435059	0.055358887	0.999958038	-0.000369072	-0.007320404	-0.005348206	8.959960938	-2.085876465	1.383972168	-0.018453851	-0.366025225	-0.267413948	-0.631591797	-0.272216797	-0.437988281	887.52	-90.27924292	-83.30871836	113.3687445	-67
10858	0	0.356973648	-0.087303162	0.060028076	0.99995327	-0.000385284	-0.007616043	-0.005906105	8.924341202	-2.182579041	1.500701904	-0.01926452	-0.380808059	-0.295309831	-0.633789063	-0.276611328	-0.434570313	887.58	-98.29948704	-83.9143445	121.3651318	-65
10859	0	0.35333252	-0.088378906	0.066589355	0.999958038	-0.000761986	-0.007183075	-0.005615234	8.833312988	-2.209472656	1.664733887	-0.03809982	-0.359158758	-0.280765636	-0.638671875	-0.283203125	-0.419189453	887.44	-107.2817525	-84.35837328	130.2887646	-67
10860	0	0.355196953	-0.095144272	0.076795578	0.999962807	-0.001908302	-0.00680542	-0.004924774	8.87992382	-2.378606796	1.91988945	-0.095416296	-0.340275205	-0.246241754	-0.640869141	-0.289550781	-0.409912109	887.48	-116.7895999	-84.59129624	139.6118602	-75
10861	0	0.359680176	-0.114013672	0.093139648	0.999974251	-0.001724243	-0.006018639	-0.003475189	8.992004395	-2.850341797	2.328491211	-0.086212895	-0.300934502	-0.173760945	-0.643310547	-0.287353516	-0.409912109	887.52	-124.9530414	-84.58567277	147.580983	-65
10862	0	0.358329773	-0.128763199	0.109692574	0.999994278	0.001254082	-0.002928734	0.000173569	8.958244324	-3.219079971	2.742314339	0.062704193	-0.14643694	0.008678451	-0.645751953	-0.289550781	-0.403808594	887.44	-126.9956134	-84.38234504	149.7559307	-78
10863	0	0.348999023	-0.154541016	0.147338867	0.999962807	-0.002433777	0.003521919	0.007472992	8.724975586	-3.863525391	3.68347168	-0.121690347	0.17609814	0.373654216	-0.646240234	-0.282714844	-0.3984375	887.5	-118.8656281	-83.88828413	141.3301742	-73
10864	0	0.293067932	-0.195145607	0.175884247	0.999735832	-0.004654884	0.008758545	0.020706177	7.326698303	-4.878640175	4.397106171	-0.232764669	0.437965729	1.035399816	-0.649169922	-0.260253906	-0.411865234	887.52	-104.1867526	-82.02324348	126.0899853	-70
10865	0	0.271118164	-0.278320313	0.225524902	0.999369621	-0.000125885	0.012875557	0.033081055	6.777954102	-6.958007813	5.638122559	-0.006295573	0.643913134	1.654400324	-0.6484375	-0.215820313	-0.430175781	887.54	-92.12301659	-78.42422659	113.9528452	-67
10866	0	0.193603516	-0.321554184	0.226870537	0.998743057	0.02808857	0.021494865	0.035489082	4.840087891	-8.038854599	5.67176342	1.405016777	1.075193465	1.77519741	-0.642822266	-0.169433594	-0.457519531	887.6	-79.68916609	-74.11430242	104.4467315	-75
10867	0	0.119689941	-0.203369141	0.211120605	0.998428345	0.036522865	0.02664566	0.033096313	2.992248535	-5.084228516	5.278015137	1.827100079	1.332981074	1.65568272	-0.630859375	-0.152099609	-0.497558594	887.52	-69.36632487	-69.55494227	97.87977106	-67
10868	0	0.118377686	-0.1734972	0.149403572	0.998776436	0.025057793	0.02999115	0.030272484	2.959442139	-4.33743	3.735089302	1.253400494	1.500168934	1.514241366	-0.608642578	-0.148681641	-0.539794922	887.6	-62.23178553	-64.88261364	93.22632417	-64
10869	0	0.101745605	-0.144226074	0.113830566	0.99793148	0.045963287	0.036408424	0.026348114	2.543640137	-3.605651855	2.84576416	2.299750149	1.821677347	1.318314738	-0.579101563	-0.15234375	-0.590576172	887.6	-53.15878487	-59.99206287	88.74474218	-71
10870	0	0.021133423	0.041062355	0.074996948	0.996397018	0.071761131	0.039862633	0.021281242	0.528335571	1.026558876	1.874923706	3.592371175	1.995528363	1.065341645	-0.546875	-0.216308594	-0.633544922	887.58	-42.09653985	-55.00179449	85.213902	-81
10871	0	-0.01739502	0.06439209	0.016479492	0.99298954	0.111404419	0.039372444	-0.003154755	-0.434875488	1.609802246	0.411987305	5.583273516	1.973235234	-0.158107355	-0.517578125	-0.333740234	-0.654296875	887.54	-25.45992352	-51.33957576	80.09656308	-69
10872	0	0.749628067	-0.151352882	-0.214486122	0.996177673	0.085157394	0.010241508	-0.016505241	18.74070168	-3.78382206	-5.362153053	4.263302339	0.512728782	-0.826315022	-0.491210938	-0.528320313	-0.587158203	887.6	-12.95015614	-50.7714683	76.69218999	-64
10873	0	1.94708252	-0.453308105	0.934143066	0.993096352	0.005298615	0.084626198	0.081050873	48.67706299	-11.33270264	23.35357666	0.265542044	4.241073501	4.061894753	-0.495117188	-0.615234375	-0.550537109	887.58	-18.60774044	-38.8001107	85.94838286	-69
10874	0	0.540262222	-0.074219704	0.058437347	0.991642952	-0.050020218	0.091503143	0.075942993	13.50655556	-1.855492592	1.460933685	-2.508000415	4.587943256	3.807761468	-0.509521484	-0.517089844	-0.651123047	887.6	-26.88216872	-25.69230527	90.80734701	-84
10875	0	0.836547852	-0.542541504	-0.371765137	0.994252205	-0.057739258	0.070252419	0.056499481	20.91369629	-13.5635376	-9.294128418	-2.89250631	3.519365706	2.830398451	-0.444580078	-0.353027344	-0.811035156	887.58	-34.10875166	-15.46369484	92.41822273	-72
10876	0	0.650075912	-0.512077332	0.448064804	0.999857903	0.000584602	0.001787186	0.016716003	16.25189781	-12.80193329	11.2016201	0.029231496	0.089363498	0.835839592	-0.402832031	-0.243164063	-0.865966797	887.48	-34.45750157	-14.24620596	93.90803779	-81
10877	0	0.214599609	-0.152038574	0.486572266	0.999822617	-0.005541801	-0.013778687	-0.011577606	5.364990234	-3.800964355	12.16430664	-0.277106451	-0.688975049	-0.578914528	-0.419677734	-0.240478516	-0.865478516	887.6	-35.05880202	-16.33423359	93.69708832	-76
10878	0	0.148833275	-0.2734375	0.308258057	0.999903679	-0.005437851	-0.006669998	-0.010845184	3.720831871	-6.8359375	7.706451416	-0.271901234	-0.333510563	-0.542276541	-0.429199219	-0.244384766	-0.855712891	887.52	-35.52608587	-17.71129509	93.09117027	-75
10879	0	0.248046875	-0.245117188	0.297851563	0.999740601	-0.009531975	-0.012756348	-0.016235352	6.201171875	-6.127929688	7.446289063	-0.47663983	-0.637872372	-0.811837565	-0.438964844	-0.244140625	-0.846679688	887.58	-36.41711006	-20.02794805	92.40155195	-75
10880	0	0.244344711	-0.271928787	0.257306099	0.999426842	-0.017683983	-0.008893967	-0.027444839	6.108617783	-6.798219681	6.432652473	-0.884367971	-0.444783244	-1.372503989	-0.451171875	-0.239013672	-0.843505859	887.54	-37.72265294	-22.78318294	90.36604162	-73
10881	0	0.459716797	-0.221984863	0.084411621	0.998081207	0.01504612	-0.028648376	-0.052787781	11.49291992	-5.549621582	2.110290527	0.752787497	-1.433335641	-2.641078376	-0.450683594	-0.254882813	-0.842041016	887.44	-34.5845594	-29.0709662	87.07186575	-67
10882	0	0.700059891	-0.218156815	0.037887573	0.994084358	-0.014326096	-0.0676651	-0.083731651	17.50149727	-5.453920364	0.947189331	-0.717720417	-3.389941353	-4.194856535	-0.471679688	-0.340820313	-0.790039063	887.52	-33.73523579	-40.99412688	82.67373696	-64
10883	0	0.40826416	-0.253540039	0.21875	0.989574432	-0.034586906	-0.101318359	-0.096328735	10.206604	-6.338500977	5.46875	-1.735379842	-5.083595402	-4.833243641	-0.518554688	-0.390136719	-0.728027344	887.58	-34.75836968	-56.95764884	78.70283163	-70
10884	0	-0.025802612	-0.100139618	0.344587326	0.993393898	-0.008704185	-0.087911606	-0.073238373	-0.645065308	-2.503490448	8.614683151	-0.436170123	-4.405284794	-3.670003375	-0.569824219	-0.461181641	-0.623291016	887.44	-33.04861544	-70.11077951	75.67871322	-70
10885	0	-0.321655273	-0.180114746	0.573059082	0.999668121	0.009694099	-0.017349243	-0.016361237	-8.041381836	-4.502868652	14.32647705	0.48475852	-0.867557992	-0.818152205	-0.590087891	-0.520263672	-0.547607422	887.54	-30.26174499	-72.83017667	73.93332521	-72
10886	0	-0.125035286	0.033821106	-0.112128258	0.998795509	0.008844376	0.037519455	0.030344963	-3.125882149	0.845527649	-2.803206444	0.442396358	1.876726063	1.51785742	-0.580078125	-0.536132813	-0.543945313	887.52	-31.39378684	-67.39799518	76.23849825	-70
10887	0	0.655090332	-0.284240723	0.306274414	0.999277115	0.003273964	0.022987366	0.030094147	16.3772583	-7.106018066	7.656860352	0.16373764	1.149645233	1.505069905	-0.571044922	-0.512207031	-0.572509766	887.52	-34.23009334	-63.34990915	79.77035057	-69
10888	0	0.653613091	-0.208628654	0.293465614	0.999605179	-0.006137848	0.013728142	0.023730278	16.34032726	-5.215716362	7.336640358	-0.306932779	0.686497414	1.186670034	-0.573974609	-0.480957031	-0.606933594	887.52	-37.35157825	-60.51727947	82.50243494	-70
10889	0	0.412353516	-0.132751465	0.121887207	0.999802589	-0.002853394	0.002984047	0.019424438	10.30883789	-3.318786621	3.047180176	-0.142679056	0.149212155	0.97128577	-0.582519531	-0.445068359	-0.62109375	887.6	-40.29222741	-58.89116631	85.51630674	-67
10890	0	0.371520042	-0.174030304	0.21796608	0.999917984	-0.00231266	0.001326561	0.012481689	9.28800106	-4.350757599	5.449151993	-0.115636151	0.06632985	0.624101418	-0.598144531	-0.415527344	-0.625732422	887.52	-42.15464155	-57.8669827	87.37923023	-64
10891	0	0.31427002	-0.203857422	0.217407227	0.999956131	0.001862526	0.008403778	0.00346756	7.856750488	-5.096435547	5.435180664	0.093127634	0.420194935	0.173380479	-0.598388672	-0.404541016	-0.632324219	887.58	-41.41423966	-56.91179634	86.74129474	-65
10892	0	0.328476906	-0.169197083	0.174089432	0.999938011	0.005581856	0.009279251	-0.002526283	8.211922646	-4.229927063	4.352235794	0.27909854	0.463972116	-0.126316766	-0.586425781	-0.407226563	-0.635742188	887.58	-39.40625803	-56.31558281	85.09023645	-66
10893	0	0.32244873	-0.164489746	0.175415039	0.999908447	0.006951332	0.007549286	-0.008728027	8.061218262	-4.112243652	4.385375977	0.347577119	0.377475713	-0.436414569	-0.568847656	-0.418945313	-0.64453125	887.58	-36.64067241	-56.27435742	82.7102953	-66
10894	0	0.326693535	-0.14948082	0.20732975	0.999885559	0.007946968	0.003062248	-0.012468338	8.167338371	-3.737020493	5.183243752	0.397363504	0.15311823	-0.623440592	-0.553466797	-0.441894531	-0.646240234	887.58	-33.66372963	-56.83220328	80.22220571	-66
10895	0	0.33795166	-0.140197754	0.206298828	0.999849319	0.00823307	-0.001358032	-0.015213013	8.448791504	-3.504943848	5.157470703	0.411674177	-0.067905019	-0.760688807	-0.540527344	-0.468994141	-0.641845703	887.52	-30.54876613	-57.91103493	77.63340198	-69
10896	0	0.335406303	-0.12947464	0.169729233	0.999808311	0.010586739	-0.00186348	-0.016354561	8.385157585	-3.236865997	4.24323082	0.529370727	-0.09317993	-0.817780253	-0.527587891	-0.498535156	-0.625488281	887.52	-26.829056	-59.01788684	74.6834532	-71
10897	0	0.352294922	-0.154907227	0.179443359	0.999635696	0.016907692	0.002918243	-0.020820618	8.807373047	-3.872680664	4.486083984	0.845487188	0.145929877	-1.041157217	-0.514404297	-0.530029297	-0.617675781	887.54	-20.98757017	-59.69767683	70.1363296	-66
10898	0	0.417612076	-0.2180233	0.141992569	0.99902916	0.028506279	0.012141228	-0.031293869	10.4403019	-5.450582504	3.549814224	1.425775043	0.607257772	-1.565199634	-0.483886719	-0.577880859	-0.603759766	887.52	-11.21770755	-59.37411313	62.58236112	-61
10899	0	0.503051758	-0.11328125	0.152832031	0.998291016	0.042775154	0.021442413	-0.03352356	12.57629395	-2.83203125	3.820800781	2.139976289	1.07273152	-1.677133001	-0.424072266	-0.649169922	-0.577880859	887.58	0.260155667	-57.31482119	54.85118968	-63
10900	0	0.442857742	-0.130620956	0.092226982	0.998016357	0.050300598	0.026867867	-0.026649475	11.07144356	-3.265523911	2.305674553	2.516693729	1.34428205	-1.333355255	-0.362060547	-0.722412109	-0.528808594	887.54	10.05507419	-54.00279006	49.96212956	-69
10901	0	0.530822754	-0.120727539	0.213317871	0.999326706	0.013634682	0.02746582	-0.020145416	13.27056885	-3.018188477	5.332946777	0.681887126	1.373599303	-1.007496933	-0.298095703	-0.780029297	-0.489501953	887.66	13.66841794	-50.48642789	47.36395926	-66
10902	0	0.481836319	0.324254036	-0.13698864	0.998214722	-0.04446888	0.039046288	0.008004189	12.04590797	8.106350899	-3.424715996	-2.224767637	1.953476621	0.400447678	-0.247558594	-0.777587891	-0.512939453	887.54	6.655787018	-46.29896553	49.94990495	-66
10903	0	0.46081543	0.362854004	-0.157043457	0.999860764	-0.008025169	0.005455017	0.013549805	11.52038574	9.071350098	-3.926086426	-0.401277046	0.272763483	0.677521601	-0.227294922	-0.716308594	-0.594726563	887.54	4.088509012	-45.89815989	52.20775371	-67
10904	0	0.342599869	0.20306015	0.038053513	0.999808311	0.006747246	0.004844666	0.017688751	8.564996719	5.076503754	0.951337814	0.337383766	0.242248697	0.884493863	-0.244628906	-0.699951172	-0.598144531	887.54	2.780542297	-45.55038881	55.09800647	-69
10905	0	0.365478516	0.047851563	0.199707031	0.999922752	-0.006076813	0.002518654	0.010471344	9.136962891	1.196289063	4.992675781	-0.303848382	0.125935903	0.523580545	-0.255126953	-0.684082031	-0.587158203	887.54	0.881002476	-45.38928484	56.79692992	-82
10906	0	0.336294174	-0.143234253	0.164200783	0.999857903	-0.004442215	0.005908966	0.015098572	8.407354355	-3.580856323	4.105019569	-0.222121212	0.295462221	0.754964153	-0.255859375	-0.659423828	-0.603759766	887.44	-1.351800885	-44.79813044	59.2148047	-66
10907	0	0.408447266	-0.09765625	0.215942383	0.99965477	-0.018168449	-0.003135681	0.018699646	10.21118164	-2.44140625	5.39855957	-0.908526911	-0.156802083	0.935089794	-0.266357422	-0.632324219	-0.611328125	887.56	-5.596046881	-45.12487949	62.26172884	-66
10908	0	0.40319252	-0.063781738	0.343616486	0.999705315	-0.005507469	0.002038956	0.023550987	10.079813	-1.594543457	8.59041214	-0.275400505	0.101957797	1.177665016	-0.291992188	-0.589111328	-0.622314453	887.52	-8.879155399	-44.64979025	65.98815805	-67
10909	0	0.333251953	-0.031982422	0.220397949	0.999647141	0.001698494	-0.003730774	0.026210785	8.331298828	-0.799560547	5.50994873	0.084934663	-0.186560584	1.310693022	-0.314697266	-0.557128906	-0.629394531	887.58	-11.70183553	-44.63148116	70.2242309	-66
10910	0	0.276623726	-0.025764465	0.372579575	0.999286652	0.014649391	-0.026778221	0.02220726	6.915593147	-0.644111633	9.314489365	0.732643612	-1.339229216	1.110626857	-0.354248047	-0.535644531	-0.614501953	887.58	-13.30178473	-47.16896427	74.69020003	-72
10911	0	0.309631348	0.155090332	0.618713379	0.998877525	0.024894714	-0.028887749	0.028064728	7.740783691	3.877258301	15.46783447	1.245201278	-1.444927671	1.403761233	-0.412353516	-0.537597656	-0.567626953	887.58	-14.89284515	-49.67564483	80.55557425	-72
10912	0	0.16156292	0.24187851	0.6790905	0.998350143	0.038576126	-0.035778999	0.022953033	4.03907299	6.046962738	16.9772625	1.929867146	-1.789933886	1.148282879	-0.476074219	-0.521728516	-0.515869141	887.58	-14.96476221	-53.01954291	86.21715163	-74
10913	0	0.417541504	0.482299805	0.717895508	0.998396873	0.046573639	-0.028231621	-0.015403748	10.4385376	12.05749512	17.9473877	2.329927026	-1.412335772	-0.770599175	-0.529296875	-0.545898438	-0.423583984	887.48	-8.023569941	-56.58439345	84.27709036	-78
10914	0	0.629199028	0.320347786	0.642050743	0.998277664	0.009730339	0.00465107	-0.057662964	15.7299757	8.008694649	16.05126858	0.48679643	0.232687071	-2.884804403	-0.506835938	-0.593261719	-0.356933594	887.52	3.223663342	-56.35264607	72.3854218	-74
10915	0	0.54510498	0.065002441	0.25567627	0.99701786	0.009166718	0.011868477	-0.075698853	13.62762451	1.625061035	6.391906738	0.458792014	0.594014421	-3.788709415	-0.416259766	-0.640869141	-0.360839844	887.52	16.29960879	-53.53305526	57.97029512	-80
10916	0	0.5430336	-0.024626732	0.061339378	0.996582985	-0.033522606	0.003643036	-0.075401306	13.57584	-0.615668297	1.533484459	-1.67804204	0.182359551	-3.774365334	-0.309326172	-0.682617188	-0.357421875	887.48	22.79204268	-50.24066812	45.30579786	-67
10917	0	0.436889648	-0.241455078	-0.000854492	0.997469902	-0.027618408	-0.015704155	-0.063583374	10.92224121	-6.036376953	-0.021362305	-1.382085853	-0.785870433	-3.181851794	-0.218505859	-0.666015625	-0.410400391	887.48	28.33260647	-48.73126577	34.08425225	-65
10918	0	0.434963226	-0.168859482	-0.092179298	0.998000145	0.005573273	-0.033546448	-0.053274155	10.87408066	-4.221487045	-2.30448246	0.278849493	-1.678441094	-2.665484319	-0.168212891	-0.665527344	-0.410400391	887.5	37.29287394	-48.68100339	23.06027415	-64
10919	0	0.395935059	-0.27142334	-0.127990723	0.998613358	0.00597477	-0.034126282	-0.03963089	9.898376465	-6.785583496	-3.199768066	0.298876615	-1.707103078	-1.982460751	-0.136962891	-0.6796875	-0.381835938	887.54	44.88961582	-48.68387503	13.95009408	-61
10920	0	0.265363693	-0.206439972	-0.07505703	0.999059677	-0.014812469	-0.038006783	-0.014695168	6.634092331	-5.160999298	-1.876425743	-0.740855717	-1.90093503	-0.734988781	-0.122558594	-0.695800781	-0.355224609	887.5	48.35472096	-50.5044523	7.502581366	-66
10921	0	0.156921387	-0.26965332	0.033508301	0.998415947	-0.0365448	-0.042731285	0.001625061	3.923034668	-6.741333008	0.83770752	-1.828204968	-2.137692588	0.081295962	-0.136962891	-0.686523438	-0.375488281	887.44	48.82328255	-53.94452243	2.044175502	-69
10922	0	0.105688095	-0.238577843	0.127677917	0.998433113	-0.037569046	-0.040330887	0.009620667	2.642202377	-5.964446068	3.191947937	-1.879433789	-2.017597983	0.481284664	-0.173095703	-0.665283203	-0.407226563	887.64	48.64575361	-57.88427123	-2.5054078	-67
10923	0	0.271179199	-0.130187988	0.199401855	0.997929573	-0.042110443	-0.045531273	0.017017365	6.77947998	-3.254699707	4.985046387	-2.106976262	-2.278135875	0.851455848	-0.216796875	-0.637207031	-0.439208984	887.52	48.49387648	-62.86604421	-7.43103997	-82
10924	0	0.350104332	-0.069969177	0.259553909	0.996958733	-0.065932274	-0.036849976	0.019184113	8.752608299	-1.749229431	6.488847733	-3.299959576	-1.844368815	0.960179169	-0.275146484	-0.59765625	-0.474121094	887.56	44.31669137	-67.43458433	-10.56529093	-66
10925	0	0.335144043	-0.057189941	0.291748047	0.995547295	-0.082164764	-0.040663719	0.021915436	8.378601074	-1.429748535	7.293701172	-4.114346202	-2.036208827	1.097400944	-0.329833984	-0.518066406	-0.544677734	887.6	38.19294225	-72.65548293	-13.4939533	-63
10926	0	0.421937943	-0.057692528	0.360480309	0.99615097	-0.075108528	-0.040030479	0.020922661	10.54844856	-1.442313194	9.012007713	-3.76025098	-2.004095317	1.047477002	-0.397949219	-0.415527344	-0.593017578	887.54	32.19509452	-77.8388031	-15.72466089	-64
10927	0	0.383605957	-0.120849609	0.381103516	0.997730255	-0.057341576	-0.033180237	0.012016296	9.590148926	-3.021240234	9.527587891	-2.86924947	-1.660267892	0.601269701	-0.461669922	-0.312988281	-0.612792969	887.48	29.96321302	-81.84843727	-19.85054229	-64
10928	0	0.333530426	-0.095813751	0.382559776	0.999335289	-0.023600578	-0.025144577	0.011780739	8.338260651	-2.395343781	9.563994408	-1.180290256	-1.257507289	0.589167395	-0.510009766	-0.246582031	-0.618408203	887.54	29.30282728	-85.04655337	-21.78092105	-68
10929	0	0.327819824	-0.060852051	0.311767578	0.999580383	0.00351429	-0.019184113	0.021381378	8.195495605	-1.52130127	7.794189453	0.17573903	-0.959339574	1.069218197	-0.547363281	-0.216064453	-0.598632813	887.54	-0.835630086	-87.88687993	8.865417214	-78
10930	0	0.361430168	-0.037640572	0.219454765	0.999435425	0.01718235	-0.010954857	0.026709557	9.035754204	-0.94101429	5.486369133	0.859279196	-0.54784593	1.335729169	-0.579589844	-0.197021484	-0.583984375	887.54	-73.24157742	-86.79490145	83.31686239	-70
10931	0	0.411804199	-0.031555176	0.165283203	0.999510765	0.018245697	-0.006220818	0.024620056	10.29510498	-0.788879395	4.132080078	0.912433581	-0.311091587	1.231203498	-0.604492188	-0.180419922	-0.56640625	887.44	-86.12698104	-84.09120716	98.32643575	-66
10932	0	0.482225418	-0.038947105	0.133015633	0.999628067	0.025148392	-0.002194405	0.01027298	12.05563545	-0.973677635	3.325390816	1.257575305	-0.109733818	0.513712597	-0.621826172	-0.175292969	-0.551269531	887.48	-85.91249699	-82.90595436	100.9364567	-66
10933	0	0.455688477	0.071777344	0.058166504	0.998156548	0.059928894	0.002842903	-0.009078979	11.39221191	1.794433594	1.454162598	2.998286565	0.142232531	-0.454228009	-0.623046875	-0.206298828	-0.537109375	887.54	-74.46053403	-83.85525921	96.10805372	-66
10934	0	0.360980034	0.082386017	-0.002178192	0.999053001	0.043247223	-0.002861023	-0.003768921	9.024500847	2.059650421	-0.054454803	2.163043848	-0.143096312	-0.188505541	-0.615478516	-0.280273438	-0.516845703	887.5	-70.97236025	-84.34834013	97.46305238	-65
10935	0	0.394165039	-0.005371094	0.015991211	0.999800682	0.019145966	-0.005541801	0.000511169	9.854125977	-0.134277344	0.399780273	0.957361718	-0.277108435	0.025560165	-0.618896484	-0.322265625	-0.486816406	887.56	-74.80983671	-84.4656849	103.4951277	-65
10936	0	0.411903381	-0.043749809	0.022631645	0.999984741	0.004907608	-0.000397682	0.002238274	10.29758453	-1.093745232	0.56579113	0.245381598	-0.019884206	0.111914227	-0.623535156	-0.330810547	-0.471435547	887.6	-75.0185944	-84.21792946	104.2780868	-67
10937	0	0.422790527	-0.07421875	0.002380371	0.999926567	-0.010189056	0.00647831	0.000598907	10.56976318	-1.85546875	0.059509277	-0.50946523	0.323923372	0.029946103	-0.621337891	-0.328857422	-0.46875	887.52	-69.28338145	-83.90964194	97.3899282	-69
10938	0	0.385315895	-0.093284607	0.006942749	0.999898911	-0.009381294	0.010638237	0.00034523	9.632897377	-2.332115173	0.173568726	-0.469080451	0.531929697	0.017262084	-0.614257813	-0.317871094	-0.487548828	887.5	-60.38529082	-83.33250178	87.40113091	-70
10939	0	0.382141113	-0.070617676	0.012878418	0.999892235	-0.010154724	0.010128975	0.002864838	9.553527832	-1.765441895	0.321960449	-0.50775431	0.506466804	0.14324699	-0.600097656	-0.307373047	-0.503662109	887.44	-54.9340555	-82.40812755	80.78747433	-70
10940	0	0.39095211	-0.080742836	0.003621101	0.999807358	-0.015182495	0.010474205	0.006625175	9.773802757	-2.0185709	0.090527534	-0.759173362	0.523743784	0.331279984	-0.591064453	-0.290039063	-0.520263672	887.52	-52.95369601	-81.06109954	77.09827249	-71
10941	0	0.39263916	-0.091552734	-0.003967285	0.999826431	-0.012938499	0.00932312	0.009613037	9.815979004	-2.288818359	-0.099182129	-0.646962364	0.466182949	0.480679636	-0.584716797	-0.261230469	-0.543212891	887.54	-53.23655911	-79.51263259	75.93300168	-71
10942	0	0.39757061	-0.086421013	-0.003439903	0.999872208	-0.007565498	0.007147789	0.01212883	9.939265251	-2.160525322	-0.085997581	-0.378291024	0.357404667	0.606467319	-0.575927734	-0.237304688	-0.563232422	887.5	-54.82323085	-77.88202856	76.70368622	-71
10943	0	0.382446289	-0.087158203	0.010925293	0.999898911	-0.001143456	0.003341675	0.013751984	9.561157227	-2.178955078	0.273132324	-0.057174696	0.167089355	0.687622287	-0.576660156	-0.21484375	-0.573730469	887.58	-57.37049497	-76.33694905	79.19896512	-70
10944	0	0.377727509	-0.091650963	0.022659302	0.999885559	0.006399155	-0.000920296	0.013626099	9.443187714	-2.291274071	0.566482544	0.319969864	-0.04601653	0.681330763	-0.582275391	-0.196777344	-0.574951172	887.54	-60.13349065	-75.03429228	82.7953375	-70
10945	0	0.387207031	-0.084960938	0.019287109	0.999837875	0.013260841	-0.003276825	0.011672974	9.680175781	-2.124023438	0.482177734	0.66307775	-0.163850065	0.583680091	-0.58984375	-0.189941406	-0.56640625	887.6	-62.10591149	-74.02423776	86.387161	-70
10946	0	0.383705139	-0.075512886	0.027022362	0.999819756	0.01609993	-0.003732681	0.00933075	9.592628479	-1.887822151	0.675559044	0.805044825	-0.18664527	0.466565488	-0.601806641	-0.189453125	-0.557128906	887.48	-63.19672974	-73.25356389	89.40260309	-70
10947	0	0.381469727	-0.069152832	0.03717041	0.999851227	0.015107155	-0.004322052	0.007080078	9.536743164	-1.728820801	0.929260254	0.755395142	-0.2161133	0.354021434	-0.608886719	-0.197998047	-0.550292969	887.5	-64.06027138	-72.73189311	92.07242362	-70
10948	0	0.380536079	-0.064030647	0.042281151	0.999911308	0.011452675	-0.004453659	0.005123138	9.513401985	-1.600766182	1.05702877	0.572650661	-0.222689532	0.256164489	-0.618408203	-0.204345703	-0.537597656	887.44	-64.9823624	-72.40952555	94.37962583	-69
10949	0	0.386413574	-0.056335449	0.051452637	0.99996376	0.006989479	-0.00359726	0.003044128	9.660339355	-1.40838623	1.286315918	0.349478092	-0.179865106	0.152208224	-0.625488281	-0.208496094	-0.528076172	887.38	-65.77197077	-72.25534812	96.02212996	-68
10950	0	0.391308784	-0.039693832	0.076100349	0.999992371	-0.003205299	-0.00140667	0.001066208	9.782719612	-0.99234581	1.902508736	-0.160265327	-0.070333638	0.053310513	-0.627685547	-0.212890625	-0.527587891	887.42	-66.70223951	-72.20295925	96.60875948	-67
10951	0	0.389953613	-0.059020996	0.076965332	0.999916077	-0.0128088	0.000637054	-0.001689911	9.748840332	-1.475524902	1.924133301	-0.640457849	0.031853611	-0.084497901	-0.630615234	-0.201660156	-0.53125	887.52	-67.66646156	-72.34998855	96.08278407	-66
10952	0	0.380185127	-0.096590996	0.064725876	0.999908447	-0.012739182	0.001360893	-0.004340172	9.504628181	-2.414774895	1.618146896	-0.636978502	0.068046738	-0.217015209	-0.628417969	-0.192626953	-0.531982422	887.44	-68.00860988	-72.74915694	94.91867606	-66
10953	0	0.377502441	-0.114196777	0.054199219	0.999968529	-0.00345993	0.00093174	-0.007076263	9.437561035	-2.854919434	1.354980469	-0.172998335	0.046587479	-0.353816881	-0.626220703	-0.188476563	-0.538330078	887.48	-66.99531946	-73.45453617	93.43129557	-66
10954	0	0.376253128	-0.10064888	0.045028687	0.999938965	0.00616169	0.000548363	-0.009099007	9.406328201	-2.516222	1.125717163	0.308090704	0.02741869	-0.454959512	-0.620849609	-0.199707031	-0.540527344	887.48	-64.53976101	-74.37651504	91.57976148	-67
10955	0	0.377441406	-0.085876465	0.043762207	0.999926567	0.006950378	9.63211E-05	-0.009910583	9.436035156	-2.146911621	1.094055176	0.347527409	0.004816173	-0.495541278	-0.615234375	-0.219970703	-0.539306641	887.5	-61.73744977	-75.38162109	89.4718287	-68
10956	0	0.380874634	-0.08339119	0.050299644	0.999950409	0.001831055	-0.000338554	-0.009718895	9.521865845	-2.084779739	1.257491112	0.091554229	-0.016927995	-0.485952679	-0.609619141	-0.240234375	-0.534912109	887.48	-59.41289749	-76.36719677	87.27720691	-69
10957	0	0.385803223	-0.091552734	0.050170898	0.999959946	-0.001631737	-0.000282288	-0.008758545	9.645080566	-2.288818359	1.254272461	-0.081587918	-0.014114567	-0.437933046	-0.604492188	-0.251708984	-0.531494141	887.52	-57.39784419	-77.23448308	85.01023901	-72
10958	0	0.389137268	-0.094862938	0.04956913	0.999973297	-0.002198219	0.000277519	-0.006923676	9.728431702	-2.371573448	1.239228249	-0.109911933	0.013876084	-0.346186826	-0.6015625	-0.260742188	-0.539550781	887.48	-55.46406697	-77.87207872	82.76696797	-73
10959	0	0.388793945	-0.092651367	0.048095703	0.999987602	-0.002346039	0.00099659	-0.004154205	9.719848633	-2.31628418	1.202392578	-0.117302405	0.04982968	-0.207711088	-0.593994141	-0.269775391	-0.533447266	887.48	-53.92022898	-78.18728397	80.92767794	-75
10960	0	0.384819031	-0.089427948	0.045992851	0.999992371	-0.003334045	0.001088142	-0.001107216	9.620475769	-2.2356987	1.149821281	-0.166702646	0.054407242	-0.055360919	-0.591552734	-0.270019531	-0.536376953	887.48	-53.39104555	-78.20734121	80.01447119	-76
10961	0	0.381958008	-0.091491699	0.046813965	0.999992371	-0.003241539	0.000389099	0.001659393	9.548950195	-2.28729248	1.170349121	-0.162077312	0.019455	0.082969851	-0.589355469	-0.265625	-0.539794922	887.64	-54.06101939	-78.01867953	80.33644929	-76
10962	0	0.380761147	-0.092878342	0.04693985	0.999995232	-0.001451492	-0.000141144	0.002603531	9.519028664	-2.321958542	1.173496246	-0.072574723	-0.0070572	0.130176737	-0.589599609	-0.261230469	-0.54296875	887.54	-55.03578788	-77.77550242	81.17744011	-76
10963	0	0.379638672	-0.088928223	0.047790527	0.999994278	0.000599861	-0.000293732	0.003162384	9.490966797	-2.223205566	1.194763184	0.029993109	-0.01468661	0.158119477	-0.594482422	-0.256591797	-0.543212891	887.54	-55.9730902	-77.48607224	82.21905538	-75
10964	0	0.37934494	-0.081017494	0.048639297	0.999990463	0.000909805	-0.000393867	0.004131317	9.483623505	-2.025437355	1.215982437	0.045490402	-0.019693434	0.206566478	-0.596923828	-0.254150391	-0.540283203	887.6	-57.13905676	-77.10618087	83.53730656	-73
10965	0	0.384216309	-0.077392578	0.050170898	0.999985695	-0.000778198	-0.000288963	0.005161285	9.605407715	-1.934814453	1.254272461	-0.038910089	-0.014448232	0.258065445	-0.599609375	-0.249511719	-0.540527344	887.48	-58.64193986	-76.61351619	85.00918607	-72
10966	0	0.388066292	-0.081238747	0.051103592	0.999982834	-0.001114845	-0.000414848	0.00567627	9.701657295	-2.030968666	1.277589798	-0.055742576	-0.020742533	0.283815068	-0.599853516	-0.240722656	-0.544189453	887.58	-60.24676046	-76.06881088	86.54322747	-70
10967	0	0.387390137	-0.080688477	0.050964355	0.999983788	0.000358582	-0.000605583	0.005622864	9.684753418	-2.017211914	1.274108887	0.017929173	-0.030279322	0.281144693	-0.604980469	-0.233886719	-0.541503906	887.54	-61.63076923	-75.53131085	88.02896153	-69
10968	0	0.383627892	-0.076363564	0.052199364	0.999985695	0.000430107	-0.000715256	0.005222321	9.590697289	-1.909089088	1.304984093	0.021505456	-0.035762954	0.261117245	-0.607666016	-0.224853516	-0.545166016	887.48	-62.86627218	-75.03293071	89.36301593	-68
10969	0	0.382873535	-0.07635498	0.0546875	0.999991417	0.001087189	-0.000697136	0.00384903	9.571838379	-1.908874512	1.3671875	0.054359585	-0.034856892	0.192452006	-0.612792969	-0.220214844	-0.542236328	887.44	-63.68436789	-74.66903671	90.34650458	-67
10970	0	0.382369041	-0.069710732	0.059184074	0.999994278	0.002747536	-0.000336647	0.001817703	9.559226036	-1.742768288	1.47960186	0.137377036	-0.016832382	0.090885328	-0.612792969	-0.218017578	-0.542480469	887.44	-63.77249712	-74.49472815	90.76422017	-66
10971	0	0.379882813	-0.063842773	0.058776855	0.999997139	0.002059937	0.000103951	-0.000305176	9.497070313	-1.596069336	1.469421387	0.102996901	0.005197529	-0.0152588	-0.615478516	-0.217773438	-0.536621094	887.52	-63.38111034	-74.51747625	90.60436843	-67
10972	0	0.385590553	-0.070278168	0.055178642	0.999997139	-0.001299858	0.000370026	-0.001461983	9.639763832	-1.756954193	1.379466057	-0.064992948	0.018501294	-0.073099185	-0.615234375	-0.217773438	-0.539550781	887.5	-63.05533292	-74.64574231	90.11162719	-67
10973	0	0.385253906	-0.083740234	0.053100586	0.999994278	-0.002181053	0.00025177	-0.002464294	9.631347656	-2.093505859	1.327514648	-0.109052856	0.012588524	-0.123214945	-0.610351563	-0.218017578	-0.545410156	887.54	-62.67258689	-74.88213803	89.44915599	-69
10974	0	0.381895065	-0.090488434	0.047156334	0.999994278	-0.000542641	0.000517845	-0.003249168	9.547376633	-2.262210846	1.178908348	-0.027132085	0.025892306	-0.162458721	-0.610351563	-0.222412109	-0.539306641	887.5	-61.82410516	-75.18228952	88.50917314	-69
10975	0	0.377929688	-0.0859375	0.049133301	0.999993324	0.000507355	0.000561714	-0.003376007	9.448242188	-2.1484375	1.22833252	0.025367787	0.028085765	-0.168800691	-0.607666016	-0.227050781	-0.541992188	887.44	-60.77341073	-75.48895412	87.48360615	-70
10976	0	0.379138947	-0.086443901	0.048181534	0.999994278	-9.15527E-05	0.000370979	-0.003220558	9.478473663	-2.161097527	1.204538345	-0.004577645	0.018548998	-0.161028191	-0.607421875	-0.231445313	-0.544433594	887.56	-59.85858407	-75.78662286	86.52904054	-72
10977	0	0.381652832	-0.087646484	0.04699707	0.999994278	-0.000678062	0.000370026	-0.003013611	9.541320801	-2.191162109	1.174926758	-0.033903177	0.018501312	-0.150680785	-0.602539063	-0.236083984	-0.541503906	887.54	-59.02340147	-76.06032242	85.59340085	-73
10978	0	0.382838249	-0.090044022	0.04746151	0.999996185	-0.000723839	0.000216484	-0.002644539	9.57095623	-2.25110054	1.186537743	-0.036191986	0.010824217	-0.132227111	-0.600097656	-0.238525391	-0.544433594	887.54	-58.31324929	-76.30380344	84.7796034	-75
10979	0	0.381713867	-0.090087891	0.046875	0.999998093	-0.000689507	-7.62939E-06	-0.001811981	9.54284668	-2.252197266	1.171875	-0.034475348	-0.00038147	-0.090599117	-0.602294922	-0.240722656	-0.543945313	887.56	-57.87721346	-76.47768515	84.25612528	-76
10980	0	0.381308556	-0.089567184	0.047842979	0.999999046	-0.000361443	-0.000318527	-0.000905037	9.53271389	-2.239179611	1.196074486	-0.018072131	-0.015926364	-0.045251854	-0.597412109	-0.242919922	-0.544189453	887.54	-57.75371232	-76.58170837	84.09288243	-76
10981	0	0.382751465	-0.089355469	0.049316406	0.999999046	-9.91821E-05	-0.000487328	-5.34058E-05	9.568786621	-2.233886719	1.232910156	-0.004959107	-0.02436638	-0.002670288	-0.599853516	-0.245117188	-0.543945313	887.54	-57.88806585	-76.61312792	84.23019131	-76
10982	0	0.38171196	-0.087006569	0.051000595	0.999999046	-0.000106812	-0.000585556	0.000807762	9.542798996	-2.175164223	1.275014877	-0.005340577	-0.029277806	0.040388114	-0.599853516	-0.245117188	-0.541015625	887.6	-58.28389994	-76.56632758	84.63878132	-76
10983	0	0.383422852	-0.08404541	0.04864502	0.999998093	-0.00045681	-0.000480652	0.001682281	9.585571289	-2.101135254	1.216125488	-0.022840512	-0.024032606	0.084114121	-0.602294922	-0.240722656	-0.546875	887.54	-58.8911445	-76.42691383	85.21516585	-76
10984	0	0.383371353	-0.085506439	0.052775383	0.999997139	-0.000393867	-0.00060463	0.001917839	9.584283829	-2.13766098	1.319384575	-0.019693388	-0.030231497	0.09589202	-0.602294922	-0.240722656	-0.546875	887.56	-59.58573584	-76.26990149	85.89288421	-75
10985	0	0.383117676	-0.08190918	0.05090332	0.999997139	0.000362396	-0.000517845	0.001873016	9.577941895	-2.047729492	1.272583008	0.018119824	-0.025892275	0.093650879	-0.604736328	-0.23828125	-0.544189453	887.54	-60.13341329	-76.11073649	86.5101959	-74
10986	0	0.382212639	-0.078418732	0.055689812	0.999998093	0.000336647	-0.000285149	0.001826286	9.555315971	-1.960468292	1.392245293	0.016832362	-0.014257439	0.09131437	-0.607421875	-0.235839844	-0.541259766	887.54	-60.56606543	-75.94197525	87.00832105	-73
10987	0	0.383728027	-0.077453613	0.053100586	0.999998093	-0.000258446	-5.34058E-05	0.001903534	9.593200684	-1.936340332	1.327514648	-0.012922295	-0.00267029	0.095176755	-0.605224609	-0.233886719	-0.538574219	887.44	-60.9797591	-75.75201169	87.41897591	-72
10988	0	0.383921623	-0.079493523	0.052835464	0.999998093	-0.000198364	0.000300407	0.001590729	9.598040581	-1.987338066	1.320886612	-0.009918217	0.015020377	0.079536473	-0.607421875	-0.231445313	-0.544433594	887.48	-61.16974227	-75.5736413	87.60160155	-73
10989	0	0.383728027	-0.078796387	0.050231934	0.999999046	0.000305176	0.000344276	0.000854492	9.593200684	-1.969909668	1.25579834	0.015258791	0.017213824	0.042724616	-0.607666016	-0.229248047	-0.541748047	887.54	-61.12405016	-75.46715969	87.60071063	-72
10990	0	0.382400513	-0.078688622	0.049138069	0.999999046	-6.10352E-05	0.000427246	0.000437737	9.560012817	-1.967215538	1.228451729	-0.003051758	0.021362306	0.021886827	-0.607666016	-0.231445313	-0.541748047	887.44	-60.99961147	-75.39837327	87.48058558	-72
10991	0	0.381530762	-0.081176758	0.048339844	0.999999046	-2.67029E-05	0.000397682	4.57764E-05	9.538269043	-2.029418945	1.208496094	-0.001335144	0.01988411	0.002288818	-0.607666016	-0.227050781	-0.544921875	887.56	-60.79994028	-75.37082067	87.27677688	-73
10992	0	0.382584572	-0.081092834	0.046807289	0.999999046	-5.62668E-05	0.000396729	-0.00023365	9.564614296	-2.027320862	1.170182228	-0.002813339	0.019836426	-0.011682511	-0.605224609	-0.227050781	-0.547851563	887.48	-60.54482974	-75.37150766	87.00859354	-72
10993	0	0.383422852	-0.083251953	0.04699707	0.999999046	-0.000179291	0.000351906	-0.000453949	9.585571289	-2.081298828	1.174926758	-0.008964539	0.017595292	-0.02269745	-0.607666016	-0.231445313	-0.541748047	887.56	-60.27353314	-75.39672718	86.72379694	-72
10994	0	0.381267548	-0.083838463	0.047599792	0.999999046	-1.52588E-05	0.000114441	-0.000507355	9.53168869	-2.095961571	1.189994812	-0.000762939	0.005722046	-0.025367738	-0.607666016	-0.229248047	-0.544677734	887.52	-60.06190027	-75.44077272	86.51255601	-73
10995	0	0.38470459	-0.082458496	0.047180176	0.999999046	-0.000335693	-0.000124931	-0.00038147	9.617614746	-2.061462402	1.179504395	-0.016784669	-0.006246567	-0.019073487	-0.605224609	-0.229248047	-0.544921875	887.64	-60.00590835	-75.48627583	86.42244911	-74
10996	0	0.382462502	-0.085190773	0.049222946	0.999999046	6.58035E-05	-0.000301361	-0.000599861	9.561562538	-2.129769325	1.230573654	0.003290177	-0.015068055	-0.02999306	-0.602783203	-0.229492188	-0.544921875	887.66	-59.92304731	-75.56369834	86.34943568	-75
10997	0	0.381713867	-0.084960938	0.051513672	0.999999046	0.000183105	-0.000288963	-0.00062561	9.54284668	-2.124023438	1.287841797	0.009155274	-0.014448167	-0.03128052	-0.605224609	-0.229492188	-0.547851563	887.5	-59.81532855	-75.6430067	86.26113787	-76
10998	0	0.381485939	-0.085196495	0.054862976	0.999999046	-0.000242233	-0.000101089	-0.000396729	9.537148476	-2.129912376	1.371574402	-0.012111664	-0.005054474	-0.019836427	-0.602783203	-0.231689453	-0.541992188	887.54	-59.73392358	-75.68871799	86.1574352	-76
10999	0	0.383117676	-0.086730957	0.05267334	0.999999046	-0.000293732	0.000126839	-6.10352E-05	9.577941895	-2.168273926	1.316833496	-0.014686585	0.006341934	-0.003051758	-0.600341797	-0.231689453	-0.544921875	887.54	-59.64583164	-75.68794246	86.03752197	-76
11000	0	0.382381439	-0.085617065	0.053024292	0.999999046	0.000128746	0.000204086	0.000148773	9.55953598	-2.140426636	1.3256073	0.006437302	0.010204315	0.00743866	-0.602539063	-0.231689453	-0.547607422	887.6	-59.52721383	-75.66187138	85.93501551	-77
11001	0	0.383666992	-0.085571289	0.052062988	0.999999046	0.000175476	6.19888E-05	0.000156403	9.591674805	-2.139282227	1.301574707	0.008773804	0.003099442	0.007820129	-0.600341797	-0.231689453	-0.541992188	887.48	-59.46038306	-75.64329462	85.89550759	-77
11002	0	0.381009102	-0.085856438	0.051101685	0.999999046	0.00018692	0.000190735	0.000227928	9.525227547	-2.146410942	1.277542114	0.009346008	0.009536743	0.011396408	-0.600341797	-0.231689453	-0.547851563	887.48	-59.35953662	-75.61015613	85.81704293	-77
11003	0	0.382263184	-0.085388184	0.051635742	0.999999046	0.000255585	0.000206947	0.000495911	9.55657959	-2.13470459	1.290893555	0.012779237	0.010347367	0.024795534	-0.602539063	-0.231689453	-0.547607422	887.54	-59.30626296	-75.54967451	85.79784463	-77
11004	0	0.382586479	-0.083850861	0.050188065	0.999999046	0.000166893	0.000205994	0.000544548	9.56466198	-2.096271515	1.254701614	0.008344651	0.010299683	0.027227403	-0.602539063	-0.233886719	-0.544677734	887.54	-59.27523011	-75.484619	85.79861903	-77
11005	0	0.382385254	-0.084960938	0.049499512	0.999999046	-0.000102997	0.000329018	0.000843048	9.559631348	-2.124023438	1.237487793	-0.005149842	0.016450884	0.042152411	-0.600341797	-0.229492188	-0.548095703	887.54	-59.2964119	-75.38312131	85.81152527	-76
11006	0	0.382399559	-0.081465721	0.048207283	0.999999046	-0.000196457	0.000137329	0.000735283	9.559988976	-2.036643028	1.205182076	-0.009822846	0.006866456	0.036764149	-0.600341797	-0.229492188	-0.545166016	887.48	-59.3765513	-75.30380939	85.8790904	-77
11007	0	0.382751465	-0.084228516	0.050842285	0.999999046	-6.86646E-05	-0.000178337	0.000621796	9.568786621	-2.105712891	1.271057129	-0.003433228	-0.008916855	0.031089785	-0.603027344	-0.227294922	-0.542236328	887.48	-59.5348418	-75.2542557	86.04381657	-77
11008	0	0.381994247	-0.083490372	0.050876617	0.999999046	0.000380516	-0.000185013	0.00014782	9.549856186	-2.087259293	1.271915436	0.019025803	-0.009250641	0.007390976	-0.600341797	-0.229492188	-0.548095703	887.44	-59.53909357	-75.25209588	86.09844357	-77
11009	0	0.380187988	-0.082397461	0.055114746	0.999999046	0.000221252	-0.00020504	0	9.504699707	-2.059936523	1.377868652	0.011062622	-0.010251999	0	-0.600341797	-0.231689453	-0.547851563	887.48	-59.53576352	-75.26585166	86.12959284	-77
11010	0	0.380819321	-0.083106995	0.05310154	0.999999046	-0.000408173	-6.86646E-05	9.91821E-05	9.520483017	-2.077674866	1.32753849	-0.020408631	-0.003433228	0.004959107	-0.602783203	-0.229492188	-0.541992188	887.58	-59.57499045	-75.2620554	86.13401825	-77
11011	0	0.380554199	-0.085571289	0.052185059	0.999999046	-0.000118256	-6.67572E-06	-0.000110626	9.51385498	-2.139282227	1.304626465	-0.005912781	-0.000333786	-0.005531311	-0.600585938	-0.227294922	-0.545166016	887.66	-59.51146179	-75.27546928	86.05840662	-77
11012	0	0.381793976	-0.084828377	0.052890778	0.999999046	2.76566E-05	-0.00018692	-0.000451088	9.544849396	-2.120709419	1.32226944	0.001382828	-0.009346009	-0.022554398	-0.602783203	-0.229492188	-0.547851563	887.48	-59.42314224	-75.33305903	85.97572369	-77
11013	0	0.38079834	-0.08605957	0.051025391	0.999999046	0.00019455	-0.000235558	-0.000713348	9.519958496	-2.151489258	1.275634766	0.009727479	-0.011777879	-0.035667423	-0.600341797	-0.229492188	-0.548095703	887.48	-59.2748734	-75.41936596	85.84709553	-77
11014	0	0.379727364	-0.086900711	0.054297447	0.999999046	0.000553131	-0.000270844	-0.000588417	9.49318409	-2.172517776	1.35743618	0.027656559	-0.013542177	-0.029420856	-0.600341797	-0.231689453	-0.5390625	887.56	-59.12556297	-75.49525876	85.76951158	-77
11015	0	0.381408691	-0.086425781	0.052185059	0.999999046	0.000476837	-0.000330925	-0.000450134	9.535217285	-2.160644531	1.304626465	0.02384186	-0.016546251	-0.022506716	-0.600341797	-0.231689453	-0.541992188	887.52	-59.03870894	-75.56102936	85.741909	-76
11016	0	0.383167267	-0.085605621	0.051218987	0.999999046	0.000224113	-0.000162125	-0.000248909	9.579181671	-2.140140533	1.280474663	0.011205673	-0.008106232	-0.01244545	-0.597900391	-0.234130859	-0.541992188	887.48	-58.96248294	-75.59709505	85.69710188	-77
11017	0	0.381835938	-0.085144043	0.049926758	0.999999046	-0.000152588	-1.43051E-05	0.000236511	9.545898438	-2.128601074	1.248168945	-0.007629395	-0.000715256	0.011825562	-0.602539063	-0.236083984	-0.547363281	887.44	-58.98504206	-75.57681287	85.71108892	-76
11018	0	0.382833481	-0.086439133	0.048666954	0.999999046	-0.000837326	-0.000228882	0.000441551	9.570837021	-2.160978317	1.216673851	-0.041866309	-0.011444094	0.022077564	-0.602539063	-0.233886719	-0.547607422	887.54	-59.21569426	-75.54904176	85.85707619	-76
11019	0	0.382446289	-0.088134766	0.05090332	0.999999046	0.000297546	-0.00052166	0.000278473	9.561157227	-2.203369141	1.272583008	0.01487732	-0.026082994	0.013923646	-0.600341797	-0.231689453	-0.5390625	887.54	-59.39143122	-75.5542647	86.08263826	-76
11020	0	0.380317688	-0.085080147	0.053302765	0.999999046	0.000853539	-0.00047493	6.38962E-05	9.5079422	-2.12700367	1.332569122	0.042676932	-0.023746494	0.003194809	-0.602539063	-0.233886719	-0.544677734	887.6	-59.43700283	-75.57780028	86.23636412	-78
11021	0	0.380310059	-0.081970215	0.052307129	0.999999046	-0.000148773	-0.000285149	0.000492096	9.507751465	-2.049255371	1.307678223	-0.00743866	-0.014257432	0.024604799	-0.602783203	-0.233886719	-0.538818359	887.56	-59.62110993	-75.54805698	86.42113529	-77
11022	0	0.383123398	-0.086208344	0.051878929	0.999999046	-0.000495911	-9.91821E-05	0.000457764	9.578084946	-2.155208588	1.296973228	-0.024795534	-0.004959107	0.022888185	-0.602539063	-0.233886719	-0.541748047	887.54	-59.76541657	-75.51082317	86.52246349	-78
11023	0	0.382995605	-0.086120605	0.050964355	0.999999046	0.000286102	-0.000235558	0.000171661	9.574890137	-2.153015137	1.274108887	0.014305115	-0.011777878	0.008583069	-0.602539063	-0.233886719	-0.541748047	887.44	-59.80840856	-75.50977598	86.61077809	-77
11024	0	0.383051872	-0.083538055	0.051258087	0.999999046	0.000309944	-0.000293732	0.000221252	9.576296806	-2.088451385	1.281452179	0.015497208	-0.014686585	0.011062622	-0.605224609	-0.233886719	-0.538574219	887.48	-59.88189688	-75.50727476	86.73696874	-77
11025	0	0.382080078	-0.083190918	0.052246094	0.999999046	0.000118256	-0.000220299	0.000247955	9.552001953	-2.079772949	1.306152344	0.005912781	-0.011014939	0.012397766	-0.602539063	-0.233886719	-0.541748047	887.5	-59.95471992	-75.49798168	86.83488048	-77
11026	0	0.381206512	-0.082513809	0.05118084	0.999999046	-4.57764E-05	-6.86646E-05	0.000270844	9.530162811	-2.06284523	1.279520988	-0.002288818	-0.003433228	0.013542175	-0.604980469	-0.231689453	-0.544677734	887.54	-59.99293105	-75.47785304	86.8725235	-77
11027	0	0.3828125	-0.084594727	0.051513672	0.999999046	-0.000240326	-6.38962E-05	3.43323E-05	9.5703125	-2.114868164	1.287841797	-0.012016297	-0.003194809	0.001716614	-0.604980469	-0.233886719	-0.541503906	887.5	-59.99915278	-75.48099167	86.86168031	-77
11028	0	0.383178711	-0.084218979	0.051484108	0.999999046	6.77109E-05	-0.0001297	-6.19888E-05	9.579467773	-2.105474472	1.287102699	0.003385544	-0.006484985	-0.003099442	-0.602783203	-0.231689453	-0.541992188	887.54	-59.97384528	-75.49755377	86.84846546	-77
11029	0	0.382446289	-0.081542969	0.049743652	0.999999046	0	-9.05991E-05	8.7738E-05	9.561157227	-2.038574219	1.243591309	0	-0.004529953	0.004386902	-0.602539063	-0.233886719	-0.544677734	887.54	-59.97438495	-75.49725285	86.85509257	-76
11030	0	0.382318497	-0.082709312	0.051076889	0.999999046	-0.000431061	0	0.000171661	9.557962418	-2.067732811	1.276922226	-0.02155304	0	0.008583069	-0.605224609	-0.231445313	-0.538818359	887.56	-60.00799806	-75.4835707	86.84897673	-76
11031	0	0.38104248	-0.085266113	0.050231934	0.999999046	-0.000190735	-3.33786E-05	-0.000453949	9.526062012	-2.131652832	1.25579834	-0.009536744	-0.00166893	-0.02269745	-0.602783203	-0.231689453	-0.536132813	887.6	-59.88822038	-75.53389103	86.71402679	-76
11032	0	0.381061554	-0.084573746	0.050416946	0.999999046	6.38962E-05	7.24792E-05	-0.000530243	9.526538849	-2.114343643	1.26042366	0.003194809	0.003623963	-0.026512147	-0.602783203	-0.231689453	-0.5390625	887.5	-59.68053961	-75.58560441	86.51432066	-76
11033	0	0.3828125	-0.084106445	0.048400879	0.999999046	-0.000358582	0.000153542	4.19617E-05	9.5703125	-2.102661133	1.210021973	-0.017929078	0.007677078	0.002098084	-0.602783203	-0.231689453	-0.5390625	887.54	-59.61870156	-75.57603768	86.41632678	-76
11034	0	0.383645058	-0.086065292	0.046991348	0.999999046	-0.000307083	-8.96454E-05	0.000144005	9.591126442	-2.151632309	1.174783707	-0.015354157	-0.004482269	0.007200241	-0.602783203	-0.231689453	-0.541992188	887.54	-59.66844882	-75.57054429	86.43740965	-76
11035	0	0.383239746	-0.085266113	0.047485352	0.999999046	0.000331879	-0.000201225	8.01086E-05	9.580993652	-2.131652832	1.187133789	0.016593934	-0.010061264	0.004005432	-0.602783203	-0.231689453	-0.541992188	887.44	-59.67426549	-75.57792538	86.4875945	-76
11036	0	0.382695198	-0.084136963	0.047203064	0.999999046	0.000353813	-0.000259399	0.000102997	9.567379951	-2.103424072	1.180076599	0.017690659	-0.012969971	0.005149841	-0.602539063	-0.233886719	-0.544677734	887.5	-59.70580371	-75.58654883	86.56689364	-76
11037	0	0.382202148	-0.083496094	0.047729492	0.999999046	2.67029E-05	-0.000182152	0.000328064	9.555053711	-2.087402344	1.193237305	0.001335144	-0.00910759	0.016403199	-0.605224609	-0.231445313	-0.538818359	887.54	-59.79612367	-75.56855565	86.67120818	-76
11038	0	0.383080482	-0.083806038	0.048447609	0.999999046	-8.01086E-05	-0.000179291	0.000370026	9.577012062	-2.095150948	1.211190224	-0.004005432	-0.008964539	0.018501282	-0.602783203	-0.231689453	-0.5390625	887.48	-59.90705428	-75.54632379	86.78351623	-75
11039	0	0.383666992	-0.085144043	0.050109863	0.999999046	-4.57764E-05	-0.000227928	0.000137329	9.591674805	-2.128601074	1.252746582	-0.002288818	-0.011396408	0.006866455	-0.605224609	-0.231445313	-0.538818359	887.54	-59.98089211	-75.5499602	86.86255288	-75
11040	0	0.383544922	-0.084583282	0.051695824	0.999999046	0.000348091	-0.000123978	0.000121117	9.588623047	-2.114582062	1.292395592	0.017404557	-0.006198883	0.006055832	-0.605224609	-0.231445313	-0.541748047	887.5	-59.96576584	-75.54925733	86.89239275	-75
11041	0	0.383605957	-0.081298828	0.049072266	0.999999046	-0.000110626	-0.000155449	0.000331879	9.590148926	-2.032470703	1.226806641	-0.005531311	-0.007772446	0.016593934	-0.605224609	-0.233642578	-0.535644531	887.44	-60.06201979	-75.52965776	86.99383345	-74
11042	0	0.385090828	-0.08510685	0.051800728	0.999999046	-4.00543E-05	-7.62939E-05	3.33786E-05	9.627270699	-2.127671242	1.295018196	-0.002002716	-0.003814697	0.00166893	-0.605224609	-0.229248047	-0.5390625	887.48	-60.0532682	-75.53516936	86.98333907	-74
11043	0	0.38293457	-0.083618164	0.050415039	0.999999046	0.000579834	4.673E-05	-0.000415802	9.573364258	-2.090454102	1.260375977	0.028991702	0.002336502	-0.020790102	-0.605224609	-0.233642578	-0.535644531	887.5	-59.82582451	-75.5782457	86.82980586	-75
11044	0	0.380740166	-0.082691193	0.053170204	0.999999046	0.000182152	0.00028038	-0.000153542	9.518504143	-2.067279816	1.329255104	0.00910759	0.014019013	-0.007677078	-0.602539063	-0.233886719	-0.541748047	887.42	-59.61145208	-75.58171992	86.63500396	-74
11045	0	0.381103516	-0.084350586	0.050109863	0.999999046	4.57764E-05	0.000290871	0.000148773	9.527587891	-2.108764648	1.252746582	0.002288818	0.014543534	0.00743866	-0.604980469	-0.233886719	-0.541503906	887.54	-59.47723754	-75.55458838	86.50903533	-74
11046	0	0.383857727	-0.084949493	0.048203468	0.999999046	0.000362396	0.000379562	-0.000213623	9.596443176	-2.123737335	1.205086708	0.018119813	0.01897812	-0.010681153	-0.600341797	-0.233886719	-0.541748047	887.56	-59.1917096	-75.5579564	86.26069023	-74
11047	0	0.383300781	-0.083435059	0.048217773	0.999999046	0.000335693	0.000332832	-0.000434875	9.582519531	-2.085876465	1.205444336	0.016784669	0.016641618	-0.021743776	-0.602783203	-0.233886719	-0.538818359	887.56	-58.87660232	-75.58562796	85.98185662	-74
11048	0	0.380595207	-0.08398819	0.048160553	0.999999046	0.000132561	0.000362396	7.53403E-05	9.51488018	-2.099704742	1.204013824	0.006628037	0.018119812	0.003767014	-0.602539063	-0.236083984	-0.538574219	887.54	-58.69150874	-75.56130204	85.81777649	-74
11049	0	0.381530762	-0.085266113	0.047851563	0.999999046	0.000553131	0.000271797	0.000282288	9.538269043	-2.131652832	1.196289063	0.027656557	0.01358986	0.014114381	-0.602539063	-0.233886719	-0.544677734	887.54	-58.54211869	-75.52205454	85.72924382	-73
11050	0	0.381457329	-0.083292007	0.048760414	0.999999046	0.000421524	0.000202179	0.000274658	9.53643322	-2.082300186	1.219010353	0.021076203	0.010108948	0.013732911	-0.602539063	-0.233886719	-0.541748047	887.5	-58.43352889	-75.48778725	85.670158	-74
11051	0	0.383483887	-0.083496094	0.050720215	0.999999046	-0.000141144	0.000256538	0.000305176	9.587097168	-2.087402344	1.268005371	-0.00705719	0.01282692	0.01525879	-0.600341797	-0.236083984	-0.538818359	887.54	-58.37667341	-75.44734626	85.60523773	-73
11052	0	0.382430077	-0.084171295	0.048999786	0.999999046	-4.673E-05	0.000326157	0.000576019	9.560751915	-2.104282379	1.224994659	-0.002336502	0.016307832	0.028800966	-0.600097656	-0.236083984	-0.541748047	887.54	-58.34655511	-75.37638807	85.57750629	-73
11053	0	0.382629395	-0.081115723	0.049865723	0.999999046	-0.000324249	0.000435829	0.000808716	9.565734863	-2.027893066	1.246643066	-0.016212466	0.021791462	0.040435797	-0.600341797	-0.233886719	-0.538818359	887.56	-58.36127566	-75.27636716	85.56540324	-73
11054	0	0.381719589	-0.082864761	0.04996109	0.999999046	-0.000444412	0.000267029	0.000529289	9.542989731	-2.071619034	1.249027252	-0.022220614	0.013351442	0.026464465	-0.600341797	-0.229492188	-0.548095703	887.56	-58.388926	-75.21393042	85.53681224	-73
11055	0	0.381286621	-0.083496094	0.051269531	0.999999046	-2.28882E-05	0.000172615	0.000164032	9.532165527	-2.087402344	1.281738281	-0.001144409	0.008630753	0.008201599	-0.600341797	-0.229492188	-0.542236328	887.6	-58.32034718	-75.19292511	85.46561954	-73
11056	0	0.380935669	-0.082708359	0.051823616	0.999999046	4.1008E-05	0.000360489	0.000434875	9.523391724	-2.067708969	1.295590401	0.0020504	0.018024446	0.021743776	-0.600341797	-0.229492188	-0.545166016	887.64	-58.23725429	-75.13432097	85.38525988	-73
11057	0	0.382446289	-0.082336426	0.051025391	0.999999046	-0.000469208	0.000515938	0.000366211	9.561157227	-2.058410645	1.275634766	-0.023460391	0.025796893	0.018310549	-0.600341797	-0.229492188	-0.548095703	887.48	-58.1409552	-75.07319871	85.23048296	-73
11058	0	0.383369446	-0.084740639	0.051034927	0.999999046	-0.000461578	0.000404358	0.000121117	9.584236145	-2.118515968	1.275873184	-0.02307892	0.020217897	0.006055832	-0.597900391	-0.229736328	-0.548095703	887.48	-58.03013626	-75.04274768	85.06274219	-73
11059	0	0.381652832	-0.085510254	0.051452637	0.999999046	-0.00018692	0.000218391	7.62939E-05	9.541320801	-2.137756348	1.286315918	-0.009346008	0.010919571	0.003814697	-0.597900391	-0.229736328	-0.548095703	887.48	-57.94617741	-75.0279601	84.95632891	-73
11060	0	0.381189346	-0.085100174	0.05311203	0.999999046	5.62668E-05	-1.33514E-05	0.000221252	9.529733658	-2.127504349	1.327800751	0.002813339	-0.000667572	0.011062622	-0.598144531	-0.229492188	-0.542236328	887.5	-57.95172652	-75.01322331	84.97752935	-73
11061	0	0.381835938	-0.08416748	0.052490234	0.999999046	-0.00012207	-1.04904E-05	0.00018692	9.545898438	-2.104187012	1.312255859	-0.006103516	-0.000524521	0.009346008	-0.597900391	-0.229492188	-0.545166016	887.6	-57.96902316	-75.0017723	84.98691591	-73
11062	0	0.382049561	-0.084629059	0.053437233	0.999999046	-0.000339508	3.43323E-05	-6.10352E-05	9.551239014	-2.115726471	1.335930824	-0.016975403	0.001716614	-0.003051758	-0.598144531	-0.227294922	-0.548339844	887.5	-57.9387449	-75.01176263	84.91448573	-73
11063	0	0.380615234	-0.086914063	0.052490234	0.999999046	-0.000102997	6.19888E-05	1.52588E-05	9.515380859	-2.172851563	1.312255859	-0.005149841	0.003099442	0.000762939	-0.595703125	-0.227539063	-0.545654297	887.54	-57.88907469	-75.01263822	84.85232658	-73
11064	0	0.382436752	-0.084190369	0.051359177	0.999999046	0.000166893	-0.000135422	0.000144005	9.560918808	-2.104759216	1.283979416	0.00834465	-0.006771088	0.007200241	-0.598144531	-0.227294922	-0.548339844	887.5	-57.90969971	-75.01318979	84.89254355	-73
11065	0	0.383239746	-0.08416748	0.053771973	0.999999046	-0.000225067	-0.000224113	0.00012207	9.580993652	-2.104187012	1.344299316	-0.011253357	-0.011205673	0.006103516	-0.593261719	-0.227539063	-0.545654297	887.6	-58.00239986	-75.02135364	84.96176039	-73
11066	0	0.382388115	-0.084468842	0.053500175	0.999999046	-0.000146866	-0.000202179	-7.72476E-05	9.559702873	-2.111721039	1.337504387	-0.007343292	-0.010108948	-0.003862381	-0.595703125	-0.227539063	-0.542724609	887.54	-58.03299566	-75.04761874	84.98037609	-73
11067	0	0.380371094	-0.08380127	0.055847168	0.999999046	-0.000232697	0.000164986	0.000118256	9.509277344	-2.095031738	1.396179199	-0.011634827	0.008249283	0.005912781	-0.598144531	-0.227294922	-0.542480469	887.44	-57.98379665	-75.03260059	84.90852447	-73
11068	0	0.380088806	-0.082941055	0.055200577	0.999999046	-0.00049305	0.000196457	0.000258446	9.502220154	-2.073526382	1.38001442	-0.024652483	0.009822846	0.012922288	-0.593261719	-0.227539063	-0.551513672	887.5	-57.98454366	-75.00210095	84.84728049	-73
11069	0	0.381469727	-0.084716797	0.053710938	0.999999046	-0.00037384	0.000271797	-0.000118256	9.536743164	-2.117919922	1.342773438	-0.018692017	0.01358986	-0.005912781	-0.595703125	-0.225097656	-0.545654297	887.6	-57.85893121	-75.00362655	84.67378157	-73
11070	0	0.379873276	-0.084911346	0.053853035	0.999999046	-4.57764E-05	7.62939E-05	-0.000617981	9.496831894	-2.122783661	1.346325874	-0.002288819	0.003814698	-0.03089905	-0.598144531	-0.225097656	-0.545654297	887.6	-57.65196418	-75.0654243	84.45540447	-73
11071	0	0.380981445	-0.085571289	0.05255127	0.999999046	-6.48499E-05	9.63211E-05	-0.000488281	9.524536133	-2.139282227	1.313781738	-0.003242493	0.004816056	-0.024414064	-0.598144531	-0.225097656	-0.548583984	887.6	-57.46864697	-75.11327104	84.25534181	-73
11072	0	0.379468918	-0.087222099	0.053648949	0.999999046	0.000103951	-2.67029E-05	-0.000305176	9.486722946	-2.180552483	1.341223717	0.005197525	-0.001335144	-0.015258789	-0.595703125	-0.227539063	-0.551269531	887.54	-57.35270132	-75.15078477	84.14440148	-73
11073	0	0.379760742	-0.086486816	0.05279541	0.999999046	6.48499E-05	-0.00014782	-0.000282288	9.494018555	-2.16217041	1.319885254	0.003242493	-0.007390976	-0.01411438	-0.593261719	-0.227539063	-0.545654297	887.54	-57.29074124	-75.19347213	84.08840201	-73
11074	0	0.381594658	-0.086752892	0.052631378	0.999999046	6.48499E-05	-0.000156403	-0.000172615	9.539866447	-2.168822289	1.315784454	0.003242493	-0.007820129	-0.008630753	-0.595458984	-0.229736328	-0.548339844	887.54	-57.25797196	-75.22604472	84.06426802	-73
11075	0	0.38092041	-0.086425781	0.052429199	0.999999046	0.0001297	-0.000250816	5.72205E-05	9.523010254	-2.160644531	1.31072998	0.006484985	-0.012540817	0.002861023	-0.593261719	-0.227539063	-0.545654297	887.54	-57.30690265	-75.24224129	84.12888847	-73
11076	0	0.382828712	-0.084625244	0.0532341	0.999999046	-0.000395775	-0.000274658	0.000289917	9.570717812	-2.115631104	1.330852509	-0.019788743	-0.013732911	0.01449585	-0.595703125	-0.229736328	-0.545410156	887.48	-57.47969542	-75.23742866	84.26638712	-73
11077	0	0.381530762	-0.088195801	0.055114746	0.999999046	-6.48499E-05	-0.00033474	0.000263214	9.538269043	-2.20489502	1.377868652	-0.003242493	-0.016736985	0.013160706	-0.593261719	-0.229736328	-0.545410156	887.48	-57.63056416	-75.23859475	84.41886106	-73
11078	0	0.379141808	-0.085289955	0.055275917	0.999999046	0.000404358	-0.000242233	0.000300407	9.478545189	-2.132248878	1.381897926	0.020217897	-0.012111664	0.015020371	-0.595703125	-0.229736328	-0.545410156	887.6	-57.70215182	-75.23030491	84.54535857	-73
11079	0	0.380554199	-0.083862305	0.057617188	0.999999046	0.000225067	-0.000208855	0.000576019	9.51385498	-2.096557617	1.440429688	0.011253358	-0.010442735	0.028800966	-0.595703125	-0.229736328	-0.542480469	887.5	-57.84485859	-75.19311037	84.7275738	-73
11080	0	0.382249832	-0.083303452	0.052549362	0.999999046	-7.9155E-05	-3.43323E-05	0.000312805	9.556245804	-2.082586288	1.313734055	-0.003957748	-0.001716614	0.015640259	-0.598144531	-0.227294922	-0.548339844	887.5	-57.8972366	-75.17084819	84.77098837	-73
11081	0	0.384460449	-0.085083008	0.053588867	0.999999046	0.00012207	-3.71933E-05	0.000141144	9.61151123	-2.127075195	1.33972168	0.006103516	-0.001859665	0.00705719	-0.597900391	-0.229736328	-0.548095703	887.54	-57.88807614	-75.16545589	84.77939788	-73
11082	0	0.381876945	-0.084079742	0.052358627	0.999999046	0.000349045	-0.000127792	0.000213623	9.546923637	-2.101993561	1.308965683	0.017452241	-0.006389618	0.010681153	-0.595703125	-0.227539063	-0.545654297	887.56	-57.90290961	-75.15861953	84.8358286	-73
11083	0	0.380065918	-0.083129883	0.052734375	0.999999046	9.91821E-05	2.38419E-05	0.000282288	9.501647949	-2.07824707	1.318359375	0.004959107	0.001192093	0.01411438	-0.597900391	-0.229492188	-0.545166016	887.6	-57.90653073	-75.13596831	84.85708415	-73
11084	0	0.379955292	-0.083456039	0.053195	0.999999046	-5.43594E-05	-0.000110626	8.39233E-05	9.498882294	-2.086400986	1.329874992	-0.002717972	-0.005531311	0.004196167	-0.595703125	-0.227539063	-0.545654297	887.6	-57.93135447	-75.14081887	84.87631755	-73
11085	0	0.382324219	-0.084594727	0.052062988	0.999999046	0.000137329	-7.9155E-05	-0.00038147	9.558105469	-2.114868164	1.301574707	0.006866455	-0.003957749	-0.019073487	-0.597900391	-0.229736328	-0.548095703	887.5	-57.81584792	-75.18899247	84.77459372	-73
11086	0	0.383252144	-0.085448265	0.052818298	0.999999046	0.000236511	-0.000110626	-0.000153542	9.581303596	-2.136206627	1.320457458	0.011825562	-0.005531311	-0.007677078	-0.595458984	-0.231933594	-0.548095703	887.5	-57.75290601	-75.21696008	84.74060838	-73
11087	0	0.382019043	-0.084289551	0.051330566	0.999999046	6.48499E-05	-0.000212669	-2.67029E-05	9.550476074	-2.10723877	1.28326416	0.003242493	-0.010633469	-0.001335144	-0.595703125	-0.229736328	-0.542480469	887.56	-57.77681415	-75.23893602	84.7775638	-73
11088	0	0.382656097	-0.085605621	0.053436279	0.999999046	-0.000201225	-0.000333786	3.8147E-06	9.566402435	-2.140140533	1.335906982	-0.010061264	-0.016689301	0.000190735	-0.595458984	-0.231933594	-0.548095703	887.54	-57.88319883	-75.26529331	84.86576058	-73
11089	0	0.381164551	-0.086608887	0.053527832	0.999999046	0.000289917	-0.000323296	-0.000312805	9.52911377	-2.165222168	1.338195801	0.01449585	-0.01616478	-0.01564026	-0.597900391	-0.231933594	-0.545166016	887.6	-57.85640112	-75.3216095	84.87707356	-73
11090	0	0.379360199	-0.08487606	0.054184914	0.999999046	0.000236511	-0.000156403	-5.81741E-05	9.484004974	-2.121901512	1.354622841	0.011825562	-0.00782013	-0.002908707	-0.597900391	-0.231933594	-0.547851563	887.64	-57.83301975	-75.34294734	84.88132312	-73
11091	0	0.382568359	-0.085510254	0.053833008	0.999999046	-0.000144958	-3.33786E-05	7.24792E-05	9.564208984	-2.137756348	1.345825195	-0.007247925	-0.00166893	0.003623962	-0.597900391	-0.231933594	-0.547851563	887.56	-57.83821917	-75.34402877	84.87036384	-73
11092	0	0.384450912	-0.086619377	0.05359745	0.999999046	-0.000422478	5.34058E-05	-5.34058E-05	9.611272812	-2.165484428	1.339936256	-0.021123887	0.002670288	-0.002670288	-0.595458984	-0.231933594	-0.545166016	887.54	-57.81382395	-75.35193231	84.79863633	-73
11093	0	0.382507324	-0.085876465	0.052429199	0.999999046	-0.000434875	6.58035E-05	0.00018692	9.562683105	-2.146911621	1.31072998	-0.021743775	0.003290177	0.009346009	-0.595458984	-0.234130859	-0.544921875	887.56	-57.84264387	-75.3357161	84.78661089	-73
11094	0	0.378684044	-0.085881233	0.052220345	0.999999046	-0.000139236	0.00015831	0.000629425	9.467101097	-2.14703083	1.305508614	-0.006961823	0.007915497	0.031471255	-0.595458984	-0.229736328	-0.548339844	887.48	-57.90652092	-75.27082764	84.83503483	-73
11095	0	0.378356934	-0.084106445	0.051635742	0.999999046	0.000358582	-0.000235558	0.000320435	9.45892334	-2.102661133	1.290893555	0.017929078	-0.011777878	0.016021729	-0.598144531	-0.229492188	-0.542236328	887.48	-57.98711901	-75.25990466	84.96706215	-73
11096	0	0.381866455	-0.083156586	0.049865723	0.999999046	1.43051E-05	-0.000120163	-6.48499E-05	9.546661377	-2.078914642	1.246643066	0.000715256	-0.006008148	-0.003242493	-0.595458984	-0.231933594	-0.548095703	887.54	-57.97587773	-75.27953766	84.95923241	-74
11097	0	0.384399414	-0.084960938	0.051086426	0.999999046	-0.000499725	-0.000247002	-0.000152588	9.609985352	-2.124023438	1.277160645	-0.024986268	-0.012350083	-0.007629395	-0.597900391	-0.229736328	-0.548095703	887.5	-58.0505979	-75.31546393	84.97693927	-74
11098	0	0.38158226	-0.086056709	0.051543236	0.999999046	8.01086E-05	-0.00047493	8.29697E-05	9.539556503	-2.151417732	1.288580894	0.004005432	-0.023746491	0.004148483	-0.595458984	-0.231933594	-0.545166016	887.58	-58.19868981	-75.34221172	85.1443531	-74
11099	0	0.38269043	-0.083190918	0.052734375	0.999999046	0.000427246	-0.000819206	0.000270844	9.567260742	-2.079772949	1.318359375	0.021362308	-0.040960318	0.013542177	-0.597900391	-0.229492188	-0.545166016	887.54	-58.47925888	-75.37123956	85.48406961	-74
11100	0	0.383529663	-0.082253456	0.05492115	0.999999046	0.000376701	-0.000516891	-0.000153542	9.588241577	-2.056336403	1.373028755	0.018835069	-0.025844576	-0.007677079	-0.598144531	-0.227294922	-0.545410156	887.54	-58.55527369	-75.4234126	85.59953769	-74
11101	0	0.381225586	-0.082397461	0.055908203	0.999999046	-0.000244141	-0.000109673	-0.000232697	9.530639648	-2.059936523	1.397705078	-0.012207032	-0.005483627	-0.011634827	-0.600341797	-0.231689453	-0.547851563	887.48	-58.5304521	-75.45891649	85.54460232	-74
11102	0	0.382192612	-0.084200859	0.055660248	0.999999046	-0.000516891	0.000181198	6.86646E-05	9.554815292	-2.105021477	1.391506195	-0.025844575	0.009059906	0.003433228	-0.600341797	-0.231689453	-0.541992188	887.54	-58.49605521	-75.4474435	85.45615842	-74
11103	0	0.382873535	-0.084594727	0.053466797	0.999999046	-0.000137329	8.4877E-05	-4.19617E-05	9.571838379	-2.114868164	1.336669922	-0.006866455	0.004243851	-0.002098084	-0.600341797	-0.229492188	-0.542236328	887.6	-58.42869989	-75.45246658	85.37423844	-74
11104	0	0.383909225	-0.084150314	0.052287102	0.999999046	0.000401497	-0.000102997	-0.000457764	9.597730637	-2.103757858	1.307177544	0.020074846	-0.005149842	-0.022888185	-0.597900391	-0.231933594	-0.545166016	887.54	-58.27356669	-75.50930975	85.26309332	-74
11105	0	0.382263184	-0.083129883	0.051696777	0.999999046	0.000278473	-1.43051E-05	-0.000320435	9.55657959	-2.07824707	1.292419434	0.013923645	-0.000715256	-0.016021729	-0.595703125	-0.231933594	-0.539306641	887.54	-58.13024721	-75.54736955	85.15357921	-74
11106	0	0.381829262	-0.083284378	0.052219391	0.999999046	-1.52588E-05	-8.01086E-05	0.000179291	9.545731544	-2.082109451	1.305484772	-0.000762939	-0.004005432	0.008964539	-0.595458984	-0.234130859	-0.541992188	887.5	-58.1623756	-75.54072421	85.1917118	-74
11107	0	0.380493164	-0.08380127	0.052001953	0.999999046	-0.000190735	-2.19345E-05	0.000148773	9.512329102	-2.095031738	1.300048828	-0.009536743	-0.001096725	0.00743866	-0.597900391	-0.234130859	-0.544921875	887.6	-58.18554391	-75.53348338	85.19849176	-74
11108	0	0.383094788	-0.084362984	0.051402092	1	-3.62396E-05	1.62125E-05	-6.86646E-05	9.57736969	-2.109074593	1.285052299	-0.001811981	0.000810623	-0.003433228	-0.595458984	-0.234130859	-0.544921875	887.48	-58.1258626	-75.54508255	85.13638833	-74
11109	0	0.382995605	-0.084716797	0.051513672	0.999999046	0.000106812	-2.57492E-05	8.01086E-05	9.574890137	-2.117919922	1.287841797	0.005340576	-0.00128746	0.004005432	-0.597900391	-0.231933594	-0.542236328	887.6	-58.10075682	-75.54469121	85.12681447	-74
11110	0	0.381946564	-0.083181381	0.050045967	0.999999046	-0.000185013	-0.000205994	0.000442505	9.548664093	-2.079534531	1.251149178	-0.009250641	-0.010299683	0.022125245	-0.595458984	-0.231933594	-0.548095703	887.54	-58.26233277	-75.51995448	85.26816497	-74
11111	0	0.384094238	-0.085021973	0.053100586	0.999999046	0.00012207	-0.000323296	0.00037384	9.602355957	-2.125549316	1.327514648	0.006103516	-0.01616478	0.018692017	-0.597900391	-0.229492188	-0.545166016	887.54	-58.41652365	-75.50879761	85.43808088	-74
11112	0	0.381565094	-0.082426071	0.054154396	0.999999046	0.000369072	-0.000196457	8.67844E-05	9.53912735	-2.060651779	1.353859901	0.018453599	-0.009822846	0.004339218	-0.600341797	-0.231689453	-0.541992188	887.54	-58.42717413	-75.5179758	85.4973511	-74
11113	0	0.380126953	-0.082092285	0.054992676	0.999999046	-6.10352E-05	9.63211E-05	0.000286102	9.503173828	-2.052307129	1.374816895	-0.003051758	0.004816055	0.014305115	-0.600341797	-0.233886719	-0.538818359	887.64	-58.42204686	-75.49008355	85.49837487	-74
11114	0	0.382205963	-0.082379341	0.052674294	0.999999046	-0.000228882	0.000190735	0.000296593	9.555149078	-2.059483528	1.316857338	-0.011444092	0.009536743	0.014829636	-0.597900391	-0.231933594	-0.542236328	887.6	-58.40279655	-75.45553572	85.45696538	-75
11115	0	0.384643555	-0.084472656	0.051513672	0.999999046	-3.05176E-05	0.000180244	-5.72205E-05	9.616088867	-2.111816406	1.287841797	-0.001525879	0.009012222	-0.002861023	-0.598144531	-0.229492188	-0.542236328	887.44	-58.28311721	-75.45613641	85.33073887	-75
11116	0	0.384389877	-0.084249496	0.051707268	0.999999046	0.00011158	-1.90735E-05	-0.000141144	9.609746933	-2.106237411	1.292681694	0.005578995	-0.000953674	-0.00705719	-0.598144531	-0.227294922	-0.545410156	887.66	-58.20258742	-75.4769002	85.25300299	-74
11117	0	0.382324219	-0.084289551	0.051879883	0.999999046	3.8147E-05	-2.19345E-05	0.000198364	9.558105469	-2.10723877	1.29699707	0.001907349	-0.001096725	0.009918213	-0.597900391	-0.231933594	-0.542236328	887.6	-58.21069642	-75.4647459	85.27135717	-75
11118	0	0.381316185	-0.083643913	0.052295685	0.999999046	-4.3869E-05	-0.000133514	0.000225067	9.532904625	-2.091097832	1.30739212	-0.002193451	-0.00667572	0.011253357	-0.598144531	-0.229492188	-0.542236328	887.54	-58.27628791	-75.45670678	85.33483552	-74
11119	0	0.382080078	-0.084411621	0.052062988	0.999999046	-8.7738E-05	5.05447E-05	4.19617E-05	9.552001953	-2.110290527	1.301574707	-0.004386902	0.002527237	0.002098084	-0.597900391	-0.231933594	-0.545166016	887.6	-58.23528172	-75.45539062	85.28468439	-75
11120	0	0.3834095	-0.085613251	0.053062439	0.999999046	-1.04904E-05	-5.72205E-05	-9.63211E-05	9.585237503	-2.140331268	1.326560974	-0.000524521	-0.002861023	-0.004816055	-0.600341797	-0.231689453	-0.544921875	887.6	-58.19374539	-75.47395914	85.24402271	-75
