Counter	Temperature	VelInc_X	VelInc_Y	VelInc_Z	OriInc_w	OriInc_x	OriInc_y	OriInc_z	Acc_X	Acc_Y	Acc_Z	Gyr_X	Gyr_Y	Gyr_Z	Mag_X	Mag_Y	Mag_Z	Pressure	Roll	Pitch	Yaw	RSSI
31191	0	0.372131348	-0.113586426	0.071655273	0.999999046	-0.00062561	0.000351906	0.000114441	9.303283691	-2.839660645	1.791381836	-0.03128052	0.017595293	0.005722046	-0.375244141	0.706298828	-0.398925781	885.52	-56.30282089	-69.97612256	-3.657799464	-61
31192	0	0.370956421	-0.113089561	0.071102142	0.999999046	-0.000115395	0.000268936	0.00031662	9.273910522	-2.827239037	1.777553558	-0.00576973	0.013446808	0.015830994	-0.375244141	0.706298828	-0.398925781	885.52	-56.28685102	-69.93704857	-3.686861135	-60
31193	0	0.371948242	-0.112487793	0.069030762	0.999999046	0.000190735	3.52859E-05	-3.05176E-05	9.298706055	-2.812194824	1.725769043	0.009536743	0.001764297	-0.001525879	-0.372802734	0.706054688	-0.398925781	885.52	-56.23688143	-69.94603982	-3.715394052	-60
31194	0	0.371095657	-0.112804413	0.071051598	0.999999046	-5.72205E-05	-8.2016E-05	-5.34058E-05	9.277391434	-2.820110321	1.77628994	-0.002861023	-0.0041008	-0.002670288	-0.375244141	0.706298828	-0.398925781	885.6	-56.24223267	-69.96471129	-3.715531008	-60
31195	0	0.370727539	-0.112976074	0.071166992	0.999999046	0.000408173	-0.00033474	9.53674E-05	9.268188477	-2.824401855	1.779174805	0.020408631	-0.016736985	0.004768372	-0.375244141	0.706298828	-0.398925781	885.52	-56.28662707	-69.98529815	-3.618502901	-60
31196	0	0.371729851	-0.112746239	0.070398331	0.999999046	0.000325203	-0.00031662	0.000125885	9.293246269	-2.818655968	1.759958267	0.016260148	-0.015830994	0.006294251	-0.375244141	0.704101563	-0.392822266	885.52	-56.3416065	-70.00184237	-3.531466125	-60
31197	0	0.37286377	-0.112548828	0.072875977	0.999999046	-0.000152588	-0.000155449	0.000133514	9.321594238	-2.813720703	1.821899414	-0.007629395	-0.007772446	0.00667572	-0.377441406	0.706298828	-0.398681641	885.54	-56.41050282	-70.0073999	-3.477000207	-60
31198	0	0.374198914	-0.113099098	0.073273659	0.999999046	-0.000436783	-6.48499E-05	0	9.354972839	-2.827477455	1.831841469	-0.021839143	-0.003242493	0	-0.375244141	0.706298828	-0.393066406	885.6	-56.46492815	-70.01994273	-3.482790742	-60
31199	0	0.372558594	-0.113464355	0.073974609	0.999999046	-6.86646E-05	-0.000189781	0.000255585	9.313964844	-2.836608887	1.849365234	-0.003433228	-0.00948906	0.012779236	-0.375244141	0.706298828	-0.395996094	885.58	-56.55438195	-70.01588752	-3.399095058	-59
31200	0	0.37252903	-0.113055229	0.075891495	0.999999046	0.000353813	-0.000226974	0.000201225	9.313225746	-2.82638073	1.897287369	0.017690659	-0.011348725	0.010061264	-0.377685547	0.706298828	-0.395751953	885.52	-56.59535043	-70.01924095	-3.31694249	-59
31201	0	0.371520996	-0.109985352	0.073669434	0.999999046	2.67029E-05	-2.19345E-05	0.000389099	9.288024902	-2.749633789	1.84173584	0.001335144	-0.001096725	0.019454957	-0.375	0.701904297	-0.395507813	885.54	-56.65200295	-69.99172532	-3.252355648	-58
31202	0	0.373085022	-0.111187935	0.072864532	0.999999046	-0.000732422	0.000247955	0.000278473	9.327125549	-2.779698372	1.821613312	-0.036621098	0.012397768	0.013923647	-0.375244141	0.706298828	-0.401611328	885.58	-56.7052574	-69.95786458	-3.273675925	-58
31203	0	0.372070313	-0.11340332	0.072692871	0.999999046	-0.000202179	0.000237465	-1.90735E-05	9.301757813	-2.835083008	1.817321777	-0.010108948	0.011873245	-0.000953674	-0.377685547	0.706298828	-0.395751953	885.6	-56.64918571	-69.95313582	-3.35941787	-58
31204	0	0.373199463	-0.111587524	0.072030067	0.999999046	0.000355721	6.86646E-05	-0.000171661	9.329986572	-2.78968811	1.800751686	0.017786026	0.003433228	-0.008583069	-0.375244141	0.706298828	-0.393066406	885.64	-56.54699593	-69.97370284	-3.433687777	-57
31205	0	0.372253418	-0.110534668	0.073425293	0.999999046	-0.000419617	0.0001688	5.72205E-05	9.306335449	-2.763366699	1.835632324	-0.020980836	0.008440018	0.002861023	-0.377685547	0.706298828	-0.392822266	885.54	-56.54670037	-69.96611096	-3.4930732	-57
31206	0	0.369773865	-0.113080025	0.072965622	0.999999046	-0.000589371	0.000165939	0.000266075	9.244346619	-2.827000618	1.824140549	-0.029468539	0.008296967	0.013303758	-0.375244141	0.706298828	-0.395996094	885.66	-56.60275806	-69.93867418	-3.503679073	-57
31207	0	0.37097168	-0.113525391	0.073791504	0.999999046	0.000408173	-8.67844E-05	2.67029E-05	9.274291992	-2.838134766	1.844787598	0.020408631	-0.004339218	0.001335144	-0.372802734	0.706054688	-0.398925781	885.6	-56.56924382	-69.95001276	-3.482757007	-57
31208	0	0.372076988	-0.112997055	0.073574066	0.999999046	0.000105858	-6.29425E-05	-0.000225067	9.301924706	-2.824926376	1.839351654	0.005292893	-0.003147125	-0.011253357	-0.377685547	0.708496094	-0.393066406	885.6	-56.52040547	-69.98389251	-3.531907258	-56
31209	0	0.371337891	-0.114318848	0.073791504	0.999999046	1.90735E-05	0.000103951	-9.53674E-05	9.283447266	-2.857971191	1.844787598	0.000953674	0.005197525	-0.004768372	-0.377685547	0.706298828	-0.392822266	885.66	-56.46013216	-69.99470031	-3.601698459	-56
31210	0	0.371709824	-0.113940239	0.073627472	0.999999046	0.000322342	-1.52588E-05	0.000366211	9.29274559	-2.848505974	1.840686798	0.016117097	-0.000762939	0.018310548	-0.380126953	0.706542969	-0.392822266	885.64	-56.47659236	-69.9688712	-3.554135219	-56
31211	0	0.372619629	-0.11315918	0.073303223	0.999999046	0.000152588	2.00272E-05	0.000473022	9.315490723	-2.828979492	1.832580566	0.007629395	0.001001358	0.023651124	-0.375244141	0.706298828	-0.398925781	885.64	-56.5216402	-69.93057496	-3.483083045	-56
31212	0	0.372020721	-0.113367081	0.073168755	0.999999046	-4.48227E-05	4.57764E-05	0.000414848	9.300518036	-2.834177017	1.829218864	-0.002241135	0.002288818	0.020742417	-0.375244141	0.706298828	-0.398925781	885.58	-56.5723298	-69.89617674	-3.429792797	-56
31213	0	0.373474121	-0.11340332	0.074890137	0.999999046	0.000274658	-9.44138E-05	0.000427246	9.336853027	-2.835083008	1.872253418	0.013732911	-0.004720688	0.021362306	-0.375244141	0.706298828	-0.398925781	885.54	-56.6247838	-69.86939383	-3.336371455	-56
31214	0	0.373757362	-0.11276722	0.073598862	0.999999046	0.000387192	-0.000181198	0.000556946	9.343934059	-2.819180489	1.839971542	0.01935959	-0.009059907	0.027847292	-0.375244141	0.704101563	-0.395751953	885.58	-56.70891012	-69.83566773	-3.200474548	-56
31215	0	0.371948242	-0.112609863	0.07409668	0.999999046	0.000343323	-1.04904E-05	0.000759125	9.298706055	-2.815246582	1.852416992	0.01716614	-0.000524521	0.037956242	-0.375244141	0.706298828	-0.395996094	885.58	-56.78744246	-69.77179267	-3.078910502	-56
31216	0	0.373185158	-0.111051559	0.073003769	0.999999046	7.15256E-05	-1.90735E-05	0.000686646	9.329628944	-2.776288986	1.825094223	0.003576279	-0.000953674	0.034332278	-0.372802734	0.706298828	-0.395996094	885.52	-56.88616376	-69.71549519	-2.968482616	-55
31217	0	0.372436523	-0.113342285	0.074829102	0.999999046	0.000476837	-0.00014019	0.000106812	9.310913086	-2.833557129	1.870727539	0.023841859	-0.007009507	0.005340576	-0.372802734	0.708251953	-0.399169922	885.54	-56.87109427	-69.72241754	-2.927044379	-55
31218	0	0.373105049	-0.112556458	0.075685501	0.999999046	0.000963211	7.82013E-05	-6.96182E-05	9.327626228	-2.813911438	1.892137527	0.048160561	0.003910065	-0.003480912	-0.375244141	0.706298828	-0.398925781	885.54	-56.71316458	-69.73260398	-2.980758117	-55
31219	0	0.373657227	-0.112365723	0.078186035	0.999999046	0.000343323	0.000191689	9.91821E-05	9.341430664	-2.809143066	1.954650879	0.017166138	0.009584427	0.004959107	-0.375244141	0.706298828	-0.401611328	885.58	-56.62486559	-69.71942511	-3.031680562	-55
31220	0	0.371896744	-0.112998962	0.074621201	0.999999046	-0.000325203	0.000305176	0.000338554	9.297418594	-2.82497406	1.865530014	-0.016260148	0.01525879	0.01692772	-0.372802734	0.706054688	-0.401855469	885.54	-56.62453336	-69.6761967	-3.068501063	-55
31221	0	0.370605469	-0.113830566	0.074829102	0.999999046	0.000156403	0.000496864	0.000213623	9.265136719	-2.84576416	1.870727539	0.00782013	0.024843217	0.010681153	-0.372802734	0.708251953	-0.404785156	885.52	-56.4983918	-69.63277384	-3.178564446	-55
31222	0	0.372375488	-0.11311245	0.074012756	0.999999046	0.000461578	0.000333786	-3.8147E-05	9.309387207	-2.827811241	1.850318909	0.02307892	0.016689301	-0.001907349	-0.372802734	0.706054688	-0.401855469	885.58	-56.33663906	-69.62369681	-3.295574185	-54
31223	0	0.372558594	-0.113586426	0.075073242	0.999999046	9.15527E-05	0.000306129	-3.8147E-05	9.313964844	-2.839660645	1.876831055	0.004577637	0.015306473	-0.001907349	-0.372802734	0.706054688	-0.404785156	885.58	-56.22441946	-69.61631374	-3.399572531	-54
31224	0	0.371728897	-0.113972664	0.073550224	0.999999046	0.000197411	0.00019455	0.000274658	9.293222427	-2.849316597	1.838755608	0.009870529	0.009727478	0.013732911	-0.375	0.703857422	-0.407226563	885.58	-56.18257607	-69.58624776	-3.408560768	-54
31225	0	0.368286133	-0.11340332	0.073608398	0.999999046	0.000293732	2.38419E-05	0.000289917	9.20715332	-2.835083008	1.840209961	0.014686585	0.001192093	0.01449585	-0.370361328	0.706054688	-0.404785156	885.48	-56.17615389	-69.56562881	-3.377330595	-54
31226	0	0.371206284	-0.114490509	0.074485779	0.999999046	9.53674E-05	0.000202179	0.00014782	9.280157089	-2.862262726	1.86214447	0.004768372	0.010108948	0.007390976	-0.370117188	0.703857422	-0.407470703	885.58	-56.12272683	-69.54715974	-3.412526429	-54
31227	0	0.373413086	-0.114501953	0.076171875	0.999999046	-0.00012207	0.000329018	9.53674E-05	9.335327148	-2.862548828	1.904296875	-0.006103516	0.016450882	0.004768372	-0.370361328	0.706054688	-0.401855469	885.58	-56.05293374	-69.52556191	-3.507218565	-52
31228	0	0.366871834	-0.113858223	0.075896263	0.999999046	-0.000496864	0.000177383	0.000422478	9.171795845	-2.846455574	1.897406578	-0.024843218	0.008869172	0.021123888	-0.370361328	0.706054688	-0.401855469	885.48	-56.12069551	-69.48248306	-3.498760226	-54
31229	0	0.363952637	-0.116394043	0.077941895	0.999999046	6.86646E-05	-0.000185966	0.000682831	9.098815918	-2.909851074	1.948547363	0.003433228	-0.009298325	0.034141543	-0.370361328	0.706054688	-0.404785156	885.6	-56.25993754	-69.43751768	-3.33772036	-54
31230	0	0.367061615	-0.113101006	0.07598877	0.999999046	0.000385284	0.000139236	0.000433922	9.176540375	-2.827525139	1.899719238	0.019264222	0.006961823	0.021696092	-0.370361328	0.706054688	-0.404785156	885.54	-56.23754129	-69.39550816	-3.312142749	-53
31231	0	0.373535156	-0.114257813	0.077514648	0.999999046	-0.000881195	0.000660896	-0.000282288	9.338378906	-2.856445313	1.937866211	-0.044059763	0.033044822	-0.014114383	-0.370361328	0.706054688	-0.404785156	885.54	-56.10655434	-69.3884551	-3.555436841	-54
31232	0	0.3742342	-0.117231369	0.075421333	0.999998093	-0.00135231	0.000712395	-0.000180244	9.355854988	-2.930784225	1.885533333	-0.067615536	0.03561975	-0.009012226	-0.372802734	0.708251953	-0.404785156	885.58	-56.03433669	-69.36825254	-3.792594464	-53
31233	0	0.36907959	-0.117858887	0.073852539	0.999999046	-0.000484467	8.10623E-05	0.000640869	9.226989746	-2.946472168	1.846313477	-0.02422333	0.004053116	0.032043461	-0.370605469	0.708251953	-0.399169922	885.58	-56.16204238	-69.31028144	-3.719923557	-53
31234	0	0.365321159	-0.113696098	0.070444107	0.999999046	-1.33514E-05	-0.000463486	0.000845909	9.133028984	-2.842402458	1.761102676	-0.000667572	-0.023174289	0.042295462	-0.368164063	0.708251953	-0.40234375	885.48	-56.40739007	-69.2674522	-3.455118938	-52
31235	0	0.366699219	-0.113525391	0.073425293	0.999999046	-8.01086E-05	-0.000369072	0.000232697	9.167480469	-2.838134766	1.835632324	-0.004005432	-0.018453599	0.011634827	-0.365966797	0.712646484	-0.402832031	885.58	-56.53347546	-69.27702775	-3.329482642	-53
31236	0	0.369812965	-0.114197731	0.073254585	0.999999046	-0.000424385	-0.000385284	-0.000362396	9.245324135	-2.854943275	1.831364632	-0.021219255	-0.019264223	-0.018119813	-0.370605469	0.710449219	-0.40234375	885.54	-56.60401403	-69.34459101	-3.301963744	-52
31237	0	0.372131348	-0.114562988	0.073730469	0.999999046	-0.000785828	-0.000597954	-1.52588E-05	9.303283691	-2.864074707	1.843261719	-0.039291388	-0.029897695	-0.00076294	-0.368408203	0.710449219	-0.396728516	885.48	-56.8286233	-69.39237446	-3.162232516	-53
31238	0	0.370881081	-0.115341187	0.074203491	0.999998093	-0.001078606	-0.000775337	0.000537872	9.272027016	-2.883529663	1.85508728	-0.053930301	-0.038766874	0.026893625	-0.368408203	0.712646484	-0.396728516	885.6	-57.22472601	-69.39780704	-2.871732678	-53
31239	0	0.37121582	-0.116149902	0.076782227	0.999999046	-0.000507355	-0.000887871	0.000137329	9.280395508	-2.903747559	1.919555664	-0.025367741	-0.044393547	0.006866456	-0.368408203	0.710449219	-0.393798828	885.52	-57.51843394	-69.44817186	-2.620731661	-52
31240	0	0.371020317	-0.115844727	0.07930088	0.999999046	-0.000390053	-0.000717163	-0.000382423	9.275507927	-2.896118164	1.982522011	-0.019502642	-0.035858159	-0.019121173	-0.370849609	0.712646484	-0.396728516	885.48	-57.66975216	-69.53786038	-2.501477665	-53
31241	0	0.371887207	-0.117797852	0.08013916	0.999999046	-0.000469208	-0.000407219	-0.000278473	9.297180176	-2.944946289	2.003479004	-0.02346039	-0.020360948	-0.013923646	-0.370849609	0.712890625	-0.390869141	885.58	-57.76672176	-69.59817962	-2.460862569	-52
31242	0	0.372078896	-0.118398666	0.079479218	0.999999046	-0.000469208	-8.96454E-05	-7.62939E-06	9.301972389	-2.95996666	1.986980438	-0.023460389	-0.004482269	-0.00038147	-0.373046875	0.712890625	-0.396484375	885.48	-57.82494186	-69.61255498	-2.447199155	-53
31243	0	0.371276855	-0.117126465	0.079589844	0.999999046	-0.000423431	0.000153542	0.000209808	9.281921387	-2.928161621	1.989746094	-0.021171571	0.007677079	0.010490418	-0.370849609	0.712646484	-0.393798828	885.58	-57.84933552	-69.59077488	-2.46805704	-52
31244	0	0.37077713	-0.117042542	0.076368332	0.999999046	-0.00058651	0.000354767	0.00025177	9.269428253	-2.926063538	1.909208298	-0.029325488	0.017738344	0.012588502	-0.370849609	0.715087891	-0.394042969	885.54	-57.84646772	-69.55251675	-2.538591357	-53
31245	0	0.370361328	-0.120178223	0.077209473	0.999999046	0.000125885	0.000355721	-0.000106812	9.259033203	-3.004455566	1.930236816	0.006294251	0.017786026	-0.005340576	-0.37109375	0.715087891	-0.388183594	885.54	-57.70288479	-69.54865391	-2.686389899	-53
31246	0	0.371798515	-0.116785049	0.074206352	0.999999046	0.000629425	0.00037384	-0.000114441	9.294962883	-2.919626236	1.855158806	0.031471255	0.018692018	-0.005722046	-0.370849609	0.712646484	-0.393798828	885.38	-57.49560072	-69.54423621	-2.828451993	-53
31247	0	0.37298584	-0.116638184	0.076293945	0.999999046	0.000408173	0.000367165	5.34058E-05	9.324645996	-2.91595459	1.907348633	0.020408631	0.018358232	0.002670288	-0.370849609	0.712646484	-0.393798828	885.52	-57.34297905	-69.52381041	-2.941601399	-54
31248	0	0.370418549	-0.117413521	0.071351051	0.999999046	0.00051403	0.00012207	0.000488281	9.260463715	-2.93533802	1.783776283	0.025701525	0.006103516	0.024414065	-0.373046875	0.712890625	-0.396484375	885.54	-57.31412103	-69.47653829	-2.906305444	-54
31249	0	0.369628906	-0.115905762	0.071289063	0.999998093	0.001358986	-0.000289917	0.000457764	9.240722656	-2.897644043	1.782226563	0.067949319	-0.014495855	0.022888192	-0.370849609	0.71484375	-0.396972656	885.48	-57.28979542	-69.45778682	-2.768954943	-54
31250	0	0.374570847	-0.113125801	0.071500778	0.999998093	0.001494408	-0.000336647	0.000286102	9.364271164	-2.828145027	1.787519455	0.074720413	-0.016832358	0.014305121	-0.370849609	0.710449219	-0.393554688	885.52	-57.23363982	-69.45877884	-2.656299781	-54
31251	0	0.371948242	-0.111694336	0.070922852	0.999999046	0.000274658	-2.57492E-05	0.000259399	9.298706055	-2.792358398	1.773071289	0.01373291	-0.00128746	0.012969971	-0.370605469	0.710449219	-0.399414063	885.58	-57.23293585	-69.44336569	-2.6217185	-55
31252	0	0.369207382	-0.113555908	0.072185516	0.999999046	-0.000229836	-0.000228882	0.000331879	9.230184555	-2.838897705	1.804637909	-0.011491776	-0.011444092	0.016593934	-0.370605469	0.710449219	-0.396484375	885.48	-57.35419618	-69.43365851	-2.523518931	-55
31253	0	0.37097168	-0.114562988	0.073852539	0.999999046	0.000732422	-0.000468254	-0.000102997	9.274291992	-2.864074707	1.846313477	0.036621098	-0.023412707	-0.005149842	-0.370605469	0.710449219	-0.399414063	885.58	-57.35502986	-69.48074627	-2.432172893	-55
31254	0	0.372775078	-0.113337517	0.07580471	0.999999046	0.000593185	-0.00034523	-0.000466347	9.319376945	-2.83343792	1.89511776	0.029659275	-0.017261507	-0.02331734	-0.368408203	0.710449219	-0.393798828	885.48	-57.27959199	-69.55537776	-2.453706007	-55
31255	0	0.371826172	-0.11529541	0.075195313	0.999999046	0.000442505	-0.000330925	-0.000522614	9.295654297	-2.882385254	1.879882813	0.022125246	-0.016546251	-0.026130679	-0.370605469	0.708251953	-0.402099609	885.58	-57.20786194	-69.63451664	-2.470598597	-55
31256	0	0.371995926	-0.114352226	0.075415611	0.999999046	0.000603676	-0.000263214	-0.000271797	9.299898148	-2.858805656	1.885390282	0.030183795	-0.013160707	-0.01358986	-0.370361328	0.708251953	-0.405029297	885.5	-57.14150955	-69.68527443	-2.458222388	-55
31257	0	0.370056152	-0.112854004	0.07421875	0.999999046	0.000156403	8.58307E-06	1.14441E-05	9.251403809	-2.821350098	1.85546875	0.007820129	0.000429153	0.000572205	-0.370361328	0.706054688	-0.401855469	885.5	-57.1030168	-69.69189515	-2.475786513	-55
31258	0	0.372127533	-0.113817215	0.072672844	0.999999046	-0.000362396	6.29425E-05	-0.00024128	9.303188324	-2.845430374	1.816821098	-0.018119813	0.003147125	-0.01206398	-0.372802734	0.706054688	-0.398925781	885.58	-57.06731943	-69.71950116	-2.559230246	-55
31259	0	0.371276855	-0.115722656	0.073120117	0.999999046	0.000270844	-1.43051E-05	-0.00062561	9.281921387	-2.893066406	1.82800293	0.013542176	-0.000715256	-0.03128052	-0.370605469	0.708251953	-0.402099609	885.58	-56.91398853	-69.78876241	-2.68826552	-55
31260	0	0.373558044	-0.114117622	0.073047638	0.999999046	0.00061512	-0.000106812	-0.000419617	9.338951111	-2.852940559	1.826190948	0.030756	-0.005340577	-0.020980837	-0.372802734	0.706054688	-0.404785156	885.54	-56.77970133	-69.84397438	-2.7493527	-55
31261	0	0.37121582	-0.112304688	0.072021484	0.999999046	-0.000595093	2.00272E-05	8.39233E-05	9.280395508	-2.807617188	1.800537109	-0.02975464	0.001001358	0.004196167	-0.372802734	0.706054688	-0.404785156	885.6	-56.83695672	-69.84299561	-2.751969923	-55
31262	0	0.370155334	-0.114649773	0.071410179	0.999999046	-0.000947952	5.91278E-05	0.000209808	9.253883362	-2.866244316	1.785254478	-0.047397621	0.002956391	0.010490419	-0.375244141	0.706298828	-0.401611328	885.6	-56.94625234	-69.82746589	-2.745895562	-55
31263	0	0.369689941	-0.114074707	0.070800781	0.999999046	-0.000141144	-7.9155E-05	-0.000133514	9.242248535	-2.851867676	1.770019531	-0.00705719	-0.003957748	-0.00667572	-0.372802734	0.706298828	-0.395996094	885.58	-56.94112737	-69.85356548	-2.774841436	-55
31264	0	0.371806145	-0.113142014	0.072295189	0.999999046	-0.000144005	-0.000278473	-0.000245094	9.295153618	-2.828550339	1.807379723	-0.007200241	-0.013923645	-0.012254715	-0.372802734	0.706054688	-0.398925781	885.58	-56.96961887	-69.90287238	-2.760899664	-55
31265	0	0.371887207	-0.11340332	0.073547363	0.999999046	-0.000415802	-0.000178337	-6.10352E-05	9.297180176	-2.835083008	1.838684082	-0.020790101	-0.008916855	-0.003051758	-0.373046875	0.708496094	-0.396240234	885.5	-57.03442294	-69.92821413	-2.748472568	-55
31266	0	0.371866226	-0.113724709	0.073562622	0.999999046	-0.000499725	-0.000120163	6.86646E-05	9.296655655	-2.843117714	1.839065552	-0.024986268	-0.006008148	0.003433228	-0.372802734	0.706054688	-0.398925781	885.58	-57.11569113	-69.93740046	-2.717687356	-55
31267	0	0.370361328	-0.114807129	0.075073242	0.999999046	-0.00030899	-0.000170708	-1.90735E-05	9.259033203	-2.870178223	1.876831055	-0.015449524	-0.008535385	-0.000953674	-0.372802734	0.706298828	-0.395996094	885.58	-57.17335217	-69.9580084	-2.694050135	-55
31268	0	0.371245384	-0.114596367	0.075424194	0.999999046	-0.000191689	-9.15527E-05	-9.53674E-05	9.281134605	-2.864909172	1.885604858	-0.009584427	-0.004577637	-0.004768372	-0.375244141	0.708496094	-0.396240234	885.44	-57.18346384	-69.98089682	-2.70826029	-55
31269	0	0.370910645	-0.115600586	0.075866699	0.999999046	-7.24792E-05	-1.43051E-05	8.39233E-05	9.272766113	-2.890014648	1.89666748	-0.003623962	-0.000715256	0.004196167	-0.375244141	0.706298828	-0.393066406	885.58	-57.18982557	-69.98151501	-2.71568207	-55
31270	0	0.372541428	-0.115002632	0.074861526	0.999999046	-9.91821E-05	8.96454E-05	0.000236511	9.31353569	-2.875065804	1.871538162	-0.004959107	0.004482269	0.011825562	-0.373046875	0.708496094	-0.396240234	885.6	-57.1976241	-69.96085789	-2.720163373	-55
31271	0	0.370483398	-0.113342285	0.071472168	0.999999046	-0.000160217	5.05447E-05	0.000370026	9.262084961	-2.833557129	1.786804199	-0.008010864	0.002527237	0.018501282	-0.375244141	0.708496094	-0.396240234	885.5	-57.24554793	-69.92976861	-2.688718584	-56
31272	0	0.372833252	-0.113275528	0.070861816	0.999999046	-0.000313759	-9.15527E-05	0.00033474	9.320831299	-2.831888199	1.77154541	-0.015687943	-0.004577637	0.016736985	-0.375244141	0.708496094	-0.398925781	885.48	-57.34261966	-69.91094015	-2.616378068	-56
31273	0	0.372070313	-0.114379883	0.071533203	0.999999046	0.000370026	-0.000117302	1.52588E-05	9.301757813	-2.85949707	1.788330078	0.018501282	-0.005865097	0.000762939	-0.375488281	0.710693359	-0.396240234	885.58	-57.31418984	-69.92451538	-2.604252275	-56
31274	0	0.373242378	-0.113119125	0.070612907	0.999999046	0.000432968	-7.82013E-05	-1.23978E-05	9.331059456	-2.827978134	1.765322685	0.021648408	-0.003910065	-0.000619888	-0.375244141	0.708496094	-0.398925781	885.58	-57.26371031	-69.9384316	-2.601184004	-57
31275	0	0.373657227	-0.113037109	0.072265625	0.999999046	-0.000144958	-0.000170708	0.00037384	9.341430664	-2.825927734	1.806640625	-0.007247925	-0.008535385	0.018692017	-0.375244141	0.708496094	-0.396240234	885.54	-57.36929023	-69.92087617	-2.507218412	-57
31276	0	0.371765137	-0.113274574	0.070578575	0.999999046	-0.000185966	-0.000131607	0.000728607	9.294128418	-2.831864357	1.764464378	-0.009298325	-0.006580353	0.036430362	-0.373046875	0.708496094	-0.396240234	885.54	-57.52889384	-69.86662832	-2.359151537	-57
31277	0	0.371948242	-0.113037109	0.072265625	0.999999046	0.000217438	-9.44138E-05	0.000537872	9.298706055	-2.825927734	1.806640625	0.010871888	-0.004720688	0.026893617	-0.372802734	0.708251953	-0.399169922	885.54	-57.59977163	-69.82848594	-2.250139273	-57
31278	0	0.372084618	-0.112613678	0.071998596	1	-6.00815E-05	2.76566E-05	-9.53674E-07	9.30211544	-2.815341949	1.799964905	-0.003004074	0.001382828	-4.76837E-05	-0.373046875	0.710693359	-0.396484375	885.58	-57.57993029	-69.83504545	-2.280404887	-57
31279	0	0.372619629	-0.113830566	0.071044922	0.999999046	-7.62939E-05	-1.04904E-05	4.19617E-05	9.315490723	-2.84576416	1.776123047	-0.003814697	-0.000524521	0.002098083	-0.373046875	0.708496094	-0.393310547	885.54	-57.57925012	-69.8398626	-2.296037402	-57
31280	0	0.372855186	-0.11326313	0.073581696	0.999999046	0.000174522	4.00543E-05	5.34058E-05	9.321379662	-2.831578255	1.839542389	0.00872612	0.002002716	0.002670288	-0.370849609	0.710449219	-0.393554688	885.48	-57.5381461	-69.84048992	-2.326553669	-57
31281	0	0.372619629	-0.112976074	0.072937012	0.999999046	-3.05176E-05	0.000172615	-3.43323E-05	9.315490723	-2.824401855	1.823425293	-0.001525879	0.008630753	-0.001716614	-0.373046875	0.710693359	-0.396484375	885.58	-57.47072801	-69.84147535	-2.404394638	-57
31282	0	0.372236252	-0.113992691	0.071592331	0.999999046	-0.000247955	0.000299454	-0.00011158	9.305906296	-2.849817276	1.789808273	-0.012397766	0.014972687	-0.005578995	-0.373046875	0.710693359	-0.396484375	885.48	-57.38194899	-69.84209269	-2.531196688	-57
31283	0	0.371765137	-0.114501953	0.069824219	0.999999046	6.10352E-05	0.000157356	-0.000228882	9.294128418	-2.862548828	1.745605469	0.003051758	0.007867813	-0.011444092	-0.373046875	0.708496094	-0.393310547	885.58	-57.27563955	-69.86279171	-2.643800653	-58
31284	0	0.372160912	-0.113347054	0.071235657	0.999999046	8.67844E-05	8.7738E-05	3.8147E-06	9.304022789	-2.833676338	1.780891418	0.004339218	0.004386902	0.000190735	-0.373046875	0.708496094	-0.396240234	885.44	-57.22401069	-69.86538577	-2.689261269	-57
31285	0	0.370300293	-0.113220215	0.069519043	0.999999046	-0.000263214	5.43594E-05	0.000118256	9.257507324	-2.830505371	1.737976074	-0.013160706	0.002717972	0.005912781	-0.375488281	0.708496094	-0.393310547	885.58	-57.24096141	-69.85909128	-2.70978523	-57
31286	0	0.372402191	-0.1133461	0.070170403	0.999999046	-0.000494003	-9.53674E-05	4.1008E-05	9.310054779	-2.833652496	1.754260063	-0.024700166	-0.004768372	0.0020504	-0.375244141	0.710693359	-0.399169922	885.5	-57.3109184	-69.86960817	-2.690118265	-57
31287	0	0.372009277	-0.115722656	0.071105957	0.999999046	0.000263214	-0.000422478	-0.000202179	9.300231934	-2.893066406	1.777648926	0.013160706	-0.021123887	-0.010108948	-0.370605469	0.708251953	-0.396484375	885.48	-57.33955476	-69.92376992	-2.625365147	-57
31288	0	0.3724823	-0.113764763	0.072498322	0.999999046	0.000628471	-0.000312805	-0.000199318	9.312057495	-2.844119072	1.812458038	0.031423572	-0.01564026	-0.009965897	-0.375244141	0.708496094	-0.396240234	885.5	-57.29794608	-69.97085917	-2.594165538	-57
31289	0	0.373352051	-0.113464355	0.07635498	0.999999046	-0.000190735	-0.000174522	0.000160217	9.33380127	-2.836608887	1.908874512	-0.009536743	-0.00872612	0.008010864	-0.372802734	0.706054688	-0.398925781	885.48	-57.3741699	-69.9746053	-2.527567945	-57
31290	0	0.371509552	-0.114832878	0.074349403	0.999999046	-0.000320435	-3.62396E-05	0.000480652	9.2877388	-2.870821953	1.858735085	-0.016021729	-0.001811981	0.024032594	-0.375244141	0.708496094	-0.398925781	885.64	-57.48261676	-69.93871105	-2.444100463	-57
31291	0	0.371643066	-0.114807129	0.07611084	0.999999046	0.000431061	-3.71933E-05	0.000415802	9.29107666	-2.870178223	1.902770996	0.021553041	-0.001859665	0.020790101	-0.373046875	0.708496094	-0.393310547	885.54	-57.49359875	-69.90895716	-2.385978332	-57
31292	0	0.372225761	-0.113404274	0.075447083	0.999999046	0.00042057	6.29425E-05	7.15256E-05	9.305644035	-2.83510685	1.886177063	0.021028519	0.003147125	0.003576279	-0.373046875	0.708496094	-0.396240234	885.58	-57.42085787	-69.90623588	-2.413715812	-57
31293	0	0.372619629	-0.114440918	0.075317383	0.999999046	0.000148773	0.000344276	0.000110626	9.315490723	-2.861022949	1.88293457	0.00743866	0.017213822	0.005531311	-0.370605469	0.708251953	-0.396484375	885.5	-57.31140388	-69.88225024	-2.513890824	-58
31294	0	0.371199608	-0.115112305	0.074202538	0.999999046	0.000139236	0.000427246	0.000403404	9.279990196	-2.877807617	1.855063438	0.006961823	0.021362306	0.020170213	-0.372802734	0.708251953	-0.402099609	885.6	-57.23091552	-69.82473887	-2.573637915	-58
31295	0	0.370910645	-0.114074707	0.07208252	0.999999046	0.000171661	0.000432014	0.000572205	9.272766113	-2.851867676	1.802062988	0.00858307	0.021600725	0.028610232	-0.373046875	0.708496094	-0.396240234	885.54	-57.17446134	-69.75065689	-2.617703478	-58
31296	0	0.371143341	-0.11447525	0.073234558	0.999999046	6.96182E-05	0.000526428	0.000544548	9.278583527	-2.861881256	1.830863953	0.003480912	0.026321414	0.027227404	-0.373046875	0.708496094	-0.396240234	885.54	-57.10087464	-69.67334575	-2.693198002	-59
31297	0	0.370727539	-0.113708496	0.07220459	0.999999046	-8.39233E-05	0.000531197	0.000450134	9.268188477	-2.842712402	1.805114746	-0.004196167	0.026559832	0.022506716	-0.368164063	0.708251953	-0.399414063	885.5	-57.02844077	-69.6048577	-2.779201242	-59
31298	0	0.370426178	-0.114237785	0.072272301	0.999999046	-0.000272751	0.000240326	0.000658989	9.260654449	-2.855944633	1.806807518	-0.013637544	0.012016298	0.032949451	-0.368164063	0.708251953	-0.396484375	885.56	-57.08817535	-69.53447342	-2.752395346	-59
31299	0	0.370910645	-0.114685059	0.073181152	0.999999046	-1.14441E-05	4.673E-05	0.000576019	9.272766113	-2.867126465	1.829528809	-0.000572205	0.002336502	0.028800966	-0.368164063	0.706054688	-0.396240234	885.5	-57.15378972	-69.48416127	-2.684769925	-60
31300	0	0.368392944	-0.112792015	0.073760986	0.999999046	-0.000134468	-0.000114441	0.000552177	9.209823608	-2.819800377	1.844024658	-0.006723404	-0.005722046	0.027608873	-0.365722656	0.708007813	-0.399414063	885.62	-57.27047057	-69.44619653	-2.572106496	-60
31301	0	0.371826172	-0.115356445	0.076599121	0.999999046	-0.00012207	-0.000208855	0.000114441	9.295654297	-2.883911133	1.914978027	-0.006103516	-0.010442734	0.005722046	-0.365966797	0.708251953	-0.396728516	885.5	-57.33714593	-69.45621411	-2.516567833	-60
31302	0	0.372198105	-0.115460396	0.076536179	0.999999046	0.000497818	-0.000143051	-0.000264168	9.304952621	-2.886509895	1.913404465	0.024890901	-0.007152558	-0.01320839	-0.365966797	0.710449219	-0.399658203	885.54	-57.25293574	-69.49865291	-2.544809508	-60
31303	0	0.371520996	-0.114257813	0.078674316	0.999999046	6.48499E-05	6.96182E-05	-9.53674E-05	9.288024902	-2.856445313	1.96685791	0.003242493	0.003480911	-0.004768372	-0.368164063	0.708251953	-0.399414063	885.5	-57.19069224	-69.51157289	-2.600999412	-61
31304	0	0.369639397	-0.115276337	0.077457428	0.999999046	-0.00067997	0.000127792	0.000384331	9.240984917	-2.881908417	1.936435699	-0.033998493	0.006389619	0.019216539	-0.365722656	0.706054688	-0.396484375	885.5	-57.27799342	-69.47457213	-2.589379009	-61
31305	0	0.368591309	-0.1171875	0.077636719	0.999999046	-0.000144958	0.000271797	0.000133514	9.214782715	-2.9296875	1.940917969	-0.007247925	0.013589859	0.00667572	-0.363525391	0.708007813	-0.396728516	885.6	-57.2250942	-69.45263857	-2.663628084	-62
31306	0	0.369495392	-0.115660667	0.076215744	0.999999046	0.000190735	0.000247955	-0.000324249	9.237384796	-2.891516685	1.9053936	0.009536743	0.012397767	-0.016212464	-0.365966797	0.710449219	-0.399658203	885.6	-57.06377816	-69.47615085	-2.810968516	-63
31307	0	0.368652344	-0.115478516	0.075134277	0.999999046	-0.000148773	0.000393867	-0.000484467	9.216308594	-2.886962891	1.878356934	-0.00743866	0.019693376	-0.024223329	-0.365966797	0.708251953	-0.396728516	885.58	-56.87671896	-69.50574421	-3.031426681	-63
31308	0	0.369256973	-0.117584229	0.073740959	0.999999046	-0.000119209	0.000284195	-0.000283241	9.231424332	-2.939605713	1.843523979	-0.005960465	0.014209748	-0.014162064	-0.368164063	0.708251953	-0.399414063	885.48	-56.74811029	-69.52262258	-3.180593677	-63
31309	0	0.371765137	-0.117126465	0.071655273	0.999999046	0.000179291	0.000107765	-0.000469208	9.294128418	-2.928161621	1.791381836	0.008964539	0.00538826	-0.023460389	-0.365966797	0.708251953	-0.396728516	885.58	-56.59947285	-69.56831582	-3.321687739	-64
31310	0	0.371736526	-0.11559391	0.069395065	0.999999046	-0.000190735	-9.72748E-05	-0.000561714	9.293413162	-2.889847755	1.734876633	-0.009536744	-0.004863739	-0.02808571	-0.368164063	0.708251953	-0.399414063	885.48	-56.53045433	-69.63584164	-3.417129606	-66
31311	0	0.366394043	-0.114990234	0.068908691	0.999999046	-0.000377655	-0.00045681	-0.000312805	9.159851074	-2.874755859	1.722717285	-0.018882753	-0.022840502	-0.01564026	-0.368164063	0.708251953	-0.399414063	885.5	-56.61859367	-69.70231021	-3.366046882	-66
31312	0	0.367016792	-0.115728378	0.068423271	0.999999046	0.000153542	-0.000598907	-0.000317574	9.175419807	-2.893209457	1.710581779	0.007677079	-0.029945376	-0.015878679	-0.368164063	0.706054688	-0.396240234	885.54	-56.68320893	-69.7781826	-3.279421398	-67
31313	0	0.373352051	-0.114746094	0.069152832	0.999999046	4.57764E-05	-0.000220299	-0.000801086	9.33380127	-2.868652344	1.728820801	0.002288819	-0.01101494	-0.040054326	-0.367919922	0.703857422	-0.396240234	885.54	-56.57960223	-69.87659623	-3.383178681	-68
31314	0	0.377471924	-0.114562988	0.067347527	0.999998093	-0.001259804	0.000361443	-0.001014709	9.436798096	-2.864074707	1.683688164	-0.062990217	0.018072137	-0.050735497	-0.372802734	0.706298828	-0.395996094	885.5	-56.43643418	-69.95877455	-3.688708923	-69
31315	0	0.375976563	-0.117797852	0.066589355	0.999997139	-0.001972198	0.000271797	-0.000728607	9.399414063	-2.944946289	1.664733887	-0.098609998	0.013589869	-0.036430386	-0.372802734	0.706298828	-0.393066406	885.54	-56.44807559	-70.01923824	-3.915939217	-69
31316	0	0.372637749	-0.121429443	0.067653656	0.999999046	-0.000723839	-0.000370026	-0.000763893	9.315943718	-3.035736084	1.6913414	-0.036191948	-0.018501286	-0.038194664	-0.372802734	0.706298828	-0.395996094	885.5	-56.48011444	-70.12352723	-3.960378726	-71
31317	0	0.371582031	-0.119812012	0.068054199	0.999998093	0.001091957	-0.00062561	-0.001319885	9.289550781	-2.995300293	1.70135498	0.054597885	-0.031280535	-0.065994299	-0.375244141	0.706298828	-0.393066406	885.5	-56.27418899	-70.29685232	-4.047666139	-73
31318	0	0.372221947	-0.116357803	0.070284843	0.999998093	0.000746727	-7.34329E-05	-0.001675606	9.305548668	-2.908945084	1.757121086	0.03733637	-0.003671648	-0.083780336	-0.379882813	0.704101563	-0.3984375	885.6	-55.89413364	-70.46836926	-4.352299009	-75
31319	0	0.375427246	-0.118103027	0.068054199	0.999999046	-0.000133514	0.000580788	-0.001075745	9.385681152	-2.952575684	1.70135498	-0.006675722	0.02903939	-0.053787245	-0.379882813	0.702148438	-0.392578125	885.6	-55.54551284	-70.54001104	-4.742107824	-78
31320	0	0.376765251	-0.119325638	0.068031311	0.999998093	-0.000265121	0.001391411	-0.000675201	9.419131279	-2.983140945	1.700782776	-0.013256078	0.06957057	-0.033760085	-0.382324219	0.702148438	-0.392333984	885.58	-55.06930798	-70.51989293	-5.285854472	-84
31321	0	0.375305176	-0.116821289	0.06451416	0.999997139	-0.000579834	0.001759529	-0.000839233	9.382629395	-2.920532227	1.612854004	-0.028991719	0.087976516	-0.041961699	-0.382080078	0.702148438	-0.395263672	885.5	-54.50425916	-70.48915027	-5.957405758	-82
31322	0	0.374311447	-0.121515274	0.063308716	0.999995232	-0.000637054	0.00220871	-0.001613617	9.357786179	-3.037881851	1.582717896	-0.031852764	0.110435631	-0.080680953	-0.382080078	0.699951172	-0.397949219	885.54	-53.68518209	-70.4972263	-6.899880829	-74
31323	0	0.37512207	-0.123352051	0.061523438	0.999994278	0.000416756	0.002426147	-0.002212524	9.378051758	-3.08380127	1.538085938	0.020837822	0.121307595	-0.110626423	-0.384277344	0.697753906	-0.391845703	885.56	-52.57420637	-70.53976806	-8.04237962	-69
31324	0	0.375548363	-0.122128487	0.062897682	0.999993324	0.000729561	0.002471924	-0.002426147	9.388709068	-3.053212166	1.572442055	0.036478119	0.123596449	-0.121307626	-0.384277344	0.695556641	-0.39453125	885.48	-51.37113676	-70.59060507	-9.244853643	-64
31325	0	0.377990723	-0.122375488	0.060913086	0.999993324	0.000205994	0.002701759	-0.00214386	9.449768066	-3.059387207	1.522827148	0.010299703	0.135088236	-0.107193206	-0.388671875	0.691162109	-0.402587891	885.5	-50.22763857	-70.59157347	-10.43278814	-61
31326	0	0.376477242	-0.122079849	0.062385559	0.999995232	7.43866E-05	0.002569199	-0.001629829	9.411931038	-3.051996231	1.559638977	0.003719336	0.128460129	-0.081491596	-0.391113281	0.693359375	-0.408447266	885.5	-49.24533674	-70.55000633	-11.46282492	-58
31327	0	0.373962402	-0.117980957	0.060546875	0.999996185	0.000454903	0.002189636	-0.001113892	9.349060059	-2.949523926	1.513671875	0.022745156	0.109481925	-0.055694638	-0.388427734	0.686767578	-0.407958984	885.54	-48.43074297	-70.48728904	-12.2685383	-55
31328	0	0.372735023	-0.117156982	0.061980247	0.999997139	0.000966072	0.001617432	-0.001086235	9.318375587	-2.928924561	1.549506187	0.048303642	0.080871646	-0.054311795	-0.390625	0.684570313	-0.404785156	885.54	-47.7092713	-70.46252211	-12.9263526	-53
31329	0	0.369567871	-0.113891602	0.062744141	0.999996185	0.00174427	0.001075745	-0.001533508	9.239196777	-2.847290039	1.568603516	0.087213611	0.05378729	-0.076675499	-0.392822266	0.682373047	-0.41015625	885.44	-46.93346342	-70.51482605	-13.54317516	-52
31330	0	0.367389679	-0.111073494	0.06575489	0.999996185	0.001870155	0.000964165	-0.001663208	9.184741974	-2.776837349	1.643872261	0.093507879	0.048208294	-0.0831605	-0.395019531	0.680175781	-0.415771484	885.48	-46.13979207	-70.58399131	-14.15923184	-51
31331	0	0.372436523	-0.110656738	0.065917969	0.999996185	0.001393318	0.001014709	-0.00201416	9.310913086	-2.766418457	1.647949219	0.06966599	0.050735533	-0.100708126	-0.397216797	0.676025391	-0.412353516	885.5	-45.30704427	-70.67516173	-14.88675018	-50
31332	0	0.374822617	-0.111213684	0.069736481	0.999994278	0.001567841	0.00127697	-0.002556801	9.370565414	-2.780342102	1.743412018	0.078392168	0.063848609	-0.127840269	-0.401611328	0.671630859	-0.417480469	885.54	-44.26265024	-70.78495647	-15.81113371	-50
31333	0	0.384887695	-0.110778809	0.086975098	0.999987602	0.002811432	0.002701759	-0.002941132	9.622192383	-2.769470215	2.174377441	0.140572153	0.135088504	-0.147057164	-0.406005859	0.665039063	-0.422607422	885.56	-42.65309161	-70.79907155	-17.1825833	-50
31334	0	0.382324219	-0.095850945	0.107104301	0.999982834	0.000782967	0.004904747	-0.002835274	9.558105469	-2.396273613	2.677607536	0.039148544	0.245238687	-0.14176446	-0.408203125	0.660888672	-0.424804688	885.5	-40.82612253	-70.60258658	-19.03685265	-51
31335	0	0.377441406	-0.11138916	0.087524414	0.999977112	-0.003726006	0.004722595	-0.002914429	9.436035156	-2.784729004	2.188110352	-0.186301665	0.236131519	-0.145722521	-0.407958984	0.658447266	-0.427490234	885.6	-39.57140211	-70.41129297	-20.82024413	-50
31336	0	0.384189606	-0.116362572	0.076485634	0.99998188	0.001173973	0.004684448	-0.003342628	9.604740143	-2.909064293	1.912140846	0.058698992	0.234223759	-0.167132385	-0.410400391	0.656494141	-0.427246094	885.6	-37.69247989	-70.23799872	-22.69023287	-51
31337	0	0.384521484	-0.106811523	0.100341797	0.999950409	0.005768776	0.006847382	-0.004291534	9.613037109	-2.670288086	2.508544922	0.288443536	0.342374705	-0.214580247	-0.412353516	0.649902344	-0.432373047	885.54	-34.68937083	-69.90187125	-25.22346223	-54
31338	0	0.384032249	-0.09231472	0.111517906	0.999939919	0.004663467	0.007570267	-0.006260872	9.600806236	-2.307868004	2.787947655	0.233177966	0.378520797	-0.313049765	-0.416259766	0.638916016	-0.448486328	885.54	-31.27477642	-69.5715534	-28.32344322	-55
31339	0	0.385559082	-0.102478027	0.119995117	0.999928474	0.003231049	0.008698463	-0.007442474	9.638977051	-2.561950684	2.99987793	0.161556239	0.434933429	-0.372132494	-0.415527344	0.627685547	-0.459228516	885.48	-27.66262242	-69.1298154	-31.81413104	-55
31340	0	0.380084991	-0.10324192	0.114663124	0.999892235	0.007264137	0.009664536	-0.008285522	9.502124786	-2.581048012	2.866578102	0.363219869	0.483244079	-0.414290957	-0.424316406	0.614501953	-0.471923828	885.54	-23.4152314	-68.54652523	-35.52028082	-57
31341	0	0.37902832	-0.09362793	0.104919434	0.999853134	0.010052681	0.0102005	-0.009384155	9.475708008	-2.340698242	2.62298584	0.502658611	0.510049948	-0.469230693	-0.423339844	0.596923828	-0.484863281	885.54	-18.73760717	-67.85028409	-39.3816396	-63
31342	0	0.373879433	-0.083559036	0.101686478	0.999828339	0.010554314	0.011221886	-0.010201454	9.346985817	-2.088975906	2.542161942	0.527745714	0.561126215	-0.510101735	-0.426757813	0.579101563	-0.509277344	885.6	-13.99821894	-66.95535335	-43.26728035	-62
31343	0	0.370910645	-0.077636719	0.101318359	0.99979496	0.011447906	0.012490273	-0.011074066	9.272766113	-1.940917969	2.532958984	0.572434417	0.624556277	-0.553741123	-0.430419922	0.556884766	-0.52734375	885.54	-9.221200576	-65.82043545	-47.12978988	-63
31344	0	0.367726326	-0.060830116	0.105866432	0.999759674	0.011657715	0.014012337	-0.012120247	9.19315815	-1.520752907	2.646660805	0.5829323	0.700672799	-0.60606075	-0.430908203	0.528076172	-0.553710938	885.54	-4.535574176	-64.40697803	-50.88863501	-62
31345	0	0.363830566	-0.054321289	0.114379883	0.999755859	0.008839607	0.01619339	-0.012142181	9.09576416	-1.358032227	2.85949707	0.442016303	0.809735335	-0.607158438	-0.429443359	0.501464844	-0.577392578	885.6	-0.602341564	-62.63279668	-54.20734834	-58
31346	0	0.352333069	-0.062131882	0.121648788	0.999734879	0.006834984	0.018647194	-0.011604309	8.808326721	-1.553297043	3.041219711	0.341779335	0.932441933	-0.580266631	-0.42578125	0.483398438	-0.599121094	885.6	2.531635278	-60.49410929	-56.95134298	-62
31347	0	0.34197998	-0.0703125	0.120910645	0.999678612	0.008808136	0.020173073	-0.012519836	8.549499512	-1.7578125	3.022766113	0.440453884	1.008761477	-0.626058747	-0.412841797	0.462890625	-0.621337891	885.62	5.634183985	-58.10979839	-59.46855801	-61
31348	0	0.332027435	-0.076426506	0.135385513	0.999536514	0.014724731	0.022181511	-0.014718056	8.300685883	-1.910662651	3.384637833	0.736350179	1.109246685	-0.736016341	-0.404296875	0.438232422	-0.645507813	885.54	9.325902072	-55.3969785	-62.00180002	-57
31349	0	0.292602539	-0.07623291	0.125671387	0.999358177	0.020305634	0.025097847	-0.015491486	7.315063477	-1.905822754	3.141784668	1.015498769	1.255160676	-0.774739903	-0.390136719	0.399902344	-0.677734375	885.56	13.22136597	-52.25995408	-64.1153449	-56
31350	0	0.20768261	-0.064531326	0.12574482	0.99930954	0.023560524	0.026431084	-0.011236191	5.192065239	-1.613283157	3.143620491	1.178297304	1.32185832	-0.561938832	-0.368896484	0.359130859	-0.709960938	885.5	16.44746014	-49.03486766	-65.00581804	-58
31351	0	0.181945801	-0.126159668	0.136535645	0.999164581	0.030381203	0.027011871	-0.004016876	4.54864502	-3.153991699	3.413391113	1.519482952	1.350969493	-0.200899714	-0.338134766	0.315917969	-0.745605469	885.56	19.31549341	-45.98115051	-64.43196699	-61
31352	0	0.139308929	-0.101529121	0.119314194	0.999286652	0.021240234	0.0291605	0.011099815	3.482723236	-2.538228035	2.982854843	1.062264053	1.458371406	0.555122634	-0.295166016	0.267822266	-0.787109375	885.54	19.407435	-43.28178628	-61.27996092	-61
31353	0	0.084899902	-0.329406738	0.02532959	0.998879433	0.016902924	0.02669239	0.035228729	2.122497559	-8.235168457	0.633239746	0.845461914	1.335118117	1.76209451	-0.242431641	0.257080078	-0.809326172	885.6	16.87100609	-41.66208197	-54.89112107	-67
31354	0	0.03798008	-0.299843788	-0.07518959	0.997369766	0.04005146	0.021107674	0.056592941	0.949501991	-7.496094704	-1.879739761	2.004330227	1.056309758	2.832130017	-0.175048828	0.243408203	-0.834716797	885.62	15.2631913	-41.1600996	-45.95551148	-63
31355	0	0.019165039	-0.160766602	-0.124450684	0.996517181	0.029622078	0.01581955	0.076320648	0.479125977	-4.019165039	-3.11126709	1.482825535	0.791896912	3.820468172	-0.104492188	0.201171875	-0.85546875	885.54	10.68321355	-41.3763995	-34.20523847	-63
31356	0	-0.306870461	-0.060473442	-0.067896843	0.997481346	0.015749931	-0.009824753	0.068448067	-7.671761513	-1.511836052	-1.697421074	0.788158214	-0.491650374	3.425278806	-0.039794922	0.183349609	-0.868896484	885.54	5.37954643	-43.58632222	-23.82933986	-63
31357	0	-0.414916992	-0.085754395	0.159484863	0.999028206	0.027812958	-0.018961906	0.028434753	-10.3729248	-2.143859863	3.987121582	1.391098307	-0.948402402	1.422198159	-0.022460938	0.171630859	-0.877441406	885.56	5.421271519	-46.01858402	-19.80908526	-66
31358	0	0.969081879	-0.098642349	0.166232109	0.995975494	-0.058808327	-0.051085472	0.044307709	24.22704697	-2.466058731	4.155802727	-2.944366532	-2.557705052	2.218361617	-0.014892578	0.162597656	-0.888671875	885.56	-7.428119393	-51.76497646	-10.48604941	-74
31359	0	3.20501709	2.103820801	2.056091309	0.996527672	0.049617767	-0.034960747	-0.056987762	80.12542725	52.59552002	51.40228271	2.483763507	-1.750063166	-2.852690323	-0.073974609	0.217529297	-0.884277344	885.62	7.269135245	-55.80338108	-22.10724765	-79
31360	0	1.043581009	-0.127264023	0.800932884	0.997878075	0.002930641	-0.018270493	-0.062411308	26.08952522	-3.181600571	20.02332211	0.146635747	-0.914171049	-3.122773564	-0.153076172	0.138427734	-0.890625	885.62	18.7183654	-56.22724999	-35.39791062	-87
31361	0	0.077331543	0.103149414	0.030334473	0.997733116	-0.033668518	0.008080482	-0.057689667	1.933288574	2.578735352	0.758361816	-1.684698632	0.40432958	-2.886664107	-0.190185547	0.119873047	-0.887207031	885.76	23.13294335	-52.97024787	-45.10060404	-71
31362	0	-0.054116249	0.093887329	-0.188016891	0.998143196	0.027448654	-0.01947403	-0.050750732	-1.352906227	2.347183228	-4.700422287	1.37328236	-0.97430428	-2.53910757	-0.205322266	0.135986328	-0.87890625	885.66	34.40388407	-52.10998935	-55.43392303	-72
31363	0	0.100830078	0.07800293	-0.047729492	0.998475075	0.019828796	-0.043169975	-0.028087616	2.520751953	1.950073242	-1.193237305	0.991943789	-2.159595974	-1.405094674	-0.265625	0.056396484	-0.871826172	885.68	44.20479153	-53.88727959	-64.65197486	-74
31364	0	0.227310181	0.145463943	-0.012512207	0.99881649	-0.029932976	-0.036851883	-0.010561943	5.682754517	3.636598587	-0.312805176	-1.497239496	-1.843321394	-0.528305586	-0.344970703	0.017333984	-0.841308594	885.66	46.31598864	-55.98359267	-70.85720713	-72
31365	0	0.238098145	0.206787109	0.076660156	0.997016907	-0.075175285	-0.01676178	0.004966736	5.952453613	5.169677734	1.916503906	-3.762506101	-0.838923303	0.24858401	-0.3984375	0.094482422	-0.813232422	885.62	39.10653053	-57.75776972	-71.91041183	-67
31366	0	0.27315712	0.083355904	0.14396286	0.998913765	-0.044937134	-0.005216599	0.011107445	6.828927994	2.083897591	3.599071503	-2.247670072	-0.260924348	0.555573288	-0.416015625	0.218994141	-0.779296875	885.6	32.9174172	-58.96891343	-70.41124405	-66
31367	0	0.359985352	0.186096191	0.202270508	0.999908447	0.002495766	0.003749847	0.012756348	8.999633789	4.652404785	5.056762695	0.124792091	0.18749809	0.637836839	-0.415771484	0.267578125	-0.774658203	885.58	30.81643173	-59.3554044	-67.60845788	-66
31368	0	0.36380291	0.252183914	0.281462669	0.999842644	-0.012183189	0.009366989	0.008829117	9.095072746	6.304597855	7.036566734	-0.609191366	0.46837398	0.441478956	-0.399414063	0.271240234	-0.784667969	885.66	27.14935789	-58.8811886	-64.83758455	-65
31369	0	0.340454102	0.141723633	0.361206055	0.999508858	-0.028636932	0.009999275	0.007797241	8.511352539	3.54309082	9.030151367	-1.432080795	0.500045529	0.389925822	-0.377441406	0.308105469	-0.780273438	885.6	21.83647961	-58.17785896	-62.28036362	-66
31370	0	0.339645386	0.030053139	0.35293293	0.999900818	-0.008341789	-0.000502586	0.011318207	8.491134644	0.751328468	8.82332325	-0.417103223	-0.025130147	0.56592901	-0.360595703	0.354003906	-0.7734375	885.6	19.00179079	-58.65077828	-59.98021376	-66
31371	0	0.34753418	0.082275391	0.250244141	0.999885559	0.009949684	-0.00667572	0.009197235	8.688354492	2.056884766	6.256103516	0.497503126	-0.333798704	0.459879243	-0.356445313	0.364990234	-0.768798828	885.7	18.9570362	-59.68325485	-58.58095688	-66
31372	0	0.324183464	0.098576546	0.172179222	0.999934196	0.004260063	-0.008758545	0.006017685	8.104586601	2.464413643	4.304480553	0.213007812	-0.437936813	0.30089082	-0.360839844	0.358398438	-0.773681641	885.6	18.94760965	-60.82355168	-57.94848783	-66
31373	0	0.306030273	0.071105957	0.151977539	0.999936104	0.006534576	-0.008101463	0.004402161	7.650756836	1.777648926	3.799438477	0.326735776	-0.405081789	0.220112718	-0.370117188	0.354492188	-0.764160156	885.66	19.46058579	-61.8344683	-57.65672031	-66
31374	0	0.316943169	0.063710213	0.157320976	0.999966621	0.004787445	-0.005569458	0.00357914	7.923579216	1.592755318	3.933024406	0.239374916	-0.278475998	0.178958976	-0.381591797	0.345947266	-0.762939453	885.6	19.7613526	-62.54237728	-57.35624905	-68
31375	0	0.346923828	0.048339844	0.145751953	0.99998188	-0.003921509	-0.002795219	0.003349304	8.673095703	1.208496094	3.643798828	-0.196076564	-0.139761773	0.16746617	-0.384277344	0.348388672	-0.760009766	885.68	18.89295056	-62.94276018	-56.84878752	-69
31376	0	0.38604641	0.024998665	0.163215637	0.999955177	-0.008738518	1.90735E-05	0.003495216	9.65116024	0.624966621	4.08039093	-0.436932339	0.000953688	0.174763399	-0.384765625	0.357177734	-0.749267578	885.68	17.2179322	-63.03857941	-56.05806694	-70
31377	0	0.398376465	-0.013366699	0.180236816	0.99995327	-0.008735657	0.000805855	0.003986359	9.959411621	-0.33416748	4.50592041	-0.436789597	0.040293363	0.199321017	-0.378417969	0.374755859	-0.745361328	885.62	15.37061752	-63.05461759	-55.07655821	-70
31378	0	0.382740974	0.005396843	0.201451302	0.99998188	-0.004657745	-0.000879288	0.003517151	9.568524361	0.134921074	5.036282539	-0.23288862	-0.043964641	0.175858565	-0.374511719	0.390136719	-0.743896484	885.66	14.1793486	-63.23234879	-54.31679325	-70
31379	0	0.376464844	0.037109375	0.192626953	0.999998093	-0.000117302	-0.001831055	-0.000171661	9.411621094	0.927734375	4.815673828	-0.0058651	-0.091552786	-0.008583074	-0.374755859	0.396728516	-0.738769531	885.6	14.36647598	-63.40877551	-54.5395491	-70
31380	0	0.364825249	0.023886681	0.17341423	0.99998951	0.002886772	-0.001686096	-0.002832413	9.120631218	0.597167015	4.335355759	0.14433907	-0.084305079	-0.141621089	-0.379394531	0.394775391	-0.735351563	885.62	15.48073342	-63.4904409	-55.43184116	-71
31381	0	0.349243164	0.041503906	0.163024902	0.999983788	0.003158569	-0.00032711	-0.004535675	8.731079102	1.037597656	4.075622559	0.157929274	-0.016355598	-0.226784911	-0.381347656	0.385986328	-0.740234375	885.6	16.91518828	-63.36016369	-56.6381403	-70
31382	0	0.345741272	0.057050705	0.166966438	0.999985695	0.002355576	0.000654221	-0.004676819	8.643531799	1.426267624	4.174160957	0.117779325	0.032711181	-0.233842028	-0.385742188	0.377197266	-0.739501953	885.66	18.20534484	-63.10545516	-57.79106846	-69
31383	0	0.35369873	0.063720703	0.173034668	0.99998951	0.001873016	0.000725746	-0.0041008	8.842468262	1.593017578	4.325866699	0.093651143	0.036287434	-0.205040691	-0.387695313	0.370605469	-0.741699219	885.6	19.29060802	-62.85384653	-58.77624328	-69
31384	0	0.35280323	0.064955711	0.175872803	0.999992371	0.001712799	0.000348091	-0.00327301	8.820080757	1.623892784	4.396820068	0.08564015	0.017404596	-0.163650888	-0.389892578	0.364013672	-0.746826172	885.62	20.19513117	-62.66750468	-59.57253496	-69
31385	0	0.351257324	0.069519043	0.176513672	0.999995232	0.001533508	8.10623E-05	-0.002334595	8.781433105	1.737976074	4.412841797	0.076675515	0.004053121	-0.116729888	-0.391845703	0.357421875	-0.74609375	885.6	20.89534568	-62.54257213	-60.16210206	-69
31386	0	0.350904465	0.070590019	0.172877312	0.999997139	0.001499176	-0.000175476	-0.001472473	8.772611618	1.764750481	4.321932793	0.074958857	-0.00877381	-0.073623712	-0.394042969	0.355224609	-0.751464844	885.6	21.42987184	-62.47806705	-60.56694558	-69
31387	0	0.347412109	0.070007324	0.174072266	0.999999046	0.000843048	-0.000700951	-0.000789642	8.685302734	1.750183105	4.351806641	0.042152418	-0.035047542	-0.039482129	-0.396240234	0.351074219	-0.748046875	885.62	21.79014904	-62.49705244	-60.86233823	-69
31388	0	0.345836639	0.069440842	0.173042297	0.999998093	0.000923157	-0.001208305	-0.000324249	8.645915985	1.736021042	4.326057434	0.046157856	-0.060415292	-0.01621247	-0.398681641	0.351074219	-0.750976563	885.66	22.10626091	-62.58923956	-61.09677315	-69
31389	0	0.351989746	0.069213867	0.169189453	0.999998093	0.000840187	-0.001560211	-0.00012207	8.799743652	1.73034668	4.229736328	0.042009376	-0.0780106	-0.006103519	-0.400878906	0.348876953	-0.750488281	885.54	22.40214822	-62.72736443	-61.31775033	-69
31390	0	0.353052139	0.070317268	0.169435501	0.999998093	-0.000185966	-0.001597404	0.000138283	8.826303482	1.757931709	4.235887527	-0.009298329	-0.079870259	0.006914142	-0.403320313	0.349121094	-0.744628906	885.54	22.53145742	-62.88080515	-61.48940247	-69
31391	0	0.35369873	0.067565918	0.16998291	0.999998093	-0.000117302	-0.001464844	0.000236511	8.842468262	1.689147949	4.249572754	-0.005865099	-0.073242215	0.011825566	-0.403320313	0.349121094	-0.744628906	885.56	22.63727371	-63.02468939	-61.62206854	-69
31392	0	0.357829094	0.065219879	0.169865608	0.999999046	0.000128746	-0.001337051	-0.000283241	8.945727348	1.630496979	4.246640205	0.006437304	-0.066852591	-0.014162068	-0.408203125	0.3515625	-0.744628906	885.6	22.86842726	-63.13226668	-61.86941976	-69
31393	0	0.358215332	0.068115234	0.167663574	0.999999046	0.000534058	-0.00109005	-0.000614166	8.955383301	1.702880859	4.191589355	0.026702889	-0.054502504	-0.030708322	-0.407958984	0.349121094	-0.747314453	885.6	23.19392396	-63.19882332	-62.16312289	-69
31394	0	0.355434418	0.07086277	0.163516045	0.999999046	0.000936508	-0.000789642	-0.000580788	8.885860443	1.771569252	4.087901115	0.046825423	-0.039482129	-0.029039392	-0.410400391	0.349365234	-0.741455078	885.68	23.532341	-63.23498557	-62.43032298	-69
31395	0	0.353759766	0.072753906	0.161499023	0.999999046	0.000610352	-0.000266075	-0.000133514	8.843994141	1.818847656	4.037475586	0.03051758	-0.013303758	-0.006675721	-0.412597656	0.344970703	-0.740966797	885.68	23.69270977	-63.23662589	-62.53699192	-69
31396	0	0.354131699	0.072558403	0.162807465	0.999999046	1.43051E-05	0.000175476	3.71933E-05	8.853292465	1.813960075	4.070186615	0.000715256	0.008773804	0.001859665	-0.41015625	0.342773438	-0.743896484	885.68	23.70837414	-63.20008721	-62.55026414	-69
31397	0	0.354187012	0.072692871	0.165039063	0.999999046	-1.90735E-05	0.000329018	0.000411987	8.854675293	1.817321777	4.125976563	-0.000953674	0.016450883	0.020599366	-0.412597656	0.344970703	-0.746826172	885.6	23.62785834	-63.16495692	-62.4626038	-69
31398	0	0.354257584	0.069586754	0.165884018	0.999999046	-0.000116348	0.000274658	0.000445366	8.85643959	1.739668846	4.147100449	-0.005817414	0.013732911	0.022268296	-0.412597656	0.344970703	-0.740966797	885.62	23.5335145	-63.13731409	-62.37830907	-69
31399	0	0.354431152	0.068603516	0.166809082	0.999999046	-9.15527E-05	-2.57492E-05	0.000286102	8.860778809	1.715087891	4.170227051	-0.004577637	-0.00128746	0.014305115	-0.410400391	0.344970703	-0.741210938	885.6	23.50125832	-63.13418788	-62.35799467	-69
31400	0	0.354356766	0.068614006	0.165459633	0.999999046	0.000235558	-0.00015831	5.24521E-05	8.858919144	1.715350151	4.136490822	0.011777878	-0.007915497	0.002622604	-0.412597656	0.344970703	-0.740966797	885.66	23.56601299	-63.13463842	-62.40663945	-69
31401	0	0.353393555	0.06829834	0.163696289	0.999999046	0.000286102	-0.000349998	-9.15527E-05	8.834838867	1.707458496	4.092407227	0.014305115	-0.017499924	-0.004577637	-0.410400391	0.344970703	-0.741210938	885.68	23.68294236	-63.14895456	-62.50552889	-69
31402	0	0.355144501	0.070044518	0.165054321	0.999999046	0.000234604	-0.000307083	-0.000305176	8.878612518	1.751112938	4.126358032	0.011730195	-0.015354157	-0.01525879	-0.412597656	0.344970703	-0.743896484	885.68	23.83363878	-63.14913045	-62.64807657	-69
31403	0	0.35357666	0.070861816	0.164794922	0.999999046	0.000282288	-0.000433922	-0.000228882	8.839416504	1.77154541	4.119873047	0.014114381	-0.021696092	-0.011444092	-0.41015625	0.342773438	-0.740966797	885.68	23.98498662	-63.16624528	-62.78368536	-69
31404	0	0.352707863	0.074471474	0.163103104	0.999999046	0.000164986	-0.000404358	-3.8147E-06	8.817696571	1.861786842	4.077577591	0.008249283	-0.020217896	-0.000190735	-0.412597656	0.342773438	-0.743652344	885.6	24.07346328	-63.19088582	-62.86281229	-69
31405	0	0.354370117	0.072387695	0.161987305	0.999999046	-0.000190735	-0.000227928	0.000247955	8.85925293	1.809692383	4.049682617	-0.009536743	-0.011396408	0.012397766	-0.412841797	0.342773438	-0.740966797	885.6	24.0523288	-63.20916001	-62.86668841	-69
31406	0	0.357287407	0.069888115	0.165512085	0.999999046	-0.000249863	-0.000171661	0.000156403	8.932185173	1.747202873	4.137802124	-0.012493134	-0.008583069	0.00782013	-0.412597656	0.344970703	-0.746826172	885.68	24.03728963	-63.21756493	-62.88120621	-69
31407	0	0.356689453	0.068969727	0.166748047	0.999999046	-7.24792E-05	-0.000174522	1.90735E-05	8.917236328	1.724243164	4.168701172	-0.003623962	-0.00872612	0.000953674	-0.415039063	0.343017578	-0.746582031	885.56	24.07031621	-63.22009384	-62.92620848	-69
31408	0	0.354917526	0.07118988	0.162849426	0.999999046	0.000273705	-9.53674E-05	-0.000107765	8.872938156	1.779747009	4.071235657	0.013685227	-0.004768372	-0.00538826	-0.415039063	0.345214844	-0.743896484	885.62	24.1613938	-63.20870506	-62.99789758	-69
31409	0	0.354736328	0.072631836	0.16192627	0.999999046	-3.43323E-05	9.63211E-05	0	8.868408203	1.815795898	4.048156738	-0.001716614	0.004816055	0	-0.415039063	0.345214844	-0.743896484	885.66	24.17661045	-63.18262296	-63.02423069	-69
31410	0	0.355132103	0.07145977	0.164989471	0.999999046	-0.000204086	0.000181198	0.00026989	8.878302574	1.786494255	4.124736786	-0.010204315	0.009059906	0.013494492	-0.412841797	0.344970703	-0.744140625	885.56	24.1080537	-63.16053803	-62.97622343	-69
31411	0	0.354248047	0.071899414	0.16418457	0.999999046	-0.000133514	0.000245094	0.000354767	8.856201172	1.797485352	4.104614258	-0.00667572	0.012254715	0.017738343	-0.412841797	0.347412109	-0.741210938	885.62	24.0237321	-63.13593444	-62.90706101	-69
31412	0	0.354094505	0.069345474	0.164619446	0.999999046	-0.000256538	0.00018692	0.000311852	8.852362633	1.733636856	4.115486145	-0.01282692	0.009346009	0.015592576	-0.415283203	0.345214844	-0.740966797	885.68	23.93889364	-63.11562425	-62.85174349	-69
31413	0	0.354492188	0.070373535	0.165222168	0.999999046	-0.000209808	0.000184059	0.000320435	8.862304688	1.759338379	4.130554199	-0.010490418	0.009202957	0.016021729	-0.412841797	0.344970703	-0.744140625	885.66	23.85735384	-63.09618665	-62.78901065	-69
31414	0	0.35587883	0.069403648	0.165930748	0.999999046	-6.10352E-05	0.000165939	0.000225067	8.896970749	1.735091209	4.1482687	-0.003051758	0.008296967	0.011253357	-0.412841797	0.344970703	-0.744140625	885.66	23.81357602	-63.07444221	-62.74974156	-69
31415	0	0.354736328	0.069335938	0.166992188	0.999999046	-1.90735E-05	-1.04904E-05	0.000240326	8.868408203	1.733398438	4.174804688	-0.000953674	-0.000524521	0.012016297	-0.410644531	0.347167969	-0.741455078	885.5	23.78682674	-63.07206696	-62.72770272	-69
31416	0	0.354895592	0.070379257	0.166254044	0.999999046	-9.05991E-05	4.95911E-05	0.000232697	8.872389793	1.75948143	4.156351089	-0.004529953	0.002479553	0.011634827	-0.412597656	0.344970703	-0.746826172	885.56	23.74741839	-63.06321312	-62.69447439	-69
31417	0	0.354248047	0.070251465	0.165710449	0.999999046	-3.43323E-05	0.000203133	0.000236511	8.856201172	1.756286621	4.14276123	-0.001716614	0.010156632	0.011825562	-0.410644531	0.347167969	-0.741455078	885.62	23.69925711	-63.03861354	-62.65055798	-69
31418	0	0.353542328	0.070011139	0.165735245	0.999999046	-0.000131607	3.43323E-05	0.000266075	8.838558197	1.750278473	4.143381119	-0.006580353	0.001716614	0.013303757	-0.412841797	0.347167969	-0.744140625	885.62	23.64865586	-63.03325305	-62.61512163	-69
31419	0	0.354431152	0.071777344	0.164794922	0.999999046	-0.000171661	1.23978E-05	0.000530243	8.860778809	1.794433594	4.119873047	-0.008583069	0.000619888	0.026512147	-0.410644531	0.347167969	-0.741455078	885.62	23.5406451	-63.04249492	-62.5206981	-69
31420	0	0.355595589	0.065666199	0.166046143	0.999999046	-0.00023365	-9.15527E-05	0.000296593	8.889889717	1.641654968	4.151153564	-0.011682511	-0.004577637	0.014829636	-0.410400391	0.344970703	-0.741210938	885.68	23.48217809	-63.052196	-62.48668648	-69
31421	0	0.355834961	0.067016602	0.168640137	0.999999046	5.72205E-05	-0.000170708	1.14441E-05	8.895874023	1.675415039	4.216003418	0.002861023	-0.008535385	0.000572205	-0.408203125	0.347167969	-0.744384766	885.62	23.52224246	-63.05732838	-62.52440735	-69
31422	0	0.354428291	0.069346428	0.165458679	0.999999046	0.000368118	-0.000139236	-0.000172615	8.860707283	1.733660698	4.13646698	0.018405915	-0.006961823	-0.008630753	-0.410400391	0.344970703	-0.744140625	885.62	23.63268274	-63.05089812	-62.60115707	-69
31423	0	0.35357666	0.072570801	0.162231445	0.999999046	7.62939E-06	1.23978E-05	8.39233E-05	8.839416504	1.81427002	4.055786133	0.00038147	0.000619888	0.004196167	-0.410400391	0.347167969	-0.744384766	885.6	23.63511623	-63.04055419	-62.60554112	-69
31424	0	0.354072571	0.068790436	0.165350914	0.999999046	-0.000201225	4.95911E-05	0.000243187	8.85181427	1.719760895	4.13377285	-0.010061264	0.002479553	0.012159348	-0.410400391	0.347167969	-0.744384766	885.52	23.57686058	-63.03381298	-62.56836344	-69
31425	0	0.354919434	0.07019043	0.166809082	0.999999046	-0.000240326	2.00272E-05	0.000324249	8.87298584	1.754760742	4.170227051	-0.012016297	0.001001358	0.016212464	-0.408203125	0.344970703	-0.741455078	885.6	23.49964035	-63.03399561	-62.51302943	-69
31426	0	0.354712486	0.067806244	0.163619995	0.999999046	-0.000118256	9.34601E-05	0.000385284	8.867812157	1.695156097	4.090499878	-0.005912781	0.004673004	0.019264222	-0.410400391	0.347167969	-0.744384766	885.5	23.41673212	-63.02950463	-62.43696256	-69
31427	0	0.354370117	0.067382813	0.1640625	0.999999046	-0.000244141	0.000157356	0.000221252	8.85925293	1.684570313	4.1015625	-0.012207032	0.007867813	0.011062622	-0.408203125	0.349365234	-0.747558594	885.72	23.34711718	-63.01105756	-62.39025588	-69
31428	0	0.356056213	0.068241119	0.167563438	0.999999046	-9.53674E-07	-0.000150681	0.000163078	8.901405334	1.706027985	4.18908596	-4.76837E-05	-0.007534027	0.008153915	-0.410644531	0.349365234	-0.744628906	885.62	23.34435396	-63.02251363	-62.39121174	-69
31429	0	0.355834961	0.069091797	0.165649414	0.999999046	0.000137329	-3.71933E-05	0.000133514	8.895874023	1.727294922	4.141235352	0.006866455	-0.001859665	0.00667572	-0.410400391	0.349365234	-0.750244141	885.62	23.35307188	-63.0208876	-62.38271105	-69
31430	0	0.353485107	0.068004608	0.164382935	0.999999046	-8.7738E-05	6.48499E-05	8.67844E-05	8.837127686	1.700115204	4.109573364	-0.004386902	0.003242493	0.004339218	-0.408203125	0.347167969	-0.741455078	885.56	23.33616009	-63.00661816	-62.37803007	-69
31431	0	0.353759766	0.068603516	0.166992188	0.999999046	-9.15527E-05	4.76837E-06	0.000179291	8.843994141	1.715087891	4.174804688	-0.004577637	0.000238419	0.008964539	-0.408203125	0.3515625	-0.744873047	885.56	23.30462636	-63.00296538	-62.35937187	-69
31432	0	0.356407166	0.068993568	0.166946411	0.999999046	2.76566E-05	6.67572E-05	0.00038147	8.910179138	1.724839211	4.173660278	0.001382828	0.00333786	0.019073487	-0.408203125	0.347167969	-0.744384766	885.56	23.23910694	-63.00208685	-62.28275353	-69
31433	0	0.35369873	0.068725586	0.166259766	0.999999046	-0.000148773	1.23978E-05	0.000244141	8.842468262	1.718139648	4.156494141	-0.00743866	0.000619888	0.012207031	-0.408203125	0.349365234	-0.738769531	885.56	23.18624238	-63.00081553	-62.24994887	-69
31434	0	0.354520798	0.067770004	0.165249825	0.999999046	-0.00021553	-1.14441E-05	0.000346184	8.863019943	1.694250107	4.131245613	-0.01077652	-0.000572205	0.017309189	-0.408203125	0.347167969	-0.741455078	885.54	23.10636562	-63.00682863	-62.19000728	-69
31435	0	0.356811523	0.065246582	0.16998291	0.999999046	-2.28882E-05	-9.05991E-05	0.00012207	8.920288086	1.631164551	4.249572754	-0.001144409	-0.004529953	0.006103516	-0.408203125	0.3515625	-0.744873047	885.5	23.10111151	-63.01117552	-62.19114793	-69
31436	0	0.355149269	0.066983223	0.166379929	0.999999046	0.000300407	-0.000204086	-0.000229836	8.878731728	1.674580574	4.159498215	0.015020371	-0.010204315	-0.011491776	-0.406005859	0.349365234	-0.741943359	885.62	23.21532401	-63.01178895	-62.28398059	-69
31437	0	0.354064941	0.070373535	0.163696289	0.999999046	0.000183105	-0.000124931	-0.000198364	8.851623535	1.759338379	4.092407227	0.009155274	-0.006246567	-0.009918213	-0.408203125	0.349365234	-0.738769531	885.6	23.30255287	-63.00560908	-62.3659736	-69
31438	0	0.354260445	0.070755959	0.163031578	0.999999046	-4.57764E-05	0.000141144	0.000304222	8.856511116	1.768898964	4.075789452	-0.002288818	0.00705719	0.015211106	-0.408203125	0.349365234	-0.744628906	885.56	23.23609512	-62.99437701	-62.29989077	-69
31439	0	0.354370117	0.06854248	0.16607666	0.999999046	-0.000339508	0.00011158	0.000350952	8.85925293	1.713562012	4.151916504	-0.016975404	0.005578995	0.017547608	-0.408203125	0.349365234	-0.738769531	885.62	23.12869288	-62.9884438	-62.22989407	-69
31440	0	0.355113029	0.067814827	0.164308548	0.999999046	-0.000193596	0.000204086	0.000377655	8.877825737	1.695370674	4.107713699	-0.009679795	0.010204316	0.018882752	-0.408203125	0.349365234	-0.741699219	885.6	23.02414481	-62.97412093	-62.14155447	-69
31441	0	0.35546875	0.065917969	0.166442871	0.999999046	-0.000347137	0.00024128	0.000400543	8.88671875	1.647949219	4.161071777	-0.017356874	0.012063981	0.020027162	-0.408447266	0.3515625	-0.739013672	885.6	22.89362471	-62.95698792	-62.0482294	-69
31442	0	0.355561256	0.064845085	0.168001175	0.999999046	-0.000278473	0.0001297	0.000128746	8.88903141	1.621127129	4.200029373	-0.013923645	0.006484985	0.006437302	-0.408447266	0.353759766	-0.739257813	885.68	22.83640301	-62.93959355	-62.03017922	-69
31443	0	0.356140137	0.067443848	0.168212891	0.999999046	0.000225067	-9.82285E-05	-4.19617E-05	8.903503418	1.686096191	4.205322266	0.011253357	-0.004911423	-0.002098084	-0.406005859	0.353759766	-0.7421875	885.56	22.89172306	-62.93876299	-62.06999247	-69
31444	0	0.353907585	0.068645477	0.163655281	0.999999046	7.34329E-05	-2.67029E-05	2.19345E-05	8.847689629	1.716136932	4.091382027	0.003671646	-0.001335144	0.001096725	-0.405761719	0.349365234	-0.744873047	885.62	22.91021884	-62.93343698	-62.08057983	-69
31445	0	0.352844238	0.06854248	0.163696289	0.999999046	-0.000114441	7.72476E-05	0.000179291	8.821105957	1.713562012	4.092407227	-0.005722046	0.003862381	0.008964539	-0.408447266	0.353759766	-0.747802734	885.68	22.86558394	-62.9243327	-62.04864063	-69
31446	0	0.35461235	0.067094803	0.166755676	0.999999046	-0.000209808	0.000118256	0.000235558	8.865308762	1.677370071	4.168891907	-0.010490418	0.005912781	0.011777878	-0.408203125	0.3515625	-0.744873047	885.62	22.79457198	-62.91350486	-61.99885552	-69
31447	0	0.356262207	0.067382813	0.165588379	0.999999046	-5.72205E-05	0.000138283	0.00012207	8.906555176	1.684570313	4.139709473	-0.002861023	0.006914139	0.006103516	-0.408447266	0.353759766	-0.7421875	885.62	22.76260518	-62.89570537	-61.97837871	-69
31448	0	0.353425026	0.067093849	0.166363716	0.999999046	-6.19888E-05	5.53131E-05	0.000128746	8.835625648	1.67734623	4.159092903	-0.003099442	0.002765656	0.006437302	-0.406005859	0.3515625	-0.741943359	885.64	22.73570553	-62.88707666	-61.96017135	-69
31449	0	0.354309082	0.067626953	0.165405273	0.999999046	-0.00012207	0.000103951	0.000400543	8.857727051	1.690673828	4.135131836	-0.006103516	0.005197525	0.020027161	-0.406005859	0.3515625	-0.741943359	885.68	22.64150795	-62.88547153	-61.87382839	-69
31450	0	0.356217384	0.064370155	0.168362617	0.999999046	-0.000135422	5.34058E-05	0.000224113	8.905434608	1.609253883	4.209065437	-0.006771088	0.002670288	0.011205673	-0.406005859	0.355957031	-0.745361328	885.62	22.58604144	-62.88152027	-61.83470289	-69
31451	0	0.355773926	0.064880371	0.169555664	0.999999046	0.000152588	-0.000189781	-0.000106812	8.894348145	1.622009277	4.238891602	0.007629395	-0.00948906	-0.005340576	-0.40625	0.353759766	-0.739257813	885.6	22.65235664	-62.88877342	-61.89836204	-69
31452	0	0.35392952	0.068484306	0.164211273	0.999999046	0.000489235	-0.000305176	-0.000100136	8.848237991	1.712107658	4.10528183	0.024461748	-0.01525879	-0.00500679	-0.408203125	0.3515625	-0.744873047	885.68	22.76598831	-62.90866085	-61.96622134	-69
31453	0	0.353088379	0.068908691	0.162109375	0.999999046	1.14441E-05	6.19888E-05	4.19617E-05	8.827209473	1.722717285	4.052734375	0.000572205	0.003099442	0.002098083	-0.406005859	0.3515625	-0.741943359	885.6	22.76392889	-62.8962496	-61.96686439	-69
31454	0	0.354660034	0.066989899	0.167094231	0.999999046	-0.000333786	0.000137329	0.000185966	8.866500854	1.674747467	4.177355766	-0.016689301	0.006866455	0.009298325	-0.408447266	0.3515625	-0.741943359	885.6	22.68584071	-62.88233636	-61.92752219	-69
31455	0	0.355957031	0.067260742	0.167785645	0.999999046	7.24792E-05	-0.000113487	0.000183105	8.898925781	1.681518555	4.194641113	0.003623962	-0.005674362	0.009155274	-0.406005859	0.353759766	-0.7421875	885.62	22.6763563	-62.89488622	-61.91368005	-69
31456	0	0.354064941	0.065934181	0.164459229	0.999999046	8.29697E-05	-0.000150681	0.00012207	8.851623535	1.64835453	4.111480713	0.004148483	-0.007534027	0.006103516	-0.40625	0.353759766	-0.739257813	885.62	22.68369038	-62.90886762	-61.91999687	-69
31457	0	0.353881836	0.066040039	0.165588379	0.999999046	-1.14441E-05	-4.86374E-05	-7.62939E-06	8.847045898	1.651000977	4.139709473	-0.000572205	-0.00243187	-0.00038147	-0.406005859	0.3515625	-0.744873047	885.62	22.69798238	-62.9064676	-61.93841195	-69
31458	0	0.356399536	0.066895485	0.167751312	0.999999046	0.00021553	-0.000164032	-0.000191689	8.909988403	1.672387123	4.193782806	0.01077652	-0.008201599	-0.009584427	-0.408447266	0.353759766	-0.744873047	885.6	22.78605526	-62.908183	-62.01520269	-69
31459	0	0.35559082	0.068237305	0.166625977	0.999999046	0.000427246	-0.000407219	-0.000225067	8.889770508	1.705932617	4.165649414	0.021362306	-0.020360948	-0.011253358	-0.408447266	0.353759766	-0.7421875	885.6	22.9264241	-62.93411068	-62.12629486	-69
31460	0	0.3528862	0.068231583	0.16463089	0.999999046	0.000424385	-0.000366211	-0.000172615	8.822154999	1.705789566	4.115772247	0.021219255	-0.018310548	-0.008630753	-0.408203125	0.349365234	-0.744628906	885.62	23.05223683	-62.95805108	-62.21417351	-69
31461	0	0.353881836	0.068359375	0.163818359	0.999999046	0.000225067	-0.000349998	-0.00018692	8.847045898	1.708984375	4.095458984	0.011253357	-0.017499924	-0.009346009	-0.408203125	0.349365234	-0.744628906	885.56	23.15688098	-62.97969839	-62.30405551	-69
31462	0	0.356534004	0.070031166	0.164085388	0.999999046	0.000236511	-0.000431061	1.14441E-05	8.913350105	1.750779152	4.102134705	0.011825562	-0.02155304	0.000572205	-0.410644531	0.3515625	-0.744628906	885.56	23.22927161	-63.01891854	-62.36041149	-69
31463	0	0.356567383	0.069152832	0.163330078	0.999999046	7.62939E-06	-0.000247002	0.000152588	8.91418457	1.728820801	4.083251953	0.00038147	-0.012350083	0.007629395	-0.410644531	0.349365234	-0.738769531	885.58	23.23000065	-63.045299	-62.36784537	-69
31464	0	0.354959488	0.067398071	0.163824081	0.999999046	2.00272E-05	-0.000108719	8.67844E-05	8.873987198	1.684951782	4.095602036	0.001001358	-0.005435944	0.004339218	-0.410644531	0.347167969	-0.741455078	885.62	23.23330946	-63.05428698	-62.37125462	-69
31465	0	0.354309082	0.069030762	0.164306641	0.999999046	9.53674E-05	-0.000163078	-3.8147E-05	8.857727051	1.725769043	4.107666016	0.004768372	-0.008153915	-0.001907349	-0.410888672	0.3515625	-0.739013672	885.6	23.27592287	-63.06340671	-62.41687759	-69
31466	0	0.356066704	0.066525459	0.163993835	0.999999046	4.95911E-05	-0.000209808	0.000110626	8.901667595	1.663136482	4.099845886	0.002479553	-0.010490418	0.005531311	-0.410644531	0.349365234	-0.744628906	885.6	23.2863752	-63.0843434	-62.42395868	-69
31467	0	0.356567383	0.067687988	0.16619873	0.999999046	0.000289917	-0.000304222	-0.000289917	8.91418457	1.692199707	4.154968262	0.01449585	-0.015211106	-0.01449585	-0.410644531	0.349365234	-0.741699219	885.64	23.41562164	-63.09706263	-62.53652421	-69
31468	0	0.354734421	0.068353653	0.162585258	0.999999046	0.00048542	-0.000427246	-0.000367165	8.868360519	1.708841324	4.064631462	0.024271014	-0.021362307	-0.018358232	-0.412841797	0.349609375	-0.744384766	885.62	23.59442381	-63.11918486	-62.67951476	-69
31469	0	0.354064941	0.071228027	0.162536621	0.999999046	0.000370026	-0.000437737	-0.000148773	8.851623535	1.780700684	4.063415527	0.018501283	-0.021886827	-0.00743866	-0.412841797	0.347167969	-0.744140625	885.62	23.71612877	-63.15234751	-62.77065446	-69
31470	0	0.353819847	0.06974411	0.162174225	0.999999046	9.53674E-05	-0.000160217	4.57764E-05	8.845496178	1.743602753	4.054355621	0.004768372	-0.008010864	0.002288818	-0.412841797	0.347167969	-0.744140625	885.62	23.74088017	-63.16540099	-62.7883779	-69
31471	0	0.355407715	0.070129395	0.164672852	0.999999046	4.19617E-05	-0.000212669	-7.62939E-06	8.885192871	1.753234863	4.116821289	0.002098084	-0.010633469	-0.00038147	-0.412841797	0.347412109	-0.741210938	885.64	23.77528679	-63.18148821	-62.82660529	-69
31472	0	0.355963707	0.069170952	0.162622452	0.999999046	6.58035E-05	-0.000301361	4.48227E-05	8.899092674	1.729273796	4.065561295	0.003290176	-0.015068054	0.002241135	-0.412841797	0.344970703	-0.744140625	885.58	23.8095978	-63.20940947	-62.85547587	-69
31473	0	0.354919434	0.069580078	0.163269043	0.999999046	3.8147E-05	-0.000296593	3.8147E-05	8.87298584	1.739501953	4.081726074	0.001907349	-0.014829636	0.001907349	-0.415283203	0.347412109	-0.741210938	885.58	23.84162064	-63.23655055	-62.89253331	-69
31474	0	0.35636425	0.069198608	0.163356781	0.999999046	-5.14984E-05	-0.000181198	-5.72205E-05	8.909106255	1.72996521	4.083919525	-0.002574921	-0.009059906	-0.002861023	-0.415283203	0.347412109	-0.744140625	885.64	23.87247843	-63.2472416	-62.9366131	-69
31475	0	0.355895996	0.068664551	0.162719727	0.999999046	3.8147E-06	-2.19345E-05	-0.000137329	8.897399902	1.71661377	4.067993164	0.000190735	-0.001096725	-0.006866455	-0.415039063	0.345214844	-0.743896484	885.64	23.91148155	-63.2376079	-62.98011492	-69
31476	0	0.355029106	0.070837975	0.161725998	0.999999046	0.000100136	-9.53674E-05	-0.000107765	8.875727654	1.770949364	4.043149948	0.00500679	-0.004768372	-0.00538826	-0.415283203	0.345214844	-0.740966797	885.64	23.96218194	-63.23709272	-63.02752709	-69
31477	0	0.356506348	0.070922852	0.16229248	0.999999046	0.000125885	3.52859E-05	-7.62939E-05	8.912658691	1.773071289	4.057312012	0.006294251	0.001764297	-0.003814697	-0.415039063	0.345214844	-0.743896484	885.64	23.99725637	-63.2244281	-63.05163257	-69
31478	0	0.355567932	0.0710783	0.162054062	0.999999046	-1.90735E-06	8.01086E-05	1.81198E-05	8.889198303	1.776957512	4.051351547	-9.53674E-05	0.004005432	0.000905991	-0.415283203	0.345214844	-0.738037109	885.72	23.99397091	-63.21152894	-63.05513764	-69
31479	0	0.354675293	0.071594238	0.16217041	0.999999046	-0.000198364	0.00024128	0.000247955	8.866882324	1.789855957	4.054260254	-0.009918213	0.01206398	0.012397766	-0.415039063	0.345214844	-0.743896484	885.64	23.90579815	-63.19248072	-62.98269061	-69
31480	0	0.356096268	0.070131302	0.162979126	0.999999046	-0.000180244	0.000133514	0.000220299	8.902406693	1.753282547	4.074478149	-0.009012222	0.00667572	0.011014939	-0.415283203	0.345214844	-0.740966797	885.64	23.83533603	-63.18346184	-62.93049572	-69
31481	0	0.356323242	0.069641113	0.163085938	0.999999046	-9.91821E-05	8.86917E-05	8.01086E-05	8.908081055	1.741027832	4.077148438	-0.004959106	0.004434586	0.004005432	-0.412841797	0.347412109	-0.741210938	885.58	23.80726394	-63.17270892	-62.91617324	-69
31482	0	0.354351997	0.071992874	0.163162231	0.999999046	9.72748E-05	-1.33514E-05	0.000240326	8.858799934	1.799821854	4.079055786	0.004863739	-0.000667572	0.012016297	-0.415283203	0.345214844	-0.738037109	885.58	23.77796738	-63.18004411	-62.87726028	-69
31483	0	0.355529785	0.070739746	0.16229248	0.999999046	-0.000247955	0.000115395	0.000427246	8.888244629	1.768493652	4.057312012	-0.012397767	0.00576973	0.021362306	-0.412841797	0.345214844	-0.73828125	885.6	23.65862712	-63.18253558	-62.77904362	-69
31484	0	0.356647491	0.067056656	0.165458679	0.999999046	-0.000264168	1.52588E-05	0.000288963	8.916187286	1.676416397	4.13646698	-0.01320839	0.000762939	0.014448166	-0.412841797	0.347167969	-0.744140625	885.64	23.57481545	-63.18914499	-62.71883823	-69
31485	0	0.355651855	0.06854248	0.164672852	0.999999046	0.000209808	-0.000231743	-4.19617E-05	8.891296387	1.713562012	4.116821289	0.010490418	-0.011587143	-0.002098084	-0.415283203	0.345214844	-0.740966797	885.56	23.63631325	-63.20650731	-62.76318355	-69
31486	0	0.355109215	0.071690559	0.159960747	0.999999046	0.000141144	-0.000156403	3.33786E-05	8.87773037	1.792263985	3.999018669	0.00705719	-0.007820129	0.00166893	-0.413085938	0.347412109	-0.738525391	885.58	23.66779441	-63.21953433	-62.78647143	-69
31487	0	0.353393555	0.071166992	0.161315918	0.999999046	-0.000240326	0.000206947	0.000190735	8.834838867	1.779174805	4.032897949	-0.012016297	0.010347367	0.009536743	-0.413085938	0.347412109	-0.738525391	885.62	23.58997835	-63.20168147	-62.73584045	-69
31488	0	0.355854034	0.068693161	0.164730072	0.999999046	-0.000264168	5.14984E-05	0.000365257	8.896350861	1.717329025	4.118251801	-0.01320839	0.002574921	0.018262864	-0.413085938	0.349609375	-0.741455078	885.52	23.48709369	-63.20810813	-62.65939084	-69
31489	0	0.356079102	0.069824219	0.161804199	0.999999046	-5.72205E-05	3.91006E-05	0.000450134	8.901977539	1.745605469	4.04510498	-0.002861023	0.001955032	0.022506715	-0.413085938	0.349609375	-0.738525391	885.62	23.39141086	-63.21974659	-62.56699545	-69
31490	0	0.353503227	0.068021774	0.161838531	0.999999046	-0.000169754	7.62939E-06	0.000231743	8.837580681	1.700544357	4.045963287	-0.008487702	0.00038147	0.011587143	-0.413085938	0.349609375	-0.741455078	885.58	23.33108067	-63.22478384	-62.52506431	-69
31491	0	0.355957031	0.068786621	0.164306641	0.999999046	-0.00030899	8.4877E-05	0.000247955	8.898925781	1.719665527	4.107666016	-0.015449524	0.004243851	0.012397766	-0.412841797	0.347412109	-0.741210938	885.58	23.24440925	-63.22240802	-62.46779276	-69
31492	0	0.356878281	0.06734848	0.163248062	0.999999046	-6.19888E-05	4.00543E-05	0.000156403	8.921957016	1.683712006	4.081201553	-0.003099442	0.002002716	0.007820129	-0.410644531	0.349365234	-0.744628906	885.58	23.20904037	-63.22068673	-62.43378681	-69
31493	0	0.354614258	0.068786621	0.163513184	0.999999046	3.8147E-06	-7.53403E-05	-8.7738E-05	8.865356445	1.719665527	4.08782959	0.000190735	-0.003767014	-0.004386902	-0.412841797	0.347412109	-0.741210938	885.62	23.24249908	-63.22008846	-62.47093719	-69
31494	0	0.354808807	0.070192337	0.162054062	0.999999046	7.24792E-05	-0.000102997	0.000174522	8.870220184	1.754808426	4.051351547	0.003623962	-0.005149841	0.00872612	-0.413085938	0.349609375	-0.735839844	885.58	23.23177614	-63.23429521	-62.45838744	-69
31495	0	0.354919434	0.069580078	0.162719727	0.999999046	-0.000171661	5.81741E-05	0.000267029	8.87298584	1.739501953	4.067993164	-0.008583069	0.002908707	0.013351441	-0.413085938	0.349609375	-0.741455078	885.64	23.15944679	-63.23572553	-62.40175806	-69
31496	0	0.3549366	0.068966866	0.164614677	0.999999046	-0.000151634	8.58307E-05	0.000240326	8.873414993	1.724171638	4.115366936	-0.007581711	0.004291534	0.012016297	-0.413085938	0.349609375	-0.741455078	885.6	23.0925194	-63.23296549	-62.34825292	-69
31497	0	0.355102539	0.067016602	0.164733887	0.999999046	-8.7738E-05	7.72476E-05	0.000209808	8.877563477	1.675415039	4.118347168	-0.004386902	0.003862381	0.010490418	-0.413085938	0.349609375	-0.741455078	885.58	23.03988083	-63.22970758	-62.30242353	-69
31498	0	0.356449127	0.069096565	0.163273811	0.999999046	3.62396E-05	-5.91278E-05	0.000166893	8.91122818	1.727414131	4.081845284	0.001811981	-0.00295639	0.00834465	-0.413085938	0.351806641	-0.738769531	885.52	23.0226434	-63.23893896	-62.2860663	-69
31499	0	0.356445313	0.067565918	0.16204834	0.999999046	7.62939E-06	2.00272E-05	0.000118256	8.911132813	1.689147949	4.051208496	0.00038147	0.001001358	0.005912781	-0.410644531	0.3515625	-0.741699219	885.64	23.00528574	-63.23776604	-62.26791588	-69
31500	0	0.354074478	0.069131851	0.162426949	0.999999046	-9.05991E-05	0.000102997	0.000258446	8.851861954	1.72829628	4.060673714	-0.004529953	0.005149841	0.012922287	-0.410644531	0.349365234	-0.744628906	885.58	22.94017285	-63.23412975	-62.20256343	-69
31501	0	0.354736328	0.06829834	0.164123535	0.999999046	-0.000217438	7.34329E-05	0.000305176	8.868408203	1.707458496	4.103088379	-0.010871887	0.003671646	0.015258789	-0.413085938	0.349609375	-0.738525391	885.56	22.8533737	-63.23563766	-62.13731694	-69
31502	0	0.356339455	0.06623745	0.167621613	0.999999046	-0.000123978	-3.62396E-05	0.000300407	8.908486366	1.655936241	4.190540314	-0.006198883	-0.001811981	0.015020371	-0.410888672	0.3515625	-0.739013672	885.56	22.78761341	-63.24838517	-62.08365887	-69
31503	0	0.35546875	0.066345215	0.165344238	0.999999046	4.57764E-05	-9.82285E-05	0.000102997	8.88671875	1.658630371	4.133605957	0.002288818	-0.004911423	0.005149841	-0.410644531	0.3515625	-0.741699219	885.62	22.78794413	-63.25888709	-62.07912185	-69
31504	0	0.355331421	0.069154739	0.162703514	0.999999046	0.000119209	2.09808E-05	2.86102E-06	8.883285522	1.728868484	4.067587852	0.005960464	0.001049042	0.000143051	-0.413085938	0.349609375	-0.738525391	885.62	22.80741387	-63.25238189	-62.08946623	-69
31505	0	0.354736328	0.069519043	0.162597656	0.999999046	-0.000148773	0.000252724	0.000236511	8.868408203	1.737976074	4.064941406	-0.00743866	0.012636185	0.011825562	-0.410888672	0.3515625	-0.739013672	885.58	22.72709993	-63.23177296	-62.02288839	-69
31506	0	0.355051041	0.066799164	0.164627075	0.999999046	-0.000177383	8.7738E-05	0.000239372	8.876276016	1.669979095	4.11567688	-0.008869171	0.004386902	0.011968613	-0.410644531	0.349365234	-0.738769531	885.52	22.65737924	-63.2286919	-61.96832777	-69
31507	0	0.355773926	0.06817627	0.164611816	0.999999046	-8.39233E-05	-4.48227E-05	0.00031662	8.894348145	1.704406738	4.11529541	-0.004196167	-0.002241135	0.015830994	-0.410888672	0.3515625	-0.739013672	885.58	22.59383352	-63.24299867	-61.91127809	-69
31508	0	0.354792595	0.065909386	0.162148476	0.999999046	-0.000216484	0.000106812	0.000247955	8.869814873	1.647734642	4.053711891	-0.010824204	0.005340576	0.012397766	-0.410888672	0.3515625	-0.739013672	885.62	22.51622659	-63.23831499	-61.85495612	-69
31509	0	0.355773926	0.066467285	0.165405273	0.999999046	-0.000179291	0.000153542	0.000198364	8.894348145	1.661682129	4.135131836	-0.008964539	0.007677078	0.009918213	-0.408447266	0.3515625	-0.741943359	885.58	22.44920039	-63.22646336	-61.80036052	-69
31510	0	0.355810165	0.066082954	0.165964127	0.999999046	-4.19617E-05	3.05176E-05	-9.25064E-05	8.895254135	1.65207386	4.149103165	-0.002098084	0.001525879	-0.00462532	-0.408447266	0.353759766	-0.7421875	885.62	22.46952938	-63.21486562	-61.82905116	-69
31511	0	0.355712891	0.067321777	0.164245605	0.999999046	3.8147E-05	-7.15256E-05	-3.8147E-05	8.892822266	1.683044434	4.106140137	0.001907349	-0.003576279	-0.001907349	-0.408447266	0.353759766	-0.739257813	885.52	22.49655801	-63.2164707	-61.85819151	-69
31512	0	0.354632378	0.066750526	0.163761139	0.999999046	1.23978E-05	6.10352E-05	4.1008E-05	8.865809441	1.668763161	4.094028473	0.000619888	0.003051758	0.0020504	-0.410888672	0.3515625	-0.739013672	885.58	22.49256002	-63.20753771	-61.85502856	-69
31513	0	0.356323242	0.069091797	0.16607666	0.999999046	2.67029E-05	8.58307E-06	0.000209808	8.908081055	1.727294922	4.151916504	0.001335144	0.000429153	0.010490418	-0.410888672	0.353759766	-0.741943359	885.52	22.45953846	-63.21148396	-61.81744608	-69
31514	0	0.356714249	0.066082001	0.164063454	0.999999046	-8.01086E-05	3.8147E-05	0.000113487	8.917856216	1.652050018	4.101586342	-0.004005432	0.001907349	0.005674362	-0.406005859	0.3515625	-0.739257813	885.56	22.43188427	-63.20815575	-61.7952842	-69
31515	0	0.353637695	0.064575195	0.165710449	0.999999046	8.01086E-05	-0.00020504	-6.10352E-05	8.840942383	1.614379883	4.14276123	0.004005432	-0.010251999	-0.003051758	-0.410888672	0.353759766	-0.741943359	885.62	22.48001764	-63.22290446	-61.84160916	-69
31516	0	0.355283737	0.067025185	0.165308952	0.999999046	0.000220299	-0.000284195	-0.00017643	8.88209343	1.675629616	4.132723808	0.011014939	-0.014209748	-0.008821488	-0.410644531	0.3515625	-0.741699219	885.58	22.57539512	-63.24091257	-61.91991493	-69
31517	0	0.356811523	0.066467285	0.165161133	0.999999046	0.00031662	-0.000319481	-0.000118256	8.920288086	1.661682129	4.12902832	0.015830994	-0.015974045	-0.005912781	-0.410644531	0.353759766	-0.744873047	885.58	22.67272996	-63.26517209	-61.98820655	-69
31518	0	0.356107712	0.066961288	0.165927887	0.999999046	0.00021553	-0.000253677	-0.000247955	8.902692795	1.674032211	4.148197174	0.01077652	-0.012683869	-0.012397766	-0.410644531	0.349365234	-0.741699219	885.64	22.77996221	-63.27663018	-62.07798947	-69
31519	0	0.355163574	0.069152832	0.164367676	0.999999046	0.000331879	-0.000361443	-9.53674E-05	8.879089355	1.728820801	4.109191895	0.016593934	-0.018072129	-0.004768372	-0.410888672	0.3515625	-0.739013672	885.62	22.87828473	-63.30612626	-62.1496526	-69
31520	0	0.356550217	0.065422058	0.162234306	0.999999046	0.000159264	-0.000333786	-0.000110626	8.913755417	1.635551453	4.055857658	0.007963181	-0.016689301	-0.005531311	-0.413085938	0.351806641	-0.735839844	885.64	22.9575611	-63.33210129	-62.22765304	-69
31521	0	0.357849121	0.065979004	0.167907715	0.999999046	0.00038147	-0.000525475	-0.000350952	8.946228027	1.649475098	4.197692871	0.019073488	-0.02627373	-0.017547609	-0.413085938	0.351806641	-0.741699219	885.56	23.12975479	-63.36734518	-62.37478991	-69
31522	0	0.356328011	0.06763649	0.165466309	0.999998093	0.000882149	-0.000975609	-0.000515938	8.908200264	1.690912247	4.136657715	0.044107452	-0.048780458	-0.025796899	-0.415283203	0.349609375	-0.747070313	885.62	23.43519301	-63.44215685	-62.6001937	-69
31523	0	0.353637695	0.070983887	0.15802002	0.999999046	0.000812531	-0.000632286	-0.000553131	8.840942383	1.774597168	3.950500488	0.040626535	-0.031614311	-0.027656561	-0.417480469	0.345214844	-0.740966797	885.64	23.71064527	-63.47877099	-62.80446223	-69
31524	0	0.35424614	0.072487831	0.158369064	0.999999046	0.000229836	-0.000356674	-0.000217438	8.856153488	1.812195778	3.959226608	0.011491776	-0.01783371	-0.010871888	-0.415283203	0.347412109	-0.741210938	885.62	23.82416907	-63.50172014	-62.90360164	-69
31525	0	0.356506348	0.069946289	0.163269043	0.999999046	7.62939E-05	-0.000330925	7.62939E-05	8.912658691	1.748657227	4.081726074	0.003814697	-0.01654625	0.003814697	-0.417480469	0.345214844	-0.740966797	885.58	23.85599479	-63.53545383	-62.92942559	-69
31526	0	0.356136322	0.068696022	0.163144112	0.999999046	0.000295639	-0.000486374	-9.25064E-05	8.903408051	1.717400551	4.078602791	0.014781953	-0.024318696	-0.004625321	-0.417724609	0.345214844	-0.738037109	885.58	23.96292606	-63.57755925	-63.01458692	-69
31527	0	0.354675293	0.069274902	0.160888672	0.999999046	0.000488281	-0.000594139	-0.000278473	8.866882324	1.731872559	4.022216797	0.024414065	-0.029706958	-0.013923647	-0.419921875	0.343261719	-0.734863281	885.52	24.14153597	-63.62214224	-63.15794342	-69
31528	0	0.358857155	0.06938839	0.161675453	0.999999046	0.000617027	-0.000637054	-0.000340462	8.971428871	1.73470974	4.04188633	0.030851369	-0.031852727	-0.017023089	-0.422119141	0.343261719	-0.740478516	885.58	24.35243754	-63.6681086	-63.31697448	-69
31529	0	0.357849121	0.071044922	0.16003418	0.999999046	0.000526428	-0.000620842	-0.000514984	8.946228027	1.776123047	4.000854492	0.026321415	-0.031042104	-0.025749211	-0.422119141	0.341064453	-0.737304688	885.52	24.58883216	-63.70384727	-63.51688673	-69
31530	0	0.355044365	0.072799683	0.160369873	0.999999046	0.000686646	-0.000713348	-0.000523567	8.876109123	1.819992065	4.009246826	0.034332283	-0.035667427	-0.026178365	-0.424316406	0.338867188	-0.739990234	885.58	24.85510525	-63.74831837	-63.72590686	-69
31531	0	0.356323242	0.072875977	0.158081055	0.999999046	0.000732422	-0.000826836	-0.000545502	8.908081055	1.821899414	3.952026367	0.036621103	-0.041341792	-0.027275092	-0.424560547	0.338867188	-0.737060547	885.52	25.14335838	-63.8030664	-63.95788281	-69
31532	0	0.356136322	0.074043274	0.156894684	0.999999046	0.000439644	-0.000761032	-0.00044632	8.903408051	1.851081848	3.922367096	0.021982197	-0.038051611	-0.022315983	-0.426757813	0.338867188	-0.742675781	885.46	25.37178338	-63.85539906	-64.15585784	-69
31533	0	0.357666016	0.074707031	0.15826416	0.999999046	0.000549316	-0.000636101	-0.000232697	8.941650391	1.867675781	3.956604004	0.027465824	-0.031805042	-0.011634828	-0.426757813	0.336669922	-0.739746094	885.56	25.55604009	-63.90496913	-64.29107014	-69
31534	0	0.35691452	0.07419014	0.156140327	0.999999046	0.000387192	-0.000646591	-0.000255585	8.922863007	1.854753494	3.903508186	0.019359591	-0.032329563	-0.012779237	-0.428955078	0.334716797	-0.736572266	885.52	25.72828334	-63.95431996	-64.436	-69
31535	0	0.357543945	0.074035645	0.155090332	0.999999046	0.000343323	-0.000700951	-0.000328064	8.938598633	1.850891113	3.877258301	0.01716614	-0.035047535	-0.0164032	-0.428955078	0.334716797	-0.736572266	885.58	25.91704428	-64.00552427	-64.6046101	-69
31536	0	0.358205795	0.074317932	0.158747673	0.999999046	0.000517845	-0.000652313	-0.000447273	8.955144882	1.857948303	3.968691826	0.025892262	-0.032615666	-0.022363666	-0.431396484	0.332519531	-0.733398438	885.58	26.146501	-64.04535799	-64.79901176	-69
31537	0	0.35736084	0.077270508	0.157836914	0.999999046	0.000736237	-0.000815392	-0.000598907	8.934020996	1.931762695	3.945922852	0.036811838	-0.040769588	-0.029945381	-0.428955078	0.332519531	-0.736328125	885.52	26.45088852	-64.09370861	-65.04429547	-69
31538	0	0.356848717	0.076886177	0.153661728	0.999999046	0.000469208	-0.00088501	-0.000297546	8.921217918	1.922154427	3.841543198	0.023460392	-0.044250496	-0.014877322	-0.43359375	0.332519531	-0.739013672	885.58	26.66955452	-64.16414813	-65.22870513	-69
31539	0	0.358947754	0.075134277	0.15625	0.999999046	0.000385284	-0.000700951	-0.000289917	8.973693848	1.878356934	3.90625	0.019264224	-0.035047535	-0.014495851	-0.43359375	0.330322266	-0.738769531	885.5	26.85810724	-64.21581981	-65.3871247	-69
31540	0	0.357292175	0.075034142	0.155995369	0.999999046	0.000582695	-0.000711441	-0.000599861	8.932304382	1.875853539	3.899884224	0.029134756	-0.035572059	-0.029993063	-0.435791016	0.328369141	-0.732666016	885.58	27.13640698	-64.25206501	-65.62671348	-69
31541	0	0.356628418	0.079101563	0.154785156	0.999999046	0.000728607	-0.000845909	-0.000583649	8.915710449	1.977539063	3.869628906	0.036430369	-0.042295467	-0.029182442	-0.438232422	0.328369141	-0.732666016	885.52	27.44357026	-64.30218392	-65.88248233	-68
31542	0	0.357891083	0.079007149	0.151256561	0.999999046	0.000747681	-0.000804901	-0.000367165	8.947277069	1.975178719	3.781414032	0.037384042	-0.040245065	-0.018358235	-0.437988281	0.323974609	-0.732177734	885.52	27.70388853	-64.35909856	-66.07796306	-68
31543	0	0.358764648	0.079528809	0.150817871	0.999999046	0.000431061	-0.000544548	-0.000217438	8.969116211	1.988220215	3.770446777	0.021553041	-0.027227404	-0.010871888	-0.440429688	0.323974609	-0.737792969	885.56	27.86826331	-64.39732359	-66.20306868	-68
31544	0	0.357064247	0.08146286	0.152066231	0.999999046	0.0001688	-0.000404358	-3.43323E-05	8.926606178	2.036571503	3.801655769	0.008440018	-0.020217896	-0.001716614	-0.440429688	0.323974609	-0.737792969	885.62	27.94875411	-64.43093011	-66.26820559	-68
31545	0	0.358337402	0.078918457	0.151245117	0.999999046	0.000198364	-0.000380516	4.57764E-05	8.958435059	1.972961426	3.78112793	0.009918213	-0.019025803	0.002288818	-0.440429688	0.326171875	-0.732421875	885.56	28.01314992	-64.46637318	-66.32122814	-69
31546	0	0.357666969	0.079739571	0.152404785	0.999999046	-9.53674E-06	-0.000366211	2.67029E-05	8.941674232	1.993489265	3.810119629	-0.000476837	-0.018310547	0.001335144	-0.440185547	0.321777344	-0.734863281	885.58	28.05628895	-64.49921875	-66.36631797	-68
31547	0	0.358825684	0.078796387	0.150634766	0.999999046	3.43323E-05	-0.000273705	0	8.97064209	1.969909668	3.765869141	0.001716614	-0.013685227	0	-0.442871094	0.323974609	-0.731933594	885.46	28.09971736	-64.52125311	-66.41491438	-68
31548	0	0.358908653	0.080392838	0.15110302	0.999999046	4.29153E-05	-9.91821E-05	1.43051E-05	8.972716331	2.009820938	3.777575493	0.002145767	-0.004959106	0.000715256	-0.445068359	0.32421875	-0.734863281	885.58	28.12146821	-64.52635107	-66.43710691	-69
31549	0	0.359436035	0.078063965	0.151550293	0.999999046	5.72205E-05	-0.000170708	3.8147E-06	8.985900879	1.951599121	3.788757324	0.002861023	-0.008535385	0.000190735	-0.442626953	0.321777344	-0.731933594	885.7	28.15503463	-64.53809143	-66.46798385	-68
31550	0	0.356925011	0.080763817	0.151722908	0.999999046	-5.53131E-05	-1.71661E-05	-9.15527E-05	8.923125267	2.019095421	3.793072701	-0.002765656	-0.000858307	-0.004577637	-0.445068359	0.322021484	-0.731689453	885.78	28.17858923	-64.52901595	-66.50472884	-68
31551	0	0.35736084	0.080932617	0.150390625	0.999999046	-3.8147E-06	6.96182E-05	4.19617E-05	8.934020996	2.02331543	3.759765625	-0.000190735	0.003480911	0.002098083	-0.442626953	0.321777344	-0.731933594	885.7	28.17003738	-64.51832451	-66.49677136	-68
31552	0	0.358872414	0.081084251	0.15190506	0.999999046	-0.000172615	0.000137329	0.000166893	8.971810341	2.027106285	3.797626495	-0.008630753	0.006866455	0.00834465	-0.442626953	0.321777344	-0.737548828	885.58	28.10810621	-64.50744444	-66.44428124	-68
31553	0	0.358337402	0.080932617	0.151733398	0.999999046	-0.000179291	0.000142097	0.000205994	8.958435059	2.02331543	3.793334961	-0.008964539	0.007104874	0.010299683	-0.440429688	0.323974609	-0.735107422	885.62	28.036728	-64.49807374	-66.3864612	-68
31554	0	0.357718468	0.082623482	0.149665833	0.999999046	-0.000154495	0.000249863	0.000598907	8.942961693	2.065587044	3.741645813	-0.007724763	0.012493134	0.029945376	-0.445068359	0.322021484	-0.728759766	885.7	27.87313903	-64.4987973	-66.23129748	-68
31555	0	0.358886719	0.07623291	0.152709961	0.999999046	-0.00037384	0.000214577	0.000534058	8.972167969	1.905822754	3.817749023	-0.018692018	0.010728837	0.026702883	-0.442871094	0.323974609	-0.734863281	885.62	27.70178481	-64.49942045	-66.08837218	-69
31556	0	0.359693527	0.07524395	0.155605316	0.999999046	-0.000163078	7.24792E-05	7.53403E-05	8.992338181	1.881098747	3.890132904	-0.008153915	0.003623962	0.003767014	-0.440429688	0.323974609	-0.732177734	885.56	27.6674684	-64.48983969	-66.07147888	-68
31557	0	0.358886719	0.078857422	0.154296875	0.999999046	0.000270844	-0.000224113	-0.00025177	8.972167969	1.971435547	3.857421875	0.013542176	-0.011205674	-0.012588501	-0.442871094	0.326171875	-0.735107422	885.62	27.78545195	-64.49278068	-66.17099757	-68
31558	0	0.357142448	0.081376076	0.15024662	0.999999046	0.000137329	-9.15527E-05	-1.23978E-05	8.928561211	2.034401894	3.756165504	0.006866455	-0.004577637	-0.000619888	-0.442871094	0.323974609	-0.731933594	885.58	27.82281063	-64.49496951	-66.19862553	-68
31559	0	0.358154297	0.081176758	0.150390625	0.999999046	-0.000217438	0.000187874	0.000236511	8.953857422	2.029418945	3.759765625	-0.010871887	0.009393692	0.011825562	-0.442871094	0.326171875	-0.735107422	885.68	27.73566943	-64.48209541	-66.13262128	-69
31560	0	0.359232903	0.079596519	0.153367043	0.999999046	-0.000292778	0.000289917	0.000240326	8.980822563	1.989912987	3.834176064	-0.014638901	0.01449585	0.012016297	-0.440429688	0.323974609	-0.737792969	885.56	27.62782398	-64.45893262	-66.04414438	-68
31561	0	0.356506348	0.078491211	0.153076172	0.999999046	-0.00018692	5.81741E-05	0.000358582	8.912658691	1.962280273	3.826904297	-0.009346009	0.002908707	0.017929078	-0.440429688	0.323974609	-0.732177734	885.64	27.53275328	-64.46541521	-65.96257257	-68
31562	0	0.358316422	0.080191612	0.150217056	0.999999046	-0.000131607	-1.90735E-06	0.000475883	8.957910538	2.004790306	3.755426407	-0.006580353	-9.53674E-05	0.023794175	-0.440429688	0.326171875	-0.735107422	885.58	27.42594935	-64.48416412	-65.86025319	-69
31563	0	0.360168457	0.077819824	0.151550293	0.999999046	-0.000385284	0.000206947	0.000537872	9.004211426	1.945495605	3.788757324	-0.019264223	0.010347367	0.026893618	-0.440673828	0.328369141	-0.729492188	885.62	27.25370349	-64.48485459	-65.72698156	-69
31564	0	0.35939312	0.075848579	0.154380798	0.999999046	-0.000227928	0.000141144	0.000282288	8.984827995	1.896214485	3.859519958	-0.011396408	0.00705719	0.01411438	-0.440673828	0.328369141	-0.735351563	885.58	27.161021	-64.47867617	-65.65429804	-69
31565	0	0.356872559	0.075500488	0.152099609	0.999999046	-3.8147E-05	6.19888E-05	0.000198364	8.921813965	1.887512207	3.802490234	-0.001907349	0.003099442	0.009918213	-0.438232422	0.330566406	-0.732910156	885.62	27.11654804	-64.47614695	-65.61525699	-68
31566	0	0.358593941	0.078824997	0.153186798	0.999999046	-0.000185013	-5.34058E-05	0.000155449	8.964848518	1.970624924	3.829669952	-0.009250641	-0.002670288	0.007772446	-0.438232422	0.328369141	-0.729736328	885.62	27.07719198	-64.48306334	-65.59998641	-69
31567	0	0.359985352	0.077270508	0.150512695	0.999999046	-0.000171661	0.000218391	0.00025177	8.999633789	1.931762695	3.762817383	-0.008583069	0.010919571	0.012588501	-0.438232422	0.330566406	-0.735595703	885.52	26.98927143	-64.46734418	-65.52546339	-69
31568	0	0.35733223	0.076488495	0.152585983	0.999999046	-0.000216484	0.000274658	0.000193596	8.93330574	1.912212372	3.814649582	-0.010824204	0.013732911	0.009679795	-0.440673828	0.328369141	-0.735351563	885.48	26.90263004	-64.44278311	-65.45683471	-69
31569	0	0.358642578	0.079406738	0.154846191	0.999999046	-9.15527E-05	8.10623E-05	0.000343323	8.966064453	1.985168457	3.871154785	-0.004577637	0.004053116	0.017166138	-0.438232422	0.328369141	-0.729736328	885.58	26.81955823	-64.44558157	-65.380633	-69
31570	0	0.357208252	0.080048561	0.151011467	0.999999046	-0.000282288	0.000202179	0.000742912	8.930206299	2.001214027	3.775286674	-0.014114381	0.010108949	0.037145619	-0.438232422	0.328369141	-0.732666016	885.58	26.61647825	-64.45646071	-65.19104361	-69
31571	0	0.359191895	0.073913574	0.152648926	0.999999046	-0.00069046	0.000390053	0.000900269	8.979797363	1.847839355	3.816223145	-0.034523019	0.019502644	0.045013439	-0.436035156	0.330566406	-0.735839844	885.62	26.31246072	-64.45581913	-64.93743454	-69
31572	0	0.360598564	0.070358276	0.159679413	0.999999046	-0.000349998	0.00019455	0.000281334	9.014964104	1.758956909	3.991985321	-0.017499924	0.009727478	0.014066697	-0.436279297	0.334960938	-0.733154297	885.58	26.20049464	-64.44338971	-64.86342157	-69
31573	0	0.358642578	0.073181152	0.155578613	0.999999046	0.000389099	-0.000235558	-0.000270844	8.966064453	1.829528809	3.889465332	0.019454957	-0.011777878	-0.013542176	-0.433837891	0.332519531	-0.730224609	885.62	26.33728312	-64.44712293	-64.96976273	-69
31574	0	0.357024193	0.077031136	0.15071106	0.999999046	0.000249863	-0.000133514	-0.000153542	8.92560482	1.925778389	3.767776489	0.012493134	-0.00667572	-0.007677078	-0.438476563	0.332763672	-0.732910156	885.62	26.42246383	-64.44631434	-65.03828491	-69
31575	0	0.357666016	0.079467773	0.151428223	0.999999046	-0.000221252	0.0001688	0.000247955	8.941650391	1.986694336	3.785705566	-0.011062622	0.008440018	0.012397766	-0.43359375	0.330322266	-0.735839844	885.58	26.33584705	-64.43489717	-64.96398793	-69
31576	0	0.357955933	0.075192451	0.155426025	0.999999046	-0.000401497	0.00028801	0.000517845	8.948898315	1.879811287	3.885650635	-0.020074846	0.014400483	0.02589226	-0.43359375	0.332519531	-0.736083984	885.62	26.15797688	-64.42475472	-64.81393589	-69
31577	0	0.356872559	0.074707031	0.156677246	0.999999046	-0.000354767	0.000267982	0.000591278	8.921813965	1.867675781	3.916931152	-0.017738344	0.013399125	0.029563907	-0.436035156	0.332763672	-0.733154297	885.58	25.97174886	-64.42002813	-64.65396668	-69
31578	0	0.359195709	0.073134422	0.154356956	0.999999046	-0.000333786	8.7738E-05	0.000365257	8.979892731	1.828360558	3.858923912	-0.016689301	0.004386902	0.018262864	-0.433837891	0.334716797	-0.733398438	885.58	25.85537451	-64.42241831	-64.56871863	-69
31579	0	0.359130859	0.072814941	0.156188965	0.999999046	-4.19617E-05	-0.000136375	0.000106812	8.978271484	1.820373535	3.904724121	-0.002098084	-0.006818771	0.005340576	-0.431396484	0.336914063	-0.739501953	885.74	25.85132202	-64.43493505	-64.56461068	-69
31580	0	0.35973835	0.072968483	0.15627861	0.999999046	5.24521E-05	-0.000101089	-8.86917E-05	8.993458748	1.824212074	3.906965256	0.002622604	-0.005054474	-0.004434586	-0.433837891	0.334960938	-0.73046875	885.58	25.89636084	-64.43400592	-64.61311919	-69
31581	0	0.358642578	0.074157715	0.155395508	0.999999046	0.000328064	-0.00020504	-0.000209808	8.966064453	1.853942871	3.884887695	0.016403199	-0.010251999	-0.010490418	-0.433837891	0.334960938	-0.73046875	885.56	26.00995085	-64.43764681	-64.70337334	-69
31582	0	0.357270241	0.07526207	0.153550148	0.999999046	0.000415802	-0.000400543	-0.000247955	8.93175602	1.881551743	3.8387537	0.020790101	-0.020027162	-0.012397767	-0.436035156	0.332763672	-0.730224609	885.64	26.16263026	-64.45938401	-64.82502388	-69
31583	0	0.356994629	0.074890137	0.153076172	0.999999046	0.00018692	-0.000369072	-0.000144958	8.924865723	1.872253418	3.826904297	0.009346009	-0.018453599	-0.007247925	-0.436035156	0.332763672	-0.736083984	885.58	26.26387262	-64.48298471	-64.91149132	-69
31584	0	0.359162331	0.075967789	0.155344963	0.999999046	0.000359535	-0.000282288	8.29697E-05	8.979058266	1.899194717	3.883624077	0.017976762	-0.01411438	0.004148483	-0.436035156	0.332763672	-0.730224609	885.7	26.32677225	-64.50910467	-64.94124546	-69
31585	0	0.359863281	0.075744629	0.152893066	0.999999046	0.000293732	-0.000315666	3.8147E-05	8.996582031	1.893615723	3.82232666	0.014686585	-0.01578331	0.001907349	-0.436035156	0.332763672	-0.730224609	885.64	26.39556662	-64.53639283	-64.98603737	-69
31586	0	0.355814934	0.07653904	0.152133942	0.999999046	7.24792E-05	-0.000297546	0.00019455	8.895373344	1.91347599	3.803348541	0.003623962	-0.01487732	0.009727478	-0.438476563	0.332763672	-0.729980469	885.58	26.40363557	-64.56972877	-64.99338491	-69
31587	0	0.357727051	0.07409668	0.153015137	0.999999046	7.24792E-05	-0.000437737	9.91821E-05	8.94317627	1.852416992	3.825378418	0.003623963	-0.021886826	0.004959107	-0.438476563	0.332763672	-0.729980469	885.62	26.44729591	-64.61258323	-65.03926032	-69
31588	0	0.361968994	0.072704315	0.158119202	0.999999046	0.000369072	-0.000608444	-0.000248909	9.049224854	1.81760788	3.952980042	0.0184536	-0.030422214	-0.012445451	-0.438476563	0.330566406	-0.729980469	885.62	26.61836233	-64.65498083	-65.18503201	-69
31589	0	0.360473633	0.075561523	0.15222168	0.999999046	0.000831604	-0.000693321	-0.000366211	9.01184082	1.889038086	3.805541992	0.041580209	-0.034666069	-0.018310551	-0.438232422	0.328369141	-0.729736328	885.58	26.87768604	-64.69981306	-65.3676937	-69
31590	0	0.357325554	0.078510284	0.147810936	0.999999046	0.000669479	-0.000612259	-0.000366211	8.933138847	1.962757111	3.695273399	0.033473974	-0.03061295	-0.01831055	-0.438476563	0.330566406	-0.729980469	885.64	27.11071125	-64.73609561	-65.54627281	-69
31591	0	0.35723877	0.077148438	0.148010254	0.999999046	0.000385284	-0.00033474	-0.000141144	8.930969238	1.928710938	3.700256348	0.019264222	-0.016736985	-0.00705719	-0.440429688	0.328369141	-0.73828125	885.62	27.23243955	-64.75570315	-65.62636077	-69
31592	0	0.359331131	0.077792168	0.150272369	0.999999046	0.000208855	-0.000322342	-0.000183105	8.983278275	1.944804192	3.756809235	0.010442734	-0.016117096	-0.009155274	-0.442871094	0.328613281	-0.735351563	885.68	27.34192538	-64.77176731	-65.72162171	-69
31593	0	0.359558105	0.079956055	0.148864746	0.999999046	0.00012207	-0.000304222	5.72205E-05	8.988952637	1.998901367	3.721618652	0.006103516	-0.015211106	0.002861023	-0.4453125	0.326416016	-0.729248047	885.62	27.38803773	-64.79860072	-65.7634162	-69
31594	0	0.358558655	0.07695961	0.148626328	0.999999046	9.53674E-05	-0.000133514	0.000300407	8.96396637	1.92399025	3.715658188	0.004768372	-0.00667572	0.015020371	-0.442871094	0.326416016	-0.729248047	885.58	27.35948245	-64.82092599	-65.72369328	-69
31595	0	0.359436035	0.075317383	0.152526855	0.999999046	-5.72205E-05	-0.00020504	0.000190735	8.985900879	1.88293457	3.813171387	-0.002861023	-0.010251999	0.009536743	-0.443115234	0.328613281	-0.729492188	885.64	27.34485309	-64.844687	-65.72146132	-69
31596	0	0.360809326	0.075406075	0.152813911	0.999999046	0.000285149	-0.000291824	-0.000100136	9.020233154	1.885151863	3.820347786	0.014257431	-0.014591217	-0.00500679	-0.443115234	0.328613281	-0.729492188	885.62	27.44198174	-64.86189109	-65.79971795	-69
31597	0	0.35949707	0.076721191	0.151245117	0.999999046	0.000671387	-0.000601768	-0.000259399	8.987426758	1.918029785	3.78112793	0.033569341	-0.030088429	-0.012969973	-0.442871094	0.326416016	-0.732177734	885.68	27.65301488	-64.90201249	-65.94881077	-69
31598	0	0.357499123	0.078876495	0.148633003	0.999999046	0.000558853	-0.000574112	-0.000312805	8.937478065	1.971912384	3.715825081	0.027942661	-0.0287056	-0.015640261	-0.447509766	0.32421875	-0.734619141	885.64	27.86031843	-64.93620173	-66.10623048	-69
