Counter	Temperature	VelInc_X	VelInc_Y	VelInc_Z	OriInc_w	OriInc_x	OriInc_y	OriInc_z	Acc_X	Acc_Y	Acc_Z	Gyr_X	Gyr_Y	Gyr_Z	Mag_X	Mag_Y	Mag_Z	Pressure	Roll	Pitch	Yaw	RSSI
13191	0	0.3671875	-0.10546875	0.023376465	0.999077797	0.041503906	-0.009676933	0.005187988	9.1796875	-2.63671875	0.584411621	2.075833318	-0.48399542	0.259479165	-0.874511719	-0.020263672	0.462890625	892.08	-51.70824513	-72.39371102	-146.1028493	-56
13192	0	0.377768517	-0.067400932	0.049074173	0.999361992	0.034363747	-0.007982254	0.005534172	9.444212914	-1.685023308	1.226854324	1.718552717	-0.399197576	0.276767447	-0.866943359	0.026611328	0.473144531	892.08	-51.28181799	-72.47074506	-142.4915876	-56
13193	0	0.392883301	-0.049072266	0.102966309	0.999674797	0.024707794	-0.00480175	0.00409317	9.82208252	-1.226806641	2.574157715	1.235523641	-0.240113538	0.204680696	-0.859375	0.064697266	0.484130859	892.02	-50.73156699	-72.45688307	-140.1520756	-56
13194	0	0.394571304	-0.023785591	0.126127243	0.999653816	0.026042938	-0.002782822	0.00222683	9.864282608	-0.594639778	3.153181076	1.302296909	-0.139157111	0.111354302	-0.853515625	0.095703125	0.484130859	892.1	-49.01790444	-72.4727893	-138.8648233	-55
13195	0	0.39050293	-0.036682129	0.095581055	0.999975204	0.006993294	-0.000762939	0.000244141	9.762573242	-0.917053223	2.389526367	0.349667576	-0.038147288	0.012207132	-0.852050781	0.118164063	0.482177734	892.08	-48.45348413	-72.51637423	-138.6309025	-57
13196	0	0.388091087	-0.055623055	0.077706337	0.999999046	-0.001069069	0.000307083	-0.000638962	9.702277184	-1.390576363	1.942658424	-0.05345346	0.015354161	-0.031948098	-0.852050781	0.122558594	0.481933594	891.98	-48.30420133	-72.55602843	-138.9166714	-56
13197	0	0.377441406	-0.083374023	0.062927246	0.999986649	-0.004649162	0.000812531	-0.001842499	9.436035156	-2.084350586	1.573181152	-0.232459109	0.0406267	-0.092125333	-0.849609375	0.117919922	0.482177734	891.94	-48.13394449	-72.66033786	-139.646635	-56
13198	0	0.370389938	-0.101638794	0.06276226	0.999978065	-0.006038666	0.000764847	-0.002283096	9.259748459	-2.540969849	1.569056511	-0.301935415	0.038242609	-0.11415562	-0.8515625	0.109130859	0.485839844	892.04	-48.02493076	-72.80515645	-140.4761661	-56
13199	0	0.37109375	-0.103088379	0.074768066	0.999977112	-0.006480217	0.000537872	-0.001529694	9.27734375	-2.577209473	1.86920166	-0.324013259	0.026893816	-0.076485249	-0.856201172	0.102539063	0.486572266	891.98	-48.2126708	-72.90259169	-141.0444478	-55
13200	0	0.37401104	-0.105480194	0.083872795	0.999990463	-0.004198074	0.000695229	0.000101089	9.350275993	-2.637004852	2.096819878	-0.209904351	0.034761534	0.005054489	-0.853271484	0.091308594	0.487548828	891.94	-48.50006404	-72.84812066	-141.2469509	-55
13201	0	0.37512207	-0.092956543	0.086547852	0.999998093	2.00272E-05	0.000801086	0.001270294	9.378051758	-2.323913574	2.163696289	0.001001358	0.040054336	0.063514733	-0.85546875	0.089111328	0.481933594	891.94	-48.56104476	-72.68485283	-141.1906586	-55
13202	0	0.37892437	-0.085677147	0.082397461	0.999998093	0.00083065	0.000800133	0.001365662	9.473109245	-2.141928673	2.059936523	0.041532539	0.040006659	0.068283117	-0.855712891	0.091308594	0.481689453	892.04	-48.5507772	-72.51342691	-141.1122384	-55
13203	0	0.376953125	-0.083129883	0.074951172	0.999999046	0.001037598	0.000729561	0.000228882	9.423828125	-2.07824707	1.873779297	0.051879897	0.036478053	0.011444095	-0.855712891	0.093505859	0.475830078	892.04	-48.2626816	-72.44519024	-141.299426	-55
13204	0	0.369548798	-0.086146355	0.069869995	0.999999046	0.000756264	0.000593185	-0.000763893	9.23871994	-2.153658867	1.746749878	0.037813196	0.029659279	-0.038194666	-0.858154297	0.095947266	0.478515625	892.04	-47.80544392	-72.47192651	-141.6908965	-55
13205	0	0.36895752	-0.091430664	0.066467285	0.999999046	0.000495911	0.000290871	-0.001167297	9.223937988	-2.285766602	1.661682129	0.024795539	0.014543537	-0.058364885	-0.855712891	0.093505859	0.478515625	892.02	-47.36038661	-72.55541221	-142.1010093	-55
13206	0	0.372797966	-0.091414452	0.062379837	0.999997139	0.00189209	-0.000320435	-0.001102448	9.31994915	-2.28536129	1.559495926	0.094604569	-0.016021742	-0.05512242	-0.857910156	0.089111328	0.476318359	891.94	-46.93368817	-72.68050003	-142.33378	-55
13207	0	0.372924805	-0.092468262	0.075683594	0.999999046	0.000221252	-0.00014782	-0.000293732	9.323120117	-2.311706543	1.892089844	0.011062622	-0.007390976	-0.014686585	-0.85546875	0.091308594	0.475830078	892.04	-46.85376981	-72.72394011	-142.3979184	-55
13208	0	0.376911163	-0.09312439	0.087819099	0.999998093	-0.00157547	-0.000538826	-0.000198364	9.422779083	-2.328109741	2.195477486	-0.078773535	-0.026941312	-0.009918218	-0.857910156	0.089111328	0.481933594	892.02	-47.10909698	-72.7894415	-142.3261798	-54
13209	0	0.375671387	-0.097351074	0.099914551	0.999995232	-0.002819061	0.000180244	-0.000148773	9.391784668	-2.433776855	2.49786377	-0.140953252	0.009012234	-0.00743867	-0.857910156	0.089111328	0.479248047	891.94	-47.32380669	-72.7935983	-142.4408556	-55
13210	0	0.374570847	-0.101338387	0.088003159	0.999999046	0.001272202	0.000387192	0.000245094	9.364271164	-2.533459663	2.200078964	0.063610096	0.019359595	0.012254719	-0.857666016	0.084716797	0.4765625	892.1	-47.11314203	-72.74766554	-142.521756	-55
13211	0	0.377502441	-0.092895508	0.079162598	0.999991417	0.004013062	0.000321388	0.000652313	9.437561035	-2.322387695	1.979064941	0.200653632	0.016069457	0.032615752	-0.85546875	0.089111328	0.479003906	892.02	-46.71027938	-72.67249763	-142.4734934	-55
13212	0	0.372638702	-0.086707115	0.079303741	0.999994278	0.003080368	0.000323296	0.001242638	9.31596756	-2.167677879	1.982593536	0.154018688	0.01616481	0.062131997	-0.857910156	0.093505859	0.472900391	891.98	-46.56303138	-72.54805512	-142.2726414	-55
13213	0	0.372497559	-0.08190918	0.080505371	0.999992371	0.003476143	-3.8147E-06	0.001247406	9.312438965	-2.047729492	2.012634277	0.173807539	-0.000190735	0.062370442	-0.858154297	0.098144531	0.47265625	892.02	-46.45682358	-72.44929973	-141.9820238	-55
13214	0	0.375971794	-0.07538414	0.081878662	0.999992371	0.003590584	-3.91006E-05	0.001052856	9.399294853	-1.8846035	2.046966553	0.179529609	-0.001955037	0.052642945	-0.855957031	0.104736328	0.474853516	891.98	-46.29597867	-72.37009705	-141.7298347	-55
13215	0	0.376159668	-0.07208252	0.082946777	0.999998093	0.001275063	0.00031662	0.000812531	9.403991699	-1.802062988	2.073669434	0.063753153	0.015831	0.040626542	-0.858642578	0.107177734	0.474853516	891.98	-46.24569624	-72.28327771	-141.6403273	-55
13216	0	0.378913879	-0.075908661	0.082036018	0.999998093	-0.001281738	0.000618935	0.000642776	9.472846985	-1.897716522	2.050900459	-0.06408694	0.030946744	0.032138838	-0.858642578	0.109375	0.474609375	892.02	-46.3664344	-72.18704991	-141.6734254	-55
13217	0	0.375183105	-0.082458496	0.080383301	0.999997139	-0.001972198	0.000561714	0.00031662	9.379577637	-2.061462402	2.00958252	-0.098609995	0.028085729	0.015831005	-0.858642578	0.109375	0.46875	891.94	-46.50029013	-72.1227105	-141.7743111	-55
13218	0	0.37228775	-0.08723259	0.082838058	0.999998093	-0.001620293	0.0002985	5.24521E-05	9.307193756	-2.180814743	2.070951462	-0.08101467	0.01492501	0.002622606	-0.858398438	0.106933594	0.471923828	891.94	-46.59698376	-72.10114112	-141.8721959	-55
13219	0	0.373535156	-0.09185791	0.083984375	0.999998093	-0.001452446	0.000244141	9.15527E-05	9.338378906	-2.296447754	2.099609375	-0.072622326	0.012207036	0.004577638	-0.858398438	0.104736328	0.468994141	891.94	-46.69831276	-72.08045742	-141.947322	-55
13220	0	0.37451458	-0.093146324	0.083408356	0.999999046	-0.00067997	0.000230789	0.000202179	9.362864494	-2.328658104	2.085208893	-0.033998493	0.01153946	0.010108949	-0.858154297	0.102539063	0.469238281	891.92	-46.74194174	-72.05143862	-141.9929964	-55
13221	0	0.374084473	-0.090759277	0.082641602	0.999999046	-0.000152588	0.000222206	0.000484467	9.352111816	-2.268981934	2.066040039	-0.007629395	0.011110306	0.024223329	-0.860839844	0.104980469	0.475097656	892.08	-46.79595068	-71.99946891	-141.9593759	-55
13222	0	0.375060081	-0.088829041	0.083939552	0.999999046	5.14984E-05	0.000230789	0.000598907	9.376502037	-2.220726013	2.098488808	0.002574921	0.01153946	0.029945376	-0.860595703	0.104736328	0.466308594	892.04	-46.85156908	-71.93724677	-141.9041315	-55
13223	0	0.373474121	-0.086914063	0.085327148	0.999999046	9.53674E-05	0.000115395	0.000419617	9.336853027	-2.172851563	2.133178711	0.004768372	0.00576973	0.020980836	-0.860839844	0.104980469	0.469238281	891.94	-46.88787503	-71.8990558	-141.8635035	-55
13224	0	0.376797676	-0.089594841	0.084392548	0.999999046	9.63211E-05	0.000192642	0.000128746	9.419941902	-2.239871025	2.10981369	0.004816055	0.009632111	0.006437302	-0.860839844	0.107177734	0.468994141	892.02	-46.83449328	-71.87915012	-141.9128845	-55
13225	0	0.373352051	-0.09197998	0.083374023	0.999999046	0.000675201	0.000107765	1.90735E-05	9.33380127	-2.299499512	2.084350586	0.033760073	0.00538826	0.000953674	-0.860839844	0.104980469	0.469238281	892.1	-46.71057858	-71.87495575	-141.97158	-55
13226	0	0.372841835	-0.091208458	0.085163116	0.999998093	0.001753807	0.000103951	0.0001297	9.321045876	-2.280211449	2.129077911	0.087690399	0.005197528	0.006484989	-0.860839844	0.109375	0.46875	891.96	-46.49075113	-71.86168067	-141.9957269	-55
13227	0	0.374267578	-0.08996582	0.084594727	0.999999046	0.001094818	1.23978E-05	0.000137329	9.356689453	-2.249145508	2.114868164	0.054740917	0.000619888	0.006866456	-0.860839844	0.107177734	0.471923828	892.04	-46.37166772	-71.8549525	-141.9985319	-55
13228	0	0.375214577	-0.099664688	0.077923775	0.999999046	0.000653267	7.62939E-05	0.000113487	9.380364418	-2.491617203	1.948094368	0.032663348	0.003814698	0.005674363	-0.86328125	0.111572266	0.465820313	892.02	-46.28327966	-71.84501941	-142.0177837	-56
13229	0	0.37701416	-0.073608398	0.083740234	0.999997139	0.001895905	0.000775337	0.000213623	9.425354004	-1.840209961	2.093505859	0.094795294	0.038766888	0.01068116	-0.861083984	0.111572266	0.471679688	892.04	-45.89960192	-71.77186299	-142.198133	-56
13230	0	0.372629166	-0.066210747	0.094150543	0.999991417	-0.003818512	0.001468658	0.000138283	9.315729141	-1.655268669	2.35376358	-0.190926131	0.073433127	0.006914158	-0.86328125	0.111572266	0.465820313	892.04	-45.97788309	-71.64997565	-142.5761045	-56
13231	0	0.371337891	-0.090759277	0.085876465	0.99998188	-0.005809784	0.000958443	0.000141144	9.283447266	-2.268981934	2.146911621	-0.290490876	0.047922411	0.007057231	-0.86328125	0.109375	0.460205078	891.98	-46.41270558	-71.56876036	-142.8144476	-56
13232	0	0.371582031	-0.08298111	0.083065987	0.999988556	-0.004774094	8.10623E-05	5.62668E-05	9.289550781	-2.07452774	2.076649666	-0.238705589	0.004053131	0.00281335	-0.862792969	0.102539063	0.460693359	891.94	-46.92637743	-71.56455749	-142.8491336	-56
13233	0	0.373718262	-0.088623047	0.084899902	0.999987602	-0.004890442	-0.000342369	-0.000320435	9.342956543	-2.215576172	2.122497559	-0.244523078	-0.017118523	-0.016021793	-0.865234375	0.095947266	0.467285156	892.08	-47.47185206	-71.62517672	-142.8660603	-55
13234	0	0.37334919	-0.096956253	0.083270073	0.999996185	-0.002394676	-0.000525475	-0.000242233	9.333729744	-2.423906326	2.081751823	-0.119733932	-0.026273754	-0.012111676	-0.862792969	0.09375	0.470214844	891.98	-47.79835087	-71.69315715	-142.8098125	-55
13235	0	0.375549316	-0.107177734	0.080566406	0.999998093	0.001561165	-0.000652313	0.000465393	9.38873291	-2.679443359	2.014160156	0.078058283	-0.032615678	0.023269665	-0.862548828	0.091552734	0.470458984	892.02	-47.8715867	-71.71027477	-142.5517151	-55
13236	0	0.374165535	-0.104863167	0.090720177	0.999988556	0.004524231	-0.000527382	0.001149178	9.354138374	-2.62157917	2.268004417	0.22621238	-0.026369192	0.057459089	-0.862548828	0.09375	0.467285156	892.04	-47.73243289	-71.6590546	-142.168394	-55
13237	0	0.373779297	-0.093444824	0.086669922	0.999977112	0.006581306	-0.000598907	0.000831604	9.344482422	-2.336120605	2.166748047	0.329067756	-0.029945595	0.041580508	-0.860595703	0.100341797	0.466552734	891.94	-47.30141732	-71.64067348	-141.8450367	-55
13238	0	0.374707222	-0.087143898	0.081266403	0.999979973	0.006162643	-0.00071907	8.10623E-05	9.36768055	-2.17859745	2.03166008	0.308134149	-0.035953752	0.004053142	-0.86328125	0.107177734	0.469238281	891.98	-46.7725258	-71.69577396	-141.6733363	-55
13239	0	0.372802734	-0.082458496	0.081970215	0.999990463	0.004231453	-0.000823975	-0.000480652	9.320068359	-2.061462402	2.049255371	0.211573311	-0.04119886	-0.024032668	-0.861083984	0.111572266	0.46875	891.98	-46.35609255	-71.80670834	-141.6129159	-56
13240	0	0.374243736	-0.085048676	0.084274292	0.999997139	0.001862526	-0.000711441	-0.000357628	9.356093407	-2.126216888	2.1068573	0.093126361	-0.035572076	-0.017881406	-0.858886719	0.113769531	0.471191406	891.94	-46.21075877	-71.89880988	-141.5491518	-55
13241	0	0.375	-0.086303711	0.086364746	0.999999046	0.000354767	-0.000308037	-0.000102997	9.375	-2.157592773	2.159118652	0.017738343	-0.015401841	-0.005149842	-0.858886719	0.115966797	0.471191406	892.04	-46.19729514	-71.93791316	-141.5241991	-55
13242	0	0.375192642	-0.091293335	0.084671021	0.999999046	-0.000305176	-0.000137329	0.000213623	9.379816055	-2.282333374	2.116775513	-0.015258789	-0.006866455	0.010681153	-0.858886719	0.115966797	0.468261719	891.98	-46.29354113	-71.93717432	-141.4641614	-55
13243	0	0.37512207	-0.090576172	0.082824707	0.999999046	0.000270844	-0.000163078	0.000564575	9.378051758	-2.264404297	2.070617676	0.013542176	-0.008153916	0.028228762	-0.856445313	0.115966797	0.468017578	891.98	-46.41576055	-71.90932107	-141.3086299	-55
13244	0	0.371386528	-0.088875771	0.083482742	0.999999046	0.000636101	-0.00028801	0.000624657	9.2846632	-2.221894264	2.087068558	0.031805043	-0.014400484	0.031232838	-0.856445313	0.118164063	0.467773438	891.98	-46.54210147	-71.88620296	-141.1035747	-55
13245	0	0.37310791	-0.086975098	0.083312988	0.999999046	0.000461578	-0.000311852	0.000576019	9.327697754	-2.174377441	2.082824707	0.023078921	-0.015592577	0.028800967	-0.856689453	0.118164063	0.470703125	892.02	-46.68230051	-71.86894618	-140.9068352	-56
13246	0	0.374521255	-0.089222908	0.082122803	0.999999046	-0.000396729	-0.00025177	0.000499725	9.363031387	-2.230572701	2.053070068	-0.019836427	-0.012588502	0.024986269	-0.854248047	0.118164063	0.470703125	892.04	-46.887157	-71.85322947	-140.7453433	-55
13247	0	0.374206543	-0.086242676	0.079772949	0.999999046	-0.000297546	2.76566E-05	0.000286102	9.355163574	-2.156066895	1.99432373	-0.01487732	0.001382828	0.014305115	-0.859130859	0.120605469	0.473632813	891.92	-46.95817731	-71.83365128	-140.7091137	-56
13248	0	0.375310898	-0.088705063	0.083035469	0.999999046	-0.001044273	4.19617E-05	0.000338554	9.382772446	-2.217626572	2.075886726	-0.052213679	0.002098084	0.016927723	-0.856689453	0.118164063	0.470703125	892.02	-47.12338528	-71.80860915	-140.6672712	-55
13249	0	0.375	-0.091552734	0.083984375	0.999999046	-0.001243591	-6.67572E-06	0.000305176	9.375	-2.288818359	2.099609375	-0.062179582	-0.000333786	0.015258793	-0.858886719	0.118164063	0.470947266	892.04	-47.31579116	-71.79006147	-140.6200666	-55
13250	0	0.373416901	-0.095281601	0.082277298	0.999999046	-0.000352859	-7.82013E-05	0.000464439	9.335422516	-2.382040024	2.056932449	-0.017642976	-0.003910065	0.023221971	-0.856689453	0.118164063	0.470703125	892.04	-47.46240075	-71.76343705	-140.5134543	-55
13251	0	0.376037598	-0.091552734	0.08215332	0.999999046	0.000434875	-9.82285E-05	0.000606537	9.400939941	-2.288818359	2.053833008	0.021743776	-0.004911423	0.030326846	-0.856689453	0.118164063	0.473632813	892.1	-47.55704652	-71.72632594	-140.3681363	-55
13252	0	0.374785423	-0.090104103	0.083560944	0.999999046	0.000685692	-0.000127792	0.000220299	9.369635582	-2.252602577	2.08902359	0.034284595	-0.006389618	0.011014939	-0.856689453	0.122558594	0.470458984	892.04	-47.53964457	-71.72416562	-140.3045412	-56
13253	0	0.37487793	-0.085632324	0.081542969	0.999999046	0.000259399	-4.1008E-05	4.19617E-05	9.371948242	-2.140808105	2.038574219	0.012969971	-0.0020504	0.002098084	-0.854248047	0.120361328	0.473388672	892.02	-47.50668412	-71.73063482	-140.3114396	-56
13254	0	0.375670433	-0.089589119	0.082350731	0.999999046	-0.000572205	0.000137329	-3.52859E-05	9.391760826	-2.239727974	2.058768272	-0.028610231	0.006866455	-0.001764298	-0.856689453	0.122558594	0.470458984	892.02	-47.5052011	-71.72992673	-140.3814755	-56
13255	0	0.375366211	-0.092163086	0.082763672	0.999999046	-0.000614166	0.000210762	2.28882E-05	9.384155273	-2.304077148	2.069091797	-0.030708315	0.010538102	0.001144409	-0.856689453	0.118164063	0.470703125	892	-47.50357963	-71.71860797	-140.4636684	-55
13256	0	0.374410629	-0.093748093	0.083170891	0.999999046	0.000349998	0.000127792	0.000209808	9.360265732	-2.343702316	2.07927227	0.017499924	0.006389618	0.010490418	-0.856689453	0.118164063	0.473632813	892.04	-47.45685087	-71.69782597	-140.4769335	-55
13257	0	0.374938965	-0.091125488	0.082397461	0.999999046	0.000782013	0.000115395	2.67029E-05	9.373474121	-2.278137207	2.059936523	0.039100651	0.00576973	0.001335144	-0.856689453	0.120361328	0.470703125	891.94	-47.32105876	-71.69348735	-140.5293787	-55
13258	0	0.373633385	-0.089491844	0.082012177	0.999999046	0.000869751	8.2016E-05	-0.000141144	9.340834618	-2.237296104	2.050304413	0.043487555	0.0041008	-0.007057191	-0.856689453	0.120361328	0.473632813	891.94	-47.14426531	-71.7059151	-140.6141458	-55
13259	0	0.373718262	-0.090209961	0.083129883	0.999999046	0.000583649	-0.000166893	2.67029E-05	9.342956543	-2.255249023	2.07824707	0.029182436	-0.008344651	0.001335144	-0.856689453	0.120361328	0.467773438	892.02	-47.10301184	-71.72363187	-140.5932129	-55
13260	0	0.374533653	-0.090377808	0.082681656	0.999999046	0.000433922	-4.00543E-05	-0.000107765	9.363341331	-2.25944519	2.067041397	0.021696091	-0.002002716	-0.00538826	-0.859130859	0.118164063	0.473876953	892.1	-47.01496053	-71.74277734	-140.643125	-56
13261	0	0.37487793	-0.091064453	0.082458496	0.999999046	0.000370026	-0.000109673	1.90735E-05	9.371948242	-2.276611328	2.061462402	0.018501282	-0.005483627	0.000953674	-0.854248047	0.120361328	0.470458984	892.08	-46.9821308	-71.75674245	-140.6376349	-55
13262	0	0.374098778	-0.089675903	0.08244133	0.999999046	0.000562668	-9.34601E-05	2.95639E-05	9.352469444	-2.241897583	2.061033249	0.028133394	-0.004673004	0.001478195	-0.856689453	0.120361328	0.467773438	891.88	-46.92566982	-71.76861712	-140.6362742	-56
13263	0	0.373718262	-0.0859375	0.081970215	0.999999046	0.000606537	9.53674E-07	-0.000205994	9.342956543	-2.1484375	2.049255371	0.030326845	4.76837E-05	-0.010299683	-0.859130859	0.120605469	0.4765625	891.98	-46.78382333	-71.79297968	-140.7174443	-55
13264	0	0.374181747	-0.089650154	0.083421707	0.999999046	3.91006E-05	-0.000135422	-0.000148773	9.354543686	-2.241253853	2.085542679	0.001955032	-0.006771088	-0.00743866	-0.856689453	0.120361328	0.476318359	891.98	-46.7551374	-71.82323711	-140.7467289	-55
13265	0	0.375793457	-0.088806152	0.082763672	0.999999046	7.62939E-05	2.38419E-05	-6.10352E-05	9.394836426	-2.220153809	2.069091797	0.003814697	0.001192093	-0.003051758	-0.859130859	0.120605469	0.473632813	891.94	-46.70264878	-71.83372998	-140.7973153	-55
13266	0	0.376044273	-0.090701103	0.08291626	0.999999046	0.000379562	-7.62939E-06	-7.62939E-06	9.401106834	-2.26752758	2.072906494	0.018978119	-0.00038147	-0.00038147	-0.856689453	0.122558594	0.470458984	892.02	-46.63640349	-71.84222871	-140.8221638	-55
13267	0	0.372558594	-0.088439941	0.083007813	0.999999046	0.000801086	-0.000193596	8.7738E-05	9.313964844	-2.210998535	2.075195313	0.040054326	-0.009679795	0.004386902	-0.854492188	0.122558594	0.473144531	892.04	-46.59196686	-71.85743166	-140.7731415	-55
13268	0	0.373063087	-0.087275505	0.082208633	0.999999046	0.000502586	-0.000173569	7.62939E-06	9.326577187	-2.181887627	2.055215836	0.025129319	-0.008678437	0.00038147	-0.856933594	0.125	0.470214844	891.94	-46.55738346	-71.87781992	-140.7474958	-55
13269	0	0.375366211	-0.089111328	0.083496094	0.999999046	0.000102997	-0.000121117	4.19617E-05	9.384155273	-2.227783203	2.087402344	0.005149841	-0.006055832	0.002098084	-0.856689453	0.122558594	0.470458984	892.04	-46.56357956	-71.8912269	-140.7318173	-55
13270	0	0.374707222	-0.089553833	0.082690239	0.999999046	0.000125885	-9.91821E-05	0.000185966	9.36768055	-2.238845825	2.067255974	0.006294251	-0.004959106	0.009298325	-0.856689453	0.120361328	0.473632813	892.04	-46.59647119	-71.89092148	-140.6892525	-55
13271	0	0.375	-0.088439941	0.081054688	0.999999046	0.00012207	-7.15256E-05	1.14441E-05	9.375	-2.210998535	2.026367188	0.006103516	-0.003576279	0.000572205	-0.856933594	0.122802734	0.473388672	892.08	-46.58097907	-71.90306423	-140.6933436	-55
13272	0	0.373788834	-0.089099884	0.083340645	0.999999046	8.10623E-05	0	0.000197411	9.34472084	-2.227497101	2.083516121	0.004053116	0	0.009870529	-0.856689453	0.122558594	0.470458984	891.98	-46.59682446	-71.89406955	-140.6710074	-56
13273	0	0.374328613	-0.089538574	0.082092285	0.999999046	0.000328064	-9.05991E-05	9.15527E-05	9.358215332	-2.238464355	2.052307129	0.016403199	-0.004529953	0.004577637	-0.856689453	0.122558594	0.467529297	891.94	-46.58217602	-71.90103548	-140.6523315	-55
13274	0	0.375182152	-0.087112427	0.082568169	0.999999046	0.000276566	-1.33514E-05	1.81198E-05	9.379553795	-2.177810669	2.064204216	0.013828278	-0.000667572	0.000905991	-0.856689453	0.122558594	0.470458984	891.98	-46.53596167	-71.9081213	-140.6723988	-55
13275	0	0.375305176	-0.089904785	0.084716797	0.999999046	-4.57764E-05	0.000142097	4.57764E-05	9.382629395	-2.247619629	2.117919922	-0.002288818	0.007104874	0.002288818	-0.856689453	0.122558594	0.467529297	891.98	-46.49377888	-71.90056673	-140.7273908	-55
13276	0	0.375699997	-0.090069771	0.083105087	0.999999046	0.000302315	0.000143051	-9.53674E-05	9.392499924	-2.25174427	2.077627182	0.015115738	0.007152558	-0.004768372	-0.854248047	0.122558594	0.470214844	891.98	-46.37760709	-71.9046139	-140.8162369	-55
13277	0	0.374755859	-0.090698242	0.084777832	0.999999046	0.000774384	0.000199318	-0.000217438	9.368896484	-2.267456055	2.119445801	0.038719182	0.009965898	-0.010871888	-0.854248047	0.120361328	0.473388672	891.98	-46.16353318	-71.91411846	-140.9546747	-55
13278	0	0.371832848	-0.090653419	0.082746506	0.999999046	0.00103569	0.00018692	-0.000175476	9.29582119	-2.266335487	2.068662643	0.051784525	0.00934601	-0.008773805	-0.856933594	0.122802734	0.473388672	892.02	-45.93312724	-71.92089301	-141.0757712	-55
13279	0	0.372497559	-0.087036133	0.082092285	0.999999046	0.001075745	-1.81198E-05	8.39233E-05	9.312438965	-2.17590332	2.052307129	0.053787242	-0.000905991	0.004196168	-0.856689453	0.122558594	0.467529297	892.1	-45.81327609	-71.92264154	-141.0794482	-55
13280	0	0.375843048	-0.081920624	0.081154823	0.999999046	6.96182E-05	-4.19617E-05	0.000358582	9.396076202	-2.048015594	2.028870583	0.003480911	-0.002098084	0.017929078	-0.854492188	0.124755859	0.470214844	892.04	-45.8815778	-71.90403747	-141.001533	-55
13281	0	0.374572754	-0.084960938	0.084228516	0.999999046	-0.000766754	-7.15256E-05	0.000244141	9.364318848	-2.124023438	2.105712891	-0.038337712	-0.003576279	0.012207033	-0.856689453	0.122558594	0.470458984	892.02	-46.02481214	-71.89726889	-140.9498289	-55
13282	0	0.371916771	-0.087406158	0.082758904	0.999999046	-0.000753403	-0.000226974	0.000361443	9.297919273	-2.185153961	2.068972588	-0.03767014	-0.011348726	0.018072131	-0.854492188	0.122558594	0.473144531	891.98	-46.23430622	-71.89312423	-140.8248573	-55
13283	0	0.37487793	-0.089599609	0.083374023	0.999999046	-0.000579834	-0.000166893	0.000431061	9.371948242	-2.239990234	2.084350586	-0.028991702	-0.008344651	0.021553042	-0.856689453	0.120361328	0.473632813	891.98	-46.42561696	-71.87829003	-140.7032744	-55
13284	0	0.376355171	-0.08965683	0.085035324	0.999999046	-0.000397682	-0.000202179	0.000224113	9.40887928	-2.241420746	2.125883102	-0.01988411	-0.010108948	0.011205674	-0.856689453	0.120361328	0.467773438	891.94	-46.55489839	-71.88327154	-140.6262343	-55
13285	0	0.375244141	-0.089904785	0.085144043	0.999999046	-0.000190735	-1.43051E-05	0.000370026	9.381103516	-2.247619629	2.128601074	-0.009536743	-0.000715256	0.018501282	-0.856933594	0.125	0.476074219	892.04	-46.64767427	-71.86117475	-140.5519104	-55
13286	0	0.375789642	-0.090154648	0.08387661	0.999999046	0	6.67572E-05	0.000385284	9.394741058	-2.253866196	2.096915245	0	0.00333786	0.019264222	-0.856933594	0.125	0.470214844	892.08	-46.70151668	-71.8313687	-140.4980388	-56
13287	0	0.373901367	-0.089233398	0.083129883	0.999999046	0.000198364	3.52859E-05	0.000350952	9.34753418	-2.230834961	2.07824707	0.009918213	0.001764298	0.017547608	-0.856933594	0.125	0.479003906	892.02	-46.7322911	-71.80688923	-140.4433269	-55
13288	0	0.374991417	-0.08976841	0.084411621	0.999999046	0.000281334	-0.000234604	0.000301361	9.374785423	-2.244210243	2.110290527	0.014066697	-0.011730195	0.015068055	-0.854492188	0.124755859	0.470214844	891.94	-46.81010347	-71.8076843	-140.3322542	-55
13289	0	0.374267578	-0.088256836	0.083435059	0.999999046	0.000732422	8.58307E-06	7.24792E-05	9.356689453	-2.206420898	2.085876465	0.036621097	0.000429153	0.003623963	-0.854492188	0.124755859	0.473144531	892.04	-46.71963022	-71.80854331	-140.3442322	-55
13290	0	0.374680519	-0.08678627	0.083262444	0.999999046	0.000707626	-3.43323E-05	0.000144958	9.367012978	-2.169656754	2.081561089	0.03538132	-0.001716614	0.007247925	-0.856933594	0.127197266	0.469970703	891.98	-46.65996274	-71.80683056	-140.3251641	-55
13291	0	0.375244141	-0.087402344	0.083190918	0.999999046	0.000419617	-4.86374E-05	0.000110626	9.381103516	-2.185058594	2.079772949	0.020980836	-0.00243187	0.005531311	-0.854736328	0.127197266	0.475830078	892.04	-46.62855869	-71.80919886	-140.3094256	-55
13292	0	0.37480545	-0.087659836	0.083044052	0.999999046	0.000157356	-1.14441E-05	6.77109E-05	9.370136261	-2.191495895	2.076101303	0.007867813	-0.000572205	0.003385544	-0.856933594	0.127197266	0.469970703	891.92	-46.60740487	-71.81229267	-140.3170612	-55
13293	0	0.374084473	-0.088806152	0.082946777	0.999999046	-0.000179291	5.05447E-05	0.000133514	9.352111816	-2.220153809	2.073669434	-0.008964539	0.002527237	0.00667572	-0.856933594	0.127197266	0.472900391	891.94	-46.62493208	-71.80505278	-140.3235106	-55
13294	0	0.374539375	-0.09052372	0.08423233	0.999999046	-8.01086E-05	4.00543E-05	6.48499E-05	9.363484383	-2.263092995	2.105808258	-0.004005432	0.002002716	0.003242493	-0.856933594	0.127197266	0.472900391	891.98	-46.61739351	-71.80429018	-140.3440306	-55
13295	0	0.376220703	-0.08972168	0.082519531	0.999999046	0.000236511	-0.00014019	7.24792E-05	9.405517578	-2.243041992	2.062988281	0.011825562	-0.007009506	0.003623962	-0.857177734	0.127197266	0.475830078	892.02	-46.62127951	-71.81712368	-140.3140849	-55
13296	0	0.374461174	-0.089248657	0.083371162	0.999999046	5.24521E-05	-6.48499E-05	3.8147E-05	9.36152935	-2.231216431	2.08427906	0.002622604	-0.003242493	0.001907349	-0.854492188	0.126953125	0.469970703	891.92	-46.61897557	-71.82688723	-140.313636	-55
13297	0	0.371826172	-0.091186523	0.083251953	0.999999046	-4.19617E-05	-6.77109E-05	0.000213623	9.295654297	-2.279663086	2.081298828	-0.002098084	-0.003385544	0.010681152	-0.854492188	0.127197266	0.472900391	891.98	-46.67054504	-71.82214651	-140.2669789	-55
13298	0	0.374423027	-0.090805054	0.083375931	0.999999046	0.000421524	-0.000196457	0.000472069	9.360575676	-2.270126343	2.08439827	0.021076204	-0.009822846	0.023603441	-0.854492188	0.126953125	0.469970703	892.04	-46.7636472	-71.80588902	-140.124076	-55
13299	0	0.376342773	-0.088256836	0.08215332	0.999999046	7.24792E-05	-6.00815E-05	0.000331879	9.408569336	-2.206420898	2.053833008	0.003623962	-0.003004074	0.016593933	-0.856933594	0.127197266	0.467041016	891.98	-46.82847428	-71.79069339	-140.0551655	-55
13300	0	0.375377655	-0.089592934	0.083706856	0.999999046	-0.000353813	7.62939E-05	0.00030899	9.384441376	-2.239823341	2.092671394	-0.017690659	0.003814697	0.015449525	-0.854492188	0.127197266	0.472900391	892.08	-46.90187542	-71.7667021	-140.0260172	-55
13301	0	0.373962402	-0.090637207	0.082214355	0.999999046	-0.000141144	0.000130653	0.000205994	9.349060059	-2.265930176	2.055358887	-0.00705719	0.006532669	0.010299683	-0.857177734	0.129394531	0.472900391	892.02	-46.91276839	-71.7470683	-140.033782	-55
13302	0	0.373109818	-0.089776993	0.082651138	0.999999046	-9.53674E-06	6.67572E-05	0.000301361	9.327745438	-2.24442482	2.066278458	-0.000476837	0.00333786	0.015068054	-0.854492188	0.126953125	0.469970703	892.02	-46.94745136	-71.72446228	-140.0056009	-55
13303	0	0.374633789	-0.087585449	0.082458496	0.999999046	-0.00012207	-2.57492E-05	0.000427246	9.365844727	-2.18963623	2.061462402	-0.006103516	-0.00128746	0.021362305	-0.857177734	0.131591797	0.47265625	892.02	-47.04796079	-71.69865021	-139.9138512	-55
13304	0	0.37480545	-0.089879036	0.081928253	0.999999046	-0.000407219	4.95911E-05	0.000225067	9.370136261	-2.246975899	2.048206329	-0.020360947	0.002479553	0.011253357	-0.854736328	0.129394531	0.469726563	891.98	-47.11426118	-71.68395627	-139.8962705	-55
13305	0	0.374633789	-0.090942383	0.083129883	0.999999046	-0.000106812	-1.81198E-05	0.000175476	9.365844727	-2.27355957	2.07824707	-0.005340576	-0.000905991	0.008773804	-0.854736328	0.129394531	0.469726563	891.98	-47.15164941	-71.67869549	-139.8729224	-55
13306	0	0.374238968	-0.090481758	0.083156586	0.999999046	0.000131607	-8.96454E-05	3.71933E-05	9.355974197	-2.262043953	2.078914642	0.006580353	-0.004482269	0.001859665	-0.857177734	0.129394531	0.472900391	892.04	-47.14730899	-71.69062873	-139.8649666	-55
13307	0	0.373596191	-0.090026855	0.083068848	0.999999046	-0.00012207	-5.24521E-05	-3.05176E-05	9.339904785	-2.250671387	2.076721191	-0.006103516	-0.002622604	-0.001525879	-0.854736328	0.127197266	0.475830078	892.1	-47.14659864	-71.70536065	-139.8856138	-55
13308	0	0.374098778	-0.090818405	0.082700729	0.999999046	-7.53403E-05	-0.000162125	0.000105858	9.352469444	-2.270460129	2.067518234	-0.003767014	-0.008106232	0.005292892	-0.854736328	0.129394531	0.47265625	891.98	-47.20065807	-71.71717361	-139.8394346	-55
13309	0	0.375	-0.091918945	0.08416748	0.999999046	-0.000217438	-0.000113487	0.000114441	9.375	-2.297973633	2.104187012	-0.010871887	-0.005674362	0.005722046	-0.852294922	0.129150391	0.47265625	891.98	-47.26070848	-71.72438608	-139.8033042	-55
13310	0	0.374752998	-0.092590332	0.082636833	0.999999046	7.62939E-05	-8.2016E-05	0.000113487	9.368824959	-2.314758301	2.06592083	0.003814697	-0.0041008	0.005674362	-0.857177734	0.129394531	0.475585938	891.98	-47.27912766	-71.729166	-139.7766108	-54
13311	0	0.373657227	-0.091369629	0.082336426	0.999999046	0.000499725	-0.00014019	-0.000110626	9.341430664	-2.284240723	2.058410645	0.024986268	-0.007009507	-0.005531311	-0.854492188	0.127197266	0.472900391	892.02	-47.21117074	-71.75730783	-139.7939111	-54
13312	0	0.373028755	-0.09010601	0.082931519	0.999999046	0.000210762	-9.15527E-05	-1.52588E-05	9.32571888	-2.252650261	2.073287964	0.010538101	-0.004577637	-0.000762939	-0.854492188	0.127197266	0.472900391	892.04	-47.18631534	-71.77362271	-139.8006309	-54
13313	0	0.374206543	-0.090881348	0.08203125	0.999999046	7.24792E-05	-6.00815E-05	8.01086E-05	9.355163574	-2.272033691	2.05078125	0.003623962	-0.003004074	0.004005432	-0.854736328	0.129394531	0.47265625	891.94	-47.19196646	-71.77946789	-139.7878313	-54
13314	0	0.375117302	-0.090197563	0.081326485	0.999999046	-0.000156403	-0.000141144	0.00018692	9.377932549	-2.254939079	2.033162117	-0.007820129	-0.00705719	0.009346008	-0.852294922	0.129150391	0.475341797	892.02	-47.26998229	-71.78269133	-139.7253668	-55
13315	0	0.374084473	-0.090332031	0.08203125	0.999999046	-0.000400543	-0.000136375	0.000343323	9.352111816	-2.258300781	2.05078125	-0.020027162	-0.006818772	0.017166139	-0.854736328	0.129394531	0.469726563	892.02	-47.41170214	-71.77234084	-139.6275321	-55
13316	0	0.375143051	-0.091388702	0.082770348	0.999999046	-0.000447273	-0.000213623	0.000227928	9.378576279	-2.28471756	2.06925869	-0.022363664	-0.010681153	0.011396409	-0.854736328	0.129394531	0.47265625	892.08	-47.55138635	-71.77761556	-139.5364959	-55
13317	0	0.373901367	-0.092224121	0.083068848	0.999999046	-0.00019455	-5.24521E-05	0.000247955	9.34753418	-2.305603027	2.076721191	-0.009727478	-0.002622604	0.012397766	-0.852294922	0.129394531	0.478271484	892.02	-47.62545645	-71.76859801	-139.4817431	-55
13318	0	0.375083923	-0.092930794	0.081893921	0.999999046	0.000150681	-0.000207901	0.000174522	9.377098083	-2.323269844	2.047348022	0.007534027	-0.01039505	0.00872612	-0.852294922	0.126953125	0.481445313	892.04	-47.68293109	-71.77772716	-139.4074598	-54
13319	0	0.375854492	-0.09197998	0.082397461	0.999999046	0.000709534	-9.44138E-05	2.67029E-05	9.396362305	-2.299499512	2.059936523	0.035476688	-0.004720688	0.001335144	-0.852294922	0.129394531	0.478271484	892.02	-47.61256757	-71.79058981	-139.3974818	-55
13320	0	0.376719475	-0.090967178	0.082942963	0.999999046	0.0010252	-5.72205E-06	-0.000142097	9.41798687	-2.274179459	2.073574066	0.051260004	-0.000286102	-0.007104875	-0.852294922	0.129150391	0.475341797	892.02	-47.44331884	-71.81086278	-139.4557365	-55
13321	0	0.375488281	-0.090637207	0.081420898	0.999999046	0.001216888	-6.00815E-05	-0.000213623	9.387207031	-2.265930176	2.035522461	0.060844437	-0.003004075	-0.010681155	-0.852539063	0.131591797	0.481201172	892.08	-47.24896363	-71.84136089	-139.5122772	-55
13322	0	0.374254227	-0.088568687	0.082139969	0.999999046	0.001001358	1.90735E-05	-8.86917E-05	9.356355667	-2.214217186	2.053499222	0.05006791	0.000953674	-0.004434586	-0.852294922	0.131591797	0.472412109	892.04	-47.08819018	-71.85518694	-139.5627205	-55
13323	0	0.373840332	-0.088195801	0.080749512	0.999999046	0.000957489	-6.00815E-05	-0.00012207	9.346008301	-2.20489502	2.018737793	0.047874458	-0.003004075	-0.006103517	-0.852539063	0.131591797	0.475341797	891.94	-46.94461162	-71.87805112	-139.600702	-55
13324	0	0.375336647	-0.088006973	0.082885742	0.999999046	0.000533104	1.33514E-05	-0.000130653	9.383416176	-2.200174332	2.072143555	0.026655198	0.000667572	-0.006532669	-0.854736328	0.131591797	0.475341797	892.04	-46.82843199	-71.89590367	-139.6620146	-55
13325	0	0.375732422	-0.089294434	0.083251953	0.999999046	0.000434875	-6.38962E-05	-0.000190735	9.393310547	-2.23236084	2.081298828	0.021743775	-0.003194809	-0.009536744	-0.852539063	0.133789063	0.472167969	892.08	-46.72858432	-71.92479108	-139.7133629	-55
13326	0	0.375655174	-0.089812279	0.082242966	0.999999046	0.00056076	-4.19617E-05	-7.34329E-05	9.391379356	-2.245306969	2.056074142	0.028038026	-0.002098084	-0.003671646	-0.852294922	0.131591797	0.472412109	892.04	-46.63691793	-71.94214023	-139.7455254	-54
13327	0	0.374084473	-0.089416504	0.08215332	0.999999046	0.000244141	3.91006E-05	-5.34058E-05	9.352111816	-2.235412598	2.053833008	0.012207031	0.001955032	-0.002670288	-0.854736328	0.131591797	0.475341797	892.02	-46.56572109	-71.95140728	-139.7944484	-54
13328	0	0.372012138	-0.089276314	0.081736565	0.999999046	2.57492E-05	8.01086E-05	3.33786E-05	9.300303459	-2.231907845	2.043414116	0.00128746	0.004005432	0.00166893	-0.854736328	0.131591797	0.472412109	892	-46.53024046	-71.9501754	-139.8325498	-54
13329	0	0.374450684	-0.090637207	0.083679199	0.999999046	-0.0001297	0.000145912	0.000354767	9.36126709	-2.265930176	2.09197998	-0.006484986	0.007295609	0.017738343	-0.854980469	0.133789063	0.472412109	892.08	-46.57360429	-71.91691628	-139.802775	-54
13330	0	0.375890732	-0.086652756	0.081201553	0.999999046	-0.001014709	0.000335693	0.000464439	9.397268295	-2.166318893	2.030038834	-0.050735485	0.016784672	0.023221975	-0.852539063	0.133789063	0.475097656	891.88	-46.69617527	-71.859731	-139.793917	-54
13331	0	0.374694824	-0.088012695	0.082702637	0.999997139	-0.001991272	0.000367165	0.000679016	9.367370605	-2.200317383	2.067565918	-0.099563674	0.018358245	0.033950831	-0.854980469	0.133789063	0.475097656	892.02	-46.97313548	-71.78219878	-139.7395537	-54
13332	0	0.374019623	-0.092032433	0.084686279	0.999998093	-0.001829147	0.000290871	0.000533104	9.35049057	-2.300810814	2.117156982	-0.091457424	0.014543542	0.026655214	-0.854736328	0.129394531	0.469726563	891.98	-47.21516847	-71.72266612	-139.7102872	-54
13333	0	0.372436523	-0.094970703	0.083984375	0.999999046	-0.000541687	0.000180244	0.00044632	9.310913086	-2.374267578	2.099609375	-0.027084353	0.009012223	0.022315981	-0.854736328	0.131591797	0.469482422	892.04	-47.317116	-71.67879574	-139.6690141	-55
13334	0	0.372448921	-0.090386391	0.080601692	0.999999046	0.000822067	-0.000169754	0.000549316	9.31122303	-2.259659767	2.015042305	0.04110337	-0.008487703	0.027465825	-0.852294922	0.131347656	0.469482422	892.02	-47.37587068	-71.65347533	-139.5112267	-55
13335	0	0.374816895	-0.084716797	0.081665039	0.999999046	0.000236511	-0.000136375	0.000518799	9.370422363	-2.117919922	2.041625977	0.011825562	-0.006818772	0.025939943	-0.854736328	0.131591797	0.469482422	891.94	-47.48520493	-71.62835189	-139.3732352	-55
13336	0	0.375178337	-0.085250854	0.0828228	0.999999046	-0.000803947	-4.95911E-05	0.000431061	9.379458427	-2.131271362	2.070569992	-0.040197378	-0.002479554	0.021553043	-0.854980469	0.133789063	0.472412109	891.98	-47.67020323	-71.60406416	-139.2757935	-55
13337	0	0.37512207	-0.089355469	0.082824707	0.999999046	-0.001167297	-8.67844E-05	0.000141144	9.378051758	-2.233886719	2.070617676	-0.058364882	-0.004339219	0.007057192	-0.857177734	0.131591797	0.47265625	892.04	-47.83859187	-71.60723652	-139.2429845	-55
13338	0	0.375048637	-0.093746185	0.083516121	0.999999046	-0.000919342	4.00543E-05	0.000164032	9.376215935	-2.343654633	2.087903023	-0.045967109	0.002002716	0.0082016	-0.852294922	0.131591797	0.472412109	891.92	-47.95149898	-71.5986024	-139.2352181	-55
13339	0	0.375061035	-0.09588623	0.083618164	0.999999046	-0.0001297	-0.000124931	0.000198364	9.376525879	-2.397155762	2.090454102	-0.006484985	-0.006246567	0.009918213	-0.854736328	0.129394531	0.47265625	891.98	-48.02425118	-71.59953051	-139.179884	-55
13340	0	0.374860764	-0.093920708	0.08343792	0.999999046	0.000752449	-9.34601E-05	0.000170708	9.371519089	-2.348017693	2.08594799	0.037622456	-0.004673005	0.008535386	-0.854736328	0.131591797	0.475341797	892.02	-47.98150804	-71.60030538	-139.1362912	-55
13341	0	0.375305176	-0.091003418	0.083312988	0.999999046	0.000938416	4.673E-05	-2.67029E-05	9.382629395	-2.275085449	2.082824707	0.046920783	0.002336502	-0.001335144	-0.852294922	0.129394531	0.478271484	891.98	-47.83576408	-71.60714521	-139.182388	-55
13342	0	0.375180244	-0.08930397	0.082354546	0.999999046	0.000402451	0.000127792	-3.52859E-05	9.379506111	-2.232599258	2.05886364	0.020122529	0.006389618	-0.001764298	-0.857421875	0.134033203	0.475341797	891.98	-47.72842874	-71.60855322	-139.2466531	-55
13343	0	0.374084473	-0.090515137	0.083984375	0.999999046	-6.86646E-05	0.000191689	-0.000217438	9.352111816	-2.262878418	2.099609375	-0.003433228	0.009584427	-0.010871887	-0.854736328	0.131591797	0.475341797	892.02	-47.61617561	-71.62041703	-139.3752131	-55
13344	0	0.371406555	-0.091830254	0.082465172	0.999999046	3.14713E-05	4.95911E-05	-0.000167847	9.285163879	-2.29575634	2.061629295	0.001573563	0.002479553	-0.008392334	-0.854736328	0.131591797	0.475341797	891.94	-47.54009004	-71.63895494	-139.4526296	-55
13345	0	0.37298584	-0.093994141	0.083312988	0.999999046	0.000267029	-4.86374E-05	-6.10352E-05	9.324645996	-2.349853516	2.082824707	0.013351441	-0.00243187	-0.003051758	-0.854736328	0.129394531	0.47265625	892.04	-47.48704458	-71.65590842	-139.4822648	-55
13346	0	0.375751495	-0.092195511	0.082775116	0.999999046	0.000434875	-0.000141144	2.28882E-05	9.393787384	-2.304887772	2.069377899	0.021743775	-0.00705719	0.001144409	-0.852539063	0.131591797	0.475341797	891.98	-47.45800332	-71.6729243	-139.4609903	-55
13347	0	0.374572754	-0.090820313	0.083007813	0.999999046	0.00025177	-6.77109E-05	0.000217438	9.364318848	-2.270507813	2.075195313	0.012588501	-0.003385544	0.010871887	-0.854736328	0.131591797	0.469482422	892.04	-47.47666487	-71.667831	-139.4149093	-55
13348	0	0.373567581	-0.090393066	0.081963539	0.999999046	-0.000124931	3.8147E-05	0.000224113	9.339189529	-2.25982666	2.049088478	-0.006246567	0.001907349	0.011205673	-0.854736328	0.131591797	0.475341797	891.86	-47.51305783	-71.65401284	-139.3941969	-55
13349	0	0.373657227	-0.091796875	0.082336426	0.999999046	-0.000160217	8.58307E-06	0.000175476	9.341430664	-2.294921875	2.058410645	-0.008010864	0.000429153	0.008773804	-0.854736328	0.131591797	0.472412109	891.98	-47.54975304	-71.64657545	-139.3781306	-55
13350	0	0.372647285	-0.090550423	0.082068443	0.999999046	0.000120163	-6.29425E-05	0.000224113	9.316182137	-2.263760567	2.051711082	0.006008148	-0.003147125	0.011205673	-0.852539063	0.131591797	0.475341797	891.98	-47.58385466	-71.64057712	-139.3298974	-54
13351	0	0.374816895	-0.092590332	0.083190918	0.999999046	-0.000617981	-0.000155449	0.00038147	9.370422363	-2.314758301	2.079772949	-0.030899051	-0.007772446	0.019073488	-0.854980469	0.133789063	0.472412109	892.02	-47.76272756	-71.62831172	-139.2157492	-55
13352	0	0.375683784	-0.0968256	0.083075523	0.999999046	-0.000739098	-9.72748E-05	0.000576019	9.392094612	-2.420639992	2.076888084	-0.036954885	-0.00486374	0.028800969	-0.852294922	0.131591797	0.472412109	891.94	-47.98578859	-71.5947449	-139.073266	-55
13353	0	0.374389648	-0.094909668	0.082275391	0.999999046	7.24792E-05	-2.57492E-05	0.000667572	9.359741211	-2.372741699	2.056884766	0.003623963	-0.00128746	0.033378604	-0.854980469	0.133789063	0.472412109	891.92	-48.11824061	-71.54767279	-138.9271729	-55
13354	0	0.375247002	-0.092103004	0.082328796	0.999999046	0.000593185	-0.000188828	0.00051403	9.381175041	-2.302575111	2.05821991	0.029659274	-0.009441377	0.025701526	-0.850341797	0.135986328	0.474853516	891.98	-48.19694724	-71.52613473	-138.7705266	-55
13355	0	0.375061035	-0.091674805	0.08392334	0.999999046	0.001029968	-9.82285E-05	0.000152588	9.376525879	-2.291870117	2.098083496	0.051498422	-0.004911424	0.007629396	-0.852539063	0.133789063	0.475097656	891.98	-48.11932187	-71.52853684	-138.7331812	-55
13356	0	0.374134064	-0.090949059	0.082265854	0.999999046	0.001160622	-2.67029E-05	0.000323296	9.353351593	-2.273726463	2.056646347	0.058031096	-0.001335144	0.016164784	-0.852783203	0.138183594	0.474609375	892.02	-48.0473644	-71.51099661	-138.6685077	-55
13357	0	0.375549316	-0.090209961	0.082702637	0.999999046	0.001010895	-7.53403E-05	0.000457764	9.38873291	-2.255249023	2.067565918	0.050544749	-0.003767014	0.022888188	-0.852783203	0.138183594	0.471923828	892.04	-48.0354198	-71.48585049	-138.5623941	-55
13358	0	0.37834549	-0.092526436	0.082648277	0.999999046	0.001268387	-0.000116348	0.000427246	9.458637238	-2.313160896	2.066206932	0.063419361	-0.005817415	0.021362311	-0.855224609	0.140625	0.474609375	891.98	-47.99729762	-71.46654393	-138.4517902	-55
13359	0	0.38079834	-0.097839355	0.082092285	0.999995232	0.002601624	-0.000247002	0.000930786	9.519958496	-2.445983887	2.052307129	0.130081344	-0.012350098	0.046539366	-0.852783203	0.140380859	0.477539063	891.94	-47.9550356	-71.41437149	-138.1907967	-55
13360	0	0.377590179	-0.10615921	0.084775925	0.999979019	0.005720139	-0.000933647	0.002606392	9.439754486	-2.653980255	2.119398117	0.286008853	-0.046682672	0.130320473	-0.853027344	0.147216797	0.473876953	891.98	-48.1086178	-71.27149515	-137.3529335	-55
13361	0	0.384765625	-0.126159668	0.092468262	0.999891281	0.014237404	-0.000549316	0.003543854	9.619140625	-3.153991699	2.311706543	0.711895772	-0.027466807	0.177199055	-0.848876953	0.158203125	0.475830078	891.92	-47.39745532	-71.01952374	-136.4104859	-54
13362	0	0.387418747	-0.141375542	0.10846138	0.999668121	0.025227547	-0.000218391	0.005163193	9.685468674	-3.534388542	2.7115345	1.261516787	-0.010920778	0.258188178	-0.849853516	0.182861328	0.467773438	891.94	-45.71438953	-70.6111006	-135.1774235	-56
13363	0	0.389221191	-0.125732422	0.146057129	0.999662399	0.02443409	0.003185272	0.008167267	9.730529785	-3.143310547	3.651428223	1.221841737	0.159281504	0.408409221	-0.845947266	0.214111328	0.453369141	892.08	-44.02206275	-69.69315716	-134.052145	-57
13364	0	0.406084061	-0.109394073	0.196060181	0.999844551	0.005890846	0.011585236	0.011856079	10.15210152	-2.734851837	4.901504517	0.294557508	0.579291663	0.592834537	-0.844970703	0.251953125	0.432617188	892.04	-43.48606551	-67.7924013	-133.9260108	-58
13365	0	0.419006348	-0.116882324	0.233520508	0.999510765	-0.011779785	0.021092415	0.019832611	10.47515869	-2.922058105	5.838012695	-0.589085206	1.054792543	0.991792093	-0.852539063	0.272216797	0.413818359	892.04	-44.69517783	-64.46902767	-134.1079847	-56
13366	0	0.453872681	-0.083667755	0.278392792	0.998868942	-0.020247459	0.031163216	0.029631615	11.34681702	-2.091693878	6.959819794	-1.01275454	1.558748063	1.482139151	-0.860351563	0.301269531	0.374023438	892.1	-46.63778574	-59.53622113	-134.5716911	-56
13367	0	0.505432129	-0.049926758	0.335083008	0.998029709	-0.020934105	0.045261383	0.038066864	12.63580322	-1.248168945	8.377075195	-1.047393089	2.26455633	1.904593984	-0.863769531	0.345947266	0.320800781	892.04	-47.736354	-52.80163761	-136.1715705	-56
13368	0	0.494019508	-0.049283028	0.381485939	0.996946335	-0.024633408	0.059901237	0.043610573	12.35048771	-1.232075691	9.537148476	-1.232925376	2.998113659	2.182750466	-0.862548828	0.401367188	0.249023438	892.02	-48.4896324	-44.4860346	-138.9520765	-58
13369	0	0.437744141	-0.127685547	0.405944824	0.996319771	-0.021995544	0.068947792	0.045913696	10.94360352	-3.192138672	10.14862061	-1.101128125	3.451624179	2.298504703	-0.854492188	0.4765625	0.154785156	892.1	-48.89365361	-35.3035703	-142.2457211	-57
13370	0	0.389832497	-0.201547623	0.341995239	0.996438026	-0.008617401	0.070297241	0.045759201	9.745812416	-5.038690567	8.549880981	-0.431382268	3.519040476	2.290679945	-0.824707031	0.555419922	0.050292969	892.04	-48.29536142	-26.03094472	-145.3061097	-72
13371	0	0.338867188	-0.238037109	0.246459961	0.9971838	0.00510025	0.064549446	0.037822723	8.471679688	-5.950927734	6.161499023	0.255252117	3.230504773	1.892913043	-0.7734375	0.633300781	-0.064208984	892.04	-46.63979371	-17.83431607	-148.0470436	-67
13372	0	0.270173073	-0.282793999	0.161933899	0.998018265	0.014762878	0.056574821	0.023234367	6.75432682	-7.069849968	4.048347473	0.73863178	2.830610663	1.162486179	-0.713867188	0.690917969	-0.177246094	892.02	-44.1840166	-11.39411062	-150.8436463	-72
13373	0	0.195861816	-0.248779297	0.119384766	0.998573303	0.023392677	0.046165466	0.013122559	4.89654541	-6.219482422	2.984619141	1.170190286	2.309371412	0.656440064	-0.659912109	0.712890625	-0.29296875	891.94	-41.07433253	-6.497855961	-153.288709	-66
13374	0	0.097499847	-0.158194542	0.074036598	0.998996735	0.021450996	0.037014961	0.013221741	2.437496185	-3.954863548	1.850914955	1.072908566	1.8513671	0.661308156	-0.610595703	0.717041016	-0.386474609	891.92	-38.4648916	-2.286166276	-154.8025176	-69
13375	0	0.006774902	-0.119689941	0.083679199	0.998941422	0.027726173	0.031879425	0.018192291	0.169372559	-2.992248535	2.09197998	1.386798041	1.594533928	0.909935659	-0.561035156	0.717041016	-0.468017578	891.94	-35.25662344	1.870506027	-155.3062563	-64
13376	0	0.013056755	-0.083293915	0.08156395	0.99843502	0.042275429	0.030424118	0.020348549	0.326418877	-2.08234787	2.03909874	2.114874584	1.521999797	1.017958425	-0.501708984	0.712158203	-0.555419922	891.92	-30.37854342	6.0477834	-155.2159782	-66
13377	0	0.036987305	-0.038757324	0.043945313	0.998197556	0.047009468	0.034164429	0.014930725	0.924682617	-0.968933105	1.098632813	2.351885987	1.709248039	0.746984907	-0.436523438	0.679931641	-0.649658203	891.94	-25.00743231	10.29228264	-155.5169409	-81
13378	0	0.037465096	-0.032824516	0.032938004	0.998628616	0.03725338	0.036108971	0.006936073	0.936627388	-0.820612907	0.823450089	1.863520592	1.806273973	0.346962222	-0.372558594	0.630126953	-0.742431641	891.94	-20.90743121	14.39454817	-156.424178	-72
13379	0	0.019775391	-0.043518066	0.077026367	0.998597145	0.033462524	0.040959358	0.002391815	0.494384766	-1.08795166	1.92565918	1.673908873	2.048925907	0.119646701	-0.309326172	0.582519531	-0.812011719	891.98	-17.43384185	18.90012659	-157.7663833	-72
13380	0	0.016708374	-0.018057823	0.070411682	0.998483658	0.028032303	0.047326088	-0.001834869	0.417709351	-0.45144558	1.760292053	1.402323676	2.367500593	-0.091789847	-0.239013672	0.528076172	-0.869628906	891.94	-14.87238686	24.03363236	-159.6081391	-64
13381	0	0.099365234	-0.026550293	0.046447754	0.99830246	0.024533272	0.051979065	-0.009399414	2.484130859	-0.663757324	1.161193848	1.227358135	2.600424793	-0.470236804	-0.159423828	0.484619141	-0.916992188	892.04	-13.29966515	29.52926272	-162.4026619	-79
13382	0	0.146430016	-0.046221733	-0.005072594	0.998227119	-0.000303268	0.058013916	-0.013235092	3.660750389	-1.155543327	-0.126814842	-0.015172385	2.902410367	-0.662145763	-0.073242188	0.445556641	-0.947753906	892.02	-15.30843932	35.57436987	-166.1076904	-64
13383	0	0.103881836	-0.059753418	-0.234191895	0.996515274	-0.063353539	0.054229736	0.001544952	2.597045898	-1.493835449	-5.854797363	-3.171361352	2.714640634	0.077337469	0.018554688	0.478271484	-0.943847656	891.92	-24.11178946	41.46306326	-168.6335996	-67
13384	0	0.055401802	0.126271248	-0.378360748	0.996778488	-0.077234268	0.006094933	0.020715714	1.385045052	3.156781197	-9.459018707	-3.86586482	0.305074236	1.036899163	0.099609375	0.617431641	-0.843505859	891.98	-31.34820952	43.17141328	-166.258468	-62
13385	0	-0.407470703	-0.223022461	0.227478027	0.995697021	-0.019206047	-0.081710815	-0.039260864	-10.18676758	-5.575561523	5.686950684	-0.961682035	-4.091410534	-1.965863549	0.083496094	0.724121094	-0.746582031	892.08	-32.65683451	32.82004564	-164.692475	-63
13386	0	-0.394536018	-0.69780159	0.942890167	0.981939316	-0.083153725	-0.115124702	-0.125005722	-9.863400459	-17.44503975	23.57225418	-4.182898323	-5.791140767	-6.288187658	-0.176513672	0.729003906	-0.697509766	892.14	-43.68613036	13.46839336	-168.130915	-66
13387	0	0.057373047	-1.307373047	1.186889648	0.987838745	-0.083930016	-0.0364151	-0.125713348	1.434326172	-32.68432617	29.67224121	-4.213595207	-1.828171843	-6.31127206	-0.500732422	0.748779297	-0.438964844	891.98	-54.13938707	-0.237457081	-174.4747143	-70
13388	0	-0.199624062	-1.012136459	0.86602211	0.998122215	-0.002135277	-0.005407333	-0.060966492	-4.99060154	-25.30341148	21.65055275	-0.106830693	-0.270535966	-3.050233373	-0.673583984	0.654785156	-0.328125	892.04	-54.16917477	-6.31003333	-178.0236293	-64
13389	0	-0.16003418	-0.673278809	0.572814941	0.999412537	0.027871132	0.005374908	-0.019172668	-4.000854492	-16.83197021	14.32037354	1.393829244	0.268798002	-0.95882098	-0.734863281	0.578369141	-0.3359375	892.02	-50.73481759	-7.702860978	-179.834555	-70
13390	0	-0.051711082	-0.44152832	0.397092819	0.999430656	0.02473259	0.022808075	-0.002408028	-1.292777061	-11.03820801	9.92732048	1.236864093	1.140620099	-0.120424224	-0.741943359	0.540283203	-0.381835938	892.08	-47.61964103	-6.220582956	178.0127556	-64
13391	0	0.011108398	-0.350524902	0.290161133	0.999073982	0.030498505	0.030171394	-0.00327301	0.277709961	-8.763122559	7.25402832	1.525396111	1.509035546	-0.163701046	-0.725341797	0.519042969	-0.450927734	892.08	-43.86063373	-4.089740671	175.2879628	-65
13392	0	-0.002744675	-0.332753181	0.236248016	0.998720169	0.040103912	0.02811718	-0.012599945	-0.068616867	-8.318829536	5.906200409	2.00605137	1.406458969	-0.630266116	-0.700683594	0.481689453	-0.530761719	892.02	-39.06190359	-2.641486681	172.096335	-72
13393	0	0.046203613	-0.353942871	0.187805176	0.999100685	0.026489258	0.02745533	-0.018474579	1.155090332	-8.848571777	4.695129395	1.324859841	1.373177922	-0.924005791	-0.684570313	0.415527344	-0.613769531	891.98	-35.89382277	-1.44326063	168.5122087	-84
13394	0	0.045753479	-0.35004425	0.189247131	0.999470711	0.009841919	0.026130676	-0.016640663	1.143836975	-8.751106262	4.731178284	0.492182646	1.306764001	-0.832179746	-0.664550781	0.367431641	-0.669189453	891.98	-34.72713375	-0.11361516	165.2246381	-79
13395	0	-0.013793945	-0.31060791	0.196960449	0.999775887	-0.003032684	0.018307686	-0.010131836	-0.344848633	-7.765197754	4.92401123	-0.151645516	0.915452506	-0.506629547	-0.640869141	0.337158203	-0.711669922	891.98	-35.10349268	0.930871585	163.0506103	-78
13396	0	-0.012714386	-0.278484344	0.208151817	0.99994278	0.003068924	0.008503914	-0.005661011	-0.31785965	-6.962108612	5.203795433	0.153449108	0.425203758	-0.283055905	-0.626220703	0.334228516	-0.726806641	892.02	-34.79202205	1.3468158	161.9423301	-79
13397	0	0.01159668	-0.253967285	0.231628418	0.999940872	0.010453224	0.000583649	-0.002887726	0.289916992	-6.349182129	5.790710449	0.522671484	0.029183008	-0.14438913	-0.622802734	0.316162109	-0.734130859	892.04	-33.62304128	1.204005286	161.6126289	-73
13398	0	0.024705887	-0.22231102	0.237028122	0.999945641	0.010120392	-0.002344131	0.000452995	0.617647171	-5.557775497	5.925703049	0.506028711	-0.117208686	0.022650173	-0.624267578	0.298095703	-0.744384766	892.02	-32.48384073	0.993913079	161.7794075	-68
13399	0	0.028015137	-0.197021484	0.269470215	0.999952316	0.00905323	-0.001682281	0.003238678	0.700378418	-4.925537109	6.736755371	0.452668703	-0.08411541	0.161936471	-0.625976563	0.284667969	-0.751708984	891.98	-31.46385961	1.012503586	162.1698312	-65
13400	0	0.020070076	-0.194102287	0.30506897	0.999919891	0.010509491	-0.001429558	0.00688839	0.5017519	-4.852557182	7.626724243	0.525488557	-0.071479796	0.344428661	-0.625732422	0.278076172	-0.754150391	892.02	-30.2690571	1.26181776	162.9068493	-65
13401	0	-0.012390137	-0.166015625	0.309265137	0.999922752	0.006355286	-0.00121212	0.010532379	-0.309753418	-4.150390625	7.731628418	0.317772375	-0.060607546	0.526632369	-0.622802734	0.2734375	-0.759765625	891.98	-29.53536342	1.729137508	163.9917849	-67
13402	0	0.000932693	-0.16183567	0.324037552	0.999922752	-0.001361847	-0.001768112	0.012183189	0.023317337	-4.045891762	8.100938797	-0.068094087	-0.08840787	0.609175046	-0.618408203	0.279785156	-0.760498047	891.98	-29.66860629	2.228837964	165.2673693	-72
13403	0	0.010620117	-0.164001465	0.323669434	0.999928474	-0.002090454	-0.004347801	0.010894775	0.26550293	-4.100036621	8.09173584	-0.104525178	-0.217395205	0.54475166	-0.612304688	0.300048828	-0.750976563	892.1	-29.87584467	2.40190214	166.5640169	-83
13404	0	0.077540398	-0.142796516	0.25837326	0.999908447	-0.005723953	-0.004193306	0.011480331	1.938509941	-3.56991291	6.459331512	-0.286206351	-0.209671664	0.574033998	-0.612792969	0.313476563	-0.74609375	892.1	-30.49236345	2.629673261	167.9015997	-78
13405	0	0.130187988	-0.143554688	0.108520508	0.999462128	-0.028193474	-0.003154755	0.016422272	3.254699707	-3.588867188	2.713012695	-1.409926266	-0.157765994	0.821260707	-0.607421875	0.346923828	-0.729003906	892.08	-33.65622921	3.298106022	169.6257662	-68
13406	0	0.128890038	-0.13688755	0.074093819	0.999385834	-0.030362129	-0.011071205	0.013522148	3.222250938	-3.422188759	1.852345467	-1.518417156	-0.553673548	0.676245778	-0.603515625	0.412109375	-0.702392578	892.08	-37.05307823	3.129136652	171.5587868	-64
13407	0	0.081176758	-0.144897461	0.048339844	0.999130249	-0.036604881	-0.019779205	0.002548218	2.029418945	-3.622436523	1.208496094	-1.830774526	-0.989246898	0.127447816	-0.609130859	0.461914063	-0.653808594	892.02	-41.21532169	1.52073631	173.1376538	-63
13408	0	0.097615242	-0.287639618	0.066446304	0.998498917	-0.035312653	-0.04072094	-0.009674072	2.44038105	-7.190990448	1.661157608	-1.766516276	-2.037065962	-0.483945692	-0.641113281	0.508300781	-0.583007813	891.94	-45.33209012	-2.676848605	175.445288	-71
13409	0	0.172851563	-0.297729492	0.215270996	0.998222351	-0.017638206	-0.054691315	-0.01574707	4.321289063	-7.443237305	5.381774902	-0.882432988	-2.736186375	-0.787820141	-0.703125	0.515869141	-0.478271484	891.94	-47.72095061	-8.34701026	178.7034869	-66
13410	0	0.180251122	-0.319665909	0.187853813	0.998303413	-0.007480621	-0.055940628	-0.014321327	4.506278038	-7.99164772	4.696345329	-0.374242743	-2.798614335	-0.716471606	-0.766601563	0.500732422	-0.380126953	891.98	-49.36051686	-13.87331449	-177.5618859	-62
13411	0	0.212463379	-0.333435059	0.309020996	0.99783802	0.022926331	-0.061415672	-0.004615784	5.311584473	-8.335876465	7.725524902	1.147143256	-3.072998276	-0.230955631	-0.812988281	0.476318359	-0.276367188	892.02	-48.2394818	-18.96126927	-172.4215139	-66
13412	0	0.167546272	-1.192160606	1.445275307	0.977062225	0.210248947	-0.031966209	0.010995865	4.188656807	-29.80401516	36.13188267	10.59356581	-1.610643704	0.554035679	-0.844482422	0.453369141	-0.202636719	892.08	-25.15739084	-21.16614091	-168.7543994	-66
13413	0	-0.089233398	0.517211914	0.454467773	0.998013496	0.036598206	0.038395882	0.033977509	-2.230834961	12.93029785	11.36169434	1.831122669	1.921066025	1.700001002	-0.833251953	0.332519531	-0.408935547	892.08	-21.56613731	-15.58696179	-166.9258666	-62
13414	0	0.000256538	-0.237984657	0.237071037	0.986229897	-0.158557892	-0.000455856	0.047006607	0.00641346	-5.949616432	5.926775932	-7.964485313	-0.022898015	2.361178161	-0.778808594	0.454101563	-0.395996094	892.08	-41.01504463	-12.83447694	-162.421651	-60
13415	0	0.138977051	-0.31262207	0.422363281	0.998904228	-0.022659302	-0.021513939	0.034835815	3.47442627	-7.815551758	10.55908203	-1.133378996	-1.076089931	1.742427102	-0.737548828	0.605957031	-0.250488281	892.04	-44.63248407	-11.93495003	-157.756135	-60
13416	0	0.17421627	-0.212162971	0.207267761	0.999783516	0.010615349	-0.01048851	0.014475822	4.355406761	-5.304074287	5.181694031	0.530805685	-0.524463294	0.723843275	-0.708984375	0.647949219	-0.217773438	892.08	-43.84633756	-11.65087265	-155.669586	-60
13417	0	0.094848633	-0.149902344	0.081420898	0.999937057	1.62125E-05	-0.011119843	-0.0013237	2.37121582	-3.747558594	2.035522461	0.00081064	-0.556003748	-0.066186381	-0.699707031	0.658691406	-0.219238281	892.08	-44.02149261	-12.68863085	-154.8573701	-60
13418	0	0.087364197	-0.242323875	0.226459503	0.999820709	-0.006407738	-0.013028145	-0.01211834	2.184104919	-6.058096886	5.661487579	-0.320405987	-0.651446077	-0.6059531	-0.711914063	0.652587891	-0.191650391	892.08	-44.77909548	-14.74224924	-154.7774566	-59
13419	0	0.088134766	-0.452270508	0.48815918	0.998776436	0.049385071	0.002240181	0.000759125	2.203369141	-11.3067627	12.20397949	2.470260655	0.112054733	0.037971719	-0.728271484	0.637451172	-0.186523438	892.02	-39.09858649	-14.50356506	-154.8377439	-60
13420	0	0.112710953	-0.064772606	0.241402626	0.999905586	0.013497353	0.000482559	-0.002381325	2.817773819	-1.619315147	6.035065651	0.674888787	0.024128717	-0.119069971	-0.725830078	0.614501953	-0.2578125	892.08	-37.49039616	-14.64146836	-155.0864419	-60
13421	0	0.071777344	-0.193969727	0.395874023	0.999855042	-0.016963005	-0.000656128	-0.000835419	1.794433594	-4.849243164	9.896850586	-0.848191093	-0.032807976	-0.041772946	-0.730712891	0.610351563	-0.251220703	892.1	-39.42536404	-14.76986787	-155.1273852	-60
13422	0	0.079959869	-0.237112999	0.355823517	0.999986649	-0.002726555	-0.003724098	0.002181053	1.998996735	-5.927824974	8.895587921	-0.136328336	-0.186205719	0.109053132	-0.728759766	0.614746094	-0.234130859	892.16	-39.85739272	-14.94755046	-154.6545767	-59
13423	0	0.088195801	-0.251708984	0.301635742	0.999925613	-0.01060009	-0.005752563	0.001529694	2.20489502	-6.292724609	7.540893555	-0.530017557	-0.287635259	0.076486564	-0.733886719	0.619628906	-0.225585938	892.14	-41.22053391	-15.34237268	-154.089583	-59
13424	0	0.105988503	-0.276376724	0.284078598	0.999946594	-0.007339478	-0.007254601	0.000163078	2.649712563	-6.909418106	7.101964951	-0.366980393	-0.362736466	0.00815406	-0.732177734	0.626464844	-0.197021484	892.02	-42.21806027	-15.95829769	-153.5083994	-58
13425	0	0.117614746	-0.273193359	0.268798828	0.999950409	0.006081581	-0.007850647	0.000118256	2.940368652	-6.829833984	6.719970703	0.304084055	-0.392538802	0.005912878	-0.732666016	0.62890625	-0.1796875	892.04	-41.69858495	-16.62649339	-152.86919	-58
13426	0	0.127417564	-0.251914024	0.267228127	0.999945641	0.008480072	-0.005941391	-0.000461578	3.18543911	-6.297850609	6.680703163	0.424011193	-0.297074869	-0.023079332	-0.737304688	0.626708984	-0.182373047	892.02	-40.85041414	-17.18201979	-152.4399897	-58
13427	0	0.125915527	-0.241333008	0.280212402	0.999973297	0.006497383	-0.002738953	-0.001419067	3.147888184	-6.033325195	7.005310059	0.324871957	-0.136948813	-0.070953981	-0.739501953	0.622314453	-0.184814453	892.1	-40.13000154	-17.53558242	-152.3544301	-58
13428	0	0.126335144	-0.239584923	0.286998749	0.999992371	0.003299713	0.000916481	-0.001850128	3.158378601	-5.98962307	7.174968719	0.164986073	0.045824167	-0.092506642	-0.741699219	0.617919922	-0.189941406	892.08	-39.67803115	-17.60048449	-152.5949371	-58
13429	0	0.122375488	-0.237548828	0.287963867	0.999991417	0.000522614	0.003247261	-0.002155304	3.059387207	-5.938720703	7.19909668	0.026130744	0.162363471	-0.107765475	-0.743896484	0.613525391	-0.189453125	892.1	-39.48196276	-17.48052192	-153.0415903	-58
13430	0	0.141282082	-0.27347374	0.316269875	0.999964714	0.006326675	0.005342484	-0.000646591	3.53205204	-6.836843491	7.906746864	0.316337408	0.267127247	-0.032329931	-0.745849609	0.608886719	-0.200683594	892.04	-38.61865383	-17.06147989	-153.5047128	-58
13431	0	0.15045166	-0.254150391	0.241516113	0.999937057	0.008545876	0.003902435	0.006034851	3.761291504	-6.353759766	6.037902832	0.427302657	0.19512582	0.301748824	-0.742919922	0.606445313	-0.224121094	892.02	-37.72155996	-16.2940744	-153.2349684	-59
13432	0	0.130945206	-0.240194321	0.220495224	0.999932289	-0.00641346	-0.00304985	0.009141922	3.273630142	-6.004858017	5.5123806	-0.320680151	-0.152495929	0.45710631	-0.731445313	0.6171875	-0.22265625	892.02	-38.76193672	-15.93324168	-152.1691631	-60
13433	0	0.110046387	-0.25213623	0.269104004	0.999824524	0.014130592	-0.008602142	0.008682251	2.751159668	-6.303405762	6.727600098	0.706570726	-0.430132142	0.434137807	-0.72265625	0.632568359	-0.215576172	892.08	-37.54879454	-16.1067581	-150.7246797	-60
13434	0	0.086772919	-0.2278862	0.302357674	0.999658585	0.023205757	-0.009865761	0.006756783	2.169322968	-5.697154999	7.558941841	1.160419686	-0.493344086	0.337877511	-0.717773438	0.636962891	-0.228027344	892.1	-35.27508484	-16.56828954	-149.3744129	-61
13435	0	0.069335938	-0.182617188	0.350708008	0.999781609	0.018592834	-0.008776665	0.003479004	1.733398438	-4.565429688	8.767700195	0.929709109	-0.438865046	0.173962804	-0.712646484	0.632080078	-0.239501953	892.1	-33.41978016	-17.18209288	-148.4356879	-61
13436	0	0.07818222	-0.141647339	0.412059784	0.99998188	0.004483223	-0.003509521	-0.001703262	1.954555511	-3.541183472	10.3014946	0.224162468	-0.175477107	-0.085163618	-0.712402344	0.629882813	-0.248046875	892.08	-32.92135995	-17.6309836	-148.3751109	-61
13437	0	0.110534668	-0.155761719	0.370788574	0.999941826	-0.010189056	0.001015663	-0.003177643	2.763366699	-3.894042969	9.269714355	-0.50946258	0.05078413	-0.158885185	-0.719238281	0.623291016	-0.25	892.04	-33.9654512	-17.73926525	-148.7727396	-61
13438	0	0.138381958	-0.243662834	0.322704315	0.999913216	-0.013092041	0.000587463	-0.000751495	3.45954895	-6.091570854	8.06760788	-0.654620851	0.029374013	-0.037575847	-0.719726563	0.625732422	-0.232666016	892.1	-35.42598675	-17.73828241	-148.8994241	-61
13439	0	0.142272949	-0.211242676	0.287353516	0.999996185	-0.00026989	-0.002269745	0.001361847	3.55682373	-5.281066895	7.183837891	-0.013494507	-0.113487378	0.068092427	-0.724853516	0.630615234	-0.215332031	892.16	-35.5418032	-17.86631141	-148.6151754	-61
13440	0	0.129947662	-0.215362549	0.304471016	0.999987602	0.003361702	-0.002832413	0.002264977	3.248691559	-5.384063721	7.611775398	0.168085783	-0.141621213	0.113249287	-0.72265625	0.6328125	-0.212646484	892.04	-35.28147815	-17.98769059	-148.2012644	-61
13441	0	0.114379883	-0.218078613	0.31060791	0.999998093	6.58035E-05	-0.001293182	0.001277924	2.85949707	-5.451965332	7.765197754	0.003290178	-0.064659154	0.063896214	-0.717773438	0.632568359	-0.21875	891.94	-35.33629748	-18.03072598	-147.9937821	-61
13442	0	0.113563538	-0.224616051	0.307535172	0.999999046	-0.001096725	-7.24792E-05	-1.81198E-05	2.83908844	-5.615401268	7.688379288	-0.054836284	-0.003623963	-0.000905991	-0.720458984	0.636962891	-0.216064453	892.08	-35.45906146	-18.04490394	-147.9962911	-61
13443	0	0.124206543	-0.225280762	0.306091309	0.999999046	0.000411987	0.000576973	-0.000831604	3.105163574	-5.632019043	7.652282715	0.020599369	0.028848654	-0.041580208	-0.718017578	0.636962891	-0.216308594	892.04	-35.37055395	-18.05241627	-148.1204364	-61
13444	0	0.128170967	-0.212789536	0.309526443	0.999998093	0.00022316	0.000857353	-0.00124073	3.204274178	-5.319738388	7.738161087	0.011157994	0.042867677	-0.062036538	-0.720214844	0.634765625	-0.216064453	892.08	-35.28492825	-18.06085229	-148.3045794	-61
13445	0	0.121887207	-0.215942383	0.311462402	0.999999046	3.05176E-05	0.000851631	-0.000831604	3.047180176	-5.39855957	7.786560059	0.001525879	0.042581568	-0.04158021	-0.72265625	0.632568359	-0.218505859	892.08	-35.23389827	-18.04239481	-148.4503086	-61
13446	0	0.11725235	-0.209869385	0.31051445	0.999999046	0.00044632	0.000244141	-0.000331879	2.931308746	-5.246734619	7.762861252	0.02231598	0.012207032	-0.016593934	-0.720214844	0.632568359	-0.215820313	891.98	-35.16325756	-18.04737089	-148.5010399	-61
13447	0	0.119750977	-0.213989258	0.312133789	0.999999046	-1.14441E-05	-3.33786E-05	0.000148773	2.993774414	-5.349731445	7.803344727	-0.000572205	-0.00166893	0.00743866	-0.722412109	0.630371094	-0.218505859	892.08	-35.16556637	-18.04637623	-148.4897004	-62
13448	0	0.121477127	-0.218549728	0.311510086	0.999999046	0.000132561	-0.000497818	4.86374E-05	3.036928177	-5.46374321	7.787752151	0.006628037	-0.024890901	0.00243187	-0.722412109	0.630371094	-0.221435547	892.1	-35.15839487	-18.09534424	-148.4570649	-62
13449	0	0.119934082	-0.216430664	0.309753418	0.999999046	0.0001297	-0.00051403	-0.000167847	2.998352051	-5.410766602	7.743835449	0.006484986	-0.025701524	-0.008392334	-0.722412109	0.630371094	-0.221435547	892.08	-35.14532845	-18.15991685	-148.4441479	-62
13450	0	0.122706413	-0.218445778	0.310233116	0.999999046	0.000497818	-0.000408173	-0.000489235	3.067660332	-5.461144447	7.755827904	0.024890902	-0.020408633	-0.024461749	-0.72265625	0.630371094	-0.215576172	892.1	-35.07799403	-18.23563995	-148.4666394	-62
13451	0	0.122253418	-0.213317871	0.308532715	0.999999046	0.000217438	-0.000407219	-0.000530243	3.056335449	-5.332946777	7.713317871	0.010871888	-0.020360948	-0.026512148	-0.722412109	0.630371094	-0.218505859	892.04	-35.04139649	-18.31385591	-148.4930605	-62
13452	0	0.123038292	-0.213785172	0.310539246	0.999999046	0.000367165	-0.000385284	-0.000496864	3.075957298	-5.344629288	7.76348114	0.018358232	-0.019264223	-0.024843218	-0.724609375	0.625976563	-0.218017578	891.92	-34.9880703	-18.38768727	-148.5217197	-62
13453	0	0.125549316	-0.213623047	0.31072998	0.999999046	8.39233E-05	-1.81198E-05	-0.00019455	3.13873291	-5.340576172	7.768249512	0.004196167	-0.000905991	-0.009727478	-0.724609375	0.625976563	-0.218017578	892.16	-34.96852161	-18.40715311	-148.5452877	-62
13454	0	0.126986504	-0.213155746	0.310333252	0.999999046	6.29425E-05	3.8147E-06	7.15256E-05	3.17466259	-5.328893661	7.758331299	0.003147125	0.000190735	0.003576279	-0.724609375	0.625976563	-0.218017578	892.1	-34.95915334	-18.40714141	-148.5439882	-62
13455	0	0.123535156	-0.213989258	0.31060791	0.999999046	-0.000148773	-4.1008E-05	0.000148773	3.088378906	-5.349731445	7.765197754	-0.00743866	-0.0020504	0.00743866	-0.727050781	0.625976563	-0.217773438	892.08	-34.97741961	-18.40615167	-148.5337493	-62
13456	0	0.119651794	-0.214240074	0.310838699	0.999999046	-4.673E-05	-0.000123978	7.15256E-05	2.991294861	-5.356001854	7.770967484	-0.002336502	-0.006198883	0.003576279	-0.724609375	0.628173828	-0.223876953	892.02	-34.98337082	-18.41772078	-148.5242265	-62
13457	0	0.123291016	-0.218078613	0.312194824	0.999999046	0.000293732	-0.000384331	-6.48499E-05	3.082275391	-5.451965332	7.804870605	0.014686585	-0.019216538	-0.003242493	-0.724853516	0.628173828	-0.218017578	891.94	-34.95184362	-18.46251564	-148.5073291	-62
13458	0	0.124594688	-0.21287632	0.310148239	0.999999046	0.000230789	-0.000478745	-0.000217438	3.11486721	-5.321907997	7.753705978	0.01153946	-0.023937227	-0.010871888	-0.727050781	0.625976563	-0.220703125	892.14	-34.9247529	-18.52614966	-148.5031829	-62
13459	0	0.123168945	-0.215148926	0.312194824	0.999999046	-0.000171661	-0.000296593	-0.00030899	3.079223633	-5.378723145	7.804870605	-0.008583069	-0.014829636	-0.015449524	-0.729492188	0.626220703	-0.21484375	892.02	-34.93687327	-18.57848643	-148.5189528	-62
13460	0	0.124826431	-0.212737083	0.30832386	0.999999046	0.000266075	-1.52588E-05	-0.000218391	3.120660782	-5.318427086	7.708096504	0.013303757	-0.000762939	-0.010919571	-0.727050781	0.625976563	-0.217773438	892.08	-34.89547303	-18.59838791	-148.5440977	-62
13461	0	0.125610352	-0.213562012	0.311584473	0.999999046	-6.86646E-05	0.000134468	-0.000198364	3.140258789	-5.339050293	7.789611816	-0.003433228	0.006723404	-0.009918213	-0.731933594	0.624023438	-0.214355469	892.02	-34.88970515	-18.60282305	-148.5809584	-62
13462	0	0.125123024	-0.212395668	0.308963776	0.999999046	1.71661E-05	0.000230789	0.000167847	3.1280756	-5.309891701	7.724094391	0.000858307	0.011539459	0.008392334	-0.727050781	0.623779297	-0.217529297	892.1	-34.88355032	-18.57414892	-148.5864535	-62
13463	0	0.123535156	-0.213195801	0.312316895	0.999999046	0.000183105	1.62125E-05	0.000198364	3.088378906	-5.32989502	7.807922363	0.009155274	0.000810623	0.009918213	-0.727050781	0.626220703	-0.21484375	892.16	-34.86399539	-18.56347982	-148.5703937	-62
13464	0	0.12203598	-0.214412689	0.310873032	0.999999046	4.48227E-05	-9.15527E-05	0.00030899	3.050899506	-5.36031723	7.77182579	0.002241135	-0.004577637	0.015449524	-0.727050781	0.626220703	-0.21484375	892.02	-34.86617567	-18.55548072	-148.5365063	-62
13465	0	0.126831055	-0.213684082	0.309875488	0.999999046	0.000209808	-0.000361443	0.000514984	3.170776367	-5.342102051	7.746887207	0.010490418	-0.01807213	0.025749208	-0.727050781	0.626220703	-0.21484375	892.02	-34.86190986	-18.55940913	-148.4645665	-62
13466	0	0.124884605	-0.210814476	0.309384346	0.999999046	-0.000179291	-2.28882E-05	0.000621796	3.122115135	-5.2703619	7.73460865	-0.008964539	-0.001144409	0.031089785	-0.724853516	0.625976563	-0.215087891	891.98	-34.898054	-18.52447661	-148.4058063	-62
13467	0	0.124450684	-0.213439941	0.307495117	0.999999046	-0.000427246	0.000416756	0.000831604	3.11126709	-5.335998535	7.68737793	-0.021362308	0.020837787	0.041580207	-0.722412109	0.628173828	-0.218261719	892.04	-34.95956729	-18.43440473	-148.3561584	-62
13468	0	0.12340641	-0.215376854	0.310832024	0.999999046	-0.000540733	0.000587463	0.000694275	3.085160255	-5.384421349	7.770800591	-0.027036672	0.029373174	0.034713752	-0.724853516	0.628173828	-0.215087891	892.02	-35.02600322	-18.33718147	-148.3343359	-62
13469	0	0.12097168	-0.215942383	0.310668945	0.999999046	-0.00056839	0.000653267	0.000370026	3.024291992	-5.39855957	7.766723633	-0.028419499	0.03266335	0.018501284	-0.724853516	0.628173828	-0.215087891	892.14	-35.08410049	-18.25491704	-148.3503193	-62
13470	0	0.120891571	-0.2169981	0.312533379	0.999999046	-0.000392914	0.000377655	0.000124931	3.022289276	-5.424952507	7.813334465	-0.019645692	0.018882752	0.006246567	-0.72265625	0.630371094	-0.215576172	892.02	-35.12051467	-18.21445558	-148.367881	-62
13471	0	0.119384766	-0.214477539	0.312255859	0.999999046	1.14441E-05	-0.000212669	-2.28882E-05	2.984619141	-5.361938477	7.806396484	0.000572205	-0.010633469	-0.001144409	-0.72265625	0.630371094	-0.215576172	892.04	-35.11873988	-18.23885326	-148.3589333	-62
13472	0	0.12209034	-0.215624809	0.310255051	0.999999046	-6.77109E-05	-0.000352859	3.05176E-05	3.052258492	-5.390620232	7.756376266	-0.003385544	-0.017642975	0.001525879	-0.722412109	0.630371094	-0.218505859	892.08	-35.1307447	-18.27279081	-148.3363407	-62
13473	0	0.123474121	-0.216186523	0.30871582	0.999999046	-1.90735E-05	-0.000266075	-1.52588E-05	3.086853027	-5.404663086	7.717895508	-0.000953674	-0.013303757	-0.000762939	-0.722412109	0.628173828	-0.218261719	892.08	-35.13395266	-18.30160632	-148.3265607	-62
13474	0	0.12401104	-0.216134071	0.308823586	0.999999046	-0.000221252	0.000108719	4.19617E-05	3.100275993	-5.403351784	7.720589638	-0.011062622	0.005435944	0.002098084	-0.722412109	0.628173828	-0.212402344	892.02	-35.15399847	-18.29153095	-148.3342955	-62
13475	0	0.122741699	-0.215393066	0.310302734	0.999999046	-9.15527E-05	0.000145912	0.000133514	3.06854248	-5.38482666	7.757568359	-0.004577637	0.007295609	0.00667572	-0.72265625	0.630371094	-0.215576172	892.04	-35.16118965	-18.27186834	-148.3350195	-62
13476	0	0.122410774	-0.216337204	0.309077263	0.999999046	-0.000180244	0.000211716	0.00033474	3.060269356	-5.408430099	7.726931572	-0.009012223	0.010585785	0.016736985	-0.722412109	0.628173828	-0.212402344	892.14	-35.18338872	-18.23269916	-148.3220937	-62
13477	0	0.120666504	-0.216430664	0.311157227	0.999999046	0.000415802	-7.53403E-05	0.000450134	3.016662598	-5.410766602	7.778930664	0.020790101	-0.003767014	0.022506715	-0.724853516	0.630615234	-0.215332031	892.02	-35.14706789	-18.21264872	-148.2789873	-62
13478	0	0.121190071	-0.216648102	0.31040287	0.999999046	0.000608444	-7.82013E-05	0.000349998	3.029751778	-5.416202545	7.760071754	0.030422213	-0.003910065	0.017499925	-0.72265625	0.632568359	-0.215576172	891.98	-35.08567497	-18.19938194	-148.2415795	-62
13479	0	0.120361328	-0.217468262	0.310546875	0.999999046	0.000244141	-2.57492E-05	-0.000179291	3.009033203	-5.436706543	7.763671875	0.012207031	-0.00128746	-0.008964539	-0.720214844	0.630371094	-0.212646484	892.04	-35.04865439	-18.21590779	-148.2582189	-62
13480	0	0.120942116	-0.213794708	0.311254501	0.999999046	-4.76837E-06	0.000135422	-0.000329018	3.023552895	-5.344867706	7.781362534	-0.000238419	0.006771088	-0.016450882	-0.722412109	0.628173828	-0.221191406	892.16	-35.03194551	-18.22704803	-148.3086959	-62
13481	0	0.122680664	-0.215515137	0.310302734	0.999999046	-0.00018692	0.000229836	-0.000286102	3.067016602	-5.387878418	7.757568359	-0.009346009	0.011491776	-0.014305115	-0.719970703	0.630371094	-0.218505859	892	-35.03541658	-18.2264636	-148.354374	-62
13482	0	0.123515129	-0.214035034	0.310828209	0.999999046	-0.000173569	0.000196457	-5.81741E-05	3.087878227	-5.350875854	7.770705223	-0.008678436	0.009822846	-0.002908707	-0.719970703	0.630371094	-0.221435547	892.08	-35.04507241	-18.21403927	-148.3766126	-62
13483	0	0.119750977	-0.21484375	0.311096191	0.999999046	-0.000213623	0.00011158	-1.90735E-05	2.993774414	-5.37109375	7.777404785	-0.010681152	0.005578995	-0.000953674	-0.722412109	0.628173828	-0.215332031	891.98	-35.06233836	-18.20684239	-148.3906458	-62
13484	0	0.119934082	-0.215950012	0.312434196	0.999999046	0.000277519	-0.000185013	7.15256E-05	2.998352051	-5.398750305	7.810854912	0.013875962	-0.009250641	0.003576279	-0.722412109	0.630371094	-0.218505859	892.1	-35.03251392	-18.22132533	-148.3738845	-62
13485	0	0.123168945	-0.213989258	0.311828613	0.999999046	0.000389099	-0.000166893	0.000110626	3.079223633	-5.349731445	7.795715332	0.019454957	-0.008344651	0.005531311	-0.722412109	0.630371094	-0.221435547	892.04	-34.99063273	-18.23154566	-148.3558607	-62
13486	0	0.12035656	-0.215971947	0.310734749	0.999999046	-7.82013E-05	-1.33514E-05	-0.000114441	3.008913994	-5.399298668	7.768368721	-0.003910065	-0.000667572	-0.005722046	-0.722412109	0.628173828	-0.221191406	892.1	-34.99206714	-18.24200583	-148.3729133	-62
13487	0	0.120788574	-0.218994141	0.31060791	0.999999046	6.10352E-05	-0.000117302	-0.000198364	3.019714355	-5.474853516	7.765197754	0.003051758	-0.005865097	-0.009918213	-0.724853516	0.628173828	-0.220947266	892.08	-34.97738012	-18.26759063	-148.3921371	-62
13488	0	0.121618271	-0.215612411	0.310116768	0.999999046	0.000128746	-4.57764E-05	-0.000313759	3.040456772	-5.390310287	7.752919197	0.006437302	-0.002288818	-0.015687943	-0.724853516	0.628173828	-0.218017578	892.1	-34.94984504	-18.29395004	-148.4247714	-63
13489	0	0.124145508	-0.21270752	0.308654785	0.999999046	2.28882E-05	0.000119209	-0.000202179	3.103637695	-5.317687988	7.716369629	0.001144409	0.005960465	-0.010108948	-0.722412109	0.628173828	-0.218261719	891.98	-34.93429396	-18.29755543	-148.4549005	-62
13490	0	0.119581223	-0.216612816	0.311256409	0.999999046	-1.33514E-05	0.000127792	5.62668E-05	2.989530563	-5.415320396	7.781410217	-0.000667572	0.006389618	0.002813339	-0.722412109	0.628173828	-0.224121094	892.04	-34.93081632	-18.28318383	-148.4632544	-63
13491	0	0.122009277	-0.213623047	0.311523438	0.999999046	7.62939E-05	0.00036335	8.7738E-05	3.050231934	-5.340576172	7.788085938	0.003814697	0.018167496	0.004386902	-0.724609375	0.625976563	-0.218017578	892.04	-34.91288936	-18.24455682	-148.4859913	-62
13492	0	0.124615669	-0.212133408	0.309692383	0.999999046	-0.000567436	0.000720978	6.77109E-05	3.115391731	-5.30333519	7.74230957	-0.028371815	0.036048894	0.003385544	-0.722412109	0.628173828	-0.224121094	892.1	-34.96035384	-18.17377311	-148.5344128	-62
13493	0	0.120910645	-0.218566895	0.309875488	0.999999046	-0.000495911	0.000653267	0.000175476	3.022766113	-5.464172363	7.746887207	-0.024795535	0.032663349	0.008773805	-0.724609375	0.628173828	-0.223876953	892.08	-35.00464713	-18.10221162	-148.56998	-63
13494	0	0.118839264	-0.214097977	0.313053131	0.999999046	0.000188828	0.000482559	0.000347137	2.970981598	-5.352449417	7.826328278	0.009441376	0.024127962	0.017356874	-0.724609375	0.628173828	-0.223876953	892.1	-34.9793251	-18.03523179	-148.5771588	-63
13495	0	0.11907959	-0.215393066	0.312011719	0.999999046	-9.53674E-05	0.000210762	0.000202179	2.976989746	-5.38482666	7.800292969	-0.004768372	0.010538101	0.010108948	-0.722412109	0.630371094	-0.221435547	891.98	-34.98795143	-18.00316173	-148.5738999	-62
13496	0	0.116784096	-0.220139503	0.31232357	0.999999046	0.000342369	-0.000169754	5.72205E-05	2.919602394	-5.503487587	7.808089256	0.017118454	-0.008487702	0.002861023	-0.722412109	0.630371094	-0.221435547	892.08	-34.95029919	-18.01607385	-148.5582421	-62
13497	0	0.120849609	-0.213500977	0.310546875	0.999999046	0.000202179	-0.000113487	-4.19617E-05	3.021240234	-5.337524414	7.763671875	0.010108948	-0.005674362	-0.002098084	-0.722412109	0.630371094	-0.221435547	892.08	-34.92442907	-18.03022405	-148.5557904	-62
13498	0	0.124357224	-0.219590187	0.312560081	0.999999046	0.000253677	-0.000242233	-0.000328064	3.108930588	-5.489754677	7.814002037	0.012683869	-0.012111664	-0.016403199	-0.722412109	0.628173828	-0.221191406	892.1	-34.88680515	-18.07532506	-148.5741422	-62
13499	0	0.120239258	-0.209655762	0.311767578	0.999999046	0.000453949	-0.000323296	-0.000595093	3.005981445	-5.241394043	7.794189453	0.022697451	-0.016164781	-0.029754642	-0.722167969	0.625976563	-0.220947266	892.14	-34.81947954	-18.14548719	-148.6135986	-62
13500	0	0.120632172	-0.212649345	0.309745789	0.999999046	-0.000172615	-0.000123978	-0.000247955	3.015804291	-5.316233635	7.743644714	-0.008630753	-0.006198883	-0.012397766	-0.724609375	0.625976563	-0.220947266	892.1	-34.83031902	-18.17413136	-148.6340563	-62
13501	0	0.121276855	-0.21661377	0.311035156	0.999999046	0.000530243	-0.00014019	1.14441E-05	3.031921387	-5.415344238	7.775878906	0.026512147	-0.007009507	0.000572205	-0.724609375	0.625976563	-0.2265625	891.98	-34.76908434	-18.18726713	-148.6301694	-62
13502	0	0.123678207	-0.206706047	0.310303688	0.999999046	0.000219345	0.000108719	-0.00042057	3.091955185	-5.167651176	7.757592201	0.010967255	0.005435944	-0.02102852	-0.724609375	0.628173828	-0.226806641	892.1	-34.72448433	-18.2053289	-148.6814665	-62
13503	0	0.116577148	-0.224731445	0.307006836	0.999997139	-0.002071381	0.000130653	-7.62939E-05	2.914428711	-5.618286133	7.675170898	-0.103569105	0.006532674	-0.0038147	-0.727050781	0.625976563	-0.220703125	892.08	-34.95320245	-18.19856405	-148.7040248	-62
13504	0	0.113598824	-0.214037895	0.31005764	0.999998093	0.001857758	-0.000426292	-7.72476E-05	2.839970589	-5.35094738	7.751441002	0.092887935	-0.021314634	-0.003862383	-0.724609375	0.625976563	-0.218017578	892.08	-34.74362253	-18.24384344	-148.6815821	-62
13505	0	0.12512207	-0.200439453	0.309082031	0.999999046	-0.000431061	-7.15256E-05	-0.000682831	3.128051758	-5.010986328	7.727050781	-0.021553042	-0.003576279	-0.034141544	-0.727050781	0.623779297	-0.220458984	891.98	-34.76931815	-18.29558971	-148.7490175	-63
13506	0	0.131892204	-0.231841087	0.313379288	0.999998093	-0.001667976	2.19345E-05	-0.000442505	3.297305107	-5.796027184	7.834482193	-0.08339886	0.001096726	-0.022125255	-0.726806641	0.623779297	-0.223388672	892.08	-34.94292421	-18.32317757	-148.8009738	-63
13507	0	0.124328613	-0.206787109	0.308654785	0.999998093	0.001488686	-0.000427246	-0.000534058	3.108215332	-5.169677734	7.716369629	0.074434314	-0.021362314	-0.026702893	-0.729248047	0.621582031	-0.220214844	892.08	-34.76135884	-18.39915225	-148.8307785	-63
13508	0	0.116398811	-0.210122108	0.314919472	0.999999046	-0.00092411	-0.000284195	-0.000770569	2.909970284	-5.253052711	7.872986794	-0.046205532	-0.014209751	-0.038528452	-0.729492188	0.624023438	-0.217529297	892.1	-34.84540422	-18.47673537	-148.8878548	-63
13509	0	0.122253418	-0.219726563	0.31048584	0.999999046	-9.53674E-05	-0.000369072	-0.000240326	3.056335449	-5.493164063	7.762145996	-0.004768372	-0.018453599	-0.012016297	-0.729248047	0.621582031	-0.220214844	892.08	-34.85323344	-18.52749999	-148.8906649	-63
13510	0	0.127463341	-0.210507393	0.305407524	0.999999046	0.000144958	-0.000328064	8.67844E-05	3.186583519	-5.262684822	7.635188103	0.007247925	-0.016403199	0.004339218	-0.731689453	0.619384766	-0.219970703	892.02	-34.84293316	-18.55324836	-148.8692267	-63
13511	0	0.125610352	-0.217285156	0.309936523	0.999999046	-9.91821E-05	0.000142097	1.90735E-05	3.140258789	-5.432128906	7.748413086	-0.004959106	0.007104874	0.000953674	-0.729248047	0.619384766	-0.219970703	892.06	-34.84831465	-18.53924265	-148.8844131	-63
13512	0	0.123133659	-0.215520859	0.309622765	0.999999046	-0.000178337	0.000167847	-0.000405312	3.078341484	-5.388021469	7.740569115	-0.008916855	0.008392334	-0.02026558	-0.729248047	0.619384766	-0.219970703	892.08	-34.84890887	-18.55053647	-148.9420138	-63
13513	0	0.122680664	-0.212341309	0.309692383	0.999999046	-0.000164032	0.000130653	-0.000556946	3.067016602	-5.308532715	7.74230957	-0.0082016	0.006532669	-0.027847292	-0.729248047	0.619384766	-0.217041016	892.04	-34.8438256	-18.57518779	-149.0083918	-62
13514	0	0.12417984	-0.212610245	0.309593201	0.999999046	-0.000324249	-8.58307E-05	-0.000317574	3.104496002	-5.315256119	7.739830017	-0.016212464	-0.004291535	-0.015878678	-0.731689453	0.619628906	-0.217041016	892.08	-34.86937394	-18.60453195	-149.037356	-63
13515	0	0.122314453	-0.21081543	0.309631348	0.999999046	-0.000514984	-0.000422478	-0.00018692	3.057861328	-5.270385742	7.740783691	-0.025749209	-0.021123888	-0.009346009	-0.731689453	0.619384766	-0.219970703	892.1	-34.9282182	-18.65689385	-149.0324179	-63
13516	0	0.121922493	-0.212125778	0.308637619	0.999999046	-0.000948906	-0.000574112	-0.0001297	3.048062325	-5.303144455	7.715940475	-0.047445307	-0.028705603	-0.006484987	-0.733886719	0.619628906	-0.219726563	892.1	-35.04194773	-18.71961958	-149.0137992	-62
13517	0	0.125366211	-0.217712402	0.309570313	0.999999046	-0.000999451	-0.000605583	-0.00031662	3.134155273	-5.442810059	7.739257813	-0.049972546	-0.030279167	-0.015830998	-0.731689453	0.621826172	-0.217285156	892.14	-35.15641378	-18.79754736	-149.004802	-62
13518	0	0.129357338	-0.220625877	0.306958199	0.999999046	-0.000743866	-0.00053215	-0.000142097	3.233933449	-5.515646935	7.673954964	-0.037193304	-0.026607517	-0.007104875	-0.734130859	0.619628906	-0.213867188	892.02	-35.24584584	-18.8572135	-148.9875595	-62
13519	0	0.129394531	-0.214782715	0.30682373	0.999999046	0.00050354	-0.000273705	-0.000179291	3.234863281	-5.369567871	7.670593262	0.025177003	-0.013685227	-0.008964539	-0.733886719	0.617431641	-0.213867188	892.08	-35.18532015	-18.89531281	-148.9936316	-63
13520	0	0.127382278	-0.213328362	0.308860779	0.999999046	-0.000374794	6.67572E-05	-0.000320435	3.184556961	-5.333209038	7.72151947	-0.018739701	0.00333786	-0.016021729	-0.734130859	0.617431641	-0.2109375	892.16	-35.21310505	-18.91089519	-149.0350078	-62
13521	0	0.128295898	-0.219848633	0.309265137	0.999999046	-7.62939E-06	0.000126839	-0.000286102	3.207397461	-5.49621582	7.731628418	-0.00038147	0.006341934	-0.014305115	-0.734130859	0.617431641	-0.2109375	892.16	-35.19871136	-18.91860224	-149.0758848	-62
13522	0	0.130598068	-0.214102745	0.308744431	0.999999046	0.000528336	0.000141144	-0.000133514	3.264951706	-5.352568626	7.718610764	0.02641678	0.00705719	-0.006675721	-0.736328125	0.615234375	-0.213378906	892.1	-35.12739734	-18.91504878	-149.1081998	-63
13523	0	0.12902832	-0.214477539	0.30670166	0.999999046	0.000484467	0.000206947	4.95911E-05	3.225708008	-5.361938477	7.667541504	0.024223329	0.010347367	0.002479553	-0.736328125	0.615234375	-0.216308594	892.08	-35.0655464	-18.89335228	-149.1278733	-63
13524	0	0.126254082	-0.211259842	0.310437202	0.999999046	0.000660896	0.000295639	-5.43594E-05	3.156352043	-5.281496048	7.760930061	0.033044818	0.014781953	-0.002717972	-0.736083984	0.615234375	-0.219238281	892.16	-34.97796291	-18.87012181	-149.1640742	-63
13525	0	0.126831055	-0.215576172	0.308837891	0.999999046	-0.000133514	0.00049305	-0.000278473	3.170776367	-5.389404297	7.720947266	-0.006675721	0.024652482	-0.013923646	-0.736328125	0.615234375	-0.213378906	892.1	-34.96989554	-18.84304048	-149.2312741	-63
13526	0	0.127133369	-0.214734077	0.310065269	0.999999046	0.000297546	0.000171661	-0.000171661	3.178334236	-5.368351936	7.751631737	0.01487732	0.008583069	-0.008583069	-0.736083984	0.613037109	-0.216064453	892.02	-34.92307949	-18.83911374	-149.2690315	-63
13527	0	0.127319336	-0.209838867	0.309936523	0.999999046	0.00038147	3.91006E-05	-5.34058E-05	3.182983398	-5.24597168	7.748413086	0.019073487	0.001955032	-0.002670288	-0.736083984	0.615234375	-0.222167969	892.08	-34.87321056	-18.83992931	-149.285479	-62
13528	0	0.123106003	-0.211177826	0.30906868	0.999999046	-0.000498772	-0.000108719	-0.000328064	3.07765007	-5.279445648	7.726716995	-0.024938585	-0.005435944	-0.016403199	-0.738769531	0.615234375	-0.216308594	892.14	-34.91861	-18.8725072	-149.3171969	-62
13529	0	0.120666504	-0.218811035	0.308898926	0.999999046	-0.000255585	-0.00020504	-0.000396729	3.016662598	-5.470275879	7.722473145	-0.012779236	-0.010251999	-0.019836427	-0.736083984	0.613037109	-0.216064453	892.08	-34.93631848	-18.91832804	-149.3483448	-62
13530	0	0.124811172	-0.218381882	0.307454109	0.999999046	-0.000141144	-0.000299454	-8.4877E-05	3.120279312	-5.459547043	7.68635273	-0.00705719	-0.014972687	-0.004243851	-0.736328125	0.613037109	-0.213378906	892.04	-34.95331814	-18.95244486	-149.3402061	-62
13531	0	0.131286621	-0.211914063	0.305114746	0.999999046	-0.000179291	-1.43051E-05	0.0001297	3.282165527	-5.297851563	7.627868652	-0.008964539	-0.000715256	0.006484985	-0.738525391	0.613037109	-0.216064453	892.02	-34.97520718	-18.94597392	-149.3349868	-63
13532	0	0.132217407	-0.210838318	0.308452606	0.999999046	-0.000102043	0.000341415	0.000232697	3.305435181	-5.270957947	7.711315155	-0.005102158	0.017070771	0.011634827	-0.738525391	0.613037109	-0.216064453	892.02	-34.98341479	-18.89962142	-149.344766	-62
13533	0	0.12298584	-0.216369629	0.308410645	0.999999046	-0.000991821	0.000180244	0.000167847	3.074645996	-5.409240723	7.710266113	-0.049591073	0.009012224	0.008392335	-0.738525391	0.613037109	-0.218994141	892.04	-35.09523618	-18.87246834	-149.3533372	-63
13534	0	0.116024971	-0.221541405	0.309966087	0.999999046	0.000612259	-0.000394821	0.000159264	2.900624275	-5.538535118	7.749152184	0.030612948	-0.01974106	0.007963181	-0.736328125	0.615234375	-0.210449219	892.1	-35.03616668	-18.89923102	-149.3109676	-62
13535	0	0.13092041	-0.197509766	0.307800293	0.999999046	-0.000713348	0.0001688	-0.000469208	3.273010254	-4.937744141	7.695007324	-0.035667424	0.008440019	-0.023460391	-0.736083984	0.613037109	-0.216064453	892.04	-35.09538998	-18.91489023	-149.3763983	-62
13536	0	0.13182354	-0.226509094	0.305506706	0.999997139	-0.001942635	0.00028801	-0.000477791	3.295588493	-5.662727356	7.637667656	-0.097131795	0.014400492	-0.023889558	-0.738525391	0.613037109	-0.213134766	892.1	-35.29312722	-18.92026947	-149.45201	-63
13537	0	0.127380371	-0.216918945	0.308837891	0.999999046	-0.000255585	-9.05991E-05	-0.00075531	3.184509277	-5.422973633	7.720947266	-0.012779237	-0.004529953	-0.037765507	-0.738769531	0.615234375	-0.210449219	892.08	-35.2972089	-18.97955798	-149.5211136	-62
13538	0	0.124934196	-0.201996803	0.310359001	0.99998951	-0.004495621	-6.86646E-05	-0.000686646	3.123354912	-5.049920082	7.758975029	-0.224781811	-0.003433239	-0.034332394	-0.740966797	0.610839844	-0.209960938	892.04	-35.78818691	-19.03252883	-149.5977496	-62
13539	0	0.129333496	-0.215515137	0.304504395	0.99996376	-0.008479118	0.000644684	-0.000152588	3.233337402	-5.387878418	7.612609863	-0.423961029	0.032234581	-0.007629487	-0.738769531	0.61328125	-0.198486328	892.04	-36.73616682	-18.9843823	-149.6698578	-62
13540	0	0.129506111	-0.233119965	0.29709816	0.999993324	-0.003334999	0.000436783	0.000454903	3.237652779	-5.827999115	7.427453995	-0.166750274	0.021839184	0.022745176	-0.739257813	0.617675781	-0.193115234	892.02	-37.11917902	-18.91432193	-149.6640964	-62
13541	0	0.127197266	-0.227294922	0.299499512	0.999999046	-0.000175476	0.000317574	0.000507355	3.179931641	-5.682373047	7.487487793	-0.008773804	0.015878678	0.025367738	-0.739257813	0.620117188	-0.190429688	892.1	-37.14462507	-18.85153094	-149.6406388	-63
13542	0	0.125248909	-0.228870392	0.30023098	0.999999046	-9.53674E-05	0.000305176	3.8147E-05	3.131222725	-5.721759796	7.505774498	-0.004768372	0.015258789	0.001907349	-0.739257813	0.620117188	-0.190429688	892.04	-37.1466908	-18.82225015	-149.6614255	-63
13543	0	0.125427246	-0.226867676	0.298278809	0.999999046	0.000549316	0.000454903	-0.000141144	3.135681152	-5.671691895	7.456970215	0.027465823	0.022745134	-0.007057191	-0.739013672	0.617675781	-0.196044922	892.02	-37.06591822	-18.79164053	-149.7161973	-63
13544	0	0.127595901	-0.223875999	0.301997185	0.999999046	0.000409126	0.000318527	-0.00018692	3.189897537	-5.596899986	7.549929619	0.020456315	0.015926362	-0.009346009	-0.736816406	0.617675781	-0.193115234	892.1	-37.00292189	-18.77667006	-149.759332	-63
13545	0	0.123901367	-0.225891113	0.30255127	0.999999046	0.000328064	-4.86374E-05	0.000114441	3.09753418	-5.647277832	7.563781738	0.016403199	-0.00243187	0.005722046	-0.741699219	0.617919922	-0.192871094	892.08	-36.96719682	-18.77436569	-149.7506988	-63
13546	0	0.124733925	-0.223587036	0.300060272	0.999999046	0.000383377	-0.000450134	0.000358582	3.118348122	-5.589675903	7.501506805	0.019168855	-0.022506716	0.017929079	-0.739013672	0.617675781	-0.198974609	892	-36.94212483	-18.79198552	-149.6921415	-63
13547	0	0.128601074	-0.224182129	0.300537109	0.999999046	0.00037384	-0.000498772	0.000564575	3.215026855	-5.604553223	7.513427734	0.018692019	-0.024938586	0.028228763	-0.739257813	0.619873047	-0.193359375	892.04	-36.92571464	-18.8000416	-149.6043507	-63
13548	0	0.128584862	-0.226604462	0.301614761	0.999999046	0.000416756	-0.000389099	0.000647545	3.214621544	-5.665111542	7.540369034	0.020837786	-0.019454958	0.032377247	-0.739257813	0.617675781	-0.193115234	892.02	-36.90447465	-18.79246571	-149.521426	-63
13549	0	0.126831055	-0.225646973	0.300537109	0.999999046	0.000289917	-0.000201225	0.000297546	3.170776367	-5.641174316	7.513427734	0.01449585	-0.010061264	0.01487732	-0.739257813	0.617675781	-0.193115234	892.1	-36.88252368	-18.79181751	-149.486473	-63
13550	0	0.127184868	-0.225914001	0.303240776	0.999999046	0.00028038	-9.72748E-05	-7.34329E-05	3.179621696	-5.647850037	7.581019402	0.014019013	-0.004863739	-0.003671646	-0.736816406	0.619873047	-0.190429688	892.1	-36.84766459	-18.80717313	-149.4862945	-63
13551	0	0.128112793	-0.224304199	0.302062988	0.999999046	8.39233E-05	-1.81198E-05	-0.000141144	3.202819824	-5.60760498	7.551574707	0.004196167	-0.000905991	-0.00705719	-0.739257813	0.622070313	-0.196289063	892.1	-36.83133094	-18.82000121	-149.5010418	-63
13552	0	0.127088547	-0.223424911	0.302583694	0.999999046	0.000123024	-0.000139236	-0.00037384	3.177213669	-5.585622787	7.564592361	0.0061512	-0.006961823	-0.018692017	-0.736572266	0.617675781	-0.198974609	892.16	-36.80599836	-18.85994055	-149.5340327	-63
13553	0	0.125976563	-0.22479248	0.301696777	0.999999046	0.000156403	-0.000121117	-0.000377655	3.149414063	-5.619812012	7.542419434	0.00782013	-0.006055832	-0.018882752	-0.736816406	0.619873047	-0.19921875	892.08	-36.77629998	-18.89842094	-149.5639941	-63
13554	0	0.127378464	-0.223870277	0.300270081	0.999999046	0.000133514	-0.000164032	-0.000240326	3.184461594	-5.596756935	7.506752014	0.00667572	-0.008201599	-0.012016297	-0.739257813	0.617675781	-0.193115234	892.02	-36.75457273	-18.9314483	-149.5778627	-63
13555	0	0.128051758	-0.22454834	0.299560547	0.999999046	-0.000228882	-2.19345E-05	-0.000209808	3.201293945	-5.613708496	7.489013672	-0.011444092	-0.001096725	-0.010490418	-0.739257813	0.617675781	-0.193115234	892.1	-36.77208982	-18.94940184	-149.5984913	-63
13556	0	0.123888016	-0.227441788	0.300914764	0.999999046	6.96182E-05	-6.86646E-05	-8.4877E-05	3.097200394	-5.686044693	7.52286911	0.003480911	-0.003433228	-0.004243851	-0.739013672	0.615478516	-0.198730469	892.08	-36.76061645	-18.96288853	-149.6102953	-63
13557	0	0.126647949	-0.220336914	0.300231934	0.999999046	4.19617E-05	-3.71933E-05	-0.000164032	3.16619873	-5.508422852	7.50579834	0.002098084	-0.001859665	-0.008201599	-0.741455078	0.617675781	-0.198730469	892.14	-36.74896542	-18.97893332	-149.6302308	-63
13558	0	0.125707626	-0.227351189	0.301339149	0.999999046	-4.57764E-05	-7.82013E-05	-0.000164032	3.142690659	-5.683779716	7.533478737	-0.002288818	-0.003910065	-0.008201599	-0.741455078	0.615478516	-0.198486328	892.16	-36.7484988	-18.99862858	-149.6496698	-62
13559	0	0.129638672	-0.221557617	0.299682617	0.999999046	0.000232697	-0.000105858	-3.8147E-06	3.240966797	-5.53894043	7.49206543	0.011634827	-0.005292893	-0.000190735	-0.741455078	0.617675781	-0.198730469	892.14	-36.72180422	-19.01002879	-149.6477076	-63
13560	0	0.130314827	-0.221416473	0.302259445	0.999999046	0.000103951	-0.000110626	9.15527E-05	3.257870674	-5.535411835	7.55648613	0.005197525	-0.005531311	0.004577637	-0.739013672	0.61328125	-0.195556641	892.16	-36.71288311	-19.0154753	-149.6382693	-63
13561	0	0.13092041	-0.219421387	0.30279541	0.999999046	0.000106812	4.76837E-06	-0.000286102	3.273010254	-5.485534668	7.569885254	0.005340576	0.000238419	-0.014305115	-0.741455078	0.615478516	-0.195800781	891.94	-36.68873929	-19.03636325	-149.6717162	-63
13562	0	0.127447128	-0.228989601	0.301502228	0.999999046	-0.000522614	-8.96454E-05	-1.90735E-05	3.186178207	-5.724740028	7.537555695	-0.026130677	-0.004482269	-0.000953674	-0.741455078	0.615478516	-0.192871094	892.02	-36.74767348	-19.04756329	-149.6706914	-63
13563	0	0.130432129	-0.218811035	0.302856445	0.999999046	0.001060486	-0.000277519	2.28882E-05	3.260803223	-5.470275879	7.571411133	0.053024303	-0.013875964	0.001144409	-0.741455078	0.61328125	-0.195556641	892.14	-36.63072186	-19.07329778	-149.6559514	-62
13564	0	0.132421494	-0.219640732	0.302760124	0.999999046	-0.000546455	0.000200272	-0.000184059	3.310537338	-5.491018295	7.569003105	-0.027322771	0.010013581	-0.009202958	-0.741210938	0.615478516	-0.201416016	892.08	-36.6798709	-19.06949356	-149.6963348	-63
13565	0	0.129394531	-0.225830078	0.301330566	0.999999046	0.000167847	-2.57492E-05	-0.000133514	3.234863281	-5.645751953	7.53326416	0.008392334	-0.00128746	-0.00667572	-0.741455078	0.61328125	-0.195556641	892.04	-36.65425673	-19.08304395	-149.7137862	-63
13566	0	0.125319481	-0.222642899	0.304083824	0.999999046	7.62939E-06	-0.000196457	-1.90735E-05	3.132987022	-5.566072464	7.602095604	0.00038147	-0.009822846	-0.000953674	-0.741455078	0.615478516	-0.195800781	892.1	-36.65459648	-19.10427886	-149.7043012	-63
13567	0	0.125671387	-0.224060059	0.302001953	0.999999046	0.000156403	-0.000239372	0.000286102	3.141784668	-5.601501465	7.550048828	0.00782013	-0.011968613	0.014305115	-0.741455078	0.615478516	-0.195800781	892.08	-36.6486704	-19.1084375	-149.6627709	-62
13568	0	0.127215385	-0.219644547	0.30060482	0.999999046	0.000206947	-0.00021553	0.000311852	3.180384636	-5.491113663	7.515120506	0.010347367	-0.01077652	0.015592576	-0.739013672	0.61328125	-0.192626953	892.02	-36.63711006	-19.10864081	-149.6199022	-63
13569	0	0.128540039	-0.22668457	0.299743652	0.999999046	-0.000511169	0.000218391	0.000396729	3.213500977	-5.667114258	7.493591309	-0.025558474	0.010919572	0.019836427	-0.741455078	0.61328125	-0.195556641	892.04	-36.70049014	-19.06313562	-149.6066057	-63
13570	0	0.129694939	-0.226239204	0.299079895	0.999999046	0.000106812	0.000402451	0.000473022	3.242373466	-5.65598011	7.476997375	0.005340577	0.020122529	0.023651125	-0.741455078	0.615478516	-0.195800781	892.04	-36.69131981	-18.9955713	-149.5968325	-63
13571	0	0.127502441	-0.223388672	0.300964355	0.999999046	-0.000320435	0.000500679	0.000541687	3.187561035	-5.584716797	7.524108887	-0.01602173	0.025033954	0.027084354	-0.741455078	0.615478516	-0.195800781	891.94	-36.73097888	-18.91427954	-149.5893251	-63
13572	0	0.127755165	-0.220181465	0.301561356	0.999999046	9.25064E-05	0.000577927	0.000362396	3.193879128	-5.504536629	7.53903389	0.004625321	0.028896334	0.018119813	-0.741455078	0.617675781	-0.195800781	892.1	-36.71572233	-18.83824139	-149.6018744	-63
13573	0	0.128295898	-0.228088379	0.301269531	0.999999046	-0.000278473	0.000409126	0.000400543	3.207397461	-5.702209473	7.531738281	-0.013923646	0.020456315	0.020027162	-0.736572266	0.615478516	-0.196044922	892.08	-36.74834565	-18.7751354	-149.5984161	-63
13574	0	0.125733376	-0.222072601	0.303689957	0.999999046	2.09808E-05	2.09808E-05	0.000358582	3.143334389	-5.551815033	7.592248917	0.001049042	0.001049042	0.017929078	-0.739013672	0.617675781	-0.198974609	892.16	-36.7542424	-18.7505127	-149.5731876	-62
13575	0	0.12512207	-0.224609375	0.302185059	0.999999046	9.91821E-05	-0.000113487	0.000289917	3.128051758	-5.615234375	7.554626465	0.004959107	-0.005674362	0.01449585	-0.736572266	0.615234375	-0.201660156	891.98	-36.75218172	-18.74288629	-149.5488759	-62
13576	0	0.125914574	-0.225782394	0.302566528	0.999999046	0.000144005	-0.000242233	0.000125885	3.147864342	-5.64455986	7.564163208	0.007200241	-0.012111664	0.006294251	-0.736572266	0.617675781	-0.198974609	892.02	-36.74292735	-18.75829946	-149.5253131	-62
13577	0	0.12890625	-0.222290039	0.302856445	0.999999046	-2.67029E-05	9.53674E-07	0.00019455	3.22265625	-5.557250977	7.571411133	-0.001335144	4.76837E-05	0.009727478	-0.739013672	0.617675781	-0.198974609	892.04	-36.74961584	-18.74681399	-149.5157229	-63
13578	0	0.129122734	-0.226629257	0.301623344	0.999999046	3.62396E-05	1.90735E-06	0.000166893	3.228068352	-5.66573143	7.540583611	0.001811981	9.53674E-05	0.00834465	-0.739013672	0.617675781	-0.196044922	892.04	-36.74833271	-18.73725973	-149.5068934	-63
13579	0	0.12677002	-0.221069336	0.303405762	0.999999046	0.000217438	4.29153E-05	0.00018692	3.169250488	-5.526733398	7.585144043	0.010871887	0.002145767	0.009346008	-0.736816406	0.619873047	-0.19921875	892.1	-36.72578503	-18.72260781	-149.4958059	-63
13580	0	0.122876167	-0.225012779	0.301499367	0.999999046	-2.19345E-05	4.95911E-05	0.000197411	3.071904182	-5.625319481	7.537484169	-0.001096725	0.002479553	0.009870529	-0.739013672	0.617675781	-0.198974609	891.94	-36.73091028	-18.70646891	-149.4902011	-63
13581	0	0.124389648	-0.225036621	0.299804688	0.999999046	0.000164032	-3.33786E-05	0.000221252	3.109741211	-5.625915527	7.495117188	0.008201599	-0.00166893	0.011062622	-0.736816406	0.619873047	-0.19921875	891.98	-36.71751318	-18.69626601	-149.4709298	-63
13582	0	0.128033638	-0.224384308	0.300906181	0.999999046	-1.14441E-05	4.19617E-05	0.000296593	3.20084095	-5.609607697	7.522654533	-0.000572205	0.002098084	0.014829636	-0.739013672	0.619873047	-0.201904297	892.08	-36.72487593	-18.67410217	-149.4548781	-63
13583	0	0.127380371	-0.225524902	0.301086426	0.999999046	6.10352E-05	0.000126839	0.0001297	3.184509277	-5.638122559	7.527160645	0.003051758	0.006341934	0.006484985	-0.739013672	0.617675781	-0.201904297	892.1	-36.71688567	-18.65565706	-149.4645333	-63
13584	0	0.124926567	-0.223201752	0.301754951	0.999999046	3.91006E-05	0.000196457	2.95639E-05	3.123164177	-5.580043793	7.543873787	0.001955032	0.009822846	0.001478195	-0.734375	0.619873047	-0.199462891	892.08	-36.70667903	-18.63765475	-149.4783828	-63
13585	0	0.126281738	-0.22253418	0.303466797	0.999999046	-6.48499E-05	0.00023365	3.8147E-05	3.157043457	-5.563354492	7.586669922	-0.003242493	0.01168251	0.001907349	-0.736816406	0.617675781	-0.196044922	892.04	-36.70770083	-18.61568181	-149.4974702	-63
