Counter	Temperature	VelInc_X	VelInc_Y	VelInc_Z	OriInc_w	OriInc_x	OriInc_y	OriInc_z	Acc_X	Acc_Y	Acc_Z	Gyr_X	Gyr_Y	Gyr_Z	Mag_X	Mag_Y	Mag_Z	Pressure	Roll	Pitch	Yaw	RSSI
29080	0	-0.015313148	-0.297379494	0.261075974	0.999889374	0.014345169	-0.00363636	0.000584602	-0.382828712	-7.434487343	6.526899338	0.717284678	-0.181824656	0.029231187	-0.523925781	0.4609375	-0.752441406	891.74	-48.54764462	2.212666602	147.5153266	-78
29081	0	-0.010681152	-0.277404785	0.273681641	0.99996376	0.008255959	-0.002040863	0.000328064	-0.267028809	-6.935119629	6.842041016	0.412802911	-0.102044384	0.016403396	-0.528076172	0.443115234	-0.756591797	891.68	-47.59482263	2.080616996	147.7307629	-77
29082	0	-0.010334969	-0.266529083	0.279811859	0.999999046	-9.53674E-06	-0.000263214	-0.000276566	-0.258374214	-6.663227081	6.995296478	-0.000476837	-0.013160706	-0.013828278	-0.532226563	0.434082031	-0.761474609	891.68	-47.59532325	2.032985423	147.7339355	-79
29083	0	-0.012939453	-0.283752441	0.274414063	0.999979973	-0.006267548	0.000603676	0.0001297	-0.323486328	-7.093811035	6.860351563	-0.313379452	0.030183992	0.006485028	-0.530029297	0.438476563	-0.759033203	891.62	-48.31402558	2.086338143	147.6843381	-79
29084	0	-0.015471458	-0.298473358	0.262251854	0.999975204	-0.006856918	0.000891685	-0.000174522	-0.386786461	-7.461833954	6.556296349	-0.342848651	0.04458463	-0.00872619	-0.528076172	0.4453125	-0.75390625	891.64	-49.10237161	2.134653651	147.5817069	-80
29085	0	-0.014038086	-0.307189941	0.257019043	0.999990463	-0.004248619	0.000713348	-0.000179291	-0.350952148	-7.679748535	6.425476074	-0.212431612	0.03566753	-0.008964566	-0.528808594	0.456542969	-0.74609375	891.64	-49.59180497	2.16808053	147.5076495	-80
29086	0	-0.015395164	-0.303032875	0.255712509	0.999998093	-0.001667976	0.000407219	9.15527E-05	-0.384879112	-7.575821877	6.392812729	-0.08339886	0.020360957	0.004577639	-0.526611328	0.461181641	-0.746582031	891.7	-49.78399062	2.201986563	147.4790326	-80
29087	0	-0.015380859	-0.300842285	0.259460449	0.999998093	-0.001391411	0.000160217	-4.19617E-05	-0.384521484	-7.521057129	6.48651123	-0.069570564	0.008010867	-0.002098084	-0.526611328	0.463378906	-0.746582031	891.68	-49.94395987	2.205827075	147.4610353	-80
29088	0	-0.015621185	-0.301618576	0.255747795	0.999998093	-0.001659393	0.000348091	-0.000156403	-0.390529633	-7.540464401	6.393694878	-0.082969706	0.017404565	-0.007820133	-0.526611328	0.465576172	-0.746826172	891.68	-50.13563093	2.213370503	147.4164788	-80
29089	0	-0.01574707	-0.303039551	0.254699707	0.999998093	-0.001433372	0.000404358	1.52588E-05	-0.393676758	-7.57598877	6.367492676	-0.071668651	0.020217903	0.00076294	-0.524414063	0.469970703	-0.747314453	891.62	-50.30116927	2.240009197	147.3787212	-79
29090	0	-0.016144753	-0.303401947	0.253389359	0.999999046	-0.001319885	0.000247955	-0.000130653	-0.403618813	-7.585048676	6.334733963	-0.065994283	0.01239777	-0.006532671	-0.524414063	0.469970703	-0.747314453	891.7	-50.45364637	2.242241468	147.3409255	-80
29091	0	-0.015441895	-0.306945801	0.250549316	0.999999046	-0.000549316	2.76566E-05	1.90735E-05	-0.386047363	-7.67364502	6.26373291	-0.027465822	0.001382828	0.000953674	-0.524658203	0.472167969	-0.744628906	891.68	-50.51685014	2.241552491	147.3384859	-79
29092	0	-0.016077995	-0.304904938	0.253264427	0.999999046	-0.000138283	-8.96454E-05	9.82285E-05	-0.401949883	-7.622623444	6.33161068	-0.006914139	-0.004482269	0.004911423	-0.524902344	0.474609375	-0.741943359	891.7	-50.53233642	2.239323493	147.3582245	-79
29093	0	-0.015197754	-0.305053711	0.253723145	0.999999046	-0.000339508	1.23978E-05	0.000114441	-0.379943848	-7.626342773	6.343078613	-0.016975403	0.000619888	0.005722046	-0.524658203	0.472412109	-0.738769531	891.7	-50.57118976	2.245928631	147.3704864	-79
29094	0	-0.015579224	-0.305465698	0.251745224	0.999999046	-0.000284195	-2.67029E-05	1.43051E-05	-0.389480591	-7.636642456	6.2936306	-0.014209748	-0.001335144	0.000715256	-0.524902344	0.474609375	-0.739013672	891.68	-50.60393188	2.240809175	147.3803565	-80
29095	0	-0.016052246	-0.306030273	0.251525879	0.999999046	-0.000320435	-2.95639E-05	-5.34058E-05	-0.401306152	-7.650756836	6.288146973	-0.016021729	-0.001478195	-0.002670288	-0.522460938	0.474365234	-0.741943359	891.68	-50.64110795	2.229496715	147.3775649	-79
29096	0	-0.015577316	-0.305828094	0.252245903	0.999999046	0.000134468	-0.000150681	4.1008E-05	-0.389432907	-7.645702362	6.306147575	0.006723404	-0.007534027	0.0020504	-0.527099609	0.474609375	-0.741699219	891.66	-50.62550559	2.217731499	147.3978257	-79
29097	0	-0.015991211	-0.305053711	0.253601074	0.999999046	0.000278473	-2.57492E-05	4.95911E-05	-0.399780273	-7.626342773	6.340026855	0.013923645	-0.00128746	0.002479553	-0.52734375	0.474609375	-0.738769531	891.68	-50.59377059	2.215822515	147.4125558	-79
29098	0	-0.016313553	-0.304667473	0.253526688	0.999999046	0.000234604	-6.29425E-05	-3.8147E-06	-0.407838821	-7.616686821	6.338167191	0.011730194	-0.003147125	-0.000190735	-0.524902344	0.474609375	-0.739013672	891.74	-50.56705925	2.206515993	147.4241243	-79
29099	0	-0.015808105	-0.304992676	0.252624512	0.999999046	4.57764E-05	-1.43051E-05	8.7738E-05	-0.395202637	-7.624816895	6.315612793	0.002288818	-0.000715256	0.004386902	-0.524658203	0.472412109	-0.741699219	891.7	-50.56192667	2.208866366	147.4314765	-79
29100	0	-0.015853882	-0.304234505	0.253018379	0.999999046	3.33786E-05	-4.19617E-05	0.000133514	-0.396347046	-7.605862617	6.32545948	0.00166893	-0.002098084	0.00667572	-0.524658203	0.469970703	-0.744384766	891.64	-50.55798436	2.213269505	147.4380059	-79
29101	0	-0.015319824	-0.30480957	0.253173828	0.999999046	-0.000171661	-2.86102E-06	7.62939E-05	-0.382995605	-7.620239258	6.329345703	-0.008583069	-0.000143051	0.003814697	-0.524658203	0.472412109	-0.741699219	891.7	-50.57782926	2.215435669	147.443066	-79
29102	0	-0.015669823	-0.304406166	0.254106522	0.999999046	-0.000164032	3.43323E-05	4.19617E-05	-0.391745567	-7.610154152	6.35266304	-0.008201599	0.001716614	0.002098084	-0.524658203	0.472412109	-0.741699219	891.7	-50.59696958	2.217267568	147.4419441	-79
29103	0	-0.016296387	-0.305541992	0.253234863	0.999999046	-0.000152588	-7.9155E-05	3.8147E-05	-0.407409668	-7.638549805	6.330871582	-0.007629395	-0.003957748	0.001907349	-0.524902344	0.476806641	-0.736083984	891.64	-50.6144214	2.210531112	147.4631458	-79
29104	0	-0.014997482	-0.304702759	0.252472878	0.999999046	-0.000103951	-8.01086E-05	-2.38419E-05	-0.374937057	-7.61756897	6.311821938	-0.005197525	-0.004005432	-0.001192093	-0.527099609	0.472412109	-0.738525391	891.62	-50.62648157	2.198204366	147.4729031	-79
29105	0	-0.014587402	-0.306213379	0.252624512	0.999999046	-7.24792E-05	-1.43051E-05	0.000152588	-0.364685059	-7.655334473	6.315612793	-0.003623962	-0.000715256	0.007629395	-0.524902344	0.474609375	-0.736083984	891.68	-50.63471021	2.206239242	147.4928865	-79
29106	0	-0.015283585	-0.30478096	0.252458572	0.999999046	9.34601E-05	-0.000131607	0.000159264	-0.382089615	-7.619524002	6.31146431	0.004673004	-0.006580353	0.007963181	-0.524658203	0.472412109	-0.738769531	891.64	-50.62351114	2.20632688	147.5168229	-79
29107	0	-0.015380859	-0.305297852	0.252441406	0.999999046	1.14441E-05	-8.29697E-05	1.90735E-05	-0.384521484	-7.632446289	6.311035156	0.000572205	-0.004148483	0.000953674	-0.524658203	0.472412109	-0.738769531	891.64	-50.62229205	2.197521455	147.5260067	-79
29108	0	-0.015533447	-0.304376602	0.252144814	0.999999046	-0.000149727	-0.000167847	-1.14441E-05	-0.388336182	-7.609415054	6.303620338	-0.007486343	-0.008392334	-0.000572205	-0.527099609	0.474609375	-0.744628906	891.62	-50.63934533	2.179846808	147.536653	-79
29109	0	-0.015686035	-0.305175781	0.252319336	0.999999046	-0.000259399	-1.43051E-05	6.10352E-05	-0.392150879	-7.629394531	6.307983398	-0.012969971	-0.000715256	0.003051758	-0.522216797	0.472167969	-0.741699219	891.8	-50.66930795	2.179772987	147.5339301	-79
29110	0	-0.015167236	-0.30493927	0.252649307	0.999999046	-0.000436783	-2.28882E-05	2.57492E-05	-0.379180908	-7.62348175	6.316232681	-0.021839143	-0.001144409	0.00128746	-0.524658203	0.472167969	-0.744628906	891.64	-50.71965188	2.17593509	147.5267415	-79
29111	0	-0.015197754	-0.306152344	0.250915527	0.999999046	-0.00025177	6.19888E-05	6.86646E-05	-0.379943848	-7.653808594	6.272888184	-0.012588501	0.003099442	0.003433228	-0.524902344	0.474609375	-0.736083984	891.68	-50.74902809	2.182044355	147.5299707	-79
29112	0	-0.015393257	-0.305911064	0.251918793	0.999999046	-0.000119209	5.91278E-05	8.7738E-05	-0.384831429	-7.647776604	6.297969818	-0.005960465	0.00295639	0.004386902	-0.524902344	0.476806641	-0.741943359	891.74	-50.76317281	2.189638004	147.5289358	-79
29113	0	-0.015258789	-0.30480957	0.251220703	0.999999046	-0.000366211	7.34329E-05	1.90735E-05	-0.381469727	-7.620239258	6.280517578	-0.018310547	0.003671646	0.000953674	-0.524902344	0.474609375	-0.739013672	891.64	-50.8058641	2.192161502	147.5222496	-80
29114	0	-0.015734673	-0.306336403	0.251543045	0.999999046	-0.000333786	8.2016E-05	5.34058E-05	-0.393366814	-7.658410072	6.288576126	-0.016689301	0.0041008	0.002670288	-0.524902344	0.476806641	-0.739013672	891.68	-50.84479774	2.198359874	147.5191643	-80
29115	0	-0.01550293	-0.305725098	0.250732422	0.999999046	-0.000267029	0.0001688	-4.95911E-05	-0.387573242	-7.643127441	6.268310547	-0.013351441	0.008440018	-0.002479553	-0.525146484	0.476806641	-0.733154297	891.7	-50.87668191	2.201672328	147.5091744	-80
29116	0	-0.015558243	-0.306594849	0.252637863	0.999999046	-0.000166893	1.90735E-06	-3.14713E-05	-0.38895607	-7.664871216	6.315946579	-0.00834465	9.53674E-05	-0.001573563	-0.524902344	0.474609375	-0.736083984	891.68	-50.89643945	2.194522422	147.5075495	-80
29117	0	-0.015625	-0.306518555	0.25177002	0.999999046	-0.000225067	6.96182E-05	-1.14441E-05	-0.390625	-7.662963867	6.294250488	-0.011253357	0.003480911	-0.000572205	-0.524902344	0.476806641	-0.739013672	891.74	-50.92302806	2.194049579	147.4993351	-81
29118	0	-0.015774727	-0.305839539	0.251446724	0.999999046	-0.000246048	1.33514E-05	0.000220299	-0.394368172	-7.645988464	6.286168098	-0.012302399	0.000667572	0.011014939	-0.525146484	0.476806641	-0.733154297	891.68	-50.95115282	2.210137313	147.5207606	-81
29119	0	-0.016052246	-0.306945801	0.249938965	0.999999046	-0.000209808	2.38419E-05	-3.05176E-05	-0.401306152	-7.67364502	6.248474121	-0.010490418	0.001192093	-0.001525879	-0.524902344	0.476806641	-0.739013672	891.74	-50.97592098	2.204687854	147.5137504	-81
29120	0	-0.015252113	-0.306625366	0.250846863	0.999999046	-0.000382423	-1.71661E-05	1.43051E-05	-0.381302834	-7.665634155	6.27117157	-0.019121171	-0.000858307	0.000715256	-0.525146484	0.479003906	-0.736328125	891.62	-51.02020027	2.200246327	147.519209	-81
29121	0	-0.01550293	-0.307556152	0.250549316	0.999999046	-6.86646E-05	0.000119209	1.52588E-05	-0.387573242	-7.688903809	6.26373291	-0.003433228	0.005960464	0.000762939	-0.524902344	0.476806641	-0.736083984	891.62	-51.02901814	2.205715494	147.5100698	-81
29122	0	-0.01630497	-0.306674957	0.250929832	0.999999046	-0.00012207	2.67029E-05	-1.62125E-05	-0.407624245	-7.666873932	6.273245811	-0.006103516	0.001335144	-0.000810623	-0.522460938	0.476806641	-0.739257813	891.62	-51.04371173	2.201753632	147.4992326	-81
29123	0	-0.015625	-0.307250977	0.25	0.999999046	-0.000144958	-6.67572E-06	-7.62939E-06	-0.390625	-7.681274414	6.25	-0.007247925	-0.000333786	-0.00038147	-0.524902344	0.476806641	-0.741943359	891.7	-51.06091847	2.196152061	147.4906079	-81
29124	0	-0.015678406	-0.307019234	0.250703812	0.999999046	-0.000199318	9.34601E-05	0.000141144	-0.391960144	-7.675480843	6.267595291	-0.009965897	0.004673004	0.00705719	-0.522705078	0.476806641	-0.733398438	891.58	-51.08426955	2.211024513	147.4933673	-81
29125	0	-0.015258789	-0.307067871	0.251098633	0.999999046	-6.10352E-05	3.52859E-05	9.53674E-05	-0.381469727	-7.676696777	6.27746582	-0.003051758	0.001764297	0.004768372	-0.522705078	0.479003906	-0.739501953	891.68	-51.09167217	2.217609275	147.4917686	-81
29126	0	-0.015823364	-0.307583809	0.250449181	0.999999046	-0.000219345	-8.01086E-05	7.53403E-05	-0.395584106	-7.689595222	6.261229515	-0.010967255	-0.004005432	0.003767014	-0.525146484	0.479003906	-0.739257813	891.68	-51.11687725	2.214108039	147.5013382	-81
29127	0	-0.015808105	-0.307434082	0.250549316	0.999999046	-0.000255585	1.23978E-05	9.53674E-05	-0.395202637	-7.685852051	6.26373291	-0.012779236	0.000619888	0.004768372	-0.522705078	0.481201172	-0.739501953	891.68	-51.14648904	2.219056736	147.5028639	-81
29128	0	-0.015506744	-0.307436943	0.249658585	0.999999046	-0.000119209	3.8147E-06	2.95639E-05	-0.38766861	-7.685923576	6.241464615	-0.005960464	0.000190735	0.001478195	-0.522705078	0.481201172	-0.736572266	891.62	-51.16063853	2.217504164	147.5043842	-81
29129	0	-0.016296387	-0.307678223	0.251159668	0.999999046	-0.000297546	0.000103951	5.72205E-05	-0.407409668	-7.691955566	6.278991699	-0.01487732	0.005197525	0.002861023	-0.522705078	0.481201172	-0.736572266	891.64	-51.19545123	2.225641795	147.4983223	-81
29130	0	-0.015895844	-0.308436394	0.250179291	0.999999046	-6.48499E-05	-1.14441E-05	-4.673E-05	-0.397396088	-7.710909843	6.254482269	-0.003242493	-0.000572205	-0.002336502	-0.525146484	0.479003906	-0.736328125	891.68	-51.20349598	2.216210151	147.4953832	-81
29131	0	-0.016418457	-0.308105469	0.249816895	0.999999046	-6.86646E-05	-5.62668E-05	3.05176E-05	-0.410461426	-7.702636719	6.245422363	-0.003433228	-0.002813339	0.001525879	-0.522705078	0.481201172	-0.736572266	891.7	-51.21161841	2.210496838	147.5010941	-81
29132	0	-0.016103745	-0.307712555	0.250264168	0.999999046	-0.000166893	5.72205E-06	5.34058E-05	-0.402593613	-7.692813873	6.256604195	-0.00834465	0.000286102	0.002670288	-0.525146484	0.481445313	-0.733642578	891.64	-51.23111844	2.211293697	147.5098678	-81
29133	0	-0.016052246	-0.308227539	0.248962402	0.999999046	-0.000259399	7.34329E-05	-1.52588E-05	-0.401306152	-7.705688477	6.224060059	-0.012969971	0.003671646	-0.000762939	-0.522705078	0.481201172	-0.736572266	891.68	-51.26168599	2.210833593	147.499474	-81
29134	0	-0.015652657	-0.308358192	0.249653816	0.999999046	-0.000415802	-2.47955E-05	-2.38419E-05	-0.391316414	-7.708954811	6.241345406	-0.020790101	-0.001239777	-0.001192093	-0.522949219	0.481201172	-0.733642578	891.74	-51.30986104	2.202551193	147.5004831	-81
29135	0	-0.016235352	-0.307922363	0.249572754	0.999999046	-0.000545502	8.58307E-06	2.28882E-05	-0.405883789	-7.698059082	6.239318848	-0.027275087	0.000429153	0.001144409	-0.522949219	0.481201172	-0.733642578	891.68	-51.37285992	2.200863593	147.5001101	-81
29136	0	-0.01753521	-0.307034492	0.249420166	0.999999046	-0.000994682	0.00012207	-1.90735E-05	-0.438380241	-7.675862312	6.23550415	-0.049734124	0.006103517	-0.000953674	-0.522949219	0.483642578	-0.736816406	891.64	-51.48777143	2.203613208	147.4821034	-81
29137	0	-0.013671875	-0.311218262	0.246032715	0.999999046	-0.00100708	8.10623E-05	3.8147E-05	-0.341796875	-7.780456543	6.150817871	-0.050354012	0.004053117	0.001907349	-0.522949219	0.485839844	-0.737060547	891.68	-51.60396609	2.208430512	147.4713048	-81
29138	0	-0.014285088	-0.311468124	0.245220184	0.999999046	0.000106812	6.10352E-05	-4.57764E-05	-0.35712719	-7.78670311	6.130504608	0.005340576	0.003051758	-0.002288818	-0.525390625	0.483642578	-0.733886719	891.7	-51.59283008	2.204199245	147.4619029	-81
29139	0	-0.016296387	-0.310668945	0.247741699	0.999999046	0.001068115	8.86917E-05	0.000347137	-0.407409668	-7.766723633	6.19354248	0.053405773	0.004434587	0.017356876	-0.525390625	0.485839844	-0.733886719	891.64	-51.4705773	2.237240506	147.4844826	-81
29140	0	-0.016982079	-0.307928085	0.249739647	0.999999046	0.000853539	-6.67572E-05	0.000133514	-0.424551964	-7.698202133	6.243491173	0.042676931	-0.003337861	0.006675721	-0.522949219	0.483642578	-0.736816406	891.8	-51.37287091	2.240081564	147.4982195	-81
29141	0	-0.016601563	-0.307067871	0.24810791	0.999999046	-1.90735E-05	-2.19345E-05	9.53674E-05	-0.415039063	-7.676696777	6.202697754	-0.000953674	-0.001096725	0.004768372	-0.520507813	0.485839844	-0.734130859	891.68	-51.37540117	2.242745105	147.5088894	-81
29142	0	-0.016588211	-0.309332848	0.248523712	0.999999046	-0.000188828	-0.000209808	5.62668E-05	-0.414705276	-7.73332119	6.213092804	-0.009441376	-0.010490418	0.002813339	-0.522705078	0.481201172	-0.736572266	891.64	-51.39687389	2.228505701	147.5254497	-81
29143	0	-0.01550293	-0.306762695	0.249084473	0.999999046	-0.000434875	-1.81198E-05	0.000160217	-0.387573242	-7.669067383	6.227111816	-0.021743775	-0.000905991	0.008010865	-0.522705078	0.481201172	-0.739501953	891.7	-51.44684691	2.23727107	147.526538	-81
29144	0	-0.015775681	-0.307766914	0.247779846	0.999999046	-0.001145363	-0.000144958	8.67844E-05	-0.394392014	-7.694172859	6.194496155	-0.057268155	-0.007247926	0.004339219	-0.520507813	0.483398438	-0.739990234	891.68	-51.57799038	2.230409877	147.5291205	-82
29145	0	-0.016418457	-0.310241699	0.247802734	0.999999046	-0.001159668	-5.62668E-05	0.000167847	-0.410461426	-7.75604248	6.195068359	-0.057983412	-0.00281334	0.008392336	-0.520751953	0.485839844	-0.731201172	891.68	-51.71087454	2.237183972	147.5423402	-82
29146	0	-0.016189575	-0.310563087	0.245741844	0.999999046	-0.001005173	-5.72205E-05	-9.53674E-07	-0.40473938	-7.764077187	6.143546104	-0.050258645	-0.002861023	-4.76837E-05	-0.520751953	0.488037109	-0.734375	891.68	-51.82658826	2.228730565	147.538184	-82
29147	0	-0.016601563	-0.311950684	0.245178223	0.999999046	-0.000675201	3.52859E-05	7.62939E-06	-0.415039063	-7.79876709	6.129455566	-0.033760073	0.001764298	0.00038147	-0.523193359	0.488037109	-0.734375	891.68	-51.90487916	2.227625065	147.52732	-82
29148	0	-0.016318321	-0.311916351	0.245121956	0.999999046	-2.38419E-05	-5.91278E-05	0.000136375	-0.407958031	-7.797908783	6.128048897	-0.001192093	-0.00295639	0.006818771	-0.523193359	0.488037109	-0.731445313	891.68	-51.90790411	2.231466658	147.5383803	-82
29149	0	-0.016174316	-0.310241699	0.247131348	0.999999046	1.90735E-05	-0.00014019	-6.10352E-05	-0.40435791	-7.75604248	6.178283691	0.000953674	-0.007009506	-0.003051758	-0.520996094	0.490234375	-0.728759766	891.68	-51.906196	2.21178527	147.5466225	-82
29150	0	-0.01612854	-0.310357094	0.246415138	0.999999046	-0.000358582	-8.58307E-05	0.000102997	-0.403213501	-7.758927345	6.160378456	-0.017929078	-0.004291535	0.005149841	-0.523193359	0.490234375	-0.731445313	891.68	-51.94746709	2.210759068	147.5586542	-82
29151	0	-0.016723633	-0.311218262	0.244445801	0.999999046	-0.00043869	3.91006E-05	0.000106812	-0.41809082	-7.780456543	6.11114502	-0.02193451	0.001955032	0.005340576	-0.523193359	0.490234375	-0.731445313	891.64	-51.99839719	2.218949949	147.5583896	-82
29152	0	-0.016626358	-0.311491966	0.245941162	0.999999046	-0.000256538	9.53674E-06	0.00014019	-0.415658951	-7.787299156	6.148529053	-0.01282692	0.000476837	0.007009506	-0.5234375	0.490478516	-0.725585938	891.82	-52.02823927	2.228099508	147.571912	-81
29153	0	-0.016479492	-0.309875488	0.244995117	0.999999046	-0.000713348	-1.04904E-05	1.14441E-05	-0.411987305	-7.746887207	6.12487793	-0.035667422	-0.000524521	0.000572205	-0.520996094	0.490234375	-0.725830078	891.7	-52.11067441	2.224235264	147.5720267	-81
29154	0	-0.015382767	-0.312542915	0.243450165	0.999999046	-0.000488281	3.62396E-05	5.34058E-05	-0.384569168	-7.813572884	6.08625412	-0.024414063	0.001811981	0.002670288	-0.5234375	0.494873047	-0.731933594	891.68	-52.16744519	2.227416831	147.5688196	-82
29155	0	-0.016540527	-0.311218262	0.243347168	0.999999046	-0.000179291	4.76837E-06	4.95911E-05	-0.413513184	-7.780456543	6.083679199	-0.008964539	0.000238419	0.002479553	-0.520996094	0.492431641	-0.726074219	891.68	-52.18872687	2.228068717	147.5706174	-81
29156	0	-0.016757011	-0.31234169	0.243112564	0.999999046	-0.0002985	-7.24792E-05	6.00815E-05	-0.418925285	-7.808542252	6.077814102	-0.014925003	-0.003623962	0.003004074	-0.518554688	0.492431641	-0.731933594	891.74	-52.22342937	2.224291175	147.5669527	-81
29157	0	-0.016540527	-0.31237793	0.243103027	0.999999046	-4.19617E-05	-1.81198E-05	-5.34058E-05	-0.413513184	-7.809448242	6.077575684	-0.002098083	-0.000905991	-0.002670288	-0.5234375	0.494873047	-0.729003906	891.64	-52.2292698	2.21407131	147.5640015	-81
29158	0	-0.016803741	-0.312583923	0.242588997	0.999999046	-3.8147E-05	-5.91278E-05	6.67572E-06	-0.420093536	-7.814598083	6.064724922	-0.001907349	-0.00295639	0.000333786	-0.518798828	0.494628906	-0.729248047	891.7	-52.23443661	2.20646672	147.5623041	-81
29159	0	-0.016418457	-0.311950684	0.242675781	0.999999046	4.95911E-05	1.62125E-05	-2.28882E-05	-0.410461426	-7.79876709	6.066894531	0.002479553	0.000810623	-0.001144409	-0.5234375	0.494873047	-0.731933594	891.7	-52.22992873	2.201497152	147.5539162	-81
29160	0	-0.016350746	-0.311988831	0.243437767	0.999999046	-3.14713E-05	-1.90735E-05	9.05991E-05	-0.408768654	-7.799720764	6.085944176	-0.001573563	-0.000953674	0.004529953	-0.5234375	0.494873047	-0.731933594	891.68	-52.23429146	2.204356976	147.5566174	-81
29161	0	-0.016723633	-0.312438965	0.243347168	0.999999046	-0.000133514	-1.43051E-05	0.000152588	-0.41809082	-7.810974121	6.083679199	-0.00667572	-0.000715256	0.007629395	-0.520996094	0.494873047	-0.729003906	891.7	-52.25022373	2.213209944	147.5643489	-80
29162	0	-0.0171175	-0.312376976	0.243142128	0.999999046	-0.000335693	5.34058E-05	4.57764E-05	-0.427937508	-7.8094244	6.0785532	-0.016784668	0.002670288	0.002288818	-0.520996094	0.492431641	-0.726074219	891.68	-52.28987752	2.217190205	147.5590232	-81
29163	0	-0.016784668	-0.313415527	0.242431641	0.999999046	-0.000301361	-1.81198E-05	7.62939E-05	-0.419616699	-7.835388184	6.060791016	-0.015068054	-0.000905991	0.003814697	-0.521240234	0.497070313	-0.723388672	891.62	-52.32533308	2.218952767	147.5715783	-82
29164	0	-0.016518593	-0.31270504	0.241511345	1	-2.67029E-05	1.04904E-05	2.67029E-05	-0.412964821	-7.817625999	6.037783623	-0.001335144	0.000524521	0.001335144	-0.521240234	0.494873047	-0.726074219	891.8	-52.32962625	2.218248409	147.570935	-83
29165	0	-0.016296387	-0.312316895	0.242614746	0.999999046	-0.000198364	-1.04904E-05	-1.52588E-05	-0.407409668	-7.807922363	6.065368652	-0.009918213	-0.000524521	-0.000762939	-0.521240234	0.497070313	-0.729248047	891.64	-52.35364471	2.212280485	147.5664042	-81
29166	0	-0.016953468	-0.313268661	0.2413311	0.999999046	-9.15527E-05	-1.71661E-05	5.24521E-05	-0.423836708	-7.831716537	6.033277512	-0.004577637	-0.000858307	0.002622604	-0.520996094	0.494873047	-0.729003906	891.7	-52.36530372	2.212035879	147.5642338	-84
29167	0	-0.016967773	-0.313476563	0.241394043	0.999999046	3.05176E-05	2.38419E-05	6.10352E-05	-0.424194336	-7.836914063	6.034851074	0.001525879	0.001192093	0.003051758	-0.521240234	0.497070313	-0.729248047	891.68	-52.36317758	2.215484383	147.5619311	-85
29168	0	-0.017261505	-0.314803123	0.241045952	0.999999046	0.000639915	-8.2016E-05	7.62939E-06	-0.431537628	-7.870078087	6.026148796	0.031995776	-0.0041008	0.00038147	-0.5234375	0.494873047	-0.729003906	891.68	-52.29112842	2.206734562	147.5677562	-81
29169	0	-0.017028809	-0.313354492	0.242553711	0.999998093	0.001713753	-0.000141144	-8.01086E-05	-0.425720215	-7.833862305	6.063842773	0.08568768	-0.007057193	-0.004005434	-0.520996094	0.494873047	-0.729003906	891.68	-52.09611195	2.185936509	147.5750499	-84
29170	0	-0.015140533	-0.30873394	0.245569229	0.999999046	0.000984192	-1.14441E-05	4.86374E-05	-0.378513336	-7.718348503	6.139230728	0.049209603	-0.000572205	0.00243187	-0.520996094	0.492431641	-0.731933594	891.74	-51.98465709	2.185879616	147.5752641	-82
29171	0	-0.015930176	-0.309387207	0.245178223	0.999999046	-0.000175476	8.4877E-05	0.000133514	-0.398254395	-7.734680176	6.129455566	-0.008773804	0.004243851	0.00667572	-0.520751953	0.490234375	-0.731689453	891.68	-52.00613022	2.200289427	147.5698043	-81
29172	0	-0.016909599	-0.313192368	0.243844032	0.999999046	-5.81741E-05	-3.24249E-05	6.77109E-05	-0.422739983	-7.829809189	6.096100807	-0.002908707	-0.001621246	0.003385544	-0.5234375	0.490478516	-0.725585938	891.64	-52.01402931	2.200515843	147.5831949	-81
29173	0	-0.016479492	-0.311035156	0.245910645	0.999999046	0.000156403	4.29153E-05	6.10352E-05	-0.411987305	-7.775878906	6.147766113	0.007820129	0.002145767	0.003051758	-0.523193359	0.492675781	-0.734619141	891.58	-51.99756847	2.205479116	147.5783251	-81
29174	0	-0.015684128	-0.310285568	0.244663239	0.999999046	-0.000337601	-2.28882E-05	0.000132561	-0.392103195	-7.757139206	6.116580963	-0.016880036	-0.001144409	0.006628037	-0.520996094	0.490234375	-0.728759766	891.7	-52.0372726	2.212240937	147.5865547	-81
29175	0	-0.016845703	-0.312805176	0.243896484	0.999999046	-0.00025177	-2.86102E-06	1.52588E-05	-0.421142578	-7.820129395	6.097412109	-0.012588501	-0.000143051	0.000762939	-0.520996094	0.492431641	-0.729003906	891.7	-52.06760468	2.209849282	147.5862839	-81
29176	0	-0.01630497	-0.311524391	0.243617058	0.999999046	0.000155449	-7.05719E-05	0.000124931	-0.407624245	-7.788109779	6.090426445	0.007772446	-0.003528595	0.006246567	-0.520996094	0.492431641	-0.731933594	891.64	-52.050773	2.212608274	147.5955987	-81
29177	0	-0.016906738	-0.310913086	0.24432373	0.999999046	3.8147E-05	-8.29697E-05	3.05176E-05	-0.422668457	-7.772827148	6.108093262	0.001907349	-0.004148483	0.001525879	-0.520996094	0.490234375	-0.728759766	891.68	-52.04758741	2.205998559	147.6014474	-81
29178	0	-0.016640663	-0.311077118	0.24447155	0.999999046	-0.000205994	4.19617E-05	7.62939E-05	-0.416016579	-7.776927948	6.11178875	-0.010299683	0.002098084	0.003814697	-0.520996094	0.490234375	-0.728759766	891.68	-52.0726813	2.212354109	147.5987197	-81
29179	0	-0.017089844	-0.313171387	0.244018555	0.999999046	-4.57764E-05	2.76566E-05	0.000106812	-0.427246094	-7.829284668	6.100463867	-0.002288818	0.001382828	0.005340576	-0.5234375	0.492675781	-0.731689453	891.68	-52.07934845	2.220499812	147.6010156	-81
29180	0	-0.016437531	-0.310749054	0.243317604	0.999999046	7.9155E-05	-2.86102E-05	0.000114441	-0.410938263	-7.768726349	6.082940102	0.003957748	-0.001430511	0.005722046	-0.520996094	0.494873047	-0.731933594	891.7	-52.07149767	2.225384086	147.608504	-81
29181	0	-0.016235352	-0.31060791	0.243835449	0.999999046	-0.000225067	-3.33786E-05	8.39233E-05	-0.405883789	-7.765197754	6.09588623	-0.011253357	-0.00166893	0.004196167	-0.520996094	0.492431641	-0.731933594	891.7	-52.0985682	2.2271736	147.6103207	-81
29182	0	-0.017065048	-0.312179565	0.243390083	0.999999046	-8.58307E-05	-4.95911E-05	-3.91006E-05	-0.426626205	-7.804489136	6.084752083	-0.004291534	-0.002479553	-0.001955032	-0.520996094	0.492431641	-0.731933594	891.62	-52.11001258	2.21673508	147.6046025	-80
29183	0	-0.016784668	-0.311950684	0.242736816	0.999999046	5.72205E-05	-5.62668E-05	9.53674E-05	-0.419616699	-7.79876709	6.06842041	0.002861023	-0.002813339	0.004768372	-0.520996094	0.494873047	-0.729003906	891.68	-52.10473536	2.218010189	147.6167358	-80
29184	0	-0.017183304	-0.311248779	0.242835045	0.999999046	-2.57492E-05	2.67029E-05	7.53403E-05	-0.429582596	-7.781219482	6.070876122	-0.00128746	0.001335144	0.003767014	-0.520996094	0.492431641	-0.731933594	891.64	-52.1093512	2.223363826	147.6122377	-80
29185	0	-0.017150879	-0.311645508	0.243286133	0.999999046	3.8147E-06	-0.000128746	1.52588E-05	-0.428771973	-7.791137695	6.08215332	0.000190735	-0.006437302	0.000762939	-0.520996094	0.492431641	-0.731933594	891.7	-52.11022806	2.212385126	147.6172695	-80
29186	0	-0.016242981	-0.311704636	0.242437363	0.999999046	-0.0001297	4.19617E-05	1.14441E-05	-0.406074524	-7.792615891	6.060934067	-0.006484985	0.002098084	0.000572205	-0.520996094	0.492431641	-0.729003906	891.68	-52.12707488	2.213070555	147.6109731	-80
29187	0	-0.017150879	-0.3125	0.242675781	0.999999046	0.000141144	-4.48227E-05	0.000125885	-0.428771973	-7.8125	6.066894531	0.00705719	-0.002241135	0.006294251	-0.520996094	0.492431641	-0.729003906	891.74	-52.11234247	2.218043241	147.6209279	-80
29188	0	-0.016718864	-0.311145782	0.242703438	0.999999046	0.000102043	-0.000139236	-1.90735E-05	-0.417971611	-7.778644562	6.067585945	0.005102158	-0.006961823	-0.000953674	-0.520751953	0.490234375	-0.731689453	891.62	-52.1021892	2.203284681	147.6218306	-80
29189	0	-0.016723633	-0.311401367	0.242675781	0.999999046	-9.53674E-05	-9.44138E-05	4.57764E-05	-0.41809082	-7.78503418	6.066894531	-0.004768372	-0.004720688	0.002288818	-0.520996094	0.492431641	-0.726074219	891.74	-52.11467878	2.197565374	147.6346155	-80
29190	0	-0.017316818	-0.312727928	0.241886139	1	2.00272E-05	2.57492E-05	2.95639E-05	-0.432920456	-7.818198204	6.047153473	0.001001358	0.00128746	0.001478195	-0.520996094	0.492431641	-0.729003906	891.62	-52.11451836	2.198892675	147.630894	-80
29191	0	-0.016052246	-0.311889648	0.242919922	0.999999046	7.24792E-05	-0.000102043	0.000160217	-0.401306152	-7.797241211	6.072998047	0.003623962	-0.005102158	0.008010864	-0.520996094	0.492431641	-0.726074219	891.68	-52.10758947	2.203030337	147.6524083	-81
29192	0	-0.017140388	-0.311727524	0.24333477	0.999999046	0.000231743	-4.76837E-05	-8.58307E-06	-0.428509712	-7.793188095	6.083369255	0.011587143	-0.002384186	-0.000429153	-0.520751953	0.490234375	-0.731689453	891.68	-52.08307907	2.19577653	147.64581	-81
29193	0	-0.016418457	-0.311035156	0.243286133	0.999999046	0.000152588	9.53674E-07	3.8147E-06	-0.410461426	-7.775878906	6.08215332	0.007629395	4.76837E-05	0.000190735	-0.5234375	0.492675781	-0.728759766	891.74	-52.06777863	2.193073966	147.6473927	-81
29194	0	-0.017092705	-0.312120438	0.243380547	0.999999046	0.000143051	-0.000137329	0.000110626	-0.427317619	-7.803010941	6.084513664	0.007152557	-0.006866455	0.005531311	-0.520996094	0.492431641	-0.731933594	891.7	-52.05285141	2.190330058	147.6606411	-81
29195	0	-0.016784668	-0.311523438	0.244018555	0.999999046	-7.24792E-05	-8.29697E-05	6.48499E-05	-0.419616699	-7.788085938	6.100463867	-0.003623962	-0.004148483	0.003242493	-0.520996094	0.494873047	-0.731933594	891.74	-52.06293669	2.18730404	147.6684176	-81
29196	0	-0.016662598	-0.311617851	0.243670464	0.999999046	0.000102043	-6.29425E-05	2.86102E-06	-0.416564941	-7.790446281	6.091761589	0.005102158	-0.003147125	0.000143051	-0.5234375	0.492675781	-0.728759766	891.7	-52.05327371	2.18010496	147.6753604	-81
29197	0	-0.016723633	-0.310546875	0.243469238	0.999999046	0.000133514	-9.44138E-05	8.7738E-05	-0.41809082	-7.763671875	6.086730957	0.00667572	-0.004720688	0.004386902	-0.5234375	0.492675781	-0.731689453	891.62	-52.03966407	2.178387049	147.6866234	-81
29198	0	-0.016732216	-0.310845375	0.243371964	0.999999046	-7.05719E-05	-5.72205E-05	5.34058E-05	-0.418305397	-7.771134377	6.084299088	-0.003528595	-0.002861023	0.002670288	-0.5234375	0.490478516	-0.728515625	891.68	-52.04967324	2.176215324	147.6938218	-81
29199	0	-0.017211914	-0.311584473	0.244140625	0.999999046	-0.0001297	-0.000117302	0.000152588	-0.430297852	-7.789611816	6.103515625	-0.006484985	-0.005865097	0.007629395	-0.525878906	0.492675781	-0.728759766	891.62	-52.06598447	2.178820759	147.7180182	-81
29200	0	-0.016639709	-0.311398506	0.243453026	0.999999046	-4.1008E-05	-2.86102E-05	9.44138E-05	-0.415992737	-7.784962654	6.086325645	-0.0020504	-0.001430511	0.004720688	-0.5234375	0.490478516	-0.728515625	891.64	-52.07261224	2.182441069	147.7242953	-81
29201	0	-0.016784668	-0.311645508	0.243713379	0.999999046	-8.39233E-05	-2.19345E-05	9.53674E-05	-0.419616699	-7.791137695	6.092834473	-0.004196167	-0.001096725	0.004768372	-0.5234375	0.492675781	-0.728759766	891.62	-52.08418925	2.186641884	147.7320878	-82
29202	0	-0.016589165	-0.310646057	0.244760513	0.999999046	-0.000127792	-7.62939E-05	2.57492E-05	-0.414729118	-7.766151428	6.119012833	-0.006389618	-0.003814697	0.00128746	-0.520996094	0.490234375	-0.728759766	891.64	-52.10072983	2.180737922	147.7330503	-82
29203	0	-0.015930176	-0.312255859	0.243286133	0.999999046	-0.000183105	-3.71933E-05	7.62939E-05	-0.398254395	-7.806396484	6.08215332	-0.009155273	-0.001859665	0.003814697	-0.523193359	0.492675781	-0.734619141	891.68	-52.12364713	2.182137887	147.7301576	-82
29204	0	-0.016631126	-0.31099987	0.243538857	0.999999046	7.9155E-05	-5.14984E-05	4.1008E-05	-0.41577816	-7.774996758	6.088471413	0.003957748	-0.002574921	0.0020504	-0.5234375	0.492675781	-0.731689453	891.62	-52.11653679	2.179356037	147.7312104	-82
29205	0	-0.016784668	-0.311035156	0.242919922	0.999999046	-0.000244141	-4.86374E-05	3.43323E-05	-0.419616699	-7.775878906	6.072998047	-0.012207031	-0.00243187	0.001716614	-0.518554688	0.492431641	-0.731933594	891.62	-52.14651514	2.1762028	147.723902	-82
29206	0	-0.016965866	-0.311824799	0.242891312	0.999999046	-0.000141144	9.53674E-06	5.34058E-05	-0.424146652	-7.795619965	6.072282791	-0.00705719	0.000476837	0.002670288	-0.518554688	0.494628906	-0.735107422	891.64	-52.16486572	2.178900776	147.7103403	-82
29207	0	-0.017150879	-0.311889648	0.242492676	0.999999046	-0.000179291	-0.000113487	7.62939E-06	-0.428771973	-7.797241211	6.062316895	-0.008964539	-0.005674362	0.00038147	-0.5234375	0.492675781	-0.731689453	891.64	-52.1873188	2.168846844	147.7128865	-82
29208	0	-0.016367912	-0.311916351	0.243238449	0.999999046	-0.000220299	-2.09808E-05	2.67029E-05	-0.409197807	-7.797908783	6.080961227	-0.011014938	-0.001049042	0.001335144	-0.523681641	0.494873047	-0.726074219	891.68	-52.21473284	2.167019225	147.719484	-81
29209	0	-0.016601563	-0.311889648	0.241882324	0.999999046	-0.000274658	-7.15256E-05	5.34058E-05	-0.415039063	-7.797241211	6.047058105	-0.01373291	-0.003576279	0.002670288	-0.520996094	0.492431641	-0.726074219	891.68	-52.24817661	2.164082917	147.7248664	-82
29210	0	-0.01653862	-0.312205315	0.243665695	0.999999046	-0.000108719	-5.53131E-05	2.57492E-05	-0.4134655	-7.805132866	6.09164238	-0.005435944	-0.002765656	0.00128746	-0.5234375	0.492675781	-0.731689453	891.64	-52.26270148	2.159793222	147.7209624	-81
29211	0	-0.016479492	-0.311706543	0.243103027	0.999999046	-0.000167847	8.58307E-06	8.01086E-05	-0.411987305	-7.792663574	6.077575684	-0.008392334	0.000429153	0.004005432	-0.520996094	0.492431641	-0.729003906	891.7	-52.2840481	2.164924299	147.7155742	-81
29212	0	-0.016961098	-0.312701225	0.241471291	0.999999046	-3.52859E-05	-2.47955E-05	0.000174522	-0.424027443	-7.817530632	6.036782265	-0.001764297	-0.001239777	0.00872612	-0.5234375	0.492675781	-0.725830078	891.52	-52.28989629	2.176305911	147.7280151	-81
29213	0	-0.017150879	-0.311828613	0.243408203	0.999999046	1.14441E-05	-6.00815E-05	8.01086E-05	-0.428771973	-7.795715332	6.085205078	0.000572205	-0.003004074	0.004005432	-0.520996094	0.492431641	-0.729003906	891.68	-52.29047322	2.176698419	147.7286384	-81
29214	0	-0.016500473	-0.312004089	0.242318153	0.999999046	-4.19617E-05	-7.24792E-05	9.91821E-05	-0.412511826	-7.800102234	6.057953835	-0.002098084	-0.003623962	0.004959106	-0.520996094	0.492431641	-0.726074219	891.64	-52.29707712	2.177956511	147.7360468	-82
29215	0	-0.016540527	-0.3125	0.242553711	0.999999046	-0.000293732	-3.33786E-05	0.000106812	-0.413513184	-7.8125	6.063842773	-0.014686585	-0.00166893	0.005340576	-0.520996094	0.494873047	-0.729003906	891.68	-52.33265177	2.182654918	147.7379455	-81
29216	0	-0.016224861	-0.312151909	0.243469238	0.999999046	-0.000369072	7.62939E-06	5.34058E-05	-0.405621529	-7.803797722	6.086730957	-0.018453598	0.00038147	0.002670288	-0.520996094	0.494873047	-0.731933594	891.68	-52.3770907	2.185369462	147.7267682	-81
29217	0	-0.016967773	-0.313171387	0.240356445	0.999999046	-0.000179291	3.52859E-05	8.7738E-05	-0.424194336	-7.829284668	6.008911133	-0.008964539	0.001764297	0.004386902	-0.520996094	0.494873047	-0.731933594	891.7	-52.39987505	2.193159364	147.7152585	-82
29218	0	-0.016856194	-0.312157631	0.242745399	0.999999046	-3.62396E-05	-7.82013E-05	3.71933E-05	-0.421404839	-7.803940773	6.068634987	-0.001811981	-0.003910065	0.001859665	-0.521240234	0.494873047	-0.726074219	891.68	-52.40595634	2.188439283	147.7197848	-84
29219	0	-0.016357422	-0.3125	0.242614746	0.999999046	-0.000179291	1.62125E-05	0.000118256	-0.408935547	-7.8125	6.065368652	-0.008964539	0.000810623	0.005912781	-0.520996094	0.494873047	-0.729003906	891.68	-52.4285076	2.197673841	147.7160755	-82
29220	0	-0.016866684	-0.312216759	0.242074966	0.999999046	-4.1008E-05	3.62396E-05	8.01086E-05	-0.421667099	-7.805418968	6.051874161	-0.0020504	0.001811981	0.004005432	-0.521240234	0.497070313	-0.729248047	891.7	-52.43535591	2.204858267	147.7107127	-81
29221	0	-0.017028809	-0.313476563	0.241577148	0.999999046	-8.01086E-05	1.23978E-05	7.62939E-05	-0.425720215	-7.836914063	6.039428711	-0.004005432	0.000619888	0.003814697	-0.520996094	0.494873047	-0.731933594	891.62	-52.44664263	2.210052525	147.6999396	-81
29222	0	-0.016532898	-0.312476158	0.243296623	0.999999046	2.86102E-05	3.24249E-05	0.000171661	-0.413322449	-7.811903954	6.082415581	0.001430511	0.001621246	0.008583069	-0.518798828	0.494628906	-0.729248047	891.56	-52.44520878	2.225301885	147.6956706	-81
29223	0	-0.017333984	-0.312866211	0.242614746	0.999999046	-7.62939E-05	3.91006E-05	6.86646E-05	-0.433349609	-7.821655273	6.065368652	-0.003814697	0.001955032	0.003433228	-0.5234375	0.494873047	-0.729003906	891.74	-52.45606174	2.231685289	147.6900443	-82
29224	0	-0.016663551	-0.313511848	0.241893768	0.999999046	-3.14713E-05	-6.29425E-05	5.24521E-05	-0.416588783	-7.837796211	6.047344208	-0.001573563	-0.003147125	0.002622604	-0.521240234	0.497070313	-0.732177734	891.68	-52.46147546	2.229462664	147.6875248	-83
29225	0	-0.016418457	-0.311584473	0.243225098	0.999999046	-1.14441E-05	-6.38962E-05	3.43323E-05	-0.410461426	-7.789611816	6.080627441	-0.000572205	-0.003194809	0.001716614	-0.521240234	0.497070313	-0.726318359	891.68	-52.46453459	2.225506019	147.6928601	-81
29226	0	-0.017080307	-0.312504768	0.243341446	1	4.1008E-05	1.04904E-05	2.86102E-06	-0.427007675	-7.812619209	6.083536148	0.0020504	0.000524521	0.000143051	-0.5234375	0.497070313	-0.732177734	891.68	-52.46185328	2.22389917	147.6830439	-82
29227	0	-0.016845703	-0.312927246	0.241699219	0.999999046	-6.48499E-05	2.76566E-05	4.19617E-05	-0.421142578	-7.823181152	6.042480469	-0.003242493	0.001382828	0.002098083	-0.518798828	0.497070313	-0.729492188	891.68	-52.4712638	2.227049877	147.6729673	-81
29228	0	-0.017313004	-0.313018799	0.241535187	0.999999046	9.82285E-05	-7.82013E-05	4.86374E-05	-0.432825089	-7.825469971	6.038379669	0.004911423	-0.003910065	0.00243187	-0.521240234	0.497070313	-0.726318359	891.56	-52.46160215	2.22344155	147.6810978	-81
29229	0	-0.016296387	-0.311645508	0.242675781	0.999999046	-8.01086E-05	2.76566E-05	0.000179291	-0.407409668	-7.791137695	6.066894531	-0.004005432	0.001382828	0.008964539	-0.520996094	0.494873047	-0.729003906	891.68	-52.47232175	2.239074579	147.6813777	-81
29230	0	-0.016909599	-0.311190605	0.242868423	0.999999046	-0.000738144	4.57764E-05	0.00026226	-0.422739983	-7.779765129	6.071710587	-0.0369072	0.002288819	0.013113023	-0.518798828	0.494628906	-0.726318359	891.64	-52.55818602	2.263521311	147.6848271	-81
29231	0	-0.017089844	-0.315185547	0.242614746	0.999999046	-0.000961304	0.000229836	0.0001297	-0.427246094	-7.879638672	6.065368652	-0.048065194	0.011491777	0.006484986	-0.521240234	0.499267578	-0.7265625	891.68	-52.67065891	2.288710653	147.6683275	-81
29232	0	-0.016854286	-0.31393528	0.240416527	0.999999046	0.000353813	0.000322342	0.000293732	-0.421357155	-7.848381996	6.01041317	0.017690659	0.016117097	0.014686585	-0.519042969	0.499267578	-0.726806641	891.64	-52.63234258	2.335243642	147.6540761	-81
29233	0	-0.018127441	-0.313049316	0.243103027	0.999999046	0.000232697	-9.82285E-05	0.000366211	-0.453186035	-7.82623291	6.077575684	0.011634827	-0.004911423	0.018310547	-0.521240234	0.499267578	-0.7265625	891.68	-52.6060311	2.359154219	147.6867653	-81
29234	0	-0.016662598	-0.314023972	0.241420746	0.999999046	1.14441E-05	4.57764E-05	0.000365257	-0.416564941	-7.850599289	6.035518646	0.000572205	0.002288818	0.018262864	-0.516601563	0.499023438	-0.726806641	891.64	-52.60561367	2.392940911	147.7001654	-80
29235	0	-0.018005371	-0.313842773	0.243164063	0.999999046	8.39233E-05	0.000157356	0.000720978	-0.450134277	-7.846069336	6.079101563	0.004196167	0.007867814	0.036048892	-0.518798828	0.499267578	-0.729736328	891.62	-52.59618545	2.466875175	147.7275145	-80
29236	0	-0.019333839	-0.318414688	0.239975929	0.999999046	0.000590324	-3.24249E-05	0.000637054	-0.483345985	-7.960367203	5.999398232	0.029516224	-0.001621247	0.031852726	-0.516601563	0.501464844	-0.729980469	891.68	-52.52840007	2.519972521	147.7680392	-79
29237	0	-0.018432617	-0.317871094	0.238891602	0.999993324	0.00315094	-0.000361443	0.001209259	-0.46081543	-7.946777344	5.972290039	0.1575473	-0.018072163	0.060463068	-0.516601563	0.499023438	-0.726806641	891.7	-52.16424996	2.601774473	147.8899622	-79
29238	0	-0.019086838	-0.316314697	0.24078083	0.999980927	0.005505562	-0.000727654	0.002468109	-0.477170944	-7.907867432	6.01952076	0.275279786	-0.036382899	0.123406216	-0.516113281	0.492431641	-0.732177734	891.64	-51.52451387	2.770100334	148.1333403	-78
29239	0	-0.018676758	-0.313049316	0.245849609	0.999964714	0.007545471	-0.000983238	0.003288269	-0.466918945	-7.82623291	6.146240234	0.37727788	-0.049162474	0.164415335	-0.515869141	0.489990234	-0.743652344	891.62	-50.6461467	2.989962212	148.4617808	-76
29240	0	-0.020102501	-0.308636665	0.253992081	0.999957085	0.007714272	-0.001501083	0.004882813	-0.502562523	-7.715916634	6.349802017	0.385719081	-0.07505524	0.244144108	-0.513183594	0.480957031	-0.740234375	891.74	-49.73780412	3.307130536	148.9667133	-75
29241	0	-0.023681641	-0.302490234	0.259399414	0.999958992	0.007915497	-0.000613213	0.004295349	-0.592041016	-7.562255859	6.484985352	0.395780216	-0.030661046	0.214770373	-0.510253906	0.474121094	-0.745605469	891.64	-48.81062953	3.631861553	149.3585663	-75
29242	0	-0.023280144	-0.294327736	0.266927719	0.999960899	0.007766724	-0.000432968	0.004083633	-0.582003593	-7.358193398	6.673192978	0.388341177	-0.021648685	0.204184298	-0.509765625	0.467041016	-0.756835938	891.68	-47.8998769	3.946108633	149.7210408	-74
29243	0	-0.030029297	-0.279541016	0.268859863	0.999983788	0.004329681	-3.71933E-05	0.00359726	-0.750732422	-6.988525391	6.721496582	0.216485213	-0.001859675	0.179863926	-0.504394531	0.460205078	-0.765136719	891.58	-47.38540935	4.245581973	150.0018132	-74
29244	0	-0.030664444	-0.27645874	0.276210785	0.999992371	0.002145767	-0.000163078	0.002986908	-0.766611099	-6.911468506	6.905269623	0.107288603	-0.008153934	0.149345735	-0.499511719	0.457763672	-0.765380859	891.64	-47.12182519	4.482060573	150.2442067	-74
29245	0	-0.034606934	-0.278320313	0.271789551	0.999996185	-0.001471519	-5.34058E-05	0.002277374	-0.86517334	-6.958007813	6.79473877	-0.073576064	-0.002670291	0.113868853	-0.497070313	0.457519531	-0.768310547	891.7	-47.27659965	4.667334207	150.4087914	-74
29246	0	-0.035558701	-0.295923233	0.268969536	0.999996185	-0.002066612	-1.62125E-05	0.001285553	-0.888967514	-7.398080826	6.724238396	-0.103330714	-0.000810624	0.064277712	-0.494873047	0.464355469	-0.769042969	891.7	-47.50604241	4.772497571	150.4913134	-75
29247	0	-0.040161133	-0.296325684	0.271972656	0.999994278	0.00080204	-3.8147E-05	0.003116608	-1.00402832	-7.40814209	6.799316406	0.040102074	-0.001907352	0.155830652	-0.495361328	0.46875	-0.763427734	891.58	-47.39420679	5.030883389	150.7349581	-75
29248	0	-0.042114258	-0.29650116	0.264088631	0.999979973	0.004714012	-0.000303268	0.004039764	-1.052856445	-7.412528992	6.602215767	0.235702125	-0.015163519	0.201989521	-0.492919922	0.46875	-0.763671875	891.64	-46.8245957	5.344960014	151.0861348	-74
29249	0	-0.03527832	-0.291625977	0.274353027	0.999964714	0.007064819	-0.000842094	0.004318237	-0.881958008	-7.290649414	6.858825684	0.353245045	-0.042105207	0.215914358	-0.490234375	0.464111328	-0.769287109	891.62	-45.97707922	5.635229807	151.5113582	-75
29250	0	-0.041745186	-0.270581245	0.278579712	0.999969482	0.006525993	-0.000449181	0.004078865	-1.043629646	-6.764531136	6.964492798	0.326302899	-0.022459253	0.203945273	-0.482421875	0.45703125	-0.780761719	891.68	-45.19346103	5.931743451	151.874263	-75
29251	0	-0.042663574	-0.283752441	0.277038574	0.999974251	0.006046295	-0.000243187	0.003692627	-1.066589355	-7.093811035	6.925964355	0.30231729	-0.012159449	0.184632894	-0.479736328	0.454589844	-0.783691406	891.62	-44.46796429	6.209068397	152.2019306	-75
29252	0	-0.031673431	-0.271923065	0.274747849	0.999959946	0.008399963	-0.000971794	0.0026474	-0.791835785	-6.79807663	6.868696213	0.420003665	-0.048590342	0.132371727	-0.479492188	0.445556641	-0.785888672	891.68	-43.47444071	6.337834557	152.5145521	-75
29253	0	-0.065917969	-0.276855469	0.294799805	0.999978065	0.006282806	-0.000166893	0.001777649	-1.647949219	-6.921386719	7.369995117	0.314142553	-0.00834471	0.088883078	-0.478759766	0.436523438	-0.793945313	891.7	-42.73789126	6.462476727	152.6879034	-77
29254	0	-0.023591995	-0.25753212	0.289399147	0.999983788	0.005441666	-0.00047493	0.001325607	-0.589799881	-6.438302994	7.234978676	0.272084715	-0.023746616	0.066280714	-0.475830078	0.427246094	-0.802246094	891.62	-42.09866739	6.523164165	152.8369869	-80
29255	0	-0.06817627	-0.262329102	0.300964355	0.999991417	0.003761292	0.000775337	0.00151062	-1.704406738	-6.558227539	7.524108887	0.188065109	0.038766971	0.07553122	-0.475585938	0.422851563	-0.8046875	891.62	-41.66062233	6.704430276	152.9110704	-85
29256	0	-0.031554222	-0.261198997	0.276704788	0.999998093	0.001369476	0.000260353	-0.001346588	-0.788855553	-6.529974937	6.917619705	0.068473859	0.013017663	-0.067329449	-0.472900391	0.416015625	-0.810058594	891.64	-41.5212103	6.623171917	152.7645065	-81
29257	0	-0.031494141	-0.299743652	0.319030762	0.999995232	0.0027771	0.000893593	-0.000904083	-0.787353516	-7.493591309	7.975769043	0.138855196	0.044679711	-0.045204233	-0.475097656	0.413818359	-0.806884766	891.64	-41.22232599	6.629401013	152.6243596	-75
29258	0	-0.032122612	-0.313360214	0.328958511	0.999969482	0.001646996	0.006171227	0.004401207	-0.8030653	-7.834005356	8.223962784	0.082350603	0.308564419	0.220062555	-0.469970703	0.408935547	-0.818603516	891.64	-41.04770878	7.490618369	152.5371452	-71
29259	0	-0.015991211	-0.370727539	0.282775879	0.999837875	-0.004199028	0.007797241	0.015625	-0.399780273	-9.268188477	7.069396973	-0.20996269	0.389883023	0.781292007	-0.450927734	0.415039063	-0.822998047	891.62	-41.4255161	9.337483317	153.2815661	-69
29260	0	-0.081994057	-0.415789604	0.265563965	0.999679565	0.001714706	0.005843163	0.024533272	-2.049851418	-10.3947401	6.639099121	0.085744454	0.292189249	1.226794259	-0.425048828	0.434326172	-0.829101563	891.68	-40.93396595	11.68791117	154.9691606	-66
29261	0	-0.133178711	-0.521240234	0.219116211	0.999415398	-0.000621796	0.001805305	0.034114838	-3.329467773	-13.03100586	5.477905273	-0.031095835	0.090282847	1.706073957	-0.392578125	0.458007813	-0.826904297	891.74	-40.37849921	14.39017766	157.85096	-71
29262	0	-0.129811287	-0.478758812	0.256194115	0.99871254	0.01646328	-0.002448082	0.047904968	-3.245282173	-11.9689703	6.404852867	0.823517247	-0.122456628	2.396276334	-0.352539063	0.481445313	-0.831054688	891.7	-37.25089758	17.61485038	162.5012598	-76
29263	0	-0.129699707	-0.368896484	0.318847656	0.998130798	0.007618904	0.003101349	0.060554504	-3.242492676	-9.222412109	7.971191406	0.381182713	0.155164123	3.029612908	-0.304199219	0.488525391	-0.852050781	891.66	-34.46883851	21.97612311	168.2215427	-70
29264	0	-0.182638168	-0.299155235	0.318073273	0.997803688	0.013792992	0.003713608	0.064679146	-4.565954208	-7.478880882	7.951831818	0.690154878	0.185816435	3.236326765	-0.23046875	0.510742188	-0.854980469	891.62	-30.22355578	26.3159426	174.8422951	-77
29265	0	-0.15802002	-0.249938965	0.320007324	0.997886658	0.026070595	0.00308609	0.059429169	-3.950500488	-6.248474121	8.000183105	1.304448524	0.154413265	2.97355285	-0.155273438	0.508056641	-0.873779297	891.7	-24.1368862	29.75733711	-178.4011384	-72
29266	0	-0.149348259	-0.170397758	0.335654259	0.998071671	0.035094261	-0.001252174	0.051182747	-3.733706474	-4.259943962	8.391356468	1.755841791	-0.062648992	2.560783528	-0.093261719	0.474121094	-0.900634766	891.54	-16.86207745	31.69194048	-171.8101478	-81
29267	0	-0.153137207	-0.115783691	0.332824707	0.99805069	0.040661812	-0.008781433	0.046504974	-3.828430176	-2.894592285	8.320617676	2.034412116	-0.439357055	2.326760148	-0.056152344	0.4140625	-0.935791016	891.68	-8.882620836	31.91265523	-165.2540911	-72
29268	0	-0.157421112	-0.04779911	0.304697037	0.997941971	0.043375015	-0.01302433	0.045379639	-3.935527802	-1.19497776	7.617425919	2.170239234	-0.651663454	2.270539196	-0.038085938	0.338867188	-0.962646484	891.54	-0.710385158	30.87611314	-158.8312049	-68
29269	0	-0.24029541	-0.069641113	0.280090332	0.997755051	0.042954445	-0.019115448	0.047679901	-6.007385254	-1.741027832	7.002258301	2.149330505	-0.956488103	2.385780243	-0.036376953	0.257568359	-0.985107422	891.62	7.210123788	28.40074418	-152.4782197	-65
29270	0	-0.272141457	-0.043498993	0.250504494	0.997638702	0.042998314	-0.019322395	0.049933434	-6.803536415	-1.087474823	6.262612343	2.151608966	-0.966880681	2.498638052	-0.054199219	0.174804688	-0.997802734	891.68	14.72752873	25.1691033	-146.4417522	-69
29271	0	-0.251464844	-0.039978027	0.2109375	0.997932434	0.027394295	-0.018157959	0.055233002	-6.286621094	-0.999450684	5.2734375	1.370659507	-0.908524178	2.763554952	-0.075195313	0.105712891	-1.005371094	891.62	20.15870793	21.32735192	-140.4083935	-72
29272	0	-0.19762516	-0.044118881	0.212079048	0.997496605	0.027871132	-0.018075943	0.062416077	-4.940629005	-1.102972031	5.301976204	1.394720351	-0.904551909	3.123410009	-0.100097656	0.068359375	-1.006835938	891.54	25.31907628	16.69989925	-134.1007989	-79
29273	0	-0.115539551	0.002685547	0.192321777	0.997097969	0.019508362	-0.015589714	0.071910858	-2.88848877	0.067138672	4.808044434	0.976362613	-0.780240498	3.599024562	-0.127441406	0.031005859	-0.99609375	891.62	29.15578811	11.39044453	-127.2766181	-74
29274	0	-0.009085655	0.000977516	0.218928337	0.996921539	0.008721352	-0.010188103	0.07723999	-0.22714138	0.024437904	5.473208427	0.436515491	-0.509928375	3.865966387	-0.149169922	0.025146484	-0.988525391	891.62	31.20624048	5.981391371	-120.0706401	-70
29275	0	0.12713623	0.017883301	0.243103027	0.996674538	0.005973816	-0.003119469	0.081203461	3.178405762	0.44708252	6.077575684	0.29902231	-0.156146548	4.064679377	-0.159423828	0.041259766	-0.986572266	891.6	32.32201916	0.822655027	-112.3086252	-69
29276	0	0.249580383	0.070790291	0.271348	0.996454239	0.006010056	0.002356529	0.083880424	6.239509583	1.769757271	6.783699989	0.300858384	0.117965894	4.198984315	-0.151123047	0.065673828	-0.977294922	891.52	32.74880902	-4.086773474	-104.0525836	-72
29277	0	0.289855957	0.122436523	0.285705566	0.996372223	0.008919716	0.005817413	0.084423065	7.246398926	3.060913086	7.14263916	0.44652576	0.291222831	4.226263916	-0.127685547	0.083007813	-0.979980469	891.62	32.79112135	-8.741347616	-95.49300813	-68
29278	0	0.286086082	0.190326691	0.285024643	0.99669838	0.002314568	0.009163857	0.080637932	7.152152061	4.758167267	7.125616074	0.1158559	0.458697711	4.036339365	-0.094238281	0.090820313	-0.979736328	891.54	31.44033407	-12.75054129	-86.94480154	-65
29279	0	0.257385254	0.201904297	0.293212891	0.997205734	-0.005835533	0.00976181	0.073822021	6.434631348	5.047607422	7.330322266	-0.292048646	0.488545504	3.694541851	-0.056640625	0.109863281	-0.974609375	891.68	28.72707133	-16.01304635	-78.78248294	-64
29280	0	0.221666336	0.221388817	0.295048714	0.997778893	-0.010464668	0.005664825	0.065531731	5.541658401	5.534720421	7.376217842	-0.523621032	0.283451101	3.279013875	-0.016845703	0.135498047	-0.976074219	891.58	25.31680494	-18.83885188	-71.37695177	-64
29281	0	0.192199707	0.226074219	0.307556152	0.998179436	-0.014312744	0.000603676	0.058586121	4.804992676	5.651855469	7.688903809	-0.71607178	0.030202121	2.931084861	0.012939453	0.163818359	-0.962402344	891.62	21.39409178	-21.43047881	-64.66676816	-66
29282	0	0.168299675	0.210378647	0.295664787	0.998353004	-0.024677277	-0.003290176	0.051671982	4.207491875	5.259466171	7.391619682	-1.234541359	-0.164599153	2.585017774	0.038085938	0.196777344	-0.960693359	891.64	16.2813511	-23.69359159	-58.53672826	-70
29283	0	0.170227051	0.152099609	0.296325684	0.998345375	-0.036651611	-0.003558159	0.044151306	4.25567627	3.802490234	7.40814209	-1.833591621	-0.178006097	2.208783245	0.0546875	0.250244141	-0.942871094	891.58	9.878553727	-25.23102471	-53.00443868	-71
29284	0	0.171565056	0.062129021	0.29755497	0.998163223	-0.047346115	-0.003745079	0.037604332	4.289126396	1.553225517	7.438874245	-2.368756062	-0.187368671	1.881368494	0.077636719	0.319580078	-0.917724609	891.7	2.413823541	-26.11631434	-48.03716682	-69
29285	0	0.184753418	-0.008972168	0.315917969	0.997386932	-0.063216209	-0.00358963	0.03477478	4.618835449	-0.224304199	7.897949219	-3.16356604	-0.179637977	1.740254833	0.099609375	0.409179688	-0.876708984	891.58	-6.807312668	-26.37439844	-43.29460479	-82
29286	0	0.18290329	-0.102560043	0.301944733	0.997172356	-0.065835953	-0.00557518	0.035784721	4.572582245	-2.564001083	7.548618317	-3.294903117	-0.279021984	1.790924032	0.132324219	0.514404297	-0.808349609	891.68	-16.40938151	-26.1772884	-38.45789484	-69
29287	0	0.358154297	-0.046386719	0.254943848	0.994709969	-0.084030151	-0.003790855	0.058959961	8.953857422	-1.159667969	6.373596191	-4.208931726	-0.189877697	2.953207225	0.167724609	0.608154297	-0.739013672	891.62	-29.06575999	-23.97667815	-31.24754323	-63
29288	0	-0.073629379	-0.437271118	0.289761543	0.999254227	-0.030920029	-0.012307167	0.01957798	-1.840734482	-10.93177795	7.244038582	-1.546385825	-0.615511353	0.979142391	0.243408203	0.703125	-0.622314453	891.64	-33.80410288	-24.01210101	-28.35160136	-63
29289	0	0.289123535	-0.247558594	0.207275391	0.998436928	-0.051048279	-0.009215355	0.020793915	7.228088379	-6.188964844	5.181884766	-2.553744443	-0.461007931	1.040237704	0.249511719	0.721191406	-0.603759766	891.64	-40.79058674	-23.41764664	-25.54147491	-66
29290	0	0.15793705	-0.358010292	0.223044395	0.995389938	-0.08932209	-0.007382393	0.034141541	3.948426247	-8.950257301	5.576109886	-4.472979976	-0.369687896	1.709705033	0.283691406	0.779296875	-0.502197266	891.62	-52.42641506	-21.16357187	-21.94231981	-69
29291	0	0.194946289	-0.298522949	0.210449219	0.996278763	-0.079035759	-0.005088806	0.033988953	4.873657227	-7.46307373	5.261230469	-3.956696553	-0.254756354	1.701558554	0.339111328	0.832519531	-0.360351563	891.68	-62.45079263	-18.20521082	-19.18920738	-71
29292	0	0.086327553	-0.323167801	0.10777092	0.995347023	-0.09253788	-0.003587723	0.026594162	2.15818882	-8.079195023	2.694272995	-4.634082939	-0.179664856	1.331774106	0.393310547	0.854248047	-0.221679688	891.64	-73.56506432	-15.54369768	-17.59182785	-74
29293	0	0.140014648	-0.361633301	0.12713623	0.994635582	-0.100940704	-0.006476402	0.021652222	3.500366211	-9.04083252	3.178405762	-5.056079199	-0.32440038	1.084551058	0.440673828	0.860595703	-0.057861328	891.62	-85.48583426	-13.25130702	-16.36846893	-72
29294	0	0.085272789	-0.337748528	0.045261383	0.995467186	-0.093994141	-0.003265381	0.014128685	2.131819725	-8.443713188	1.131534576	-4.706820976	-0.163516183	0.707503579	0.477294922	0.8359375	0.115234375	891.66	-96.37728667	-11.63971381	-16.01043399	-68
29295	0	0.116577148	-0.261474609	-0.102783203	0.996553421	-0.082320213	-0.002628326	0.009815216	2.914428711	-6.536865234	-2.569580078	-4.120744937	-0.131567477	0.49132528	0.500732422	0.788818359	0.261474609	891.68	-105.8671202	-10.494632	-15.92796658	-70
29296	0	0.120990753	-0.225940704	-0.251814842	0.994039536	-0.108644485	-0.000226021	0.009018898	3.024768829	-5.648517609	-6.295371056	-5.443042578	-0.011323547	0.45184296	0.520507813	0.719238281	0.392089844	891.54	-118.3163707	-9.547507384	-16.28688639	-73
29297	0	0.059753418	-0.197021484	-0.34765625	0.993097305	-0.116805077	-0.000984192	0.010585785	1.493835449	-4.925537109	-8.69140625	-5.853727602	-0.049323124	0.530510344	0.539794922	0.602783203	0.538574219	891.7	-131.6856862	-8.509443402	-16.88285206	-71
29298	0	0.050842285	-0.303649902	-0.328491211	0.991876602	-0.12608242	-0.00574398	0.015830994	1.271057129	-7.591247559	-8.212280273	-6.32124653	-0.287979213	0.793699974	0.556640625	0.440917969	0.665527344	891.68	-146.098313	-6.839601016	-17.81035304	-79
29299	0	0.138474464	-0.830760002	-0.540111542	0.998763084	0.008018494	-0.026774406	0.041092873	3.46186161	-20.76900005	-13.50278854	0.4010899	-1.339271995	2.055490328	0.589355469	0.269287109	0.730957031	891.8	-145.0466228	-1.663742495	-19.97955995	-84
29300	0	0.048545837	-0.246021271	-0.408102989	0.995892525	0.074177742	-0.038885117	0.034380913	1.213645935	-6.150531769	-10.20257473	3.713972489	-1.946921668	1.721402685	0.659912109	0.277587891	0.673583984	891.7	-136.5609404	4.259804211	-20.22535726	-79
29301	0	0.00958252	-0.17956543	-0.476196289	0.989599228	0.141430855	-0.022621155	0.013336182	0.239562988	-4.489135742	-11.90490723	7.09616036	-1.134995204	0.669130393	0.728759766	0.348632813	0.564208984	891.82	-120.2245507	7.042965002	-19.14939678	-89
29302	0	-0.077075005	-0.325529099	0.154597282	0.998740196	0.049694061	-0.003271103	0.005989075	-1.926875114	-8.138227463	3.86493206	2.485746193	-0.163623809	0.299579452	0.759521484	0.481445313	0.398925781	891.6	-114.5473494	7.802886065	-19.12367922	-88
29303	0	-0.158325195	-0.612121582	-0.145996094	0.998251915	-0.053348541	0.018193245	-0.017772675	-3.958129883	-15.30303955	-3.649902344	-2.668982364	0.910192645	-0.889151865	0.747070313	0.475341797	0.437988281	891.62	-120.7820939	5.012970721	-20.02382484	-79
29304	0	-0.020111084	-0.439908028	-0.39635849	0.99894619	-0.044272423	0.009689331	-0.007236481	-0.5027771	-10.99770069	-9.90896225	-2.214398968	0.484636786	-0.361951174	0.717773438	0.461181641	0.493652344	891.68	-125.9139802	3.690659108	-20.49221705	-79
29305	0	0.037536621	-0.380126953	-0.262084961	0.998785973	-0.049091339	-0.002085686	0.003341675	0.938415527	-9.503173828	-6.552124023	-2.455560289	-0.104326489	0.167151357	0.709228516	0.416748047	0.547607422	891.66	-131.5649446	4.116768367	-20.54221591	-80
29306	0	0.095622063	-0.361481667	-0.421401024	0.993915558	-0.106537819	-0.022053719	0.017127991	2.390551567	-9.037041664	-10.5350256	-5.337719392	-1.104927456	0.858140416	0.721679688	0.337646484	0.577148438	891.76	-143.7990346	7.279184889	-20.28104326	-89
29307	0	0.040771484	-0.480163574	-0.64263916	0.955551147	-0.292975426	-0.000114441	0.032958984	1.019287109	-12.00408936	-16.065979	-14.86974261	-0.005808361	1.672807926	0.756103516	0.136474609	0.621582031	891.68	-178.4051182	8.48274683	-23.82930108	-83
29308	0	-0.092027664	-0.706837654	-0.349417686	0.966499329	-0.256099701	0.008301735	0.014912605	-2.300691605	-17.67094135	-8.735442162	-12.94991941	0.419784943	0.754069747	0.735351563	-0.356445313	0.561767578	891.62	151.7319145	7.137945118	-25.28132033	-85
29309	0	-0.077209473	0.158691406	-0.349975586	0.997125626	0.068139076	-0.032592773	0.00579071	-1.930236816	3.967285156	-8.749389648	3.410220868	-1.631201394	0.289813169	0.730224609	-0.519287109	0.437988281	891.64	159.2397399	10.2415658	-27.50484887	-79
29310	0	-0.079349518	0.421253204	-0.372211456	0.997973442	-0.035581589	-0.052734375	0.001196861	-1.983737946	10.53133011	-9.305286407	-1.780282032	-2.638501079	0.059883515	0.758789063	-0.459472656	0.451904297	891.7	154.5859734	15.73014522	-30.05464806	-77
29311	0	-0.087524414	-0.090820313	-0.246398926	0.995364189	-0.072685242	-0.061781883	-0.012226105	-2.188110352	-2.270507813	-6.159973145	-3.639888126	-3.093876253	-0.612251572	0.802490234	-0.516113281	0.301757813	891.62	145.4428955	22.55209859	-32.50305365	-76
29312	0	0.085573196	0.112914085	-0.361252785	0.996425629	-0.042800903	-0.066138268	-0.030474663	2.13932991	2.822852135	-9.031319618	-2.142598204	-3.310858468	-1.525550927	0.848632813	-0.516601563	0.144042969	891.68	139.6280384	30.67562878	-34.54493461	-70
29313	0	0.210693359	0.303955078	-0.081848145	0.994073868	-0.034789085	-0.065036774	-0.079845428	5.267333984	7.598876953	-2.046203613	-1.742897989	-3.258276578	-4.000175203	0.894775391	-0.456298828	-0.019042969	891.62	137.0385917	42.30939599	-32.20358259	-75
29314	0	0.042208672	0.183829308	-0.118552208	0.990792274	0.052879333	-0.05610466	-0.111293793	1.055216789	4.595732689	-2.963805199	2.652111474	-2.813874585	-5.581831788	0.961669922	-0.288330078	-0.130615234	891.62	150.6231681	55.05150758	-22.34152198	-76
29315	0	-0.056945801	0.361999512	-0.144226074	0.989804268	0.014377594	-0.087054253	-0.111804962	-1.42364502	9.049987793	-3.605651855	0.721332631	-4.367564776	-5.60932292	0.986572266	-0.098632813	-0.224121094	891.64	168.5377485	69.0230259	-4.109877439	-79
29316	0	0.028717041	0.240627289	0.01993084	0.987455368	-0.073389053	-0.08598423	-0.1102314	0.717926025	6.01568222	0.498270988	-3.684872995	-4.317278298	-5.534731529	0.931884766	0.122558594	-0.400878906	891.7	-151.6112854	77.69581247	45.97296967	-69
29317	0	-0.042419434	0.04901123	0.053588867	0.985877037	-0.092033386	-0.073317528	-0.119163513	-1.06048584	1.225280762	1.33972168	-4.623454779	-3.683231576	-5.986383172	0.806396484	0.389648438	-0.495605469	891.66	-105.1010738	71.41014608	104.8594656	-84
29318	0	-0.704528809	-0.070373535	0.123596191	0.989422798	-0.034992218	-0.046585083	-0.132843018	-17.61322021	-1.759338379	3.089904785	-1.755805593	-2.337501134	-6.665668152	0.612304688	0.644042969	-0.503173828	891.7	-93.07739612	57.07374867	122.5591681	-75
29319	0	-0.103528976	-0.257965088	0.208778381	0.990679741	0.00293541	-0.041695595	-0.129627228	-2.588224411	-6.449127197	5.219459534	0.147228082	-2.091279715	-6.50156913	0.372558594	0.796386719	-0.526123047	891.66	-87.03600886	42.20323041	129.9865481	-67
29320	0	0.185622215	-0.142298698	0.075162888	0.99058342	-0.049255371	-0.037213326	-0.122202873	4.640555382	-3.557467461	1.879072189	-2.470528066	-1.866528727	-6.129395056	0.1171875	0.856933594	-0.537353516	891.62	-89.94822394	28.08138385	134.7377993	-75
29321	0	0.215759277	-0.446533203	0.085388184	0.991055489	-0.054466248	-0.021216393	-0.1199646	5.393981934	-11.16333008	2.13470459	-2.731460734	-1.063993678	-6.016177138	-0.135498047	0.911621094	-0.416748047	891.58	-95.03120788	14.42919744	137.9941019	-77
29322	0	-0.015921593	-1.743390083	-0.126530647	0.995069504	0.00017643	-0.013007164	-0.098317146	-0.398039818	-43.58475208	-3.163266182	0.008836012	-0.651429044	-4.923951493	-0.383544922	0.873535156	-0.329345703	891.7	-94.60656156	3.298739673	140.4917453	-76
29323	0	-0.054199219	-0.554931641	0.005004883	0.999299049	-0.022201538	-0.013178825	0.027076721	-1.354980469	-13.87329102	0.12512207	-1.110336037	-0.65909509	1.354152095	-0.484863281	0.822998047	-0.325195313	891.64	-97.02493943	6.530276869	141.7205282	-75
29324	0	0.08511734	-0.161066055	-0.008192062	0.996525764	-0.070645332	0.008506775	0.043273926	2.127933502	-4.026651382	-0.204801559	-3.536362573	0.425831961	2.166205274	-0.428466797	0.877929688	-0.245117188	891.74	-105.4096364	11.19257079	139.8014067	-73
29325	0	-0.13885498	-0.303344727	-0.123840332	0.999938965	-0.003645897	0.005321503	0.00894928	-3.471374512	-7.583618164	-3.096008301	-0.182298543	0.266080531	0.447473066	-0.362792969	0.930419922	-0.147705078	891.64	-105.9822288	12.00515756	138.9507844	-72
29326	0	-0.099833488	-0.286153793	-0.08535099	0.99971962	0.013285637	0.002779961	-0.019380569	-2.495837212	-7.153844833	-2.133774757	0.664343843	0.139011004	-0.969118913	-0.362060547	0.92578125	-0.1796875	891.62	-104.3850307	9.770365777	139.2470249	-72
29327	0	-0.101867676	-0.455200195	-0.127075195	0.999581337	0.010936737	0.001049995	-0.026744843	-2.546691895	-11.38000488	-3.176879883	0.546913074	0.052507089	-1.337428519	-0.40625	0.90234375	-0.204345703	891.68	-103.0224859	6.756872962	139.8743372	-73
29328	0	-0.009790421	-0.460196495	-0.102136612	0.999980927	0.00512886	-0.000908852	-0.003225327	-0.244760513	-11.50491238	-2.553415298	0.256444628	-0.045442865	-0.161267336	-0.450683594	0.876708984	-0.217285156	891.68	-102.393787	6.409647481	140.0782823	-74
29329	0	-0.010803223	-0.350891113	-0.050109863	0.999867439	-0.011833191	-0.002310753	0.010917664	-0.270080566	-8.772277832	-1.252746582	-0.591685637	-0.115542738	0.545907251	-0.443603516	0.881103516	-0.215087891	891.62	-103.7323545	7.677109489	140.0691099	-73
29330	0	-0.074768066	-0.358520508	-0.087463379	0.999969482	-0.007540703	-0.000330925	0.001571655	-1.86920166	-8.963012695	-2.186584473	-0.377038876	-0.016546413	0.078583542	-0.427978516	0.894287109	-0.185058594	891.68	-104.5774568	7.851170982	140.0779026	-73
29331	0	-0.071960449	-0.395812988	-0.12310791	0.999840736	0.016525269	-0.004401207	-0.004985809	-1.79901123	-9.895324707	-3.077697754	0.826307131	-0.220071988	-0.249303652	-0.425292969	0.891845703	-0.187744141	891.62	-102.581684	7.40501495	140.7261495	-74
29332	0	-0.041245461	-0.385995865	-0.080547333	0.999603271	0.025457382	-0.010207176	-0.006298065	-1.031136513	-9.649896622	-2.013683319	1.273037174	-0.510426196	-0.314944838	-0.441162109	0.880859375	-0.221191406	891.68	-99.48443601	6.910428836	142.0402307	-75
29333	0	-0.012695313	-0.38269043	-0.033813477	0.999705315	0.019996643	-0.012164116	-0.006298065	-0.317382813	-9.567260742	-0.845336914	0.999930079	-0.608265364	-0.314934102	-0.458984375	0.86328125	-0.25390625	891.64	-97.00095329	6.383792855	143.5464647	-76
29334	0	-0.009735107	-0.396865845	-0.025186539	0.999907494	0.010026932	-0.008955002	-0.001722336	-0.243377686	-9.921646118	-0.629663467	0.501361939	-0.447763801	-0.086119428	-0.47265625	0.847900391	-0.269287109	891.7	-95.716911	6.287006684	144.606171	-79
29335	0	-0.051879883	-0.390258789	-0.042053223	0.999934196	0.006980896	-0.009066582	0.000762939	-1.29699707	-9.756469727	-1.051330566	0.349052451	-0.453339024	0.038147809	-0.477050781	0.843505859	-0.274658203	891.7	-94.78385816	6.455045935	145.64918	-84
29336	0	-0.084771156	-0.381077766	-0.021351814	0.999939919	0.007248878	-0.008148193	-0.00053978	-2.119278908	-9.52694416	-0.533795357	0.362451127	-0.407417764	-0.02698952	-0.481689453	0.839111328	-0.279785156	891.74	-93.8290508	6.45125071	146.5996902	-85
29337	0	-0.092224121	-0.392150879	-0.011779785	0.999899864	0.012821198	-0.005908012	-0.000705719	-2.305603027	-9.803771973	-0.294494629	0.641081223	-0.295410457	-0.035287125	-0.483642578	0.834472656	-0.288085938	891.68	-92.26482278	6.39649351	147.2957989	-84
29338	0	-0.045334816	-0.381855965	0.002150536	0.999890327	0.013946533	-0.003692627	-0.003232956	-1.133370399	-9.546399117	0.05376339	0.697352068	-0.184638075	-0.161653686	-0.492675781	0.825683594	-0.307373047	891.76	-90.6009356	6.02674605	147.7422619	-85
29339	0	-0.03692627	-0.381469727	0.018920898	0.999948502	0.009362221	-0.002292633	-0.002960205	-0.923156738	-9.536743164	0.473022461	0.468118971	-0.114633595	-0.148012762	-0.499023438	0.814697266	-0.323730469	891.74	-89.48198053	5.677533994	148.0155799	-86
29340	0	-0.033027649	-0.382390022	0.027276993	0.999996185	0.002105713	-0.00083828	-0.000889778	-0.825691223	-9.559750557	0.68192482	0.105285749	-0.041914028	-0.044488951	-0.503173828	0.803466797	-0.337158203	891.7	-89.21163163	5.564020257	148.1131506	-83
29341	0	-0.035644531	-0.385742188	0.021850586	0.99998951	-0.004371643	0.00049305	0.000270844	-0.891113281	-9.643554688	0.546264648	-0.218582861	0.024652561	0.013542219	-0.505859375	0.805908203	-0.325439453	891.68	-89.69812684	5.585066654	148.0640145	-80
29342	0	-0.038796425	-0.392034531	0.008192062	0.999983788	-0.00551796	0.001024246	0.000523567	-0.969910622	-9.800863266	0.204801559	-0.275899441	0.051212582	0.026178499	-0.506103516	0.808105469	-0.322753906	891.68	-90.32234929	5.634562862	147.950484	-81
29343	0	-0.041015625	-0.397644043	-0.003112793	0.999999046	-0.000530243	8.86917E-05	0.00031662	-1.025390625	-9.941101074	-0.077819824	-0.026512148	0.004434586	0.015830995	-0.50390625	0.8125	-0.314453125	891.68	-90.36516272	5.660442876	147.9493967	-85
29344	0	-0.041870117	-0.396240234	0.000183105	0.999986649	0.00510025	-0.00070858	5.34058E-05	-1.04675293	-9.906005859	0.004577637	0.255013639	-0.035429157	0.0026703	-0.501464844	0.8125	-0.320556641	891.74	-89.75417295	5.656463994	148.0399959	-84
29345	0	-0.041360855	-0.389201164	0.011115074	0.99997139	0.007357597	-0.00125885	-0.000272751	-1.034021378	-9.730029106	0.277876854	0.367883289	-0.06294309	-0.01363767	-0.505859375	0.805664063	-0.331298828	891.62	-88.87847815	5.613473221	148.1948172	-85
29346	0	-0.038078308	-0.383875847	0.026335716	0.999990463	0.00416851	-0.000864983	-0.000516891	-0.951957703	-9.596896172	0.658392906	0.208426161	-0.043249263	-0.025844653	-0.505371094	0.801269531	-0.33984375	891.64	-88.37254878	5.541889242	148.2996861	-84
29347	0	-0.036071777	-0.38470459	0.027893066	0.999998093	-0.001582146	-6.10352E-05	-0.00012207	-0.901794434	-9.617614746	0.69732666	-0.079107318	-0.003051759	-0.006103518	-0.507568359	0.799072266	-0.345458984	891.64	-88.53425734	5.51765661	148.3069014	-86
29348	0	-0.038233757	-0.388986588	0.018486977	0.999993324	-0.00339222	0.000291824	0.000110626	-0.955843925	-9.724664688	0.462174416	-0.169611305	0.014591245	0.005531322	-0.505371094	0.801269531	-0.33984375	891.62	-88.90740131	5.521059978	148.2737485	-91
29349	0	-0.040771484	-0.393432617	0.012939453	0.999996185	-0.002505302	0.000286102	8.01086E-05	-1.019287109	-9.83581543	0.323486328	-0.125265254	0.01430513	0.004005436	-0.505859375	0.805664063	-0.331298828	891.68	-89.17916818	5.520931306	148.246471	-91
29350	0	-0.039560318	-0.392145157	0.011134148	0.999999046	-0.000720978	-0.00012207	-0.000226021	-0.98900795	-9.803628922	0.278353691	-0.036048893	-0.006103516	-0.011301042	-0.505615234	0.805664063	-0.334228516	891.62	-89.24232468	5.485069349	148.2612948	-91
29351	0	-0.037902832	-0.389160156	0.015441895	0.999999046	-0.000534058	8.58307E-06	-0.000183105	-0.947570801	-9.729003906	0.386047363	-0.026702882	0.000429153	-0.009155274	-0.505859375	0.805664063	-0.331298828	891.68	-89.2855502	5.45436982	148.2633757	-93
29352	0	-0.037353516	-0.390136719	0.014099121	0.999999046	-0.000979424	6.48499E-05	-5.72205E-05	-0.933837891	-9.753417969	0.352478027	-0.048971184	0.003242493	-0.002861023	-0.508300781	0.805908203	-0.325439453	891.68	-89.38050257	5.438192462	148.2652694	-91
29353	0	-0.037902832	-0.390380859	0.012695313	0.999999046	-0.000881195	8.86917E-05	-3.8147E-05	-0.947570801	-9.759521484	0.317382813	-0.044059759	0.004434586	-0.001907349	-0.506103516	0.808105469	-0.322753906	891.62	-89.46460337	5.424262595	148.2645572	-85
29354	0	-0.037719727	-0.390136719	0.012207031	0.999999046	-0.000522614	3.8147E-06	-0.000175476	-0.942993164	-9.753417969	0.305175781	-0.026130678	0.000190735	-0.008773804	-0.505859375	0.805664063	-0.328369141	891.7	-89.50686492	5.394528635	148.2660432	-83
29355	0	-0.037536621	-0.390380859	0.012084961	0.999999046	-0.000324249	-6.67572E-06	-0.000183105	-0.938415527	-9.759521484	0.302124023	-0.016212464	-0.000333786	-0.009155274	-0.510742188	0.805908203	-0.325195313	891.7	-89.52639283	5.363957726	148.2750947	-84
29356	0	-0.037307739	-0.390111923	0.01157856	0.999993324	-0.000130653	-0.000148773	-0.000118256	-0.932693481	-9.75279808	0.289463997	-0.006532669	-0.00743866	-0.005912781	-0.508300781	0.805908203	-0.325439453	891.64	-89.52235826	5.340718533	148.2979866	-91
29357	0	-0.037475586	-0.390197754	0.011901855	0.999999046	-0.000205994	-8.29697E-05	-2.67029E-05	-0.936889648	-9.754943848	0.297546387	-0.010299683	-0.004148483	-0.001335144	-0.505859375	0.805908203	-0.322509766	891.7	-89.52778243	5.328087919	148.3145637	-93
29358	0	-0.037331581	-0.390692711	0.010525703	0.999999046	-9.34601E-05	-2.67029E-05	-0.000118256	-0.933289528	-9.767317772	0.263142586	-0.004673004	-0.001335144	-0.005912781	-0.508300781	0.805908203	-0.322509766	891.64	-89.52110963	5.305067408	148.3261701	-91
29359	0	-0.036743164	-0.391845703	0.009887695	0.999999046	4.57764E-05	-6.00815E-05	7.62939E-06	-0.918579102	-9.796142578	0.247192383	0.002288818	-0.003004074	0.00038147	-0.508300781	0.808105469	-0.325683594	891.76	-89.49834816	5.296455221	148.3381343	-85
29360	0	-0.037847519	-0.391112328	0.009622574	0.999999046	0.000571251	-0.000123978	-0.000126839	-0.946187973	-9.777808189	0.240564346	0.028562547	-0.006198883	-0.006341935	-0.508300781	0.805908203	-0.322509766	891.64	-89.41493555	5.272445446	148.3620096	-83
29361	0	-0.037658691	-0.390625	0.012145996	0.999999046	0.000694275	-1.43051E-05	-6.86646E-05	-0.941467285	-9.765625	0.303649902	0.034713748	-0.000715256	-0.003433228	-0.508300781	0.803710938	-0.325195313	891.62	-89.31872231	5.255301344	148.3711179	-84
29362	0	-0.035957336	-0.390003204	0.012382507	0.999999046	0.000514984	-9.34601E-05	-9.53674E-05	-0.898933411	-9.750080109	0.309562683	0.025749208	-0.004673004	-0.004768372	-0.505859375	0.805664063	-0.328369141	891.7	-89.24238974	5.23498698	148.3842682	-84
29363	0	-0.036743164	-0.391662598	0.010742188	0.999999046	0.000556946	-7.15256E-05	-7.62939E-05	-0.918579102	-9.791564941	0.268554688	0.027847292	-0.003576279	-0.003814697	-0.508300781	0.805908203	-0.322509766	891.7	-89.16170894	5.216925002	148.4059052	-83
29364	0	-0.038024902	-0.393185616	0.008865356	0.999996185	0.00252533	-0.000273705	-2.76566E-05	-0.950622559	-9.829640388	0.221633911	0.126266615	-0.013685241	-0.001382829	-0.510742188	0.805908203	-0.328125	891.64	-88.85372873	5.204112166	148.4504004	-84
29365	0	-0.038085938	-0.393798828	0.011413574	0.999987602	0.004737854	-0.000712395	-0.00019455	-0.952148438	-9.844970703	0.285339355	0.236893608	-0.035619872	-0.009727515	-0.510253906	0.799072266	-0.330566406	891.64	-88.28804352	5.170802632	148.5493018	-86
29366	0	-0.036935806	-0.390368462	0.017606735	0.999982834	0.005684853	-0.000851631	-0.000359535	-0.923395157	-9.75921154	0.440168381	0.284244202	-0.042581794	-0.01797686	-0.510253906	0.799072266	-0.336425781	891.74	-87.61276316	5.117232616	148.6658255	-89
29367	0	-0.035949707	-0.388427734	0.024108887	0.999987602	0.004905701	-0.000666618	-0.000370026	-0.898742676	-9.710693359	0.602722168	0.245286042	-0.033331054	-0.018501358	-0.514648438	0.794677734	-0.347412109	891.62	-87.02891476	5.06245494	148.7577213	-87
29368	0	-0.036237717	-0.390034676	0.027618408	0.999987602	0.00477314	-0.000883102	-0.000365257	-0.905942917	-9.75086689	0.690460205	0.23865794	-0.044155295	-0.018262935	-0.514404297	0.790039063	-0.353027344	891.62	-86.45832282	5.006149008	148.8738545	-86
29369	0	-0.035461426	-0.390014648	0.030578613	0.999987602	0.00472641	-0.0007658	-0.000247955	-0.886535645	-9.750366211	0.764465332	0.236321401	-0.03829017	-0.012397814	-0.516357422	0.785644531	-0.358398438	891.64	-85.89447924	4.963232629	148.9794086	-84
29370	0	-0.035401344	-0.388066292	0.035523415	0.99998951	0.004323959	-0.000673294	-0.00042057	-0.885033607	-9.701657295	0.888085365	0.216198664	-0.033664812	-0.021028586	-0.516113281	0.783203125	-0.366943359	891.74	-85.37802789	4.900675142	149.067561	-83
29371	0	-0.034057617	-0.386169434	0.040893555	0.999996185	0.002346992	-0.000434875	-0.000263214	-0.85144043	-9.65423584	1.022338867	0.117349737	-0.021743795	-0.013160718	-0.515869141	0.781005859	-0.375488281	891.74	-85.09044555	4.857885329	149.1205128	-84
29372	0	-0.034062386	-0.386236191	0.042613029	0.999999046	0.000180244	-0.000110626	6.86646E-05	-0.851559639	-9.65590477	1.065325737	0.009012222	-0.005531311	0.003433228	-0.518310547	0.778808594	-0.372314453	891.64	-85.05405012	4.856082876	149.1466314	-85
29373	0	-0.034606934	-0.387390137	0.042541504	0.999997139	-0.00195694	8.10623E-05	0.000190735	-0.86517334	-9.684753418	1.063537598	-0.097847048	0.004053118	0.009536749	-0.515869141	0.781005859	-0.375488281	891.64	-85.2643808	4.870157809	149.1406801	-86
29374	0	-0.034884453	-0.389662743	0.037409782	0.999996185	-0.002701759	0.000100136	0.000159264	-0.87211132	-9.741568565	0.93524456	-0.135088132	0.005006796	0.00796319	-0.518310547	0.778808594	-0.369384766	891.62	-85.56049984	4.880823316	149.13738	-86
29375	0	-0.03503418	-0.391113281	0.034057617	0.999997139	-0.002059937	0.000153542	8.7738E-05	-0.875854492	-9.777832031	0.85144043	-0.1029969	0.007677084	0.004386905	-0.518554688	0.78125	-0.369628906	891.68	-85.7839589	4.883781375	149.1229064	-86
29376	0	-0.034808159	-0.39124012	0.031335831	0.999999046	-0.000477791	4.3869E-05	0.000106812	-0.870203972	-9.781002998	0.783395767	-0.023889543	0.002193451	0.005340576	-0.518798828	0.785644531	-0.364013672	891.7	-85.82536545	4.887994177	149.1304389	-86
29377	0	-0.034973145	-0.390869141	0.032897949	0.999999046	0.000682831	-0.000121117	-4.57764E-05	-0.874328613	-9.771728516	0.82244873	0.034141543	-0.006055832	-0.002288819	-0.516357422	0.783447266	-0.361083984	891.7	-85.73251483	4.873432658	149.1588487	-85
29378	0	-0.034808159	-0.388813019	0.033864021	0.999999046	0.000804901	-0.000217438	9.91821E-05	-0.870203972	-9.72032547	0.846600533	0.040245061	-0.010871888	0.004959107	-0.518554688	0.783447266	-0.366943359	891.7	-85.62486134	4.874639271	149.1940123	-85
29379	0	-0.034667969	-0.38873291	0.035888672	0.999999046	4.95911E-05	-3.71933E-05	1.52588E-05	-0.866699219	-9.718322754	0.897216797	0.002479553	-0.001859665	0.000762939	-0.516113281	0.783203125	-0.366943359	891.8	-85.60572925	4.867861862	149.2053019	-84
29380	0	-0.0344944	-0.389400482	0.033854485	0.999999046	-0.00032711	-2.28882E-05	0.000217438	-0.862360001	-9.735012054	0.846362114	-0.016355515	-0.001144409	0.010871887	-0.516113281	0.783203125	-0.366943359	891.74	-85.63000634	4.884347628	149.2161987	-84
29381	0	-0.034484863	-0.387817383	0.035888672	0.999999046	-0.001098633	0.00017643	0.000240326	-0.862121582	-9.69543457	0.897216797	-0.054931652	0.008821489	0.012016299	-0.518554688	0.78125	-0.360839844	891.66	-85.74473675	4.905192028	149.2146769	-83
29382	0	-0.034563065	-0.388855934	0.034960747	0.999997139	-0.00207901	0.000331879	0.00014019	-0.864076614	-9.721398354	0.874018669	-0.103950578	0.016593945	0.007009511	-0.516113281	0.783203125	-0.366943359	891.54	-85.97358989	4.915870502	149.1770747	-82
29383	0	-0.034729004	-0.389709473	0.03314209	0.999996185	-0.002482414	0.000492096	0.000331879	-0.868225098	-9.742736816	0.828552246	-0.124120847	0.024604824	0.016593951	-0.518798828	0.785644531	-0.358154297	891.66	-86.25026505	4.949552842	149.1359431	-82
29384	0	-0.034896851	-0.388744354	0.03050518	0.999994278	-0.003074646	0.000470161	0.000250816	-0.872421265	-9.718608856	0.762629509	-0.153732549	0.02350811	0.012540838	-0.516601563	0.787841797	-0.355712891	891.68	-86.59487204	4.97354758	149.0916213	-82
29385	0	-0.03515625	-0.391052246	0.025390625	0.999995232	-0.002902985	0.000500679	0.000312805	-0.87890625	-9.776306152	0.634765625	-0.145149443	0.025033987	0.015640282	-0.516845703	0.790283203	-0.352783203	891.66	-86.92043946	5.00454442	149.0433939	-82
29386	0	-0.035669327	-0.392751694	0.021915436	0.999999046	-0.001127243	0.000135422	0.000132561	-0.89173317	-9.818792343	0.547885895	-0.056362164	0.006771089	0.006628038	-0.514404297	0.792480469	-0.347412109	891.68	-87.0393581	5.01251954	149.0403103	-82
29387	0	-0.035095215	-0.390991211	0.022460938	0.999999046	0.000305176	-8.29697E-05	9.15527E-05	-0.877380371	-9.774780273	0.561523438	0.015258789	-0.004148483	0.004577637	-0.514648438	0.794677734	-0.350341797	891.76	-86.99226822	5.014499517	149.0584045	-82
29388	0	-0.035223961	-0.389138222	0.025572777	0.999999046	0.000475883	-7.82013E-05	-6.96182E-05	-0.880599022	-9.728455544	0.63931942	0.023794175	-0.003910065	-0.003480911	-0.514404297	0.792480469	-0.347412109	891.62	-86.9258847	4.998071231	149.0805525	-82
29389	0	-0.034973145	-0.389648438	0.025268555	0.999999046	-0.000110626	-1.43051E-05	8.7738E-05	-0.874328613	-9.741210938	0.631713867	-0.005531311	-0.000715256	0.004386902	-0.516845703	0.792480469	-0.350097656	891.68	-86.92744932	5.000047773	149.0940257	-82
29390	0	-0.03485775	-0.389770508	0.025671005	0.999999046	-0.000350952	1.52588E-05	0.000167847	-0.871443748	-9.744262695	0.641775131	-0.017547608	0.000762939	0.008392334	-0.514648438	0.792480469	-0.344482422	891.68	-86.9569499	5.011367601	149.1113104	-81
29391	0	-0.035522461	-0.390319824	0.024963379	0.999999046	-0.000255585	-0.000121117	5.34058E-05	-0.888061523	-9.757995605	0.624084473	-0.012779236	-0.006055832	0.002670288	-0.516845703	0.792480469	-0.347167969	891.7	-86.97439777	5.008793159	149.1400832	-81
29392	0	-0.03488636	-0.388010979	0.026725769	0.999999046	-0.000792503	7.62939E-05	4.19617E-05	-0.872159004	-9.700274467	0.668144226	-0.039625172	0.003814698	0.002098084	-0.514404297	0.792480469	-0.350341797	891.64	-87.0554463	5.006125136	149.1353783	-80
29393	0	-0.03503418	-0.387145996	0.027709961	0.999996185	-0.002596855	0.000347137	-2.28882E-05	-0.875854492	-9.678649902	0.692749023	-0.129842907	0.017356892	-0.00114441	-0.517089844	0.794677734	-0.344482422	891.7	-87.34597783	4.997523214	149.106581	-81
29394	0	-0.034238815	-0.390072823	0.021570206	0.999990463	-0.004197121	0.000475883	0.000212669	-0.855970383	-9.751820564	0.539255142	-0.209856659	0.023794245	0.0106335	-0.514648438	0.794677734	-0.344482422	891.7	-87.82130747	5.016229923	149.0503072	-81
29395	0	-0.036071777	-0.394958496	0.011474609	0.999998093	-0.001761436	0.000217438	0.000392914	-0.901794434	-9.873962402	0.286865234	-0.088071872	0.010871893	0.019645702	-0.514892578	0.797119141	-0.333007813	891.64	-88.0154215	5.054184071	149.04216	-81
29396	0	-0.036265373	-0.392175674	0.014165878	0.999999046	0.001311302	-0.000200272	-1.62125E-05	-0.906634331	-9.804391861	0.354146957	0.065565128	-0.010013583	-0.000810623	-0.512695313	0.799316406	-0.330322266	891.58	-87.85368225	5.043590921	149.0862408	-79
29397	0	-0.035339355	-0.389526367	0.01776123	0.999998093	0.001748085	-0.000305176	-0.000267029	-0.883483887	-9.73815918	0.444030762	0.087404298	-0.015258797	-0.013351448	-0.515136719	0.799316406	-0.336181641	891.64	-87.64114693	5.003751942	149.1370545	-80
29398	0	-0.034631729	-0.387579918	0.02163887	0.999999046	0.000469208	-9.53674E-05	7.62939E-06	-0.865793228	-9.689497948	0.540971756	0.023460389	-0.004768372	0.00038147	-0.512451172	0.794677734	-0.338867188	891.64	-87.57724304	4.996301762	149.1569431	-81
29399	0	-0.034790039	-0.389038086	0.021606445	0.999999046	-0.000656128	2.76566E-05	4.95911E-05	-0.869750977	-9.725952148	0.540161133	-0.032806399	0.001382828	0.002479553	-0.514892578	0.794677734	-0.335693359	891.74	-87.64358383	4.99423007	149.1698088	-81
29400	0	-0.034646988	-0.390218735	0.017857552	0.999999046	-0.000893593	7.43866E-05	0.000209808	-0.866174698	-9.755468369	0.446438789	-0.044679648	0.00371933	0.010490419	-0.514892578	0.797119141	-0.3359375	891.74	-87.73779799	5.010704792	149.1756295	-81
29401	0	-0.035522461	-0.390563965	0.017700195	0.999999046	-0.000137329	-0.000132561	0.000171661	-0.888061523	-9.764099121	0.442504883	-0.006866455	-0.006628037	0.008583069	-0.512451172	0.799072266	-0.339111328	891.76	-87.74352683	5.021914255	149.1958916	-80
29402	0	-0.035346985	-0.39080143	0.017663002	0.999999046	4.19617E-05	2.47955E-05	6.00815E-05	-0.883674622	-9.770035744	0.44157505	0.002098083	0.001239777	0.003004074	-0.514892578	0.799316406	-0.339111328	891.7	-87.73054936	5.021062207	149.2009124	-80
29403	0	-0.034912109	-0.39050293	0.018066406	0.999999046	0.000427246	4.76837E-06	0	-0.872802734	-9.762573242	0.451660156	0.021362305	0.000238419	0	-0.512695313	0.799316406	-0.336181641	891.68	-87.67343528	5.013233606	149.2120653	-79
29404	0	-0.035462379	-0.390305519	0.017971992	0.999999046	0.000525475	-0.000104904	-3.8147E-05	-0.886559486	-9.757637978	0.449299812	0.026273729	-0.005245209	-0.001907349	-0.514892578	0.797119141	-0.3359375	891.68	-87.60419029	5.000538035	149.2394826	-80
29405	0	-0.03515625	-0.390014648	0.019165039	0.999999046	0.000328064	1.23978E-05	-8.39233E-05	-0.87890625	-9.750366211	0.479125977	0.016403199	0.000619888	-0.004196167	-0.514892578	0.794677734	-0.335693359	891.64	-87.55893434	4.983173352	149.2538371	-81
29406	0	-0.034787178	-0.389518738	0.021128654	0.999999046	-0.000213623	-6.10352E-05	0.000133514	-0.869679451	-9.737968445	0.528216362	-0.010681152	-0.003051758	0.00667572	-0.517578125	0.799316406	-0.333007813	891.76	-87.57499629	4.990329219	149.2860179	-81
29407	0	-0.034912109	-0.390136719	0.019042969	0.999999046	-0.000389099	-6.67572E-06	0.000171661	-0.872802734	-9.753417969	0.476074219	-0.019454957	-0.000333786	0.008583069	-0.514892578	0.797119141	-0.333007813	891.7	-87.61188326	5.002132813	149.3070002	-82
29408	0	-0.035351753	-0.39081192	0.019593239	0.999999046	-0.000370979	-2.09808E-05	0.000231743	-0.883793831	-9.770298004	0.489830971	-0.018548966	-0.001049042	0.011587143	-0.514892578	0.796875	-0.341796875	891.64	-87.6466857	5.02079654	149.3121339	-83
29409	0	-0.035339355	-0.39074707	0.018249512	0.999999046	-0.000209808	5.05447E-05	5.72205E-05	-0.883483887	-9.768676758	0.456237793	-0.010490418	0.002527237	0.002861023	-0.514892578	0.799316406	-0.339111328	891.7	-87.66399489	5.019817939	149.3133915	-84
29410	0	-0.035019875	-0.39111805	0.018997192	1	2.86102E-06	-4.1008E-05	-2.76566E-05	-0.875496864	-9.777951241	0.47492981	0.000143051	-0.0020504	-0.001382828	-0.517333984	0.797119141	-0.333007813	891.7	-87.6561729	5.008659301	149.3386932	-85
29411	0	-0.035217285	-0.390930176	0.019226074	0.999999046	0.0001297	-0.000102043	1.14441E-05	-0.880432129	-9.773254395	0.480651855	0.006484985	-0.005102158	0.000572205	-0.514892578	0.797119141	-0.3359375	891.66	-87.63332872	5.00171811	149.3623578	-84
29412	0	-0.035038948	-0.390008926	0.020554543	0.999999046	-8.4877E-05	-2.86102E-05	-1.90735E-05	-0.875973701	-9.75022316	0.513863564	-0.004243851	-0.001430511	-0.000953674	-0.512451172	0.796875	-0.339111328	891.64	-87.63589817	4.991656786	149.3677865	-82
29413	0	-0.03515625	-0.390197754	0.020629883	0.999999046	-0.000232697	-2.86102E-06	0.000118256	-0.87890625	-9.754943848	0.51574707	-0.011634827	-0.000143051	0.005912781	-0.514892578	0.797119141	-0.338867188	891.64	-87.65566094	4.997446105	149.3739792	-81
29414	0	-0.035370827	-0.391541481	0.019288063	0.999999046	-0.000274658	0.000102997	-5.34058E-05	-0.884270668	-9.788537025	0.482201576	-0.01373291	0.005149841	-0.002670288	-0.514892578	0.797119141	-0.3359375	891.66	-87.68147587	4.984084712	149.3720537	-80
29415	0	-0.034973145	-0.390808105	0.018798828	0.999999046	9.15527E-05	-4.48227E-05	3.8147E-05	-0.874328613	-9.770202637	0.469970703	0.004577637	-0.002241135	0.001907349	-0.514892578	0.797119141	-0.333007813	891.7	-87.66393686	4.980513446	149.3931853	-79
29416	0	-0.035123825	-0.390192032	0.020032883	0.999999046	-7.34329E-05	-0.000118256	2.28882E-05	-0.878095627	-9.754800797	0.500822067	-0.003671646	-0.005912781	0.001144409	-0.517333984	0.797119141	-0.338867188	891.74	-87.66465674	4.974878297	149.4137689	-78
29417	0	-0.03515625	-0.391235352	0.018371582	0.999999046	-2.28882E-05	-0.000105858	3.05176E-05	-0.87890625	-9.780883789	0.459289551	-0.001144409	-0.005292892	0.001525879	-0.514892578	0.797119141	-0.338867188	891.7	-87.65986492	4.970199111	149.4295183	-78
29418	0	-0.035054207	-0.390257835	0.020375252	0.999999046	0.000196457	-6.29425E-05	-0.000142097	-0.876355171	-9.756445885	0.509381294	0.009822846	-0.003147125	-0.007104874	-0.514892578	0.797119141	-0.333007813	891.62	-87.63047421	4.945952128	149.4508701	-78
29419	0	-0.035217285	-0.389892578	0.020385742	0.999999046	0.00043869	-5.24521E-05	2.28882E-05	-0.880432129	-9.747314453	0.509643555	0.02193451	-0.002622604	0.001144409	-0.514892578	0.797119141	-0.333007813	891.68	-87.57341888	4.940673776	149.4727939	-78
29420	0	-0.034928322	-0.389995575	0.021036148	0.999999046	0.000128746	-3.05176E-05	1.90735E-05	-0.873208046	-9.749889374	0.525903702	0.006437302	-0.001525879	0.000953674	-0.514892578	0.797119141	-0.3359375	891.68	-87.55214687	4.935092331	149.4866379	-78
29421	0	-0.035095215	-0.389892578	0.01965332	0.999999046	-0.000225067	-9.44138E-05	4.95911E-05	-0.877380371	-9.747314453	0.491333008	-0.011253357	-0.004720688	0.002479553	-0.514892578	0.797119141	-0.338867188	891.62	-87.5708987	4.932733777	149.501317	-78
29422	0	-0.034825325	-0.390203476	0.019300461	0.999999046	-0.000366211	-2.67029E-05	3.8147E-05	-0.870633125	-9.755086899	0.48251152	-0.018310547	-0.001335144	0.001907349	-0.514892578	0.799316406	-0.339111328	891.7	-87.60662589	4.929411481	149.5069287	-78
29423	0	-0.034851074	-0.39074707	0.01776123	1	1.62125E-05	7.62939E-06	1.90735E-05	-0.871276855	-9.768676758	0.444030762	0.000810623	0.00038147	0.000953674	-0.514892578	0.797119141	-0.338867188	891.64	-87.5990673	4.924085603	149.5086747	-78
29424	0	-0.034928322	-0.390868187	0.018260002	0.999999046	0.000517845	-4.00543E-05	3.05176E-05	-0.873208046	-9.771704674	0.456500053	0.025892259	-0.002002716	0.001525879	-0.517333984	0.797119141	-0.341796875	891.64	-87.53371353	4.919858112	149.5149919	-78
29425	0	-0.034851074	-0.389831543	0.020690918	0.999999046	0.000530243	-6.77109E-05	-1.52588E-05	-0.871276855	-9.745788574	0.517272949	0.026512147	-0.003385544	-0.000762939	-0.514892578	0.796875	-0.341796875	891.66	-87.46674507	4.910279537	149.5226515	-78
29426	0	-0.034775734	-0.388834	0.021718025	0.999999046	-0.000188828	-7.82013E-05	-4.57764E-05	-0.869393349	-9.720849991	0.54295063	-0.009441376	-0.003910065	-0.002288818	-0.517333984	0.794921875	-0.335693359	891.76	-87.4820977	4.89715076	149.5448767	-78
29427	0	-0.034667969	-0.39050293	0.020874023	0.999999046	-0.000270844	-1.04904E-05	0.000110626	-0.866699219	-9.762573242	0.521850586	-0.013542175	-0.000524521	0.005531311	-0.514892578	0.794677734	-0.335693359	891.7	-87.50751385	4.902294389	149.5560608	-78
29428	0	-0.034876823	-0.390444756	0.018709183	0.999999046	6.38962E-05	-0.000101089	0.000109673	-0.871920586	-9.761118889	0.467729568	0.003194809	-0.005054474	0.005483627	-0.517333984	0.797119141	-0.3359375	891.66	-87.49384118	4.906889745	149.5806275	-77
29429	0	-0.034912109	-0.390014648	0.020019531	0.999999046	0.000183105	-7.9155E-05	-0.000114441	-0.872802734	-9.750366211	0.500488281	0.009155274	-0.003957748	-0.005722046	-0.514892578	0.794677734	-0.332763672	891.76	-87.46691588	4.885962023	149.6040078	-77
29430	0	-0.034758568	-0.391052246	0.022059441	0.999999046	0.000236511	-0.000152588	6.10352E-05	-0.868964195	-9.776306152	0.551486015	0.011825562	-0.007629395	0.003051758	-0.514892578	0.796875	-0.341796875	891.66	-87.4330923	4.884790041	149.6199409	-77
29431	0	-0.035095215	-0.390625	0.021789551	0.999999046	-0.000232697	-5.62668E-05	0.0001297	-0.877380371	-9.765625	0.54473877	-0.011634827	-0.002813339	0.006484985	-0.514892578	0.794677734	-0.335693359	891.64	-87.45396532	4.891990887	149.6358857	-78
29432	0	-0.034950256	-0.390320778	0.019719124	0.999999046	-0.00014019	1.52588E-05	7.62939E-06	-0.873756409	-9.758019447	0.492978096	-0.007009506	0.000762939	0.00038147	-0.514648438	0.794677734	-0.341552734	891.64	-87.46512307	4.885630266	149.6308827	-80
29433	0	-0.034362793	-0.390686035	0.020019531	0.999999046	-0.00025177	-5.24521E-05	6.48499E-05	-0.859069824	-9.767150879	0.500488281	-0.012588501	-0.002622604	0.003242493	-0.514892578	0.797119141	-0.3359375	891.7	-87.48847124	4.885460089	149.6448036	-80
29434	0	-0.034472466	-0.390143394	0.020741463	0.999999046	3.24249E-05	-0.000150681	8.29697E-05	-0.861811638	-9.753584862	0.518536568	0.001621246	-0.007534027	0.004148483	-0.514892578	0.794677734	-0.338623047	891.68	-87.47834005	4.886886227	149.6641686	-78
29435	0	-0.034667969	-0.390197754	0.020385742	0.999999046	0.000102997	-5.62668E-05	3.8147E-05	-0.866699219	-9.754943848	0.509643555	0.005149841	-0.002813339	0.001907349	-0.517333984	0.797119141	-0.3359375	891.66	-87.46112974	4.883652892	149.6813736	-78
29436	0	-0.034695625	-0.390496254	0.02040863	0.999999046	0.000199318	1.90735E-06	3.33786E-05	-0.867390633	-9.762406349	0.510215759	0.009965897	9.53674E-05	0.00166893	-0.517333984	0.797119141	-0.333007813	891.7	-87.43352458	4.880177849	149.6979821	-78
29437	0	-0.034301758	-0.390319824	0.020874023	0.999999046	4.19617E-05	-0.000105858	3.8147E-05	-0.857543945	-9.757995605	0.521850586	0.002098084	-0.005292892	0.001907349	-0.517333984	0.797119141	-0.3359375	891.68	-87.42295966	4.876703255	149.7208975	-78
29438	0	-0.034754753	-0.390743256	0.020669937	0.999999046	-1.90735E-05	-6.48499E-05	0.0001297	-0.868868828	-9.76858139	0.516748428	-0.000953674	-0.003242493	0.006484985	-0.514892578	0.797119141	-0.3359375	891.74	-87.41982499	4.883949056	149.7362952	-79
29439	0	-0.03503418	-0.39074707	0.020080566	0.999999046	0.000102997	-5.62668E-05	1.52588E-05	-0.875854492	-9.768676758	0.50201416	0.005149841	-0.002813339	0.000762939	-0.517333984	0.797119141	-0.341796875	891.74	-87.40294272	4.878177102	149.7419599	-78
29440	0	-0.034860611	-0.390437126	0.021629333	0.999999046	0.000245094	-4.19617E-05	5.62668E-05	-0.871515274	-9.760928154	0.540733337	0.012254715	-0.002098084	0.002813339	-0.517089844	0.794921875	-0.338623047	891.76	-87.36992096	4.877191558	149.7523787	-77
29441	0	-0.03503418	-0.390380859	0.02130127	0.999999046	0.000148773	-4.86374E-05	8.39233E-05	-0.875854492	-9.759521484	0.532531738	0.00743866	-0.00243187	0.004196167	-0.514892578	0.794677734	-0.338623047	891.76	-87.34791465	4.87937797	149.7613189	-77
29442	0	-0.0347929	-0.390003204	0.020565987	0.999999046	3.8147E-05	3.8147E-05	0.000151634	-0.869822502	-9.750080109	0.514149666	0.001907349	0.001907349	0.007581711	-0.514892578	0.794677734	-0.338623047	891.7	-87.3394984	4.889797572	149.7611095	-77
29443	0	-0.034851074	-0.390686035	0.021789551	0.999999046	-0.000114441	-7.9155E-05	0.000198364	-0.871276855	-9.767150879	0.54473877	-0.005722046	-0.003957748	0.009918213	-0.517333984	0.794921875	-0.335693359	891.7	-87.34742625	4.904945756	149.783051	-77
29444	0	-0.035002708	-0.389639854	0.020606995	0.999999046	5.81741E-05	-1.90735E-06	7.15256E-05	-0.875067711	-9.740996361	0.515174866	0.002908707	-9.53674E-05	0.003576279	-0.514892578	0.794677734	-0.338623047	891.76	-87.33648527	4.906025625	149.7867793	-77
29445	0	-0.034362793	-0.390319824	0.020874023	0.999999046	0.000148773	2.76566E-05	0.000125885	-0.859069824	-9.757995605	0.521850586	0.00743866	0.001382828	0.006294251	-0.514892578	0.794677734	-0.338623047	891.7	-87.31550668	4.913474956	149.7881298	-78
29446	0	-0.03507328	-0.389328957	0.021353722	0.999999046	-2.09808E-05	-3.05176E-05	9.15527E-05	-0.876832008	-9.733223915	0.53384304	-0.001049042	-0.001525879	0.004577637	-0.514892578	0.794677734	-0.338623047	891.74	-87.31348156	4.916710288	149.7959211	-77
29447	0	-0.03503418	-0.391662598	0.020874023	0.999999046	-7.24792E-05	-4.1008E-05	1.52588E-05	-0.875854492	-9.791564941	0.521850586	-0.003623962	-0.0020504	0.000762939	-0.514892578	0.797119141	-0.338867188	891.7	-87.31737618	4.911169065	149.8041262	-78
29448	0	-0.034861565	-0.390078545	0.021491051	0.999999046	0.000117302	-9.72748E-05	6.67572E-06	-0.871539116	-9.751963615	0.537276268	0.005865097	-0.004863739	0.000333786	-0.514892578	0.794677734	-0.335693359	891.74	-87.29901904	4.904347686	149.824415	-78
29449	0	-0.034729004	-0.390197754	0.022155762	0.999999046	-4.95911E-05	-4.48227E-05	-4.57764E-05	-0.868225098	-9.754943848	0.553894043	-0.002479553	-0.002241135	-0.002288818	-0.514892578	0.794677734	-0.338623047	891.62	-87.30034931	4.89181888	149.8322006	-78
29450	0	-0.034813881	-0.390996933	0.021753311	0.999999046	-0.000156403	-7.05719E-05	6.86646E-05	-0.870347023	-9.774923325	0.543832779	-0.007820129	-0.003528595	0.003433228	-0.514892578	0.797119141	-0.3359375	891.68	-87.313652	4.892256453	149.8485772	-78
29451	0	-0.034851074	-0.390075684	0.02130127	0.999999046	-9.53674E-05	-8.29697E-05	-1.90735E-05	-0.871276855	-9.75189209	0.532531738	-0.004768372	-0.004148483	-0.000953674	-0.517089844	0.794921875	-0.341552734	891.68	-87.31993954	4.882610111	149.8566655	-78
29452	0	-0.034955025	-0.3898983	0.020683289	0.999999046	-9.25064E-05	-0.000152588	-8.4877E-05	-0.873875618	-9.747457504	0.517082214	-0.00462532	-0.007629395	-0.004243851	-0.514892578	0.797119141	-0.3359375	891.7	-87.32533081	4.865079921	149.880063	-78
29453	0	-0.034667969	-0.390258789	0.020263672	0.999999046	-0.00018692	-6.67572E-06	7.24792E-05	-0.866699219	-9.756469727	0.506591797	-0.009346008	-0.000333786	0.003623962	-0.514648438	0.794677734	-0.341552734	891.58	-87.34300053	4.866372474	149.8753558	-78
29454	0	-0.034908295	-0.391299248	0.019507408	0.999999046	-0.000249863	-2.67029E-05	1.43051E-05	-0.872707367	-9.782481194	0.487685204	-0.012493134	-0.001335144	0.000715256	-0.514892578	0.797119141	-0.3359375	891.74	-87.36784148	4.860909337	149.8834954	-78
29455	0	-0.034301758	-0.390686035	0.018615723	0.999999046	-0.000236511	-7.9155E-05	7.24792E-05	-0.857543945	-9.767150879	0.465393066	-0.011825562	-0.003957748	0.003623962	-0.517333984	0.797119141	-0.341796875	891.74	-87.39078372	4.86183279	149.8887557	-79
29456	0	-0.034844398	-0.390568733	0.019962311	1	-1.33514E-05	-6.19888E-05	1.04904E-05	-0.871109962	-9.76421833	0.49905777	-0.000667572	-0.003099442	0.000524521	-0.512451172	0.796875	-0.339111328	891.7	-87.38843489	4.855783964	149.8907329	-80
29457	0	-0.034790039	-0.390197754	0.021118164	0.999999046	-0.000362396	1.62125E-05	-2.28882E-05	-0.869750977	-9.754943848	0.527954102	-0.018119812	0.000810623	-0.001144409	-0.517333984	0.797119141	-0.341796875	891.68	-87.42687947	4.846337657	149.8834191	-80
29458	0	-0.035017014	-0.390946388	0.019124031	0.999999046	-0.000513077	0.000101089	0.000152588	-0.875425339	-9.773659706	0.478100777	-0.02565384	0.005054474	0.007629395	-0.514892578	0.797119141	-0.333007813	891.74	-87.4834463	4.857433362	149.8801635	-80
29459	0	-0.034973145	-0.390930176	0.02166748	0.999999046	-0.000244141	-5.24521E-05	-6.86646E-05	-0.874328613	-9.773254395	0.541687012	-0.012207031	-0.002622604	-0.003433228	-0.517089844	0.794921875	-0.338623047	891.7	-87.50776193	4.842456973	149.8837186	-79
29460	0	-0.034734726	-0.391066551	0.019099236	0.999999046	-7.9155E-05	-3.24249E-05	2.95639E-05	-0.868368149	-9.77666378	0.477480888	-0.003957748	-0.001621246	0.001478195	-0.514892578	0.794677734	-0.335693359	891.74	-87.51340756	4.838847513	149.8881118	-79
29461	0	-0.034973145	-0.390441895	0.021362305	0.999999046	-0.000209808	-1.43051E-05	0.000179291	-0.874328613	-9.761047363	0.534057617	-0.010490418	-0.000715256	0.008964539	-0.514892578	0.797119141	-0.338867188	891.74	-87.53410335	4.852510588	149.8851486	-78
29462	0	-0.035113335	-0.391231537	0.018390656	0.999999046	-0.000150681	-3.8147E-06	-2.00272E-05	-0.877833366	-9.780788422	0.459766388	-0.007534027	-0.000190735	-0.001001358	-0.517333984	0.794921875	-0.335693359	891.7	-87.54831395	4.843428633	149.8882255	-78
29463	0	-0.034973145	-0.390930176	0.019042969	0.999999046	4.19617E-05	-7.53403E-05	3.8147E-06	-0.874328613	-9.773254395	0.476074219	0.002098083	-0.003767014	0.000190735	-0.514892578	0.797119141	-0.338867188	891.66	-87.53981806	4.836767294	149.8908747	-78
29464	0	-0.034852028	-0.390013695	0.019019127	0.999999046	-0.000227928	-7.24792E-05	7.62939E-05	-0.871300697	-9.750342369	0.475478172	-0.011396408	-0.003623962	0.003814697	-0.517333984	0.797119141	-0.333007813	891.68	-87.56230847	4.838431205	149.9070484	-78
29465	0	-0.034545898	-0.390197754	0.018188477	0.999999046	-0.000244141	-1.43051E-05	8.01086E-05	-0.863647461	-9.754943848	0.454711914	-0.012207031	-0.000715256	0.004005432	-0.519775391	0.799316406	-0.338867188	891.64	-87.58732221	4.840832241	149.9078476	-78
29466	0	-0.035097122	-0.390628815	0.018548012	0.999999046	-0.000154495	-7.62939E-06	-7.24792E-05	-0.877428055	-9.765720367	0.463700294	-0.007724762	-0.00038147	-0.003623962	-0.514892578	0.797119141	-0.333007813	891.76	-87.60226299	4.825836105	149.9114154	-77
29467	0	-0.034912109	-0.390563965	0.018798828	0.999999046	-0.000152588	-3.33786E-05	4.95911E-05	-0.872802734	-9.764099121	0.469970703	-0.007629395	-0.00166893	0.002479553	-0.514892578	0.797119141	-0.333007813	891.74	-87.61673905	4.824724915	149.9179535	-78
29468	0	-0.034706116	-0.39038372	0.018498421	0.999999046	-0.00064373	9.53674E-05	5.72205E-05	-0.867652893	-9.75959301	0.462460518	-0.03218651	0.004768372	0.002861023	-0.517333984	0.794921875	-0.335693359	891.66	-87.6887988	4.825115211	149.9054171	-78
29469	0	-0.034912109	-0.389892578	0.017150879	0.999999046	-0.000366211	-1.04904E-05	-6.10352E-05	-0.872802734	-9.747314453	0.428771973	-0.018310547	-0.000524521	-0.003051758	-0.512695313	0.799316406	-0.333251953	891.62	-87.7281839	4.811508832	149.9030944	-77
29470	0	-0.034803391	-0.390031815	0.016804695	0.999999046	-0.000181198	6.67572E-05	-1.14441E-05	-0.870084763	-9.750795364	0.420117378	-0.009059906	0.00333786	-0.000572205	-0.514892578	0.794677734	-0.332763672	891.68	-87.74719398	4.803956865	149.8945241	-78
29471	0	-0.034729004	-0.390258789	0.017700195	0.999999046	-0.00038147	-2.95639E-05	0.000164032	-0.868225098	-9.756469727	0.442504883	-0.019073487	-0.001478195	0.008201599	-0.517333984	0.797119141	-0.3359375	891.76	-87.78820882	4.81609066	149.894122	-78
29472	0	-0.035161972	-0.391359329	0.017281532	0.999999046	-0.000247002	4.57764E-05	6.48499E-05	-0.879049301	-9.783983231	0.432038307	-0.012350083	0.002288818	0.003242493	-0.514892578	0.797119141	-0.333007813	891.62	-87.81463612	4.817242013	149.8868246	-77
29473	0	-0.034790039	-0.390991211	0.017944336	0.999999046	-0.000431061	5.43594E-05	1.52588E-05	-0.869750977	-9.774780273	0.448608398	-0.02155304	0.002717972	0.000762939	-0.517578125	0.799316406	-0.330078125	891.64	-87.86226377	4.812759479	149.8863293	-77
29474	0	-0.034865379	-0.39057827	0.016992569	0.999999046	-0.000238419	-5.91278E-05	0.00014019	-0.871634483	-9.764456749	0.424814224	-0.011920929	-0.00295639	0.007009506	-0.515136719	0.799316406	-0.327392578	891.7	-87.88671922	4.822125809	149.9007791	-78
29475	0	-0.034912109	-0.391784668	0.016601563	0.999999046	-8.01086E-05	-6.00815E-05	6.10352E-05	-0.872802734	-9.794616699	0.415039063	-0.004005432	-0.003004074	0.003051758	-0.517578125	0.799316406	-0.327148438	891.64	-87.89310508	4.822441043	149.9178588	-77
29476	0	-0.034957886	-0.390563011	0.017213821	0.999999046	0.000149727	-2.86102E-05	6.38962E-05	-0.873947144	-9.764075279	0.430345535	0.007486343	-0.001430511	0.003194809	-0.515136719	0.799316406	-0.330322266	891.76	-87.87347824	4.823255066	149.9226437	-77
29477	0	-0.034851074	-0.391113281	0.016540527	0.999999046	8.39233E-05	-0.000105858	8.01086E-05	-0.871276855	-9.777832031	0.413513184	0.004196167	-0.005292892	0.004005432	-0.515136719	0.799316406	-0.327392578	891.76	-87.86069693	4.825611794	149.9419908	-77
29478	0	-0.034482956	-0.39025116	0.017894745	0.999999046	9.72748E-05	-6.29425E-05	-2.38419E-05	-0.862073898	-9.756278992	0.447368622	0.004863739	-0.003147125	-0.001192093	-0.517578125	0.797119141	-0.327148438	891.68	-87.84682794	4.816245474	149.9588489	-76
29479	0	-0.034606934	-0.390197754	0.017089844	0.999999046	4.19617E-05	-1.04904E-05	-3.8147E-06	-0.86517334	-9.754943848	0.427246094	0.002098083	-0.000524521	-0.000190735	-0.517333984	0.797119141	-0.333007813	891.64	-87.8398377	4.809420087	149.9582036	-77
29480	0	-0.034237862	-0.391112328	0.018221855	0.999999046	-0.000224113	-2.67029E-05	9.53674E-05	-0.855946541	-9.777808189	0.455546379	-0.011205673	-0.001335144	0.004768372	-0.515136719	0.799316406	-0.330322266	891.64	-87.86312873	4.813876425	149.9621171	-77
29481	0	-0.034301758	-0.390869141	0.016601563	0.999999046	-0.000133514	6.19888E-05	9.91821E-05	-0.857543945	-9.771728516	0.415039063	-0.00667572	0.003099442	0.004959106	-0.517333984	0.797119141	-0.333007813	891.62	-87.87694996	4.819143307	149.9528871	-77
29482	0	-0.034503937	-0.39153862	0.016858101	0.999999046	-9.53674E-06	-9.53674E-06	0.000144005	-0.862598419	-9.7884655	0.421452522	-0.000476837	-0.000476837	0.007200241	-0.517578125	0.797119141	-0.327148438	891.74	-87.87589469	4.82923248	149.963657	-77
29483	0	-0.034729004	-0.390136719	0.017822266	0.999999046	-7.62939E-05	-1.04904E-05	7.24792E-05	-0.868225098	-9.753417969	0.445556641	-0.003814697	-0.000524521	0.003623962	-0.515136719	0.799316406	-0.336181641	891.64	-87.88249939	4.831157936	149.9542803	-76
29484	0	-0.03496933	-0.390928268	0.016542435	0.999999046	-6.58035E-05	-9.53674E-06	5.62668E-05	-0.874233246	-9.773206711	0.413560867	-0.003290176	-0.000476837	0.002813339	-0.517333984	0.797119141	-0.333007813	891.74	-87.8879659	4.83124689	149.9530294	-76
29485	0	-0.034606934	-0.390869141	0.016906738	0.999999046	7.62939E-05	-6.77109E-05	0.000179291	-0.86517334	-9.771728516	0.422668457	0.003814697	-0.003385544	0.008964539	-0.515136719	0.799316406	-0.330322266	891.7	-87.87657119	4.845182226	149.9622332	-76
29486	0	-0.034989357	-0.390731812	0.018313408	0.999999046	0.000333786	-3.24249E-05	7.15256E-05	-0.874733925	-9.768295288	0.457835197	0.016689301	-0.001621246	0.003576279	-0.515136719	0.799316406	-0.336181641	891.64	-87.83601427	4.84695131	149.9569268	-76
29487	0	-0.034729004	-0.390441895	0.016967773	0.999999046	0.000247955	3.14713E-05	-1.52588E-05	-0.868225098	-9.761047363	0.424194336	0.012397766	0.001573563	-0.000762939	-0.517578125	0.797119141	-0.327148438	891.66	-87.8059832	4.839053571	149.9644185	-76
29488	0	-0.034169197	-0.390435219	0.017341614	0.999999046	2.19345E-05	-5.34058E-05	0.000156403	-0.854229927	-9.76088047	0.433540344	0.001096725	-0.002670288	0.007820129	-0.515136719	0.799316406	-0.333251953	891.74	-87.80100359	4.850432777	149.9683431	-76
29489	0	-0.03503418	-0.390930176	0.018493652	0.999999046	-8.39233E-05	-5.62668E-05	0.000137329	-0.875854492	-9.773254395	0.462341309	-0.004196167	-0.002813339	0.006866455	-0.515136719	0.799316406	-0.330322266	891.7	-87.80810921	4.859630796	149.9778868	-76
29490	0	-0.035323143	-0.3913517	0.018431664	0.999999046	0.000333786	-5.91278E-05	-2.00272E-05	-0.883078575	-9.783792496	0.460791588	0.016689301	-0.00295639	-0.001001358	-0.515136719	0.797119141	-0.330078125	891.66	-87.76735939	4.850824146	149.9879078	-76
29491	0	-0.034606934	-0.390686035	0.018066406	0.999999046	0.000335693	-9.05991E-05	1.90735E-05	-0.86517334	-9.767150879	0.451660156	0.016784668	-0.004529953	0.000953674	-0.515136719	0.799316406	-0.327392578	891.76	-87.72608126	4.846343445	150.007877	-77
29492	0	-0.03425312	-0.389819145	0.017478943	0.999999046	-1.04904E-05	-7.24792E-05	0.000209808	-0.856328011	-9.74547863	0.436973572	-0.000524521	-0.003623962	0.010490418	-0.517333984	0.797119141	-0.333007813	891.7	-87.724629	4.863767489	150.0181194	-77
29493	0	-0.035217285	-0.390625	0.018432617	0.999999046	-0.000221252	-7.9155E-05	7.24792E-05	-0.880432129	-9.765625	0.46081543	-0.011062622	-0.003957748	0.003623962	-0.514892578	0.797119141	-0.333007813	891.66	-87.74732306	4.865465731	150.0248282	-77
29494	0	-0.035027504	-0.391238213	0.017471313	0.999999046	0.000219345	-0.000104904	-9.53674E-07	-0.875687599	-9.780955315	0.436782837	0.010967255	-0.005245209	-4.76837E-05	-0.514892578	0.797119141	-0.333007813	891.68	-87.71935382	4.858648671	150.0345915	-76
29495	0	-0.034362793	-0.389587402	0.019897461	0.999999046	0.00025177	-0.000136375	0.000171661	-0.859069824	-9.739685059	0.497436523	0.012588501	-0.006818771	0.008583069	-0.517333984	0.797119141	-0.338867188	891.66	-87.6872246	4.871433017	150.0413444	-77
29496	0	-0.03485775	-0.390176773	0.019126892	1	-1.14441E-05	4.29153E-05	2.95639E-05	-0.871443748	-9.754419327	0.478172302	-0.000572205	0.002145767	0.001478195	-0.514892578	0.797119141	-0.338867188	891.66	-87.68704619	4.868781342	150.0243582	-77
29497	0	-0.034851074	-0.390930176	0.017700195	0.999999046	-8.7738E-05	-0.000174522	9.91821E-05	-0.871276855	-9.773254395	0.442504883	-0.004386902	-0.00872612	0.004959106	-0.514892578	0.797119141	-0.333007813	891.62	-87.6935171	4.873093292	150.0433402	-77
29498	0	-0.034861565	-0.389889717	0.018498421	0.999999046	6.48499E-05	-7.82013E-05	7.15256E-05	-0.871539116	-9.747242928	0.462460518	0.003242493	-0.003910065	0.003576279	-0.517333984	0.797119141	-0.330078125	891.7	-87.68346113	4.874681307	150.059544	-77
29499	0	-0.034790039	-0.389953613	0.018920898	0.999999046	-7.24792E-05	-4.86374E-05	0.000114441	-0.869750977	-9.748840332	0.473022461	-0.003623962	-0.00243187	0.005722046	-0.517333984	0.797119141	-0.333007813	891.64	-87.68940737	4.881322063	150.0667087	-78
29500	0	-0.034572601	-0.390254021	0.018989563	0.999999046	-0.000277519	0	0.000118256	-0.864315033	-9.756350517	0.474739075	-0.013875962	0	0.005912781	-0.517333984	0.797119141	-0.3359375	891.64	-87.71931322	4.888612173	150.062115	-78
29501	0	-0.034606934	-0.389587402	0.018737793	0.999999046	-0.000247955	0.000142097	3.8147E-06	-0.86517334	-9.739685059	0.468444824	-0.012397766	0.007104874	0.000190735	-0.517333984	0.797119141	-0.330078125	891.68	-87.74725515	4.883426739	150.051336	-78
29502	0	-0.034493446	-0.390817642	0.018289566	0.999999046	-7.43866E-05	5.72205E-06	0.000189781	-0.862336159	-9.770441055	0.457239151	-0.00371933	0.000286102	0.00948906	-0.514892578	0.797119141	-0.3359375	891.68	-87.75391074	4.898903715	150.0432827	-79
29503	0	-0.034790039	-0.390686035	0.018615723	0.999999046	-9.15527E-05	-5.24521E-05	0.000110626	-0.869750977	-9.767150879	0.465393066	-0.004577637	-0.002622604	0.005531311	-0.515136719	0.797119141	-0.330078125	891.64	-87.76197755	4.905042102	150.0527018	-78
29504	0	-0.034691811	-0.39056015	0.018791199	0.999999046	-0.000319481	2.28882E-05	0.00012207	-0.867295265	-9.764003754	0.469779968	-0.015974045	0.001144409	0.006103516	-0.514892578	0.797119141	-0.333007813	891.74	-87.79687518	4.912812992	150.0469533	-78
29505	0	-0.034912109	-0.391540527	0.017456055	0.999999046	-0.00044632	2.76566E-05	0.000144958	-0.872802734	-9.788513184	0.436401367	-0.02231598	0.001382828	0.007247925	-0.515136719	0.799316406	-0.333251953	891.6	-87.84638024	4.923210551	150.0399438	-78
29506	0	-0.034965515	-0.3903265	0.017715454	0.999999046	-0.000162125	-2.09808E-05	0.000102043	-0.874137878	-9.758162498	0.442886353	-0.008106232	-0.001049042	0.005102158	-0.517578125	0.797119141	-0.327148438	891.68	-87.86285221	4.92846891	150.0518168	-78
29507	0	-0.034729004	-0.390319824	0.019348145	0.999999046	-0.000171661	9.53674E-07	1.52588E-05	-0.868225098	-9.757995605	0.483703613	-0.008583069	4.76837E-05	0.000762939	-0.515136719	0.797119141	-0.330078125	891.58	-87.88057856	4.923867192	150.0518314	-78
29508	0	-0.034558296	-0.389593124	0.01866436	0.999999046	-7.34329E-05	-4.3869E-05	0.000144005	-0.863957405	-9.73982811	0.466609001	-0.003671646	-0.002193451	0.007200241	-0.517333984	0.797119141	-0.330078125	891.62	-87.88649802	4.933791941	150.059924	-78
29509	0	-0.035095215	-0.390808105	0.01763916	0.999999046	-0.000331879	3.14713E-05	0.000175476	-0.877380371	-9.770202637	0.440979004	-0.016593933	0.001573563	0.008773804	-0.512695313	0.799316406	-0.327392578	891.64	-87.92276348	4.947636561	150.0588494	-78
29510	0	-0.034745216	-0.39050293	0.017560005	0.999999046	-9.15527E-05	8.39233E-05	3.8147E-05	-0.868630409	-9.762573242	0.43900013	-0.004577637	0.004196167	0.001907349	-0.515136719	0.799316406	-0.333251953	891.7	-87.93204561	4.945945206	150.0429865	-78
29511	0	-0.034851074	-0.389953613	0.017822266	0.999999046	-4.95911E-05	-2.86102E-06	7.24792E-05	-0.871276855	-9.748840332	0.445556641	-0.002479553	-0.000143051	0.003623962	-0.515136719	0.797119141	-0.330078125	891.64	-87.93561444	4.947808624	150.0428742	-78
29512	0	-0.034908295	-0.390377998	0.018515587	0.999999046	-0.000166893	0.000114441	-3.8147E-06	-0.872707367	-9.759449959	0.462889671	-0.00834465	0.005722046	-0.000190735	-0.512695313	0.799316406	-0.327392578	891.62	-87.95374843	4.941403035	150.0313404	-78
29513	0	-0.034790039	-0.390319824	0.017578125	0.999999046	-1.52588E-05	-1.04904E-05	8.7738E-05	-0.869750977	-9.757995605	0.439453125	-0.000762939	-0.000524521	0.004386902	-0.515136719	0.799316406	-0.333251953	891.58	-87.95321281	4.944950317	150.0264328	-78
29514	0	-0.035041809	-0.390742302	0.016101837	0.999999046	-0.000120163	-8.39233E-05	0.000102043	-0.876045227	-9.768557549	0.402545929	-0.006008148	-0.004196167	0.005102158	-0.515136719	0.797119141	-0.330078125	891.7	-87.96401747	4.949826214	150.0352681	-78
29515	0	-0.034912109	-0.390441895	0.016479492	0.999999046	-0.000205994	3.14713E-05	0.000171661	-0.872802734	-9.761047363	0.411987305	-0.010299683	0.001573563	0.008583069	-0.515136719	0.799316406	-0.333251953	891.64	-87.98580681	4.963129818	150.025327	-78
29516	0	-0.034620285	-0.390376091	0.016072273	0.999999046	-0.000245094	3.8147E-06	0.000113487	-0.865507126	-9.759402275	0.401806831	-0.012254715	0.000190735	0.005674362	-0.517578125	0.799316406	-0.333007813	891.74	-88.01186217	4.969622191	150.0211273	-77
29517	0	-0.034851074	-0.39074707	0.016418457	0.999999046	-3.8147E-05	-7.53403E-05	5.34058E-05	-0.871276855	-9.768676758	0.410461426	-0.001907349	-0.003767014	0.002670288	-0.515136719	0.801513672	-0.330566406	891.62	-88.0134497	4.968894761	150.0277675	-78
29518	0	-0.034952164	-0.390745163	0.016637802	0.999999046	-6.29425E-05	-0.000104904	4.57764E-05	-0.873804092	-9.768629074	0.415945053	-0.003147125	-0.005245209	0.002288818	-0.515136719	0.799316406	-0.327392578	891.7	-88.01758711	4.967155841	150.0429362	-77
29519	0	-0.034667969	-0.389953613	0.016662598	0.999999046	-6.86646E-05	8.58307E-06	3.43323E-05	-0.866699219	-9.748840332	0.416564941	-0.003433228	0.000429153	0.001716614	-0.517578125	0.799316406	-0.330078125	891.62	-88.02350981	4.964525635	150.0425604	-77
29520	0	-0.034817696	-0.390137672	0.018012047	0.999999046	-0.00017643	3.24249E-05	9.82285E-05	-0.87044239	-9.753441811	0.45030117	-0.008821487	0.001621246	0.004911423	-0.515136719	0.799316406	-0.327392578	891.6	-88.04192454	4.969287323	150.0416085	-78
29521	0	-0.034912109	-0.390686035	0.016906738	0.999999046	-0.000434875	-5.24521E-05	1.52588E-05	-0.872802734	-9.767150879	0.422668457	-0.021743775	-0.002622604	0.000762939	-0.515136719	0.799316406	-0.327392578	891.74	-88.08911786	4.964195667	150.0485713	-78
29522	0	-0.0349226	-0.391492844	0.016263962	0.999999046	-0.000488281	-5.72205E-06	8.7738E-05	-0.873064995	-9.787321091	0.406599045	-0.024414064	-0.000286102	0.004386902	-0.515136719	0.801513672	-0.330566406	891.6	-88.14287025	4.967564313	150.0435159	-77
29523	0	-0.034973145	-0.391479492	0.015869141	0.999999046	-9.15527E-05	9.53674E-07	0.000106812	-0.874328613	-9.786987305	0.396728516	-0.004577637	4.76837E-05	0.005340576	-0.512695313	0.799316406	-0.330322266	891.74	-88.1512221	4.973125815	150.0351536	-77
29524	0	-0.034629822	-0.390071869	0.016346931	0.999999046	4.1008E-05	-8.58307E-05	3.71933E-05	-0.865745544	-9.751796722	0.408673286	0.0020504	-0.004291534	0.001859665	-0.515136719	0.799316406	-0.330322266	891.6	-88.14350963	4.970359812	150.0393853	-78
29525	0	-0.034606934	-0.389892578	0.016967773	0.999999046	-2.28882E-05	-1.81198E-05	0.000137329	-0.86517334	-9.747314453	0.424194336	-0.001144409	-0.000905991	0.006866455	-0.515136719	0.799316406	-0.327392578	891.74	-88.14370171	4.979283332	150.0418449	-78
29526	0	-0.034835815	-0.390677452	0.015607834	0.999999046	-7.82013E-05	-7.62939E-05	-6.96182E-05	-0.870895386	-9.766936302	0.390195847	-0.003910065	-0.003814697	-0.003480911	-0.515380859	0.801513672	-0.324707031	891.7	-88.14973141	4.964264795	150.0552304	-78
29527	0	-0.034973145	-0.390625	0.014831543	0.999999046	0.000556946	-2.95639E-05	-7.62939E-06	-0.874328613	-9.765625	0.370788574	0.027847291	-0.001478195	-0.00038147	-0.517578125	0.799560547	-0.32421875	891.64	-88.08347294	4.956506579	150.0679836	-78
29528	0	-0.034844398	-0.390423775	0.017221451	0.999999046	0.000542641	-8.7738E-05	6.86646E-05	-0.871109962	-9.760594368	0.43053627	0.027132036	-0.004386902	0.003433228	-0.515136719	0.799316406	-0.330322266	891.68	-88.0182034	4.957248883	150.0749949	-78
29529	0	-0.034729004	-0.390258789	0.018005371	0.999999046	5.72205E-05	6.19888E-05	0	-0.868225098	-9.756469727	0.450134277	0.002861023	0.003099442	0	-0.515136719	0.799316406	-0.327392578	891.6	-88.01000231	4.950699302	150.0703285	-78
29530	0	-0.035098076	-0.390318871	0.016519547	0.999999046	-0.000181198	7.24792E-05	5.24521E-05	-0.877451897	-9.757971764	0.412988663	-0.009059906	0.003623962	0.002622604	-0.515136719	0.799316406	-0.333251953	891.62	-88.02922321	4.950202458	150.0535085	-78
29531	0	-0.034606934	-0.39050293	0.017150879	0.999999046	-0.00044632	6.19888E-05	8.01086E-05	-0.86517334	-9.762573242	0.428771973	-0.02231598	0.003099442	0.004005432	-0.515136719	0.799316406	-0.327392578	891.62	-88.07868569	4.952803167	150.047921	-78
29532	0	-0.034671783	-0.389964104	0.01692009	0.999999046	-0.000199318	-2.09808E-05	7.53403E-05	-0.866794586	-9.749102592	0.423002243	-0.009965897	-0.001049042	0.003767014	-0.515136719	0.799316406	-0.327392578	891.7	-88.09899178	4.954517662	150.0512691	-78
