Counter	Temperature	VelInc_X	VelInc_Y	VelInc_Z	OriInc_w	OriInc_x	OriInc_y	OriInc_z	Acc_X	Acc_Y	Acc_Z	Gyr_X	Gyr_Y	Gyr_Z	Mag_X	Mag_Y	Mag_Z	Pressure	Roll	Pitch	Yaw	RSSI
38977	0	0.375549316	-0.096313477	0.07019043	0.999999046	-0.001182556	0.00049305	-0.000160217	9.38873291	-2.407836914	1.754760742	-0.059127824	0.024652488	-0.008010866	-0.52734375	0.645019531	-0.53125	898.76	-53.90444475	-72.77981599	7.932562055	-58
38978	0	0.376426697	-0.095135689	0.06905365	0.999999046	-0.000810623	0.00056076	-0.000148773	9.410667419	-2.37839222	1.726341248	-0.040531165	0.02803803	-0.007438661	-0.524902344	0.646972656	-0.528564453	898.8	-53.77697536	-72.75796422	7.695996691	-58
38979	0	0.375183105	-0.095275879	0.069641113	0.999999046	-0.000652313	0.000664711	-0.000286102	9.379577637	-2.381896973	1.741027832	-0.032615667	0.033235555	-0.014305117	-0.52734375	0.647216797	-0.534179688	898.84	-53.57094774	-72.74148342	7.405565243	-59
38980	0	0.378623009	-0.092708588	0.069595337	0.999999046	-0.000437737	0.000858307	-0.000629425	9.465575218	-2.317714691	1.739883423	-0.02188683	0.042915354	-0.031471259	-0.529541016	0.642822266	-0.530761719	898.76	-53.20773852	-72.74302472	6.976233246	-58
38981	0	0.37902832	-0.090576172	0.069396973	0.999997139	-0.000705719	0.001458168	-0.001171112	9.475708008	-2.264404297	1.734924316	-0.035285973	0.07290845	-0.058555642	-0.52734375	0.645019531	-0.53125	898.7	-52.57776573	-72.75167744	6.231085439	-59
38982	0	0.373418808	-0.09053421	0.071332932	0.999996185	-0.001317024	0.00184536	-0.001149178	9.3354702	-2.263355255	1.783323288	-0.065851282	0.092268089	-0.057458939	-0.527099609	0.644775391	-0.536865234	898.8	-51.90968236	-72.72871621	5.381667917	-58
38983	0	0.373718262	-0.092468262	0.073730469	0.999996185	-0.001646996	0.001911163	-0.001045227	9.342956543	-2.311706543	1.843261719	-0.08234988	0.095558285	-0.052261417	-0.524902344	0.646972656	-0.528564453	898.8	-51.28655046	-72.68877478	4.524046794	-58
38984	0	0.376989365	-0.093754768	0.074373245	0.999997139	-0.000987053	0.001625061	-0.000957489	9.424734116	-2.343869209	1.859331131	-0.049352683	0.081253113	-0.047874487	-0.522460938	0.644775391	-0.531494141	898.76	-50.69303781	-72.65888342	3.783587938	-58
38985	0	0.374206543	-0.093505859	0.076171875	0.999998093	-0.000784874	0.001403809	-0.000812531	9.355163574	-2.337646484	1.904296875	-0.039243719	0.070190468	-0.040626548	-0.524902344	0.646972656	-0.531494141	898.66	-50.17508184	-72.63003108	3.142518126	-58
38986	0	0.372488976	-0.09003067	0.07725811	0.999998093	-0.001145363	0.000948906	-0.000527382	9.312224388	-2.250766754	1.931452751	-0.057268166	0.047445317	-0.026369106	-0.522705078	0.646972656	-0.531494141	898.74	-49.89448284	-72.60821306	2.708442254	-58
38987	0	0.37286377	-0.092407227	0.08013916	0.999999046	-0.001075745	0.000630379	-0.000427246	9.321594238	-2.310180664	2.003479004	-0.053787247	0.031518945	-0.021362311	-0.524902344	0.646972656	-0.531494141	898.74	-49.71893771	-72.60043097	2.394882832	-58
38988	0	0.371681213	-0.093852043	0.08156395	0.999999046	-0.000252724	0.000583649	-0.00031662	9.292030334	-2.346301079	2.03909874	-0.012636186	0.029182437	-0.015830995	-0.524902344	0.646972656	-0.531494141	898.74	-49.48837852	-72.58578414	2.121822162	-58
38989	0	0.373657227	-0.09576416	0.07824707	0.999999046	0.001216888	0.000531197	-0.00019455	9.341430664	-2.394104004	1.956176758	0.06084444	0.026559838	-0.009727481	-0.522705078	0.649169922	-0.534667969	898.72	-49.13403198	-72.56376291	1.89181959	-58
38990	0	0.376480103	-0.092258453	0.076612473	0.999996185	0.002308846	0.000741005	-0.000312805	9.412002563	-2.306461334	1.915311813	0.115442391	0.037050284	-0.015640274	-0.522460938	0.644775391	-0.540039063	898.7	-48.56991692	-72.53555263	1.577777699	-58
38991	0	0.374023438	-0.087768555	0.080444336	0.999996185	0.002408028	0.000499725	-0.000289917	9.350585938	-2.194213867	2.011108398	0.120401506	0.024986293	-0.014495864	-0.522216797	0.642578125	-0.536865234	898.74	-48.06642802	-72.5228715	1.327229459	-58
38992	0	0.373872757	-0.085041046	0.078237534	0.999998093	0.001773834	0.000422478	-0.000359535	9.346818924	-2.126026154	1.955938339	0.088691762	0.021123898	-0.017976771	-0.524414063	0.640380859	-0.542480469	898.66	-47.63965449	-72.52161615	1.085508422	-58
38993	0	0.374145508	-0.085754395	0.076599121	0.999999046	0.000370026	0.000416756	-0.000179291	9.353637695	-2.143859863	1.914978027	0.018501283	0.020837785	-0.008964539	-0.524169922	0.638183594	-0.548095703	898.8	-47.4199092	-72.50535353	0.90192114	-58
38994	0	0.373806	-0.086905479	0.078499794	0.999999046	-0.000173569	0.000392914	0.000159264	9.345149994	-2.172636986	1.96249485	-0.008678437	0.019645692	0.007963181	-0.524169922	0.638183594	-0.548095703	898.7	-47.35269655	-72.46232589	0.812915179	-58
38995	0	0.375732422	-0.088256836	0.080566406	0.999999046	-0.000202179	0.00017643	0.0001297	9.393310547	-2.206420898	2.014160156	-0.010108948	0.008821488	0.006484985	-0.524414063	0.638183594	-0.542236328	898.8	-47.33958499	-72.43858243	0.768294643	-58
38996	0	0.374094009	-0.0887537	0.080843925	0.999999046	0.000489235	0.000268936	-9.91821E-05	9.352350235	-2.218842506	2.021098137	0.024461748	0.013446809	-0.004959107	-0.524414063	0.638183594	-0.542236328	898.8	-47.16671848	-72.42684546	0.6368442	-58
38997	0	0.373413086	-0.08770752	0.080078125	0.999999046	0.000507355	0.000184059	3.05176E-05	9.335327148	-2.192687988	2.001953125	0.025367738	0.009202958	0.001525879	-0.524414063	0.635986328	-0.541992188	898.74	-47.04654461	-72.4107616	0.56353552	-58
38998	0	0.375208855	-0.086733818	0.080730438	0.999999046	0.000619888	-6.86646E-05	0.000377655	9.380221367	-2.168345451	2.018260956	0.030994418	-0.003433228	0.018882753	-0.524169922	0.635742188	-0.55078125	898.76	-47.06584467	-72.38533529	0.662905812	-58
38999	0	0.377929688	-0.085632324	0.080383301	0.999999046	0.000102997	0.0001688	6.10352E-05	9.448242188	-2.140808105	2.00958252	0.005149841	0.008440018	0.003051758	-0.521728516	0.635742188	-0.547851563	898.76	-47.0036828	-72.36808576	0.609240176	-58
39000	0	0.37386322	-0.085051537	0.080464363	0.999999046	-0.000458717	0.000335693	0.000201225	9.346580505	-2.126288414	2.011609077	-0.022935869	0.016784669	0.010061265	-0.524169922	0.635986328	-0.547851563	898.7	-46.99636029	-72.32615431	0.546461273	-58
39001	0	0.375244141	-0.087219238	0.08215332	0.999999046	-0.000396729	0.000332832	0.000255585	9.381103516	-2.180480957	2.053833008	-0.019836427	0.016641618	0.012779237	-0.524414063	0.638183594	-0.545166016	898.7	-46.99609479	-72.27990947	0.492208788	-58
39002	0	0.375754356	-0.088392258	0.081783295	0.999999046	0.000152588	0.000324249	-0.000236511	9.39385891	-2.209806442	2.044582367	0.007629395	0.016212464	-0.011825562	-0.521972656	0.637939453	-0.548095703	898.76	-46.81497204	-72.27550483	0.317768758	-58
39003	0	0.375244141	-0.087402344	0.082092285	0.999999046	0.000396729	0.00049305	-0.000511169	9.381103516	-2.185058594	2.052307129	0.019836428	0.024652484	-0.025558474	-0.521728516	0.635742188	-0.547851563	898.9	-46.49431367	-72.28051191	0.025874911	-58
39004	0	0.373785973	-0.086040497	0.082345009	0.999999046	0.000172615	0.000440598	-0.000603676	9.344649315	-2.151012421	2.058625221	0.008630753	0.022029879	-0.030183795	-0.524169922	0.635742188	-0.55078125	898.8	-46.18970564	-72.29690022	-0.273810192	-58
39005	0	0.374145508	-0.086547852	0.081359863	0.999999046	0.000286102	0.000535011	-0.000392914	9.353637695	-2.163696289	2.033996582	0.014305116	0.026750567	-0.019645693	-0.521728516	0.635742188	-0.547851563	898.8	-45.90009053	-72.28797687	-0.551388395	-58
39006	0	0.374977112	-0.085046768	0.083640099	0.999999046	0.00031662	0.000255585	-0.000324249	9.374427795	-2.126169205	2.091002464	0.015830994	0.012779236	-0.016212464	-0.521728516	0.633544922	-0.547851563	898.76	-45.69604233	-72.29543103	-0.734321491	-58
39007	0	0.374938965	-0.08416748	0.082275391	0.999999046	-2.67029E-05	0.000229836	-0.000411987	9.373474121	-2.104187012	2.056884766	-0.001335144	0.011491776	-0.020599366	-0.523925781	0.631347656	-0.550292969	898.8	-45.51568974	-72.31207427	-0.927553527	-58
39008	0	0.373445511	-0.085329056	0.081464767	0.999999046	-0.000355721	0.000295639	-0.000245094	9.336137772	-2.133226395	2.036619186	-0.017786027	0.014781953	-0.012254716	-0.521728516	0.633544922	-0.550537109	898.76	-45.39832673	-72.30972135	-1.096670916	-58
39009	0	0.371582031	-0.086608887	0.08203125	0.999999046	-0.000576019	8.86917E-05	0.000141144	9.289550781	-2.165222168	2.05078125	-0.028800966	0.004434586	0.00705719	-0.524169922	0.633544922	-0.550537109	898.76	-45.45698545	-72.29244159	-1.10557929	-58
39010	0	0.373496056	-0.085406303	0.083035469	0.999999046	-0.000677109	-0.000104904	0.000273705	9.33740139	-2.135157585	2.075886726	-0.033855441	-0.005245209	0.013685228	-0.524169922	0.633544922	-0.550537109	898.66	-45.61013279	-72.27989572	-1.024543932	-58
39011	0	0.375915527	-0.088317871	0.082580566	0.999999046	-0.000606537	5.81741E-05	0.000263214	9.397888184	-2.207946777	2.06451416	-0.030326845	0.002908707	0.013160707	-0.521728516	0.633544922	-0.547851563	898.76	-45.71105171	-72.25508141	-0.991824687	-58
39012	0	0.373906136	-0.087394714	0.082638741	0.999999046	-1.43051E-05	8.2016E-05	0.000312805	9.347653389	-2.184867859	2.065968513	-0.000715256	0.0041008	0.015640259	-0.521972656	0.637939453	-0.548095703	898.74	-45.75053107	-72.22427097	-0.958062186	-58
39013	0	0.373413086	-0.084960938	0.082885742	0.999999046	-0.000244141	0.000142097	0.00056839	9.335327148	-2.124023438	2.072143555	-0.012207032	0.007104874	0.028419497	-0.521972656	0.637939453	-0.551025391	898.72	-45.86428129	-72.16771833	-0.867743417	-58
39014	0	0.374635696	-0.085305214	0.081179619	0.999998093	-0.00127697	0.000218391	0.000742912	9.36589241	-2.132630348	2.029490471	-0.063848519	0.010919575	0.037145628	-0.521972656	0.637939453	-0.548095703	898.76	-46.11924172	-72.09077576	-0.75290763	-58
39015	0	0.374511719	-0.088745117	0.082519531	0.999997139	-0.001789093	0.000458717	0.000644684	9.362792969	-2.21862793	2.062988281	-0.089454708	0.022935882	0.032234212	-0.51953125	0.637939453	-0.548339844	898.8	-46.3462631	-72.00278025	-0.722129318	-58
39016	0	0.372733116	-0.089402199	0.083334923	0.999998093	-0.001466751	-9.53674E-07	0.00064373	9.318327904	-2.23505497	2.08337307	-0.073337586	-4.76837E-05	0.032186522	-0.515136719	0.642333984	-0.543212891	898.72	-46.65240943	-71.95105709	-0.577814112	-58
39017	0	0.373840332	-0.091369629	0.085205078	0.999999046	-0.001182556	-6.77109E-05	0.000701904	9.346008301	-2.284240723	2.130126953	-0.059127826	-0.003385545	0.035095226	-0.519775391	0.64453125	-0.548828125	898.74	-46.95587732	-71.89934586	-0.390774238	-58
39018	0	0.373234749	-0.091907501	0.08273983	0.999999046	-0.000597	-0.000135422	0.000628471	9.330868721	-2.297687531	2.06849575	-0.02985001	-0.006771089	0.031423573	-0.517822266	0.646728516	-0.540527344	898.8	-47.19122858	-71.85876801	-0.218454572	-58
39019	0	0.373535156	-0.09185791	0.082458496	0.999999046	-0.000728607	-9.44138E-05	0.000858307	9.338378906	-2.296447754	2.061462402	-0.036430367	-0.004720689	0.042915353	-0.517822266	0.648925781	-0.543457031	898.72	-47.48468906	-71.79536362	0.004875237	-57
39020	0	0.373820305	-0.091949463	0.082436562	0.999999046	-0.000685692	1.14441E-05	0.000717163	9.345507622	-2.298736572	2.06091404	-0.034284597	0.000572205	0.03585816	-0.515625	0.651123047	-0.541015625	898.82	-47.7114767	-71.73541141	0.15953256	-57
39021	0	0.373718262	-0.093139648	0.08215332	0.999999046	-0.000576019	3.91006E-05	0.000621796	9.342956543	-2.328491211	2.053833008	-0.028800968	0.001955033	0.031089786	-0.515625	0.653320313	-0.538330078	898.66	-47.89549605	-71.68123805	0.277742682	-57
39022	0	0.373353004	-0.092356682	0.0825634	0.999999046	-0.000417709	-0.000104904	0.000548363	9.333825111	-2.308917046	2.064085007	-0.020885469	-0.005245209	0.027418139	-0.515625	0.651123047	-0.538085938	898.7	-48.08057653	-71.6442506	0.421415536	-58
39023	0	0.373779297	-0.092712402	0.081115723	0.999999046	-0.000209808	-0.000170708	0.000415802	9.344482422	-2.317810059	2.027893066	-0.010490418	-0.008535385	0.020790101	-0.510986328	0.653076172	-0.538574219	898.76	-48.22786271	-71.62354434	0.550056524	-57
39024	0	0.374524117	-0.092082024	0.082290649	0.999999046	-0.000411034	-0.000114441	0.000556946	9.363102913	-2.302050591	2.057266235	-0.020551683	-0.005722046	0.027847292	-0.515625	0.653320313	-0.538330078	898.76	-48.41559887	-71.5864202	0.698652346	-58
39025	0	0.37286377	-0.094299316	0.083068848	0.999999046	-0.000110626	-0.000243187	0.000423431	9.321594238	-2.35748291	2.076721191	-0.005531311	-0.012159348	0.021171571	-0.513427734	0.655517578	-0.535644531	898.84	-48.57109401	-71.57033911	0.84338522	-58
39026	0	0.376241684	-0.093537331	0.080666542	0.999999046	1.90735E-06	-0.000207901	0.000323296	9.406042099	-2.338433266	2.016663551	9.53674E-05	-0.01039505	0.01616478	-0.513427734	0.655517578	-0.532714844	898.8	-48.68177084	-71.56019856	0.95044958	-57
39027	0	0.375	-0.094787598	0.083068848	0.999999046	0.000404358	-0.000163078	8.7738E-05	9.375	-2.369689941	2.076721191	0.020217896	-0.008153916	0.004386902	-0.510986328	0.655273438	-0.538574219	898.76	-48.68120578	-71.56687598	0.997929897	-58
39028	0	0.37275219	-0.092163086	0.081616402	0.999999046	0.000479698	-0.000230789	-9.91821E-05	9.318804741	-2.304077148	2.040410042	0.02398491	-0.01153946	-0.004959107	-0.513427734	0.655517578	-0.535644531	898.76	-48.64690948	-71.59483719	1.012158262	-58
39029	0	0.372680664	-0.091918945	0.081420898	0.999999046	0.000205994	-3.33786E-05	1.90735E-05	9.317016602	-2.297973633	2.035522461	0.010299683	-0.00166893	0.000953674	-0.513427734	0.653320313	-0.535400391	898.8	-48.61970087	-71.59775693	1.002891312	-58
39030	0	0.374025345	-0.09305954	0.081433296	0.999999046	-8.58307E-05	-3.8147E-06	0	9.350633621	-2.326488495	2.035832405	-0.004291534	-0.000190735	0	-0.513427734	0.653320313	-0.535400391	898.8	-48.6139419	-71.60012902	0.981312633	-58
39031	0	0.373291016	-0.093688965	0.082641602	0.999999046	0.000385284	-2.19345E-05	-0.000301361	9.332275391	-2.342224121	2.066040039	0.019264222	-0.001096726	-0.015068055	-0.515869141	0.655517578	-0.535644531	898.76	-48.48999969	-71.62973021	0.887546665	-58
39032	0	0.373716354	-0.093095779	0.082512856	0.999999046	0.00036335	-4.19617E-05	-0.000164032	9.342908859	-2.327394485	2.062821388	0.018167496	-0.002098084	-0.008201599	-0.513427734	0.655517578	-0.535644531	898.76	-48.40483354	-71.64902636	0.830630824	-58
39033	0	0.373413086	-0.094238281	0.082214355	0.999999046	0.000804901	4.76837E-06	-0.000205994	9.335327148	-2.355957031	2.055358887	0.040245061	0.000238419	-0.010299684	-0.513183594	0.653076172	-0.544189453	898.8	-48.2472861	-71.66827897	0.765144071	-58
39034	0	0.372656822	-0.092549324	0.082243919	0.999999046	0.000907898	-5.34058E-05	0.000148773	9.316420555	-2.313733101	2.056097984	0.045394904	-0.002670288	0.007438661	-0.515625	0.651123047	-0.541015625	898.74	-48.17451455	-71.66161443	0.795700694	-58
39035	0	0.373596191	-0.091918945	0.08190918	0.999999046	0.001049042	-0.00026989	0.000118256	9.339904785	-2.297973633	2.047729492	0.052452098	-0.013494494	0.005912782	-0.513183594	0.648681641	-0.538085938	898.74	-48.13429834	-71.67416159	0.873001898	-58
39036	0	0.373740196	-0.091469765	0.08171463	0.999999046	0.001040459	-0.000219345	2.19345E-05	9.343504906	-2.286744118	2.042865753	0.052022944	-0.010967257	0.001096726	-0.513183594	0.648681641	-0.538085938	898.74	-48.05976707	-71.69114783	0.90974288	-58
39037	0	0.373779297	-0.090881348	0.081237793	0.999999046	0.000732422	-0.000308037	0.000221252	9.344482422	-2.272033691	2.030944824	0.036621098	-0.015401842	0.011062623	-0.512939453	0.646484375	-0.543457031	898.76	-48.08950853	-71.69803475	1.029345388	-58
39038	0	0.374398232	-0.090808868	0.079795837	0.999999046	0.000577927	-0.000358582	0.000225067	9.359955788	-2.27022171	1.994895935	0.028896334	-0.017929079	0.011253358	-0.515380859	0.648925781	-0.546386719	898.7	-48.15109061	-71.7085843	1.163784158	-58
39039	0	0.372497559	-0.090881348	0.079345703	0.999999046	9.15527E-05	-0.000292778	6.86646E-05	9.312438965	-2.272033691	1.983642578	0.004577637	-0.014638901	0.003433228	-0.515380859	0.646728516	-0.537597656	898.76	-48.21554872	-71.72754204	1.231438652	-58
39040	0	0.373019218	-0.091223717	0.079508781	0.999999046	-0.000411034	-0.000354767	0.000225067	9.325480461	-2.280592918	1.987719536	-0.020551683	-0.017738343	0.011253358	-0.515380859	0.646728516	-0.543457031	898.74	-48.39013038	-71.73790133	1.366559638	-58
39041	0	0.373901367	-0.092346191	0.080383301	0.999999046	-0.000671387	-0.00033474	0.000297546	9.34753418	-2.308654785	2.00958252	-0.03356934	-0.016736986	0.014877321	-0.515380859	0.648925781	-0.540771484	898.7	-48.60629095	-71.74042539	1.509819261	-58
39042	0	0.373533249	-0.094510078	0.081531525	0.999999046	-0.000505447	-0.00041008	0.000231743	9.338331223	-2.362751961	2.038288116	-0.025272371	-0.020503999	0.011587144	-0.515625	0.651123047	-0.538085938	898.76	-48.80824313	-71.75407154	1.653418845	-59
39043	0	0.37487793	-0.094604492	0.080627441	0.999999046	-9.53674E-05	-0.000315666	0.000217438	9.371948242	-2.365112305	2.015686035	-0.004768372	-0.01578331	0.010871887	-0.515380859	0.648925781	-0.540771484	898.76	-48.93558835	-71.76167079	1.776740093	-58
39044	0	0.372385025	-0.093806267	0.080800056	0.999999046	0.000460625	-0.000360489	0.000109673	9.309625626	-2.34515667	2.020001411	0.023031236	-0.018024446	0.005483628	-0.513183594	0.648681641	-0.540771484	898.8	-48.98651721	-71.78184687	1.885969682	-58
39045	0	0.372802734	-0.092468262	0.08013916	0.999999046	0.000751495	-0.000487328	0.000228882	9.320068359	-2.311706543	2.003479004	0.037574773	-0.024366382	0.011444093	-0.515625	0.651123047	-0.541015625	898.8	-49.06483688	-71.8012199	2.054302118	-58
39046	0	0.375034332	-0.092217445	0.078385353	0.999999046	0.000667572	-0.000415802	0.00026989	9.375858307	-2.305436134	1.959633827	0.033378605	-0.020790102	0.013494493	-0.515380859	0.648925781	-0.540771484	898.82	-49.14361072	-71.81171254	2.21434793	-58
39047	0	0.375	-0.09161377	0.078979492	0.999999046	0.00082016	-0.00051403	0.000167847	9.375	-2.290344238	1.974487305	0.041008002	-0.025701527	0.008392335	-0.517822266	0.648925781	-0.540527344	898.8	-49.20770665	-71.83845601	2.375013353	-59
39048	0	0.374073029	-0.08929348	0.077275276	0.999999046	0.000433922	-0.000473022	0.000137329	9.351825714	-2.232336998	1.931881905	0.021696092	-0.023651125	0.006866456	-0.515380859	0.646728516	-0.543457031	898.74	-49.29847079	-71.8649318	2.524503454	-59
39049	0	0.37487793	-0.09197998	0.079223633	0.999999046	-0.000114441	-0.000510216	4.19617E-05	9.371948242	-2.299499512	1.98059082	-0.005722046	-0.025510789	0.002098084	-0.517822266	0.648925781	-0.537841797	898.82	-49.44053661	-71.90244128	2.650709128	-59
39050	0	0.37519455	-0.092885017	0.078818321	0.999999046	0.000383377	-0.000452042	-0.000138283	9.379863739	-2.322125435	1.970458031	0.019168855	-0.022602083	-0.006914139	-0.517822266	0.646728516	-0.537597656	898.88	-49.46938157	-71.95127915	2.719793732	-58
39051	0	0.375366211	-0.092285156	0.078796387	0.999999046	0.000499725	-0.000311852	-0.0001297	9.384155273	-2.307128906	1.969909668	0.024986269	-0.015592576	-0.006484986	-0.517822266	0.646728516	-0.540527344	898.8	-49.44946975	-71.98896127	2.754947659	-58
39052	0	0.375804901	-0.091682434	0.078408241	0.999999046	0.000748634	-0.000236511	-9.53674E-07	9.395122528	-2.292060852	1.960206032	0.037431721	-0.011825563	-4.76837E-05	-0.520019531	0.64453125	-0.540039063	898.66	-49.41030406	-72.00988907	2.79987421	-59
39053	0	0.37487793	-0.091064453	0.078186035	0.999999046	0.000789642	-0.000151634	-0.000114441	9.371948242	-2.276611328	1.954650879	0.039482121	-0.007581712	-0.005722047	-0.520019531	0.64453125	-0.540039063	898.8	-49.31747916	-72.03443489	2.790490769	-59
39054	0	0.374249458	-0.089515686	0.076564789	0.999999046	0.000257492	-9.53674E-06	-0.000248909	9.356236458	-2.237892151	1.91411972	0.012874604	-0.000476837	-0.01244545	-0.520019531	0.64453125	-0.54296875	898.74	-49.21635155	-72.06018453	2.711787931	-59
39055	0	0.375549316	-0.090454102	0.077880859	0.999999046	-0.000637054	8.4877E-05	-0.000141144	9.38873291	-2.261352539	1.947021484	-0.031852724	0.004243851	-0.00705719	-0.522216797	0.644775391	-0.54296875	898.76	-49.2171334	-72.06958397	2.634079204	-59
39056	0	0.3739748	-0.091181755	0.078619957	0.999999046	-0.000483513	-8.01086E-05	-0.000206947	9.349370003	-2.279543877	1.965498924	-0.024175645	-0.004005432	-0.010347367	-0.520019531	0.642333984	-0.537109375	898.74	-49.22921656	-72.09705231	2.582207751	-59
39057	0	0.374023438	-0.091674805	0.078613281	0.999999046	-0.000507355	-0.000189781	-0.00019455	9.350585938	-2.291870117	1.965332031	-0.025367738	-0.00948906	-0.009727479	-0.522460938	0.644775391	-0.537109375	898.76	-49.27634435	-72.13163684	2.562693379	-59
39058	0	0.376164436	-0.092891693	0.079778671	0.999999046	-0.000127792	-0.000240326	-0.000271797	9.404110909	-2.322292328	1.994466782	-0.006389618	-0.012016297	-0.013589859	-0.522460938	0.644775391	-0.534179688	898.76	-49.27563306	-72.17663215	2.534333944	-59
39059	0	0.371948242	-0.091491699	0.077941895	0.999999046	0.000102997	-0.000163078	-0.000278473	9.298706055	-2.28729248	1.948547363	0.005149841	-0.008153916	-0.013923645	-0.522216797	0.642578125	-0.536865234	898.7	-49.22595526	-72.21637877	2.489535915	-59
39060	0	0.373732567	-0.090107918	0.078569412	0.999999046	0.00017643	-0.000167847	2.57492E-05	9.343314171	-2.252697945	1.964235306	0.008821488	-0.008392334	0.00128746	-0.522460938	0.642578125	-0.534179688	898.72	-49.23986968	-72.23007189	2.515638663	-59
39061	0	0.375854492	-0.090332031	0.078308105	0.999999046	-0.000286102	-0.000296593	-0.000160217	9.396362305	-2.258300781	1.957702637	-0.014305115	-0.014829636	-0.008010865	-0.524658203	0.642578125	-0.533935547	898.76	-49.29822267	-72.26955965	2.533775126	-59
39062	0	0.375563622	-0.091539383	0.078458786	0.999999046	-0.000148773	-0.000230789	1.81198E-05	9.389090538	-2.288484573	1.96146965	-0.00743866	-0.011539459	0.000905991	-0.524658203	0.642578125	-0.533935547	898.82	-49.36475958	-72.28858316	2.578060551	-59
39063	0	0.375671387	-0.090759277	0.077819824	0.999999046	-0.000152588	-0.000155449	0.0001297	9.391784668	-2.268981934	1.945495605	-0.007629395	-0.007772446	0.006484985	-0.522216797	0.642578125	-0.536865234	898.82	-49.4373057	-72.29226549	2.634080036	-59
39064	0	0.374572754	-0.090941429	0.077980042	0.999999046	0.000113487	-0.000263214	-0.000153542	9.364318848	-2.273535728	1.949501038	0.005674362	-0.013160706	-0.007677078	-0.522460938	0.644775391	-0.534179688	898.7	-49.44259862	-72.32859656	2.643606483	-59
39065	0	0.375061035	-0.09173584	0.076965332	0.999999046	0.000526428	-0.000311852	-0.000106812	9.376525879	-2.293395996	1.924133301	0.026321413	-0.015592576	-0.005340577	-0.524658203	0.642578125	-0.536865234	898.72	-49.42497085	-72.36445604	2.68489259	-59
39066	0	0.377446175	-0.088829041	0.075967789	0.999999046	0.000993729	-0.000389099	-0.000134468	9.436154366	-2.220726013	1.899194717	0.049686441	-0.01945496	-0.006723405	-0.524902344	0.642822266	-0.536865234	898.8	-49.36844205	-72.40862322	2.737945498	-59
39067	0	0.37701416	-0.085388184	0.074584961	0.999999046	0.000244141	-0.000170708	-0.000171661	9.425354004	-2.13470459	1.864624023	0.012207031	-0.008535385	-0.008583069	-0.527099609	0.642822266	-0.536865234	898.8	-49.32888032	-72.44001231	2.71788972	-59
39068	0	0.375910759	-0.087785721	0.076329231	0.999999046	-0.000805855	-4.3869E-05	-0.000232697	9.397768974	-2.194643021	1.908230782	-0.040292745	-0.002193451	-0.011634828	-0.527099609	0.642822266	-0.539794922	898.76	-49.36014135	-72.46733879	2.653499878	-59
39069	0	0.374511719	-0.090698242	0.076660156	0.999999046	-0.000976563	0.000187874	-0.000209808	9.362792969	-2.267456055	1.916503906	-0.048828133	0.009393694	-0.010490419	-0.527099609	0.640625	-0.533691406	898.8	-49.35261876	-72.47533213	2.523876653	-58
39070	0	0.37580204	-0.091424942	0.077354431	0.999999046	-0.000619888	0.000177383	-4.19617E-05	9.395051003	-2.28562355	1.933860779	-0.030994417	0.008869172	-0.002098084	-0.522460938	0.642578125	-0.540039063	898.76	-49.34685132	-72.46943236	2.448442398	-59
39071	0	0.375	-0.091369629	0.077880859	0.999999046	4.95911E-05	-0.000189781	9.15527E-05	9.375	-2.284240723	1.947021484	0.002479553	-0.00948906	0.004577637	-0.524902344	0.642822266	-0.528320313	898.8	-49.39703988	-72.47922169	2.492466249	-59
39072	0	0.37733078	-0.090088844	0.074998856	0.999999046	0.000443459	-0.00022316	0.00014782	9.433269501	-2.252221107	1.87497139	0.022172929	-0.01115799	0.007390976	-0.529541016	0.642822266	-0.533935547	898.74	-49.42485906	-72.48666122	2.568852191	-59
39073	0	0.377807617	-0.08795166	0.075378418	0.999999046	0.000160217	-0.000243187	-5.34058E-05	9.44519043	-2.198791504	1.884460449	0.008010864	-0.012159348	-0.002670288	-0.524902344	0.640625	-0.533935547	898.74	-49.44311975	-72.51323841	2.604100393	-59
39074	0	0.375044823	-0.089170456	0.073941231	0.999999046	-0.00015831	-8.58307E-05	-4.95911E-05	9.376120567	-2.229261398	1.848530769	-0.007915497	-0.004291534	-0.002479553	-0.524902344	0.642822266	-0.53125	898.72	-49.45558434	-72.52784081	2.587927636	-59
39075	0	0.374572754	-0.088867188	0.073730469	0.999999046	0.000232697	-0.000109673	2.28882E-05	9.364318848	-2.221679688	1.843261719	0.011634827	-0.005483627	0.001144409	-0.527099609	0.640625	-0.533691406	898.7	-49.44721405	-72.53799596	2.603605957	-59
39076	0	0.377696991	-0.088484764	0.072527885	0.999999046	-0.000119209	1.71661E-05	-0.000286102	9.442424774	-2.212119102	1.813197136	-0.005960465	0.000858307	-0.014305115	-0.52734375	0.642822266	-0.528320313	898.8	-49.37108763	-72.56576489	2.493763276	-59
39077	0	0.375183105	-0.087402344	0.071472168	0.999999046	-0.000396729	0.000100136	-0.00012207	9.379577637	-2.185058594	1.786804199	-0.019836426	0.00500679	-0.006103516	-0.529541016	0.640625	-0.533691406	898.72	-49.34295467	-72.57325485	2.414333523	-59
39078	0	0.377448082	-0.087734222	0.072758675	0.999999046	-0.001237869	0.000104904	6.38962E-05	9.436202049	-2.19335556	1.818966866	-0.061893479	0.00524521	0.00319481	-0.529541016	0.643066406	-0.531005859	898.74	-49.45431006	-72.56440295	2.376444683	-59
39079	0	0.374633789	-0.090759277	0.074401855	0.999998093	-0.001543999	7.62939E-05	-0.000244141	9.365844727	-2.268981934	1.860046387	-0.077199967	0.003814699	-0.012207036	-0.52734375	0.642822266	-0.528320313	898.88	-49.53588161	-72.58450816	2.271598379	-59
39080	0	0.374788284	-0.091845512	0.074846268	0.999999046	-0.000956535	-7.05719E-05	-5.81741E-05	9.369707108	-2.29613781	1.871156693	-0.047826774	-0.003528596	-0.002908707	-0.52734375	0.645019531	-0.53125	898.82	-49.6353872	-72.59926092	2.261354485	-59
39081	0	0.375488281	-0.094116211	0.075378418	0.999999046	-0.000202179	-6.38962E-05	0.000209808	9.387207031	-2.352905273	1.884460449	-0.010108948	-0.003194809	0.010490418	-0.529785156	0.645263672	-0.525390625	898.84	-49.7105309	-72.5899312	2.307029556	-59
39082	0	0.37655735	-0.091619492	0.074925423	0.999999046	0.000436783	-0.000154495	0.000182152	9.413933754	-2.290487289	1.873135567	0.021839143	-0.007724762	0.00910759	-0.529785156	0.645263672	-0.53125	898.72	-49.73135964	-72.58966605	2.381349989	-58
39083	0	0.375183105	-0.090270996	0.073730469	0.999999046	0.000938416	-1.04904E-05	3.8147E-05	9.379577637	-2.256774902	1.843261719	0.046920783	-0.000524521	0.001907349	-0.52734375	0.645019531	-0.53125	898.7	-49.6207579	-72.59133267	2.374983633	-59
39084	0	0.374689102	-0.087175369	0.071382523	0.999999046	0.000618935	9.53674E-05	0.000159264	9.367227554	-2.179384232	1.784563065	0.030946734	0.004768372	0.007963181	-0.52734375	0.645019531	-0.534179688	898.74	-49.54622286	-72.57475704	2.370674029	-59
39085	0	0.376220703	-0.087524414	0.073120117	0.999999046	-4.57764E-05	5.43594E-05	0.000125885	9.405517578	-2.188110352	1.82800293	-0.002288818	0.002717972	0.006294251	-0.529785156	0.645263672	-0.533935547	898.76	-49.55143126	-72.5642896	2.36953361	-58
39086	0	0.376068115	-0.090189934	0.072297096	0.999999046	-8.58307E-05	1.52588E-05	0.000185966	9.401702881	-2.254748344	1.807427406	-0.004291534	0.000762939	0.009298325	-0.52734375	0.642822266	-0.525390625	898.7	-49.58673442	-72.55156292	2.384828941	-59
39087	0	0.377197266	-0.090454102	0.074401855	0.999999046	0.000118256	8.10623E-05	5.72205E-05	9.429931641	-2.261352539	1.860046387	0.005912781	0.004053116	0.002861023	-0.527587891	0.647216797	-0.528564453	898.8	-49.55012157	-72.54519578	2.347818434	-59
39088	0	0.375892639	-0.088953972	0.074666023	0.999999046	0.000313759	7.05719E-05	-9.15527E-05	9.397315979	-2.223849297	1.866650581	0.015687943	0.003528595	-0.004577637	-0.52734375	0.645019531	-0.534179688	898.76	-49.4587984	-72.55261372	2.288284798	-59
39089	0	0.37487793	-0.088806152	0.073547363	0.999999046	0.000328064	-6.67572E-06	2.28882E-05	9.371948242	-2.220153809	1.838684082	0.016403199	-0.000333786	0.001144409	-0.529785156	0.645263672	-0.53125	898.82	-49.41447689	-72.55587199	2.273255401	-59
39090	0	0.375484467	-0.089446068	0.074576378	0.999999046	-0.000167847	0.000270844	2.19345E-05	9.387111664	-2.236151695	1.864409447	-0.008392334	0.013542176	0.001096725	-0.524902344	0.642822266	-0.534179688	898.9	-49.35005882	-72.53852847	2.186260502	-59
39091	0	0.375366211	-0.090026855	0.075378418	0.999999046	-0.000202179	0.000287056	0.00012207	9.384155273	-2.250671387	1.884460449	-0.010108948	0.014352799	0.006103516	-0.529541016	0.643066406	-0.531005859	898.8	-49.30909729	-72.51122377	2.114396791	-59
39092	0	0.375239372	-0.090455055	0.075860977	0.999999046	1.23978E-05	0.000204086	8.01086E-05	9.380984306	-2.261376381	1.896524429	0.000619888	0.010204315	0.004005432	-0.52734375	0.645019531	-0.534179688	898.8	-49.25668792	-72.49370408	2.058475775	-58
39093	0	0.375610352	-0.089904785	0.073791504	0.999999046	0.000278473	-6.67572E-06	0.000156403	9.390258789	-2.247619629	1.844787598	0.013923645	-0.000333786	0.00782013	-0.52734375	0.642822266	-0.531005859	898.82	-49.25023837	-72.48536858	2.079759265	-59
39094	0	0.375338554	-0.089247704	0.076031685	0.999999046	0.000638962	-0.000127792	0.000217438	9.38346386	-2.231192589	1.900792122	0.031948092	-0.006389618	0.010871888	-0.52734375	0.642822266	-0.533935547	898.74	-49.25018372	-72.48079701	2.154191972	-58
39095	0	0.375183105	-0.088745117	0.074951172	0.999999046	0.000263214	-0.000117302	0.000221252	9.379577637	-2.21862793	1.873779297	0.013160706	-0.005865097	0.011062622	-0.529541016	0.642822266	-0.536621094	898.72	-49.29119572	-72.47515601	2.230561631	-59
39096	0	0.375466347	-0.088139534	0.075518608	0.999999046	-2.57492E-05	6.86646E-05	0.000155449	9.386658669	-2.20348835	1.887965202	-0.00128746	0.003433228	0.007772446	-0.52734375	0.642822266	-0.531005859	898.8	-49.29843681	-72.46138773	2.227498128	-59
39097	0	0.376037598	-0.088745117	0.07623291	0.999999046	4.95911E-05	4.29153E-05	0.000141144	9.400939941	-2.21862793	1.905822754	0.002479553	0.002145767	0.00705719	-0.524902344	0.645019531	-0.531494141	898.8	-49.30057261	-72.45081813	2.225777021	-59
39098	0	0.376005173	-0.090553284	0.076761246	0.999999046	-1.33514E-05	-2.28882E-05	0.000105858	9.400129318	-2.263832092	1.919031143	-0.000667572	-0.001144409	0.005292892	-0.524902344	0.642822266	-0.528320313	898.8	-49.31962832	-72.4481816	2.232513989	-59
39099	0	0.374633789	-0.089050293	0.075866699	0.999999046	6.86646E-05	6.96182E-05	0.000247955	9.365844727	-2.226257324	1.89666748	0.003433228	0.003480911	0.012397766	-0.52734375	0.642822266	-0.531005859	898.72	-49.33731079	-72.42630134	2.25235134	-59
39100	0	0.374640465	-0.088676453	0.075563431	0.999999046	-0.000187874	1.14441E-05	0.000247002	9.36601162	-2.216911316	1.88908577	-0.009393692	0.000572205	0.012350083	-0.52734375	0.642822266	-0.533935547	898.84	-49.39996061	-72.40888735	2.294555284	-58
39101	0	0.375366211	-0.090026855	0.075866699	0.999999046	-0.000205994	-7.53403E-05	8.01086E-05	9.384155273	-2.250671387	1.89666748	-0.010299683	-0.003767014	0.004005432	-0.524902344	0.642822266	-0.534179688	898.8	-49.44920008	-72.4124603	2.321852538	-59
39102	0	0.377682686	-0.089263916	0.075222015	0.999999046	-0.000272751	-7.62939E-06	3.8147E-06	9.442067146	-2.2315979	1.880550385	-0.013637543	-0.00038147	0.000190735	-0.524902344	0.645019531	-0.534179688	898.82	-49.46954544	-72.41771589	2.308532836	-59
39103	0	0.374694824	-0.089660645	0.076293945	0.999999046	-0.000255585	8.86917E-05	-0.000236511	9.367370605	-2.241516113	1.907348633	-0.012779236	0.004434586	-0.011825562	-0.524902344	0.642822266	-0.534179688	898.72	-49.40475643	-72.43670264	2.211568078	-59
39104	0	0.372648239	-0.089706421	0.075092316	1	-9.53674E-06	-4.76837E-06	1.04904E-05	9.316205978	-2.242660522	1.877307892	-0.000476837	-0.000238419	0.000524521	-0.52734375	0.645019531	-0.53125	898.66	-49.39562963	-72.44113421	2.194380986	-59
39105	0	0.375183105	-0.090209961	0.075134277	0.999999046	-0.000110626	-6.67572E-06	0.000160217	9.379577637	-2.255249023	1.878356934	-0.005531311	-0.000333786	0.008010864	-0.525146484	0.645019531	-0.528564453	898.76	-49.43400006	-72.43268279	2.211048815	-59
39106	0	0.378023148	-0.090043068	0.077061653	0.999999046	-0.000284195	-4.95911E-05	0.000159264	9.45057869	-2.251076698	1.926541328	-0.014209748	-0.002479553	0.007963181	-0.524902344	0.645019531	-0.531494141	898.72	-49.50363383	-72.42750073	2.246097199	-59
39107	0	0.374511719	-0.088989258	0.076477051	0.999999046	-4.95911E-05	0.000107765	-5.34058E-05	9.362792969	-2.224731445	1.91192627	-0.002479553	0.00538826	-0.002670288	-0.52734375	0.645019531	-0.53125	898.82	-49.45286492	-72.42912779	2.182573505	-59
39108	0	0.374138832	-0.090849876	0.076181412	0.999999046	-8.10623E-05	-0.000104904	0.000224113	9.353470802	-2.27124691	1.904535294	-0.004053116	-0.005245209	0.011205673	-0.52734375	0.645019531	-0.528320313	898.76	-49.52947581	-72.42234573	2.24478371	-58
39109	0	0.375	-0.091491699	0.07232666	0.999999046	7.62939E-05	-0.000193596	3.8147E-05	9.375	-2.28729248	1.808166504	0.003814697	-0.009679794	0.001907349	-0.52734375	0.645019531	-0.53125	898.76	-49.5693828	-72.43840374	2.29247991	-59
39110	0	0.375388145	-0.090289116	0.075062752	0.999999046	0.000144958	-0.000209808	0.000208855	9.384703636	-2.257227898	1.876568794	0.007247925	-0.010490418	0.010442734	-0.524902344	0.645019531	-0.531494141	898.66	-49.64609273	-72.4407593	2.387546697	-58
39111	0	0.375427246	-0.089538574	0.075500488	0.999999046	6.10352E-05	-6.00815E-05	0.000221252	9.385681152	-2.238464355	1.887512207	0.003051758	-0.003004074	0.011062622	-0.525146484	0.645019531	-0.528564453	898.8	-49.69389347	-72.43091678	2.437480165	-59
39112	0	0.374846458	-0.090611458	0.073878288	0.999999046	7.15256E-05	-0.000310898	0.000213623	9.371161461	-2.265286446	1.846957207	0.003576279	-0.015544892	0.010681153	-0.52734375	0.645019531	-0.53125	898.76	-49.80817318	-72.44031485	2.563599323	-59
39113	0	0.375671387	-0.090698242	0.074829102	0.999999046	0.00019455	-0.000193596	7.62939E-05	9.391784668	-2.267456055	1.870727539	0.009727478	-0.009679794	0.003814697	-0.524902344	0.645019531	-0.531494141	898.76	-49.84396509	-72.45301755	2.622248933	-59
39114	0	0.376601219	-0.089934349	0.074106216	0.999999046	0.000419617	-9.72748E-05	0.000170708	9.415030479	-2.248358727	1.852655411	0.020980836	-0.004863739	0.008535385	-0.527587891	0.647216797	-0.531494141	898.82	-49.84943579	-72.4503881	2.671790877	-59
39115	0	0.375793457	-0.08984375	0.073242188	0.999999046	0.000434875	-0.000166893	8.39233E-05	9.394836426	-2.24609375	1.831054688	0.021743775	-0.008344651	0.004196167	-0.529785156	0.645263672	-0.53125	898.76	-49.85232637	-72.46058076	2.721770586	-59
39116	0	0.375619888	-0.088317871	0.073375702	0.999999046	0.000172615	-8.39233E-05	8.01086E-05	9.390497208	-2.207946777	1.834392548	0.008630753	-0.004196167	0.004005432	-0.52734375	0.645019531	-0.534179688	898.76	-49.86136421	-72.46509926	2.751574994	-59
39117	0	0.376586914	-0.087585449	0.069641113	0.999999046	-0.00062561	3.52859E-05	3.43323E-05	9.414672852	-2.18963623	1.741027832	-0.03128052	0.001764298	0.001716614	-0.52734375	0.642822266	-0.531005859	898.8	-49.91847633	-72.46510191	2.735953192	-59
39118	0	0.3764534	-0.089533806	0.072667122	0.999999046	-0.001346588	2.67029E-05	-0.000195503	9.411334991	-2.238345146	1.816678047	-0.067329428	0.001335144	-0.009775165	-0.527587891	0.647216797	-0.528564453	898.8	-50.0070594	-72.48601414	2.660745057	-59
39119	0	0.374694824	-0.091125488	0.073913574	0.999998093	-0.001666069	-0.000118256	-0.000156403	9.367370605	-2.278137207	1.847839355	-0.083303491	-0.005912784	-0.007820133	-0.527587891	0.645019531	-0.525634766	898.76	-50.18192911	-72.51416932	2.64207257	-58
39120	0	0.37492466	-0.09437561	0.076012611	0.999999046	-0.001038551	-2.09808E-05	-6.86646E-05	9.373116493	-2.359390259	1.900315285	-0.051927576	-0.001049042	-0.003433228	-0.525146484	0.647216797	-0.525878906	898.72	-50.27841156	-72.52726191	2.617538176	-59
39121	0	0.37512207	-0.094055176	0.073791504	0.999999046	-0.000320435	-0.000250816	-8.01086E-05	9.378051758	-2.351379395	1.844787598	-0.016021729	-0.012540818	-0.004005432	-0.527587891	0.647460938	-0.522949219	898.66	-50.35477076	-72.5580561	2.654298539	-59
39122	0	0.375723839	-0.093677521	0.075128555	0.999999046	1.90735E-05	-0.000171661	-2.38419E-05	9.39309597	-2.341938019	1.878213882	0.000953674	-0.008583069	-0.001192093	-0.530029297	0.647460938	-0.525634766	898.8	-50.38332382	-72.57792434	2.686506608	-59
39123	0	0.375	-0.091918945	0.074645996	0.999999046	0.000255585	-0.000281334	0.000209808	9.375	-2.297973633	1.866149902	0.012779236	-0.014066697	0.010490418	-0.527832031	0.649658203	-0.520263672	898.66	-50.47008277	-72.58505202	2.795618457	-58
39124	0	0.375244141	-0.092712402	0.071594238	0.999999046	0.000752449	-0.000297546	-0.000171661	9.381103516	-2.317810059	1.789855957	0.037622456	-0.014877321	-0.00858307	-0.527587891	0.647460938	-0.522949219	898.76	-50.41621541	-72.62702316	2.822364687	-59
39125	0	0.375671387	-0.090942383	0.071105957	0.999999046	0.001079559	-0.00032711	-0.000289917	9.391784668	-2.27355957	1.777648926	0.053977979	-0.016355518	-0.014495853	-0.530029297	0.647460938	-0.522705078	898.82	-50.30575061	-72.68164287	2.824875734	-59
39126	0	0.377110481	-0.088499069	0.069584846	0.999999046	0.001014709	-0.000312805	-0.000232697	9.427762032	-2.21247673	1.739621162	0.050735484	-0.015640262	-0.011634829	-0.532226563	0.645263672	-0.528076172	898.7	-50.21213002	-72.73035718	2.846104819	-59
39127	0	0.378662109	-0.087097168	0.070068359	0.999999046	0.000419617	-0.00014019	-0.000423431	9.466552734	-2.177429199	1.751708984	0.020980836	-0.007009507	-0.021171571	-0.532226563	0.645263672	-0.528076172	898.82	-50.0925079	-72.78340771	2.766701085	-59
39128	0	0.37912178	-0.087023735	0.069667816	0.999999046	-2.38419E-05	0.000207901	-0.000531197	9.47804451	-2.175593376	1.741695404	-0.001192093	0.010395051	-0.026559831	-0.532226563	0.643066406	-0.525146484	898.76	-49.89882139	-72.82043143	2.553754658	-59
39129	0	0.376464844	-0.088684082	0.068359375	0.999999046	-0.000747681	0.000279427	-0.000671387	9.411621094	-2.217102051	1.708984375	-0.03738404	0.013971331	-0.033569342	-0.532226563	0.643066406	-0.525146484	898.8	-49.73391358	-72.86439095	2.285420024	-59
39130	0	0.376238823	-0.087244034	0.068193436	0.999999046	-0.00097847	0.000402451	-0.000534058	9.405970573	-2.181100845	1.704835892	-0.048923504	0.020122533	-0.026702887	-0.532226563	0.643066406	-0.525146484	898.8	-49.5931857	-72.88720497	2.016852341	-59
39131	0	0.378051758	-0.088928223	0.067260742	0.999997139	-0.001720428	0.000401497	-0.000858307	9.451293945	-2.223205566	1.681518555	-0.086021479	0.020074857	-0.042915372	-0.534667969	0.645507813	-0.522216797	898.76	-49.45931871	-72.93833497	1.662335518	-59
39132	0	0.375890732	-0.088087082	0.067196846	0.999995232	-0.002804756	0.000436783	-0.000687599	9.397268295	-2.202177048	1.67992115	-0.140238008	0.021839173	-0.034380008	-0.534667969	0.645263672	-0.525146484	898.82	-49.48080236	-72.97202447	1.354333332	-58
39133	0	0.377380371	-0.092895508	0.068054199	0.999993324	-0.003395081	0.000607491	-0.001110077	9.434509277	-2.322387695	1.70135498	-0.1697544	0.030374593	-0.055503967	-0.532470703	0.645507813	-0.513916016	898.82	-49.41855595	-73.02971294	0.878060688	-59
39134	0	0.376286507	-0.094539642	0.068294525	0.999991417	-0.003854752	0.000768661	-0.001213074	9.407162666	-2.363491058	1.707363129	-0.192738123	0.038433183	-0.060653858	-0.537109375	0.647705078	-0.516601563	898.8	-49.3371385	-73.08403064	0.339165993	-59
39135	0	0.369812012	-0.099060059	0.069946289	0.999992371	-0.003703117	0.000915527	-0.000782013	9.245300293	-2.476501465	1.748657227	-0.185156336	0.045776483	-0.039100746	-0.537353516	0.649902344	-0.510986328	898.8	-49.30262858	-73.08929841	-0.134825128	-59
39136	0	0.372958183	-0.102285385	0.069077492	0.999997139	-0.002001762	0.000669479	-0.001041412	9.323954582	-2.557134628	1.726937294	-0.100088212	0.033473999	-0.052070666	-0.537353516	0.652099609	-0.511230469	898.72	-49.08070762	-73.13468183	-0.599238533	-59
39137	0	0.379211426	-0.101196289	0.06854248	0.999997139	-0.001213074	0.000859261	-0.001289368	9.480285645	-2.529907227	1.713562012	-0.060653726	0.042963056	-0.064468425	-0.537841797	0.654541016	-0.502685547	898.76	-48.65234736	-73.18601937	-1.202479377	-59
39138	0	0.377399445	-0.099410057	0.067360878	0.999997139	-0.001585007	0.001413345	-0.000831604	9.434986115	-2.485251427	1.68402195	-0.079250404	0.070667328	-0.041580236	-0.540039063	0.654541016	-0.502685547	898.76	-48.22507732	-73.15440906	-1.847192994	-60
39139	0	0.378540039	-0.096801758	0.066040039	0.999996185	-0.00158596	0.00189209	-0.001079559	9.463500977	-2.420043945	1.651000977	-0.079298115	0.094604607	-0.053978032	-0.540039063	0.654541016	-0.505615234	898.82	-47.60543734	-73.10532575	-2.687384939	-60
39140	0	0.376802444	-0.096920967	0.063372612	0.999995232	-0.001521111	0.002063751	-0.001560211	9.420061111	-2.423024178	1.5843153	-0.076055641	0.103187716	-0.078010676	-0.540283203	0.656738281	-0.502929688	898.82	-46.81426944	-73.08028526	-3.707764035	-60
39141	0	0.375	-0.097045898	0.061279297	0.999996185	-0.000800133	0.002059937	-0.001655579	9.375	-2.426147461	1.531982422	-0.040006688	0.102996957	-0.082779036	-0.537353516	0.654296875	-0.508300781	898.76	-45.92251568	-73.05917864	-4.737411043	-60
39142	0	0.377626419	-0.093878746	0.061157227	0.999994278	-0.00052166	0.002209663	-0.002376556	9.440660477	-2.346968651	1.528930664	-0.02608304	0.110483368	-0.118828034	-0.537353516	0.654296875	-0.508300781	898.7	-44.77232083	-73.0796507	-6.009685279	-60
39143	0	0.378723145	-0.091674805	0.059326172	0.999990463	-0.001814842	0.002643585	-0.002662659	9.468078613	-2.291870117	1.483154297	-0.090742374	0.132179643	-0.13313332	-0.542236328	0.65234375	-0.505126953	898.76	-43.58033351	-73.08013758	-7.486106703	-60
39144	0	0.377948761	-0.09506321	0.059205055	0.999983788	-0.003666878	0.003080368	-0.00288105	9.448719025	-2.376580238	1.480126381	-0.183344842	0.154019204	-0.144053255	-0.541992188	0.650146484	-0.504882813	898.72	-42.43362059	-73.05269188	-9.13112478	-60
39145	0	0.376953125	-0.096252441	0.059936523	0.999979973	-0.003479004	0.003762245	-0.003593445	9.423828125	-2.406311035	1.498413086	-0.173951331	0.188113487	-0.179673414	-0.544433594	0.650146484	-0.510498047	898.82	-40.90533624	-73.01028486	-11.14283031	-60
39146	0	0.37211132	-0.099477768	0.059226036	0.999972343	-0.004150391	0.004320145	-0.004208565	9.302783012	-2.486944199	1.480650902	-0.207521385	0.216009162	-0.210430118	-0.544433594	0.650146484	-0.504882813	898.7	-39.15939402	-72.94765307	-13.47273131	-60
39147	0	0.369140625	-0.097961426	0.060791016	0.999976158	-0.001964569	0.00414753	-0.004985809	9.228515625	-2.449035645	1.519775391	-0.098229206	0.207378067	-0.249292374	-0.546630859	0.647949219	-0.510253906	898.76	-36.99293356	-72.93251932	-15.97655343	-62
39148	0	0.370595932	-0.094434738	0.059211731	0.99997139	-0.001140594	0.004504204	-0.005832672	9.2648983	-2.360868454	1.480293274	-0.057030253	0.225212277	-0.291636309	-0.551025391	0.643554688	-0.512451172	898.76	-34.40999694	-72.9108001	-18.82146346	-65
39149	0	0.360534668	-0.092956543	0.06048584	0.999966621	-0.001552582	0.004792213	-0.006351471	9.013366699	-2.323913574	1.512145996	-0.07762994	0.239613296	-0.317577026	-0.552978516	0.636962891	-0.517578125	898.7	-31.67229871	-72.85542896	-21.87314158	-65
39150	0	0.347148895	-0.088610649	0.059987068	0.999965668	-0.001265526	0.005198479	-0.006270409	8.678722382	-2.215266228	1.499676704	-0.063277007	0.259926878	-0.313523982	-0.557617188	0.6328125	-0.517089844	898.8	-28.88742563	-72.71225915	-24.95278142	-65
39151	0	0.321350098	-0.080444336	0.062072754	0.99996376	-0.001948357	0.006298065	-0.005283356	8.033752441	-2.011108398	1.551818848	-0.09741899	0.314907005	-0.264170928	-0.557128906	0.626220703	-0.528076172	898.76	-26.38656733	-72.36338427	-27.80495235	-67
39152	0	0.295508385	-0.07850647	0.070610046	0.999960899	-0.002057076	0.007598877	-0.003966331	7.387709618	-1.962661743	1.76525116	-0.102855107	0.379948768	-0.198319143	-0.559326172	0.621826172	-0.533203125	898.72	-24.24882764	-71.78040786	-30.29680055	-69
39153	0	0.302062988	-0.074401855	0.078674316	0.999937057	-0.003073692	0.010147095	-0.003501892	7.551574707	-1.860046387	1.96685791	-0.15368781	0.507365279	-0.175098243	-0.554199219	0.619384766	-0.5390625	898.7	-22.20086669	-70.88004662	-32.82901019	-68
39154	0	0.310547829	-0.10322094	0.110840797	0.999910355	-0.002152443	0.012375832	-0.004528046	7.763695717	-2.580523491	2.771019936	-0.107625345	0.61880997	-0.226409011	-0.549316406	0.619140625	-0.553710938	898.8	-19.72582927	-69.75003199	-35.71652479	-64
39155	0	0.309143066	-0.083862305	0.124816895	0.999807358	-0.003100395	0.019031525	-0.003421783	7.72857666	-2.096557617	3.120422363	-0.155029671	0.951637068	-0.17110011	-0.539550781	0.614257813	-0.565429688	898.66	-17.38572385	-67.81473925	-38.61323551	-63
39156	0	0.24833107	-0.077467918	0.145720482	0.999470711	-0.012814522	0.029851913	0.001318932	6.208276749	-1.93669796	3.643012047	-0.640839027	1.492858765	0.065958203	-0.515869141	0.619873047	-0.581542969	898.76	-16.94321146	-64.50657329	-40.70243849	-62
39157	0	0.223754883	-0.101135254	0.197631836	0.999149323	-0.013739586	0.038181305	0.007324219	5.59387207	-2.528381348	4.940795898	-0.687174114	1.909606637	0.366314791	-0.474121094	0.640380859	-0.596923828	898.76	-17.61402586	-60.07945084	-41.7428284	-60
39158	0	0.196133614	-0.100717545	0.25856781	0.998726845	-0.002550125	0.048336029	0.014198303	4.90334034	-2.517938614	6.464195251	-0.127560391	2.41782754	0.710216566	-0.410888672	0.662353516	-0.622314453	898.76	-17.74137395	-54.29989182	-42.01233652	-63
39159	0	0.273010254	-0.077880859	0.168457031	0.998325348	-0.003199577	0.054141998	0.020076752	6.825256348	-1.947021484	4.211425781	-0.16006818	2.708611249	1.004398013	-0.325927734	0.676757813	-0.662597656	898.74	-18.46458799	-47.67912434	-41.63098417	-69
39160	0	0.300156593	-0.084178925	0.139764786	0.997551918	-0.010914803	0.063419342	0.027339935	7.503914833	-2.104473114	3.494119644	-0.546185761	3.17355641	1.36811301	-0.212890625	0.694824219	-0.6875	898.74	-20.27511575	-39.77681977	-40.89727934	-68
39161	0	0.301574707	-0.145568848	0.167114258	0.997505188	-0.005972862	0.059242249	0.037906647	7.539367676	-3.639221191	4.177856445	-0.298891655	2.964577613	1.896909707	-0.077392578	0.723144531	-0.694335938	898.82	-22.14980381	-31.87272047	-38.97468792	-68
39162	0	0.717720985	-0.288705826	0.175806999	0.998023033	0.032938004	0.04353714	0.031114578	17.94302464	-7.217645645	4.39517498	1.647985908	2.178292104	1.556754538	0.054931641	0.720947266	-0.701416016	898.8	-19.28325291	-25.96776785	-37.32606151	-65
39163	0	0.770141602	-0.15802002	0.120727539	0.998104095	0.028355598	0.054168701	0.007061005	19.25354004	-3.950500488	3.018188477	1.418676578	2.710147971	0.353273514	0.16015625	0.655273438	-0.759277344	898.76	-15.61620375	-19.85640717	-38.53798169	-64
39164	0	0.238366127	-0.204764366	0.503839493	0.997815132	-0.06534481	0.008069992	-0.005304337	5.959153175	-5.119109154	12.59598732	-3.269621142	0.403793606	-0.265410073	0.238037109	0.652587891	-0.751708984	898.8	-22.8475728	-19.24069695	-39.03355977	-62
39165	0	0.082824707	-0.680664063	0.943969727	0.999524117	0.001403809	-0.015856743	-0.026397705	2.070617676	-17.01660156	23.59924316	0.070201551	-0.792962762	-1.320094379	0.210449219	0.7578125	-0.655517578	898.76	-21.95301844	-22.11701169	-41.15312913	-68
39166	0	-0.041352272	-0.463422775	0.548317909	0.98760128	0.15653801	0.010570526	-0.005066872	-1.033806801	-11.58556938	13.70794773	7.859406744	0.530721353	-0.254395755	0.160644531	0.695068359	-0.745605469	898.76	-3.679002586	-21.09263186	-42.50150559	-64
39167	0	-0.030883789	0.299987793	0.245178223	0.993801117	0.106469154	0.028503418	0.014522552	-0.772094727	7.499694824	6.129455566	5.334484618	1.428122968	0.72763171	0.190185547	0.412597656	-0.93359375	898.72	7.867997836	-17.90771089	-40.72286382	-76
39168	0	-0.049944878	0.221312523	0.208673477	0.999078751	-0.011388779	0.027869225	0.030575752	-1.248621941	5.532813072	5.216836929	-0.569613828	1.393889206	1.529257155	0.257324219	0.284667969	-0.958251953	898.76	5.377945448	-15.14716235	-36.63674847	-74
39169	0	0.093200684	0.02520752	0.19317627	0.999101639	-0.019724846	0.019248962	0.032180786	2.33001709	0.630187988	4.829406738	-0.986537616	0.962736317	1.609521119	0.324462891	0.308837891	-0.937988281	898.82	2.109636441	-13.19459927	-32.66392186	-83
39170	0	0.09646225	-0.007903099	0.178178787	0.999385834	0.015540123	0.015439034	0.027316093	2.411556244	-0.197577477	4.454469681	0.777165009	0.772109502	1.366083912	0.375732422	0.311767578	-0.918212891	898.7	3.145950861	-11.57919275	-29.38697148	-86
39171	0	0.03692627	0.020263672	0.226074219	0.998575211	0.041016579	0.004119873	0.033866882	0.923156738	0.506591797	5.651855469	2.051803061	0.206091498	1.694148441	0.4140625	0.246337891	-0.923339844	898.72	7.013600588	-11.45815361	-25.41602358	-74
39172	0	0.121318817	0.016917229	0.31381321	0.996851921	0.065274239	-0.004579544	0.044770241	3.032970428	0.422930717	7.845330238	3.26714096	-0.229217779	2.24086394	0.431152344	0.12890625	-0.943359375	898.76	13.39528646	-12.88971268	-20.36925371	-71
39173	0	0.175476074	0.099121094	0.311401367	0.995913506	0.073139191	-0.007864952	0.052391052	4.386901855	2.478027344	7.78503418	3.661948907	-0.393784132	2.6231266	0.426757813	-0.038574219	-0.955078125	898.82	20.36682319	-15.50425045	-14.72923264	-76
39174	0	0.327857971	0.200963974	0.37439537	0.995099068	0.073680878	-0.006319046	0.065638542	8.19644928	5.02409935	9.359884262	3.690073737	-0.316469435	3.287298797	0.401367188	-0.220703125	-0.944335938	898.74	26.73010931	-19.19142656	-7.814556986	-69
39175	0	0.455932617	0.31652832	0.28918457	0.994878769	0.060166359	0.008968353	0.080715179	11.39831543	7.913208008	7.229614258	3.013463479	0.449184653	4.042661875	0.354248047	-0.403808594	-0.903808594	898.76	30.30562328	-22.73730879	1.424086624	-72
39176	0	0.434406281	0.332472801	0.231502533	0.995078087	0.045802116	0.013734818	0.086782455	10.86015701	8.31182003	5.787563324	2.293869724	0.687869569	4.34625434	0.298095703	-0.553710938	-0.845214844	898.8	31.24374215	-26.51783886	11.72983271	-71
39177	0	0.347167969	0.395080566	0.232666016	0.995736122	0.02677536	0.016495705	0.086711884	8.679199219	9.87701416	5.816650391	1.340673679	0.825959276	4.341765692	0.217041016	-0.665283203	-0.788330078	898.76	29.1593657	-29.92859511	22.5843697	-82
39178	0	0.233958244	0.308497429	0.167514801	0.997179985	0.001049042	0.011255264	0.07419014	5.848956108	7.712435722	4.187870026	0.052501447	0.563292801	3.712997808	0.126953125	-0.719238281	-0.76171875	898.66	24.27852378	-32.6376879	32.17740824	-76
39179	0	0.214172363	0.294372559	0.13848877	0.99846077	0.002148628	0.006797791	0.05499649	5.354309082	7.359313965	3.462219238	0.107486555	0.340063986	2.751235965	0.042480469	-0.727539063	-0.767822266	898.78	20.45345905	-34.34773657	39.53583348	-70
39180	0	0.209929466	0.253257751	0.190935135	0.999091148	0.014655113	0.003482819	0.039856911	5.248236656	6.331443787	4.773378372	0.732977559	0.174193665	1.993449022	-0.018798828	-0.734130859	-0.763916016	898.82	19.027496	-35.544335	44.94587554	-69
39181	0	0.213134766	0.267211914	0.173522949	0.999305725	0.024720192	0.000213623	0.027862549	5.328369141	6.680297852	4.33807373	1.236295594	0.010683624	1.393449793	-0.067626953	-0.758789063	-0.733398438	898.8	19.66348199	-36.6080686	48.67561124	-69
39182	0	0.19756794	0.293725014	0.203074455	0.999682426	0.012540817	-0.0082798	0.020226479	4.939198494	7.343125343	5.076861382	0.627107237	-0.414033843	1.011430981	-0.109619141	-0.785644531	-0.703125	898.72	19.68807742	-38.30948929	51.01137794	-69
39183	0	0.209228516	0.243408203	0.257995605	0.999814987	0.00515461	-0.014183044	0.011863708	5.230712891	6.085205078	6.449890137	0.257746315	-0.70919578	0.59322186	-0.152099609	-0.79296875	-0.685791016	898.82	19.70246223	-40.32280803	51.94292548	-69
39184	0	0.230869293	0.243577003	0.26742363	0.999880791	0.004920006	-0.014026642	0.004051208	5.77173233	6.089425087	6.685590744	0.246010023	-0.701359841	0.202568439	-0.185058594	-0.798339844	-0.672119141	898.76	20.39963425	-42.01397479	51.76990882	-71
39185	0	0.276794434	0.248596191	0.409301758	0.999714851	-0.023719788	-0.002242088	-0.001247406	6.91986084	6.214904785	10.23254395	-1.186101922	-0.112115054	-0.062376219	-0.204345703	-0.793212891	-0.659912109	898.84	17.91886445	-42.22540947	51.47168726	-75
39186	0	0.258829117	0.025473595	0.409492493	0.998638153	-0.049958229	0.014624596	0.00328064	6.470727921	0.636839867	10.23731232	-2.499045423	0.731561736	0.164106448	-0.200439453	-0.749755859	-0.715332031	898.84	11.52461094	-40.71169779	52.54099203	-83
39187	0	0.232543945	-0.039672852	0.290222168	0.999224663	-0.034755707	0.017098427	0.006980896	5.813598633	-0.991821289	7.255554199	-1.738234305	0.855142214	0.349134977	-0.178955078	-0.669433594	-0.792236328	898.82	6.646808547	-38.91511327	53.9757822	-80
39188	0	0.262513161	-0.036711693	0.327607155	0.999788284	-0.002544403	0.016352654	0.012104988	6.562829018	-0.91779232	8.190178871	-0.12722907	0.817689977	0.605291822	-0.158935547	-0.626220703	-0.828369141	898.8	5.139975148	-37.20580606	55.9599175	-85
39189	0	0.242797852	0.000793457	0.282043457	0.99985218	0.003852844	0.009152412	0.014022827	6.069946289	0.019836426	7.051086426	0.192651693	0.457643143	0.701175864	-0.154296875	-0.626464844	-0.828613281	898.76	4.333515251	-36.30691862	58.05276198	-80
39190	0	0.255959511	-0.005004883	0.269947052	0.999802589	-0.007202148	0.008182526	0.01658535	6.39898777	-0.12512207	6.7486763	-0.360131067	0.409153146	0.829321953	-0.156494141	-0.622070313	-0.837646484	898.84	2.106082728	-35.49345488	60.45036843	-79
39191	0	0.255065918	-0.007385254	0.294616699	0.999717712	-0.010210991	0.011722565	0.017963409	6.376647949	-0.184631348	7.36541748	-0.51059758	0.586183381	0.898254976	-0.162109375	-0.599853516	-0.84765625	898.82	-0.503211074	-34.19670118	62.9752912	-79
39192	0	0.239522934	0.001228333	0.30421257	0.999721527	-0.008054733	0.013813972	0.017306328	5.988073349	0.030708313	7.605314255	-0.402773941	0.690762554	0.865396484	-0.162841797	-0.577880859	-0.858154297	898.82	-2.697935629	-32.57779235	65.29249744	-79
39193	0	0.213806152	-0.008361816	0.316955566	0.999765396	-0.008933067	0.011245728	0.016178131	5.345153809	-0.20904541	7.92388916	-0.446688212	0.562330244	0.808969663	-0.156494141	-0.556152344	-0.871826172	898.82	-4.815028662	-31.18966255	67.36530464	-79
39194	0	0.231378555	-0.033660889	0.335690498	0.99987793	-0.004927635	0.008719444	0.011940002	5.784463882	-0.841522217	8.392262459	-0.246391734	0.435989863	0.597024291	-0.152099609	-0.538818359	-0.885009766	898.7	-6.126349241	-30.08484479	68.82810605	-79
39195	0	0.226745605	-0.026794434	0.320251465	0.999835014	-0.014152527	0.007649422	0.008377075	5.668640137	-0.66986084	8.006286621	-0.707665148	0.382492059	0.418876729	-0.150146484	-0.5234375	-0.900634766	898.72	-8.223702365	-29.11695807	69.79320109	-78
39196	0	0.217451096	-0.064435959	0.337552071	0.999673843	-0.024194717	0.005167961	0.006235123	5.43627739	-1.610898972	8.438801765	-1.209867159	0.258426099	0.311789968	-0.144287109	-0.490722656	-0.920898438	898.72	-11.32599711	-28.43462878	70.48144496	-76
39197	0	0.196960449	-0.111694336	0.391479492	0.99976635	-0.020812988	0.002884865	0.0050354	4.92401123	-2.792358398	9.786987305	-1.040730404	0.144254466	0.251789614	-0.141357422	-0.440185547	-0.939697266	898.82	-13.97469027	-28.0069935	71.03438322	-76
39198	0	0.207400322	-0.138521194	0.384917259	0.999913216	-0.011407852	0.00365448	0.005331993	5.185008049	-3.463029861	9.62293148	-0.570408954	0.182729235	0.266607295	-0.140136719	-0.403076172	-0.957275391	898.82	-15.53945256	-27.46691727	71.57314573	-75
39199	0	0.159606934	-0.107910156	0.33392334	0.999937057	-0.00908947	0.003555298	0.005516052	3.99017334	-2.697753906	8.348083496	-0.454483016	0.177768617	0.27580839	-0.133789063	-0.383300781	-0.961914063	898.82	-16.8384551	-26.91849137	72.11815303	-75
39200	0	0.178059578	-0.126621246	0.338650703	0.99998188	-0.004734993	0.001321793	0.003310204	4.451489449	-3.165531158	8.466267586	-0.236751035	0.066090017	0.165511147	-0.134521484	-0.365722656	-0.972167969	898.82	-17.54676526	-26.6800516	72.46132277	-75
39201	0	0.171630859	-0.142944336	0.336547852	0.999990463	-1.43051E-05	0.001049042	0.004096985	4.290771484	-3.573608398	8.413696289	-0.000715258	0.052452244	0.204849854	-0.132324219	-0.359375	-0.975585938	898.82	-17.7611173	-26.44048257	72.9044787	-76
39202	0	0.172070503	-0.137658119	0.331718445	0.999948502	0.008835793	0.001559258	0.0046978	4.301762581	-3.44145298	8.292961121	0.44179718	0.077964208	0.234894	-0.134765625	-0.359130859	-0.97265625	898.88	-16.98497342	-26.1257017	73.39769985	-76
39203	0	0.165222168	-0.111938477	0.318908691	0.99990654	0.012349129	0.000225067	0.005725861	4.130554199	-2.798461914	7.972717285	0.617475511	0.011253705	0.286301874	-0.136230469	-0.37890625	-0.968017578	898.8	-15.88335774	-25.93110456	74.06668482	-76
39204	0	0.185472488	-0.096295357	0.345314026	0.999884605	0.014204979	-0.001197815	0.005134583	4.63681221	-2.407383919	8.632850647	0.710276126	-0.059893039	0.25673895	-0.140136719	-0.402832031	-0.954345703	898.8	-14.55869472	-25.92462047	74.71335083	-77
39205	0	0.180175781	-0.069824219	0.345397949	0.999945641	0.009887695	-0.000369072	0.003238678	4.504394531	-1.745605469	8.63494873	0.494393697	-0.018453931	0.161936824	-0.144042969	-0.427001953	-0.943359375	898.84	-13.61390692	-25.89058492	75.1035343	-78
39206	0	0.182807922	-0.093167305	0.358820915	0.999964714	0.007644653	-0.000431061	0.003369331	4.570198059	-2.329182625	8.970522881	0.382237124	-0.021553291	0.168468533	-0.148193359	-0.442138672	-0.939208984	898.9	-12.93434145	-25.86478695	75.51288157	-79
39207	0	0.180358887	-0.079589844	0.346435547	0.999955177	0.008804321	0.001214027	0.003097534	4.508972168	-1.989746094	8.660888672	0.440222564	0.060702266	0.154878996	-0.152587891	-0.455322266	-0.926269531	898.9	-12.08665951	-25.66662487	75.84759512	-79
39208	0	0.200598717	-0.069477081	0.35484314	0.999964714	0.008130074	0.001745224	0.000944138	5.014967918	-1.736927032	8.871078491	0.406508422	0.087262219	0.04720743	-0.152099609	-0.468505859	-0.922363281	898.78	-11.19440575	-25.46410366	75.9036585	-79
39209	0	0.187438965	-0.052612305	0.352905273	0.999986649	0.004036903	0.002986908	-0.000144958	4.685974121	-1.315307617	8.822631836	0.201846018	0.149346026	-0.007247955	-0.151611328	-0.486083984	-0.91796875	898.76	-10.70015417	-25.14665912	75.80484172	-79
39210	0	0.186406136	-0.080854416	0.381973267	0.999984741	0.003558159	0.003493309	-0.00214386	4.660153389	-2.021360397	9.549331665	0.177908817	0.174666309	-0.107193519	-0.141845703	-0.492919922	-0.91796875	898.82	-10.15314722	-24.81250394	75.44742505	-79
39211	0	0.17401123	-0.066101074	0.369018555	0.999967575	0.003418922	0.006820679	-0.0025177	4.350280762	-1.652526855	9.225463867	0.17094796	0.341037605	-0.125886364	-0.132080078	-0.5	-0.912353516	898.82	-9.577864504	-24.10651811	74.98306896	-79
39212	0	0.181028366	-0.048079491	0.35989666	0.999991417	-0.001091957	0.003620148	-0.001259804	4.525709152	-1.201987267	8.997416496	-0.054597999	0.181007864	-0.062990355	-0.117675781	-0.504882813	-0.915527344	898.8	-9.614979509	-23.73658854	74.74205437	-79
39213	0	0.175109863	-0.034912109	0.36932373	0.99997139	-0.00739193	0.00019455	-0.001365662	4.377746582	-0.872802734	9.233093262	-0.369599964	0.00972757	-0.068283725	-0.110839844	-0.500732422	-0.916259766	898.88	-10.39659608	-23.75704561	74.55998962	-79
39214	0	0.142658234	-0.060952187	0.358809471	0.999947548	-0.009433746	-0.000839233	-0.00388813	3.566455841	-1.523804665	8.970236778	-0.471695557	-0.041962403	-0.194409906	-0.109130859	-0.483154297	-0.923583984	898.88	-11.29569963	-23.94940843	74.09230061	-79
39215	0	0.138183594	-0.086975098	0.352294922	0.99998188	-0.004058838	0.000554085	-0.004405975	3.454589844	-2.174377441	8.807373047	-0.202943119	0.027704406	-0.220300096	-0.109619141	-0.465576172	-0.93359375	898.88	-11.53930298	-23.9998053	73.52689188	-79
39216	0	0.118332863	-0.07322216	0.31350708	0.999994278	0.000391006	0.001467705	-0.003019333	2.958321571	-1.830554008	7.837677002	0.019550361	0.073385378	-0.150966932	-0.102783203	-0.461425781	-0.937255859	898.76	-11.33342642	-23.91473627	73.10441209	-78
39217	0	0.118225098	-0.073791504	0.309875488	0.999997139	-0.000476837	0.000447273	-0.001857758	2.955627441	-1.844787598	7.746887207	-0.023841873	0.022363677	-0.092887938	-0.097900391	-0.463623047	-0.931396484	898.76	-11.29588557	-23.91601568	72.85174126	-78
39218	0	0.163944244	-0.084990501	0.349552155	0.999998093	0.001425743	0.000304222	-0.000904083	4.09860611	-2.124762535	8.738803864	0.07128719	0.015211113	-0.045204185	-0.095458984	-0.463867188	-0.937255859	898.8	-11.08995163	-23.91158823	72.71550067	-79
39219	0	0.172546387	-0.062805176	0.360351563	0.999995232	0.002456665	0.001130104	-0.000862122	4.313659668	-1.570129395	9.008789063	0.122833417	0.056505279	-0.043106137	-0.093017578	-0.468261719	-0.934326172	898.76	-10.75956801	-23.81295983	72.56565985	-79
39220	0	0.153259277	-0.058222771	0.369839668	0.999998093	-0.000682831	-0.001078606	-0.000788689	3.831481934	-1.455569267	9.245991707	-0.034141553	-0.053930303	-0.039434448	-0.090576172	-0.472900391	-0.934082031	898.76	-10.81281024	-23.96021131	72.47599937	-78
39221	0	0.16015625	-0.082214355	0.375488281	0.999997139	-0.001308441	-0.001925468	-0.000205994	4.00390625	-2.055358887	9.387207031	-0.065422118	-0.09627351	-0.010299692	-0.093017578	-0.468261719	-0.928466797	898.7	-10.97550119	-24.18948771	72.47938001	-79
39222	0	0.161067963	-0.080636024	0.354395866	0.999999046	0.0001297	-0.00022316	0.000159264	4.026699066	-2.015900612	8.85989666	0.006484985	-0.01115799	0.007963181	-0.095458984	-0.468261719	-0.931152344	898.76	-10.97585182	-24.21889998	72.48871431	-78
39223	0	0.161132813	-0.073120117	0.349243164	0.999998093	0.001782417	-0.000427246	1.52588E-05	4.028320313	-1.82800293	8.731079102	0.089120915	-0.021362317	0.00076294	-0.095458984	-0.468261719	-0.931152344	898.84	-10.78166322	-24.27417907	72.48234667	-78
39224	0	0.166749001	-0.063840866	0.36178112	0.999999046	0.001286507	-0.000362396	3.8147E-05	4.168725014	-1.596021652	9.044528008	0.064325352	-0.018119817	0.001907349	-0.100097656	-0.472412109	-0.930664063	898.84	-10.64433478	-24.32146839	72.48199317	-78
39225	0	0.163208008	-0.067871094	0.362792969	0.999999046	-7.62939E-05	-0.000212669	-3.8147E-06	4.080200195	-1.696777344	9.069824219	-0.003814697	-0.010633469	-0.000190735	-0.097412109	-0.474853516	-0.933349609	898.84	-10.65943946	-24.35236722	72.46995267	-78
39226	0	0.160674095	-0.068351746	0.355145454	0.999999046	0.000278473	-0.000295639	0.000296593	4.016852379	-1.70879364	8.87863636	0.013923646	-0.014781953	0.014829636	-0.097412109	-0.474853516	-0.930664063	898.8	-10.64995596	-24.38585978	72.49710779	-78
39227	0	0.161437988	-0.065490723	0.354370117	0.999999046	-0.000102997	-0.000395775	0.000148773	4.035949707	-1.637268066	8.85925293	-0.005149841	-0.019788743	0.00743866	-0.09765625	-0.474609375	-0.924804688	898.88	-10.67742168	-24.43343302	72.51026856	-78
39228	0	0.162675858	-0.069885254	0.356606483	0.999999046	-0.000214577	-0.000255585	-0.000331879	4.066896439	-1.747131348	8.915162086	-0.010728836	-0.012779236	-0.016593934	-0.09765625	-0.474853516	-0.927734375	898.84	-10.69174398	-24.47508891	72.45993332	-78
39229	0	0.163208008	-0.07220459	0.35723877	0.999999046	0.000125885	-0.000174522	-0.000110626	4.080200195	-1.805114746	8.930969238	0.006294251	-0.00872612	-0.005531311	-0.09765625	-0.474853516	-0.927734375	898.76	-10.6777118	-24.50257773	72.4349644	-78
39230	0	0.161149025	-0.067502975	0.351888657	0.999999046	0.000202179	-0.000411987	8.39233E-05	4.028725624	-1.687574387	8.797216415	0.010108948	-0.020599366	0.004196167	-0.102294922	-0.474609375	-0.930419922	898.76	-10.66713574	-24.55236851	72.4425168	-78
39231	0	0.16003418	-0.063964844	0.357116699	0.999999046	-0.00062561	-0.000658989	-0.000217438	4.000854492	-1.599121094	8.92791748	-0.031280522	-0.032949452	-0.010871889	-0.099853516	-0.476806641	-0.930175781	898.82	-10.73801079	-24.63591716	72.41673848	-78
39232	0	0.158642769	-0.075998306	0.354676247	0.999999046	-0.000311852	-0.000841141	2.57492E-05	3.966069221	-1.899957657	8.866906166	-0.015592577	-0.042057043	0.00128746	-0.102294922	-0.472412109	-0.927734375	898.8	-10.7876646	-24.73424579	72.42602192	-78
39233	0	0.166809082	-0.0703125	0.357543945	0.999999046	0.000411987	-0.000811577	0.000404358	4.170227051	-1.7578125	8.938598633	0.020599369	-0.040578849	0.020217899	-0.104492188	-0.474609375	-0.933105469	898.8	-10.77378929	-24.82090213	72.48038466	-78
39234	0	0.161167145	-0.063194275	0.353183746	0.999999046	0.000135422	-0.000837326	7.62939E-06	4.029178619	-1.579856873	8.829593658	0.006771088	-0.041866308	0.00038147	-0.104736328	-0.474609375	-0.930175781	898.8	-10.77091691	-24.91857327	72.48585367	-79
39235	0	0.16973877	-0.07220459	0.358825684	0.999999046	-5.34058E-05	-0.000979424	-0.00018692	4.243469238	-1.805114746	8.97064209	-0.002670289	-0.048971184	-0.00934601	-0.107177734	-0.472167969	-0.930175781	898.8	-10.7810236	-25.03623655	72.47051193	-78
39236	0	0.16795826	-0.068823814	0.355376244	0.999999046	0.000275612	-0.000534058	-8.4877E-05	4.19895649	-1.72059536	8.88440609	0.013780595	-0.026702882	-0.004243851	-0.104736328	-0.472412109	-0.933349609	898.78	-10.75427229	-25.10137315	72.45200079	-78
39237	0	0.168701172	-0.067382813	0.356567383	0.999999046	0.000160217	-0.000342369	-0.000255585	4.217529297	-1.684570313	8.91418457	0.008010865	-0.017118455	-0.012779236	-0.109375	-0.474365234	-0.929931641	898.82	-10.72962465	-25.1483696	72.41528018	-78
39238	0	0.165622711	-0.068649292	0.355620384	0.999999046	-6.10352E-05	-0.000341415	-0.000106812	4.14056778	-1.7162323	8.890509605	-0.003051758	-0.017070771	-0.005340576	-0.109375	-0.4765625	-0.9296875	898.88	-10.73810563	-25.19173787	72.39793325	-78
39239	0	0.167297363	-0.067260742	0.354797363	0.999999046	0.00012207	-0.000231743	3.05176E-05	4.182434082	-1.681518555	8.869934082	0.006103516	-0.011587143	0.001525879	-0.109375	-0.472167969	-0.930175781	898.76	-10.73165913	-25.21957606	72.39200372	-78
39240	0	0.166114807	-0.067246437	0.35333252	0.999999046	-0.000210762	-8.01086E-05	-3.8147E-06	4.152870178	-1.681160927	8.833312988	-0.010538101	-0.004005432	-0.000190735	-0.109130859	-0.4765625	-0.932617188	898.82	-10.75990138	-25.23080134	72.37953161	-78
39241	0	0.165893555	-0.068054199	0.357421875	0.999999046	-0.000461578	-0.000197411	1.90735E-05	4.147338867	-1.70135498	8.935546875	-0.023078919	-0.00987053	0.000953674	-0.106933594	-0.474365234	-0.927246094	898.82	-10.81918158	-25.254371	72.3718642	-78
39242	0	0.167007446	-0.071013451	0.355153084	0.999999046	-4.76837E-05	-0.000200272	1.43051E-05	4.175186157	-1.775336266	8.878827095	-0.002384186	-0.01001358	0.000715256	-0.109375	-0.4765625	-0.9296875	898.84	-10.8308682	-25.27808266	72.36655239	-78
39243	0	0.168334961	-0.067932129	0.353393555	0.999999046	0.000297546	-7.15256E-05	0.000156403	4.208374023	-1.698303223	8.834838867	0.01487732	-0.003576279	0.00782013	-0.109375	-0.474365234	-0.927001953	898.84	-10.80914624	-25.28407061	72.37539162	-78
39244	0	0.166960716	-0.066737175	0.353164673	0.999999046	2.38419E-05	0.000125885	0.000151634	4.174017906	-1.668429375	8.829116821	0.001192093	0.006294251	0.007581711	-0.109375	-0.474365234	-0.927001953	898.78	-10.8163812	-25.26771667	72.37924082	-78
39245	0	0.167297363	-0.070800781	0.356140137	0.999999046	2.67029E-05	9.63211E-05	-3.05176E-05	4.182434082	-1.770019531	8.903503418	0.001335144	0.004816055	-0.001525879	-0.109375	-0.474365234	-0.924316406	898.76	-10.813952	-25.25832928	72.36288065	-78
39246	0	0.163876534	-0.067476273	0.353183746	0.999999046	0.000272751	7.62939E-05	0.000179291	4.096913338	-1.686906815	8.829593658	0.013637543	0.003814697	0.008964539	-0.109375	-0.4765625	-0.927001953	898.76	-10.79456686	-25.24633965	72.37279184	-78
39247	0	0.165710449	-0.067016602	0.353759766	0.999999046	-3.8147E-06	-0.000323296	0.000114441	4.14276123	-1.675415039	8.843994141	-0.000190735	-0.01616478	0.005722046	-0.109375	-0.474365234	-0.929931641	898.76	-10.80736042	-25.28045904	72.3807964	-78
39248	0	0.167510033	-0.069561005	0.353833199	0.999999046	0.000151634	-0.000238419	3.33786E-05	4.187750816	-1.739025116	8.845829964	0.007581711	-0.011920929	0.00166893	-0.109375	-0.474365234	-0.927001953	898.76	-10.79718518	-25.30656968	72.37760515	-77
39249	0	0.168334961	-0.067626953	0.356018066	0.999999046	0.000255585	-3.71933E-05	1.14441E-05	4.208374023	-1.690673828	8.90045166	0.012779236	-0.001859665	0.000572205	-0.109375	-0.4765625	-0.924072266	898.8	-10.771767	-25.31030067	72.36931405	-78
39250	0	0.166162491	-0.067755699	0.353964806	0.999999046	0.000196457	-7.43866E-05	-4.57764E-05	4.154062271	-1.693892479	8.84912014	0.009822846	-0.00371933	-0.002288818	-0.109130859	-0.478759766	-0.926757813	898.76	-10.75037752	-25.31918927	72.35417326	-78
39251	0	0.164916992	-0.066467285	0.355102539	0.999999046	0.000137329	-0.00014019	3.05176E-05	4.122924805	-1.661682129	8.877563477	0.006866455	-0.007009506	0.001525879	-0.109130859	-0.478759766	-0.932373047	898.7	-10.74034581	-25.33352811	72.34694972	-77
39252	0	0.166843414	-0.068516731	0.355867386	0.999999046	-9.05991E-05	-0.00019455	0.000114441	4.171085358	-1.712918282	8.896684647	-0.004529953	-0.009727478	0.005722046	-0.111572266	-0.4765625	-0.9296875	898.8	-10.7614183	-25.35193542	72.35445874	-78
39253	0	0.167785645	-0.068603516	0.353027344	0.999999046	0.000377655	-0.000483513	0.00019455	4.194641113	-1.715087891	8.825683594	0.018882753	-0.024175646	0.009727479	-0.111572266	-0.4765625	-0.9296875	898.78	-10.73604187	-25.40100702	72.377088	-78
39254	0	0.167921066	-0.067118645	0.35657692	0.999999046	0.000162125	-0.000455856	-1.90735E-05	4.198026657	-1.677966118	8.914422989	0.008106232	-0.022792817	-0.000953674	-0.111572266	-0.4765625	-0.9296875	898.76	-10.72355256	-25.45129885	72.37134969	-78
39255	0	0.167358398	-0.069030762	0.352783203	0.999999046	0.000320435	-0.000132561	-2.67029E-05	4.183959961	-1.725769043	8.819580078	0.016021729	-0.006628037	-0.001335144	-0.114013672	-0.476318359	-0.929443359	898.78	-10.68925935	-25.46515713	72.35964636	-78
39256	0	0.167699814	-0.066905022	0.351987839	0.999999046	0.000508308	-5.34058E-05	0.00014782	4.192495346	-1.672625542	8.799695969	0.025415422	-0.002670288	0.007390976	-0.111572266	-0.478759766	-0.929443359	898.8	-10.64193114	-25.46624116	72.36533137	-78
39257	0	0.166687012	-0.064880371	0.356445313	0.999999046	0.000366211	-0.000117302	8.01086E-05	4.167175293	-1.622009277	8.911132813	0.018310547	-0.005865097	0.004005432	-0.111572266	-0.478759766	-0.923828125	898.8	-10.60769278	-25.47567676	72.36623303	-78
39258	0	0.167797089	-0.067150116	0.35492897	0.999999046	-4.3869E-05	9.53674E-06	-1.14441E-05	4.194927216	-1.678752899	8.873224258	-0.002193451	0.000476837	-0.000572205	-0.111572266	-0.478759766	-0.926513672	898.76	-10.61421385	-25.4725542	72.35175639	-78
39259	0	0.16583252	-0.067016602	0.355407715	0.999999046	0.000179291	-0.000102043	7.62939E-05	4.145812988	-1.675415039	8.885192871	0.008964539	-0.005102158	0.003814697	-0.111572266	-0.480957031	-0.923583984	898.94	-10.60093203	-25.47985125	72.35330301	-78
39260	0	0.167421341	-0.064352036	0.35460186	0.999999046	-0.000121117	-2.67029E-05	9.91821E-05	4.185533524	-1.608800888	8.865046501	-0.006055832	-0.001335144	0.004959106	-0.109130859	-0.480957031	-0.926513672	898.8	-10.62235889	-25.4779862	72.35149556	-78
39261	0	0.168823242	-0.068603516	0.35546875	0.999999046	7.24792E-05	-8.67844E-05	8.39233E-05	4.220581055	-1.715087891	8.88671875	0.003623962	-0.004339218	0.004196167	-0.111572266	-0.478759766	-0.926513672	898.72	-10.62141863	-25.48305157	72.35101695	-77
39262	0	0.168507576	-0.067848206	0.356425285	0.999999046	0.000501633	-5.91278E-05	3.71933E-05	4.2126894	-1.696205139	8.910632133	0.025081636	-0.002956391	0.001859665	-0.111572266	-0.480712891	-0.920654297	898.82	-10.56849189	-25.48580172	72.34759695	-77
39263	0	0.166442871	-0.063476563	0.355224609	0.999999046	0.000240326	-0.000117302	2.28882E-05	4.161071777	-1.586914063	8.880615234	0.012016297	-0.005865097	0.001144409	-0.111572266	-0.480712891	-0.917724609	898.8	-10.54509253	-25.4951702	72.34471711	-78
39264	0	0.167926788	-0.066305161	0.355093956	0.999999046	-9.05991E-05	-7.24792E-05	5.72205E-05	4.198169708	-1.657629013	8.8773489	-0.004529953	-0.003623962	0.002861023	-0.111572266	-0.480957031	-0.923583984	898.72	-10.56095425	-25.49859579	72.34225333	-77
39265	0	0.167602539	-0.067199707	0.355285645	0.999999046	0.000118256	1.23978E-05	3.43323E-05	4.190063477	-1.679992676	8.882141113	0.005912781	0.000619888	0.001716614	-0.111328125	-0.483154297	-0.926269531	898.72	-10.55078991	-25.49274914	72.33464765	-78
39266	0	0.166368484	-0.066029549	0.35414505	0.999999046	0.000177383	-0.000217438	6.10352E-05	4.159212112	-1.650738716	8.853626251	0.008869171	-0.010871887	0.003051758	-0.111572266	-0.480957031	-0.926513672	898.8	-10.53752249	-25.51202184	72.33394714	-78
39267	0	0.167785645	-0.066589355	0.355957031	0.999999046	0.0001297	-0.000174522	3.8147E-06	4.194641113	-1.664733887	8.898925781	0.006484985	-0.00872612	0.000190735	-0.114013672	-0.482910156	-0.917480469	898.76	-10.52616526	-25.52747195	72.33400741	-78
39268	0	0.168335915	-0.065462112	0.352801323	0.999999046	8.10623E-05	-8.7738E-05	6.38962E-05	4.208397865	-1.636552811	8.820033073	0.004053116	-0.004386902	0.003194809	-0.113769531	-0.482910156	-0.926025391	898.72	-10.5226786	-25.53179325	72.33434792	-78
39269	0	0.169006348	-0.066162109	0.355163574	0.999999046	6.48499E-05	-7.15256E-05	1.90735E-05	4.225158691	-1.654052734	8.879089355	0.003242493	-0.003576279	0.000953674	-0.111328125	-0.483154297	-0.926269531	898.8	-10.51842532	-25.53511098	72.32540632	-78
39270	0	0.166796684	-0.0647192	0.353377342	0.999999046	0.00025177	0.000123978	9.44138E-05	4.169917107	-1.617980003	8.834433556	0.012588501	0.006198883	0.004720688	-0.111572266	-0.483154297	-0.923339844	898.8	-10.49474539	-25.5146573	72.32334969	-78
39271	0	0.169433594	-0.067565918	0.358886719	0.999999046	0.000110626	-1.81198E-05	-4.19617E-05	4.235839844	-1.689147949	8.972167969	0.005531311	-0.000905991	-0.002098084	-0.111572266	-0.480712891	-0.920654297	898.72	-10.4813256	-25.51289276	72.30761227	-78
39272	0	0.166033745	-0.063751221	0.353767395	0.999999046	0.000134468	-0.000164032	3.43323E-05	4.15084362	-1.593780518	8.844184875	0.006723404	-0.008201599	0.001716614	-0.113769531	-0.482910156	-0.923339844	898.76	-10.47057671	-25.52578695	72.30721353	-78
39273	0	0.167602539	-0.064453125	0.353637695	0.999999046	-3.05176E-05	-0.000353813	-2.67029E-05	4.190063477	-1.611328125	8.840942383	-0.001525879	-0.017690659	-0.001335144	-0.111572266	-0.482910156	-0.920410156	898.82	-10.47723368	-25.56121732	72.30154151	-78
39274	0	0.170116425	-0.066968918	0.355343819	0.999999046	0.00015831	7.62939E-06	-5.43594E-05	4.252910614	-1.674222946	8.883595467	0.007915497	0.00038147	-0.002717972	-0.113769531	-0.482910156	-0.923339844	898.84	-10.45718007	-25.55643366	72.28559264	-77
39275	0	0.167114258	-0.064575195	0.354797363	0.999999046	0.000343323	-6.00815E-05	4.95911E-05	4.177856445	-1.614379883	8.869934082	0.017166138	-0.003004074	0.002479553	-0.111572266	-0.482910156	-0.920410156	898.76	-10.4221	-25.5569419	72.28220734	-77
39276	0	0.166967392	-0.061784744	0.355002403	0.999999046	-9.63211E-05	-0.00019455	0.000125885	4.174184799	-1.544618607	8.875060081	-0.004816055	-0.009727478	0.006294251	-0.113525391	-0.487304688	-0.922851563	898.78	-10.44260425	-25.57085345	72.29530352	-77
39277	0	0.168334961	-0.064331055	0.355285645	0.999999046	-0.000518799	-9.05991E-05	4.19617E-05	4.208374023	-1.608276367	8.882141113	-0.025939943	-0.004529953	0.002098084	-0.111572266	-0.483154297	-0.923339844	898.72	-10.50586147	-25.57466714	72.29067903	-77
39278	0	0.169736862	-0.067765236	0.354512215	0.999999046	-0.00021553	-9.15527E-05	2.86102E-06	4.243421555	-1.694130898	8.862805367	-0.01077652	-0.004577637	0.000143051	-0.111572266	-0.482910156	-0.920410156	898.72	-10.53234337	-25.57935267	72.28316708	-78
39279	0	0.168518066	-0.06640625	0.352966309	0.999999046	0.00030899	-0.00014019	3.43323E-05	4.21295166	-1.66015625	8.824157715	0.015449524	-0.007009506	0.001716614	-0.113769531	-0.485107422	-0.920166016	898.66	-10.50090638	-25.58878874	72.28468337	-77
39280	0	0.168064117	-0.066565514	0.355095863	0.999999046	2.19345E-05	2.47955E-05	-0.00017643	4.201602936	-1.66413784	8.877396584	0.001096725	0.001239777	-0.008821487	-0.111328125	-0.483154297	-0.926269531	898.72	-10.4893411	-25.5838929	72.24838561	-77
39281	0	0.169250488	-0.067321777	0.356018066	0.999999046	0.000572205	-0.000124931	-4.19617E-05	4.231262207	-1.683044434	8.90045166	0.028610231	-0.006246567	-0.002098084	-0.111572266	-0.483154297	-0.923339844	898.76	-10.42350442	-25.59295129	72.23344711	-77
39282	0	0.168124199	-0.064156532	0.354278564	0.999999046	0.000772476	0.000127792	-0.000138283	4.203104973	-1.603913307	8.856964111	0.038623814	0.006389619	-0.00691414	-0.111328125	-0.485351563	-0.923095703	898.72	-10.32691872	-25.57539287	72.20139066	-77
39283	0	0.167358398	-0.06262207	0.351196289	0.999999046	0.000259399	5.43594E-05	-3.05176E-05	4.183959961	-1.565551758	8.779907227	0.012969971	0.002717972	-0.001525879	-0.113525391	-0.487304688	-0.92578125	898.72	-10.29556352	-25.56381639	72.18739942	-78
39284	0	0.167201996	-0.064443588	0.352955818	0.999999046	0.000105858	-2.28882E-05	2.28882E-05	4.180049896	-1.611089706	8.823895454	0.005292892	-0.001144409	0.001144409	-0.111328125	-0.487548828	-0.920166016	898.76	-10.28542497	-25.55974621	72.18208382	-77
39285	0	0.168395996	-0.063964844	0.355407715	0.999999046	-6.86646E-05	0.000103951	2.67029E-05	4.209899902	-1.599121094	8.885192871	-0.003433228	0.005197525	0.001335144	-0.111328125	-0.487548828	-0.926025391	898.84	-10.29418487	-25.54119909	72.17164789	-78
39286	0	0.165877342	-0.063229561	0.354394913	0.999999046	-0.000207901	2.09808E-05	5.62668E-05	4.146933556	-1.580739021	8.859872818	-0.01039505	0.001049042	0.002813339	-0.113769531	-0.485107422	-0.923095703	898.72	-10.32120957	-25.53122312	72.17100072	-78
39287	0	0.168579102	-0.065734863	0.354614258	0.999999046	-0.000114441	-0.000159264	9.53674E-05	4.214477539	-1.643371582	8.865356445	-0.005722046	-0.007963181	0.004768372	-0.108886719	-0.487548828	-0.923095703	898.76	-10.34142876	-25.54070137	72.17387833	-78
39288	0	0.169228554	-0.066153526	0.353751183	0.999999046	-6.58035E-05	-0.000110626	2.57492E-05	4.230713844	-1.653838158	8.843779564	-0.003290176	-0.005531311	0.00128746	-0.111328125	-0.485351563	-0.923095703	898.78	-10.35190514	-25.54611059	72.16917578	-78
39289	0	0.167480469	-0.06463623	0.353759766	0.999999046	0.000156403	-6.38962E-05	0.000144958	4.187011719	-1.615905762	8.843994141	0.007820129	-0.003194809	0.007247925	-0.111328125	-0.485351563	-0.923095703	898.76	-10.34284793	-25.54370557	72.17797733	-78
39290	0	0.167201996	-0.063659668	0.352537155	0.999999046	6.48499E-05	3.05176E-05	9.44138E-05	4.180049896	-1.591491699	8.813428879	0.003242493	0.001525879	0.004720688	-0.111328125	-0.485351563	-0.920410156	898.7	-10.34055941	-25.53162603	72.18003485	-77
39291	0	0.167480469	-0.063903809	0.354370117	0.999999046	-0.00019455	-6.00815E-05	0.000118256	4.187011719	-1.597595215	8.85925293	-0.009727478	-0.003004074	0.005912781	-0.113769531	-0.485107422	-0.920166016	898.76	-10.37009784	-25.52917433	72.19098237	-78
39292	0	0.168849945	-0.066279411	0.354933739	0.999999046	-3.91006E-05	-7.43866E-05	6.00815E-05	4.221248627	-1.656985283	8.873343468	-0.001955032	-0.00371933	0.003004074	-0.111328125	-0.487548828	-0.920166016	898.78	-10.37887529	-25.52948398	72.19311214	-78
39293	0	0.167358398	-0.065246582	0.354125977	0.999999046	0.000125885	-4.48227E-05	0.000141144	4.183959961	-1.631164551	8.853149414	0.006294251	-0.002241135	0.00705719	-0.111328125	-0.487548828	-0.920166016	898.8	-10.37280912	-25.5246934	72.20441165	-78
39294	0	0.167983055	-0.063800812	0.355163574	0.999999046	-0.000101089	-0.000297546	9.53674E-05	4.199576378	-1.595020294	8.879089355	-0.005054474	-0.01487732	0.004768372	-0.111328125	-0.487548828	-0.920166016	898.76	-10.39268473	-25.54925416	72.21522689	-78
39295	0	0.16973877	-0.067504883	0.355529785	0.999999046	0	-0.00020504	2.28882E-05	4.243469238	-1.68762207	8.888244629	0	-0.010251999	0.001144409	-0.113769531	-0.485107422	-0.920166016	898.78	-10.39626203	-25.56485738	72.21650199	-78
39296	0	0.168354988	-0.06507206	0.353934288	0.999999046	0.000370979	-4.00543E-05	1.43051E-05	4.208874702	-1.626801491	8.848357201	0.018548966	-0.002002716	0.000715256	-0.111328125	-0.483154297	-0.926269531	898.72	-10.35520635	-25.56198842	72.2037315	-78
39297	0	0.167175293	-0.064819336	0.352539063	0.999999046	0.000274658	5.81741E-05	-2.28882E-05	4.179382324	-1.620483398	8.813476563	0.01373291	0.002908707	-0.001144409	-0.111328125	-0.485351563	-0.923095703	898.7	-10.32221331	-25.54873645	72.18764909	-79
39298	0	0.168113708	-0.064434052	0.355156898	0.999999046	0.000146866	0.000116348	-3.52859E-05	4.202842712	-1.610851288	8.878922462	0.007343292	0.005817413	-0.001764297	-0.111328125	-0.485351563	-0.923095703	898.7	-10.30259017	-25.52909807	72.16917348	-79
39299	0	0.167236328	-0.062805176	0.353820801	0.999999046	0.000270844	-2.57492E-05	-5.72205E-05	4.180908203	-1.570129395	8.84552002	0.013542175	-0.00128746	-0.002861023	-0.108886719	-0.487548828	-0.920166016	898.8	-10.2688638	-25.5258506	72.15065263	-78
39300	0	0.167567253	-0.064181328	0.354334831	0.999999046	-5.43594E-05	7.82013E-05	-3.52859E-05	4.189181328	-1.604533195	8.858370781	-0.002717972	0.003910065	-0.001764297	-0.111328125	-0.487548828	-0.923095703	898.8	-10.27254904	-25.51035934	72.13518389	-78
39301	0	0.166748047	-0.063354492	0.354064941	0.999999046	-0.000133514	0.000210762	9.15527E-05	4.168701172	-1.583862305	8.851623535	-0.00667572	0.010538101	0.004577637	-0.111083984	-0.489746094	-0.922851563	898.78	-10.29076951	-25.47723763	72.13494309	-78
39302	0	0.167441368	-0.063053131	0.355216026	0.999999046	-0.000589371	0.000419617	0.000235558	4.186034203	-1.576328278	8.880400658	-0.029468539	0.020980837	0.011777879	-0.111328125	-0.487548828	-0.926025391	898.76	-10.36679694	-25.41754245	72.14707003	-78
39303	0	0.167236328	-0.064880371	0.354003906	0.999999046	-0.000686646	0.000348091	0.000244141	4.180908203	-1.622009277	8.850097656	-0.034332279	0.017404558	0.012207033	-0.108886719	-0.485351563	-0.923339844	898.88	-10.45506757	-25.36567703	72.16045232	-78
39304	0	0.167504311	-0.067162514	0.357201576	0.999999046	-0.000252724	1.33514E-05	0.000109673	4.187607765	-1.679062843	8.930039406	-0.012636185	0.000667572	0.005483627	-0.109130859	-0.483154297	-0.923583984	898.88	-10.48975208	-25.35423355	72.16409481	-78
39305	0	0.167907715	-0.065795898	0.354919434	0.999999046	-7.62939E-05	-7.15256E-05	7.62939E-05	4.197692871	-1.644897461	8.87298584	-0.003814697	-0.003576279	0.003814697	-0.109130859	-0.483154297	-0.926269531	898.7	-10.50325724	-25.35304304	72.16408229	-78
39306	0	0.166116714	-0.066486359	0.353237152	0.999999046	0.000268936	-0.000139236	0.000166893	4.152917862	-1.662158966	8.830928802	0.013446808	-0.006961823	0.00834465	-0.111328125	-0.485351563	-0.920410156	898.84	-10.48274696	-25.35753826	72.18468704	-78
39307	0	0.167358398	-0.063232422	0.354248047	0.999999046	-0.000171661	-3.71933E-05	3.43323E-05	4.183959961	-1.580810547	8.856201172	-0.008583069	-0.001859665	0.001716614	-0.111328125	-0.485351563	-0.920410156	898.8	-10.50448864	-25.35329659	72.18672133	-78
39308	0	0.167380333	-0.068248749	0.353661537	0.999999046	-5.43594E-05	2.67029E-05	-3.43323E-05	4.184508324	-1.706218719	8.841538429	-0.002717972	0.001335144	-0.001716614	-0.111572266	-0.483154297	-0.923339844	898.8	-10.50862017	-25.34328062	72.17618936	-78
39309	0	0.166992188	-0.065795898	0.354431152	0.999999046	0.000198364	-3.33786E-05	1.90735E-05	4.174804688	-1.644897461	8.860778809	0.009918213	-0.00166893	0.000953674	-0.111328125	-0.485351563	-0.926025391	898.72	-10.48722006	-25.33888676	72.17303347	-78
39310	0	0.165488243	-0.06541729	0.355971336	0.999999046	-6.67572E-05	-1.71661E-05	-3.43323E-05	4.137206078	-1.635432243	8.899283409	-0.00333786	-0.000858307	-0.001716614	-0.109130859	-0.483154297	-0.926269531	898.88	-10.49314283	-25.33365066	72.15804294	-79
39311	0	0.166015625	-0.067382813	0.355102539	0.999999046	8.7738E-05	3.91006E-05	-9.53674E-05	4.150390625	-1.684570313	8.877563477	0.004386902	0.001955032	-0.004768372	-0.109130859	-0.483154297	-0.923583984	898.8	-10.47762567	-25.32325807	72.13628709	-79
39312	0	0.167160034	-0.064603806	0.352807045	0.999999046	0.000430107	6.48499E-05	0.000255585	4.179000854	-1.615095139	8.820176125	0.021505357	0.003242493	0.012779236	-0.111328125	-0.485351563	-0.923095703	898.76	-10.44128105	-25.3026845	72.16238327	-79
39313	0	0.167602539	-0.064147949	0.354370117	0.999999046	5.34058E-05	-2.19345E-05	3.05176E-05	4.190063477	-1.60369873	8.85925293	0.002670288	-0.001096725	0.001525879	-0.108886719	-0.485351563	-0.923339844	898.76	-10.43687577	-25.29659578	72.15842111	-79
39314	0	0.166576385	-0.06692791	0.356749535	0.999999046	0.000177383	-7.43866E-05	0.000105858	4.164409637	-1.673197746	8.918738365	0.008869171	-0.00371933	0.005292892	-0.109130859	-0.485351563	-0.917480469	898.76	-10.42284209	-25.29477263	72.1686952	-79
39315	0	0.16619873	-0.064331055	0.354125977	0.999999046	-1.90735E-05	-9.82285E-05	0.000141144	4.154968262	-1.608276367	8.853149414	-0.000953674	-0.004911423	0.00705719	-0.109130859	-0.483154297	-0.923583984	898.76	-10.43336588	-25.29487356	72.17823589	-79
39316	0	0.167408943	-0.067077637	0.35341835	0.999999046	2.57492E-05	-0.000116348	2.19345E-05	4.185223579	-1.676940918	8.835458755	0.00128746	-0.005817413	0.001096725	-0.109130859	-0.485351563	-0.920410156	898.78	-10.43267727	-25.29951937	72.17694114	-79
39317	0	0.167114258	-0.063415527	0.354919434	0.999999046	9.15527E-05	-7.15256E-05	9.53674E-05	4.177856445	-1.585388184	8.87298584	0.004577637	-0.003576279	0.004768372	-0.111083984	-0.485351563	-0.931884766	898.76	-10.42779175	-25.29758641	72.17940351	-78
39318	0	0.165260315	-0.063199997	0.353014946	0.999999046	-0.000553131	-9.91821E-05	0.000118256	4.131507874	-1.579999924	8.82537365	-0.027656557	-0.004959107	0.005912781	-0.111328125	-0.487548828	-0.926025391	898.84	-10.49816333	-25.29824482	72.19206424	-78
39319	0	0.166503906	-0.067504883	0.352783203	0.999999046	-0.00043869	-0.000159264	9.15527E-05	4.162597656	-1.68762207	8.819580078	-0.02193451	-0.007963181	0.004577637	-0.111328125	-0.485351563	-0.926025391	898.84	-10.55469979	-25.30622149	72.20167897	-78
39320	0	0.170816422	-0.068032265	0.356575012	0.999999046	0.0001688	6.29425E-05	0.000282288	4.270410538	-1.700806618	8.914375305	0.008440018	0.003147125	0.01411438	-0.111572266	-0.483154297	-0.923339844	898.7	-10.54964561	-25.28527134	72.23007994	-78
39321	0	0.166992188	-0.063415527	0.354675293	0.999999046	-1.90735E-05	0.000123024	-3.43323E-05	4.174804688	-1.585388184	8.866882324	-0.000953674	0.006151199	-0.001716614	-0.111328125	-0.483154297	-0.929199219	898.76	-10.54850845	-25.26419558	72.21422014	-78
39322	0	0.167580605	-0.06793499	0.356239319	0.999999046	-7.43866E-05	-6.67572E-05	5.62668E-05	4.189515114	-1.698374748	8.905982971	-0.00371933	-0.00333786	0.002813339	-0.111572266	-0.480957031	-0.926513672	898.8	-10.56048403	-25.26258138	72.21469292	-78
39323	0	0.166381836	-0.065734863	0.354858398	0.999999046	9.53674E-05	1.23978E-05	0.000133514	4.159545898	-1.643371582	8.871459961	0.004768372	0.000619888	0.00667572	-0.109130859	-0.483154297	-0.926269531	898.76	-10.5562888	-25.25039496	72.22081593	-78
39324	0	0.167453766	-0.066688538	0.355179787	0.999999046	0.000166893	-3.62396E-05	2.28882E-05	4.186344147	-1.66721344	8.879494667	0.00834465	-0.001811981	0.001144409	-0.111572266	-0.482910156	-0.920410156	898.78	-10.53851667	-25.24602041	72.22167175	-78
39325	0	0.16595459	-0.066223145	0.352478027	0.999999046	0.00018692	-5.24521E-05	-6.86646E-05	4.148864746	-1.655578613	8.811950684	0.009346008	-0.002622604	-0.003433228	-0.109130859	-0.480957031	-0.923583984	898.8	-10.51376388	-25.24538932	72.20376938	-78
39326	0	0.167098999	-0.064970016	0.353277206	0.999999046	-0.000102997	-0.000162125	2.67029E-05	4.177474976	-1.624250412	8.831930161	-0.005149841	-0.008106232	0.001335144	-0.113769531	-0.482910156	-0.920410156	898.76	-10.52833968	-25.25516133	72.2114203	-78
39327	0	0.166687012	-0.065002441	0.353393555	0.999999046	-0.000190735	-2.95639E-05	0.000110626	4.167175293	-1.625061035	8.834838867	-0.009536743	-0.001478195	0.005531311	-0.111572266	-0.482910156	-0.920410156	898.76	-10.55606709	-25.24825679	72.22311646	-78
39328	0	0.167059898	-0.064991951	0.35372448	0.999999046	-0.000203133	-0.000101089	0.000182152	4.176497459	-1.624798775	8.843111992	-0.010156632	-0.005054474	0.00910759	-0.108886719	-0.485351563	-0.926269531	898.72	-10.58965611	-25.24793098	72.23915111	-78
39329	0	0.166564941	-0.064819336	0.353393555	0.999999046	-0.000564575	-7.9155E-05	0.000221252	4.164123535	-1.620483398	8.834838867	-0.028228762	-0.003957749	0.011062623	-0.109130859	-0.480957031	-0.926513672	898.76	-10.66643992	-25.2443065	72.25727052	-78
39330	0	0.167140007	-0.068832397	0.353349686	0.999999046	-0.000339508	3.24249E-05	0.000209808	4.178500175	-1.720809937	8.833742142	-0.016975403	0.001621246	0.010490418	-0.111328125	-0.483154297	-0.926269531	898.78	-10.71582254	-25.22836572	72.27779906	-79
39331	0	0.16607666	-0.067504883	0.353271484	0.999999046	0.000102997	-6.00815E-05	0.000106812	4.151916504	-1.68762207	8.831787109	0.005149841	-0.003004074	0.005340576	-0.111572266	-0.480712891	-0.920654297	898.78	-10.70997996	-25.22501707	72.28948379	-79
39332	0	0.167142868	-0.066552162	0.354606628	1	-2.47955E-05	-4.1008E-05	4.19617E-05	4.178571701	-1.663804054	8.86516571	-0.001239777	-0.0020504	0.002098083	-0.109130859	-0.478759766	-0.926757813	898.7	-10.71510495	-25.22091605	72.28319534	-79
39333	0	0.166503906	-0.067687988	0.352416992	0.999999046	0.000125885	-0.00014782	3.8147E-05	4.162597656	-1.692199707	8.810424805	0.006294251	-0.007390976	0.001907349	-0.111572266	-0.480957031	-0.923583984	898.76	-10.70387949	-25.22895124	72.28644178	-79
39334	0	0.167946815	-0.068588257	0.355435371	0.999999046	0.000524521	-0.000253677	-8.10623E-05	4.198670387	-1.714706421	8.885884285	0.026226045	-0.012683869	-0.004053116	-0.111572266	-0.480712891	-0.920654297	898.8	-10.64176528	-25.25145996	72.27752388	-79
39335	0	0.165344238	-0.06451416	0.354553223	0.999999046	0.000717163	-0.000323296	-8.7738E-05	4.133605957	-1.612854004	8.863830566	0.035858158	-0.016164781	-0.004386902	-0.111572266	-0.483154297	-0.923339844	898.76	-10.55776112	-25.28186695	72.26733283	-79
39336	0	0.1652174	-0.062392235	0.353375435	0.999999046	-0.000128746	-0.000297546	7.24792E-05	4.13043499	-1.55980587	8.834385872	-0.006437302	-0.01487732	0.003623962	-0.111328125	-0.483154297	-0.926269531	898.84	-10.57874633	-25.30594918	72.27358345	-79
39337	0	0.168334961	-0.069946289	0.354858398	0.999999046	7.24792E-05	-0.000330925	-0.000110626	4.208374023	-1.748657227	8.871459961	0.003623962	-0.01654625	-0.005531311	-0.111572266	-0.483154297	-0.923339844	898.8	-10.56744867	-25.33766408	72.25951305	-79
39338	0	0.169683456	-0.067904472	0.355182648	0.999999046	0.000846863	-0.000343323	-9.63211E-05	4.242086411	-1.697611809	8.879566193	0.042343146	-0.01716614	-0.004816056	-0.113769531	-0.482910156	-0.926025391	898.86	-10.46835484	-25.37053849	72.24678513	-79
39339	0	0.166748047	-0.062438965	0.354309082	0.999999046	0.000576019	-0.000266075	-2.28882E-05	4.168701172	-1.560974121	8.857727051	0.028800966	-0.013303758	-0.001144409	-0.113769531	-0.485107422	-0.920166016	898.8	-10.40325281	-25.39313426	72.24524152	-79
39340	0	0.167060852	-0.064283371	0.352645874	0.999999046	4.29153E-05	-0.000246048	0	4.176521301	-1.607084274	8.816146851	0.002145767	-0.012302399	0	-0.113525391	-0.487304688	-0.92578125	898.78	-10.40022502	-25.41299869	72.24305022	-79
39341	0	0.167907715	-0.063720703	0.354187012	0.999999046	-1.90735E-05	-0.000136375	4.95911E-05	4.197692871	-1.593017578	8.854675293	-0.000953674	-0.006818771	0.002479553	-0.115966797	-0.485107422	-0.922851563	898.76	-10.40580015	-25.41947933	72.24864893	-79
39342	0	0.167815208	-0.064483643	0.354504585	0.999999046	-0.000185013	-6.48499E-05	7.62939E-06	4.195380211	-1.612091064	8.862614632	-0.009250641	-0.003242493	0.00038147	-0.113769531	-0.485107422	-0.923095703	898.76	-10.4274001	-25.41875447	72.24389331	-79
39343	0	0.167663574	-0.065551758	0.354736328	0.999999046	-0.000209808	-6.77109E-05	5.34058E-05	4.191589355	-1.638793945	8.868408203	-0.010490418	-0.003385544	0.002670288	-0.113769531	-0.485107422	-0.923095703	898.8	-10.45433344	-25.41737485	72.24538524	-79
39344	0	0.167887688	-0.064986229	0.35334301	0.999999046	-0.000222206	-0.000337601	5.62668E-05	4.197192192	-1.624655724	8.833575249	-0.011110306	-0.016880036	0.002813339	-0.116210938	-0.485107422	-0.920166016	898.78	-10.48549879	-25.44636293	72.25913971	-79
39345	0	0.169250488	-0.066772461	0.354980469	0.999999046	-0.0001297	-0.00026989	-3.8147E-06	4.231262207	-1.669311523	8.874511719	-0.006484985	-0.013494492	-0.000190735	-0.116210938	-0.482910156	-0.923095703	898.7	-10.50223169	-25.46899722	72.2596911	-78
39346	0	0.168709755	-0.066802979	0.354383469	0.999999046	0.000127792	-0.000240326	-4.76837E-06	4.217743874	-1.670074463	8.859586716	0.006389618	-0.012016297	-0.000238419	-0.115966797	-0.485107422	-0.92578125	898.8	-10.48916848	-25.48832413	72.2582424	-79
39347	0	0.168945313	-0.065612793	0.354614258	0.999999046	0.000362396	-0.000418663	2.67029E-05	4.223632813	-1.640319824	8.865356445	0.018119813	-0.020933152	0.001335144	-0.113769531	-0.482910156	-0.920410156	898.72	-10.45266814	-25.52709704	72.26100727	-79
39348	0	0.169298172	-0.064146042	0.352199554	0.999999046	-2.57492E-05	-0.000354767	6.86646E-05	4.2324543	-1.603651047	8.804988861	-0.00128746	-0.017738343	0.003433228	-0.116210938	-0.485107422	-0.917236328	898.66	-10.46221743	-25.55786569	72.27479651	-79
39349	0	0.169555664	-0.066894531	0.353393555	0.999999046	0.000183105	-0.000288963	5.34058E-05	4.238891602	-1.672363281	8.834838867	0.009155274	-0.014448166	0.002670288	-0.118408203	-0.487304688	-0.922607422	898.72	-10.4464448	-25.58156675	72.2858857	-79
39350	0	0.170546532	-0.06696701	0.353441238	0.999999046	0.000356674	-0.000295639	-4.673E-05	4.263663292	-1.674175262	8.83603096	0.01783371	-0.014781952	-0.002336502	-0.118408203	-0.485107422	-0.922851563	898.8	-10.40552966	-25.60816356	72.28117929	-79
39351	0	0.167419434	-0.06237793	0.354370117	0.999999046	4.95911E-05	-0.000510216	-4.57764E-05	4.18548584	-1.559448242	8.85925293	0.002479553	-0.025510789	-0.002288818	-0.118408203	-0.485107422	-0.922851563	898.84	-10.40181578	-25.65883141	72.27997917	-79
39352	0	0.169372559	-0.063304901	0.35273838	0.999999046	-0.000220299	-0.000646591	-3.8147E-05	4.234313965	-1.582622528	8.818459511	-0.011014939	-0.032329562	-0.001907349	-0.118408203	-0.487304688	-0.925537109	898.78	-10.43072031	-25.72472587	72.28151587	-79
39353	0	0.171508789	-0.066223145	0.352172852	0.999999046	-0.000141144	-0.000548363	6.10352E-05	4.287719727	-1.655578613	8.804321289	-0.00705719	-0.027418138	0.003051758	-0.120849609	-0.484863281	-0.919921875	898.84	-10.45505257	-25.77757909	72.29804702	-79
39354	0	0.171215057	-0.065611839	0.351355553	0.999999046	0.000102997	-0.000364304	5.62668E-05	4.280376434	-1.640295982	8.783888817	0.005149841	-0.01821518	0.002813339	-0.120849609	-0.484863281	-0.922607422	898.7	-10.44935029	-25.80986265	72.30661543	-79
39355	0	0.171081543	-0.063415527	0.3515625	0.999999046	1.14441E-05	-0.000159264	3.8147E-05	4.277038574	-1.585388184	8.7890625	0.000572205	-0.007963181	0.001907349	-0.120605469	-0.487060547	-0.922607422	898.66	-10.45100724	-25.81947677	72.3092409	-79
39356	0	0.170701027	-0.064092636	0.35382843	0.999999046	-0.000393867	-0.000270844	1.90735E-05	4.267525673	-1.602315903	8.845710754	-0.019693375	-0.013542176	0.000953674	-0.120849609	-0.487060547	-0.919677734	898.64	-10.49912848	-25.84204688	72.31470691	-79
39357	0	0.170532227	-0.066711426	0.354187012	0.999999046	-0.000404358	-0.000365257	0.0001297	4.263305664	-1.667785645	8.854675293	-0.020217897	-0.018262864	0.006484986	-0.120849609	-0.482666016	-0.92578125	898.78	-10.55551807	-25.87288869	72.32806604	-79
39358	0	0.171627998	-0.066615105	0.353762627	0.999999046	-0.000188828	-0.000648499	3.71933E-05	4.290699959	-1.665377617	8.844065666	-0.009441376	-0.032424929	0.001859665	-0.120849609	-0.484863281	-0.925537109	898.72	-10.58510306	-25.93757215	72.33710911	-79
39359	0	0.17199707	-0.066162109	0.352172852	0.999999046	-0.000144958	-0.000422478	-4.57764E-05	4.299926758	-1.654052734	8.804321289	-0.007247925	-0.021123887	-0.002288818	-0.123046875	-0.484863281	-0.928222656	898.76	-10.60283408	-25.97857309	72.33178344	-79
39360	0	0.172177315	-0.066553116	0.349870682	0.999999046	-5.24521E-05	-0.000318527	1.04904E-05	4.304432869	-1.663827896	8.746767044	-0.002622604	-0.015926361	0.000524521	-0.125732422	-0.480224609	-0.919921875	898.7	-10.61204066	-26.00675404	72.33707747	-79
39361	0	0.172729492	-0.065368652	0.351501465	0.999999046	-0.000106812	-0.000163078	1.90735E-05	4.318237305	-1.634216309	8.787536621	-0.005340576	-0.008153915	0.000953674	-0.123291016	-0.482666016	-0.919921875	898.8	-10.62631658	-26.0173019	72.33749548	-79
39362	0	0.17253685	-0.066732407	0.351063728	0.999999046	-3.8147E-06	-0.000188828	9.05991E-05	4.313421249	-1.668310165	8.776593208	-0.000190735	-0.009441376	0.004529953	-0.125732422	-0.48046875	-0.922851563	898.72	-10.63303132	-26.0292847	72.347349	-79
39363	0	0.172607422	-0.066040039	0.351013184	0.999999046	4.95911E-05	-6.00815E-05	5.34058E-05	4.315185547	-1.651000977	8.77532959	0.002479553	-0.003004074	0.002670288	-0.123291016	-0.482666016	-0.925537109	898.72	-10.63025385	-26.0276015	72.34512105	-79
39364	0	0.172642708	-0.067000389	0.350692749	0.999999046	-1.62125E-05	5.14984E-05	-2.76566E-05	4.316067696	-1.675009727	8.767318726	-0.000810623	0.002574921	-0.001382828	-0.123291016	-0.482666016	-0.919921875	898.78	-10.62946724	-26.0151177	72.33473103	-79
39365	0	0.17199707	-0.067321777	0.353149414	0.999999046	0.000259399	6.58035E-05	5.34058E-05	4.299926758	-1.683044434	8.828735352	0.012969971	0.003290176	0.002670288	-0.125732422	-0.482666016	-0.922607422	898.72	-10.60145938	-25.99927962	72.33638286	-79
39366	0	0.171821594	-0.066973686	0.354792595	0.999999046	0.000183105	0.000123978	-8.4877E-05	4.295539856	-1.674342155	8.869814873	0.009155274	0.006198883	-0.004243851	-0.125732422	-0.482666016	-0.922607422	898.78	-10.57402964	-25.9797338	72.31972157	-79
39367	0	0.171508789	-0.0625	0.350952148	0.999999046	8.39233E-05	-5.24521E-05	3.8147E-06	4.287719727	-1.5625	8.773803711	0.004196167	-0.002622604	0.000190735	-0.120849609	-0.482666016	-0.919921875	898.72	-10.56447167	-25.97822239	72.31145466	-79
39368	0	0.171483994	-0.067386627	0.351615906	0.999999046	-8.67844E-05	-0.00019455	2.67029E-05	4.287099838	-1.68466568	8.790397644	-0.004339218	-0.009727478	0.001335144	-0.123046875	-0.487060547	-0.922363281	898.78	-10.577283	-25.99223273	72.31512516	-79
39369	0	0.172912598	-0.065551758	0.351379395	0.999999046	0.00031662	4.29153E-05	2.67029E-05	4.322814941	-1.638793945	8.784484863	0.015830994	0.002145767	0.001335144	-0.125732422	-0.482666016	-0.922607422	898.76	-10.54142237	-25.97956059	72.31367247	-79
39370	0	0.171536446	-0.063751221	0.351861	0.999999046	-3.8147E-05	0.000127792	-6.58035E-05	4.28841114	-1.593780518	8.796525002	-0.001907349	0.006389618	-0.003290176	-0.123046875	-0.484863281	-0.925537109	898.72	-10.5401741	-25.9592685	72.29454738	-79
39371	0	0.171386719	-0.06640625	0.352905273	0.999999046	3.43323E-05	5.81741E-05	6.86646E-05	4.284667969	-1.66015625	8.822631836	0.001716614	0.002908707	0.003433228	-0.120849609	-0.484863281	-0.919921875	898.72	-10.53874696	-25.94397225	72.29439035	-79
39372	0	0.171276093	-0.064941406	0.351830482	0.999999046	-0.000132561	0.000133514	0.000102043	4.281902313	-1.623535156	8.795762062	-0.006628037	0.00667572	0.005102158	-0.123291016	-0.484863281	-0.922607422	898.72	-10.55746899	-25.91949079	72.29993623	-79
39373	0	0.17199707	-0.067016602	0.351379395	0.999999046	-4.95911E-05	5.05447E-05	-6.10352E-05	4.299926758	-1.675415039	8.784484863	-0.002479553	0.002527237	-0.003051758	-0.123291016	-0.482666016	-0.919921875	898.78	-10.55868096	-25.90782486	72.28767227	-79
39374	0	0.171420097	-0.066420555	0.352487564	0.999999046	0.000101089	-1.52588E-05	-2.28882E-05	4.285502434	-1.660513878	8.812189102	0.005054474	-0.000762939	-0.001144409	-0.123291016	-0.482666016	-0.922851563	898.76	-10.54542114	-25.90276943	72.27963634	-79
39375	0	0.17199707	-0.066345215	0.352661133	0.999999046	0.000167847	4.29153E-05	4.95911E-05	4.299926758	-1.658630371	8.81652832	0.008392334	0.002145767	0.002479553	-0.123291016	-0.484863281	-0.922607422	898.72	-10.52791663	-25.88966338	72.28135609	-79
39376	0	0.171289444	-0.065024376	0.35129261	0.999999046	0.00039196	5.53131E-05	0.000102997	4.282236099	-1.625609398	8.782315254	0.019598008	0.002765656	0.005149841	-0.123291016	-0.482666016	-0.919921875	898.72	-10.4875028	-25.87407416	72.28887648	-79
39377	0	0.171691895	-0.063720703	0.353271484	0.999999046	0.000179291	0.000130653	4.95911E-05	4.292297363	-1.593017578	8.831787109	0.008964539	0.006532669	0.002479553	-0.123291016	-0.482666016	-0.925537109	898.8	-10.46768193	-25.85112601	72.28413936	-79
39378	0	0.17061615	-0.06538105	0.354375839	0.999999046	0.000347137	0.000139236	-3.8147E-05	4.265403748	-1.634526253	8.859395981	0.017356873	0.006961823	-0.001907349	-0.123046875	-0.484863281	-0.925537109	898.7	-10.42374992	-25.8289754	72.2697573	-79
39379	0	0.171142578	-0.063964844	0.352661133	0.999999046	1.14441E-05	0.000142097	0.000102997	4.278564453	-1.599121094	8.81652832	0.000572205	0.007104874	0.005149841	-0.123046875	-0.487060547	-0.922363281	898.78	-10.42590647	-25.8035914	72.27771614	-79
39380	0	0.171822548	-0.066311836	0.352161407	0.999999046	-4.48227E-05	0.000106812	1.04904E-05	4.295563698	-1.657795906	8.804035187	-0.002241135	0.005340576	0.000524521	-0.123046875	-0.487060547	-0.919433594	898.84	-10.42990376	-25.78416437	72.27766107	-79
39381	0	0.170776367	-0.066101074	0.352233887	0.999999046	0.000148773	0.000100136	0.000118256	4.26940918	-1.652526855	8.805847168	0.00743866	0.00500679	0.005912781	-0.118408203	-0.487304688	-0.925537109	898.78	-10.41771893	-25.76327166	72.27886432	-79
39382	0	0.169775009	-0.064023018	0.352591515	0.999999046	0.000200272	-3.62396E-05	3.8147E-05	4.244375229	-1.600575447	8.814787865	0.01001358	-0.001811981	0.001907349	-0.120849609	-0.484863281	-0.916992188	898.72	-10.39658411	-25.75938926	72.28124556	-79
39383	0	0.171569824	-0.063720703	0.352478027	0.999999046	7.62939E-05	-0.00014019	6.86646E-05	4.289245605	-1.593017578	8.811950684	0.003814697	-0.007009506	0.003433228	-0.120849609	-0.484863281	-0.919921875	898.78	-10.39229476	-25.76665871	72.28717903	-79
39384	0	0.172269821	-0.065705299	0.351035118	0.999999046	0.000157356	5.14984E-05	7.9155E-05	4.306745529	-1.642632484	8.775877953	0.007867813	0.002574921	0.003957748	-0.120605469	-0.487060547	-0.925292969	898.8	-10.37744471	-25.75222397	72.28766029	-79
39385	0	0.170410156	-0.065368652	0.352661133	0.999999046	0.000255585	7.34329E-05	0.000114441	4.260253906	-1.634216309	8.81652832	0.012779236	0.003671646	0.005722046	-0.120605469	-0.489257813	-0.919433594	898.76	-10.353075	-25.73459139	72.29797864	-79
39386	0	0.170527458	-0.062236786	0.353693962	0.999999046	0.00022316	2.86102E-05	7.62939E-05	4.263186455	-1.555919647	8.842349052	0.01115799	0.001430511	0.003814697	-0.120605469	-0.489257813	-0.919433594	898.78	-10.33065442	-25.72280087	72.30415852	-79
39387	0	0.170532227	-0.063415527	0.352844238	0.999999046	-8.39233E-05	1.62125E-05	1.52588E-05	4.263305664	-1.585388184	8.821105957	-0.004196167	0.000810623	0.000762939	-0.120605469	-0.487060547	-0.922607422	898.8	-10.34017884	-25.71368336	72.29922762	-79
39388	0	0.171068192	-0.06457901	0.353082657	0.999999046	8.4877E-05	0.000120163	-3.8147E-06	4.276704788	-1.61447525	8.827066422	0.004243851	0.006008148	-0.000190735	-0.120605469	-0.487060547	-0.922607422	898.86	-10.32830528	-25.69327756	72.2900606	-79
39389	0	0.170593262	-0.065429688	0.353942871	0.999999046	-1.52588E-05	0.000130653	7.62939E-05	4.264831543	-1.635742188	8.848571777	-0.000762939	0.006532669	0.003814697	-0.120605469	-0.489257813	-0.919433594	898.8	-10.33219876	-25.67004365	72.29550654	-79
39390	0	0.170613289	-0.066321373	0.352581024	0.999999046	0.00018692	4.3869E-05	-4.95911E-05	4.265332222	-1.658034325	8.814525604	0.009346008	0.002193451	-0.002479553	-0.120849609	-0.487060547	-0.916748047	898.78	-10.30707162	-25.65921347	72.2876513	-79
39391	0	0.171142578	-0.064880371	0.353271484	0.999999046	0.000400543	7.34329E-05	-1.52588E-05	4.278564453	-1.622009277	8.831787109	0.020027161	0.003671646	-0.000762939	-0.120605469	-0.489257813	-0.919433594	898.78	-10.25906908	-25.64439239	72.28249862	-79
39392	0	0.170848846	-0.064775467	0.353286743	0.999999046	0.000494957	0.000133514	1.81198E-05	4.271221161	-1.619386673	8.832168579	0.02474785	0.006675721	0.000905991	-0.118164063	-0.489501953	-0.922363281	898.8	-10.20151701	-25.62215031	72.27342473	-79
39393	0	0.170166016	-0.062133789	0.35369873	0.999999046	0.000179291	0.000149727	-9.91821E-05	4.254150391	-1.553344727	8.842468262	0.008964539	0.007486343	-0.004959106	-0.118408203	-0.489501953	-0.919677734	898.78	-10.17355599	-25.60047244	72.25224459	-79
39394	0	0.169950485	-0.063865662	0.353711128	0.999999046	0.000104904	6.48499E-05	7.62939E-05	4.248762131	-1.596641541	8.842778206	0.005245209	0.003242493	0.003814697	-0.118408203	-0.489501953	-0.916748047	898.78	-10.16444789	-25.5848223	72.25715527	-79
39395	0	0.170166016	-0.063415527	0.353393555	0.999999046	0.000152588	8.10623E-05	0.000118256	4.254150391	-1.585388184	8.834838867	0.007629395	0.004053116	0.005912781	-0.118164063	-0.491699219	-0.916503906	898.86	-10.15198083	-25.56653034	72.26855007	-79
39396	0	0.170398712	-0.064447403	0.352219582	0.999999046	0.000130653	0.000200272	2.86102E-06	4.259967804	-1.611185074	8.80548954	0.006532669	0.01001358	0.000143051	-0.118164063	-0.491699219	-0.922363281	898.86	-10.13472462	-25.5371933	72.25925482	-79
39397	0	0.16986084	-0.063659668	0.354553223	0.999999046	0.000236511	3.14713E-05	-3.05176E-05	4.246520996	-1.591491699	8.863830566	0.011825562	0.001573563	-0.001525879	-0.118408203	-0.489257813	-0.913818359	898.8	-10.10517792	-25.5275754	72.25386719	-79
39398	0	0.169415474	-0.061712265	0.354043007	0.999999046	-5.72205E-06	8.7738E-05	7.9155E-05	4.235386848	-1.542806625	8.851075172	-0.000286102	0.004386902	0.003957748	-0.118164063	-0.491699219	-0.916503906	898.78	-10.10867463	-25.50941183	72.26101504	-79
39399	0	0.169250488	-0.065124512	0.353881836	0.999999046	-1.52588E-05	-0.000185966	7.62939E-06	4.231262207	-1.628112793	8.847045898	-0.000762939	-0.009298325	0.00038147	-0.115966797	-0.487304688	-0.922851563	898.7	-10.11215071	-25.52356198	72.25258945	-79
39400	0	0.17054081	-0.062209129	0.353510857	0.999999046	0.000256538	2.86102E-05	0.000105858	4.263520241	-1.555228233	8.837771416	0.01282692	0.001430511	0.005292893	-0.118164063	-0.491699219	-0.919433594	898.78	-10.08765232	-25.51160334	72.26166089	-79
39401	0	0.16973877	-0.062988281	0.352783203	0.999999046	8.39233E-05	2.38419E-05	0	4.243469238	-1.574707031	8.819580078	0.004196167	0.001192093	0	-0.115966797	-0.489501953	-0.922607422	898.72	-10.07728939	-25.50235714	72.24958434	-79
39402	0	0.168990135	-0.063113213	0.35158062	0.999999046	0.000101089	-3.8147E-05	0.000125885	4.22475338	-1.577830315	8.789515495	0.005054474	-0.001907349	0.006294251	-0.115966797	-0.491699219	-0.919433594	898.76	-10.07235392	-25.49762426	72.2586666	-79
39403	0	0.169555664	-0.061462402	0.354064941	0.999999046	-0.000205994	2.00272E-05	-4.57764E-05	4.238891602	-1.536560059	8.851623535	-0.010299683	0.001001358	-0.002288818	-0.115966797	-0.491699219	-0.919433594	898.8	-10.09272728	-25.48979361	72.24589001	-79
39404	0	0.169975281	-0.065255165	0.353311539	0.999999046	-6.77109E-05	-3.62396E-05	-4.76837E-06	4.249382019	-1.631379128	8.832788467	-0.003385544	-0.001811981	-0.000238419	-0.118164063	-0.489501953	-0.922363281	898.84	-10.10012499	-25.48753616	72.23980884	-79
39405	0	0.169311523	-0.062561035	0.352905273	0.999999046	2.67029E-05	-1.04904E-05	-3.43323E-05	4.232788086	-1.564025879	8.822631836	0.001335144	-0.000524521	-0.001716614	-0.115722656	-0.491699219	-0.922363281	898.76	-10.09484366	-25.4830017	72.22721124	-79
39406	0	0.170178413	-0.06552124	0.35491848	0.999999046	6.10352E-05	-0.000165939	-4.57764E-05	4.254460335	-1.638031006	8.872961998	0.003051758	-0.008296967	-0.002288818	-0.118164063	-0.491699219	-0.916503906	898.86	-10.08661683	-25.49625429	72.22496435	-79
39407	0	0.16986084	-0.062194824	0.352539063	0.999999046	0.000267029	-0.000121117	-1.52588E-05	4.246520996	-1.554870605	8.813476563	0.013351441	-0.006055832	-0.000762939	-0.118164063	-0.489501953	-0.922363281	898.72	-10.05595628	-25.50389827	72.21852057	-79
39408	0	0.169033051	-0.062794685	0.354117393	0.999999046	0.00014782	-7.43866E-05	-6.58035E-05	4.225826263	-1.569867134	8.852934837	0.007390976	-0.00371933	-0.003290176	-0.120605469	-0.491455078	-0.919189453	898.7	-10.03577256	-25.50726338	72.21289429	-79
39409	0	0.169067383	-0.062194824	0.353149414	0.999999046	0.000106812	-0.000197411	7.62939E-05	4.22668457	-1.554870605	8.828735352	0.005340576	-0.009870529	0.003814697	-0.113525391	-0.491699219	-0.916748047	898.76	-10.02908742	-25.52167871	72.21601752	-79
39410	0	0.169930458	-0.06159687	0.353095055	0.999999046	-5.72205E-06	-0.00025177	8.39233E-05	4.248261452	-1.539921761	8.827376366	-0.000286102	-0.012588501	0.004196167	-0.118164063	-0.491699219	-0.916503906	898.8	-10.0361684	-25.54212344	72.22919911	-79
39411	0	0.169372559	-0.062255859	0.352539063	0.999999046	-0.000175476	-0.000258446	9.53674E-05	4.234313965	-1.556396484	8.813476563	-0.008773804	-0.012922287	0.004768372	-0.118408203	-0.489501953	-0.916748047	898.72	-10.06337344	-25.56311263	72.24186305	-79
39412	0	0.169727325	-0.063267708	0.354381561	0.999999046	-0.000330925	-0.000240326	0.000133514	4.243183136	-1.581692696	8.859539032	-0.01654625	-0.012016297	0.00667572	-0.118408203	-0.489501953	-0.916748047	898.72	-10.11030036	-25.58127352	72.25888732	-79
39413	0	0.169921875	-0.063354492	0.354003906	0.999999046	-0.000293732	-0.000300407	6.10352E-05	4.248046875	-1.583862305	8.850097656	-0.014686585	-0.015020371	0.003051758	-0.120605469	-0.489257813	-0.919433594	898.72	-10.14964592	-25.60766123	72.2698087	-79
39414	0	0.169883728	-0.062607765	0.354597092	0.999999046	-0.000324249	-0.000425339	0.000136375	4.247093201	-1.56519413	8.864927292	-0.016212464	-0.021266938	0.006818772	-0.118164063	-0.491699219	-0.922363281	898.7	-10.1977382	-25.64658692	72.28784835	-79
39415	0	0.170776367	-0.063598633	0.352172852	0.999999046	-0.00056076	-0.000407219	0.00018692	4.26940918	-1.58996582	8.804321289	-0.028038027	-0.020360948	0.009346009	-0.120849609	-0.489257813	-0.916503906	898.72	-10.27553172	-25.68247556	72.31871282	-79
39416	0	0.171099663	-0.065461159	0.351226807	0.999999046	-0.000390053	-0.000183105	6.48499E-05	4.27749157	-1.636528969	8.780670166	-0.01950264	-0.009155274	0.003242493	-0.120605469	-0.487060547	-0.922607422	898.76	-10.32506071	-25.69563958	72.32285883	-79
39417	0	0.170715332	-0.067504883	0.355651855	0.999999046	-0.000137329	-0.00032711	4.57764E-05	4.267883301	-1.68762207	8.891296387	-0.006866455	-0.016355515	0.002288818	-0.123291016	-0.484863281	-0.919677734	898.64	-10.34616453	-25.72536742	72.33243045	-79
39418	0	0.170085907	-0.062917709	0.352226257	0.999999046	-0.000205994	-0.000379562	9.91821E-05	4.252147675	-1.572942734	8.805656433	-0.010299683	-0.01897812	0.004959107	-0.120849609	-0.487060547	-0.919677734	898.78	-10.37848293	-25.75989828	72.34660694	-79
39419	0	0.170837402	-0.065612793	0.350830078	0.999999046	-0.000362396	-0.000468254	3.8147E-05	4.270935059	-1.640319824	8.770751953	-0.018119813	-0.023412706	0.001907349	-0.120605469	-0.487060547	-0.922607422	898.72	-10.42637592	-25.80571562	72.35212102	-79
39420	0	0.170796394	-0.066064835	0.351963997	0.999999046	0.000100136	-0.000387192	7.9155E-05	4.269909859	-1.651620865	8.799099922	0.00500679	-0.019359589	0.003957749	-0.120605469	-0.487060547	-0.922607422	898.8	-10.42276472	-25.84153481	72.35961093	-79
39421	0	0.17364502	-0.062683105	0.35144043	0.999999046	6.10352E-05	-0.000506401	0	4.341125488	-1.567077637	8.786010742	0.003051758	-0.025320054	0	-0.125488281	-0.487060547	-0.925048828	898.72	-10.42038917	-25.89256399	72.36538529	-79
39422	0	0.173269272	-0.062273979	0.352187157	0.999999046	-0.000234604	-0.000379562	-5.34058E-05	4.331731796	-1.55684948	8.804678917	-0.011730194	-0.01897812	-0.002670288	-0.125488281	-0.484863281	-0.925292969	898.8	-10.44754935	-25.93048605	72.35895	-79
39423	0	0.171386719	-0.064758301	0.350585938	0.999999046	-0.000392914	-0.00026226	0.000133514	4.284667969	-1.61895752	8.764648438	-0.019645692	-0.013113022	0.00667572	-0.125488281	-0.484863281	-0.919677734	898.8	-10.50191575	-25.95130418	72.37745388	-79
39424	0	0.171797752	-0.066301346	0.351480484	0.999999046	-0.000288963	-0.000219345	0.000124931	4.29494381	-1.657533646	8.7870121	-0.014448166	-0.010967255	0.006246567	-0.125488281	-0.484863281	-0.922363281	898.86	-10.54353436	-25.96744477	72.3919097	-79
39425	0	0.173034668	-0.066345215	0.351806641	0.999999046	-0.000431061	-0.000189781	0	4.325866699	-1.658630371	8.795166016	-0.02155304	-0.00948906	0	-0.127929688	-0.484619141	-0.916503906	898.72	-10.59432332	-25.98290574	72.39910962	-79
39426	0	0.17206955	-0.067440987	0.350217819	0.999999046	-0.00025177	-0.000379562	8.29697E-05	4.301738739	-1.686024666	8.75544548	-0.012588501	-0.01897812	0.004148483	-0.125488281	-0.484863281	-0.928222656	898.72	-10.63118842	-26.01800472	72.40768864	-79
39427	0	0.172546387	-0.06628418	0.352722168	0.999999046	4.95911E-05	-0.00045681	0.000106812	4.313659668	-1.657104492	8.818054199	0.002479553	-0.022840501	0.005340576	-0.130371094	-0.484619141	-0.922119141	898.72	-10.635631	-26.06126906	72.43259436	-79
39428	0	0.175112724	-0.062869072	0.351285934	0.999999046	-0.000124931	-0.000297546	0.00012207	4.377818108	-1.571726799	8.782148361	-0.006246567	-0.01487732	0.006103516	-0.127929688	-0.482421875	-0.925292969	898.76	-10.65909902	-26.08638911	72.44612837	-79
39429	0	0.172790527	-0.064880371	0.349365234	0.999999046	-0.000587463	-0.000216484	-1.14441E-05	4.319763184	-1.622009277	8.734130859	-0.029373171	-0.010824204	-0.000572205	-0.128173828	-0.480224609	-0.922607422	898.76	-10.72732211	-26.10524599	72.44242607	-79
39430	0	0.172577858	-0.066998482	0.351102829	0.999999046	-0.000370026	-0.000307083	0.000178337	4.314446449	-1.674962044	8.777570724	-0.018501283	-0.015354157	0.008916855	-0.128173828	-0.480224609	-0.922607422	898.76	-10.78208446	-26.13022025	72.46451838	-79
39431	0	0.175537109	-0.066711426	0.350158691	0.999999046	-0.00019455	-0.000254631	0.000217438	4.388427734	-1.667785645	8.753967285	-0.009727478	-0.012731552	0.010871887	-0.128173828	-0.480224609	-0.922607422	898.7	-10.81836049	-26.14855561	72.48981538	-79
39432	0	0.175746918	-0.067779541	0.350347519	0.999999046	-0.000184059	-0.000160217	1.14441E-05	4.393672943	-1.694488525	8.758687973	-0.009202957	-0.008010864	0.000572205	-0.127929688	-0.480224609	-0.925537109	898.72	-10.84110461	-26.16079946	72.48462601	-79
39433	0	0.173095703	-0.067199707	0.3515625	0.999999046	-0.000156403	-0.000250816	-3.43323E-05	4.327392578	-1.679992676	8.7890625	-0.00782013	-0.012540817	-0.001716614	-0.130371094	-0.480224609	-0.922607422	898.76	-10.85909316	-26.1841882	72.48229494	-79
39434	0	0.172421455	-0.066382408	0.349684715	0.999999046	-0.000169754	-0.000274658	-5.05447E-05	4.310536385	-1.659560204	8.742117882	-0.008487702	-0.01373291	-0.002527237	-0.130371094	-0.480224609	-0.922607422	898.72	-10.877924	-26.21057842	72.47820585	-79
39435	0	0.176025391	-0.06628418	0.349060059	0.999999046	-0.000297546	-0.000159264	5.72205E-05	4.400634766	-1.657104492	8.726501465	-0.01487732	-0.007963181	0.002861023	-0.130371094	-0.478027344	-0.928466797	898.76	-10.91609694	-26.22178814	72.47888584	-79
