Counter	Temperature	VelInc_X	VelInc_Y	VelInc_Z	OriInc_w	OriInc_x	OriInc_y	OriInc_z	Acc_X	Acc_Y	Acc_Z	Gyr_X	Gyr_Y	Gyr_Z	Mag_X	Mag_Y	Mag_Z	Pressure	Roll	Pitch	Yaw	RSSI
25129	0	0.367248535	-0.088378906	0.116577148	0.999999046	0.000278473	8.4877E-05	4.19617E-05	9.181213379	-2.209472656	2.914428711	0.013923645	0.004243851	0.002098084	-0.718017578	0.689453125	0.176025391	896	-36.97821225	-68.59160653	-81.06488672	-55
25130	0	0.368380547	-0.087245941	0.117541313	0.999999046	0.000301361	0.000392914	0.000109673	9.209513664	-2.181148529	2.938532829	0.015068055	0.019645692	0.005483628	-0.720214844	0.691650391	0.167236328	896	-36.88398398	-68.55081014	-81.13088445	-55
25131	0	0.368164063	-0.088256836	0.116821289	0.999999046	0.000492096	0.000576973	0.000221252	9.204101563	-2.206420898	2.920532227	0.0246048	0.028848651	0.011062623	-0.720458984	0.691650391	0.170166016	895.96	-36.76216193	-68.48534818	-81.21105304	-54
25132	0	0.366220474	-0.087327957	0.117206573	0.999999046	0.000609398	0.00062561	0.000396729	9.155511856	-2.183198929	2.930164337	0.030469899	0.031280522	0.019836429	-0.718017578	0.691650391	0.169921875	896.02	-36.65977023	-68.4032731	-81.25728264	-54
25133	0	0.366882324	-0.085754395	0.113952637	0.999999046	0.000549316	0.000702858	0.000293732	9.172058105	-2.143859863	2.848815918	0.027465824	0.035142904	0.014686587	-0.718017578	0.693847656	0.166992188	895.96	-36.52769446	-68.32123596	-81.33922949	-54
25134	0	0.36807251	-0.086393356	0.115662575	0.999999046	0.000404358	0.000669479	0.000136375	9.201812744	-2.159833908	2.891564369	0.020217898	0.033473972	0.006818772	-0.715576172	0.693603516	0.160888672	896	-36.38231376	-68.25302231	-81.44429268	-55
25135	0	0.366027832	-0.085754395	0.113342285	0.999999046	0.000667572	0.00048542	0.000408173	9.150695801	-2.143859863	2.833557129	0.033378606	0.024271015	0.020408633	-0.718017578	0.696044922	0.160888672	896.02	-36.30171598	-68.18345177	-81.45041511	-55
25136	0	0.365421295	-0.083337784	0.114295006	0.999999046	0.000504494	0.000623703	0.000121117	9.135532379	-2.083444595	2.857375145	0.025224688	0.031185154	0.006055833	-0.718017578	0.696044922	0.163818359	896	-36.15051293	-68.12076226	-81.56041832	-53
25137	0	0.366333008	-0.085754395	0.113586426	0.999999046	0.000526428	0.000416756	-5.72205E-05	9.158325195	-2.143859863	2.839660645	0.026321413	0.020837785	-0.002861023	-0.718017578	0.696044922	0.163818359	895.94	-35.99133781	-68.08939137	-81.67822696	-54
25138	0	0.368382454	-0.084493637	0.11507988	0.999999046	0.000671387	0.000185013	-7.62939E-05	9.209561348	-2.112340927	2.876996994	0.033569339	0.009250642	-0.003814698	-0.720214844	0.693847656	0.155273438	896	-35.85022292	-68.08094438	-81.75001877	-54
25139	0	0.36517334	-0.085571289	0.116577148	0.999999046	0.000160217	0.000264168	2.28882E-05	9.129333496	-2.139282227	2.914428711	0.008010864	0.013208389	0.001144409	-0.72265625	0.693847656	0.158447266	895.96	-35.77756897	-68.05853496	-81.81920252	-54
25140	0	0.365107536	-0.086100578	0.116003036	0.999999046	0.000473976	-2.86102E-05	-0.00031662	9.127688408	-2.152514458	2.900075912	0.023698808	-0.001430512	-0.015830995	-0.72265625	0.693847656	0.161376953	896	-35.63943585	-68.08613849	-81.92516357	-54
25141	0	0.365600586	-0.088378906	0.116882324	0.999999046	0.00063324	-0.000254631	-0.000331879	9.140014648	-2.209472656	2.922058105	0.03166199	-0.012731553	-0.016593935	-0.720214844	0.693847656	0.158203125	896	-35.5171294	-68.1357506	-81.98716041	-54
25142	0	0.365656853	-0.086829185	0.116988182	0.999999046	0.000705719	-0.000167847	-7.72476E-05	9.141421318	-2.170729637	2.924704552	0.035285953	-0.008392335	-0.003862381	-0.720214844	0.693847656	0.155273438	896.02	-35.43134485	-68.16031924	-81.99704058	-54
25143	0	0.36529541	-0.088500977	0.116027832	0.999999046	0.000473022	-4.1008E-05	3.8147E-06	9.132385254	-2.212524414	2.900695801	0.023651124	-0.0020504	0.000190735	-0.719970703	0.691650391	0.152587891	896.02	-35.37059556	-68.16765733	-82.00719291	-52
25144	0	0.365548134	-0.087477684	0.117055893	0.999999046	0.000733376	-0.000114441	0.000228882	9.138703346	-2.186942101	2.926397324	0.036668781	-0.005722046	0.011444093	-0.72265625	0.693847656	0.158447266	896	-35.34503678	-68.16692463	-81.95910002	-54
25145	0	0.365966797	-0.086242676	0.117126465	0.999999046	0.000610352	-4.1008E-05	0.000423431	9.149169922	-2.156066895	2.928161621	0.030517581	-0.0020504	0.021171572	-0.720214844	0.691650391	0.155517578	896.06	-35.36699764	-68.14646072	-81.8725362	-52
25146	0	0.366453171	-0.085186005	0.120189667	0.999999046	0.000350952	0.0001297	0.00045681	9.161329269	-2.129650116	3.004741669	0.017547608	0.006484986	0.022840501	-0.72265625	0.693847656	0.158447266	895.96	-35.3979479	-68.10777702	-81.81487469	-54
25147	0	0.363342285	-0.083374023	0.117797852	0.999999046	0.000469208	3.52859E-05	0.000537872	9.083557129	-2.084350586	2.944946289	0.02346039	0.001764298	0.026893618	-0.720214844	0.696044922	0.15234375	896.08	-35.44940967	-68.07256234	-81.70841335	-54
25148	0	0.366600037	-0.084328651	0.119244576	0.999999046	0.000432014	8.96454E-05	4.1008E-05	9.165000916	-2.108216286	2.981114388	0.021600724	0.004482269	0.0020504	-0.72265625	0.693847656	0.152587891	896	-35.38065036	-68.06531888	-81.74168629	-52
25149	0	0.36517334	-0.084716797	0.118103027	0.999999046	0.000289917	4.673E-05	-6.10352E-05	9.129333496	-2.117919922	2.952575684	0.01449585	0.002336502	-0.003051758	-0.720214844	0.696044922	0.15234375	896	-35.31156151	-68.06889649	-81.78880553	-54
25150	0	0.36474514	-0.084604263	0.117574692	0.999999046	0.000581741	8.39233E-05	0.000121117	9.118628502	-2.115106583	2.939367294	0.029087068	0.004196167	0.006055832	-0.720214844	0.696044922	0.15234375	896.02	-35.24526639	-68.05698862	-81.79859418	-54
25151	0	0.364257813	-0.084716797	0.115600586	0.999999046	0.000202179	0.000153542	-3.43323E-05	9.106445313	-2.117919922	2.890014648	0.010108948	0.007677078	-0.001716614	-0.717773438	0.696044922	0.149169922	896.02	-35.17519586	-68.04896539	-81.85264831	-54
25152	0	0.366882324	-0.086975098	0.11328125	0.999999046	0.000256538	4.95911E-05	3.8147E-06	9.172058105	-2.174377441	2.83203125	0.01282692	0.002479553	0.000190735	-0.720214844	0.696044922	0.15234375	895.96	-35.12548909	-68.04835504	-81.88594269	-54
25153	0	0.36541748	-0.084533691	0.111938477	0.999999046	-0.000232697	6.19888E-05	0.000480652	9.135437012	-2.113342285	2.798461914	-0.011634827	0.003099442	0.024032594	-0.717773438	0.696044922	0.149169922	895.96	-35.24105605	-68.01540035	-81.79471411	-52
25154	0	0.365198135	-0.085915565	0.114994049	0.999999046	-0.000425339	-0.000190735	0.000422478	9.129953384	-2.147889137	2.874851227	-0.021266939	-0.009536744	0.021123888	-0.720214844	0.696044922	0.149414063	895.96	-35.40678441	-68.00998486	-81.67483565	-54
25155	0	0.36541748	-0.084655762	0.117004395	0.999999046	-0.000541687	-0.000384331	0.000362396	9.135437012	-2.116394043	2.925109863	-0.027084353	-0.019216539	0.018119814	-0.72265625	0.696044922	0.15234375	896.06	-35.60387344	-68.02658375	-81.54069675	-54
25156	0	0.367524147	-0.083892822	0.119986534	0.999999046	-0.000378609	-0.000368118	0.000254631	9.188103676	-2.097320557	2.999663353	-0.018930436	-0.018405915	0.012731553	-0.717773438	0.696044922	0.152099609	895.96	-35.75458184	-68.04875502	-81.43065358	-54
25157	0	0.366394043	-0.083435059	0.120239258	0.999999046	-0.000831604	-0.000266075	0.000198364	9.159851074	-2.085876465	3.005981445	-0.041580206	-0.013303758	0.009918214	-0.717773438	0.696044922	0.152099609	896.02	-35.92698765	-68.06511805	-81.35060084	-55
25158	0	0.366059303	-0.08378315	0.121491432	0.999999046	-0.000562668	-0.000347137	-2.76566E-05	9.151482582	-2.094578743	3.037285805	-0.028133394	-0.017356874	-0.001382828	-0.717773438	0.696044922	0.152099609	896.02	-36.02963356	-68.10408755	-81.3099479	-55
25159	0	0.366455078	-0.083496094	0.117492676	0.999999046	-0.000595093	-0.000163078	-8.39233E-05	9.161376953	-2.087402344	2.937316895	-0.029754641	-0.008153916	-0.004196167	-0.715332031	0.695800781	0.151855469	895.96	-36.09196296	-68.12988184	-81.31236896	-54
25160	0	0.36626339	-0.085162163	0.11751461	0.999999046	-0.0004282	-0.000240326	-0.000226021	9.15658474	-2.12905407	2.937865257	-0.021409989	-0.012016297	-0.011301041	-0.718017578	0.696044922	0.155029297	896	-36.11522658	-68.17246331	-81.34114523	-54
25161	0	0.366699219	-0.085571289	0.11730957	0.999999046	-0.000331879	-0.000353813	-0.000255585	9.167480469	-2.139282227	2.932739258	-0.016593934	-0.017690659	-0.012779236	-0.720458984	0.696044922	0.160888672	896.02	-36.13964198	-68.22757731	-81.36603855	-55
25162	0	0.363773346	-0.086440086	0.116200447	0.999999046	-0.000436783	-0.000352859	-0.00031662	9.094333649	-2.161002159	2.905011177	-0.021839143	-0.017642976	-0.015830995	-0.720458984	0.696044922	0.160888672	895.94	-36.16182865	-68.28670104	-81.4032202	-54
25163	0	0.367736816	-0.088012695	0.115722656	0.999999046	-0.000595093	-0.000414848	-0.000549316	9.19342041	-2.200317383	2.893066406	-0.029754643	-0.020742419	-0.027465824	-0.720214844	0.691650391	0.158447266	895.96	-36.15871209	-68.36729331	-81.48308781	-54
25164	0	0.366467476	-0.089947701	0.116958618	0.999999046	-0.000605583	-0.000440598	-0.000386238	9.161686897	-2.248692513	2.923965454	-0.030279163	-0.022029879	-0.019311907	-0.720458984	0.693847656	0.166992188	895.96	-36.19945601	-68.43909312	-81.52570941	-54
25165	0	0.364379883	-0.088806152	0.118225098	0.999999046	0.000179291	-0.000494957	-9.15527E-05	9.10949707	-2.220153809	2.955627441	0.008964539	-0.02474785	-0.004577637	-0.720214844	0.691650391	0.164306641	895.96	-36.22876969	-68.49574409	-81.48021723	-54
25166	0	0.364879608	-0.087110519	0.119359016	0.999999046	-0.00038147	-0.000116348	6.86646E-05	9.121990204	-2.177762985	2.98397541	-0.019073487	-0.005817413	0.003433228	-0.720458984	0.693847656	0.166992188	895.96	-36.29480874	-68.5063069	-81.4654378	-54
25167	0	0.367431641	-0.089355469	0.119689941	0.999999046	-0.000328064	3.14713E-05	8.01086E-05	9.185791016	-2.233886719	2.992248535	-0.016403199	0.001573563	0.004005432	-0.72265625	0.691650391	0.164306641	895.96	-36.33200219	-68.50218024	-81.47352353	-55
25168	0	0.365639687	-0.087477684	0.11745739	0.999999046	-0.0002985	0.000169754	0.000564575	9.140992165	-2.186942101	2.936434746	-0.014925004	0.008487702	0.028228762	-0.718017578	0.691650391	0.169921875	895.94	-36.45526917	-68.4522171	-81.39200077	-55
25169	0	0.366149902	-0.086975098	0.118408203	0.999999046	-0.000179291	0.000271797	0.000431061	9.153747559	-2.174377441	2.960205078	-0.008964539	0.01358986	0.021553041	-0.718017578	0.693847656	0.161132813	896.02	-36.51557147	-68.40175999	-81.34735031	-55
25170	0	0.365829468	-0.086417198	0.116316795	0.999999046	9.34601E-05	3.24249E-05	0.00025177	9.145736694	-2.160429955	2.907919884	0.004673004	0.001621246	0.012588501	-0.720214844	0.691650391	0.167236328	896.06	-36.54391742	-68.38553581	-81.31836553	-55
25171	0	0.364990234	-0.085754395	0.11505127	0.999999046	0.000595093	-0.000117302	0.000339508	9.124755859	-2.143859863	2.876281738	0.029754641	-0.005865098	0.016975404	-0.720458984	0.693847656	0.1640625	896.02	-36.5608422	-68.37713106	-81.2343175	-55
25172	0	0.365386963	-0.083730698	0.114514351	0.999999046	0.0002985	-1.14441E-05	0.000201225	9.134674072	-2.093267441	2.862858772	0.014925003	-0.000572205	0.010061264	-0.720458984	0.696044922	0.160888672	895.96	-36.56114182	-68.36853354	-81.19820386	-55
25173	0	0.366333008	-0.085754395	0.114135742	0.999999046	0.000297546	-0.000189781	6.48499E-05	9.158325195	-2.143859863	2.853393555	0.01487732	-0.00948906	0.003242493	-0.720214844	0.693847656	0.161132813	896.02	-36.56061826	-68.3857507	-81.16588743	-55
25174	0	0.368440628	-0.086465836	0.115633011	0.999999046	0.000177383	-0.000263214	8.01086E-05	9.211015701	-2.161645889	2.890825272	0.008869171	-0.013160706	0.004005432	-0.715576172	0.69140625	0.166992188	896.02	-36.59008823	-68.40872672	-81.12470389	-55
25175	0	0.366455078	-0.0859375	0.115600586	0.999999046	1.52588E-05	-0.000105858	0.000205994	9.161376953	-2.1484375	2.890014648	0.000762939	-0.005292893	0.010299683	-0.718017578	0.693847656	0.1640625	896.02	-36.64018927	-68.40862947	-81.07580226	-55
25176	0	0.365650177	-0.086024284	0.115585327	0.999999046	-4.29153E-05	-7.24792E-05	0.000118256	9.141254425	-2.150607109	2.889633179	-0.002145767	-0.003623962	0.005912781	-0.715820313	0.696044922	0.169433594	895.96	-36.67070731	-68.41145291	-81.06005204	-55
25177	0	0.366149902	-0.08605957	0.114379883	0.999999046	-0.000133514	3.91006E-05	1.52588E-05	9.153747559	-2.151489258	2.85949707	-0.00667572	0.001955032	0.000762939	-0.720214844	0.691650391	0.167236328	896	-36.66838599	-68.41111843	-81.09418517	-55
25178	0	0.368884087	-0.086590767	0.115971565	0.999999046	-0.000249863	0.000165939	0.000312805	9.222102165	-2.164769173	2.899289131	-0.012493134	0.008296967	0.015640259	-0.718017578	0.693847656	0.166992188	896.02	-36.72643483	-68.37878667	-81.07349966	-55
25179	0	0.368164063	-0.086303711	0.11517334	0.999999046	-0.000370026	0.000203133	0.000228882	9.204101563	-2.157592773	2.879333496	-0.018501282	0.010156632	0.011444092	-0.718017578	0.691650391	0.166992188	895.96	-36.77222175	-68.3488472	-81.08264116	-55
25180	0	0.364416122	-0.085579872	0.114830017	0.999999046	-0.000206947	0.000226974	0.000389099	9.110403061	-2.139496803	2.870750427	-0.010347367	0.011348725	0.019454957	-0.715576172	0.693847656	0.166748047	896.02	-36.83199683	-68.30575758	-81.05267028	-55
25181	0	0.365539551	-0.084533691	0.115966797	0.999999046	-0.000232697	0.000321388	8.01086E-05	9.13848877	-2.113342285	2.899169922	-0.011634827	0.016069413	0.004005432	-0.718017578	0.696044922	0.166748047	896	-36.8067972	-68.27528023	-81.11695717	-55
25182	0	0.3679533	-0.08727169	0.115306854	0.999999046	-0.000244141	0.000320435	-0.000119209	9.198832512	-2.181792259	2.882671356	-0.012207032	0.016021729	-0.005960465	-0.718017578	0.693847656	0.1640625	895.96	-36.73732423	-68.25860361	-81.22745183	-55
25183	0	0.367797852	-0.087036133	0.115234375	0.999999046	-0.000125885	0.000306129	2.28882E-05	9.194946289	-2.17590332	2.880859375	-0.006294251	0.015306473	0.001144409	-0.718017578	0.693847656	0.166992188	896	-36.68964057	-68.23353573	-81.30495313	-55
25184	0	0.365586281	-0.087204933	0.115739822	0.999999046	-0.000164986	0.00021553	8.67844E-05	9.139657021	-2.180123329	2.89349556	-0.008249283	0.01077652	0.004339218	-0.715576172	0.693603516	0.163818359	896.02	-36.67678495	-68.21241659	-81.34273655	-55
25185	0	0.365234375	-0.086975098	0.118041992	0.999999046	4.19617E-05	0.000222206	-3.8147E-06	9.130859375	-2.174377441	2.951049805	0.002098084	0.011110306	-0.000190735	-0.718017578	0.691650391	0.166992188	896	-36.61811849	-68.19680259	-81.41378564	-55
25186	0	0.36640358	-0.088183403	0.116990089	0.999999046	1.90735E-05	0.000257492	-2.00272E-05	9.160089493	-2.204585075	2.924752235	0.000953674	0.012874603	-0.001001358	-0.718017578	0.693847656	0.1640625	895.94	-36.55246715	-68.17899046	-81.48828395	-55
25187	0	0.366760254	-0.087280273	0.115600586	0.999999046	-3.43323E-05	0.000302315	7.62939E-05	9.169006348	-2.182006836	2.890014648	-0.001716614	0.015115738	0.003814697	-0.718017578	0.693847656	0.161132813	895.96	-36.50764905	-68.15051246	-81.542558	-55
25188	0	0.365578651	-0.087771416	0.114959717	0.999999046	0.000163078	0.000249863	0.000160217	9.139466286	-2.194285393	2.87399292	0.008153916	0.012493134	0.008010864	-0.718017578	0.696044922	0.160888672	895.9	-36.46871932	-68.12118707	-81.56478671	-55
25189	0	0.365478516	-0.085876465	0.114074707	0.999999046	0.000217438	4.29153E-05	0.00025177	9.136962891	-2.146911621	2.851867676	0.010871887	0.002145767	0.012588501	-0.718017578	0.693847656	0.161132813	896	-36.47977903	-68.10483826	-81.53018891	-55
25190	0	0.365731239	-0.0853405	0.112677574	0.999999046	3.24249E-05	1.14441E-05	0.00014019	9.143280983	-2.133512497	2.816939354	0.001621246	0.000572205	0.007009506	-0.718017578	0.693847656	0.1640625	895.94	-36.49190336	-68.09921063	-81.52245116	-55
25191	0	0.365112305	-0.0859375	0.114318848	0.999999046	-2.28882E-05	-0.000144005	4.19617E-05	9.127807617	-2.1484375	2.857971191	-0.001144409	-0.007200241	0.002098084	-0.718017578	0.696044922	0.166748047	895.86	-36.51427074	-68.11472403	-81.51223693	-55
25192	0	0.366053581	-0.085790634	0.115001678	0.999999046	5.62668E-05	-0.00028038	-0.000115395	9.151339531	-2.144765854	2.875041962	0.002813339	-0.014019013	-0.00576973	-0.718017578	0.696044922	0.160888672	895.96	-36.51462873	-68.15363927	-81.50507115	-55
25193	0	0.365234375	-0.085876465	0.114990234	0.999999046	0.000205994	-0.000338554	-0.000164032	9.130859375	-2.146911621	2.874755859	0.010299683	-0.01692772	-0.008201599	-0.718017578	0.693847656	0.166992188	896	-36.49652506	-68.20130917	-81.51094483	-55
25194	0	0.368637085	-0.086440086	0.116300583	0.999999046	-0.000101089	-0.000371933	-0.000366211	9.215927124	-2.161002159	2.907514572	-0.005054474	-0.01859665	-0.018310548	-0.720458984	0.693847656	0.1640625	896.08	-36.4725628	-68.26589094	-81.55562728	-55
25195	0	0.366271973	-0.08782959	0.117797852	0.999999046	-4.57764E-05	-0.000372887	-0.000343323	9.156799316	-2.195739746	2.944946289	-0.002288818	-0.018644334	-0.017166138	-0.720214844	0.691650391	0.161376953	895.94	-36.44751534	-68.32889146	-81.59006081	-55
25196	0	0.365013123	-0.085698128	0.116173744	0.999999046	9.63211E-05	-0.000263214	2.95639E-05	9.125328064	-2.142453194	2.904343605	0.004816055	-0.013160706	0.001478195	-0.720214844	0.691650391	0.167236328	895.96	-36.47373989	-68.35636695	-81.5611615	-55
25197	0	0.36541748	-0.086486816	0.116577148	0.999999046	-0.000213623	-7.15256E-05	-6.48499E-05	9.135437012	-2.16217041	2.914428711	-0.010681152	-0.003576279	-0.003242493	-0.717773438	0.691650391	0.1640625	896	-36.48062183	-68.37254388	-81.58283241	-55
25198	0	0.367398262	-0.087527275	0.116424561	0.999999046	-3.8147E-06	-8.96454E-05	9.82285E-05	9.184956551	-2.188181877	2.910614014	-0.000190735	-0.004482269	0.004911423	-0.717773438	0.691650391	0.1640625	895.86	-36.50453955	-68.37922457	-81.5601645	-55
25199	0	0.365722656	-0.086120605	0.11706543	0.999999046	-0.000156403	0.000153542	0.00019455	9.143066406	-2.153015137	2.926635742	-0.00782013	0.007677078	0.009727478	-0.720214844	0.691650391	0.164306641	896	-36.52634542	-68.35686647	-81.56104489	-55
25200	0	0.36626339	-0.087398529	0.114585876	0.999999046	-1.62125E-05	-4.3869E-05	0.000170708	9.15658474	-2.184963226	2.864646912	-0.000810623	-0.002193451	0.008535385	-0.720214844	0.691650391	0.167236328	896	-36.56065986	-68.35431632	-81.5361604	-55
25201	0	0.366577148	-0.085998535	0.116516113	0.999999046	8.39233E-05	-3.33786E-05	1.14441E-05	9.164428711	-2.149963379	2.912902832	0.004196167	-0.00166893	0.000572205	-0.720458984	0.693847656	0.1640625	896.02	-36.54460673	-68.36164731	-81.54562271	-55
25202	0	0.367437363	-0.08604908	0.117542267	0.999999046	5.72205E-05	-3.8147E-05	0.000244141	9.185934067	-2.151226997	2.938556671	0.002861023	-0.001907349	0.012207031	-0.718017578	0.693847656	0.166992188	895.9	-36.58620588	-68.353486	-81.49984648	-55
25203	0	0.3671875	-0.085205078	0.116760254	0.999999046	-6.48499E-05	0.000107765	9.91821E-05	9.1796875	-2.130126953	2.919006348	-0.003242493	0.00538826	0.004959106	-0.720214844	0.693847656	0.161132813	895.96	-36.58281474	-68.34179819	-81.50941061	-55
25204	0	0.36665535	-0.087062836	0.117376328	0.999998093	0.000217438	1.81198E-05	7.24792E-05	9.166383743	-2.176570892	2.934408188	0.010871887	0.000905991	0.003623962	-0.718017578	0.691650391	0.169921875	896.06	-36.55622944	-68.34010738	-81.52502332	-55
25205	0	0.367614746	-0.085266113	0.116210938	0.999999046	7.62939E-06	0.000180244	0.000205994	9.190368652	-2.131652832	2.905273438	0.00038147	0.009012222	0.010299683	-0.718017578	0.693847656	0.166992188	895.96	-36.55659457	-68.31441971	-81.53089704	-55
25206	0	0.366376877	-0.086636543	0.117503166	0.999999046	-5.34058E-05	0.000152588	0.000132561	9.159421921	-2.165913582	2.937579155	-0.002670288	0.007629395	0.006628037	-0.718017578	0.693847656	0.169677734	895.94	-36.55158578	-68.29622696	-81.55478518	-54
25207	0	0.365844727	-0.086669922	0.117370605	0.999999046	3.8147E-05	0.000294685	0	9.146118164	-2.166748047	2.934265137	0.001907349	0.014734268	0	-0.717773438	0.691650391	0.161132813	896	-36.48103922	-68.27392066	-81.6259569	-54
25208	0	0.366141319	-0.088614464	0.117164612	0.999999046	0.0001688	0.000154495	-4.57764E-05	9.153532982	-2.215361595	2.929115295	0.008440018	0.007724762	-0.002288818	-0.720214844	0.691650391	0.167236328	896.06	-36.4091514	-68.26752728	-81.69510307	-55
25209	0	0.365844727	-0.088745117	0.11706543	0.999999046	0.000377655	0.000134468	0.000118256	9.146118164	-2.21862793	2.926635742	0.018882752	0.006723404	0.005912781	-0.720214844	0.691650391	0.164306641	896	-36.35493943	-68.25171349	-81.71577056	-54
25210	0	0.364876747	-0.088009834	0.11820507	0.999999046	0.000423431	0.000211716	9.05991E-05	9.121918678	-2.200245857	2.955126762	0.021171571	0.010585785	0.004529953	-0.720214844	0.691650391	0.164306641	896.02	-36.27604751	-68.23051085	-81.75885178	-54
25211	0	0.366271973	-0.087646484	0.117919922	0.999999046	0.000244141	0.000454903	0.00030899	9.156799316	-2.191162109	2.947998047	0.012207032	0.022745134	0.015449525	-0.720214844	0.691650391	0.161376953	896.08	-36.22713342	-68.17195276	-81.78893614	-53
25212	0	0.366353035	-0.088730812	0.119028091	0.999999046	0.000243187	0.000331879	0.000328064	9.158825874	-2.218270302	2.975702286	0.012159348	0.016593934	0.016403199	-0.718017578	0.693847656	0.161132813	895.96	-36.2037434	-68.12335454	-81.78927648	-54
25213	0	0.364501953	-0.08605957	0.118286133	0.999999046	0.000728607	0.000130653	0.000499725	9.112548828	-2.151489258	2.95715332	0.036430364	0.00653267	0.02498627	-0.720458984	0.696044922	0.157958984	896	-36.19799676	-68.08171555	-81.70828056	-54
25214	0	0.365362167	-0.085092545	0.1188097	0.999999046	0.000343323	0.000375748	0.000117302	9.134054184	-2.127313614	2.9702425	0.017166138	0.018787385	0.005865097	-0.720214844	0.693847656	0.161132813	896.06	-36.10707012	-68.04328511	-81.77576803	-54
25215	0	0.366821289	-0.086547852	0.11706543	0.999999046	0.000476837	0.00023365	-2.67029E-05	9.170532227	-2.163696289	2.926635742	0.023841859	0.011682511	-0.001335144	-0.718017578	0.696044922	0.157958984	895.96	-35.9918277	-68.02776677	-81.84514623	-54
25216	0	0.366282463	-0.085867882	0.115670204	0.999998093	0.000408173	0.000105858	3.43323E-05	9.157061577	-2.146697044	2.891755104	0.020408631	0.005292893	0.001716614	-0.718017578	0.696044922	0.160888672	896	-35.92002753	-68.02009448	-81.88229066	-54
25217	0	0.364562988	-0.086791992	0.116271973	0.999999046	0.000293732	3.52859E-05	2.28882E-05	9.114074707	-2.169799805	2.906799316	0.014686585	0.001764298	0.001144409	-0.720458984	0.696044922	0.157958984	895.94	-35.87069365	-68.01978832	-81.90695407	-54
25218	0	0.365283012	-0.08570385	0.116042137	0.999999046	0.000514984	-0.000104904	-0.000160217	9.13207531	-2.142596245	2.901053429	0.025749208	-0.005245209	-0.008010865	-0.717773438	0.696044922	0.152099609	895.94	-35.77725036	-68.0448876	-81.9403967	-52
25219	0	0.365356445	-0.086425781	0.118469238	0.999999046	0.000297546	-9.44138E-05	-1.52588E-05	9.133911133	-2.160644531	2.961730957	0.01487732	-0.004720688	-0.000762939	-0.720214844	0.693847656	0.15234375	895.96	-35.74036292	-68.05927342	-81.94466265	-52
25220	0	0.363916397	-0.085551262	0.118877411	0.999999046	0.000170708	-9.53674E-06	-1.62125E-05	9.097909927	-2.138781548	2.971935272	0.008535385	-0.000476837	-0.000810623	-0.720214844	0.693847656	0.155273438	895.94	-35.70358408	-68.06578933	-81.96961681	-54
25221	0	0.364807129	-0.087585449	0.11932373	0.999999046	0.000232697	-0.000155449	-3.8147E-06	9.120178223	-2.18963623	2.983093262	0.011634827	-0.007772446	-0.000190735	-0.720214844	0.696044922	0.155029297	895.96	-35.68690788	-68.08495839	-81.96271468	-53
25222	0	0.365027428	-0.087711334	0.118823051	0.999999046	0.000358582	-0.000106812	0.000239372	9.125685692	-2.192783356	2.970576286	0.017929078	-0.005340576	0.011968613	-0.720214844	0.693847656	0.15234375	895.96	-35.70416196	-68.08326195	-81.90244522	-53
25223	0	0.364196777	-0.087768555	0.119628906	0.999999046	0.000362396	-0.000132561	0.000148773	9.104919434	-2.194213867	2.990722656	0.018119813	-0.006628037	0.00743866	-0.720214844	0.693847656	0.158203125	895.9	-35.70442035	-68.08989405	-81.87074783	-53
25224	0	0.364690781	-0.088400841	0.120388985	0.999999046	0.000294685	0	0.000231743	9.117269516	-2.210021019	3.009724617	0.014734269	0	0.011587143	-0.720214844	0.693847656	0.155273438	896	-35.70970517	-68.07848136	-81.83803579	-52
25225	0	0.363891602	-0.088256836	0.120117188	0.999999046	0.000133514	0.000184059	0.000362396	9.097290039	-2.206420898	3.002929688	0.00667572	0.009202957	0.018119813	-0.717773438	0.696044922	0.152099609	896.02	-35.73312912	-68.04104797	-81.79765441	-52
25226	0	0.365796089	-0.089161873	0.120884895	0.999999046	0.000574112	7.05719E-05	0.000427246	9.144902229	-2.229046822	3.022122383	0.028705599	0.003528595	0.021362307	-0.717773438	0.696044922	0.152099609	895.96	-35.73989659	-68.00967285	-81.7233941	-52
25227	0	0.364257813	-0.085021973	0.117858887	0.999999046	0.000675201	0.000130653	0.000686646	9.106445313	-2.125549316	2.946472168	0.033760076	0.00653267	0.034332281	-0.718017578	0.698242188	0.157714844	896.02	-35.78451767	-67.95538812	-81.60688139	-53
25228	0	0.366429329	-0.085184097	0.117641449	0.999999046	0.00017643	0.000156403	0.000464439	9.160733223	-2.129602432	2.941036224	0.008821488	0.00782013	0.023221971	-0.720458984	0.698242188	0.155029297	895.96	-35.83064752	-67.91369287	-81.54928762	-52
25229	0	0.363891602	-0.084411621	0.114196777	0.999999046	6.10352E-05	4.673E-05	0.000362396	9.097290039	-2.110290527	2.854919434	0.003051758	0.002336502	0.018119812	-0.717773438	0.698242188	0.148925781	896.02	-35.88471623	-67.88924894	-81.48578109	-52
25230	0	0.364186287	-0.083379745	0.116436958	0.999999046	0.000253677	-0.000249863	0.000358582	9.104657173	-2.084493637	2.910923958	0.012683869	-0.012493134	0.017929078	-0.717773438	0.698242188	0.145996094	896	-35.96463427	-67.89274599	-81.36641308	-53
25231	0	0.364196777	-0.084838867	0.115539551	0.999999046	-9.15527E-05	-0.000342369	-5.72205E-05	9.104919434	-2.12097168	2.88848877	-0.004577637	-0.017118454	-0.002861023	-0.718017578	0.700439453	0.151855469	895.96	-36.0045894	-67.93295129	-81.33962951	-54
25232	0	0.366179466	-0.086833	0.117529869	0.999999046	7.72476E-05	-0.000556946	-8.10623E-05	9.154486656	-2.170825005	2.938246727	0.003862381	-0.027847292	-0.004053116	-0.718017578	0.700439453	0.154541016	896.02	-36.05568229	-67.99470758	-81.28307394	-52
25233	0	0.364685059	-0.086242676	0.116699219	0.999999046	-0.00050354	-0.000403404	0.000144958	9.117126465	-2.156066895	2.917480469	-0.025177004	-0.020170213	0.007247925	-0.717773438	0.696044922	0.152099609	895.96	-36.19988499	-68.02700526	-81.1956764	-54
25234	0	0.365731239	-0.088177681	0.118267059	0.999999046	-0.000570297	-0.000331879	3.05176E-05	9.143280983	-2.204442024	2.956676483	-0.028514864	-0.016593934	0.001525879	-0.715576172	0.700439453	0.151611328	895.94	-36.31387223	-68.06033246	-81.13994027	-53
25235	0	0.365783691	-0.088745117	0.119140625	0.999999046	-0.000328064	-0.000498772	3.8147E-05	9.144592285	-2.21862793	2.978515625	-0.016403199	-0.024938585	0.001907349	-0.718017578	0.698242188	0.154785156	895.96	-36.43032691	-68.10840252	-81.05910231	-52
25236	0	0.36626339	-0.087632179	0.120547295	0.999999046	-0.000245094	-0.000331879	2.28882E-05	9.15658474	-2.190804482	3.013682365	-0.012254715	-0.016593934	0.001144409	-0.715576172	0.697998047	0.151855469	896.02	-36.50556463	-68.14195271	-81.00427666	-52
25237	0	0.366577148	-0.087646484	0.121032715	0.999999046	-0.000484467	-0.000193596	9.15527E-05	9.164428711	-2.191162109	3.025817871	-0.024223329	-0.009679795	0.004577637	-0.718017578	0.698242188	0.160644531	895.96	-36.60032738	-68.15791383	-80.97290311	-52
25238	0	0.368377686	-0.08825779	0.119888306	0.999999046	-0.000175476	-1.71661E-05	9.15527E-05	9.209442139	-2.20644474	2.997207642	-0.008773804	-0.000858307	0.004577637	-0.715576172	0.696044922	0.160644531	896.06	-36.62948142	-68.15754091	-80.97365905	-53
25239	0	0.365600586	-0.084777832	0.117492676	0.999999046	-0.000675201	0.000195503	0.000354767	9.140014648	-2.119445801	2.937316895	-0.033760074	0.009775163	0.017738344	-0.715576172	0.698242188	0.160644531	896.02	-36.73952526	-68.1196513	-80.94592596	-54
25240	0	0.363783836	-0.086478233	0.118249893	0.999999046	-0.000515938	6.10352E-05	0.000113487	9.094595909	-2.161955833	2.95624733	-0.025796891	0.003051758	0.005674362	-0.718017578	0.696044922	0.160888672	896	-36.79869835	-68.11058729	-80.95651656	-53
25241	0	0.36340332	-0.088989258	0.116088867	0.999999046	0.00012207	-0.000178337	-0.000240326	9.085083008	-2.224731445	2.90222168	0.006103516	-0.008916855	-0.012016297	-0.715576172	0.698242188	0.157714844	896.02	-36.74492241	-68.1477236	-80.99966295	-53
25242	0	0.364890099	-0.088786125	0.11402607	0.999999046	0.00050354	-0.000347137	-0.000130653	9.122252464	-2.21965313	2.850651741	0.025177004	-0.017356874	-0.006532669	-0.713378906	0.697998047	0.160400391	896.02	-36.70161602	-68.19289096	-80.98768807	-52
25243	0	0.364685059	-0.089904785	0.114746094	0.999999046	5.34058E-05	-0.000460625	-6.10352E-05	9.117126465	-2.247619629	2.868652344	0.002670288	-0.023031236	-0.003051758	-0.718017578	0.698242188	0.157714844	896.06	-36.74578251	-68.2436874	-80.93474777	-52
25244	0	0.364556313	-0.09058094	0.113869667	0.999999046	0.000153542	-0.000522614	5.62668E-05	9.113907814	-2.264523506	2.846741676	0.007677079	-0.026130678	0.002813339	-0.718017578	0.696044922	0.157958984	896.02	-36.81692268	-68.29207596	-80.84233166	-53
25245	0	0.367614746	-0.090087891	0.11541748	0.999999046	-2.67029E-05	-0.000475883	0.000350952	9.190368652	-2.252197266	2.885437012	-0.001335144	-0.023794176	0.017547608	-0.718017578	0.696044922	0.157958984	896.02	-36.96921123	-68.31581053	-80.68444665	-52
25246	0	0.365893364	-0.088825226	0.116772652	0.999999046	0.000175476	-0.000555038	0.000575066	9.147334099	-2.220630646	2.919316292	0.008773805	-0.027751926	0.028753284	-0.715576172	0.698242188	0.160644531	895.96	-37.16395585	-68.3310402	-80.45698513	-52
25247	0	0.366271973	-0.086608887	0.118591309	0.999999046	0.000202179	-0.000277519	0.000652313	9.156799316	-2.165222168	2.964782715	0.010108949	-0.013875963	0.032615665	-0.713378906	0.698242188	0.163330078	895.96	-37.32459086	-68.31524706	-80.26708354	-54
25248	0	0.366833687	-0.087528229	0.11860466	0.999999046	0.000302315	-0.000108719	0.000533104	9.170842171	-2.188205719	2.965116501	0.015115739	-0.005435944	0.026655199	-0.715820313	0.698242188	0.163574219	896.06	-37.41627514	-68.29211799	-80.14286461	-54
25249	0	0.368103027	-0.087280273	0.118164063	0.999999046	0.000301361	6.58035E-05	0.000415802	9.202575684	-2.182006836	2.954101563	0.015068055	0.003290177	0.020790101	-0.713378906	0.700439453	0.166015625	896.02	-37.45010685	-68.26118783	-80.08268346	-54
25250	0	0.365512848	-0.087147713	0.117042542	0.999999046	-4.19617E-05	0.000102997	0.000411034	9.137821198	-2.178692818	2.926063538	-0.002098084	0.005149841	0.020551682	-0.713378906	0.700439453	0.166015625	896	-37.51517183	-68.22715681	-80.03189712	-52
25251	0	0.366027832	-0.088623047	0.11541748	0.999999046	0.000385284	-5.62668E-05	0.000213623	9.150695801	-2.215576172	2.885437012	0.019264222	-0.002813339	0.010681153	-0.7109375	0.700195313	0.163085938	896.02	-37.51401033	-68.22137627	-79.99411382	-52
25252	0	0.365757942	-0.089241982	0.113674164	0.999999046	0.000414848	-0.000135422	0.00018692	9.143948555	-2.231049538	2.841854095	0.020742417	-0.006771088	0.009346009	-0.713378906	0.700439453	0.157226563	895.96	-37.51735967	-68.22470787	-79.94055522	-54
25253	0	0.365478516	-0.090576172	0.113037109	0.999999046	0.000434875	-0.000182152	0.000171661	9.136962891	-2.264404297	2.825927734	0.021743775	-0.00910759	0.008583069	-0.711181641	0.702636719	0.162841797	896	-37.52346098	-68.23338401	-79.88837821	-52
25254	0	0.365427017	-0.090848923	0.112371445	0.999999046	0.000387192	-0.000204086	0.000106812	9.13567543	-2.271223068	2.809286118	0.019359589	-0.010204316	0.005340576	-0.7109375	0.700195313	0.16015625	896	-37.52454654	-68.24862252	-79.84575019	-52
25255	0	0.365905762	-0.091491699	0.112060547	0.999999046	0.000400543	-0.000395775	0.000263214	9.147644043	-2.28729248	2.801513672	0.020027162	-0.019788743	0.013160706	-0.713378906	0.700439453	0.163085938	895.94	-37.59387126	-68.27037903	-79.73533209	-53
25256	0	0.366374969	-0.09049511	0.113612175	0.999999046	0.000294685	-0.000476837	0.000404358	9.159374237	-2.262377739	2.840304375	0.014734269	-0.02384186	0.020217897	-0.711181641	0.702392578	0.159912109	896.02	-37.72215256	-68.28954156	-79.56593837	-53
25257	0	0.366699219	-0.090576172	0.115661621	0.999999046	0.000156403	-0.00033474	0.000419617	9.167480469	-2.264404297	2.891540527	0.00782013	-0.016736985	0.020980836	-0.708740234	0.704589844	0.156738281	896.02	-37.84490593	-68.2945563	-79.4106768	-54
25258	0	0.366823196	-0.089567184	0.115077019	0.999999046	-3.43323E-05	-0.000183105	0.000465393	9.17057991	-2.239179611	2.876925468	-0.001716614	-0.009155274	0.023269654	-0.708740234	0.702392578	0.162597656	896	-37.97300704	-68.28250445	-79.28588367	-53
25259	0	0.367797852	-0.088500977	0.113586426	0.999999046	9.91821E-05	-0.000151634	0.000343323	9.194946289	-2.212524414	2.839660645	0.004959107	-0.007581711	0.017166138	-0.708740234	0.702392578	0.162597656	896.02	-38.05233224	-68.27623323	-79.19758306	-54
25260	0	0.367956161	-0.087449074	0.115505219	0.999999046	-0.000212669	-0.000118256	0.000282288	9.198904037	-2.186226845	2.887630463	-0.010633469	-0.005912781	0.01411438	-0.708740234	0.702392578	0.162597656	895.96	-38.14718453	-68.27127196	-79.1305198	-55
25261	0	0.369689941	-0.087097168	0.114501953	0.999999046	-0.000339508	4.29153E-05	5.72205E-05	9.242248535	-2.177429199	2.862548828	-0.016975403	0.002145767	0.002861023	-0.711181641	0.704833984	0.159667969	896	-38.17663231	-68.26783421	-79.14300309	-54
25262	0	0.368144035	-0.085021019	0.116000175	0.999999046	-0.000434875	0.000221252	-4.57764E-05	9.203600883	-2.125525475	2.900004387	-0.021743775	0.011062623	-0.002288818	-0.708740234	0.702392578	0.162597656	896.02	-38.16131478	-68.25573637	-79.21981944	-54
25263	0	0.364562988	-0.08605957	0.117370605	0.999999046	-0.000629425	0.000145912	-0.000297546	9.114074707	-2.151489258	2.934265137	-0.031471255	0.007295609	-0.014877321	-0.711181641	0.700439453	0.168945313	895.96	-38.12403518	-68.26820074	-79.35635544	-55
25264	0	0.365008354	-0.088431358	0.117181778	0.999999046	-0.000380516	0.000343323	-0.000759125	9.125208855	-2.210783958	2.929544449	-0.019025805	0.01716614	-0.037956243	-0.711181641	0.702392578	0.159912109	896.06	-37.91803415	-68.29523571	-79.62379018	-54
25265	0	0.366882324	-0.090148926	0.11529541	0.999999046	-0.000164032	0.000283241	-0.000717163	9.172058105	-2.253723145	2.882385254	-0.0082016	0.014162065	-0.035858158	-0.711181641	0.702636719	0.162841797	896.06	-37.7067809	-68.32435192	-79.87317849	-55
25266	0	0.366215706	-0.091065407	0.114983559	0.999999046	-0.000387192	0.000501633	-0.000393867	9.155392647	-2.27663517	2.874588966	-0.01935959	0.025081637	-0.019693376	-0.7109375	0.700195313	0.163085938	896	-37.55634017	-68.3106552	-80.08618016	-53
25267	0	0.363647461	-0.091674805	0.116088867	0.999999046	-0.000713348	0.00048542	-7.24792E-05	9.091186523	-2.291870117	2.90222168	-0.035667424	0.024271014	-0.003623963	-0.713378906	0.698242188	0.163330078	895.96	-37.51999824	-68.2756841	-80.21964142	-54
25268	0	0.364160538	-0.092029572	0.113990784	0.999999046	-0.00032711	0.000301361	-0.000183105	9.104013443	-2.300739288	2.849769592	-0.016355515	0.015068055	-0.009155274	-0.7109375	0.700195313	0.163085938	895.94	-37.44702543	-68.26503329	-80.33983334	-55
25269	0	0.364990234	-0.09173584	0.114501953	0.999999046	-0.000102997	0.000222206	0.000255585	9.124755859	-2.293395996	2.862548828	-0.005149841	0.011110306	0.012779236	-0.713378906	0.700439453	0.166015625	895.96	-37.46273449	-68.23091502	-80.34428317	-54
25270	0	0.365563393	-0.090421677	0.116903305	0.999999046	-0.000219345	5.72205E-05	0.000452995	9.139084816	-2.260541916	2.922582626	-0.010967255	0.002861023	0.022649766	-0.713378906	0.698242188	0.163330078	896.02	-37.56541376	-68.19791383	-80.26741814	-55
25271	0	0.36541748	-0.090881348	0.114562988	0.999999046	-0.000164032	-0.000132561	0.000526428	9.135437012	-2.272033691	2.864074707	-0.0082016	-0.006628037	0.026321413	-0.713378906	0.700439453	0.166015625	895.96	-37.71153696	-68.17691425	-80.13967266	-55
25272	0	0.366453171	-0.088742256	0.116205215	0.999999046	0.00014019	-0.000185013	0.000430107	9.161329269	-2.218556404	2.905130386	0.007009507	-0.009250641	0.021505357	-0.713378906	0.700439453	0.16015625	896	-37.80980557	-68.16732878	-80.01671644	-55
25273	0	0.365356445	-0.08807373	0.115722656	0.999999046	-6.10352E-05	-0.000170708	0.00037384	9.133911133	-2.201843262	2.893066406	-0.003051758	-0.008535385	0.018692017	-0.7109375	0.697998047	0.160400391	896.02	-37.91557887	-68.16035672	-79.9116596	-55
25274	0	0.365818977	-0.087202072	0.115952492	0.999999046	0.000204086	-0.000307083	1.43051E-05	9.145474434	-2.180051804	2.898812294	0.010204315	-0.015354157	0.000715256	-0.708740234	0.702392578	0.162597656	895.96	-37.93344371	-68.19105126	-79.86601497	-55
25275	0	0.366027832	-0.08770752	0.115600586	0.999999046	0.000263214	-0.000384331	-0.000148773	9.150695801	-2.192687988	2.890014648	0.013160706	-0.019216538	-0.00743866	-0.713623047	0.700439453	0.168945313	895.96	-37.92103641	-68.24026202	-79.86153085	-55
25276	0	0.366997719	-0.089551926	0.116218567	0.999999046	0.000193596	-0.000322342	-0.00038147	9.17494297	-2.238798141	2.905464172	0.009679795	-0.016117097	-0.019073487	-0.711181641	0.700195313	0.166015625	895.96	-37.85266531	-68.30021644	-79.91771434	-55
25277	0	0.365661621	-0.090698242	0.11517334	0.999999046	0.000289917	-0.000403404	-0.000255585	9.141540527	-2.267456055	2.879333496	0.01449585	-0.020170213	-0.012779237	-0.7109375	0.697998047	0.166015625	895.94	-37.81607418	-68.35857216	-79.92881367	-55
25278	0	0.368423462	-0.090139389	0.113035202	0.999999046	0.000413895	-0.000392914	-0.000264168	9.210586548	-2.253484726	2.825880051	0.020694734	-0.019645692	-0.01320839	-0.713623047	0.700439453	0.168945313	896.02	-37.76153918	-68.41663964	-79.94795805	-55
25279	0	0.367736816	-0.090881348	0.113952637	0.999999046	0.000221252	-0.000281334	-8.01086E-05	9.19342041	-2.272033691	2.848815918	0.011062622	-0.014066696	-0.004005432	-0.713378906	0.700439453	0.166015625	896	-37.75159561	-68.45165064	-79.93720951	-55
25280	0	0.366104126	-0.087050438	0.11122036	0.999999046	0.000214577	-0.000217438	0.000193596	9.152603149	-2.176260948	2.780508995	0.010728836	-0.010871887	0.009679795	-0.713378906	0.698242188	0.166259766	896.02	-37.79394499	-68.46180102	-79.8739897	-55
25281	0	0.365478516	-0.087219238	0.114135742	0.999999046	-9.53674E-05	-0.000159264	0.000106812	9.136962891	-2.180480957	2.853393555	-0.004768372	-0.007963181	0.005340576	-0.7109375	0.697998047	0.168945313	896.08	-37.84140066	-68.47277183	-79.84573223	-55
25282	0	0.367082596	-0.086709023	0.113390923	0.999999046	0.00022316	-1.90735E-06	-1.23978E-05	9.177064896	-2.167725563	2.834773064	0.01115799	-9.53674E-05	-0.000619888	-0.711181641	0.700439453	0.168945313	895.94	-37.79677683	-68.47795146	-79.87522563	-55
25283	0	0.368408203	-0.087219238	0.116516113	0.999999046	-0.000110626	-2.57492E-05	-6.48499E-05	9.210205078	-2.180480957	2.912902832	-0.005531311	-0.00128746	-0.003242493	-0.713378906	0.698242188	0.169189453	895.96	-37.78219723	-68.48893493	-79.9169014	-56
25284	0	0.367692947	-0.088968277	0.117879868	0.999999046	-0.000138283	0.000192642	-5.34058E-05	9.192323685	-2.224206924	2.946996689	-0.006914139	0.009632111	-0.002670288	-0.713378906	0.698242188	0.169189453	896.02	-37.73423195	-68.47917253	-79.99736248	-55
25285	0	0.367370605	-0.089111328	0.118041992	0.999999046	0.000144958	0.000172615	-4.19617E-05	9.184265137	-2.227783203	2.951049805	0.007247925	0.008630753	-0.002098084	-0.713378906	0.698242188	0.166259766	896.08	-37.65978739	-68.47023572	-80.06669864	-55
25286	0	0.367032051	-0.088497162	0.117765427	0.999999046	0.000387192	0.000331879	-6.86646E-05	9.175801277	-2.212429047	2.944135666	0.019359589	0.016593934	-0.003433228	-0.713378906	0.698242188	0.166259766	896.02	-37.52304748	-68.44852939	-80.17446733	-55
25287	0	0.366333008	-0.087280273	0.117248535	0.999999046	9.53674E-05	0.00067234	-1.14441E-05	9.158325195	-2.182006836	2.931213379	0.004768372	0.033617022	-0.000572205	-0.713378906	0.698242188	0.169189453	896.06	-37.37294666	-68.39169041	-80.33890772	-56
25288	0	0.365448952	-0.089875221	0.114643097	0.999999046	0.000250816	0.00062561	0.000102997	9.136223793	-2.246880531	2.866077423	0.012540818	0.03128052	0.005149842	-0.713378906	0.697998047	0.160400391	895.96	-37.2405381	-68.33097246	-80.45247811	-55
25289	0	0.366821289	-0.088745117	0.115112305	0.999999046	0.00050354	0.00061512	3.43323E-05	9.170532227	-2.21862793	2.877807617	0.025177005	0.030756	0.001716614	-0.713378906	0.697998047	0.160400391	896	-37.06608038	-68.2758646	-80.58282425	-56
25290	0	0.366612434	-0.089143753	0.114980698	0.999999046	0.000379562	0.000473022	0.00014019	9.16531086	-2.228593826	2.874517441	0.01897812	0.023651125	0.007009507	-0.715576172	0.695800781	0.157714844	896	-36.95558011	-68.22635962	-80.66115521	-55
25291	0	0.365722656	-0.087890625	0.114929199	0.999999046	0.000392914	0.000451088	0.000286102	9.143066406	-2.197265625	2.87322998	0.019645692	0.022554399	0.014305116	-0.713378906	0.698242188	0.163330078	896.06	-36.88126414	-68.16883594	-80.70685786	-56
25292	0	0.367033005	-0.08862114	0.115084648	0.999999046	0.000464439	0.000360489	0.000286102	9.175825119	-2.215528488	2.877116203	0.023221971	0.018024446	0.014305116	-0.715820313	0.700439453	0.157470703	896	-36.81476402	-68.11967902	-80.72753771	-56
25293	0	0.369445801	-0.08782959	0.116333008	0.999999046	0.00069046	0.000164986	0.000343323	9.23614502	-2.195739746	2.908325195	0.034523014	0.008249284	0.017166139	-0.713134766	0.697998047	0.154541016	896.02	-36.76901926	-68.08463984	-80.69606382	-56
25294	0	0.370325089	-0.086523056	0.114009857	0.999999046	0.000900269	0.000177383	0.000312805	9.258127213	-2.163076401	2.850246429	0.045013435	0.008869173	0.015640261	-0.713134766	0.697998047	0.154541016	895.9	-36.69032023	-68.05082815	-80.67756074	-56
25295	0	0.371765137	-0.085205078	0.11315918	0.999999046	0.000667572	0.000138283	0.000450134	9.294128418	-2.130126953	2.828979492	0.033378605	0.00691414	0.022506716	-0.713378906	0.700195313	0.154296875	895.96	-36.67630247	-68.0115785	-80.61864803	-57
25296	0	0.369584084	-0.082702637	0.112577438	0.999999046	0.000351906	0.000116348	0.000201225	9.239602089	-2.067565918	2.814435959	0.017595292	0.005817414	0.010061264	-0.713378906	0.700195313	0.154296875	895.96	-36.64533202	-67.99180275	-80.61838656	-56
25297	0	0.36920166	-0.082885742	0.112731934	0.999999046	0.000453949	0.000336647	0.000106812	9.230041504	-2.072143555	2.81829834	0.02269745	0.016832353	0.005340576	-0.713378906	0.700439453	0.157226563	896	-36.5439067	-67.95860804	-80.68810384	-56
25298	0	0.36886692	-0.081157684	0.109085083	0.999999046	0.000202179	0.000377655	8.67844E-05	9.221673012	-2.028942108	2.727127075	0.010108948	0.018882752	0.004339218	-0.713134766	0.700195313	0.151367188	895.96	-36.4601156	-67.9235421	-80.76111091	-56
25299	0	0.370849609	-0.081359863	0.108337402	0.999999046	0.00043869	0.00024128	4.57764E-05	9.271240234	-2.033996582	2.708435059	0.02193451	0.012063981	0.002288818	-0.713134766	0.700195313	0.151367188	896	-36.36310457	-67.90443513	-80.82065633	-55
25300	0	0.372438431	-0.07953167	0.105960846	0.999999046	0.00049305	7.82013E-05	-0.000289917	9.31096077	-1.98829174	2.649021149	0.024652482	0.003910065	-0.01449585	-0.713378906	0.702392578	0.1484375	895.96	-36.21094767	-67.92390811	-80.92653298	-55
25301	0	0.374633789	-0.079833984	0.102416992	0.999999046	0.000183105	-4.48227E-05	-0.000175476	9.365844727	-1.995849609	2.560424805	0.009155274	-0.002241135	-0.008773804	-0.715576172	0.700439453	0.151611328	896	-36.14125375	-67.94787717	-80.99050272	-55
25302	0	0.371618271	-0.07930088	0.100641251	0.999999046	0.000282288	-0.000396729	-0.000160217	9.290456772	-1.982522011	2.516031265	0.014114381	-0.019836427	-0.008010865	-0.718017578	0.700439453	0.151855469	895.96	-36.12291177	-68.00429432	-80.98823794	-54
25303	0	0.371032715	-0.079101563	0.100097656	0.999999046	0.000411987	-0.000792503	-0.000461578	9.275817871	-1.977539063	2.502441406	0.020599369	-0.039625175	-0.023078922	-0.715576172	0.697998047	0.148925781	896.02	-36.08738438	-68.1186005	-80.98170037	-54
25304	0	0.368880272	-0.076971054	0.098964691	0.999999046	-0.000130653	-0.000631332	-0.000812531	9.222006798	-1.924276352	2.474117279	-0.00653267	-0.031566626	-0.040626533	-0.718017578	0.700439453	0.148925781	895.96	-36.00589355	-68.242538	-81.08716226	-53
25305	0	0.371582031	-0.07623291	0.095947266	0.999999046	-0.00069046	-0.000136375	-0.000686646	9.289550781	-1.905822754	2.398681641	-0.034523016	-0.006818772	-0.034332281	-0.717773438	0.698242188	0.148925781	895.96	-35.9339368	-68.31306229	-81.24919593	-52
25306	0	0.373295784	-0.073289871	0.095499039	0.999998093	-0.001713753	0.000674248	-7.24792E-05	9.3323946	-1.83224678	2.387475967	-0.085687686	0.033712406	-0.003623964	-0.720214844	0.696044922	0.155029297	895.96	-35.98547123	-68.26815927	-81.41542168	-51
25307	0	0.373474121	-0.07208252	0.091308594	0.999994278	-0.002898216	0.001178741	0.000354767	9.336853027	-1.802062988	2.282714844	-0.144911052	0.05893717	0.017738372	-0.718017578	0.696044922	0.157958984	895.96	-36.18729632	-68.14911602	-81.56461839	-51
25308	0	0.372537613	-0.071531296	0.0911026	0.999992371	-0.003419876	0.001387596	0.000468254	9.313440323	-1.788282394	2.277565002	-0.170994199	0.069379967	0.023412758	-0.720214844	0.693847656	0.158203125	896.02	-36.43966399	-68.00459874	-81.7228472	-51
25309	0	0.370483398	-0.072998047	0.08972168	0.999990463	-0.004038811	0.000907898	0.000274658	9.262084961	-1.824951172	2.243041992	-0.201941116	0.045395028	0.01373295	-0.720458984	0.696044922	0.160888672	895.96	-36.79925133	-67.91903305	-81.83607086	-50
25310	0	0.372842789	-0.075636864	0.089669228	0.999992371	-0.003718376	-5.62668E-05	-0.000789642	9.321069717	-1.890921593	2.24173069	-0.185919256	-0.002813346	-0.039482212	-0.720458984	0.693847656	0.166992188	895.96	-37.04464183	-67.99654818	-82.03302458	-49
25311	0	0.370727539	-0.074401855	0.088439941	0.999993324	-0.003158569	-0.000647545	-0.001194	9.268188477	-1.860046387	2.210998535	-0.157928778	-0.032377307	-0.05970013	-0.722900391	0.694091797	0.167236328	896.02	-37.23576346	-68.15757339	-82.20792421	-49
25312	0	0.369616508	-0.074385643	0.08822155	0.999995232	-0.002661705	-0.000778198	-0.001210213	9.240412712	-1.859641075	2.20553875	-0.133085454	-0.038909971	-0.060510728	-0.725341797	0.691894531	0.179199219	895.96	-37.38907941	-68.33298045	-82.37429918	-49
25313	0	0.374816895	-0.069763184	0.085266113	0.999994278	-0.00298214	-0.000465393	-0.001148224	9.370422363	-1.74407959	2.131652832	-0.149107239	-0.023269694	-0.057411294	-0.725341797	0.689697266	0.182128906	895.96	-37.53821568	-68.47716484	-82.57921941	-49
25314	0	0.372244835	-0.068618774	0.083959579	0.999984741	-0.005436897	0.000245094	-0.000939369	9.306120872	-1.71546936	2.098989487	-0.271846246	0.012254777	-0.046968699	-0.727539063	0.6875	0.182617188	895.96	-37.8905952	-68.54398238	-82.85563607	-49
25315	0	0.362487793	-0.072998047	0.082458496	0.999985695	-0.005264282	0.000630379	-0.000507355	9.062194824	-1.824951172	2.061462402	-0.263215356	0.031519085	-0.025367857	-0.729980469	0.683105469	0.188964844	896.02	-38.25385528	-68.54722591	-83.10211826	-49
25316	0	0.356106758	-0.06344223	0.077297211	0.999984741	-0.005189896	0.001530647	0.000741005	8.902668953	-1.586055756	1.932430267	-0.259496072	0.076532744	0.037050431	-0.730224609	0.683349609	0.197509766	896.08	-38.73016319	-68.38275034	-83.22330548	-50
25317	0	0.341674805	-0.059509277	0.069396973	0.999961853	-0.007727623	0.003055573	0.002422333	8.541870117	-1.487731934	1.734924316	-0.386385974	0.152780533	0.121118151	-0.732421875	0.681152344	0.200927734	896	-39.59125838	-67.96320689	-83.24539679	-49
25318	0	0.309368134	-0.062767982	0.074672699	0.999958038	-0.006691933	0.004080772	0.004641533	7.734203339	-1.569199562	1.866817474	-0.334601261	0.204041442	0.232079855	-0.727783203	0.683349609	0.206298828	896.02	-40.60561669	-67.29095165	-82.97920414	-49
25319	0	0.290771484	-0.039611816	0.07434082	0.999926567	-0.006477356	0.007660866	0.006763458	7.269287109	-0.99029541	1.858520508	-0.3238757	0.383052635	0.338181164	-0.723388672	0.689941406	0.205322266	895.96	-41.35875479	-66.14928283	-82.9725159	-49
25320	0	0.274039268	-0.019821167	0.090716362	0.999734879	-0.015041351	0.015248299	0.008400917	6.850981712	-0.495529175	2.26790905	-0.75213393	0.76248221	0.420082919	-0.716308594	0.694091797	0.210449219	895.96	-42.10454232	-64.2349599	-84.06457376	-51
25321	0	0.216674805	-0.019165039	0.12890625	0.999433517	-0.018782616	0.024543762	0.013313293	5.416870117	-0.479125977	3.22265625	-0.939308123	1.227419845	0.665790373	-0.711914063	0.705078125	0.203613281	896	-42.74013047	-61.15868397	-85.79208001	-51
25322	0	0.151111603	-0.024917603	0.192055702	0.999160767	-0.009745598	0.030835152	0.025130272	3.77779007	-0.622940063	4.801392555	-0.487416215	1.542188911	1.256865122	-0.700683594	0.724853516	0.192382813	895.96	-43.31858507	-56.63513811	-86.49811366	-54
25323	0	0.198486328	-0.062744141	0.215820313	0.999005318	0.008968353	0.03117466	0.030590057	4.962158203	-1.568603516	5.395507813	0.448566376	1.55924992	1.530010109	-0.665771484	0.765869141	0.155029297	896	-42.44504506	-51.652672	-86.41287213	-58
25324	0	0.262526512	-0.098826408	0.23032093	0.998790741	0.030727386	0.031374931	0.022070885	6.563162804	-2.47066021	5.758023262	1.536988561	1.569378853	1.103989021	-0.620849609	0.810791016	0.087402344	895.96	-38.40803618	-47.29467222	-87.18063739	-60
25325	0	0.272155762	-0.088500977	0.153076172	0.998521805	0.039212227	0.034610748	0.014785767	6.803894043	-2.212524414	3.826904297	1.961577943	1.731390586	0.739652806	-0.593994141	0.840576172	-0.015625	896.08	-32.9313769	-43.10486434	-88.63804549	-61
25326	0	0.323982239	-0.095963478	0.023226738	0.998515129	0.031585693	0.04186058	0.014731407	8.099555969	-2.399086952	0.580668449	1.580066663	2.094065402	0.736935077	-0.561523438	0.856445313	-0.126708984	895.94	-28.42507828	-38.14536641	-90.05390991	-59
25327	0	0.319396973	-0.050292969	-0.075805664	0.998565674	0.009560585	0.050098419	0.016254425	7.984924316	-1.257324219	-1.895141602	0.478257842	2.506118798	0.813109891	-0.51953125	0.867919922	-0.220458984	895.96	-26.60165737	-32.23203459	-91.35613441	-57
25328	0	0.307783127	-0.133453369	0.016030312	0.999074936	-0.009695053	0.041386604	0.006474495	7.694578171	-3.336334229	0.40075779	-0.484902145	2.069968364	0.323824578	-0.461669922	0.885498047	-0.277832031	895.94	-26.85268221	-27.71221751	-93.0235649	-56
25329	0	0.647705078	-0.38861084	0.190490723	0.998700142	-0.035217285	0.019062996	-0.031520844	16.19262695	-9.715270996	4.762268066	-1.761627375	0.953562868	-1.576725195	-0.447509766	0.891601563	-0.290771484	896	-28.68537173	-27.53317153	-97.5412128	-63
25330	0	0.384593964	-1.012229919	1.050879478	0.997006416	-0.071622849	-0.017499924	-0.023247719	9.614849091	-25.30574799	26.27198696	-3.584719191	-0.875870112	-1.163546906	-0.499511719	0.889648438	-0.194335938	895.96	-36.26933764	-30.7104484	-98.65232488	-58
25331	0	0.200073242	-0.424560547	0.774475098	0.998799324	-0.001777649	-0.046408653	-0.01556015	5.001831055	-10.61401367	19.36187744	-0.088918023	-2.321361468	-0.778318922	-0.551269531	0.876708984	-0.082275391	896.06	-37.65438969	-36.07450902	-96.40886374	-55
25332	0	-0.010786057	-0.374526978	0.326999664	0.998937607	0.023651123	-0.038056374	0.010686874	-0.269651413	-9.363174438	8.174991608	1.182974758	-1.903492246	0.534532868	-0.571289063	0.87109375	-0.025390625	896.12	-37.74602923	-38.8015443	-91.85205145	-54
25333	0	-0.180725098	-0.212890625	0.526672363	0.997880936	0.058339119	-0.024131775	0.015731812	-4.518127441	-5.322265625	13.16680908	2.919017929	-1.207441677	0.787146613	-0.552246094	0.883789063	-0.047851563	896.02	-33.5909115	-39.99434687	-87.96000248	-55
25334	0	-0.355057716	-0.118371964	0.360672951	0.999269485	0.036898613	0.008183479	0.005590439	-8.876442909	-2.959299088	9.016823769	1.845379794	0.409273578	0.279589991	-0.53125	0.88671875	-0.145507813	896.08	-29.40850223	-38.83026766	-87.92795362	-55
25335	0	-0.04107666	-0.128723145	0.461975098	0.999364853	-0.02439785	0.025188446	0.006225586	-1.026916504	-3.218078613	11.54937744	-1.220150549	1.259688711	0.311345143	-0.518554688	0.888183594	-0.187255859	896.08	-31.5507447	-35.93497919	-88.9990563	-57
25336	0	0.15058136	-0.388485909	0.441732407	0.998916626	-0.026958466	0.036902428	0.008705139	3.764533997	-9.712147713	11.04331017	-1.348409978	1.845787607	0.435414118	-0.493408203	0.905517578	-0.163818359	896.06	-33.67939687	-31.77916199	-90.74889266	-59
25337	0	0.442687988	-0.228759766	0.326843262	0.998150826	-0.047981262	0.035058022	0.012775421	11.06719971	-5.718994141	8.171081543	-2.400542786	1.753982218	0.639165033	-0.463134766	0.920166016	-0.152099609	896.06	-38.51349012	-27.62507276	-92.11441573	-60
25338	0	0.487272263	-0.272407532	0.274213791	0.996188164	-0.080989838	0.029195786	0.014047623	12.18180656	-6.810188293	6.855344772	-4.054645034	1.46164692	0.703274944	-0.427490234	0.946533203	-0.065917969	896.02	-47.28687653	-24.04868073	-93.31680385	-63
25339	0	0.500366211	-0.418334961	0.266479492	0.99932766	0.036128998	0.006066322	0.000827789	12.50915527	-10.45837402	6.661987305	1.806854415	0.303384039	0.041398734	-0.403808594	0.957763672	0.051513672	896.06	-42.97312395	-23.47636859	-93.79641029	-64
25340	0	0.216769218	0.133324623	0.2072258	0.998545647	0.052765846	0.009815216	-0.00498867	5.419230461	3.333115578	5.180644989	2.639571561	0.490998762	-0.249554462	-0.407714844	0.949951172	-0.105224609	896.08	-36.42773662	-22.97016324	-95.05135826	-64
25341	0	0.180969238	-0.039367676	0.24609375	0.99987793	0.006257057	-0.000988007	0.014282227	4.524230957	-0.984191895	6.15234375	0.312865589	-0.04940234	0.714140385	-0.413330078	0.938476563	-0.171142578	896.02	-36.28027013	-22.08903707	-93.58469797	-63
25342	0	0.128328323	-0.145799637	0.235631943	0.999961853	-0.004572868	-0.000159264	0.007414818	3.208208084	-3.644990921	5.890798569	-0.22864631	-0.007963281	0.370745582	-0.380371094	0.953125	-0.168212891	896	-37.07584598	-21.5951008	-92.83961551	-61
25343	0	0.03302002	-0.131408691	0.253051758	0.999863625	0.007587433	-0.002451897	-0.014415741	0.825500488	-3.285217285	6.326293945	0.379388805	-0.122600379	-0.720819655	-0.380615234	0.955322266	-0.162597656	896.12	-35.72341679	-22.79693654	-94.06524804	-60
25344	0	0.097661972	-0.129652023	0.241416931	0.99958992	0.002168655	-0.004765511	-0.028146744	2.441549301	-3.241300583	6.035423279	0.108447588	-0.23830809	-1.407529514	-0.415527344	0.938476563	-0.1796875	896.06	-34.43140352	-25.09243876	-96.55674025	-58
25345	0	0.143920898	-0.140380859	0.250061035	0.999223709	-0.006121635	-0.006835938	-0.038291931	3.598022461	-3.509521484	6.251525879	-0.306160923	-0.341885261	-1.915091659	-0.479003906	0.909423828	-0.173828125	896.16	-33.51466328	-28.19032583	-100.0798506	-57
25346	0	0.223635674	-0.353317261	0.293776512	0.999373436	-0.01455307	-0.008543015	-0.031086922	5.590891838	-8.832931519	7.344412804	-0.727805325	-0.42723985	-1.554670393	-0.549804688	0.869384766	-0.145996094	896.12	-33.80335453	-30.97434747	-102.8287936	-57
25347	0	0.202026367	-0.400939941	0.355041504	0.999781609	0.016845703	-0.008307457	-0.009078979	5.05065918	-10.02349854	8.876037598	0.842346265	-0.415402984	-0.453981909	-0.594726563	0.842041016	-0.117919922	896.02	-31.6543074	-32.32673124	-103.2607677	-58
25348	0	0.203802109	-0.269669533	0.361157417	0.999982834	-0.001220703	-0.004668236	0.003296852	5.095052719	-6.741738319	9.028935432	-0.061035504	-0.233413118	0.164843544	-0.603271484	0.831054688	-0.139892578	896.06	-32.18369818	-32.56683765	-102.563932	-57
25349	0	0.169433594	-0.206726074	0.338867188	0.999983788	-0.002655029	-0.00366497	0.003395081	4.235839844	-5.168151855	8.471679688	-0.132752173	-0.183249497	0.169754934	-0.599121094	0.83984375	-0.129150391	896.06	-32.84755484	-32.6945074	-101.9232231	-58
25350	0	0.190133095	-0.165924072	0.302240372	0.999969482	-0.005284309	-0.004317284	-0.003601074	4.75332737	-4.148101807	7.556009293	-0.264218091	-0.215866323	-0.180055497	-0.594726563	0.844238281	-0.115234375	896.02	-33.40749475	-33.31627597	-102.0159915	-58
25351	0	0.198242188	-0.176147461	0.275939941	0.999949455	-0.003292084	-0.004725456	-0.008197784	4.956054688	-4.403686523	6.898498535	-0.164606941	-0.236276765	-0.409896078	-0.606689453	0.8359375	-0.102050781	896.06	-33.46261375	-34.26763035	-102.6016602	-58
25352	0	0.218042374	-0.156472206	0.244605064	0.999955177	0.001347542	-0.005033493	-0.007798195	5.451059341	-3.911805153	6.11512661	0.067378078	-0.251678342	-0.389915461	-0.620849609	0.827392578	-0.088867188	896.06	-33.01152855	-35.22313736	-103.1310977	-58
25353	0	0.224914551	-0.142211914	0.220153809	0.999958038	0.002911568	-0.006271362	-0.005859375	5.62286377	-3.555297852	5.503845215	0.145580377	-0.313572408	-0.292972761	-0.632324219	0.814453125	-0.084228516	896.06	-32.55410538	-36.17626779	-103.3563426	-59
25354	0	0.252175331	-0.130087852	0.204541206	0.999933243	0.006363869	-0.008103371	-0.005052567	6.304383278	-3.252196312	5.113530159	0.31820042	-0.405177427	-0.252633872	-0.644042969	0.805908203	-0.083007813	896.08	-31.83027814	-37.25938209	-103.3627829	-60
25355	0	0.266906738	-0.120117188	0.202941895	0.999932289	0.003658295	-0.008784294	-0.006614685	6.672668457	-3.002929688	5.073547363	0.182918828	-0.439224538	-0.330741656	-0.653320313	0.797363281	-0.081787109	896.08	-31.31997198	-38.5065091	-103.5213237	-61
25356	0	0.283389091	-0.130410194	0.227978706	0.999925613	-0.002130508	-0.009039879	-0.007807732	7.084727287	-3.26025486	5.699467659	-0.106528035	-0.452005033	-0.390396161	-0.667236328	0.786621094	-0.07421875	895.96	-31.38113388	-39.8525059	-103.8178449	-61
25357	0	0.276733398	-0.165710449	0.278198242	0.999930382	-0.005153656	-0.007845879	-0.007095337	6.918334961	-4.14276123	6.954956055	-0.257688747	-0.392302984	-0.354775033	-0.679199219	0.778076172	-0.058349609	895.96	-31.78262319	-41.04055637	-104.1142549	-61
25358	0	0.28447628	-0.192200661	0.288710594	0.999968529	-0.000377655	-0.006151199	-0.004878044	7.111907005	-4.805016518	7.217764854	-0.018882946	-0.307563134	-0.243904718	-0.693603516	0.769775391	-0.039306641	896.02	-31.73407674	-41.92994588	-104.2681665	-62
25359	0	0.27722168	-0.162536621	0.308959961	0.999993324	-0.000583649	-0.003001213	-0.001483917	6.930541992	-4.063415527	7.723999023	-0.02918249	-0.150060943	-0.074196005	-0.698242188	0.763427734	-0.032714844	896.08	-31.8325161	-42.30651488	-104.23962	-62
25360	0	0.274302483	-0.154070854	0.290659904	0.999996185	-0.002243042	-0.000761986	-0.001276016	6.857562065	-3.851771355	7.266497612	-0.112152235	-0.038099335	-0.063800889	-0.700927734	0.763427734	-0.023681641	896	-32.01523499	-42.45191797	-104.3679722	-62
25361	0	0.260620117	-0.146789551	0.255432129	0.999996185	0.000313759	-0.000995636	-0.0025177	6.51550293	-3.66973877	6.385803223	0.015687962	-0.049781861	-0.125885166	-0.700683594	0.759033203	-0.020507813	896.02	-31.80568327	-42.69514567	-104.6399615	-63
25362	0	0.271849632	-0.156745911	0.244796753	0.999995232	-0.000329971	-0.001024246	-0.002677917	6.796240807	-3.918647766	6.119918823	-0.016498589	-0.051212382	-0.13389606	-0.707763672	0.757080078	-0.019775391	896.02	-31.65505251	-42.95057844	-104.9330478	-63
25363	0	0.273193359	-0.158813477	0.240966797	0.999996185	-0.000182152	0.000148773	-0.00270462	6.829833984	-3.970336914	6.024169922	-0.009107601	0.007438669	-0.135231184	-0.712402344	0.750488281	-0.019042969	896.08	-31.41788502	-43.09273688	-105.3298587	-63
25364	0	0.270391464	-0.14877224	0.233240128	0.999993324	-0.001048088	0.001548767	-0.002998352	6.759786606	-3.719305992	5.831003189	-0.052404513	0.077438516	-0.149917915	-0.714355469	0.74609375	-0.021484375	896.08	-31.17410619	-43.11476468	-105.8782813	-64
25365	0	0.268798828	-0.152832031	0.236083984	0.999980927	-0.004710197	0.001758575	-0.003334045	6.719970703	-3.820800781	5.902099609	-0.235511301	0.087929305	-0.166703282	-0.718994141	0.741699219	-0.023681641	896.02	-31.30782478	-43.13622899	-106.4851195	-64
25366	0	0.266389847	-0.155179024	0.249354362	0.999975204	-0.005291939	0.002182961	-0.003864288	6.65974617	-3.879475594	6.233859062	-0.264599043	0.109148893	-0.193215953	-0.726074219	0.737548828	-0.017089844	896	-31.43590696	-43.14868765	-107.1985679	-64
25367	0	0.267944336	-0.153869629	0.250793457	0.999979019	-0.003661156	0.002162933	-0.004760742	6.698608398	-3.846740723	6.269836426	-0.183059028	0.108147402	-0.238038726	-0.730712891	0.728759766	-0.007568359	896.08	-31.29529186	-43.21644062	-108.0335856	-64
25368	0	0.274956703	-0.147764206	0.256938934	0.999983788	-0.001107216	0.001852036	-0.005260468	6.87391758	-3.694105148	6.423473358	-0.055361092	0.092602275	-0.263024794	-0.737792969	0.722412109	-0.006591797	896.06	-30.83041261	-43.34116155	-108.9120355	-64
25369	0	0.271850586	-0.147827148	0.246520996	0.99998188	0.001800537	0.001961708	-0.005332947	6.796264648	-3.695678711	6.163024902	0.090027389	0.098085984	-0.266648918	-0.746826172	0.713623047	-0.008300781	896.08	-30.01581028	-43.45239225	-109.81581	-64
25370	0	0.264369965	-0.183423042	0.233085632	0.999983788	0.004940033	0.000196457	-0.00272274	6.609249115	-4.585576057	5.827140808	0.247002959	0.009822898	-0.136137731	-0.753662109	0.70703125	-0.019042969	896.06	-29.18211135	-43.582115	-110.2275648	-63
25371	0	0.273986816	-0.14630127	0.24786377	0.999997139	-0.001296997	0.00049305	0.001861572	6.84967041	-3.657531738	6.196594238	-0.064849912	0.024652503	0.093078697	-0.755615234	0.704833984	-0.02734375	896.02	-29.48183531	-43.42370052	-110.0347137	-63
25372	0	0.25227356	-0.174762726	0.256205559	0.999919891	-0.011688232	0.002133369	0.004158974	6.306838989	-4.369068146	6.405138969	-0.584427057	0.10667129	0.207954177	-0.751220703	0.70703125	-0.019042969	896.06	-31.09441583	-42.96638769	-109.6660519	-63
25373	0	0.244567871	-0.200317383	0.254455566	0.999848366	-0.016117096	0.00224781	0.006099701	6.114196777	-5.00793457	6.36138916	-0.805895367	0.112396176	0.3050004	-0.744628906	0.713623047	-0.002441406	895.96	-33.36492822	-42.36827446	-109.0763045	-60
25374	0	0.248243332	-0.206398964	0.278722763	0.999960899	-0.005748749	0.002058029	0.006258011	6.206083298	-5.159974098	6.968069077	-0.287441101	0.10290277	0.31290453	-0.733398438	0.724609375	0.013427734	896	-34.44825236	-41.76295612	-108.4793042	-59
25375	0	0.265869141	-0.137634277	0.265563965	0.999991417	0.002056122	9.63211E-05	0.003334045	6.646728516	-3.440856934	6.639099121	0.102806354	0.004816068	0.166702697	-0.7265625	0.733398438	0.015136719	896.02	-34.49047377	-41.52846286	-108.0923462	-58
25376	0	0.259322166	-0.097063065	0.224323273	0.999974251	0.003790855	-0.005958557	-0.000582695	6.483054161	-2.426576614	5.608081818	0.189544357	-0.29793035	-0.029134994	-0.724365234	0.737792969	0.014648438	896.08	-34.3519641	-42.12236299	-107.6681134	-57
25377	0	0.29699707	-0.088256836	0.22479248	0.999959946	0.002537727	-0.008094788	-0.002811432	7.424926758	-2.206420898	5.619812012	0.126888057	-0.404744768	-0.140573466	-0.726806641	0.733398438	0.026855469	896.06	-34.29311513	-43.0664109	-107.3423152	-57
25378	0	0.315116882	-0.099131584	0.226216316	0.999974251	-0.002735138	-0.00510788	-0.004089355	7.877922058	-2.478289604	5.655407906	-0.136758043	-0.255396123	-0.204469487	-0.7265625	0.726806641	0.027587891	896.08	-34.54610775	-43.81389853	-107.4344177	-57
25379	0	0.280395508	-0.168701172	0.240539551	0.999978065	-0.005542755	-0.002108574	-0.002643585	7.009887695	-4.217529297	6.01348877	-0.277139704	-0.105429436	-0.132180189	-0.736083984	0.72265625	0.040039063	896.12	-35.06665311	-44.1850452	-107.609428	-57
25380	0	0.266354561	-0.158434868	0.234128952	0.999986649	-0.004249573	-0.002606392	-0.00122261	6.658864021	-3.960871696	5.853223801	-0.212479571	-0.130320168	-0.061130792	-0.738525391	0.718261719	0.055175781	896.08	-35.60276377	-44.50940914	-107.5537465	-57
25381	0	0.269226074	-0.178039551	0.233703613	0.999987602	-0.00346756	-0.00290966	-0.001636505	6.730651855	-4.45098877	5.842590332	-0.17337866	-0.145483579	-0.081825572	-0.738525391	0.713867188	0.064208984	896.08	-36.03534393	-44.88866001	-107.5178454	-57
25382	0	0.276100159	-0.173929214	0.222107887	0.999991417	0.001255035	-0.00340271	-0.001832008	6.902503967	-4.348230362	5.552697182	0.062751943	-0.170135966	-0.09160067	-0.743408203	0.711914063	0.070556641	896	-35.94426134	-45.3266171	-107.4610941	-57
25383	0	0.286071777	-0.161376953	0.22265625	0.999990463	0.002846718	-0.002983093	-0.001255035	7.151794434	-4.034423828	5.56640625	0.142336332	-0.149155125	-0.062751964	-0.743408203	0.709716797	0.073486328	896.02	-35.69610694	-45.68742694	-107.3695719	-57
25384	0	0.294658661	-0.173182487	0.230195045	0.999960899	0.008629799	-0.00141716	-9.05991E-05	7.366466522	-4.329562187	5.754876137	0.431495445	-0.070858905	-0.004530011	-0.745849609	0.709716797	0.070800781	896	-34.78817885	-45.82550414	-107.281272	-56
25385	0	0.281311035	-0.186950684	0.221862793	0.999781609	0.020805359	-0.000723839	0.001308441	7.032775879	-4.67376709	5.546569824	1.040343396	-0.036194565	0.065426803	-0.745605469	0.711914063	0.053222656	896.06	-32.57491891	-45.8101203	-107.0776613	-56
25386	0	0.285552979	-0.134710312	0.233159065	0.999787331	0.020389557	-0.001577377	0.002516747	7.138824463	-3.367757797	5.828976631	1.019549996	-0.078874448	0.125846232	-0.740234375	0.713623047	0.026367188	896.06	-30.58268948	-45.81193087	-106.6324507	-56
25387	0	0.290710449	-0.115905762	0.23626709	0.999900818	0.013905525	-0.001022339	0.001598358	7.26776123	-2.897644043	5.906677246	0.695299086	-0.051118622	0.079920531	-0.737548828	0.720214844	-0.003417969	896.08	-29.20536471	-45.82164173	-106.3537204	-56
25388	0	0.292207718	-0.113095284	0.228147507	0.999992371	0.003627777	-0.000353813	0.000702858	7.305192947	-2.827382088	5.703687668	0.181389272	-0.017690699	0.035142979	-0.735107422	0.722167969	-0.015380859	896.08	-28.87418062	-45.81845127	-106.2507036	-56
25389	0	0.288208008	-0.125366211	0.244567871	0.999984741	-0.005343437	0.000431061	0.000152588	7.205200195	-3.134155273	6.114196777	-0.26717314	0.021553143	0.007629431	-0.735107422	0.722167969	-0.015380859	896.02	-29.46872727	-45.76751632	-106.2856408	-56
25390	0	0.280692101	-0.134550095	0.245278358	0.999978065	-0.006513596	-0.000181198	0.000209808	7.017302513	-3.363752365	6.131958961	-0.325682086	-0.00905997	0.010490492	-0.737792969	0.722412109	-0.006591797	896.08	-30.23830137	-45.77417782	-106.2654633	-56
25391	0	0.284851074	-0.140197754	0.242736816	0.999991417	-0.003803253	-0.000842094	0.000938416	7.121276855	-3.504943848	6.06842041	-0.190163168	-0.042104834	0.046920902	-0.735351563	0.722412109	-0.000732422	896.06	-30.8108558	-45.80333816	-106.0861359	-56
25392	0	0.287493706	-0.141460419	0.238620758	0.999997139	-0.001795769	-0.00069046	0.001253128	7.187342644	-3.536510468	5.965518951	-0.089788516	-0.034523041	0.062656458	-0.733154297	0.724609375	0.004638672	896.12	-31.17628169	-45.79806881	-105.8749521	-56
25393	0	0.284423828	-0.145874023	0.22845459	0.999999046	-0.000724792	0.000290871	0.000934601	7.110595703	-3.646850586	5.711364746	-0.036239633	0.014543537	0.046730053	-0.730957031	0.726806641	0.010253906	896.06	-31.32732056	-45.71514783	-105.7931	-56
25394	0	0.285609245	-0.143446922	0.230304718	0.999999046	8.01086E-05	0.000864029	0.000953674	7.140231133	-3.586173058	5.75761795	0.004005433	0.043201459	0.047683729	-0.730957031	0.726806641	0.013183594	896.08	-31.3529606	-45.57518802	-105.7625104	-56
25395	0	0.282165527	-0.14239502	0.235351563	0.999999046	-0.000747681	0.000546455	0.000576019	7.054138184	-3.559875488	5.883789063	-0.037384041	0.027322775	0.02880097	-0.730957031	0.726806641	0.007324219	896.16	-31.45485165	-45.48888014	-105.7551064	-57
25396	0	0.283081055	-0.14618969	0.237273216	0.999999046	-0.000634193	0.000137329	0.000216484	7.077026367	-3.654742241	5.931830406	-0.031709673	0.006866456	0.010824204	-0.728515625	0.728759766	0.007080078	896.08	-31.53287862	-45.46405611	-105.7583392	-57
25397	0	0.283508301	-0.144836426	0.235595703	0.999999046	-0.000270844	-0.000105858	0.00019455	7.08770752	-3.620910645	5.889892578	-0.013542176	-0.005292893	0.009727478	-0.728515625	0.728759766	0.007080078	896.06	-31.58195125	-45.46439705	-105.743675	-57
25398	0	0.282280922	-0.143792152	0.234847069	0.999999046	-4.00543E-05	-0.000293732	-3.52859E-05	7.057023048	-3.59480381	5.87117672	-0.002002716	-0.014686585	-0.001764298	-0.728759766	0.731201172	0.012695313	896.02	-31.593251	-45.49696835	-105.7457191	-57
25399	0	0.282470703	-0.141845703	0.234619141	0.999999046	-8.39233E-05	-1.43051E-05	-3.43323E-05	7.061767578	-3.546142578	5.865478516	-0.004196167	-0.000715256	-0.001716614	-0.728515625	0.728759766	0.007080078	896.02	-31.59250542	-45.5023483	-105.7695091	-57
25400	0	0.283280373	-0.142659187	0.235013008	0.999999046	5.24521E-05	9.72748E-05	6.48499E-05	7.082009315	-3.566479683	5.875325203	0.002622604	0.004863739	0.003242493	-0.728759766	0.729003906	0.012939453	896.06	-31.57910032	-45.49101803	-105.7928548	-56
25401	0	0.284423828	-0.142700195	0.233459473	0.999999046	-5.34058E-05	1.23978E-05	0.000156403	7.110595703	-3.567504883	5.836486816	-0.002670288	0.000619888	0.007820129	-0.728759766	0.731201172	0.012695313	895.96	-31.59210507	-45.48270246	-105.7939576	-57
25402	0	0.28315258	-0.143058777	0.234426498	0.999999046	-0.000102997	0.000102997	0.000270844	7.078814507	-3.576469421	5.86066246	-0.005149841	0.005149841	0.013542176	-0.728515625	0.728759766	0.007080078	896.08	-31.61659184	-45.45881018	-105.7857379	-57
25403	0	0.282104492	-0.143310547	0.235656738	0.999999046	-1.90735E-05	-5.62668E-05	0.000278473	7.052612305	-3.582763672	5.891418457	-0.000953674	-0.002813339	0.013923645	-0.728759766	0.729003906	0.012939453	896.08	-31.64186511	-45.4500588	-105.7670698	-57
25404	0	0.282844543	-0.144515038	0.236534119	0.999999046	0.000254631	-0.000162125	8.67844E-05	7.071113586	-3.612875938	5.913352966	0.012731552	-0.008106232	0.004339218	-0.728759766	0.729003906	0.012939453	896.06	-31.62321318	-45.46319762	-105.7659161	-56
25405	0	0.283081055	-0.143737793	0.23425293	0.999999046	0.000434875	-0.00026226	-6.86646E-05	7.077026367	-3.593444824	5.856323242	0.021743775	-0.013113022	-0.003433228	-0.728759766	0.731201172	0.006835938	896.02	-31.5746185	-45.49557877	-105.7712598	-57
25406	0	0.284139633	-0.143493652	0.236120224	0.999999046	0.000278473	-0.000202179	0.000114441	7.103490829	-3.587341309	5.9030056	0.013923645	-0.010108948	0.005722046	-0.728515625	0.728759766	0.007080078	896.06	-31.55840432	-45.5112102	-105.7586583	-57
25407	0	0.282592773	-0.143554688	0.236572266	0.999999046	0.000583649	-0.000437737	-3.8147E-06	7.064819336	-3.588867188	5.914306641	0.029182437	-0.021886828	-0.000190735	-0.728759766	0.728759766	0.010009766	896.08	-31.50978681	-45.55696652	-105.7444181	-57
25408	0	0.281823158	-0.141997337	0.234659195	0.999999046	0.000432014	-0.000461578	3.05176E-05	7.045578957	-3.549933434	5.866479874	0.021600725	-0.02307892	0.001525879	-0.726318359	0.728759766	0.009765625	896.06	-31.48336391	-45.60307501	-105.7203535	-56
25409	0	0.283752441	-0.142883301	0.234924316	0.999999046	0.000244141	-0.000231743	-4.57764E-05	7.093811035	-3.57208252	5.87310791	0.012207031	-0.011587143	-0.002288818	-0.728759766	0.728759766	0.010009766	896.06	-31.45680312	-45.63138674	-105.7289107	-57
25410	0	0.28472805	-0.141766548	0.234250069	0.999999046	0.000360489	-7.43866E-05	-6.19888E-05	7.118201256	-3.544163704	5.856251717	0.018024445	-0.00371933	-0.003099442	-0.728759766	0.731201172	0.012695313	896.08	-31.40561767	-45.64543762	-105.7523701	-57
25411	0	0.283447266	-0.142578125	0.23651123	0.999999046	0.001064301	-7.15256E-05	-6.48499E-05	7.086181641	-3.564453125	5.912780762	0.053215037	-0.003576279	-0.003242493	-0.728759766	0.729003906	0.012939453	896.06	-31.27323643	-45.65937881	-105.7793003	-57
25412	0	0.284902573	-0.140761375	0.234389305	0.999999046	0.001294136	-0.00025177	-1.90735E-05	7.122564316	-3.519034386	5.859732628	0.064706821	-0.012588505	-0.000953675	-0.728515625	0.728759766	0.007080078	896.08	-31.12998597	-45.68840542	-105.781129	-57
25413	0	0.28503418	-0.140258789	0.234802246	0.999999046	0.000595093	0.000119209	5.34058E-05	7.125854492	-3.506469727	5.870056152	0.029754641	0.005960465	0.002670288	-0.730957031	0.729003906	0.007080078	896.08	-31.05155086	-45.67689653	-105.8071859	-57
25414	0	0.284414291	-0.138667107	0.234850883	0.999999046	-0.000177383	0.000465393	0.000311852	7.110357285	-3.466677666	5.871272087	-0.008869172	0.023269655	0.015592576	-0.728515625	0.728759766	0.001220703	896.08	-31.06656449	-45.61627436	-105.8206524	-57
25415	0	0.282714844	-0.140014648	0.235412598	0.999999046	-0.00069046	0.000767708	0.000553131	7.067871094	-3.500366211	5.885314941	-0.034523018	0.0383854	0.027656562	-0.728515625	0.728759766	0.004150391	896.02	-31.14618167	-45.51178114	-105.8294009	-57
25416	0	0.282254219	-0.141633034	0.238274574	0.999999046	-0.000489235	0.000482559	0.000414848	7.056355476	-3.540825844	5.956864357	-0.024461749	0.024127963	0.020742419	-0.728515625	0.728759766	0.004150391	896.08	-31.20594471	-45.44341662	-105.8344466	-57
25417	0	0.281311035	-0.142822266	0.238586426	0.999999046	-0.00012207	0.000184059	0.000362396	7.032775879	-3.570556641	5.964660645	-0.006103516	0.009202957	0.018119813	-0.726074219	0.728759766	0.00390625	896	-31.23631448	-45.40734518	-105.8195715	-57
25418	0	0.283196449	-0.141864777	0.236763	0.999999046	0.00021553	-4.76837E-05	0.000389099	7.079911232	-3.546619415	5.919075012	0.01077652	-0.002384186	0.019454957	-0.728759766	0.731201172	0.009765625	895.96	-31.24455452	-45.39247256	-105.7869386	-57
25419	0	0.281982422	-0.141418457	0.235900879	0.999999046	0.000469208	-0.000239372	0.000370026	7.049560547	-3.535461426	5.897521973	0.02346039	-0.011968613	0.018501283	-0.726318359	0.730957031	0.003662109	896	-31.23334093	-45.39759497	-105.7349799	-57
25420	0	0.282540321	-0.141101837	0.235286713	0.999999046	8.4877E-05	-1.14441E-05	0.000308037	7.063508034	-3.527545929	5.882167816	0.004243851	-0.000572205	0.01540184	-0.726074219	0.728759766	0.000976563	896.12	-31.24624735	-45.38419038	-105.7117164	-57
25421	0	0.281555176	-0.141479492	0.237548828	0.999999046	-0.000183105	0.000123024	0.000335693	7.038879395	-3.536987305	5.938720703	-0.009155274	0.0061512	0.016784668	-0.726318359	0.733154297	0.003662109	896.02	-31.28439208	-45.35596978	-105.6943326	-57
25422	0	0.280912399	-0.143219948	0.236526489	0.999999046	-0.000333786	4.95911E-05	0.000216484	7.022809982	-3.580498695	5.913162231	-0.016689301	0.002479553	0.010824204	-0.726318359	0.730957031	0.003662109	896.06	-31.33242347	-45.34202024	-105.6896065	-57
25423	0	0.282348633	-0.144042969	0.23651123	0.999999046	-0.000362396	0.000206947	1.14441E-05	7.05871582	-3.601074219	5.912780762	-0.018119813	0.010347367	0.000572205	-0.726318359	0.730957031	0.003662109	896.12	-31.35400294	-45.32492179	-105.7261955	-57
25424	0	0.281576157	-0.14422226	0.237133026	0.999999046	-0.000273705	0.000148773	-0.000138283	7.039403915	-3.605556488	5.928325653	-0.013685227	0.00743866	-0.006914139	-0.726318359	0.730957031	0.000732422	896.16	-31.35416368	-45.32243661	-105.7756321	-57
25425	0	0.282836914	-0.142822266	0.236633301	0.999999046	-0.000167847	9.53674E-07	0.000141144	7.070922852	-3.570556641	5.91583252	-0.008392334	4.76837E-05	0.00705719	-0.728759766	0.730957031	0.00390625	896.12	-31.37874599	-45.3178339	-105.7785843	-57
25426	0	0.282673836	-0.142616272	0.237988472	0.999999046	-0.00019455	8.2016E-05	0.000289917	7.066845894	-3.565406799	5.9497118	-0.009727478	0.0041008	0.01449585	-0.7265625	0.733154297	0.009521484	896.02	-31.41611449	-45.29645288	-105.7673394	-57
25427	0	0.280456543	-0.14276123	0.237426758	0.999999046	-0.000106812	3.52859E-05	0.000198364	7.011413574	-3.569030762	5.935668945	-0.005340576	0.001764298	0.009918213	-0.723876953	0.730957031	0.009521484	896.06	-31.43711845	-45.28508114	-105.7642774	-57
25428	0	0.281847954	-0.143656731	0.238574982	0.999999046	-0.000123024	-3.05176E-05	-1.62125E-05	7.046198845	-3.591418266	5.964374542	-0.006151199	-0.001525879	-0.000810623	-0.723876953	0.733154297	0.003417969	896	-31.4426946	-45.29294399	-105.778242	-57
25429	0	0.281799316	-0.143127441	0.237426758	0.999999046	-1.90735E-05	5.05447E-05	1.90735E-05	7.04498291	-3.578186035	5.935668945	-0.000953674	0.002527237	0.000953674	-0.728759766	0.731201172	0.006835938	896.02	-31.43489932	-45.29079413	-105.8040966	-57
25430	0	0.282135963	-0.14387989	0.236533165	1	-9.53674E-07	4.48227E-05	2.19345E-05	7.053399086	-3.596997261	5.913329124	-4.76837E-05	0.002241135	0.001096725	-0.724121094	0.733154297	0.009277344	896	-31.42568787	-45.28907514	-105.8230527	-57
25431	0	0.282165527	-0.143005371	0.235900879	0.999999046	-8.39233E-05	0.000138283	7.62939E-06	7.054138184	-3.575134277	5.897521973	-0.004196167	0.006914139	0.00038147	-0.726318359	0.733154297	0.006591797	896.06	-31.41893913	-45.27915184	-105.8522552	-57
25432	0	0.281121254	-0.143538475	0.236380577	0.999999046	-0.000149727	0.000192642	0.000113487	7.028031349	-3.588461876	5.909514427	-0.007486343	0.009632111	0.005674362	-0.726318359	0.733154297	0.006591797	896.02	-31.42693236	-45.25760964	-105.8713818	-57
25433	0	0.281555176	-0.143615723	0.236450195	0.999999046	-5.34058E-05	0.000157356	0.000106812	7.038879395	-3.590393066	5.911254883	-0.002670288	0.007867813	0.005340576	-0.723876953	0.730957031	0.003662109	896.12	-31.42538094	-45.23995652	-105.8859355	-57
25434	0	0.281755447	-0.142602921	0.237071991	0.999999046	-4.19617E-05	0.000249863	0.000144958	7.043886185	-3.565073013	5.926799774	-0.002098084	0.012493134	0.007247925	-0.726318359	0.733154297	0.000732422	896.06	-31.42065036	-45.21103	-105.9018361	-57
25435	0	0.281799316	-0.143615723	0.236755371	0.999999046	-3.8147E-06	0.000348091	3.43323E-05	7.04498291	-3.590393066	5.918884277	-0.000190735	0.017404557	0.001716614	-0.724121094	0.733154297	0.006347656	896	-31.39478149	-45.17915309	-105.9430311	-56
25436	0	0.280097961	-0.144431114	0.237863541	0.999999046	-3.91006E-05	0.000116348	3.33786E-05	7.002449036	-3.610777855	5.946588516	-0.001955032	0.005817413	0.00166893	-0.724121094	0.733154297	0.006347656	896.06	-31.38683704	-45.16994653	-105.9645475	-57
25437	0	0.280700684	-0.144287109	0.236083984	0.999999046	1.52588E-05	0.000161171	-3.8147E-05	7.01751709	-3.607177734	5.902099609	0.000762939	0.008058548	-0.001907349	-0.726318359	0.733154297	0.000732422	896.06	-31.36303054	-45.16065378	-105.9979813	-57
25438	0	0.281489372	-0.144319534	0.238375664	1	1.43051E-05	3.14713E-05	4.86374E-05	7.037234306	-3.607988358	5.959391594	0.000715256	0.001573563	0.00243187	-0.723876953	0.730957031	0.003662109	896	-31.35566962	-45.15886692	-106.0099329	-56
25439	0	0.28112793	-0.144104004	0.239624023	0.999999046	-8.01086E-05	0.000142097	-0.000102997	7.028198242	-3.602600098	5.990600586	-0.004005432	0.007104874	-0.005149841	-0.723876953	0.730957031	0.006591797	896.06	-31.33753074	-45.15524069	-106.0538224	-57
25440	0	0.27986908	-0.143474579	0.237604141	0.999999046	6.58035E-05	1.52588E-05	-4.19617E-05	6.99672699	-3.586864471	5.940103531	0.003290176	0.000762939	-0.002098083	-0.726318359	0.730957031	0.003662109	896.06	-31.31627597	-45.16036457	-106.0788745	-57
25441	0	0.281188965	-0.143310547	0.236022949	0.999999046	0.000141144	3.91006E-05	-3.43323E-05	7.029724121	-3.582763672	5.90057373	0.00705719	0.001955032	-0.001716614	-0.726318359	0.730957031	0.000732422	896.06	-31.28576123	-45.16277083	-106.102446	-57
25442	0	0.28057003	-0.143346786	0.238342285	1	6.19888E-05	-1.23978E-05	-2.28882E-05	7.014250755	-3.583669662	5.958557129	0.003099442	-0.000619888	-0.001144409	-0.726318359	0.730957031	0.003662109	896.06	-31.26850321	-45.16951525	-106.1218855	-57
25443	0	0.280578613	-0.143737793	0.237670898	0.999999046	-3.8147E-06	7.34329E-05	-8.01086E-05	7.014465332	-3.593444824	5.941772461	-0.000190735	0.003671646	-0.004005432	-0.726318359	0.730957031	0.003662109	896.12	-31.24804392	-45.1712434	-106.1559495	-57
25444	0	0.280077934	-0.143023491	0.23819828	0.999999046	2.76566E-05	-3.05176E-05	-2.67029E-05	7.001948357	-3.575587273	5.954957008	0.001382828	-0.001525879	-0.001335144	-0.726318359	0.730957031	0.003662109	896.02	-31.23543177	-45.17994731	-106.1734156	-57
25445	0	0.280944824	-0.14263916	0.237060547	0.999999046	0.000125885	-4.1008E-05	-8.39233E-05	7.023620605	-3.565979004	5.926513672	0.006294251	-0.0020504	-0.004196167	-0.726318359	0.730957031	0.000732422	896.06	-31.20653984	-45.19311642	-106.195308	-57
25446	0	0.281049728	-0.142715454	0.237987518	0.999999046	4.00543E-05	-3.24249E-05	-6.86646E-05	7.02624321	-3.567886353	5.949687958	0.002002716	-0.001621246	-0.003433228	-0.728515625	0.730957031	0.000976563	896.06	-31.18844737	-45.20454352	-106.2181226	-57
25447	0	0.280822754	-0.143493652	0.237915039	0.999999046	-4.19617E-05	-1.81198E-05	-0.000102997	7.020568848	-3.587341309	5.947875977	-0.002098084	-0.000905991	-0.005149841	-0.726318359	0.730957031	0.006591797	896.02	-31.1755379	-45.21658715	-106.2476467	-57
25448	0	0.280982971	-0.143029213	0.238807678	0.999999046	0.000199318	-5.34058E-05	-0.000126839	7.02457428	-3.575730324	5.970191956	0.009965897	-0.002670288	-0.006341934	-0.726318359	0.730957031	0.003662109	896.06	-31.13469567	-45.23346437	-106.2747972	-57
25449	0	0.283203125	-0.141540527	0.236450195	0.999999046	3.43323E-05	-4.86374E-05	-0.000133514	7.080078125	-3.538513184	5.911254883	0.001716614	-0.00243187	-0.00667572	-0.728515625	0.728759766	0.001220703	896.02	-31.11178646	-45.25040299	-106.3058531	-57
25450	0	0.280516624	-0.140900612	0.236370087	0.999999046	-5.53131E-05	8.58307E-05	3.71933E-05	7.012915611	-3.522515297	5.909252167	-0.002765656	0.004291534	0.001859665	-0.728515625	0.728759766	0.004150391	896.08	-31.10796937	-45.24408962	-106.3264296	-57
25451	0	0.281616211	-0.142944336	0.237548828	0.999999046	-1.90735E-05	5.43594E-05	0.000156403	7.040405273	-3.573608398	5.938720703	-0.000953674	0.002717972	0.007820129	-0.726318359	0.730957031	0.000732422	896.12	-31.11371922	-45.23382235	-106.320275	-57
25452	0	0.280262947	-0.143346786	0.240746498	0.999999046	0.000174522	-0.000135422	8.01086E-05	7.006573677	-3.583669662	6.018662453	0.00872612	-0.006771088	0.004005432	-0.728515625	0.728759766	0.004150391	896.08	-31.10102193	-45.24656155	-106.3165554	-57
25453	0	0.280578613	-0.143249512	0.238830566	0.999999046	0.000244141	-0.000235558	1.14441E-05	7.014465332	-3.581237793	5.97076416	0.012207031	-0.011777878	0.000572205	-0.728515625	0.728759766	0.004150391	896.12	-31.07954934	-45.27313106	-106.3136391	-57
25454	0	0.28172493	-0.142469406	0.236935616	0.999999046	0.000131607	-0.000169754	-8.01086E-05	7.043123245	-3.561735153	5.923390388	0.006580353	-0.008487701	-0.004005432	-0.728515625	0.728759766	0.004150391	896.02	-31.05801124	-45.29870252	-106.3283071	-57
25455	0	0.281005859	-0.14239502	0.235290527	0.999999046	-2.67029E-05	-8.29697E-05	-7.24792E-05	7.025146484	-3.559875488	5.882263184	-0.001335144	-0.004148483	-0.003623962	-0.730957031	0.731201172	-0.001708984	896.08	-31.05028454	-45.31536125	-106.3442342	-57
25456	0	0.281126976	-0.141695976	0.23755455	0.999999046	-3.33786E-05	-6.67572E-05	9.82285E-05	7.0281744	-3.542399406	5.938863754	-0.00166893	-0.00333786	0.004911423	-0.726074219	0.728759766	-0.001953125	896.16	-31.05927834	-45.32033791	-106.3343521	-57
25457	0	0.282104492	-0.141662598	0.23840332	0.999999046	-8.01086E-05	9.53674E-07	4.19617E-05	7.052612305	-3.541564941	5.960083008	-0.004005432	4.76837E-05	0.002098083	-0.728759766	0.730957031	0.00390625	896.12	-31.06394652	-45.32200355	-106.3430333	-57
25458	0	0.281908989	-0.141602516	0.236793518	0.999999046	5.34058E-05	6.29425E-05	0.000125885	7.047724724	-3.540062904	5.919837952	0.002670288	0.003147125	0.006294251	-0.728515625	0.728759766	0.004150391	896.02	-31.05794658	-45.3126744	-106.3478635	-57
25459	0	0.281555176	-0.14263916	0.238708496	0.999999046	-0.000137329	3.52859E-05	0.000160217	7.038879395	-3.565979004	5.967712402	-0.006866455	0.001764297	0.008010864	-0.730957031	0.729003906	0.004150391	896.02	-31.07886338	-45.30399259	-106.3483472	-57
25460	0	0.280576706	-0.14303875	0.238138199	0.999999046	0.000102043	-2.86102E-05	-4.29153E-05	7.014417648	-3.575968742	5.953454971	0.005102158	-0.001430511	-0.002145767	-0.728515625	0.728759766	0.001220703	896.08	-31.05605072	-45.31353529	-106.366411	-57
25461	0	0.28125	-0.141784668	0.238037109	0.999999046	0.00019455	-4.48227E-05	-4.95911E-05	7.03125	-3.544616699	5.950927734	0.009727478	-0.002241135	-0.002479553	-0.728515625	0.728759766	0.004150391	896.02	-31.02290751	-45.32504902	-106.3859564	-57
25462	0	0.282078743	-0.142580032	0.237700462	0.999999046	2.67029E-05	-0.000101089	-6.86646E-05	7.051968575	-3.564500809	5.942511559	0.001335144	-0.005054474	-0.003433228	-0.728515625	0.728759766	0.004150391	896.06	-31.01049916	-45.34322158	-106.4027574	-57
25463	0	0.281433105	-0.14239502	0.238220215	0.999999046	3.8147E-06	-6.38962E-05	-2.28882E-05	7.035827637	-3.559875488	5.955505371	0.000190735	-0.003194809	-0.001144409	-0.730957031	0.729003906	0.004150391	896.08	-31.00305275	-45.3550068	-106.4185109	-57
25464	0	0.281165123	-0.141953468	0.239343643	0.999999046	9.25064E-05	-0.000164032	3.71933E-05	7.029128075	-3.548836708	5.98359108	0.00462532	-0.008201599	0.001859665	-0.728515625	0.728759766	0.001220703	896	-30.99734839	-45.37301022	-106.4122571	-57
25465	0	0.282409668	-0.141845703	0.23815918	0.999999046	6.48499E-05	-4.1008E-05	5.34058E-05	7.060241699	-3.546142578	5.953979492	0.003242493	-0.0020504	0.002670288	-0.728515625	0.730957031	0.000976563	896.12	-30.98906209	-45.37798091	-106.4112949	-57
25466	0	0.281009674	-0.142150879	0.237726212	0.999999046	-0.000167847	5.34058E-05	6.10352E-05	7.025241852	-3.553771973	5.943155289	-0.008392334	0.002670288	0.003051758	-0.728515625	0.728759766	0.007080078	896.06	-31.00258892	-45.37319294	-106.424211	-57
25467	0	0.280151367	-0.142211914	0.237304688	0.999999046	8.01086E-05	-1.81198E-05	3.05176E-05	7.00378418	-3.555297852	5.932617188	0.004005432	-0.000905991	0.001525879	-0.728515625	0.728759766	0.004150391	896.06	-30.9889839	-45.37717957	-106.4329675	-57
25468	0	0.282897949	-0.14127636	0.237865448	0.999999046	3.91006E-05	3.43323E-05	0.000193596	7.07244873	-3.531908989	5.9466362	0.001955032	0.001716614	0.009679794	-0.728515625	0.728759766	0.004150391	896.02	-30.99314174	-45.3664375	-106.4238021	-57
25469	0	0.28112793	-0.142578125	0.239929199	0.999999046	-9.53674E-05	-2.57492E-05	4.19617E-05	7.028198242	-3.564453125	5.99822998	-0.004768372	-0.00128746	0.002098084	-0.730957031	0.729003906	0.001220703	896.08	-31.00118274	-45.37044285	-106.4310243	-57
25470	0	0.279846191	-0.143074989	0.238482475	0.999999046	0.000219345	-0.000135422	4.48227E-05	6.996154785	-3.576874733	5.962061882	0.010967255	-0.006771088	0.002241135	-0.728515625	0.728759766	0.004150391	896.22	-30.98005446	-45.38494143	-106.4280193	-57
25471	0	0.283203125	-0.141296387	0.235839844	0.999999046	0.000225067	-0.000159264	-1.90735E-05	7.080078125	-3.532409668	5.895996094	0.011253357	-0.007963181	-0.000953674	-0.728515625	0.728759766	0.004150391	896.12	-30.95337512	-45.40567271	-106.4316338	-57
25472	0	0.281636238	-0.141057968	0.236727715	0.999999046	0.000100136	1.90735E-05	0.000109673	7.040905952	-3.526449203	5.918192863	0.00500679	0.000953674	0.005483627	-0.728515625	0.728759766	0.004150391	896.02	-30.94318785	-45.40132196	-106.4324187	-57
25473	0	0.281738281	-0.141967773	0.239318848	0.999999046	0	0.000107765	0.000144958	7.043457031	-3.549194336	5.982971191	0	0.00538826	0.007247925	-0.728515625	0.728759766	0.001220703	896.02	-30.94266519	-45.38611427	-106.4338229	-57
25474	0	0.280913353	-0.141195297	0.237730026	0.999999046	5.14984E-05	2.47955E-05	0.000137329	7.022833824	-3.529882431	5.943250656	0.002574921	0.001239777	0.006866455	-0.730957031	0.729003906	0.004150391	896.12	-30.94042378	-45.37949169	-106.4346226	-57
25475	0	0.280639648	-0.143005371	0.237487793	0.999999046	7.24792E-05	-6.00815E-05	0.000102997	7.015991211	-3.575134277	5.937194824	0.003623962	-0.003004074	0.005149841	-0.728515625	0.728759766	0.001220703	896.06	-30.93753056	-45.3831808	-106.4280546	-57
25476	0	0.281310081	-0.142540932	0.238938332	0.999999046	9.05991E-05	-0.000219345	9.91821E-05	7.032752037	-3.563523293	5.97345829	0.004529953	-0.010967255	0.004959106	-0.728759766	0.731201172	0.006835938	896.02	-30.94171869	-45.40268331	-106.4102912	-57
25477	0	0.280395508	-0.142578125	0.239807129	0.999999046	0.000110626	-0.000151634	-2.28882E-05	7.009887695	-3.564453125	5.995178223	0.005531311	-0.007581711	-0.001144409	-0.730957031	0.729003906	0.007080078	896.06	-30.9273929	-45.42259325	-106.4203961	-57
25478	0	0.281083107	-0.142146111	0.237738609	0.999998093	7.53403E-05	-0.000264168	-0.000113487	7.027077675	-3.553652763	5.943465233	0.003767014	-0.013208389	-0.005674362	-0.728515625	0.728759766	0.004150391	896.06	-30.91483025	-45.45886186	-106.4277212	-57
25479	0	0.282775879	-0.141357422	0.236877441	0.999999046	0.000232697	-0.000300407	-6.10352E-05	7.069396973	-3.533935547	5.921936035	0.011634827	-0.015020371	-0.003051758	-0.730957031	0.731201172	0.00390625	896.08	-30.89166213	-45.49565759	-106.4240465	-57
25480	0	0.282081604	-0.141152382	0.237443924	0.999999046	0.000142097	-0.000190735	4.57764E-05	7.0520401	-3.528809547	5.936098099	0.007104874	-0.009536743	0.002288818	-0.730957031	0.7265625	0.004394531	896.08	-30.88300039	-45.51538676	-106.4203193	-57
25481	0	0.281188965	-0.141967773	0.238037109	0.999999046	-4.95911E-05	-0.000266075	0.000106812	7.029724121	-3.549194336	5.950927734	-0.002479553	-0.013303757	0.005340576	-0.730957031	0.729003906	0.004150391	896.08	-30.90697578	-45.5388596	-106.3982136	-57
25482	0	0.282382965	-0.142051697	0.236956596	0.999999046	0.000108719	-0.000253677	4.48227E-05	7.059574127	-3.551292419	5.923914909	0.005435944	-0.012683869	0.002241135	-0.728515625	0.728759766	0.001220703	896.16	-30.90594308	-45.56475418	-106.3804535	-57
25483	0	0.281677246	-0.141296387	0.237304688	0.999999046	0.000164032	-0.000227928	-2.28882E-05	7.041931152	-3.532409668	5.932617188	0.008201599	-0.011396408	-0.001144409	-0.730957031	0.729003906	0.004150391	896.02	-30.89025136	-45.59206867	-106.379036	-57
25484	0	0.282708168	-0.141694069	0.239113808	0.999999046	9.44138E-05	-0.000299454	-4.19617E-05	7.067704201	-3.542351723	5.977845192	0.004720688	-0.014972687	-0.002098084	-0.730957031	0.729003906	0.001220703	896.06	-30.88488906	-45.62746872	-106.3713631	-57
25485	0	0.282592773	-0.140930176	0.237487793	0.999999046	0.0001297	-0.000319481	-1.14441E-05	7.064819336	-3.523254395	5.937194824	0.006484985	-0.015974045	-0.000572205	-0.730957031	0.7265625	0.004394531	896.12	-30.87975118	-45.66302426	-106.3626158	-57
25486	0	0.284762383	-0.14080143	0.238134384	0.999999046	-1.90735E-05	-0.000198364	2.28882E-05	7.119059563	-3.520035744	5.953359604	-0.000953674	-0.009918213	0.001144409	-0.733154297	0.726806641	0.001708984	896.16	-30.8877934	-45.68467607	-106.3591206	-57
25487	0	0.282836914	-0.142333984	0.237060547	0.999999046	0.00012207	-0.000281334	4.57764E-05	7.070922852	-3.558349609	5.926513672	0.006103516	-0.014066696	0.002288818	-0.730957031	0.729003906	0.004150391	896.06	-30.88706645	-45.71309505	-106.3414998	-57
25488	0	0.282468796	-0.141448021	0.237178802	0.999999046	0.00020504	-0.000371933	-0.000172615	7.061719894	-3.536200523	5.929470062	0.010251999	-0.01859665	-0.008630753	-0.728515625	0.7265625	0.007080078	896.02	-30.86029928	-45.76321624	-106.3481043	-57
25489	0	0.284240723	-0.140075684	0.235412598	0.999999046	0.000335693	-0.000296593	-3.8147E-05	7.106018066	-3.50189209	5.885314941	0.016784669	-0.014829636	-0.001907349	-0.730957031	0.729003906	0.001220703	896.12	-30.82759195	-45.79809579	-106.337286	-57
25490	0	0.284147263	-0.140506744	0.235825539	0.999999046	0.00015831	-0.000162125	-0.000152588	7.103681564	-3.51266861	5.895638466	0.007915497	-0.008106232	-0.007629395	-0.733398438	0.729003906	0.004394531	896.16	-30.79553385	-45.82649661	-106.3587786	-57
25491	0	0.28338623	-0.141113281	0.23614502	0.999999046	0.000114441	-0.000369072	-0.00018692	7.084655762	-3.527832031	5.903625488	0.005722046	-0.018453599	-0.009346009	-0.730957031	0.729003906	0.001220703	896.08	-30.77756744	-45.87725256	-106.3608682	-57
25492	0	0.282757759	-0.140831947	0.235235214	0.999999046	0.000103951	-0.00037384	-4.57764E-05	7.068943977	-3.520798683	5.880880356	0.005197525	-0.018692017	-0.002288818	-0.733398438	0.726806641	0.004394531	896.08	-30.77551322	-45.92017237	-106.3501636	-57
25493	0	0.284545898	-0.140014648	0.234985352	0.999999046	0.000228882	-0.000376701	-8.39233E-05	7.113647461	-3.500366211	5.874633789	0.011444092	-0.018835068	-0.004196167	-0.730957031	0.7265625	0.004394531	896.06	-30.75549324	-45.96565377	-106.3410451	-57
25494	0	0.283830643	-0.139738083	0.234834671	0.999999046	0.00015831	-0.000253677	-0.000103951	7.095766068	-3.493452072	5.870866776	0.007915497	-0.012683869	-0.005197525	-0.733398438	0.726806641	0.004394531	896.08	-30.7341003	-46.00020433	-106.347193	-57
25495	0	0.284606934	-0.140686035	0.236816406	0.999999046	0.000114441	-0.000193596	-7.24792E-05	7.11517334	-3.517150879	5.920410156	0.005722046	-0.009679794	-0.003623962	-0.733398438	0.726806641	0.007324219	896.02	-30.71732631	-46.02693782	-106.3556426	-57
25496	0	0.283986092	-0.140713692	0.235028267	0.999999046	0.000161171	-0.000328064	-2.67029E-05	7.09965229	-3.517842293	5.875706673	0.008058548	-0.016403199	-0.001335144	-0.733398438	0.726806641	0.004394531	896.06	-30.70813869	-46.06420976	-106.343273	-57
25497	0	0.284484863	-0.139160156	0.23449707	0.999999046	0.000190735	-0.000308037	5.72205E-05	7.112121582	-3.479003906	5.862426758	0.009536743	-0.015401841	0.002861023	-0.730957031	0.724365234	0.007568359	896.1	-30.70297483	-46.09462138	-106.3229159	-57
25498	0	0.285161972	-0.138920784	0.233823776	0.999999046	-0.000106812	-0.000106812	7.62939E-05	7.129049301	-3.4730196	5.845594406	-0.005340576	-0.005340576	0.003814697	-0.733154297	0.724365234	0.001708984	896.08	-30.72168383	-46.10415079	-106.3146177	-57
25499	0	0.285705566	-0.140625	0.23638916	0.999999046	-7.62939E-05	2.00272E-05	0.000179291	7.14263916	-3.515625	5.909729004	-0.003814697	0.001001358	0.008964539	-0.730712891	0.724365234	0.001708984	896.06	-30.73977365	-46.09511575	-106.2996141	-57
25500	0	0.284303665	-0.138627052	0.235890388	0.999999046	-0.000163078	0.000118256	0.000164032	7.107591629	-3.465676308	5.897259712	-0.008153915	0.005912781	0.008201599	-0.733154297	0.726806641	0.001708984	896.06	-30.7601999	-46.07726847	-106.2955853	-57
25501	0	0.284912109	-0.141052246	0.23638916	0.999999046	-0.000148773	0.000142097	0.000198364	7.122802734	-3.526306152	5.909729004	-0.00743866	0.007104874	0.009918213	-0.730957031	0.7265625	0.004394531	896.08	-30.78110272	-46.05499824	-106.2888471	-57
25502	0	0.284118652	-0.139831543	0.234840393	0.999999046	-5.34058E-05	0.000177383	0.000205994	7.102966309	-3.495788574	5.871009827	-0.002670288	0.008869171	0.010299683	-0.733398438	0.726806641	0.010253906	896.02	-30.78974163	-46.02879688	-106.2921737	-57
25503	0	0.28503418	-0.140258789	0.235107422	0.999999046	-0.000156403	0.000271797	0.000263214	7.125854492	-3.506469727	5.877685547	-0.00782013	0.013589859	0.013160706	-0.733398438	0.726806641	0.004394531	896.06	-30.81031968	-45.98996006	-106.2913798	-57
25504	0	0.283610344	-0.141886711	0.236680984	0.999999046	-0.000224113	0.000297546	0.000159264	7.090258598	-3.547167778	5.917024612	-0.011205674	0.01487732	0.007963181	-0.730957031	0.726806641	0.007324219	896.08	-30.82657988	-45.95459022	-106.3070466	-57
25505	0	0.282897949	-0.141357422	0.235961914	0.999999046	-7.24792E-05	1.23978E-05	0.000110626	7.07244873	-3.533935547	5.899047852	-0.003623962	0.000619888	0.005531311	-0.730957031	0.7265625	0.004394531	896.08	-30.83789831	-45.95005826	-106.3034879	-57
25506	0	0.284874916	-0.140295029	0.234360695	0.999999046	-4.95911E-05	9.72748E-05	8.39233E-05	7.121872902	-3.507375717	5.859017372	-0.002479553	0.004863739	0.004196167	-0.730957031	0.729003906	0.007080078	896.02	-30.83878227	-45.93880783	-106.310102	-57
25507	0	0.284423828	-0.141052246	0.234741211	0.999999046	-0.000152588	0.000100136	0.000144958	7.110595703	-3.526306152	5.868530273	-0.007629395	0.00500679	0.007247925	-0.730957031	0.726806641	0.010253906	896.08	-30.85758974	-45.92371565	-106.3137585	-57
25508	0	0.283724785	-0.141145706	0.236157417	0.999999046	-9.53674E-07	8.2016E-05	0.000118256	7.093119621	-3.528642654	5.903935432	-4.76837E-05	0.0041008	0.005912781	-0.730712891	0.7265625	0.001464844	896.06	-30.85743753	-45.9119341	-106.3128097	-57
25509	0	0.284240723	-0.14050293	0.236022949	0.999999046	0	5.05447E-05	0.000114441	7.106018066	-3.512573242	5.90057373	0	0.002527237	0.005722046	-0.730957031	0.7265625	0.004394531	896.06	-30.85869663	-45.90347103	-106.3126887	-57
25510	0	0.284062386	-0.14111805	0.235928535	0.999999046	-1.52588E-05	0.000146866	0.000102043	7.101559639	-3.527951241	5.898213387	-0.000762939	0.007343292	0.005102158	-0.730712891	0.7265625	0.001464844	896.12	-30.85464393	-45.88624783	-106.3200484	-57
25511	0	0.283325195	-0.141052246	0.235961914	0.999999046	-4.57764E-05	5.43594E-05	0.000164032	7.083129883	-3.526306152	5.899047852	-0.002288818	0.002717972	0.008201599	-0.730712891	0.7265625	0.001464844	896.06	-30.86602023	-45.87444823	-106.3112274	-57
25512	0	0.28349781	-0.140435219	0.236955643	0.999999046	-0.000117302	0.00019455	-7.62939E-06	7.087445259	-3.51088047	5.923891068	-0.005865097	0.009727478	-0.00038147	-0.728515625	0.728759766	0.001220703	896.06	-30.85964367	-45.85890785	-106.3326242	-57
25513	0	0.28338623	-0.141845703	0.235046387	0.999999046	-0.000114441	0.000103951	-4.57764E-05	7.084655762	-3.546142578	5.876159668	-0.005722046	0.005197525	-0.002288818	-0.728515625	0.728759766	0.007080078	896.08	-30.85468521	-45.85451404	-106.3561033	-56
25514	0	0.284326553	-0.140836716	0.235499382	0.999999046	-1.90735E-06	0.000133514	-2.28882E-05	7.108163834	-3.520917892	5.88748455	-9.53674E-05	0.00667572	-0.001144409	-0.730712891	0.7265625	0.001464844	896.12	-30.83740192	-45.84589723	-106.3797944	-57
25515	0	0.28314209	-0.140808105	0.236633301	0.999999046	-6.10352E-05	9.63211E-05	7.24792E-05	7.078552246	-3.520202637	5.91583252	-0.003051758	0.004816055	0.003623962	-0.730957031	0.729003906	0.004150391	896.08	-30.83881008	-45.83529452	-106.3864007	-57
25516	0	0.283380508	-0.141244888	0.237524033	0.999999046	-7.34329E-05	7.43866E-05	9.05991E-05	7.084512711	-3.531122208	5.938100815	-0.003671646	0.00371933	0.004529953	-0.728515625	0.7265625	0.001220703	896	-30.84479169	-45.82572279	-106.3863221	-57
25517	0	0.284545898	-0.141418457	0.237976074	0.999999046	-5.34058E-05	0.000142097	4.95911E-05	7.113647461	-3.535461426	5.949401855	-0.002670288	0.007104874	0.002479553	-0.730957031	0.726806641	0.007324219	896.12	-30.84021844	-45.81186396	-106.4056314	-57
25518	0	0.282755852	-0.139945984	0.236392021	0.999999046	-0.000133514	0.000171661	1.81198E-05	7.068896294	-3.498649597	5.909800529	-0.00667572	0.008583069	0.000905991	-0.730957031	0.7265625	0.004394531	896.12	-30.83981146	-45.79692945	-106.4296746	-57
25519	0	0.282043457	-0.141113281	0.23651123	0.999999046	-3.43323E-05	0.000130653	0.000190735	7.051086426	-3.527832031	5.912780762	-0.001716614	0.006532669	0.009536743	-0.730957031	0.729003906	0.007080078	896.06	-30.84800136	-45.77582909	-106.4255309	-57
25520	0	0.283209801	-0.139956474	0.23535347	0.999999046	-0.000161171	0.000183105	0.00026989	7.080245018	-3.498911858	5.883836746	-0.008058548	0.009155274	0.013494492	-0.728515625	0.728759766	0.004150391	896.08	-30.87553426	-45.74496356	-106.4102571	-57
25521	0	0.282409668	-0.142089844	0.235900879	0.999999046	-0.000282288	0.000344276	0.000282288	7.060241699	-3.552246094	5.897521973	-0.014114381	0.017213822	0.014114381	-0.728515625	0.728759766	0.001220703	896.08	-30.90853732	-45.6974885	-106.4054164	-57
25522	0	0.280579567	-0.142382622	0.236195564	0.999999046	3.62396E-05	9.53674E-06	9.53674E-05	7.014489174	-3.559565544	5.904889107	0.001811981	0.000476837	0.004768372	-0.730957031	0.7265625	0.004394531	896.12	-30.90647213	-45.69383754	-106.4073852	-57
25523	0	0.282897949	-0.141784668	0.236999512	0.999999046	4.19617E-05	-6.00815E-05	6.10352E-05	7.07244873	-3.544616699	5.924987793	0.002098083	-0.003004074	0.003051758	-0.730957031	0.7265625	0.004394531	896.06	-30.90450722	-45.69903421	-106.4082054	-57
25524	0	0.28290844	-0.141372681	0.235328674	0.999999046	-0.000121117	3.43323E-05	0.0001297	7.072710991	-3.534317017	5.883216858	-0.006055832	0.001716614	0.006484985	-0.730957031	0.729003906	0.001220703	896.06	-30.92250417	-45.69094698	-106.4017457	-57
25525	0	0.282226563	-0.141418457	0.235961914	0.999999046	-0.000160217	8.10623E-05	0.000164032	7.055664063	-3.535461426	5.899047852	-0.008010864	0.004053116	0.008201599	-0.730712891	0.7265625	0.001464844	896.04	-30.94564007	-45.67624125	-106.3976755	-57
25526	0	0.28183651	-0.141770363	0.236571312	0.999999046	0.000118256	5.91278E-05	0.000110626	7.045912743	-3.544259071	5.914282799	0.005912781	0.00295639	0.005531311	-0.728515625	0.728759766	0.001220703	896.06	-30.9328264	-45.66680116	-106.3937831	-57
25527	0	0.282409668	-0.142089844	0.236633301	0.999999046	-7.62939E-05	8.4877E-05	0.000217438	7.060241699	-3.552246094	5.91583252	-0.003814697	0.004243851	0.010871887	-0.728515625	0.728759766	0.001220703	895.96	-30.95153299	-45.64851744	-106.3777011	-56
25528	0	0.282002449	-0.142004967	0.237512589	0.999999046	-3.91006E-05	-1.90735E-05	2.57492E-05	7.050061226	-3.550124168	5.937814713	-0.001955032	-0.000953674	0.00128746	-0.730712891	0.7265625	-0.001464844	896.08	-30.95296088	-45.65169262	-106.3832007	-57
25529	0	0.282653809	-0.141845703	0.237304688	0.999999046	-5.34058E-05	0.00011158	5.72205E-05	7.066345215	-3.546142578	5.932617188	-0.002670288	0.005578995	0.002861023	-0.728515625	0.728759766	0.004150391	896	-30.95130457	-45.64015276	-106.3941775	-57
25530	0	0.281059265	-0.141781807	0.236557961	0.999999046	-3.05176E-05	8.96454E-05	1.90735E-05	7.026481628	-3.544545174	5.913949013	-0.001525879	0.004482269	0.000953674	-0.730957031	0.7265625	0.004394531	895.96	-30.9445323	-45.63296795	-106.4147752	-57
25531	0	0.282836914	-0.141418457	0.234680176	0.999999046	8.39233E-05	-3.71933E-05	1.52588E-05	7.070922852	-3.535461426	5.867004395	0.004196167	-0.001859665	0.000762939	-0.728515625	0.728759766	0.001220703	896.08	-30.93196601	-45.63855676	-106.4164224	-57
25532	0	0.28254509	-0.141571045	0.236207962	1	-7.82013E-05	-1.04904E-05	2.67029E-05	7.063627243	-3.539276123	5.905199051	-0.003910065	-0.000524521	0.001335144	-0.730957031	0.726806641	0.007324219	896.02	-30.93753792	-45.64086539	-106.4291166	-57
25533	0	0.281860352	-0.14263916	0.236083984	0.999999046	-7.62939E-05	9.25064E-05	3.43323E-05	7.046508789	-3.565979004	5.902099609	-0.003814697	0.00462532	0.001716614	-0.728515625	0.728759766	0.007080078	896.06	-30.93754029	-45.63257915	-106.4432455	-56
25534	0	0.282173157	-0.141474724	0.237212181	1	-9.53674E-07	-4.86374E-05	-1.62125E-05	7.054328918	-3.536868095	5.930304527	-4.76837E-05	-0.00243187	-0.000810623	-0.728515625	0.728759766	0.004150391	896.06	-30.93230081	-45.64112203	-106.4499143	-57
25535	0	0.28137207	-0.142028809	0.235717773	0.999999046	-0.000133514	-6.38962E-05	0.000125885	7.034301758	-3.550720215	5.892944336	-0.00667572	-0.003194809	0.006294251	-0.730957031	0.729003906	0.004150391	896.02	-30.95751636	-45.64277694	-106.4382322	-57
25536	0	0.281183243	-0.143078804	0.236863136	0.999999046	-8.67844E-05	-1.33514E-05	7.24792E-05	7.02958107	-3.5769701	5.921578407	-0.004339218	-0.000667572	0.003623962	-0.730957031	0.729003906	0.007080078	896	-30.96903845	-45.64253355	-106.4405183	-57
25537	0	0.281494141	-0.141723633	0.236755371	0.999999046	0.000205994	-0.000220299	3.43323E-05	7.037353516	-3.54309082	5.918884277	0.010299683	-0.011014939	0.001716614	-0.728515625	0.728759766	0.007080078	896.16	-30.95564582	-45.66483846	-106.4276647	-57
25538	0	0.283054352	-0.141766548	0.239373207	1	-2.38419E-05	-5.81741E-05	-2.67029E-05	7.076358795	-3.544163704	5.984330177	-0.001192093	-0.002908707	-0.001335144	-0.730957031	0.729003906	0.001220703	895.96	-30.95256846	-45.67474009	-106.4349268	-57
25539	0	0.281066895	-0.142883301	0.237121582	0.999999046	-0.000179291	-2.57492E-05	6.86646E-05	7.026672363	-3.57208252	5.928039551	-0.008964539	-0.00128746	0.003433228	-0.728515625	0.7265625	0.001220703	896.06	-30.97499745	-45.67574184	-106.4312305	-57
25540	0	0.280693054	-0.141664505	0.236444473	0.999999046	-2.38419E-05	-8.7738E-05	-4.76837E-06	7.017326355	-3.541612625	5.911111832	-0.001192093	-0.004386902	-0.000238419	-0.730957031	0.726806641	0.007324219	896.06	-30.97596556	-45.68710452	-106.4400989	-57
25541	0	0.282653809	-0.141235352	0.235290527	0.999999046	-0.000133514	7.34329E-05	0.000106812	7.066345215	-3.530883789	5.882263184	-0.00667572	0.003671646	0.005340576	-0.730957031	0.729003906	0.004150391	896.06	-30.99100357	-45.67610306	-106.4415269	-57
25542	0	0.282588959	-0.141542435	0.23602581	0.999999046	-0.000123978	4.00543E-05	0.000170708	7.064723969	-3.538560867	5.900645256	-0.006198883	0.002002716	0.008535385	-0.730957031	0.729003906	0.007080078	896.16	-31.01338591	-45.66463199	-106.4338402	-57
25543	0	0.28112793	-0.142211914	0.236938477	0.999999046	6.48499E-05	-2.86102E-06	0.00018692	7.028198242	-3.555297852	5.923461914	0.003242493	-0.000143051	0.009346008	-0.730957031	0.7265625	0.004394531	896.02	-31.01834606	-45.65635036	-106.4217409	-57
25544	0	0.282236099	-0.141798973	0.237869263	0.999999046	6.19888E-05	5.53131E-05	0.000193596	7.055902481	-3.544974327	5.946731567	0.003099442	0.002765656	0.009679794	-0.730957031	0.729003906	0.004150391	896.08	-31.02072185	-45.64191717	-106.4109139	-57
25545	0	0.280822754	-0.142883301	0.237426758	0.999999046	6.10352E-05	7.72476E-05	0.000282288	7.020568848	-3.57208252	5.935668945	0.003051758	0.003862381	0.01411438	-0.730957031	0.729003906	0.004150391	896.08	-31.03080052	-45.61999667	-106.3904663	-57
25546	0	0.281988144	-0.142342567	0.23596096	0.999999046	-8.96454E-05	-3.43323E-05	0.000105858	7.049703598	-3.558564186	5.89902401	-0.004482269	-0.001716614	0.005292892	-0.728759766	0.731201172	0.006835938	896.02	-31.04720802	-45.61946561	-106.3817859	-57
25547	0	0.281188965	-0.14263916	0.238037109	0.999999046	-5.34058E-05	-2.57492E-05	-3.05176E-05	7.029724121	-3.565979004	5.950927734	-0.002670288	-0.00128746	-0.001525879	-0.728515625	0.728759766	0.007080078	896.02	-31.04523369	-45.62606519	-106.3956058	-57
25548	0	0.282186508	-0.142159462	0.235931396	0.999999046	0.000182152	-1.14441E-05	-2.38419E-05	7.054662704	-3.553986549	5.898284912	0.00910759	-0.000572205	-0.001192093	-0.728515625	0.728759766	-0.001708984	895.96	-31.01609059	-45.63088736	-106.4025107	-57
25549	0	0.281066895	-0.141967773	0.237609863	0.999999046	-4.19617E-05	-1.43051E-05	2.67029E-05	7.026672363	-3.549194336	5.940246582	-0.002098083	-0.000715256	0.001335144	-0.730957031	0.7265625	0.004394531	896.06	-31.01783168	-45.63293627	-106.4129999	-57
25550	0	0.28259182	-0.141758919	0.237527847	0.999999046	7.82013E-05	-4.76837E-05	9.44138E-05	7.064795494	-3.543972969	5.938196182	0.003910065	-0.002384186	0.004720688	-0.728515625	0.728759766	0.004150391	896.02	-31.01456365	-45.63426021	-106.4050328	-57
25551	0	0.281677246	-0.141601563	0.23828125	0.999999046	3.8147E-05	-7.9155E-05	5.34058E-05	7.041931152	-3.540039063	5.95703125	0.001907349	-0.003957748	0.002670288	-0.728515625	0.728759766	0.004150391	896.02	-31.01358036	-45.6410381	-106.4002037	-57
25552	0	0.281881332	-0.141857147	0.237392426	0.999998093	-1.90735E-06	2.57492E-05	7.15256E-05	7.04703331	-3.54642868	5.934810638	-9.53674E-05	0.00128746	0.003576279	-0.730957031	0.729003906	0.004150391	896.08	-31.01263751	-45.63641427	-106.4047435	-57
25553	0	0.281311035	-0.142211914	0.237182617	0.999999046	3.43323E-05	-2.95639E-05	0.000141144	7.032775879	-3.555297852	5.92956543	0.001716614	-0.001478195	0.00705719	-0.730957031	0.731201172	0.001220703	896.02	-31.0178668	-45.6330655	-106.3899529	-57
25554	0	0.281773567	-0.141909599	0.235404968	1	2.76566E-05	2.19345E-05	6.77109E-05	7.04433918	-3.547739983	5.885124207	0.001382828	0.001096725	0.003385544	-0.728515625	0.728759766	-0.001708984	896	-31.01342044	-45.62902797	-106.3875221	-57
25555	0	0.280578613	-0.141906738	0.236206055	0.999999046	3.05176E-05	-9.82285E-05	0.000102997	7.014465332	-3.547668457	5.905151367	0.001525879	-0.004911423	0.005149841	-0.730957031	0.728759766	-0.001708984	896	-31.01945391	-45.63467376	-106.3734336	-57
25556	0	0.281633377	-0.141218185	0.235975266	0.999999046	4.29153E-05	-0.000162125	0.000179291	7.040834427	-3.530454636	5.899381638	0.002145767	-0.008106232	0.008964539	-0.730957031	0.729003906	0.004150391	896.06	-31.03556423	-45.6421083	-106.3480334	-57
25557	0	0.282287598	-0.141784668	0.237060547	0.999999046	1.52588E-05	1.62125E-05	3.43323E-05	7.057189941	-3.544616699	5.926513672	0.000762939	0.000810623	0.001716614	-0.730957031	0.729003906	0.004150391	896.08	-31.02948141	-45.64059171	-106.3579781	-57
25558	0	0.281049728	-0.143078804	0.237927437	0.999999046	-1.33514E-05	-0.000259399	-7.62939E-06	7.02624321	-3.5769701	5.948185921	-0.000667572	-0.012969971	-0.00038147	-0.728515625	0.728759766	0.004150391	896.08	-31.03913322	-45.66852031	-106.3469718	-57
25559	0	0.28125	-0.141662598	0.23638916	0.999999046	0.0001297	-0.00026226	-6.10352E-05	7.03125	-3.541564941	5.909729004	0.006484985	-0.013113022	-0.003051758	-0.730957031	0.729003906	0.004150391	896.06	-31.02718186	-45.69986275	-106.3455881	-57
25560	0	0.282123566	-0.141811371	0.236886978	0.999999046	0.000157356	-0.000141144	4.86374E-05	7.053089142	-3.545284271	5.922174454	0.007867813	-0.00705719	0.00243187	-0.730957031	0.731201172	-0.001708984	896.02	-31.01573954	-45.71281531	-106.3314285	-57
25561	0	0.282775879	-0.141418457	0.236938477	0.999999046	6.86646E-05	-7.53403E-05	0.000137329	7.069396973	-3.535461426	5.923461914	0.003433228	-0.003767014	0.006866455	-0.728515625	0.728759766	0.001220703	896.06	-31.01936171	-45.71407369	-106.3131273	-57
25562	0	0.280941963	-0.142256737	0.237952232	0.999999046	2.09808E-05	-0.000152588	0.000125885	7.02354908	-3.556418419	5.948805809	0.001049042	-0.007629395	0.006294251	-0.728515625	0.728759766	0.004150391	896.02	-31.03194512	-45.72348464	-106.2924916	-57
25563	0	0.281982422	-0.141174316	0.237243652	0.999999046	0.00012207	-0.000128746	5.34058E-05	7.049560547	-3.52935791	5.931091309	0.006103516	-0.006437302	0.002670288	-0.728515625	0.728759766	0.007080078	896.08	-31.02412898	-45.73480602	-106.2865101	-57
25564	0	0.282333374	-0.141695976	0.236838341	0.999999046	6.58035E-05	-0.000175476	0.0001297	7.058334351	-3.542399406	5.920958519	0.003290176	-0.008773804	0.006484985	-0.728759766	0.730957031	0.00390625	896.08	-31.03325959	-45.74619291	-106.260885	-57
25565	0	0.282226563	-0.141723633	0.236938477	0.999999046	0.000125885	-0.00020504	6.48499E-05	7.055664063	-3.54309082	5.923461914	0.006294251	-0.010251999	0.003242493	-0.730957031	0.729003906	0.001220703	896.08	-31.03074103	-45.76428507	-106.245192	-57
25566	0	0.282061577	-0.14176178	0.237589836	0.999999046	0.000101089	-0.000150681	-9.63211E-05	7.051539421	-3.544044495	5.939745903	0.005054474	-0.007534027	-0.004816055	-0.728515625	0.728759766	0.001220703	896.06	-31.01145918	-45.7864988	-106.2532639	-56
25567	0	0.28302002	-0.141479492	0.236877441	0.999999046	0.000137329	-0.000163078	-3.8147E-06	7.075500488	-3.536987305	5.921936035	0.006866455	-0.008153915	-0.000190735	-0.728515625	0.728759766	0.007080078	896.02	-30.99807428	-45.8044618	-106.2519061	-57
25568	0	0.282060623	-0.1413517	0.236578941	0.999999046	0.000163078	-0.000234604	-4.57764E-05	7.051515579	-3.533792496	5.914473534	0.008153916	-0.011730194	-0.002288818	-0.728515625	0.728759766	0.004150391	896	-30.98181275	-45.83189377	-106.2475594	-57
25569	0	0.282775879	-0.141540527	0.235961914	0.999999046	0.000232697	-0.000189781	3.43323E-05	7.069396973	-3.538513184	5.899047852	0.011634827	-0.00948906	0.001716614	-0.728515625	0.728759766	0.001220703	896.08	-30.96296725	-45.8501969	-106.233334	-57
25570	0	0.282917023	-0.140901566	0.235613823	0.999999046	0.000139236	-0.000246048	-1.14441E-05	7.072925568	-3.522539139	5.890345573	0.006961823	-0.012302399	-0.000572205	-0.730957031	0.7265625	0.004394531	896.08	-30.95361126	-45.87674909	-106.2292418	-57
25571	0	0.282714844	-0.141479492	0.236450195	0.999999046	9.91821E-05	-0.000193596	1.14441E-05	7.067871094	-3.536987305	5.911254883	0.004959106	-0.009679794	0.000572205	-0.728759766	0.730957031	0.00390625	896.02	-30.94798329	-45.89676505	-106.2169492	-57
25572	0	0.283047676	-0.141256332	0.238259315	0.999999046	3.91006E-05	-0.000175476	2.67029E-05	7.076191902	-3.53140831	5.956482887	0.001955032	-0.008773804	0.001335144	-0.730957031	0.729003906	0.004150391	896.02	-30.94961356	-45.91402085	-106.2096137	-57
25573	0	0.282958984	-0.141418457	0.236999512	0.999999046	0.000205994	-0.00026989	-6.10352E-05	7.073974609	-3.535461426	5.924987793	0.010299683	-0.013494492	-0.003051758	-0.728515625	0.728759766	0.001220703	896.08	-30.92894276	-45.94567537	-106.2008333	-57
