Counter	Temperature	VelInc_X	VelInc_Y	VelInc_Z	OriInc_w	OriInc_x	OriInc_y	OriInc_z	Acc_X	Acc_Y	Acc_Z	Gyr_X	Gyr_Y	Gyr_Z	Mag_X	Mag_Y	Mag_Z	Pressure	Roll	Pitch	Yaw	RSSI
57802	0	-0.268214226	-0.13504982	0.260238647	0.999999046	-0.000421524	-8.7738E-05	0.000244141	-6.705355644	-3.376245499	6.505966187	-0.021076203	-0.004386902	0.012207032	0.224853516	0.853271484	-0.665283203	884.7	-27.36254338	41.96415418	-136.2726255	-72
57803	0	-0.268676758	-0.136474609	0.25958252	0.999999046	-0.000335693	1.62125E-05	0.000255585	-6.716918945	-3.411865234	6.489562988	-0.016784668	0.000810623	0.012779236	0.225097656	0.853271484	-0.668212891	884.68	-27.38883919	41.98589931	-136.2514947	-72
57804	0	-0.268447876	-0.132728577	0.259728432	0.999999046	-0.00014019	3.62396E-05	0.000297546	-6.711196899	-3.318214417	6.493210793	-0.007009506	0.001811981	0.01487732	0.227539063	0.853027344	-0.671142578	884.68	-27.38974295	42.01194342	-136.2297092	-73
57805	0	-0.268737793	-0.133789063	0.26171875	0.999999046	-0.000526428	0.000115395	0.000236511	-6.718444824	-3.344726563	6.54296875	-0.026321413	0.00576973	0.011825562	0.229736328	0.850830078	-0.662353516	884.7	-27.4441597	42.04279517	-136.2098877	-72
57806	0	-0.269410133	-0.134119034	0.259745598	0.999999046	-0.000383377	5.53131E-05	0.000170708	-6.735253334	-3.352975845	6.493639946	-0.019168854	0.002765656	0.008535385	0.229736328	0.850830078	-0.665283203	884.86	-27.48535339	42.06410689	-136.202126	-72
57807	0	-0.269714355	-0.133544922	0.259460449	0.999999046	-0.000408173	-3.71933E-05	0.000190735	-6.742858887	-3.338623047	6.48651123	-0.020408631	-0.001859665	0.009536743	0.227294922	0.85546875	-0.662597656	884.62	-27.52307388	42.07713793	-136.1806719	-72
57808	0	-0.269197464	-0.134449005	0.260103226	0.999999046	-0.000634193	-5.72205E-05	0.000236511	-6.7299366	-3.361225128	6.502580643	-0.031709673	-0.002861023	0.011825562	0.227294922	0.855224609	-0.665527344	884.72	-27.58150577	42.09057156	-136.1599255	-73
57809	0	-0.269104004	-0.135803223	0.258728027	0.999999046	-0.000606537	-6.00815E-05	0.000228882	-6.727600098	-3.395080566	6.468200684	-0.030326845	-0.003004074	0.011444093	0.227294922	0.85546875	-0.662597656	884.68	-27.63739509	42.10333824	-136.1378103	-72
57810	0	-0.268829346	-0.135203362	0.260671616	0.999999046	-0.00056076	0.000118256	0.00019455	-6.720733643	-3.380084038	6.51679039	-0.028038027	0.005912781	0.009727479	0.229492188	0.853027344	-0.656738281	884.7	-27.6997064	42.13234127	-136.1263863	-72
57811	0	-0.269470215	-0.135559082	0.25769043	0.999999046	-0.000595093	0.000157356	0.000209808	-6.736755371	-3.388977051	6.442260742	-0.029754641	0.007867814	0.010490418	0.229492188	0.857421875	-0.663085938	884.74	-27.76651297	42.1661765	-136.1255745	-73
57812	0	-0.268754005	-0.136058807	0.257627487	0.999999046	-0.000285149	0.00012207	8.39233E-05	-6.718850136	-3.401470184	6.44068718	-0.014257431	0.006103516	0.004196167	0.229492188	0.855224609	-0.656982422	884.62	-27.80772733	42.18971311	-136.1331484	-72
57813	0	-0.269958496	-0.134155273	0.255981445	0.999999046	-0.000396729	8.86917E-05	8.01086E-05	-6.748962402	-3.353881836	6.399536133	-0.019836426	0.004434586	0.004005432	0.229492188	0.857666016	-0.657226563	884.74	-27.86045504	42.20977505	-136.1390727	-73
57814	0	-0.270758629	-0.137551308	0.257533073	0.999999046	-0.00084877	1.90735E-05	0.000113487	-6.768965721	-3.438782692	6.438326836	-0.042438512	0.000953674	0.005674363	0.229248047	0.857666016	-0.654296875	884.74	-27.95866231	42.22460621	-136.1348901	-73
57815	0	-0.268737793	-0.135437012	0.257385254	0.999999046	-0.000892639	6.96182E-05	-3.8147E-05	-6.718444824	-3.385925293	6.434631348	-0.044631964	0.003480912	-0.001907349	0.231689453	0.857421875	-0.654296875	884.62	-28.07826165	42.23638292	-136.1567485	-73
57816	0	-0.269862175	-0.135730743	0.255213737	0.999999046	-0.000943184	0.000171661	-7.24792E-05	-6.746554375	-3.393268585	6.380343437	-0.047159202	0.00858307	-0.003623963	0.231689453	0.859863281	-0.654541016	884.8	-28.2118409	42.25666875	-136.1932808	-73
57817	0	-0.270446777	-0.138122559	0.255554199	0.999999046	-0.000583649	0.000126839	8.7738E-05	-6.761169434	-3.453063965	6.38885498	-0.029182436	0.006341935	0.004386902	0.231445313	0.862060547	-0.654785156	884.74	-28.28744558	42.28112789	-136.2063814	-73
57818	0	-0.270048141	-0.13862133	0.258193016	0.999999046	-0.000417709	4.00543E-05	0.00026989	-6.751203537	-3.465533257	6.454825401	-0.020885468	0.002002716	0.013494492	0.229003906	0.862060547	-0.651611328	884.68	-28.32305177	42.30666464	-136.1880742	-73
57819	0	-0.269836426	-0.137939453	0.254455566	0.999999046	-0.00030899	4.673E-05	9.91821E-05	-6.745910645	-3.448486328	6.36138916	-0.015449524	0.002336502	0.004959107	0.231445313	0.862060547	-0.651855469	884.7	-28.36227605	42.32364913	-136.1929879	-73
57820	0	-0.270742416	-0.138227463	0.255565643	0.999999046	-0.000451088	-5.72205E-06	0.000170708	-6.76856041	-3.455686569	6.389141083	-0.022554398	-0.000286102	0.008535385	0.231445313	0.862060547	-0.648925781	884.68	-28.40865509	42.33928021	-136.1816486	-73
57821	0	-0.270935059	-0.139221191	0.254333496	0.999999046	-0.000347137	0.000187874	5.72205E-05	-6.773376465	-3.480529785	6.358337402	-0.017356873	0.009393692	0.002861023	0.233886719	0.862060547	-0.649169922	884.74	-28.46330123	42.36829503	-136.2000579	-73
57822	0	-0.271107674	-0.138390541	0.254258156	0.999999046	-0.000246048	1.33514E-05	0.00020504	-6.777691841	-3.459763527	6.356453896	-0.012302399	0.000667572	0.010251999	0.233886719	0.862060547	-0.649169922	884.74	-28.48415572	42.38786867	-136.1871129	-73
57823	0	-0.270690918	-0.136901855	0.256286621	0.999999046	-0.000297546	9.53674E-07	9.91821E-05	-6.767272949	-3.422546387	6.407165527	-0.01487732	4.76837E-05	0.004959107	0.231201172	0.866455078	-0.646484375	884.7	-28.51990607	42.40042086	-136.1833322	-73
57824	0	-0.270962715	-0.138832092	0.255776405	0.999999046	-0.000403404	0.000148773	7.24792E-05	-6.774067879	-3.470802307	6.394410133	-0.020170212	0.00743866	0.003623963	0.233642578	0.864257813	-0.649169922	884.74	-28.57765985	42.42639118	-136.2006829	-73
57825	0	-0.26953125	-0.139526367	0.252990723	0.999999046	-0.00018692	3.14713E-05	0.000160217	-6.73828125	-3.48815918	6.324768066	-0.009346008	0.001573563	0.008010864	0.236083984	0.864013672	-0.649414063	884.8	-28.59679696	42.44537191	-136.1966315	-72
57826	0	-0.270628929	-0.138009071	0.253959656	0.999999046	-1.90735E-05	7.24792E-05	-1.14441E-05	-6.765723228	-3.450226784	6.348991394	-0.000953674	0.003623962	-0.000572205	0.233642578	0.866455078	-0.649414063	884.74	-28.61455017	42.45910168	-136.2198193	-73
57827	0	-0.271179199	-0.138305664	0.255065918	0.999999046	-9.53674E-05	0.000103951	-4.57764E-05	-6.77947998	-3.457641602	6.376647949	-0.004768372	0.005197525	-0.002288818	0.231201172	0.866455078	-0.646484375	884.7	-28.64576609	42.47412193	-136.2484915	-73
57828	0	-0.26987648	-0.138745308	0.253640175	0.999999046	0.000264168	-0.0001297	-0.000152588	-6.746912003	-3.468632698	6.341004372	0.01320839	-0.006484985	-0.007629395	0.233642578	0.864257813	-0.643310547	884.74	-28.63389634	42.45977093	-136.2668428	-73
57829	0	-0.27166748	-0.138366699	0.253417969	0.999999046	0.000156403	-0.000109673	-0.000244141	-6.791687012	-3.45916748	6.335449219	0.00782013	-0.005483627	-0.012207031	0.236083984	0.864013672	-0.646484375	884.7	-28.64381993	42.44248925	-136.301222	-72
57830	0	-0.27178669	-0.141716003	0.254559517	0.999999046	0.000263214	-0.000228882	-6.86646E-05	-6.794667244	-3.542900085	6.363987923	0.013160706	-0.011444092	-0.003433228	0.231445313	0.864257813	-0.649169922	884.62	-28.61956046	42.42285927	-136.311196	-73
57831	0	-0.270019531	-0.136413574	0.255187988	0.999999046	0.000534058	-0.000178337	3.43323E-05	-6.750488281	-3.410339355	6.379699707	0.026702882	-0.008916855	0.001716614	0.236328125	0.864013672	-0.65234375	884.68	-28.55718343	42.41397654	-136.3084763	-72
57832	0	-0.271402359	-0.136548996	0.256102562	0.999999046	0.000113487	-0.000156403	2.28882E-05	-6.785058975	-3.413724899	6.402564049	0.005674362	-0.007820129	0.001144409	0.233886719	0.862060547	-0.646240234	884.64	-28.54499835	42.40670754	-136.3024469	-73
57833	0	-0.270263672	-0.13885498	0.256103516	0.999999046	0.000164032	-0.00026226	-9.15527E-05	-6.756591797	-3.471374512	6.402587891	0.008201599	-0.013113022	-0.004577637	0.231445313	0.864257813	-0.652099609	884.64	-28.53225332	42.38247434	-136.3137833	-72
57834	0	-0.269248962	-0.140224457	0.256900787	0.999999046	0.000169754	-0.00018692	-7.72476E-05	-6.73122406	-3.50561142	6.422519684	0.008487702	-0.009346008	-0.003862381	0.233886719	0.862060547	-0.649169922	884.68	-28.52135142	42.36649176	-136.3220061	-72
57835	0	-0.270507813	-0.139587402	0.254821777	0.999999046	0.000450134	-0.00020504	-0.000133514	-6.762695313	-3.489685059	6.370544434	0.022506715	-0.010251999	-0.006675721	0.231445313	0.862060547	-0.651855469	884.64	-28.4826803	42.34562228	-136.3417324	-73
57836	0	-0.269633293	-0.137292862	0.256093979	0.999999046	0.000395775	-0.00015831	-0.000248909	-6.740832329	-3.432321548	6.402349472	0.019788743	-0.007915497	-0.01244545	0.231445313	0.862060547	-0.651855469	884.74	-28.46307747	42.3231464	-136.3783339	-72
57837	0	-0.271606445	-0.137817383	0.258239746	0.999999046	0.000267029	-0.000124931	-0.000247955	-6.790161133	-3.44543457	6.455993652	0.013351441	-0.006246567	-0.012397766	0.229003906	0.864257813	-0.651855469	884.74	-28.4596802	42.30408439	-136.4162031	-73
57838	0	-0.271290779	-0.138669968	0.256184578	0.999999046	0.000358582	-0.00025177	-0.000156403	-6.782269478	-3.466749191	6.404614449	0.017929078	-0.012588501	-0.00782013	0.229248047	0.862060547	-0.654541016	884.7	-28.4311081	42.27728462	-136.4366751	-72
57839	0	-0.269958496	-0.137329102	0.257202148	0.999999046	0.000370026	-0.000117302	-0.000114441	-6.748962402	-3.433227539	6.430053711	0.018501282	-0.005865097	-0.005722046	0.231445313	0.862060547	-0.654785156	884.8	-28.40395886	42.26631721	-136.4573236	-73
57840	0	-0.270233154	-0.138360977	0.257123947	0.999999046	0.000273705	-0.000112534	-0.000232697	-6.755828857	-3.459024429	6.428098679	0.013685227	-0.005626679	-0.011634827	0.229248047	0.862060547	-0.654541016	884.62	-28.39889896	42.24937585	-136.4949575	-73
57841	0	-0.270202637	-0.138977051	0.25579834	0.999999046	0.000289917	-0.000155449	-0.000183105	-6.755065918	-3.47442627	6.394958496	0.01449585	-0.007772446	-0.009155274	0.229003906	0.862060547	-0.651611328	884.58	-28.38536998	42.23083582	-136.5163194	-73
57842	0	-0.270560265	-0.138072968	0.258220673	0.999999046	0.000499725	-0.000213623	5.62668E-05	-6.764006615	-3.451824188	6.455516815	0.024986268	-0.010681153	0.002813339	0.226806641	0.862060547	-0.654541016	884.74	-28.32296412	42.21945281	-136.5061462	-73
57843	0	-0.270263672	-0.137451172	0.258483887	0.999999046	0.000217438	-0.000178337	-2.67029E-05	-6.756591797	-3.436279297	6.462097168	0.010871887	-0.008916855	-0.001335144	0.229248047	0.859863281	-0.657470703	884.7	-28.30216824	42.20709333	-136.5131282	-73
57844	0	-0.269248962	-0.138209343	0.256809235	0.999999046	0.000405312	-0.000202179	-1.23978E-05	-6.73122406	-3.455233574	6.420230865	0.02026558	-0.010108948	-0.000619888	0.229248047	0.857666016	-0.654296875	884.78	-28.25738614	42.19308865	-136.5111569	-73
57845	0	-0.270324707	-0.137023926	0.257202148	0.999999046	0.000419617	-0.00033474	2.67029E-05	-6.758117676	-3.425598145	6.430053711	0.020980836	-0.016736985	0.001335144	0.229492188	0.857666016	-0.657226563	884.64	-28.20084713	42.16785595	-136.4966686	-73
57846	0	-0.270279884	-0.139294624	0.260124207	0.999999046	0.000343323	-0.00031662	0.000106812	-6.756997108	-3.482365608	6.503105164	0.017166138	-0.015830994	0.005340576	0.226806641	0.859863281	-0.654296875	884.74	-28.1466538	42.14869461	-136.4666812	-73
57847	0	-0.268981934	-0.135437012	0.25769043	0.999999046	0.000473022	-0.000254631	9.15527E-05	-6.72454834	-3.385925293	6.442260742	0.023651124	-0.012731553	0.004577637	0.227050781	0.859863281	-0.66015625	884.74	-28.08194044	42.13496947	-136.4508992	-73
57848	0	-0.270401001	-0.136241913	0.258506775	0.999999046	0.000430107	-0.000246048	-0.000148773	-6.760025024	-3.406047821	6.462669373	0.021505357	-0.012302399	-0.00743866	0.227050781	0.857666016	-0.656982422	884.72	-28.04448599	42.10917787	-136.4628334	-73
57849	0	-0.26940918	-0.136413574	0.258056641	0.999999046	0.000213623	-0.000201225	-0.000148773	-6.735229492	-3.410339355	6.451416016	0.010681153	-0.010061264	-0.00743866	0.227050781	0.857666016	-0.662841797	884.78	-28.03400364	42.08794073	-136.4867496	-73
57850	0	-0.269263268	-0.137908936	0.259688377	0.999999046	0.00018692	-0.000190735	0	-6.731581688	-3.447723389	6.492209435	0.009346008	-0.009536743	0	0.224609375	0.857666016	-0.659912109	884.68	-28.01351002	42.07572226	-136.4878211	-73
57851	0	-0.268798828	-0.137756348	0.259094238	0.999999046	0.000278473	-0.000155449	4.57764E-05	-6.719970703	-3.443908691	6.477355957	0.013923645	-0.007772446	0.002288818	0.227294922	0.85546875	-0.662597656	884.7	-27.98009485	42.06948894	-136.4876824	-73
57852	0	-0.269402504	-0.135879517	0.258460045	0.999999046	0.000349998	-0.000108719	-0.000103951	-6.735062599	-3.396987915	6.461501122	0.017499924	-0.005435944	-0.005197525	0.227050781	0.857666016	-0.662841797	884.64	-27.95437552	42.05996474	-136.508009	-73
57853	0	-0.269714355	-0.136779785	0.259399414	0.999999046	0.000282288	-0.000163078	-2.28882E-05	-6.742858887	-3.419494629	6.484985352	0.01411438	-0.008153916	-0.001144409	0.224609375	0.857666016	-0.662841797	884.64	-27.92636454	42.04929646	-136.5147347	-73
57854	0	-0.269318581	-0.136646271	0.258465767	0.999999046	0.000225067	-0.000171661	7.62939E-06	-6.732964516	-3.416156769	6.461644173	0.011253357	-0.008583069	0.00038147	0.227294922	0.853027344	-0.662597656	884.64	-27.90172688	42.03941624	-136.5167296	-72
57855	0	-0.268615723	-0.135620117	0.258300781	0.999999046	0.000350952	-0.000273705	9.53674E-05	-6.715393066	-3.39050293	6.457519531	0.017547608	-0.013685227	0.004768372	0.222412109	0.85546875	-0.662353516	884.68	-27.84969769	42.02391646	-136.5002908	-73
57856	0	-0.268866539	-0.136364937	0.258421898	0.999999046	0.000136375	-0.00028801	-0.000114441	-6.721663475	-3.409123421	6.460547447	0.006818771	-0.014400482	-0.005722046	0.227294922	0.85546875	-0.662597656	884.62	-27.84075244	41.99574441	-136.5050119	-73
57857	0	-0.268859863	-0.137145996	0.259155273	0.999999046	0.000209808	-9.05991E-05	-9.53674E-05	-6.721496582	-3.428649902	6.478881836	0.010490418	-0.004529953	-0.004768372	0.224853516	0.853271484	-0.665283203	884.68	-27.83122342	41.98858879	-136.5300621	-73
57858	0	-0.26897049	-0.135990143	0.259261131	0.999999046	0.000305176	-0.0001297	8.67844E-05	-6.724262238	-3.399753571	6.481528282	0.015258789	-0.006484985	0.004339218	0.224853516	0.853271484	-0.662353516	884.72	-27.79224523	41.98722688	-136.5210839	-73
57859	0	-0.268310547	-0.136474609	0.259399414	0.999999046	0.000198364	-0.000109673	-9.15527E-05	-6.707763672	-3.411865234	6.484985352	0.009918213	-0.005483627	-0.004577637	0.224853516	0.853271484	-0.665283203	884.74	-27.78276488	41.97834166	-136.5418963	-72
57860	0	-0.268288612	-0.135260582	0.260182381	0.999998093	0.000270844	-9.05991E-05	0	-6.707215309	-3.381514549	6.504559517	0.013542175	-0.004529953	0	0.224853516	0.853271484	-0.665283203	884.78	-27.75746879	41.97625689	-136.5503322	-73
57861	0	-0.268188477	-0.135864258	0.258300781	0.999999046	0.000457764	-0.000258446	2.28882E-05	-6.704711914	-3.396606445	6.457519531	0.022888185	-0.012922288	0.001144409	0.224853516	0.853271484	-0.662353516	884.74	-27.7006424	41.95838944	-136.5363106	-72
57862	0	-0.269098282	-0.135614395	0.259784698	0.999999046	0.00047493	-0.000177383	-3.14713E-05	-6.727457047	-3.390359879	6.494617462	0.023746491	-0.008869172	-0.001573563	0.224853516	0.853271484	-0.662353516	884.74	-27.65069294	41.94586739	-136.5334132	-72
57863	0	-0.268493652	-0.135131836	0.260314941	0.999999046	0.000629425	-0.00026989	-7.24792E-05	-6.712341309	-3.378295898	6.507873535	0.031471255	-0.013494493	-0.003623963	0.225097656	0.853271484	-0.668212891	884.74	-27.58234718	41.92176962	-136.5361975	-72
57864	0	-0.26839447	-0.132523537	0.260687828	0.999999046	0.000454903	-0.000183105	4.48227E-05	-6.709861755	-3.313088417	6.517195702	0.022745133	-0.009155274	0.002241135	0.225097656	0.850830078	-0.665039063	884.64	-27.52726839	41.91273525	-136.5241176	-72
57865	0	-0.269042969	-0.132629395	0.261352539	0.999999046	0.000141144	-0.000220299	1.14441E-05	-6.726074219	-3.315734863	6.533813477	0.00705719	-0.011014938	0.000572205	0.22265625	0.851074219	-0.66796875	884.74	-27.50926086	41.89818231	-136.5206644	-72
57866	0	-0.267953873	-0.136517525	0.261936188	0.999999046	6.29425E-05	-0.000238419	-6.48499E-05	-6.698846817	-3.412938118	6.548404694	0.003147125	-0.011920929	-0.003242493	0.222900391	0.848632813	-0.673583984	884.68	-27.50637686	41.87766579	-136.5374357	-72
57867	0	-0.268066406	-0.135803223	0.262573242	0.999999046	-1.14441E-05	-3.33786E-05	2.67029E-05	-6.701660156	-3.395080566	6.564331055	-0.000572205	-0.00166893	0.001335144	0.22265625	0.851074219	-0.670898438	884.74	-27.51338514	41.88275563	-136.5494192	-72
57868	0	-0.267323494	-0.133903503	0.259963036	0.999999046	7.9155E-05	-0.000127792	1.43051E-05	-6.683087349	-3.347587585	6.49907589	0.003957748	-0.006389618	0.000715256	0.22265625	0.851074219	-0.66796875	884.7	-27.50660818	41.87759516	-136.5508462	-72
57869	0	-0.268798828	-0.134643555	0.262512207	0.999999046	-0.000152588	-7.15256E-05	3.8147E-05	-6.719970703	-3.366088867	6.562805176	-0.007629395	-0.003576279	0.001907349	0.225097656	0.850830078	-0.66796875	884.7	-27.52680271	41.8793862	-136.5511591	-72
57870	0	-0.268650055	-0.134215355	0.260983467	0.999999046	-0.000217438	-4.00543E-05	9.15527E-05	-6.716251373	-3.355383873	6.524586678	-0.010871887	-0.002002716	0.004577637	0.22265625	0.851074219	-0.670898438	884.72	-27.55100288	41.88722245	-136.5551731	-72
57871	0	-0.268066406	-0.134643555	0.261169434	0.999999046	-0.000179291	-2.86102E-06	0.000102997	-6.701660156	-3.366088867	6.52923584	-0.008964539	-0.000143051	0.005149841	0.22265625	0.851074219	-0.662109375	884.68	-27.57149342	41.89942442	-136.546235	-72
57872	0	-0.268519402	-0.133950233	0.260695457	0.999999046	-0.000210762	-2.86102E-05	0.00026989	-6.712985039	-3.348755836	6.517386436	-0.010538101	-0.001430512	0.013494492	0.22265625	0.848876953	-0.664794922	884.64	-27.5790738	41.91788338	-136.5210746	-72
57873	0	-0.26763916	-0.134277344	0.260131836	0.999999046	-0.000244141	1.23978E-05	0.00018692	-6.690979004	-3.356933594	6.503295898	-0.012207031	0.000619888	0.009346008	0.22265625	0.851074219	-0.665039063	884.7	-27.59994437	41.93609894	-136.5098319	-72
57874	0	-0.268733978	-0.135098457	0.260547638	0.999999046	-0.000200272	-5.72205E-06	0.000159264	-6.718349457	-3.377461433	6.513690948	-0.01001358	-0.000286102	0.007963181	0.22265625	0.851074219	-0.665039063	884.7	-27.61743052	41.9510091	-136.5023299	-72
57875	0	-0.268066406	-0.135559082	0.260314941	0.999999046	-0.000366211	4.29153E-05	0.00031662	-6.701660156	-3.388977051	6.507873535	-0.018310548	0.002145767	0.015830994	0.225097656	0.853271484	-0.668212891	884.68	-27.64190217	41.97919149	-136.47948	-72
57876	0	-0.267930984	-0.136008263	0.260619164	0.999999046	-0.000365257	0.000106812	0.000244141	-6.698274612	-3.400206566	6.515479088	-0.018262864	0.005340576	0.012207032	0.225097656	0.853271484	-0.668212891	884.7	-27.67596034	42.00995311	-136.4733841	-72
57877	0	-0.267333984	-0.133911133	0.260437012	0.999999046	-9.91821E-05	-2.19345E-05	0.000240326	-6.683349609	-3.34777832	6.510925293	-0.004959107	-0.001096725	0.012016297	0.227294922	0.853027344	-0.665527344	884.68	-27.67358315	42.02739451	-136.4524012	-72
57878	0	-0.268608093	-0.134078026	0.260177612	0.999999046	-0.000249863	-4.95911E-05	0.00019455	-6.715202332	-3.351950645	6.504440308	-0.012493134	-0.002479553	0.009727478	0.227294922	0.853027344	-0.665527344	884.68	-27.69123716	42.03958902	-136.4370494	-72
57879	0	-0.269470215	-0.137817383	0.260253906	0.999999046	-0.000465393	-3.71933E-05	0.000225067	-6.736755371	-3.44543457	6.506347656	-0.023269654	-0.001859665	0.011253357	0.227050781	0.85546875	-0.659667969	884.64	-27.73150807	42.05463467	-136.4086925	-72
57880	0	-0.268229485	-0.134703636	0.258927345	0.999999046	-0.000311852	6.67572E-05	0.000205994	-6.705737114	-3.367590904	6.473183632	-0.015592575	0.00333786	0.010299683	0.224853516	0.85546875	-0.662597656	884.68	-27.76090576	42.07921404	-136.4001195	-72
57881	0	-0.270141602	-0.133789063	0.260314941	0.999999046	-0.000240326	6.19888E-05	0.000190735	-6.753540039	-3.344726563	6.507873535	-0.012016297	0.003099442	0.009536743	0.227294922	0.853027344	-0.659667969	884.74	-27.78312955	42.10253416	-136.389419	-72
57882	0	-0.269798279	-0.134239197	0.260216713	0.999999046	-0.000555038	-0.000106812	0.000243187	-6.74495697	-3.355979919	6.505417824	-0.027751924	-0.005340577	0.012159348	0.229492188	0.855224609	-0.659912109	884.68	-27.82834293	42.11156121	-136.357707	-72
57883	0	-0.268554688	-0.137329102	0.258972168	0.999999046	-0.000686646	-1.04904E-05	0.000118256	-6.713867188	-3.433227539	6.474304199	-0.034332278	-0.000524521	0.005912781	0.229492188	0.855224609	-0.659912109	884.64	-27.90483972	42.12362389	-136.3534273	-72
57884	0	-0.269802094	-0.134448051	0.259342194	0.999999046	-0.000754356	3.8147E-06	7.62939E-05	-6.745052338	-3.361201286	6.48355484	-0.037717823	0.000190735	0.003814698	0.227050781	0.85546875	-0.659667969	884.74	-27.99352867	42.13491192	-136.3615279	-73
57885	0	-0.269470215	-0.138244629	0.258544922	0.999999046	-0.000934601	0.000103951	-9.15527E-05	-6.736755371	-3.456115723	6.463623047	-0.046730048	0.005197526	-0.004577637	0.229492188	0.857421875	-0.66015625	884.74	-28.12323772	42.14724824	-136.4000862	-72
57886	0	-0.268217087	-0.138900757	0.258962631	0.999999046	-0.00034523	0.000143051	0.000259399	-6.70542717	-3.472518921	6.474065781	-0.017261506	0.007152558	0.012969971	0.226806641	0.859863281	-0.657226563	884.64	-28.15532174	42.18236695	-136.3916276	-73
57887	0	-0.270019531	-0.135925293	0.258300781	0.999999046	-0.000301361	1.23978E-05	0.000190735	-6.750488281	-3.398132324	6.457519531	-0.015068055	0.000619888	0.009536743	0.229248047	0.862060547	-0.657470703	884.68	-28.18217764	42.2006017	-136.3800748	-73
57888	0	-0.269406319	-0.136221886	0.257418633	0.999999046	-0.000571251	5.34058E-05	0.000102997	-6.735157967	-3.405547142	6.435465813	-0.028562547	0.002670288	0.005149842	0.231689453	0.859863281	-0.651611328	884.64	-28.24996166	42.21824696	-136.3756162	-73
57889	0	-0.269897461	-0.136901855	0.258605957	0.999999046	-0.000839233	0.0001688	2.28882E-05	-6.747436523	-3.422546387	6.465148926	-0.041961675	0.008440019	0.001144409	0.231689453	0.857421875	-0.654296875	884.64	-28.36144868	42.24316061	-136.4018947	-73
57890	0	-0.268831253	-0.139703751	0.257792473	0.999999046	-0.000764847	0.000192642	0.000110626	-6.720781326	-3.492593765	6.444811821	-0.038242344	0.009632112	0.005531312	0.231445313	0.864257813	-0.652099609	884.78	-28.45769295	42.27514342	-136.411825	-73
57891	0	-0.270507813	-0.139282227	0.255981445	0.999999046	-0.000610352	0.000157356	0.000110626	-6.762695313	-3.482055664	6.399536133	-0.03051758	0.007867814	0.005531311	0.229003906	0.864257813	-0.648925781	884.7	-28.53461569	42.30358681	-136.4199722	-73
57892	0	-0.269948006	-0.138741493	0.255360603	0.999999046	-0.000214577	-5.91278E-05	9.44138E-05	-6.748700142	-3.468537331	6.384015083	-0.010728836	-0.00295639	0.004720688	0.231445313	0.862060547	-0.648925781	884.74	-28.55695373	42.30936808	-136.4148309	-73
57893	0	-0.270568848	-0.136779785	0.25592041	0.999999046	-0.000289917	8.10623E-05	0.000171661	-6.764221191	-3.419494629	6.398010254	-0.01449585	0.004053116	0.008583069	0.229003906	0.862060547	-0.651611328	884.68	-28.58775511	42.33355227	-136.4188307	-73
57894	0	-0.271207809	-0.140986443	0.256954193	0.999999046	-0.000597	-0.000110626	0.000113487	-6.780195236	-3.524661064	6.423854828	-0.029850008	-0.005531311	0.005674363	0.231445313	0.864257813	-0.652099609	884.78	-28.64961689	42.3352371	-136.4149373	-73
57895	0	-0.268981934	-0.13873291	0.257141113	0.999999046	-0.000370026	6.96182E-05	5.72205E-05	-6.72454834	-3.468322754	6.428527832	-0.018501282	0.003480911	0.002861023	0.231201172	0.866455078	-0.649414063	884.78	-28.69959491	42.3518784	-136.4274165	-73
57896	0	-0.270254135	-0.136572838	0.256392479	0.999999046	-0.000300407	0.000154495	4.57764E-05	-6.756353378	-3.414320946	6.409811974	-0.015020371	0.007724762	0.002288818	0.231445313	0.864257813	-0.649169922	884.7	-28.74675311	42.37643611	-136.4509289	-73
57897	0	-0.270996094	-0.13861084	0.255615234	0.999999046	-0.000514984	2.76566E-05	6.10352E-05	-6.774902344	-3.465270996	6.390380859	-0.025749208	0.001382828	0.003051758	0.231201172	0.866455078	-0.646484375	884.74	-28.8107018	42.38911483	-136.4588076	-73
57898	0	-0.269562721	-0.142442703	0.255576134	0.999999046	-0.000427246	9.34601E-05	0.000106812	-6.739068031	-3.561067581	6.389403343	-0.021362305	0.004673004	0.005340576	0.233642578	0.866455078	-0.646484375	884.7	-28.86390458	42.41083487	-136.4650528	-73
57899	0	-0.268432617	-0.139709473	0.252746582	0.999999046	-2.67029E-05	-7.53403E-05	4.57764E-05	-6.71081543	-3.492736816	6.318664551	-0.001335144	-0.003767014	0.002288818	0.233398438	0.866455078	-0.640625	884.68	-28.86835246	42.41222918	-136.4573396	-73
57900	0	-0.270054817	-0.139576912	0.254488945	0.999999046	0.000102043	-3.62396E-05	-4.29153E-05	-6.75137043	-3.489422798	6.362223625	0.005102158	-0.001811981	-0.002145767	0.231201172	0.866455078	-0.646484375	884.74	-28.86817991	42.41264497	-136.4770867	-73
57901	0	-0.271057129	-0.139587402	0.253417969	0.999999046	2.67029E-05	-9.82285E-05	-7.62939E-05	-6.776428223	-3.489685059	6.335449219	0.001335144	-0.004911423	-0.003814697	0.231201172	0.866455078	-0.646484375	884.68	-28.8766155	42.40506581	-136.4963954	-72
57902	0	-0.270497322	-0.139554024	0.255065918	0.999999046	0.000261307	-0.000183105	-0.000260353	-6.762433052	-3.488850594	6.376647949	0.013065339	-0.009155274	-0.013017655	0.230957031	0.868896484	-0.643554688	884.7	-28.87071569	42.3787885	-136.5254032	-72
57903	0	-0.270874023	-0.139465332	0.256469727	0.999999046	0.000141144	-2.19345E-05	-0.000179291	-6.771850586	-3.486633301	6.411743164	0.00705719	-0.001096725	-0.008964539	0.231201172	0.866455078	-0.646484375	884.68	-28.87923678	42.37315672	-136.5619418	-73
57904	0	-0.270751953	-0.140040398	0.255178452	0.999999046	0.000103951	-0.000175476	-0.00012207	-6.768798828	-3.501009941	6.379461288	0.005197525	-0.008773804	-0.006103516	0.231201172	0.866455078	-0.643554688	884.78	-28.87903442	42.35529695	-136.5733046	-72
57905	0	-0.26953125	-0.140014648	0.255981445	0.999999046	0.000320435	-0.000216484	-0.000144958	-6.73828125	-3.500366211	6.399536133	0.016021729	-0.010824204	-0.007247925	0.231201172	0.866455078	-0.646484375	884.56	-28.85403821	42.332009	-136.5879828	-72
57906	0	-0.270112038	-0.139380455	0.256004333	0.999999046	0.000326157	-0.000154495	-0.000157356	-6.752800941	-3.484511375	6.400108337	0.016307831	-0.007724762	-0.007867813	0.231445313	0.864257813	-0.649169922	884.68	-28.83260635	42.31425474	-136.613676	-72
57907	0	-0.270263672	-0.139587402	0.254699707	0.999999046	0.000389099	-0.000117302	-0.000225067	-6.756591797	-3.489685059	6.367492676	0.019454957	-0.005865097	-0.011253357	0.228759766	0.866699219	-0.643310547	884.68	-28.81202943	42.296539	-136.6398593	-72
57908	0	-0.270141602	-0.138838768	0.255908966	0.999999046	0.000592232	-0.00019455	-0.000118256	-6.753540039	-3.4709692	6.397724152	0.02961159	-0.009727479	-0.005912781	0.228759766	0.866699219	-0.649169922	884.58	-28.75449396	42.27699271	-136.6530825	-72
57909	0	-0.271179199	-0.141601563	0.255187988	0.999999046	0.000293732	-0.000155449	-3.8147E-05	-6.77947998	-3.540039063	6.379699707	0.014686585	-0.007772446	-0.001907349	0.229003906	0.862060547	-0.645996094	884.64	-28.72596883	42.26583445	-136.6558064	-72
57910	0	-0.269807816	-0.138665199	0.255841255	0.999999046	0.000654221	-0.000133514	-2.38419E-05	-6.745195389	-3.466629982	6.39603138	0.032711031	-0.006675721	-0.001192093	0.231201172	0.864257813	-0.646240234	884.7	-28.6558904	42.25768931	-136.6511747	-72
57911	0	-0.270019531	-0.136962891	0.255371094	0.999999046	0.00043869	-6.38962E-05	-0.0001297	-6.750488281	-3.424072266	6.384277344	0.02193451	-0.003194809	-0.006484986	0.2265625	0.862304688	-0.645751953	884.74	-28.62357178	42.25080606	-136.6706645	-72
57912	0	-0.2706213	-0.138699532	0.25632	0.999998093	0.000259399	-0.000142097	-0.000178337	-6.765532494	-3.467488289	6.407999992	0.012969971	-0.007104874	-0.008916855	0.229248047	0.862060547	-0.654541016	884.64	-28.61234179	42.23343139	-136.7018299	-72
57913	0	-0.26965332	-0.139526367	0.256958008	0.999999046	0.000312805	-0.000185966	-7.24792E-05	-6.741333008	-3.48815918	6.423950195	0.015640259	-0.009298325	-0.003623962	0.224121094	0.864501953	-0.648681641	884.62	-28.58315337	42.21742835	-136.7070477	-72
57914	0	-0.270087242	-0.139771461	0.256779671	0.999999046	0.000276566	-0.000135422	-6.58035E-05	-6.752181053	-3.494286537	6.419491768	0.013828278	-0.006771088	-0.003290176	0.229003906	0.862060547	-0.651611328	884.62	-28.56007795	42.2068772	-136.715678	-72
57915	0	-0.269470215	-0.137512207	0.25402832	0.999999046	0.000499725	-0.00020504	-9.91821E-05	-6.736755371	-3.437805176	6.350708008	0.024986268	-0.010251999	-0.004959107	0.229003906	0.862060547	-0.651611328	884.68	-28.51103632	42.1875918	-136.7212657	-72
57916	0	-0.270191193	-0.138467789	0.258366585	0.999999046	0.000208855	-0.000139236	-8.7738E-05	-6.754779816	-3.461694717	6.459164619	0.010442734	-0.006961823	-0.004386902	0.226806641	0.862060547	-0.654541016	884.68	-28.49750235	42.17554593	-136.7366301	-72
57917	0	-0.269836426	-0.139038086	0.255554199	0.999999046	0.000221252	-0.000304222	-0.000110626	-6.745910645	-3.475952148	6.38885498	0.011062622	-0.015211106	-0.005531311	0.229003906	0.862060547	-0.651611328	884.7	-28.47653448	42.14568292	-136.7338819	-72
57918	0	-0.268855095	-0.137946129	0.258098602	0.999999046	0.00047493	-0.000240326	-0.000115395	-6.721377373	-3.448653221	6.452465057	0.023746492	-0.012016297	-0.00576973	0.226806641	0.859863281	-0.654296875	884.7	-28.43004319	42.12196226	-136.7433731	-72
57919	0	-0.269897461	-0.138549805	0.256835938	0.999999046	0.000144958	-0.000250816	-0.000125885	-6.747436523	-3.463745117	6.420898438	0.007247925	-0.012540817	-0.006294251	0.226806641	0.862060547	-0.657470703	884.64	-28.42184014	42.09665505	-136.7556471	-72
57920	0	-0.269307137	-0.138849258	0.256340027	0.999999046	0.000317574	-0.000240326	-4.29153E-05	-6.732678413	-3.471231461	6.408500671	0.015878678	-0.012016297	-0.002145767	0.224609375	0.859863281	-0.659912109	884.62	-28.38689646	42.07696606	-136.7645126	-72
57921	0	-0.269592285	-0.138549805	0.257141113	0.999999046	0.000343323	-0.000224113	-1.14441E-05	-6.739807129	-3.463745117	6.428527832	0.017166138	-0.011205674	-0.000572205	0.224609375	0.859863281	-0.659912109	884.7	-28.34697796	42.06065762	-136.7683634	-72
57922	0	-0.268680573	-0.137892723	0.256319046	0.999999046	0.000257492	-0.000173569	-2.28882E-05	-6.717014313	-3.447318077	6.407976151	0.012874603	-0.008678436	-0.001144409	0.226806641	0.859863281	-0.657226563	884.7	-28.32045028	42.048861	-136.7689893	-72
57923	0	-0.268859863	-0.13885498	0.25579834	0.999999046	0.000610352	-0.00014019	-2.28882E-05	-6.721496582	-3.471374512	6.394958496	0.03051758	-0.007009507	-0.001144409	0.224365234	0.860107422	-0.654296875	884.68	-28.25524342	42.04048176	-136.7670689	-72
57924	0	-0.269269943	-0.137577057	0.257445335	0.999999046	0.000662804	-0.000238419	-4.95911E-05	-6.731748581	-3.439426422	6.436133385	0.033140185	-0.01192093	-0.002479553	0.224609375	0.857666016	-0.659912109	884.56	-28.18168488	42.02077947	-136.7702727	-72
57925	0	-0.269836426	-0.138305664	0.258728027	0.999999046	0.000522614	-0.000178337	-6.48499E-05	-6.745910645	-3.457641602	6.468200684	0.026130678	-0.008916855	-0.003242493	0.227050781	0.857666016	-0.662841797	884.68	-28.12856297	42.00633772	-136.7796415	-72
57926	0	-0.268567085	-0.137096405	0.256587029	0.999999046	0.000640869	-0.000282288	5.72205E-05	-6.714177132	-3.427410126	6.414675713	0.03204346	-0.014114381	0.002861023	0.224609375	0.857666016	-0.662841797	884.7	-28.04579332	41.98803426	-136.7646343	-71
57927	0	-0.269042969	-0.135192871	0.258666992	0.999999046	0.000701904	-0.000388145	4.19617E-05	-6.726074219	-3.379821777	6.466674805	0.035095219	-0.019407274	0.002098084	0.222412109	0.85546875	-0.662353516	884.7	-27.95222746	41.95822633	-136.7443153	-72
57928	0	-0.268737793	-0.134765625	0.258972168	0.999999046	0.00042057	-0.000217438	-8.39233E-05	-6.718444824	-3.369140625	6.474304199	0.021028519	-0.010871888	-0.004196167	0.224853516	0.85546875	-0.662597656	884.74	-27.9105268	41.93896557	-136.7488783	-71
57929	0	-0.268343925	-0.137787819	0.259455681	0.999998093	0.000214577	-0.000154495	-0.000113487	-6.708598137	-3.444695473	6.486392021	0.010728836	-0.007724762	-0.005674362	0.222412109	0.857666016	-0.662597656	884.7	-27.89823652	41.92446501	-136.7615443	-72
57930	0	-0.267816544	-0.136296272	0.257974625	0.999999046	0.000396729	-0.000244141	-7.62939E-06	-6.695413589	-3.407406807	6.449365616	0.019836426	-0.012207032	-0.00038147	0.222412109	0.853271484	-0.662353516	884.62	-27.85117499	41.90658449	-136.7554351	-71
57931	0	-0.268310547	-0.136169434	0.257995605	0.999999046	0.000370026	-0.000136375	-5.72205E-05	-6.707763672	-3.40423584	6.449890137	0.018501282	-0.006818772	-0.002861023	0.224853516	0.85546875	-0.668457031	884.64	-27.81691888	41.89701754	-136.767488	-71
57932	0	-0.268589973	-0.13692379	0.260062218	0.999999046	0.000279427	-0.000185013	-6.10352E-05	-6.714749336	-3.423094749	6.501555443	0.013971329	-0.009250641	-0.003051758	0.222412109	0.85546875	-0.662353516	884.68	-27.79108903	41.88230725	-136.7676164	-72
57933	0	-0.268493652	-0.135986328	0.260375977	0.999999046	0.000205994	-6.00815E-05	-9.15527E-05	-6.712341309	-3.399658203	6.509399414	0.010299683	-0.003004074	-0.004577637	0.22265625	0.853271484	-0.665283203	884.72	-27.78241715	41.87862872	-136.7869571	-71
57934	0	-0.268620491	-0.136112213	0.260037422	0.999999046	0.00019455	-0.000179291	3.43323E-05	-6.715512276	-3.402805328	6.500935555	0.009727478	-0.008964539	0.001716614	0.22265625	0.853271484	-0.665283203	884.62	-27.75790436	41.86959745	-136.7796871	-72
57935	0	-0.268615723	-0.135681152	0.259887695	0.999999046	0.00012207	-0.000227928	8.39233E-05	-6.715393066	-3.392028809	6.497192383	0.006103516	-0.011396408	0.004196167	0.22265625	0.851074219	-0.66796875	884.7	-27.73485886	41.85830076	-136.7682554	-71
57936	0	-0.267543793	-0.136122704	0.259860039	0.999999046	0.000170708	-0.000238419	-6.58035E-05	-6.688594818	-3.403067589	6.496500969	0.008535385	-0.011920929	-0.003290176	0.222412109	0.85546875	-0.662353516	884.68	-27.7193562	41.83793136	-136.7617082	-72
57937	0	-0.26776123	-0.135620117	0.259216309	0.999999046	0.000354767	-0.000132561	8.01086E-05	-6.694030762	-3.39050293	6.480407715	0.017738343	-0.006628037	0.004005432	0.22265625	0.853271484	-0.668212891	884.74	-27.67459013	41.83609931	-136.7534532	-71
57938	0	-0.266921043	-0.135394096	0.259322166	0.999999046	0.000326157	-0.000230789	-5.34058E-05	-6.673026085	-3.384852409	6.483054161	0.016307831	-0.01153946	-0.002670288	0.22265625	0.853271484	-0.670898438	884.62	-27.64057616	41.81718307	-136.7591424	-72
57939	0	-0.268005371	-0.134765625	0.259887695	0.999999046	0.000156403	-5.62668E-05	-7.62939E-05	-6.700134277	-3.369140625	6.497192383	0.007820129	-0.002813339	-0.003814697	0.22265625	0.851074219	-0.66796875	884.7	-27.63636602	41.81479967	-136.7769498	-72
57940	0	-0.267284393	-0.135763168	0.260570526	0.999999046	0.000340462	-0.000156403	-3.8147E-05	-6.682109833	-3.394079208	6.514263153	0.017023087	-0.00782013	-0.001907349	0.22265625	0.851074219	-0.66796875	884.56	-27.6028512	41.80424912	-136.7808385	-71
57941	0	-0.26940918	-0.13470459	0.261047363	0.999999046	-2.67029E-05	-0.000163078	7.62939E-06	-6.735229492	-3.367614746	6.526184082	-0.001335144	-0.008153915	0.00038147	0.220214844	0.853271484	-0.670898438	884.64	-27.60688717	41.79550903	-136.7834894	-72
57942	0	-0.267433167	-0.13660717	0.263629913	0.999999046	-0.000297546	-1.71661E-05	8.7738E-05	-6.685829163	-3.415179253	6.590747833	-0.01487732	-0.000858307	0.004386902	0.22265625	0.853271484	-0.668212891	884.62	-27.64158302	41.80571432	-136.7798246	-72
57943	0	-0.269104004	-0.134216309	0.261474609	0.999999046	-0.00018692	-7.15256E-05	0.00018692	-6.727600098	-3.355407715	6.536865234	-0.009346008	-0.003576279	0.009346008	0.22265625	0.853271484	-0.665283203	884.74	-27.65189363	41.81571498	-136.7549809	-72
57944	0	-0.266858101	-0.131650925	0.259632111	0.999999046	-0.000449181	4.19617E-05	0.000255585	-6.671452522	-3.291273117	6.490802765	-0.022459031	0.002098084	0.012779236	0.220214844	0.851074219	-0.664794922	884.78	-27.69121158	41.84093902	-136.7356329	-72
57945	0	-0.268066406	-0.138122559	0.259033203	0.999999046	-0.000518799	-0.000121117	0.000217438	-6.701660156	-3.453063965	6.475830078	-0.025939943	-0.006055832	0.010871888	0.222412109	0.85546875	-0.665283203	884.8	-27.73437785	41.84759352	-136.706309	-72
57946	0	-0.268123627	-0.136752129	0.261336327	0.999999046	-0.000202179	-0.000143051	0.000430107	-6.703090668	-3.418803215	6.533408165	-0.010108948	-0.007152558	0.021505357	0.222412109	0.85546875	-0.668212891	884.7	-27.72089644	41.86331693	-136.6528278	-72
57947	0	-0.267822266	-0.133239746	0.258300781	0.999999046	-0.000301361	-0.000151634	0.000507355	-6.695556641	-3.330993652	6.457519531	-0.015068055	-0.007581711	0.025367738	0.22265625	0.853271484	-0.668212891	884.8	-27.7112186	41.88235832	-136.591846	-72
57948	0	-0.268309593	-0.13642025	0.259459496	0.999999046	-0.000683784	-0.00018692	0.000263214	-6.70773983	-3.410506248	6.486487389	-0.034189228	-0.009346009	0.013160707	0.222412109	0.85546875	-0.668212891	884.74	-27.76592501	41.88482403	-136.5626075	-72
57949	0	-0.272338867	-0.143432617	0.262634277	0.999999046	-7.62939E-06	-0.000231743	-7.24792E-05	-6.80847168	-3.58581543	6.565856934	-0.00038147	-0.011587143	-0.003623962	0.224853516	0.85546875	-0.665527344	884.72	-27.77187952	41.8647871	-136.5682631	-72
57950	0	-0.27097702	-0.138715744	0.260621071	0.999995232	0.002660751	-0.000675201	-0.000512123	-6.774425507	-3.4678936	6.515526772	0.13303774	-0.033760115	-0.025606189	0.22265625	0.853271484	-0.665283203	884.78	-27.49108951	41.77641852	-136.593452	-72
57951	0	-0.279785156	-0.134887695	0.25970459	0.999997139	0.001747131	-0.001093864	-0.000392914	-6.994628906	-3.372192383	6.492614746	0.087356631	-0.054693262	-0.019645705	0.220214844	0.851074219	-0.667724609	884.64	-27.28481395	41.65234136	-136.5724853	-71
57952	0	-0.290031433	-0.156226158	0.282554626	0.999987602	0.003949165	-0.002979279	7.62939E-05	-7.250785828	-3.905653954	7.063865662	0.197459073	-0.148964536	0.003814713	0.220458984	0.848876953	-0.673339844	884.64	-26.69853422	41.35999418	-136.3468847	-71
57953	0	-0.321105957	-0.199462891	0.289855957	0.999836922	0.016738892	-0.006491661	0.001937866	-8.027648926	-4.986572266	7.246398926	0.836990073	-0.324600697	0.096898577	0.213867188	0.840087891	-0.681152344	884.68	-24.33950368	40.79281889	-135.5983255	-69
57954	0	-0.397686005	-0.188013077	0.29065609	0.999334335	0.033484459	-0.013953209	0.003686905	-9.942150116	-4.70032692	7.266402245	1.674594147	-0.697815128	0.184386117	0.208984375	0.806396484	-0.724609375	884.7	-19.68168094	39.48151075	-134.1929891	-68
57955	0	-0.402404785	-0.147338867	0.312561035	0.998981476	0.039399147	-0.021099091	0.006153107	-10.06011963	-3.68347168	7.814025879	1.970626215	-1.05531272	0.307759793	0.193115234	0.752685547	-0.786132813	884.7	-14.08831283	37.39058116	-132.2968491	-68
57956	0	-0.380630493	-0.113092422	0.315854073	0.998558044	0.045473099	-0.026410103	0.0107584	-9.515762329	-2.827310562	7.896351814	2.274748104	-1.321140037	0.538178628	0.170898438	0.68359375	-0.846191406	884.68	-7.594910912	34.67334988	-129.9179818	-67
57957	0	-0.345092773	-0.068908691	0.292419434	0.998662949	0.039982796	-0.029174805	0.014862061	-8.627319336	-1.722717285	7.31048584	2.000030699	-1.459390319	0.74343419	0.142089844	0.601318359	-0.913574219	884.68	-1.741300484	31.50922365	-127.4015351	-73
57958	0	-0.257655144	-0.045765877	0.267989159	0.998732567	0.035642624	-0.030649185	0.017935753	-6.441378593	-1.144146919	6.699728966	1.782883952	-1.533106557	0.897166439	0.107910156	0.525878906	-0.960693359	884.74	3.476255672	27.99995828	-124.9300117	-68
57959	0	-0.191162109	-0.02746582	0.261352539	0.998849869	0.032334328	-0.029953003	0.018852234	-4.779052734	-0.686645508	6.533813477	1.617336255	-1.498224365	0.942973104	0.075683594	0.455322266	-0.993652344	884.7	8.057957239	24.40415734	-122.7424775	-66
57960	0	-0.125366211	0.000954628	0.272322655	0.998817444	0.034812927	-0.027705193	0.019565582	-3.134155273	0.0238657	6.808066368	1.741332422	-1.385805616	0.978664693	0.038574219	0.386962891	-1.026611328	884.68	12.71777192	20.91377944	-120.7874267	-81
57961	0	-0.113708496	0.039001465	0.282104492	0.999094009	0.02972126	-0.022777557	0.020183563	-2.842712402	0.975036621	7.052612305	1.486511552	-1.139221624	1.009482769	0.001220703	0.320800781	-1.048095703	884.68	16.66616637	17.83954316	-118.9502692	-64
57962	0	-0.111273766	0.071362495	0.303756714	0.999126434	0.028307915	-0.022665977	0.020751953	-2.781844139	1.784062386	7.593917847	1.415807877	-1.133628872	1.037899788	-0.029541016	0.261230469	-1.067626953	884.68	20.31656062	14.65964167	-117.2853747	-63
57963	0	-0.133117676	0.13092041	0.300598145	0.999184608	0.025981903	-0.020915031	0.02274704	-3.327941895	3.273010254	7.514953613	1.299448318	-1.046035863	1.137661183	-0.060302734	0.204101563	-1.075683594	884.64	23.63890069	11.50124695	-115.5516434	-71
57964	0	-0.164279938	0.171300888	0.29145813	0.999258041	0.021518707	-0.024191856	0.020811081	-4.106998444	4.282522202	7.286453247	1.07620119	-1.209891667	1.040811131	-0.093994141	0.156005859	-1.081542969	884.62	26.2705465	8.025728676	-114.355215	-64
57965	0	-0.135986328	0.155456543	0.34375	0.99928093	0.017518044	-0.027019501	0.020011902	-3.399658203	3.886413574	8.59375	0.87611215	-1.351298897	1.000834959	-0.137939453	0.119628906	-1.078857422	884.68	28.33968671	4.26993178	-113.5317135	-68
57966	0	-0.058035851	0.16417408	0.341451645	0.999415398	0.019151688	-0.020038605	0.01996994	-1.450896263	4.104351997	8.536291122	0.95777075	-1.002125237	0.998691341	-0.182128906	0.089599609	-1.079833984	884.74	30.5706515	1.193524438	-112.4740029	-62
57967	0	-0.045166016	0.177001953	0.311950684	0.999658585	0.005745888	-0.012161255	0.022373199	-1.129150391	4.425048828	7.79876709	0.287327028	-0.608131828	1.118787068	-0.209716797	0.059326172	-1.075683594	884.74	31.22326016	-1.269308061	-110.8445109	-63
57968	0	0.003575325	0.165240288	0.314684868	0.999621391	-0.004014015	-0.008663177	0.025803566	0.089383125	4.131007195	7.867121696	-0.20072609	-0.433213542	1.290341129	-0.224609375	0.068847656	-1.072753906	884.68	30.67251664	-3.592757598	-108.6854927	-62
57969	0	0.035095215	0.170959473	0.311950684	0.999574661	-0.002913475	-0.006011963	0.028369904	0.877380371	4.273986816	7.79876709	-0.145694384	-0.30064072	1.418696086	-0.23046875	0.091552734	-1.065673828	884.74	30.1337731	-5.785484697	-106.0882691	-64
57970	0	0.070177078	0.146940231	0.302530289	0.999357224	-0.01066494	-0.005822182	0.033709526	1.754426956	3.673505783	7.563257217	-0.533361172	-0.291171417	1.685837195	-0.2265625	0.113769531	-1.061767578	884.74	28.53496128	-8.216189045	-102.8823025	-61
57971	0	0.119995117	0.125549316	0.301574707	0.999097824	-0.01431942	-0.006416321	0.039455414	2.99987793	3.13873291	7.539367676	-0.71618631	-0.320912521	1.973363972	-0.228515625	0.15625	-1.0625	884.7	26.27128293	-10.91195363	-99.01473158	-60
57972	0	0.133032799	0.107388496	0.289861679	0.998826981	-0.017560959	-0.006646156	0.044621468	3.325819969	2.68471241	7.246541977	-0.878391276	-0.332437754	2.23194577	-0.218994141	0.207519531	-1.049804688	884.62	23.31158423	-13.71506165	-94.4448625	-60
57973	0	0.152282715	0.088806152	0.279846191	0.998761177	-0.014110565	-0.010401726	0.046554565	3.807067871	2.220153809	6.996154785	-0.705819571	-0.520301031	2.328689387	-0.207275391	0.265380859	-1.040771484	884.74	20.46337909	-16.78316451	-89.60968959	-63
57974	0	0.175323486	0.034157753	0.291584969	0.998632431	-0.014643669	-0.014359474	0.048072815	4.383087158	0.853943825	7.289624214	-0.732517209	-0.718300984	2.404736403	-0.197753906	0.314453125	-1.024902344	884.74	17.21896465	-20.09886389	-84.50374908	-62
57975	0	0.194885254	0.040222168	0.324890137	0.99875927	-0.008602142	-0.017008781	0.045986176	4.872131348	1.005554199	8.122253418	-0.430284951	-0.850790699	2.300259461	-0.1953125	0.363769531	-1.008789063	884.8	14.4173304	-23.39423411	-79.46902597	-62
57976	0	0.19557476	0.053706169	0.346391678	0.998760223	-0.00582695	-0.019717216	0.045326233	4.889369011	1.342654228	8.659791946	-0.291467925	-0.986268306	2.267248371	-0.189941406	0.397216797	-0.994384766	884.7	11.61447365	-26.7519607	-74.30826888	-64
57977	0	0.232849121	0.044921875	0.347595215	0.998749733	-0.006217957	-0.022044182	0.04441452	5.821228027	1.123046875	8.689880371	-0.311027371	-1.102668358	2.221651341	-0.19140625	0.428710938	-0.985351563	884.74	8.420252945	-30.11461289	-68.99152096	-65
57978	0	0.238350868	0.045332909	0.342575073	0.998772621	-0.00958252	-0.022138596	0.043252945	5.958771706	1.133322716	8.564376831	-0.479322057	-1.107382785	2.1635323	-0.193115234	0.458007813	-0.967285156	884.7	4.45628687	-33.18302757	-63.44545322	-64
57979	0	0.240478516	0.032043457	0.346740723	0.998818398	-0.007949829	-0.020754814	0.043201447	6.011962891	0.801086426	8.668518066	-0.39764799	-1.038149376	2.160922977	-0.190185547	0.498291016	-0.956298828	884.7	0.212325386	-35.75357972	-57.49314839	-63
57980	0	0.240178108	0.021169662	0.318837166	0.998880386	-0.008565903	-0.017617226	0.04305172	6.004452705	0.529241562	7.970929146	-0.428454993	-0.881190056	2.153389417	-0.184570313	0.529541016	-0.941650391	884.74	-4.497134847	-37.57938285	-51.20767646	-64
57981	0	0.241516113	-0.003112793	0.288513184	0.998908997	-0.014807701	-0.015090942	0.041618347	6.037902832	-0.077819824	7.21282959	-0.740654214	-0.754821426	2.081673852	-0.164794922	0.564697266	-0.925292969	884.74	-10.07901792	-38.68328763	-44.87560651	-66
57982	0	0.244040489	-0.03106308	0.281603813	0.998867989	-0.020896912	-0.016208649	0.039517403	6.10101223	-0.776576996	7.040095329	-1.045239719	-0.810738147	1.976615473	-0.140869141	0.608886719	-0.8984375	884.64	-16.39441208	-39.44950129	-38.61607288	-68
57983	0	0.246643066	-0.070800781	0.260742188	0.998877525	-0.021606445	-0.017378807	0.038383484	6.16607666	-1.770019531	6.518554688	-1.080726382	-0.869265398	1.919892099	-0.122070313	0.659912109	-0.865722656	884.68	-22.85413816	-39.84504542	-32.34602813	-69
57984	0	0.235632896	-0.133844376	0.235577583	0.998886108	-0.018037796	-0.019413948	0.039034843	5.890822411	-3.34610939	5.889439583	-0.902224735	-0.97105789	1.952466989	-0.095703125	0.704101563	-0.841796875	884.7	-29.0913319	-39.88445595	-25.81959476	-69
57985	0	0.234619141	-0.140075684	0.237792969	0.998873711	-0.019821167	-0.020590782	0.0378685	5.865478516	-3.50189209	5.944824219	-0.991430519	-1.029925729	1.894136021	-0.069335938	0.741455078	-0.805664063	884.74	-35.45692717	-39.56162362	-19.39934958	-67
57986	0	0.241840363	-0.154900551	0.264133453	0.998810768	-0.026050568	-0.018039703	0.037050247	6.046009064	-3.872513771	6.603336334	-1.303044905	-0.902342855	1.853246982	-0.045410156	0.783203125	-0.778564453	884.74	-42.17215187	-38.51053745	-13.4577188	-66
57987	0	0.238769531	-0.190124512	0.240722656	0.998970985	-0.024349213	-0.016432762	0.034553528	5.969238281	-4.753112793	6.018066406	-1.217878378	-0.821920035	1.728269207	-0.011962891	0.824951172	-0.737304688	884.74	-48.1550986	-37.03089085	-8.22919773	-64
57988	0	0.249744415	-0.208476067	0.224415779	0.999129295	-0.02193737	-0.013807297	0.032676697	6.243610382	-5.211901665	5.610394478	-1.097186793	-0.690565161	1.634308929	0.021728516	0.859863281	-0.701171875	884.68	-53.28169218	-35.13684049	-3.77830909	-63
57989	0	0.248718262	-0.227783203	0.207824707	0.998973846	-0.02749157	-0.008132935	0.035037994	6.217956543	-5.694580078	5.195617676	-1.375048464	-0.406785767	1.752498718	0.062988281	0.890136719	-0.662353516	884.74	-58.44414434	-32.34155523	-0.137105206	-63
57990	0	0.21801281	-0.225832939	0.161366463	0.998914719	-0.028479576	-0.004050255	0.036610603	5.450320244	-5.645823479	4.034161568	-1.424493798	-0.202585981	1.831192191	0.120605469	0.919677734	-0.618408203	884.74	-63.15166102	-28.91390512	2.717924541	-63
57991	0	0.178100586	-0.179016113	0.105712891	0.998886108	-0.031031609	-0.002780914	0.035434723	4.452514648	-4.475402832	2.642822266	-1.552156724	-0.13909736	1.772394211	0.181152344	0.940429688	-0.573974609	884.7	-67.71450518	-25.36543903	4.952755349	-64
57992	0	0.164218903	-0.252710342	0.032684326	0.997163773	-0.063364029	0.004641533	0.040332794	4.105472565	-6.31775856	0.817108154	-3.171199494	0.232296257	2.018548042	0.248291016	0.967773438	-0.507324219	884.7	-75.39008027	-20.82773798	6.041953271	-63
57993	0	0.187927246	-0.410949707	0.021850586	0.994038582	-0.09381485	0.021496773	0.051223755	4.698181152	-10.27374268	0.546264648	-4.700085867	1.076979583	2.566289311	0.342041016	1.010253906	-0.361572266	884.7	-85.70394815	-14.64830335	4.577972428	-63
57994	0	0.160796165	-0.457080841	-0.094111443	0.991950989	-0.106726646	0.023217201	0.064055443	4.019904137	-11.42702103	-2.352786064	-5.350695507	1.163984614	3.21139267	0.466796875	1.020996094	-0.145019531	884.74	-97.43504631	-7.398412782	1.743660767	-66
57995	0	0.125854492	-0.26574707	-0.161804199	0.99491787	-0.082988739	0.011715889	0.055793762	3.146362305	-6.643676758	-4.04510498	-4.156479833	0.586788724	2.794423077	0.604003906	0.970947266	0.072998047	884.7	-106.7792731	-1.45162184	-0.86296074	-68
57996	0	-0.089811325	-0.947606087	-0.169213295	0.998671532	-0.004994392	-0.00633049	0.050888062	-2.245283127	-23.69015217	-4.230332375	-0.249830237	-0.316664715	2.545530158	0.692871094	0.895263672	0.228759766	884.8	-107.3852943	4.317067691	-1.921357469	-66
57997	0	0.109741211	-0.598266602	-0.148193359	0.99643898	0.056099892	-0.015716553	0.060943604	2.743530273	-14.95666504	-3.704833984	2.808328396	-0.786761614	3.050801833	0.797851563	0.839355469	0.119873047	884.78	-100.9407943	11.50518387	-1.908320302	-65
57998	0	-0.198331833	-0.190502167	-0.002829552	0.998194695	0.012903214	-0.021669388	0.054508209	-4.958295822	-4.762554169	-0.070738792	0.645549177	-1.084121832	2.727051644	0.903808594	0.743408203	0.049072266	884.8	-99.1049069	18.07227918	-0.510360482	-66
57999	0	-0.237182617	-0.345397949	0.00604248	0.999993324	9.15527E-05	0.002419472	-0.002689362	-5.92956543	-8.63494873	0.151062012	0.004577647	0.120973851	-0.134468372	0.962890625	0.676025391	-0.000976563	884.84	-99.16867823	17.71039966	-0.745971437	-70
58000	0	-0.130831718	-0.410376549	0.008286476	0.999360085	-0.035162926	0.005765915	0.00289917	-3.270792961	-10.25941372	0.207161903	-1.758521011	0.288357192	0.144989392	0.954833984	0.685302734	0.013427734	884.68	-103.4255942	17.89337856	-1.491998756	-79
58001	0	-0.149230957	-0.409484863	-0.096374512	0.998515129	-0.053546906	0.008709908	0.004936218	-3.730773926	-10.23712158	-2.409362793	-2.678671218	0.435711053	0.246933145	0.961181641	0.674560547	0.089599609	884.8	-109.9260155	18.13610742	-2.666132216	-75
58002	0	-0.125481606	-0.399017334	-0.141419411	0.998867989	-0.046506882	0.008802414	0.004724503	-3.137040138	-9.97543335	-3.535485268	-2.326221903	0.440286843	0.236314303	0.965332031	0.652587891	0.172851563	884.74	-115.6288362	18.23145297	-3.864047243	-72
58003	0	-0.108215332	-0.437133789	-0.205322266	0.999233246	-0.037089348	0.012428284	0.001255035	-2.705383301	-10.92834473	-5.133056641	-1.85494112	0.621572926	0.0627678	0.965332031	0.624023438	0.2421875	884.7	-120.3062144	17.67496503	-5.255063694	-72
58004	0	-0.067814827	-0.386113167	-0.244119644	0.999315262	-0.029935837	0.020403862	0.007459641	-1.695370674	-9.65282917	-6.102991104	-1.497133348	1.020425867	0.373067125	0.958007813	0.600341797	0.311767578	884.74	-124.4972201	17.12471633	-7.800719015	-74
58005	0	0.039855957	-0.328308105	-0.198120117	0.998781204	-0.046317101	0.016242981	0.00510788	0.996398926	-8.207702637	-4.95300293	-2.316795986	0.812479034	0.255497752	0.951171875	0.560791016	0.385253906	884.84	-130.3554578	16.43225914	-9.710999197	-76
58006	0	-0.074587822	-0.297057152	-0.310501099	0.991885185	-0.122936249	0.018417358	0.026655197	-1.864695549	-7.426428795	-7.762527466	-6.163492555	0.923366806	1.336376462	0.945556641	0.479003906	0.491455078	884.78	-145.584366	16.88257946	-13.54198992	-79
58007	0	-0.202636719	-0.19543457	-0.283508301	0.994356155	-0.097712517	0.029735565	0.028697968	-5.065917969	-4.885864258	-7.08770752	-4.894837611	1.489581557	1.437603855	0.949462891	0.278320313	0.627685547	884.7	-158.1093812	15.40806549	-18.2265487	-80
58008	0	-0.205694199	-0.123722076	-0.271263123	0.997596741	-0.065450668	0.010830879	0.019949913	-5.142354965	-3.09305191	-6.781578064	-3.27515662	0.541978052	0.998295226	0.918945313	0.12109375	0.709472656	884.78	-166.3027213	14.9121455	-20.8692799	-78
58009	0	-0.233520508	-0.116394043	-0.326904297	0.99702549	-0.075458527	0.010674477	0.011425018	-5.838012695	-2.909851074	-8.172607422	-3.776670577	0.534253498	0.571817824	0.909667969	-0.005859375	0.729492188	884.68	-175.3326452	13.90927865	-22.39656519	-75
58010	0	-0.127120972	-0.017874718	-0.316476822	0.997109413	-0.074203491	0.012228012	0.01082325	-3.178024292	-0.446867943	-7.911920547	-3.713753564	0.611990389	0.541684521	0.888916016	-0.139404297	0.741699219	884.74	175.8703598	12.51344887	-23.66799362	-79
58011	0	-0.027160645	0.112731934	-0.374938965	0.996781349	-0.078350067	0.005646706	0.015995026	-0.679016113	2.81829834	-9.373474121	-3.921711484	0.282638562	0.800610363	0.865966797	-0.268554688	0.73046875	884.7	166.5189992	11.5915561	-25.40817473	-92
58012	0	0.02154541	0.145812988	-0.416320801	0.996400833	-0.084079742	0.003708839	0.010055542	0.538635254	3.645324707	-10.40802002	-4.20903723	0.185664736	0.503381069	0.8515625	-0.411621094	0.682128906	884.78	156.6828462	10.8188499	-26.37604491	-77
58013	0	-0.05476284	0.099092484	-0.30844593	0.998343468	-0.057062149	-0.003573418	-0.006121635	-1.369071007	2.477312088	-7.711148262	-2.854682017	-0.178769488	-0.306250691	0.838867188	-0.530273438	0.608398438	884.78	150.2302071	11.49414295	-25.91775762	-83
58014	0	-0.097680092	0.218976974	-0.304103851	0.999634743	-0.00484848	-0.004306793	-0.02620697	-2.442002296	5.474424362	-7.602596283	-0.24245347	-0.215365828	-1.31050774	0.857910156	-0.560546875	0.551513672	884.7	150.1963173	13.41202878	-23.49741719	-77
58015	0	-0.054992676	0.234619141	-0.337036133	0.999160767	-0.00506115	0.002120972	-0.040584564	-1.374816895	5.865478516	-8.42590332	-0.253128272	0.106078251	-2.029795883	0.894042969	-0.510253906	0.556884766	884.58	150.6887712	15.49151199	-19.18870409	-73
58016	0	-0.058148384	0.201594353	-0.252680779	0.998936653	-0.005414009	-0.002628326	-0.045707703	-1.453709602	5.039858818	-6.317019463	-0.270796438	-0.131462918	-2.286195472	0.927001953	-0.442138672	0.546386719	884.7	151.412228	18.28682829	-14.54261154	-72
58017	0	-0.103210449	0.176208496	-0.22265625	0.998715401	0.01499176	-0.003886223	-0.048229218	-2.58026123	4.405212402	-5.56640625	0.749908946	-0.194394336	-2.412493336	0.971435547	-0.358642578	0.542724609	884.74	154.8235958	21.18078694	-9.511551982	-71
58018	0	-0.166609764	0.176272392	-0.258810997	0.998635292	0.028648376	0.011793137	-0.042030334	-4.165244102	4.406809807	-6.470274925	1.433070504	0.589925095	-2.102472811	1	-0.247558594	0.552246094	884.72	160.0568525	21.77832684	-4.167120231	-71
58019	0	-0.132385254	0.12097168	-0.255432129	0.998973846	0.020642281	0.021850586	-0.033851624	-3.309631348	3.024291992	-6.385803223	1.032466905	1.092902828	-1.693159864	0.997070313	-0.144287109	0.593261719	884.74	164.1437724	20.58503271	0.624488616	-70
58020	0	-0.114473343	0.046309471	-0.255018234	0.99876976	0.023256302	0.030867577	-0.031067848	-2.861833572	1.157736778	-6.375455856	1.163292158	1.544012027	-1.554029715	0.975585938	-0.058105469	0.6484375	884.68	168.3086892	17.99415311	5.18790862	-71
58021	0	-0.158996582	0.054626465	-0.425048828	0.997333527	0.056397438	0.039409637	-0.024311066	-3.974914551	1.365661621	-10.6262207	2.822380469	1.972234819	-1.216634644	0.931640625	0.044677734	0.718017578	884.8	175.7426889	13.90530389	8.716006978	-73
58022	0	-0.058442116	0.004593849	-0.528206825	0.997146606	0.069453239	0.025956154	-0.014099121	-1.461052895	0.11484623	-13.20517063	3.475967316	1.299042971	-0.705627045	0.872314453	0.172607422	0.774658203	884.74	-175.9377794	10.92833193	10.38315221	-73
58023	0	-0.031555176	-0.080627441	-0.415161133	0.998450279	0.053756714	0.008107185	-0.011863708	-0.788879395	-2.015686035	-10.37902832	2.689224668	0.405568743	-0.593491961	0.8359375	0.299072266	0.771972656	884.74	-169.5523573	9.826860911	11.64361313	-73
58024	0	-0.044393539	-0.122487068	-0.412083626	0.999612808	0.027080536	-0.00568676	-0.002875328	-1.109838486	-3.062176704	-10.30209064	1.354201516	-0.284374688	-0.143784955	0.822753906	0.38671875	0.750732422	884.74	-166.3685452	10.38531447	12.11874037	-72
58025	0	-0.070739746	-0.111877441	-0.365112305	0.999949455	0.005695343	-0.007693291	0.002868652	-1.768493652	-2.796936035	-9.127807617	0.28477189	-0.384670937	0.143435004	0.831787109	0.415283203	0.721679688	884.74	-165.7365661	11.3099177	12.01985769	-72
58026	0	-0.091452599	-0.093378067	-0.326875687	0.999984741	-0.003533363	-0.000741005	0.004025459	-2.286314964	-2.334451675	-8.171892166	-0.176669028	-0.037050428	0.201273945	0.846435547	0.412353516	0.709472656	884.84	-166.2272786	11.49507147	11.5932052	-72
58027	0	-0.088012695	-0.088256836	-0.349609375	0.999957085	-0.006797791	0.005349159	0.003238678	-2.200317383	-2.206420898	-8.740234375	-0.339894359	0.267461765	0.161936202	0.846923828	0.398925781	0.716308594	884.78	-167.1056957	10.97613513	11.08937937	-72
58028	0	-0.066000938	-0.086576462	-0.384081841	0.999955177	-0.006831169	0.005483627	0.00357151	-1.65002346	-2.164411545	-9.602046013	-0.341563551	0.274185456	0.178578179	0.840087891	0.383789063	0.735595703	884.74	-167.989462	10.44236639	10.55306684	-72
58029	0	-0.05682373	-0.081481934	-0.382568359	0.99998188	-0.004333496	0.001229286	0.003761292	-1.420593262	-2.03704834	-9.564208984	-0.216676048	0.061464662	0.188065655	0.835693359	0.368164063	0.745849609	884.74	-168.5686336	10.38298569	10.10302402	-72
58030	0	-0.065705299	-0.074720383	-0.37130928	0.999985695	-0.00336647	-0.002227783	0.00344944	-1.642632484	-1.868009567	-9.28273201	-0.168324308	-0.111389684	0.172472811	0.838623047	0.359130859	0.743408203	884.74	-169.0171053	10.70118834	9.767432526	-72
58031	0	-0.074523926	-0.068603516	-0.364074707	0.999990463	-0.003100395	-0.001644135	0.002590179	-1.863098145	-1.715087891	-9.101867676	-0.155020252	-0.082206987	0.129509383	0.843994141	0.345703125	0.744384766	884.8	-169.4212153	10.93311115	9.514417371	-71
58032	0	-0.072753906	-0.06842041	-0.3671875	0.999994278	-0.002845764	-0.000338554	0.001613617	-1.818847656	-1.710510254	-9.1796875	-0.142288465	-0.01692775	0.080680993	0.848876953	0.341064453	0.744384766	884.74	-169.7810459	10.99612471	9.344468069	-71
58033	0	-0.074061394	-0.068776131	-0.368124008	0.999995232	-0.002738953	-1.23978E-05	0.000953674	-1.851534843	-1.719403267	-9.203100204	-0.136947824	-0.000619889	0.047683783	0.849365234	0.33203125	0.745117188	884.74	-170.1155198	11.00825917	9.24307634	-72
58034	0	-0.0722332	-0.067687988	-0.372719765	0.999990463	-0.003863335	2.19345E-05	0.002002716	-1.805830002	-1.692199707	-9.317994118	-0.193167342	0.001096729	0.100136119	0.846923828	0.327636719	0.751464844	884.74	-170.6019923	11.03593056	9.020704995	-71
58035	0	-0.069824219	-0.063964844	-0.372131348	0.999986649	-0.00442791	-0.000270844	0.002288818	-1.745605469	-1.599121094	-9.303283691	-0.221396412	-0.013542232	0.114441393	0.852294922	0.318603516	0.749023438	884.86	-171.1585893	11.09981187	8.770483452	-71
58036	0	-0.074935913	-0.057794571	-0.368835449	0.999984741	-0.004993439	-0.000174522	0.002231598	-1.873397827	-1.444864273	-9.22088623	-0.249673182	-0.008726164	0.111580452	0.852783203	0.305175781	0.753173828	884.7	-171.7794294	11.14942934	8.524205203	-71
58037	0	-0.076049805	-0.050720215	-0.370727539	0.999988556	-0.004126549	0.000324249	0.002056122	-1.901245117	-1.268005371	-9.268188477	-0.206328173	0.016212521	0.102806457	0.853027344	0.296142578	0.756835938	884.74	-172.2989217	11.13742905	8.289658463	-71
58038	0	-0.075035095	-0.047000885	-0.369103432	0.999995232	-0.002380371	0.000825882	0.001443863	-1.87587738	-1.175022125	-9.227585793	-0.119018722	0.041294156	0.072193247	0.853271484	0.289550781	0.760253906	884.78	-172.6061216	11.05771575	8.118278393	-71
58039	0	-0.0703125	-0.045593262	-0.376403809	0.999998093	-0.001139641	0.000652313	0.000656128	-1.7578125	-1.139831543	-9.410095215	-0.056982061	0.032615673	0.032806408	0.851318359	0.280517578	0.758056641	884.78	-172.7531089	10.98542848	8.040482022	-71
58040	0	-0.069337845	-0.048307419	-0.375751495	0.999999046	-0.000481606	-0.000610352	-9.72748E-05	-1.733446121	-1.207685471	-9.393787384	-0.024080279	-0.030517581	-0.00486374	0.851318359	0.280517578	0.760986328	884.74	-172.8044394	11.04555022	8.068821064	-71
58041	0	-0.074890137	-0.048278809	-0.372070313	0.999998093	-0.001032829	-0.001251221	-0.000354767	-1.872253418	-1.206970215	-9.301757813	-0.051641488	-0.062561064	-0.01773835	0.853759766	0.278320313	0.763916016	884.74	-172.9113208	11.17505345	8.136150985	-71
58042	0	-0.075852394	-0.044877052	-0.37258625	0.999999046	-0.000865936	-0.00060463	9.91821E-05	-1.896309853	-1.121926308	-9.314656258	-0.043296822	-0.030231481	0.004959107	0.856201172	0.278076172	0.760986328	884.78	-173.0111365	11.23765684	8.141587142	-71
58043	0	-0.075073242	-0.044799805	-0.372680664	0.999999046	0.00025177	-0.000212669	0.000301361	-1.876831055	-1.119995117	-9.317016602	0.012588501	-0.010633469	0.015068055	0.858398438	0.278076172	0.760742188	884.7	-172.9886056	11.25858505	8.117959052	-71
58044	0	-0.0742836	-0.046345711	-0.370490074	0.999999046	0.000372887	-0.000131607	-1.23978E-05	-1.857089996	-1.158642769	-9.262251854	0.018644333	-0.006580353	-0.000619888	0.856201172	0.278076172	0.760986328	884.78	-172.9452993	11.26595504	8.12961485	-71
58045	0	-0.075256348	-0.044799805	-0.37298584	0.999999046	0.000495911	-0.000144005	0.000144958	-1.881408691	-1.119995117	-9.324645996	0.024795533	-0.007200241	0.007247925	0.856201172	0.280273438	0.754882813	884.74	-172.8915133	11.2770194	8.123461098	-70
58046	0	-0.074462891	-0.045271873	-0.374201775	0.999998093	0.001746178	-0.000412941	3.71933E-05	-1.861572266	-1.131796837	-9.355044365	0.087308931	-0.02064706	0.001859666	0.856201172	0.278076172	0.760986328	884.74	-172.6913241	11.31713584	8.133145996	-70
58047	0	-0.075561523	-0.048339844	-0.371582031	0.999997139	0.002071381	-0.00039196	-5.72205E-05	-1.889038086	-1.208496094	-9.289550781	0.103569108	-0.019598022	-0.002861025	0.858398438	0.282470703	0.760498047	884.74	-172.4517229	11.35350799	8.15382751	-71
58048	0	-0.075728416	-0.049836159	-0.373639107	0.999998093	0.001874924	-0.000317574	-0.000210762	-1.893210411	-1.245903969	-9.340977669	0.093746242	-0.015878687	-0.010538108	0.858154297	0.287109375	0.757324219	884.74	-172.231315	11.37905307	8.191557557	-71
58049	0	-0.075500488	-0.053588867	-0.374694824	0.999999046	0.001148224	-0.000311852	-0.000118256	-1.887512207	-1.33972168	-9.367370605	0.057411208	-0.015592579	-0.005912782	0.860595703	0.2890625	0.750976563	884.7	-172.0961711	11.40529099	8.218582467	-71
58050	0	-0.076393127	-0.054585457	-0.372509003	0.999999046	-3.05176E-05	-0.000347137	3.8147E-05	-1.909828186	-1.364636421	-9.312725067	-0.001525879	-0.017356873	0.001907349	0.858154297	0.289306641	0.757080078	884.78	-172.0994273	11.43803482	8.228178313	-71
58051	0	-0.07611084	-0.051513672	-0.371154785	0.999999046	-0.000682831	-0.000311852	1.90735E-05	-1.902770996	-1.287841797	-9.278869629	-0.034141544	-0.015592577	0.000953674	0.858154297	0.291503906	0.750976563	884.74	-172.1771283	11.46653825	8.239819583	-71
58052	0	-0.075674057	-0.049538612	-0.371725082	0.999999046	-0.000641823	-0.000205994	-1.14441E-05	-1.891851425	-1.238465309	-9.29312706	-0.032091143	-0.010299683	-0.000572205	0.860595703	0.2890625	0.750976563	884.62	-172.2498645	11.4825847	8.252885488	-71
58053	0	-0.07598877	-0.049865723	-0.371765137	0.999999046	-0.000205994	-0.000330925	0.00012207	-1.899719238	-1.246643066	-9.294128418	-0.010299683	-0.01654625	0.006103516	0.860595703	0.2890625	0.750976563	884.56	-172.2754043	11.51491791	8.252464551	-71
58054	0	-0.076660156	-0.051330566	-0.371398926	0.999999046	-6.86646E-05	-0.000255585	-0.000114441	-1.916503906	-1.28326416	-9.284973145	-0.003433228	-0.012779236	-0.005722046	0.860595703	0.2890625	0.750976563	884.84	-172.279939	11.5351079	8.278214894	-71
58055	0	-0.077357292	-0.05034256	-0.371916771	0.999998093	-0.000409126	-0.000171661	-6.00815E-05	-1.933932304	-1.258563995	-9.297919273	-0.020456315	-0.008583069	-0.003004074	0.860595703	0.286865234	0.754150391	884.8	-172.3250292	11.54668878	8.296064539	-71
58056	0	-0.076792717	-0.049489021	-0.371900558	0.999999046	-0.000323296	-0.000120163	6.10352E-05	-1.919817924	-1.237225533	-9.297513962	-0.01616478	-0.006008148	0.003051758	0.860595703	0.286865234	0.751220703	884.74	-172.3633045	11.55432621	8.29920566	-71
58057	0	-0.07635498	-0.049743652	-0.372436523	0.999999046	-0.000236511	-9.44138E-05	-7.24792E-05	-1.908874512	-1.243591309	-9.310913086	-0.011825562	-0.004720688	-0.003623962	0.860595703	0.2890625	0.748046875	884.7	-172.3886415	11.55702337	8.317780401	-71
58058	0	-0.076725006	-0.049151421	-0.372690201	0.999999046	-5.14984E-05	-0.000202179	-0.000180244	-1.918125153	-1.228785515	-9.31725502	-0.002574921	-0.010108948	-0.009012222	0.858154297	0.289306641	0.751220703	884.7	-172.3899855	11.57035689	8.350473926	-71
58059	0	-0.077697754	-0.049377441	-0.372131348	0.999999046	0.000171661	-0.000285149	-0.000217438	-1.942443848	-1.234436035	-9.303283691	0.008583069	-0.014257431	-0.010871887	0.858154297	0.289306641	0.748291016	884.78	-172.3646552	11.59261782	8.388632821	-71
58060	0	-0.076851845	-0.049722672	-0.372498512	0.999999046	0.000237465	-0.000240326	2.19345E-05	-1.92129612	-1.243066788	-9.312462807	0.011873245	-0.012016297	0.001096725	0.863037109	0.2890625	0.75390625	884.74	-172.337515	11.61344239	8.397981782	-71
58061	0	-0.078063965	-0.050537109	-0.371948242	0.999999046	7.24792E-05	-0.000193596	-6.10352E-05	-1.951599121	-1.263427734	-9.298706055	0.003623962	-0.009679794	-0.003051758	0.863037109	0.2890625	0.750976563	884.74	-172.3274735	11.62776586	8.416276789	-71
58062	0	-0.078325272	-0.050478935	-0.372643471	0.999999046	0.000114441	-0.000228882	2.57492E-05	-1.95813179	-1.261973381	-9.316086769	0.005722046	-0.011444092	0.00128746	0.863037109	0.286865234	0.748291016	884.68	-172.3145354	11.64749827	8.424776704	-71
58063	0	-0.077392578	-0.049987793	-0.371704102	0.999999046	-0.000137329	-1.04904E-05	6.10352E-05	-1.934814453	-1.249694824	-9.292602539	-0.006866455	-0.000524521	0.003051758	0.863037109	0.2890625	0.748046875	884.7	-172.3319836	11.64300143	8.426251498	-71
58064	0	-0.077163696	-0.049754143	-0.37409687	0.999999046	8.29697E-05	-0.000211716	0.000163078	-1.929092407	-1.243853569	-9.352421761	0.004148483	-0.010585785	0.008153916	0.860595703	0.291259766	0.750976563	884.74	-172.3259859	11.66291525	8.419461193	-71
58065	0	-0.078796387	-0.049621582	-0.37121582	0.999999046	-2.67029E-05	-0.000250816	-9.53674E-05	-1.969909668	-1.240539551	-9.280395508	-0.001335144	-0.012540817	-0.004768372	0.858154297	0.291503906	0.75390625	884.78	-172.3264029	11.68341598	8.443221763	-71
58066	0	-0.0788517	-0.050228119	-0.370569229	0.999999046	-2.28882E-05	-0.000230789	-2.38419E-05	-1.971292496	-1.255702972	-9.264230728	-0.001144409	-0.011539459	-0.001192093	0.865234375	0.2890625	0.753662109	884.78	-172.3281154	11.70283664	8.457568342	-71
58067	0	-0.077148438	-0.050231934	-0.371704102	0.999999046	-0.000171661	-0.00014019	0.000125885	-1.928710938	-1.25579834	-9.292602539	-0.008583069	-0.007009506	0.006294251	0.863037109	0.286865234	0.751220703	884.68	-172.350686	11.71425288	8.453036254	-71
58068	0	-0.078121185	-0.049657822	-0.37224865	0.999999046	-6.00815E-05	-0.000123978	0.000151634	-1.953029633	-1.241445541	-9.30621624	-0.003004074	-0.006198883	0.007581711	0.865478516	0.288818359	0.747802734	884.78	-172.3611577	11.72425348	8.445697734	-71
58069	0	-0.079406738	-0.050537109	-0.370544434	0.999999046	-7.62939E-05	-0.00026226	2.67029E-05	-1.985168457	-1.263427734	-9.26361084	-0.003814697	-0.013113022	0.001335144	0.863037109	0.2890625	0.748046875	884.7	-172.3700717	11.74816655	8.455188861	-71
58070	0	-0.078446388	-0.049622536	-0.371792793	0.999999046	-0.000156403	-0.000173569	4.95911E-05	-1.961159706	-1.240563393	-9.294819832	-0.007820129	-0.008678436	0.002479553	0.865478516	0.291259766	0.747802734	884.74	-172.3890052	11.76239583	8.460969769	-71
58071	0	-0.078613281	-0.050842285	-0.372192383	0.999999046	-0.000419617	-0.000155449	0.00019455	-1.965332031	-1.271057129	-9.30480957	-0.020980836	-0.007772446	0.009727478	0.86328125	0.286865234	0.745361328	884.76	-172.4415427	11.77679924	8.449036445	-71
58072	0	-0.078261375	-0.049157143	-0.372514725	0.999999046	-0.000811577	-0.000102997	0.000148773	-1.956534386	-1.228928566	-9.312868118	-0.040578847	-0.005149842	0.007438661	0.863037109	0.286865234	0.754150391	884.8	-172.5381064	11.78455513	8.441777125	-71
58073	0	-0.079345703	-0.047851563	-0.371643066	0.999999046	-0.000411987	-5.62668E-05	0.000118256	-1.983642578	-1.196289063	-9.29107666	-0.020599366	-0.002813339	0.005912781	0.860839844	0.284667969	0.751464844	884.68	-172.5883576	11.7866129	8.437183877	-71
58074	0	-0.078789711	-0.047221184	-0.372406006	0.999999046	0.000101089	-8.2016E-05	6.38962E-05	-1.969742775	-1.180529594	-9.310150146	0.005054474	-0.0041008	0.003194809	0.86328125	0.284423828	0.748291016	884.8	-172.5785184	11.79082735	8.439143752	-71
58075	0	-0.079467773	-0.048950195	-0.372924805	0.999999046	0.000278473	-0.000197411	1.52588E-05	-1.986694336	-1.223754883	-9.323120117	0.013923645	-0.009870529	0.000762939	0.86328125	0.284423828	0.745361328	884.74	-172.5468281	11.8074917	8.448493482	-71
58076	0	-0.078457832	-0.049339294	-0.373293877	0.999999046	7.34329E-05	-0.000179291	6.48499E-05	-1.961445808	-1.233482361	-9.332346916	0.003671646	-0.008964539	0.003242493	0.863037109	0.286865234	0.748291016	884.7	-172.5398467	11.82283006	8.452365945	-71
58077	0	-0.08001709	-0.049377441	-0.372924805	0.999999046	-0.000152588	-4.48227E-05	0.000114441	-2.000427246	-1.234436035	-9.323120117	-0.007629395	-0.002241135	0.005722046	0.865478516	0.284423828	0.751220703	884.74	-172.5603435	11.82370113	8.447718707	-71
58078	0	-0.079330444	-0.048330307	-0.372077942	0.999999046	-0.000270844	-3.8147E-05	0.000190735	-1.983261108	-1.208257675	-9.301948547	-0.013542176	-0.001907349	0.009536743	0.86328125	0.284423828	0.745361328	884.7	-172.5962492	11.824989	8.434579987	-71
58079	0	-0.079528809	-0.04864502	-0.372680664	0.999999046	0.000183105	-8.67844E-05	0.000118256	-1.988220215	-1.216125488	-9.317016602	0.009155274	-0.004339218	0.005912781	0.865478516	0.286621094	0.748046875	884.68	-172.5782587	11.83077983	8.43091295	-71
58080	0	-0.079911232	-0.048640251	-0.371123314	0.999999046	0.000117302	-0.000165939	-4.57764E-05	-1.9977808	-1.216006279	-9.278082848	0.005865097	-0.008296967	-0.002288818	0.865722656	0.284423828	0.745361328	884.7	-172.56365	11.84321711	8.446837454	-71
58081	0	-0.079345703	-0.04901123	-0.372497559	0.999999046	-0.00012207	8.58307E-06	-1.52588E-05	-1.983642578	-1.225280762	-9.312438965	-0.006103516	0.000429153	-0.000762939	0.865478516	0.286621094	0.748046875	884.68	-172.5777281	11.83630782	8.457173831	-71
58082	0	-0.079461098	-0.048556328	-0.373243332	0.999999046	-0.00015831	9.53674E-06	0.000170708	-1.986527443	-1.213908195	-9.331083298	-0.007915497	0.000476837	0.008535385	0.863037109	0.286865234	0.751220703	884.74	-172.6004025	11.83207442	8.446141122	-71
58083	0	-0.08001709	-0.048400879	-0.372375488	0.999999046	-0.000102997	-0.000117302	4.95911E-05	-2.000427246	-1.210021973	-9.309387207	-0.005149841	-0.005865097	0.002479553	0.86328125	0.284423828	0.748291016	884.74	-172.6134686	11.84053514	8.450436647	-71
58084	0	-0.079378128	-0.048561096	-0.372122765	0.999999046	1.43051E-05	-7.43866E-05	2.95639E-05	-1.984453201	-1.214027405	-9.303069115	0.000715256	-0.00371933	0.001478195	0.865722656	0.284423828	0.745361328	884.78	-172.6127398	11.84386005	8.456321708	-71
58085	0	-0.07989502	-0.04876709	-0.371582031	0.999999046	-4.95911E-05	-4.48227E-05	0.000114441	-1.997375488	-1.219177246	-9.289550781	-0.002479553	-0.002241135	0.005722046	0.868164063	0.284423828	0.745117188	884.78	-172.6214253	11.84514007	8.45184091	-71
58086	0	-0.078659058	-0.048285484	-0.37023735	0.999999046	6.67572E-05	-9.72748E-05	6.77109E-05	-1.96647644	-1.207137108	-9.255933762	0.00333786	-0.004863739	0.003385544	0.865722656	0.284423828	0.748291016	884.78	-172.6154939	11.85170851	8.453699835	-71
58087	0	-0.079772949	-0.04864502	-0.371337891	0.999999046	0.000160217	-0.000117302	-5.34058E-05	-1.99432373	-1.216125488	-9.283447266	0.008010864	-0.005865097	-0.002670288	0.865722656	0.284423828	0.745361328	884.68	-172.5958837	11.85882259	8.469899022	-71
58088	0	-0.079428673	-0.049017906	-0.37203598	0.999999046	0.000130653	-3.43323E-05	5.62668E-05	-1.98571682	-1.225447655	-9.300899506	0.006532669	-0.001716614	0.002813339	0.865722656	0.286621094	0.745117188	884.68	-172.5825096	11.85815262	8.472776143	-71
58089	0	-0.079956055	-0.049133301	-0.371520996	0.999999046	-4.57764E-05	-2.86102E-06	6.48499E-05	-1.998901367	-1.22833252	-9.288024902	-0.002288818	-0.000143051	0.003242493	0.86328125	0.284423828	0.748291016	884.74	-172.5896265	11.85409182	8.473569491	-71
58090	0	-0.07935524	-0.048601151	-0.371403694	0.999999046	-7.82013E-05	-5.53131E-05	0.000113487	-1.983880997	-1.215028763	-9.285092354	-0.003910065	-0.002765656	0.005674362	0.865722656	0.286621094	0.745117188	884.78	-172.6014526	11.85674041	8.470224959	-71
58091	0	-0.080200195	-0.049133301	-0.371704102	0.999999046	-4.95911E-05	-0.000113487	-3.05176E-05	-2.005004883	-1.22833252	-9.292602539	-0.002479553	-0.005674362	-0.001525879	0.865722656	0.286621094	0.7421875	884.7	-172.6063506	11.86394187	8.484484278	-71
58092	0	-0.079855919	-0.048613548	-0.371873856	0.999999046	0.000117302	-2.67029E-05	-8.58307E-06	-1.996397972	-1.215338707	-9.29684639	0.005865097	-0.001335144	-0.000429153	0.868164063	0.284423828	0.745117188	884.78	-172.5929094	11.8616486	8.493709821	-71
58093	0	-0.080200195	-0.049377441	-0.371704102	0.999999046	0.000232697	4.76837E-06	-8.01086E-05	-2.005004883	-1.234436035	-9.292602539	0.011634827	0.000238419	-0.004005432	0.86328125	0.284667969	0.751220703	884.84	-172.5645953	11.85477897	8.510952194	-71
58094	0	-0.079640388	-0.049015045	-0.372475624	0.999999046	0.0001297	-3.43323E-05	-7.62939E-06	-1.991009712	-1.225376129	-9.311890602	0.006484985	-0.001716614	-0.00038147	0.865722656	0.286621094	0.7421875	884.7	-172.5496852	11.85344895	8.521078395	-71
58095	0	-0.080200195	-0.049255371	-0.373413086	0.999999046	0.000164032	-6.00815E-05	3.8147E-06	-2.005004883	-1.231384277	-9.335327148	0.008201599	-0.003004074	0.000190735	0.865478516	0.286621094	0.748046875	884.7	-172.5310252	11.85525689	8.529974681	-71
58096	0	-0.080368996	-0.049377441	-0.372349739	0.999999046	0.000121117	1.71661E-05	-3.91006E-05	-2.009224892	-1.234436035	-9.308743477	0.006055832	0.000858307	-0.001955032	0.865478516	0.286621094	0.748046875	884.78	-172.5164867	11.84770796	8.542558561	-71
58097	0	-0.079528809	-0.050048828	-0.371887207	0.999999046	0.000106812	4.29153E-05	-7.62939E-06	-1.988220215	-1.251220703	-9.297180176	0.005340576	0.002145767	-0.00038147	0.863037109	0.2890625	0.748046875	884.78	-172.5043733	11.83772622	8.552173074	-71
58098	0	-0.080412865	-0.049458504	-0.372860909	0.999999046	-4.3869E-05	-9.15527E-05	4.57764E-05	-2.010321617	-1.236462593	-9.321522713	-0.002193451	-0.004577637	0.002288818	0.865478516	0.288818359	0.744873047	884.78	-172.5103727	11.84388202	8.557366968	-71
58099	0	-0.080444336	-0.049316406	-0.372192383	0.999999046	-0.000106812	-3.33786E-05	9.15527E-05	-2.011108398	-1.232910156	-9.30480957	-0.005340576	-0.00166893	0.004577637	0.86328125	0.286865234	0.745361328	884.84	-172.5248531	11.84417972	8.555810042	-71
58100	0	-0.079991341	-0.048855782	-0.373479843	0.999999046	-3.14713E-05	-5.14984E-05	3.33786E-05	-1.999783516	-1.221394539	-9.336996078	-0.001573563	-0.002574921	0.00166893	0.865478516	0.286621094	0.748046875	884.78	-172.5292805	11.8456994	8.56089641	-71
58101	0	-0.080200195	-0.049255371	-0.372619629	0.999999046	0.000156403	-6.00815E-05	0	-2.005004883	-1.231384277	-9.315490723	0.007820129	-0.003004074	0	0.865722656	0.286621094	0.745117188	884.78	-172.5113514	11.84774365	8.569975631	-71
58102	0	-0.080734253	-0.049555779	-0.372900009	0.999999046	0.000108719	-5.53131E-05	-4.95911E-05	-2.018356323	-1.238894463	-9.322500229	0.005435944	-0.002765656	-0.002479553	0.865722656	0.286621094	0.745117188	884.8	-172.4977066	11.84857142	8.584641046	-71
58103	0	-0.079711914	-0.04901123	-0.374633789	0.999999046	2.28882E-05	3.14713E-05	4.19617E-05	-1.992797852	-1.225280762	-9.365844727	0.001144409	0.001573563	0.002098083	0.865722656	0.284423828	0.748291016	884.78	-172.4963835	11.84090661	8.586308721	-71
58104	0	-0.079815865	-0.049387932	-0.372439384	0.999999046	-3.14713E-05	-5.34058E-05	2.95639E-05	-1.995396614	-1.234698296	-9.310984612	-0.001573563	-0.002670288	0.001478195	0.863037109	0.2890625	0.745117188	884.74	-172.5007269	11.84272887	8.593319839	-71
58105	0	-0.079467773	-0.049133301	-0.372436523	0.999999046	0.00012207	-4.1008E-05	2.67029E-05	-1.986694336	-1.22833252	-9.310913086	0.006103516	-0.0020504	0.001335144	0.865722656	0.284423828	0.748291016	884.7	-172.4874543	11.84310979	8.597777064	-71
58106	0	-0.079746246	-0.049403191	-0.372601509	0.999999046	6.29425E-05	-0.000198364	4.57764E-05	-1.993656158	-1.235079765	-9.315037727	0.003147125	-0.009918213	0.002288818	0.865478516	0.288818359	0.747802734	884.74	-172.4809178	11.86167492	8.604636495	-71
58107	0	-0.080627441	-0.049499512	-0.373474121	0.999999046	0.0001297	-3.33786E-05	-2.67029E-05	-2.015686035	-1.237487793	-9.336853027	0.006484985	-0.00166893	-0.001335144	0.863037109	0.286865234	0.748291016	884.78	-172.465524	11.86045755	8.61650448	-71
58108	0	-0.080529213	-0.04954052	-0.373822212	0.999999046	9.63211E-05	-4.95911E-05	8.67844E-05	-2.013230324	-1.238512993	-9.345555305	0.004816055	-0.002479553	0.004339218	0.863037109	0.286865234	0.748291016	884.78	-172.4566211	11.86282606	8.615447574	-71
58109	0	-0.080322266	-0.049560547	-0.373535156	0.999999046	0.000244141	-0.000189781	-0.000102997	-2.008056641	-1.239013672	-9.338378906	0.012207031	-0.00948906	-0.005149841	0.865478516	0.288818359	0.747802734	884.74	-172.4258129	11.87829044	8.639015796	-71
58110	0	-0.079539299	-0.049637794	-0.373969078	0.999999046	0.000494003	-0.000173569	-0.00023365	-1.988482475	-1.240944862	-9.349226952	0.024700166	-0.008678437	-0.011682511	0.865478516	0.288818359	0.747802734	884.74	-172.3633107	11.88989476	8.67687282	-71
58111	0	-0.080322266	-0.050964355	-0.371826172	0.999999046	0.000453949	-0.000216484	-0.000198364	-2.008056641	-1.274108887	-9.295654297	0.02269745	-0.010824204	-0.009918213	0.867919922	0.288818359	0.744873047	884.78	-172.3060479	11.90691025	8.710638396	-71
58112	0	-0.080525398	-0.052006721	-0.372599602	0.999999046	0.000149727	-0.000110626	-4.95911E-05	-2.013134956	-1.300168037	-9.314990044	0.007486343	-0.005531311	-0.002479553	0.865478516	0.291259766	0.744873047	884.7	-172.2874723	11.91419884	8.726989515	-71
58113	0	-0.08026123	-0.050842285	-0.373596191	0.999999046	-0.000164032	-6.67572E-06	3.05176E-05	-2.006530762	-1.271057129	-9.339904785	-0.008201599	-0.000333786	0.001525879	0.865478516	0.291259766	0.747802734	884.74	-172.3071097	11.91091967	8.732385928	-71
58114	0	-0.079904556	-0.049433708	-0.372573853	0.999999046	-3.43323E-05	8.58307E-05	1.14441E-05	-1.997613907	-1.235842705	-9.314346313	-0.001716614	0.004291534	0.000572205	0.863037109	0.291259766	0.744873047	884.72	-172.3117899	11.89684594	8.738959786	-71
58115	0	-0.079467773	-0.049865723	-0.372680664	0.999999046	0.000148773	5.05447E-05	-8.7738E-05	-1.986694336	-1.246643066	-9.317016602	0.00743866	0.002527237	-0.004386902	0.863037109	0.291259766	0.744873047	884.78	-172.2930408	11.88523946	8.757276885	-71
58116	0	-0.079238892	-0.051151276	-0.373711586	0.999999046	0.000180244	-9.91821E-05	6.10352E-05	-1.98097229	-1.278781891	-9.34278965	0.009012222	-0.004959106	0.003051758	0.865478516	0.291259766	0.747802734	884.86	-172.2737421	11.89288223	8.760072131	-71
58117	0	-0.080871582	-0.051635742	-0.371887207	0.999999046	-0.000156403	-1.04904E-05	4.95911E-05	-2.021789551	-1.290893555	-9.297180176	-0.007820129	-0.000524521	0.002479553	0.865478516	0.288818359	0.7421875	884.74	-172.2929872	11.89033886	8.761848698	-71
58118	0	-0.079665184	-0.050168991	-0.372694969	0.999999046	-0.000326157	-7.62939E-06	2.67029E-05	-1.991629601	-1.254224777	-9.317374229	-0.016307831	-0.00038147	0.001335144	0.867675781	0.291015625	0.750488281	884.8	-172.3311758	11.88711578	8.767189708	-71
58119	0	-0.079956055	-0.049682617	-0.372009277	0.999999046	-0.000133514	-6.67572E-06	1.90735E-05	-1.998901367	-1.24206543	-9.300231934	-0.00667572	-0.000333786	0.000953674	0.865478516	0.291259766	0.747802734	884.74	-172.3471456	11.88368841	8.774120234	-71
58120	0	-0.079597473	-0.049336433	-0.373608589	0.999999046	1.04904E-05	4.95911E-05	-3.43323E-05	-1.989936829	-1.233410835	-9.340214729	0.000524521	0.002479553	-0.001716614	0.863037109	0.2890625	0.748046875	884.74	-172.3455765	11.87304103	8.785216505	-71
58121	0	-0.079589844	-0.049621582	-0.373413086	0.999999046	0.00018692	-7.53403E-05	-0.000171661	-1.989746094	-1.240539551	-9.335327148	0.009346008	-0.003767014	-0.008583069	0.865478516	0.291259766	0.744873047	884.76	-172.3201518	11.87446972	8.815027432	-71
58122	0	-0.079813004	-0.050094604	-0.373199463	1	4.1008E-05	2.76566E-05	-9.53674E-07	-1.995325089	-1.252365112	-9.329986572	0.0020504	0.001382828	-4.76837E-05	0.865234375	0.291259766	0.750732422	884.78	-172.3158779	11.86681154	8.823035604	-71
58123	0	-0.079956055	-0.049682617	-0.373901367	0.999999046	7.24792E-05	0.000126839	-1.14441E-05	-1.998901367	-1.24206543	-9.34753418	0.003623962	0.006341934	-0.000572205	0.863037109	0.291259766	0.744873047	884.74	-172.3081187	11.84773401	8.831233941	-71
58124	0	-0.079251289	-0.049860954	-0.373426437	0.999999046	0.00036335	-7.43866E-05	-9.53674E-05	-1.981282234	-1.246523857	-9.335660934	0.018167496	-0.00371933	-0.004768372	0.863037109	0.291259766	0.741943359	884.78	-172.2644206	11.85019383	8.851950886	-71
58125	0	-0.079833984	-0.05090332	-0.372009277	0.999999046	0.000274658	8.4877E-05	-0.00012207	-1.995849609	-1.272583008	-9.300231934	0.01373291	0.004243851	-0.006103516	0.863037109	0.291259766	0.744873047	884.8	-172.230757	11.83416688	8.872597169	-71
58126	0	-0.080186844	-0.051189423	-0.373215675	0.999999046	7.24792E-05	-7.24792E-05	1.90735E-05	-2.004671097	-1.279735565	-9.330391884	0.003623962	-0.003623962	0.000953674	0.865478516	0.291259766	0.747802734	884.74	-172.2231065	11.83821862	8.878752697	-71
58127	0	-0.079772949	-0.050842285	-0.373168945	0.999999046	1.52588E-05	-5.62668E-05	5.34058E-05	-1.99432373	-1.271057129	-9.329223633	0.000762939	-0.002813339	0.002670288	0.865234375	0.293457031	0.744628906	884.8	-172.2228978	11.84097288	8.882553126	-71
58128	0	-0.080187798	-0.0504179	-0.371876717	0.999999046	7.53403E-05	-0.000131607	-5.05447E-05	-2.004694939	-1.260447502	-9.296917915	0.003767014	-0.006580353	-0.002527237	0.863037109	0.291259766	0.747802734	884.74	-172.2131098	11.85071165	8.89798916	-71
58129	0	-0.079345703	-0.051513672	-0.371643066	0.999999046	9.15527E-05	-1.81198E-05	-5.34058E-05	-1.983642578	-1.287841797	-9.29107666	0.004577637	-0.000905991	-0.002670288	0.865234375	0.295654297	0.741455078	884.8	-172.2017373	11.84751791	8.915071451	-71
58130	0	-0.079294205	-0.051102638	-0.371814728	0.999999046	-0.000125885	-6.29425E-05	6.86646E-05	-1.982355118	-1.277565956	-9.295368195	-0.006294251	-0.003147125	0.003433228	0.865234375	0.293457031	0.744628906	884.84	-172.2180409	11.85130558	8.916968629	-71
58131	0	-0.079406738	-0.051086426	-0.373413086	0.999999046	-0.000179291	-0.00020504	0.000125885	-1.985168457	-1.277160645	-9.335327148	-0.008964539	-0.010251999	0.006294251	0.865234375	0.293457031	0.747558594	884.78	-172.241372	11.87209811	8.914650558	-71
58132	0	-0.080304146	-0.051054001	-0.372177124	0.999998093	-0.000207901	9.53674E-07	4.19617E-05	-2.007603645	-1.276350021	-9.304428101	-0.01039505	4.76837E-05	0.002098084	0.862792969	0.293457031	0.747558594	884.8	-172.2666402	11.86823838	8.919499288	-71
58133	0	-0.079345703	-0.050048828	-0.372497559	0.999999046	-0.000305176	3.52859E-05	0.000144958	-1.983642578	-1.251220703	-9.312438965	-0.015258789	0.001764298	0.007247925	0.863037109	0.291259766	0.747802734	884.78	-172.3056586	11.86205166	8.910547415	-71
58134	0	-0.08012867	-0.050105095	-0.371375084	0.999999046	-0.000108719	-3.24249E-05	0.000102043	-2.003216743	-1.252627373	-9.284377098	-0.005435944	-0.001621246	0.005102158	0.865478516	0.291259766	0.747802734	884.78	-172.3209328	11.86293092	8.907457985	-71
58135	0	-0.078979492	-0.049926758	-0.371887207	0.999999046	8.39233E-05	-0.000128746	3.8147E-06	-1.974487305	-1.248168945	-9.297180176	0.004196167	-0.006437302	0.000190735	0.865478516	0.288818359	0.7421875	884.68	-172.3114954	11.87321839	8.915574854	-71
58136	0	-0.079749107	-0.050783157	-0.373567581	0.999999046	9.63211E-05	-0.000137329	1.81198E-05	-1.993727684	-1.269578934	-9.339189529	0.004816055	-0.006866455	0.000905991	0.865234375	0.293457031	0.747558594	884.68	-172.3009386	11.88469111	8.925684	-71
58137	0	-0.08026123	-0.05065918	-0.372253418	0.999999046	-9.15527E-05	8.58307E-06	3.8147E-05	-2.006530762	-1.266479492	-9.306335449	-0.004577637	0.000429153	0.001907349	0.865234375	0.293457031	0.744628906	884.74	-172.3128492	11.87992886	8.931481522	-71
58138	0	-0.079405785	-0.050097466	-0.373607635	0.999999046	-2.09808E-05	-3.24249E-05	0.000113487	-1.985144615	-1.252436638	-9.340190887	-0.001049042	-0.001621246	0.005674362	0.865478516	0.288818359	0.7421875	884.8	-172.3183637	11.88095051	8.925409305	-71
58139	0	-0.080444336	-0.050476074	-0.37310791	0.999999046	4.19617E-05	-0.000182152	-7.62939E-06	-2.011108398	-1.261901855	-9.327697754	0.002098084	-0.00910759	-0.00038147	0.863037109	0.291259766	0.747802734	884.74	-172.3132868	11.89714946	8.937957961	-71
58140	0	-0.080397606	-0.049899101	-0.37246418	0.999999046	-4.86374E-05	-2.86102E-05	4.19617E-05	-2.009940147	-1.247477531	-9.3116045	-0.00243187	-0.001430511	0.002098083	0.865478516	0.291259766	0.744873047	884.7	-172.3202977	11.8966998	8.942174056	-71
58141	0	-0.079711914	-0.049865723	-0.373168945	0.999999046	-0.00012207	-6.77109E-05	0.000202179	-1.992797852	-1.246643066	-9.329223633	-0.006103516	-0.003385544	0.010108948	0.865478516	0.288818359	0.747802734	884.68	-172.3394603	11.90312783	8.926439979	-71
58142	0	-0.080149651	-0.05010891	-0.371767044	0.999999046	1.90735E-06	-8.96454E-05	7.15256E-05	-2.003741264	-1.25272274	-9.294176102	9.53674E-05	-0.004482269	0.003576279	0.865478516	0.291259766	0.747802734	884.68	-172.3412192	11.91006977	8.928655723	-71
58143	0	-0.079833984	-0.049926758	-0.371765137	0.999999046	4.19617E-05	-2.86102E-06	-3.8147E-05	-1.995849609	-1.248168945	-9.294128418	0.002098083	-0.000143051	-0.001907349	0.865478516	0.291259766	0.747802734	884.74	-172.3360495	11.90548224	8.942066442	-71
58144	0	-0.07971096	-0.050880432	-0.371088982	1	4.76837E-05	1.04904E-05	-3.91006E-05	-1.99277401	-1.272010803	-9.277224541	0.002384186	0.000524521	-0.001955032	0.863037109	0.2890625	0.748046875	884.74	-172.3302014	11.89936536	8.953604521	-71
58145	0	-0.079162598	-0.050720215	-0.371826172	0.999999046	-0.000293732	-1.04904E-05	6.10352E-05	-1.979064941	-1.268005371	-9.295654297	-0.014686585	-0.000524521	0.003051758	0.867675781	0.293212891	0.747314453	884.7	-172.3657795	11.89713385	8.957520958	-71
58146	0	-0.079483032	-0.050188065	-0.371488571	0.999999046	-0.000219345	-0.000200272	0.000231743	-1.987075806	-1.254701614	-9.287214279	-0.010967255	-0.010013581	0.011587143	0.863037109	0.291259766	0.744873047	884.74	-172.3963002	11.91904428	8.944574391	-71
58147	0	-0.079040527	-0.049499512	-0.371276855	0.999999046	-0.000102997	-0.000102043	8.01086E-05	-1.976013184	-1.237487793	-9.281921387	-0.005149841	-0.005102158	0.004005432	0.865478516	0.291259766	0.747802734	884.7	-172.410182	11.92746048	8.947112495	-71
58148	0	-0.079918861	-0.049777031	-0.371759415	0.999999046	0.000102043	-6.67572E-05	1.04904E-05	-1.997971535	-1.244425774	-9.293985367	0.005102158	-0.00333786	0.000524521	0.865478516	0.291259766	0.744873047	884.74	-172.3990045	11.93081664	8.957229073	-71
58149	0	-0.079467773	-0.049987793	-0.371032715	0.999999046	1.52588E-05	-3.71933E-05	0.000110626	-1.986694336	-1.249694824	-9.275817871	0.000762939	-0.001859665	0.005531311	0.863037109	0.291259766	0.744873047	884.68	-172.4002523	11.93231805	8.955945876	-71
58150	0	-0.079874039	-0.050287247	-0.370537758	0.999999046	-4.76837E-05	-0.000106812	5.72205E-05	-1.996850967	-1.257181168	-9.263443947	-0.002384186	-0.005340576	0.002861023	0.865478516	0.288818359	0.747802734	884.7	-172.407171	11.9409279	8.958620712	-71
58151	0	-0.08001709	-0.049560547	-0.369934082	0.999999046	-0.000202179	9.53674E-07	0.000156403	-2.000427246	-1.239013672	-9.248352051	-0.010108948	4.76837E-05	0.007820129	0.863037109	0.2890625	0.745117188	884.78	-172.4345168	11.9388191	8.94986641	-71
58152	0	-0.080155373	-0.049630165	-0.371664047	0.999999046	-4.86374E-05	0.000120163	6.48499E-05	-2.003884315	-1.240754128	-9.291601181	-0.00243187	0.006008148	0.003242493	0.865478516	0.288818359	0.747802734	884.74	-172.4424432	11.92179591	8.94893345	-71
58153	0	-0.08013916	-0.049804688	-0.370178223	0.999999046	6.48499E-05	-5.24521E-05	4.57764E-05	-2.003479004	-1.245117188	-9.254455566	0.003242493	-0.002622604	0.002288818	0.865478516	0.288818359	0.744873047	884.74	-172.436331	11.92412425	8.953136979	-71
58154	0	-0.079817772	-0.049906731	-0.370408058	0.999999046	4.57764E-05	2.67029E-05	0.000109673	-1.995444298	-1.247668266	-9.260201454	0.002288818	0.001335144	0.005483627	0.865478516	0.2890625	0.750732422	884.68	-172.4341613	11.91843537	8.948537894	-71
58155	0	-0.08013916	-0.050170898	-0.369934082	0.999999046	-8.39233E-05	-4.48227E-05	0.000106812	-2.003479004	-1.254272461	-9.248352051	-0.004196167	-0.002241135	0.005340576	0.865478516	0.2890625	0.750732422	884.7	-172.4465147	11.92086091	8.945752132	-71
58156	0	-0.080428123	-0.049603462	-0.371706009	0.999999046	-0.000281334	6.10352E-05	5.34058E-05	-2.010703087	-1.240086555	-9.292650223	-0.014066696	0.003051758	0.002670288	0.86328125	0.286621094	0.742431641	884.74	-172.4805402	11.91048445	8.946664425	-71
58157	0	-0.080200195	-0.049316406	-0.372375488	0.999999046	-0.000102997	-0.000124931	0.000152588	-2.005004883	-1.232910156	-9.309387207	-0.005149841	-0.006246567	0.007629395	0.865478516	0.286621094	0.750976563	884.74	-172.4959216	11.92273421	8.93802605	-71
58158	0	-0.080003738	-0.049155235	-0.36974144	0.999999046	8.01086E-05	-2.86102E-05	0.000102043	-2.00009346	-1.228880882	-9.243535995	0.004005432	-0.001430511	0.005102158	0.865478516	0.288818359	0.747802734	884.7	-172.4894023	11.9233107	8.936868209	-71
58159	0	-0.079833984	-0.049499512	-0.370422363	0.999999046	0.000141144	-5.24521E-05	1.90735E-05	-1.995849609	-1.237487793	-9.260559082	0.00705719	-0.002622604	0.000953674	0.865478516	0.291259766	0.747802734	884.7	-172.4738008	11.92536237	8.948426165	-71
58160	0	-0.080120087	-0.049845695	-0.369790077	1	-4.76837E-05	3.14713E-05	6.67572E-06	-2.003002167	-1.246142387	-9.24475193	-0.002384186	0.001573563	0.000333786	0.865478516	0.288818359	0.747802734	884.7	-172.479767	11.91772108	8.957069564	-71
58161	0	-0.080078125	-0.049804688	-0.371704102	0.999999046	-0.0001297	8.86917E-05	5.34058E-05	-2.001953125	-1.245117188	-9.292602539	-0.006484985	0.004434586	0.002670288	0.865478516	0.288818359	0.7421875	884.68	-172.4964085	11.90428933	8.960328683	-72
58162	0	-0.080018997	-0.049638748	-0.372159004	0.999999046	-5.14984E-05	-7.43866E-05	4.48227E-05	-2.00047493	-1.240968704	-9.303975105	-0.002574921	-0.00371933	0.002241135	0.863037109	0.2890625	0.750976563	884.74	-172.5033504	11.90926236	8.96726718	-71
58163	0	-0.080444336	-0.049621582	-0.370178223	0.999999046	-0.000183105	-8.67844E-05	0.00019455	-2.011108398	-1.240539551	-9.254455566	-0.009155274	-0.004339218	0.009727478	0.86328125	0.2890625	0.7421875	884.8	-172.528891	11.91792573	8.958692389	-72
58164	0	-0.080407143	-0.049393654	-0.371403694	0.999999046	-6.00815E-05	-1.71661E-05	6.10352E-05	-2.010178566	-1.234841347	-9.285092354	-0.003004074	-0.000858307	0.003051758	0.865722656	0.286621094	0.745117188	884.74	-172.5373321	11.9167129	8.960464881	-71
58165	0	-0.08026123	-0.049133301	-0.372131348	0.999999046	4.19617E-05	3.52859E-05	0.000137329	-2.006530762	-1.22833252	-9.303283691	0.002098084	0.001764297	0.006866455	0.86328125	0.286865234	0.745361328	884.8	-172.5360697	11.91068869	8.953820222	-71
58166	0	-0.080127716	-0.049753189	-0.372255325	0.999999046	6.10352E-05	3.24249E-05	4.86374E-05	-2.003192902	-1.243829727	-9.306383133	0.003051758	0.001621246	0.00243187	0.863037109	0.2890625	0.748046875	884.84	-172.5304526	11.90367533	8.960210375	-71
58167	0	-0.080078125	-0.049621582	-0.372192383	0.999999046	-5.34058E-05	-2.86102E-06	9.91821E-05	-2.001953125	-1.240539551	-9.30480957	-0.002670288	-0.000143051	0.004959106	0.865722656	0.286621094	0.745117188	884.7	-172.5390234	11.90142852	8.957708171	-71
58168	0	-0.080030441	-0.049322128	-0.371159554	0.999999046	-6.19888E-05	3.8147E-06	4.95911E-05	-2.000761032	-1.233053207	-9.278988838	-0.003099442	0.000190735	0.002479553	0.867919922	0.286621094	0.745117188	884.8	-172.5473916	11.8977003	8.960451064	-72
58169	0	-0.08001709	-0.049377441	-0.372131348	0.999999046	-8.01086E-05	-5.24521E-05	5.34058E-05	-2.000427246	-1.234436035	-9.303283691	-0.004005432	-0.002622604	0.002670288	0.863037109	0.2890625	0.748046875	884.74	-172.5577338	11.90042912	8.968508184	-72
58170	0	-0.080183983	-0.04906559	-0.369506836	0.999999046	8.58307E-05	-0.000177383	0.000132561	-2.004599571	-1.226639748	-9.237670898	0.004291534	-0.008869171	0.006628037	0.865478516	0.288818359	0.744873047	884.8	-172.5505429	11.91856871	8.968631971	-71
58171	0	-0.080078125	-0.049133301	-0.370849609	0.999999046	4.57764E-05	-6.38962E-05	6.48499E-05	-2.001953125	-1.22833252	-9.271240234	0.002288818	-0.003194809	0.003242493	0.865722656	0.286621094	0.745117188	884.7	-172.5466602	11.92282017	8.971571768	-71
58172	0	-0.079401016	-0.049279213	-0.371323586	0.999999046	-2.00272E-05	-5.72205E-05	7.24792E-05	-1.985025406	-1.231980324	-9.283089638	-0.001001358	-0.002861023	0.003623962	0.865722656	0.286621094	0.745117188	884.74	-172.5505053	11.92639966	8.973754839	-71
58173	0	-0.079711914	-0.049255371	-0.371582031	0.999999046	-3.43323E-05	-2.95639E-05	3.43323E-05	-1.992797852	-1.231384277	-9.289550781	-0.001716614	-0.001478195	0.001716614	0.865478516	0.286621094	0.748046875	884.68	-172.5551462	11.92625544	8.979799657	-72
58174	0	-0.080593109	-0.049285889	-0.371520042	1	2.19345E-05	-4.29153E-05	3.71933E-05	-2.014827728	-1.232147217	-9.28800106	0.001096725	-0.002145767	0.001859665	0.86328125	0.286865234	0.745361328	884.78	-172.5533485	11.9277014	8.987169903	-72
58175	0	-0.079528809	-0.04901123	-0.372375488	0.999999046	-5.34058E-05	0.000153542	2.28882E-05	-1.988220215	-1.225280762	-9.309387207	-0.002670288	0.007677078	0.001144409	0.863037109	0.286865234	0.748291016	884.78	-172.5604605	11.90657999	8.992996514	-71
58176	0	-0.079723358	-0.048968315	-0.371490479	0.999999046	-0.000149727	-7.24792E-05	3.71933E-05	-1.993083954	-1.224207878	-9.287261963	-0.007486343	-0.003623962	0.001859665	0.865722656	0.286621094	0.745117188	884.64	-172.5782426	11.91134815	9.000174523	-71
58177	0	-0.079772949	-0.049133301	-0.370178223	0.999999046	3.8147E-06	8.58307E-06	8.7738E-05	-1.99432373	-1.22833252	-9.254455566	0.000190735	0.000429153	0.004386902	0.865478516	0.286621094	0.748046875	884.68	-172.5798684	11.90766277	9.000144138	-72
58178	0	-0.080142975	-0.04887867	-0.371033669	0.999999046	0.000116348	-3.62396E-05	2.67029E-05	-2.003574371	-1.221966743	-9.275841713	0.005817413	-0.001811981	0.001335144	0.865478516	0.286621094	0.748046875	884.68	-172.566989	11.90818633	9.007638126	-71
58179	0	-0.080444336	-0.049255371	-0.370544434	0.999999046	-1.52588E-05	-2.57492E-05	6.86646E-05	-2.011108398	-1.231384277	-9.26361084	-0.000762939	-0.00128746	0.003433228	0.865722656	0.286621094	0.745117188	884.74	-172.5702034	11.90817796	9.010638468	-72
58180	0	-0.080593109	-0.048745155	-0.370542526	0.999999046	-0.000187874	-7.62939E-05	0	-2.014827728	-1.218628883	-9.263563156	-0.009393692	-0.003814697	0	0.865478516	0.286621094	0.750976563	884.78	-172.5913949	11.91294258	9.022088652	-71
58181	0	-0.079528809	-0.04876709	-0.37097168	0.999999046	-7.62939E-05	8.10623E-05	4.19617E-05	-1.988220215	-1.219177246	-9.274291992	-0.003814697	0.004053116	0.002098084	0.863037109	0.286865234	0.751220703	884.74	-172.6012914	11.90043383	9.027760825	-72
58182	0	-0.079473495	-0.048704147	-0.371541977	0.999999046	-7.82013E-05	-5.14984E-05	7.53403E-05	-1.986837387	-1.217603683	-9.288549423	-0.003910065	-0.002574921	0.003767014	0.865478516	0.286621094	0.750976563	884.7	-172.6117922	11.90346296	9.030704305	-71
58183	0	-0.07989502	-0.04901123	-0.370239258	0.999999046	8.01086E-05	-0.000109673	4.57764E-05	-1.997375488	-1.225280762	-9.255981445	0.004005432	-0.005483627	0.002288818	0.865722656	0.284423828	0.748291016	884.74	-172.6032336	11.91268086	9.034468304	-72
58184	0	-0.079798698	-0.048941612	-0.369054794	0.999999046	9.63211E-05	5.14984E-05	5.62668E-05	-1.994967461	-1.223540306	-9.226369858	0.004816055	0.002574921	0.002813339	0.865478516	0.286621094	0.748046875	884.86	-172.5935399	11.90375831	9.038402781	-72
58185	0	-0.079528809	-0.049072266	-0.372192383	0.999999046	5.72205E-05	-1.43051E-05	0.000114441	-1.988220215	-1.226806641	-9.30480957	0.002861023	-0.000715256	0.005722046	0.867919922	0.286621094	0.748046875	884.74	-172.5895041	11.9031481	9.035858029	-72
58186	0	-0.079307556	-0.049158096	-0.369987488	0.999999046	0.000139236	-0.000116348	7.24792E-05	-1.982688904	-1.228952408	-9.249687195	0.006961823	-0.005817413	0.003623962	0.86328125	0.2890625	0.7421875	884.74	-172.5747172	11.91350373	9.046406802	-72
58187	0	-0.080200195	-0.04888916	-0.369750977	0.999999046	7.62939E-05	4.673E-05	1.14441E-05	-2.005004883	-1.222229004	-9.243774414	0.003814697	0.002336502	0.000572205	0.865478516	0.288818359	0.744873047	884.74	-172.5661783	11.90445533	9.059560294	-71
58188	0	-0.079862595	-0.049127579	-0.37097168	0.999999046	-8.86917E-05	-4.19617E-05	0.000159264	-1.996564865	-1.228189468	-9.274291992	-0.004434586	-0.002098084	0.007963181	0.865722656	0.286621094	0.745117188	884.7	-172.5797985	11.9076782	9.053485436	-72
58189	0	-0.08001709	-0.048400879	-0.371704102	0.999999046	-0.000102997	-5.24521E-05	0.000114441	-2.000427246	-1.210021973	-9.292602539	-0.005149841	-0.002622604	0.005722046	0.867919922	0.286621094	0.750976563	884.74	-172.593978	11.91143222	9.05166191	-71
58190	0	-0.079885483	-0.048672676	-0.372011185	0.999999046	-1.71661E-05	-0.000139236	0.000121117	-1.99713707	-1.216816902	-9.300279617	-0.000858307	-0.006961823	0.006055832	0.865722656	0.286621094	0.745117188	884.7	-172.5982209	11.92513971	9.052566433	-72
58191	0	-0.079956055	-0.049133301	-0.371398926	0.999999046	0.000213623	-1.04904E-05	2.67029E-05	-1.998901367	-1.22833252	-9.284973145	0.010681152	-0.000524521	0.001335144	0.865722656	0.286621094	0.745117188	884.74	-172.5741328	11.92281933	9.06189602	-72
58192	0	-0.079906464	-0.048921585	-0.370156288	1	-9.53674E-06	-1.04904E-05	0	-1.997661591	-1.223039627	-9.253907204	-0.000476837	-0.000524521	0	0.865478516	0.286621094	0.748046875	884.74	-172.5749672	11.92011141	9.073902839	-72
58193	0	-0.079711914	-0.048950195	-0.371276855	0.999999046	-3.8147E-06	5.05447E-05	7.62939E-06	-1.992797852	-1.223754883	-9.281921387	-0.000190735	0.002527237	0.00038147	0.865478516	0.286621094	0.748046875	884.78	-172.5755166	11.91056953	9.084058491	-71
58194	0	-0.079492569	-0.049007416	-0.372689247	0.999999046	0.000185013	-0.000106812	-4.19617E-05	-1.987314224	-1.225185394	-9.317231178	0.009250641	-0.005340576	-0.002098084	0.86328125	0.286621094	0.742431641	884.74	-172.5527497	11.91813773	9.10340768	-72
58195	0	-0.079711914	-0.04901123	-0.372009277	0.999999046	0.000335693	-3.33786E-05	-7.24792E-05	-1.992797852	-1.225280762	-9.300231934	0.016784668	-0.00166893	-0.003623962	0.865478516	0.286621094	0.750976563	884.7	-172.5122194	11.91688127	9.121569169	-72
58196	0	-0.079547882	-0.049578667	-0.372032166	0.999999046	6.58035E-05	-3.8147E-05	-3.8147E-06	-1.988697052	-1.239466667	-9.300804138	0.003290176	-0.001907349	-0.000190735	0.865478516	0.2890625	0.750732422	884.64	-172.5042373	11.9171612	9.1363773	-72
58197	0	-0.080566406	-0.049255371	-0.372009277	0.999999046	-9.53674E-05	-8.29697E-05	3.43323E-05	-2.014160156	-1.231384277	-9.300231934	-0.004768372	-0.004148483	0.001716614	0.865478516	0.288818359	0.747802734	884.78	-172.5155066	11.92312995	9.147788176	-72
58198	0	-0.079289436	-0.049179077	-0.371822357	0.999999046	5.72205E-06	-6.48499E-05	-4.673E-05	-1.982235909	-1.229476929	-9.295558929	0.000286102	-0.003242493	-0.002336502	0.863037109	0.2890625	0.745117188	884.84	-172.5133116	11.92579293	9.169959125	-72
58199	0	-0.079406738	-0.049255371	-0.371276855	0.999999046	2.28882E-05	-6.00815E-05	-3.43323E-05	-1.985168457	-1.231384277	-9.281921387	0.001144409	-0.003004074	-0.001716614	0.86328125	0.284423828	0.742675781	884.74	-172.5094639	11.92806897	9.181416902	-72
58200	0	-0.079265594	-0.049095154	-0.371326447	0.999999046	-5.62668E-05	-1.71661E-05	8.39233E-05	-1.981639862	-1.227378845	-9.283161163	-0.002813339	-0.000858307	0.004196167	0.865478516	0.286621094	0.750976563	884.78	-172.5176705	11.92720249	9.181069052	-72
58201	0	-0.079528809	-0.049255371	-0.370361328	0.999999046	1.14441E-05	-7.9155E-05	6.48499E-05	-1.988220215	-1.231384277	-9.259033203	0.000572205	-0.003957748	0.003242493	0.865722656	0.286621094	0.745117188	884.7	-172.5174578	11.93308507	9.185054649	-72
58202	0	-0.07941246	-0.049193382	-0.371263504	0.999999046	0.0001297	0.000123978	4.48227E-05	-1.985311508	-1.229834557	-9.281587601	0.006484985	0.006198883	0.002241135	0.865478516	0.286621094	0.750976563	884.62	-172.5038575	11.91556278	9.187005048	-72
58203	0	-0.079956055	-0.049987793	-0.371948242	0.999999046	0.000247955	-5.24521E-05	2.67029E-05	-1.998901367	-1.249694824	-9.298706055	0.012397766	-0.002622604	0.001335144	0.865478516	0.288818359	0.744873047	884.8	-172.4756856	11.91781328	9.198700334	-72
58204	0	-0.079754829	-0.049618721	-0.371183395	0.999999046	0.000189781	-6.29425E-05	-1.90735E-05	-1.993870735	-1.240468025	-9.279584885	0.00948906	-0.003147125	-0.000953674	0.865478516	0.288818359	0.747802734	884.74	-172.4530442	11.92056116	9.214559001	-72
58205	0	-0.079772949	-0.050048828	-0.370727539	0.999999046	1.52588E-05	6.58035E-05	6.86646E-05	-1.99432373	-1.251220703	-9.268188477	0.000762939	0.003290176	0.003433228	0.865478516	0.288818359	0.747802734	884.7	-172.452892	11.91000281	9.21836602	-72
58206	0	-0.079406738	-0.049194336	-0.371582031	0.999999046	2.67029E-05	4.57764E-05	1.90735E-05	-1.985168457	-1.229858398	-9.289550781	0.001335144	0.002288818	0.000953674	0.863037109	0.291259766	0.744873047	884.78	-172.4502039	11.90095375	9.234809061	-71
58207	0	-0.079780579	-0.049577713	-0.372214317	0.999998093	4.29153E-05	-8.39233E-05	4.57764E-05	-1.994514465	-1.239442825	-9.305357933	0.002145767	-0.004196167	0.002288818	0.865478516	0.291259766	0.744873047	884.74	-172.4458988	11.90703329	9.248934976	-72
58208	0	-0.079523087	-0.04929924	-0.37090683	0.999999046	0.00020504	-4.00543E-05	6.10352E-05	-1.988077164	-1.232481003	-9.272670746	0.010251999	-0.002002716	0.003051758	0.865478516	0.288818359	0.747802734	884.78	-172.4235411	11.90834967	9.2542252	-71
58209	0	-0.078552246	-0.049743652	-0.37298584	0.999999046	0.000240326	-2.57492E-05	7.24792E-05	-1.963806152	-1.243591309	-9.324645996	0.012016297	-0.00128746	0.003623962	0.865478516	0.288818359	0.7421875	884.7	-172.3974773	11.90813621	9.25849306	-72
58210	0	-0.078763008	-0.050888062	-0.372408867	0.999999046	3.24249E-05	-0.000228882	0.00012207	-1.969075203	-1.272201538	-9.310221672	0.001621246	-0.011444092	0.006103516	0.865478516	0.291015625	0.739013672	884.7	-172.3957382	11.93168853	9.265881373	-71
58211	0	-0.080566406	-0.050170898	-0.37121582	0.999999046	-0.000213623	-0.000308037	-8.39233E-05	-2.014160156	-1.254272461	-9.280395508	-0.010681153	-0.015401841	-0.004196167	0.863037109	0.291259766	0.747802734	884.78	-172.416986	11.96114778	9.298500606	-72
58212	0	-0.080116272	-0.049050331	-0.370028496	0.999999046	-0.000145912	5.72205E-06	-2.67029E-05	-2.002906799	-1.226258278	-9.250712395	-0.007295609	0.000286102	-0.001335144	0.865478516	0.288818359	0.747802734	884.74	-172.4328892	11.95585245	9.313403022	-71
58213	0	-0.078918457	-0.049865723	-0.370544434	0.999999046	0.000213623	8.10623E-05	-7.62939E-05	-1.972961426	-1.246643066	-9.26361084	0.010681152	0.004053116	-0.003814697	0.865478516	0.291259766	0.744873047	884.74	-172.4066336	11.94120184	9.337724224	-72
58214	0	-0.080072403	-0.049732208	-0.37285614	0.999999046	6.10352E-05	-8.2016E-05	-0.000125885	-2.001810074	-1.243305206	-9.321403503	0.003051758	-0.0041008	-0.006294251	0.865478516	0.291259766	0.747802734	884.7	-172.3961753	11.94430889	9.368845145	-72
58215	0	-0.079711914	-0.050170898	-0.37097168	0.999999046	8.39233E-05	9.53674E-07	-0.000133514	-1.992797852	-1.254272461	-9.274291992	0.004196167	4.76837E-05	-0.00667572	0.865234375	0.293457031	0.750488281	884.76	-172.3831672	11.93786398	9.403024941	-72
58216	0	-0.080247879	-0.050133705	-0.37273407	0.999999046	-1.23978E-05	7.43866E-05	-6.96182E-05	-2.006196976	-1.253342628	-9.318351746	-0.000619888	0.00371933	-0.003480911	0.865478516	0.291259766	0.744873047	884.7	-172.3829805	11.92404725	9.424276872	-72
58217	0	-0.078918457	-0.050415039	-0.373168945	0.999999046	3.05176E-05	7.34329E-05	5.72205E-05	-1.972961426	-1.260375977	-9.329223633	0.001525879	0.003671646	0.002861023	0.865478516	0.288818359	0.744873047	884.7	-172.3809165	11.91220004	9.425310391	-72
58218	0	-0.07954216	-0.050429344	-0.371651649	0.999999046	7.82013E-05	-5.14984E-05	0.00012207	-1.988554001	-1.260733604	-9.291291237	0.003910065	-0.002574921	0.006103516	0.863037109	0.291259766	0.741943359	884.62	-172.3745276	11.91551918	9.428216964	-72
58219	0	-0.079589844	-0.050598145	-0.370361328	0.999999046	6.48499E-05	-2.95639E-05	7.24792E-05	-1.989746094	-1.264953613	-9.259033203	0.003242493	-0.001478195	0.003623962	0.862792969	0.293457031	0.747558594	884.78	-172.3685221	11.91559784	9.440372127	-72
58220	0	-0.079864502	-0.050757408	-0.371388435	1	3.8147E-06	4.1008E-05	2.95639E-05	-1.996612549	-1.268935204	-9.284710884	0.000190735	0.0020504	0.001478195	0.865478516	0.291259766	0.747802734	884.7	-172.3686848	11.90701219	9.449975241	-72
58221	0	-0.079284668	-0.050598145	-0.372192383	0.999999046	1.90735E-05	-5.24521E-05	4.95911E-05	-1.982116699	-1.264953613	-9.30480957	0.000953674	-0.002622604	0.002479553	0.860351563	0.293701172	0.747802734	884.7	-172.3672654	11.90932043	9.466639354	-72
58222	0	-0.078780174	-0.050177574	-0.371084213	1	-4.673E-05	-2.57492E-05	-4.19617E-05	-1.969504356	-1.254439354	-9.277105331	-0.002336502	-0.00128746	-0.002098083	0.865478516	0.291015625	0.741943359	884.74	-172.3712839	11.90715929	9.485959188	-72
58223	0	-0.079284668	-0.049682617	-0.371276855	0.999999046	4.95911E-05	-0.000117302	-4.57764E-05	-1.982116699	-1.24206543	-9.281921387	0.002479553	-0.005865097	-0.002288818	0.865478516	0.288818359	0.744873047	884.7	-172.3639091	11.91532045	9.500945723	-72
58224	0	-0.080284119	-0.050398827	-0.372351646	0.999999046	-6.77109E-05	-0.000101089	6.48499E-05	-2.007102966	-1.259970665	-9.308791161	-0.003385544	-0.005054474	0.003242493	0.865234375	0.293457031	0.747558594	884.8	-172.3726754	11.92334655	9.513752672	-72
58225	0	-0.080200195	-0.050048828	-0.371276855	0.999999046	7.62939E-06	-3.33786E-05	0.0001297	-2.005004883	-1.251220703	-9.281921387	0.00038147	-0.00166893	0.006484985	0.865478516	0.291259766	0.747802734	884.74	-172.3745914	11.92469101	9.512966894	-72
58226	0	-0.079506874	-0.050278664	-0.371026993	0.999999046	-8.2016E-05	-0.000102997	3.43323E-05	-1.987671852	-1.256966591	-9.27567482	-0.0041008	-0.005149841	0.001716614	0.863037109	0.291259766	0.747802734	884.62	-172.3842626	11.93248393	9.525793396	-72
58227	0	-0.079956055	-0.050231934	-0.371276855	0.999999046	-9.91821E-05	-1.04904E-05	0.000118256	-1.998901367	-1.25579834	-9.281921387	-0.004959106	-0.000524521	0.005912781	0.865478516	0.291015625	0.741943359	884.78	-172.3982062	11.93105225	9.527762253	-71
58228	0	-0.080160141	-0.049895287	-0.371468544	1	3.62396E-05	-5.81741E-05	2.95639E-05	-2.004003525	-1.247382164	-9.2867136	0.001811981	-0.002908707	0.001478195	0.863037109	0.291259766	0.747802734	884.78	-172.3943594	11.93370836	9.541011089	-72
58229	0	-0.08001709	-0.049926758	-0.371398926	0.999999046	6.48499E-05	-0.000105858	9.15527E-05	-2.000427246	-1.248168945	-9.284973145	0.003242493	-0.005292892	0.004577637	0.865478516	0.291259766	0.747802734	884.74	-172.3885773	11.94272927	9.546709206	-72
58230	0	-0.080594063	-0.050143242	-0.370765686	0.999999046	0.000207901	-8.58307E-05	2.95639E-05	-2.01485157	-1.253581047	-9.269142151	0.01039505	-0.004291534	0.001478195	0.863037109	0.2890625	0.748046875	884.78	-172.3649736	11.94857277	9.554333965	-72
58231	0	-0.080505371	-0.050354004	-0.371948242	0.999999046	-0.000133514	-0.000136375	7.24792E-05	-2.012634277	-1.258850098	-9.298706055	-0.00667572	-0.006818771	0.003623962	0.865478516	0.291259766	0.744873047	884.68	-172.3813588	11.96083138	9.56346986	-72
58232	0	-0.079821587	-0.050609589	-0.371635437	0.999999046	-0.000197411	5.14984E-05	0.000164032	-1.995539665	-1.265239716	-9.290885925	-0.009870529	0.002574921	0.008201599	0.865478516	0.291259766	0.744873047	884.74	-172.4078509	11.95312521	9.560346448	-72
58233	0	-0.079711914	-0.049682617	-0.371948242	0.999999046	-0.000179291	-0.000102043	8.39233E-05	-1.992797852	-1.24206543	-9.298706055	-0.008964539	-0.005102158	0.004196167	0.863037109	0.2890625	0.745117188	884.74	-172.4298692	11.96162374	9.565516506	-71
58234	0	-0.079613686	-0.049536705	-0.371767044	0.999999046	1.33514E-05	-0.000135422	1.81198E-05	-1.99034214	-1.238417625	-9.294176102	0.000667572	-0.006771088	0.000905991	0.863037109	0.2890625	0.748046875	884.7	-172.4281401	11.97289551	9.578132213	-71
58235	0	-0.08026123	-0.049804688	-0.371459961	0.999999046	6.48499E-05	-6.38962E-05	6.86646E-05	-2.006530762	-1.245117188	-9.286499023	0.003242493	-0.003194809	0.003433228	0.863037109	0.291259766	0.744873047	884.74	-172.4219557	11.97681413	9.589835423	-71
58236	0	-0.080194473	-0.050391197	-0.371626854	0.999999046	4.673E-05	3.8147E-06	0.000102043	-2.004861832	-1.25977993	-9.290671349	0.002336502	0.000190735	0.005102158	0.865478516	0.291259766	0.744873047	884.78	-172.4188447	11.97354531	9.595517098	-72
58237	0	-0.079650879	-0.049560547	-0.370605469	0.999999046	4.95911E-05	-0.000113487	0.000110626	-1.991271973	-1.239013672	-9.265136719	0.002479553	-0.005674362	0.005531311	0.865234375	0.291259766	0.750732422	884.74	-172.4152505	11.98371629	9.600909898	-72
58238	0	-0.079808235	-0.050435066	-0.371253967	1	2.00272E-05	-8.58307E-06	2.57492E-05	-1.995205879	-1.260876656	-9.281349182	0.001001358	-0.000429153	0.00128746	0.865478516	0.291015625	0.741943359	884.74	-172.4133075	11.98067022	9.615684627	-72
58239	0	-0.079528809	-0.050109863	-0.372314453	0.999999046	-6.86646E-05	-4.1008E-05	8.39233E-05	-1.988220215	-1.252746582	-9.307861328	-0.003433228	-0.0020504	0.004196167	0.865478516	0.288818359	0.747802734	884.78	-172.4228275	11.98214522	9.617852965	-71
58240	0	-0.079813004	-0.05102253	-0.371582985	0.999999046	-0.000164986	-9.15527E-05	6.10352E-05	-1.995325089	-1.27556324	-9.289574623	-0.008249283	-0.004577637	0.003051758	0.865478516	0.291259766	0.744873047	884.74	-172.442612	11.98899864	9.631068983	-72
58241	0	-0.079528809	-0.049926758	-0.372070313	0.999999046	-0.000118256	-0.000166893	0.000114441	-1.988220215	-1.248168945	-9.301757813	-0.005912781	-0.00834465	0.005722046	0.865478516	0.288818359	0.747802734	884.74	-172.4580902	12.00517512	9.63325517	-72
58242	0	-0.079909325	-0.04994297	-0.370774269	0.999999046	-9.15527E-05	-4.95911E-05	4.95911E-05	-1.997733116	-1.248574257	-9.269356728	-0.004577637	-0.002479553	0.002479553	0.863037109	0.291259766	0.747802734	884.76	-172.4692985	12.00704162	9.648882314	-72
58243	0	-0.07989502	-0.049621582	-0.372802734	0.999999046	-8.39233E-05	-9.44138E-05	0.000110626	-1.997375488	-1.240539551	-9.320068359	-0.004196167	-0.004720688	0.005531311	0.863037109	0.2890625	0.748046875	884.74	-172.4809765	12.01488276	9.65308903	-72
58244	0	-0.079977036	-0.050213814	-0.371331215	0.999999046	-0.000273705	-9.15527E-05	0.000190735	-1.999425888	-1.255345345	-9.283280373	-0.013685227	-0.004577637	0.009536743	0.865478516	0.291259766	0.744873047	884.74	-172.5163123	12.02358173	9.65483861	-72
58245	0	-0.080566406	-0.049377441	-0.372131348	0.999999046	-0.00019455	3.52859E-05	0.000160217	-2.014160156	-1.234436035	-9.303283691	-0.009727478	0.001764298	0.008010864	0.865478516	0.288818359	0.744873047	884.74	-172.5422479	12.01741075	9.653166985	-72
58246	0	-0.079580307	-0.049146652	-0.37270546	1	-9.53674E-07	-2.76566E-05	3.71933E-05	-1.989507675	-1.228666306	-9.31763649	-4.76837E-05	-0.001382828	0.001859665	0.865478516	0.2890625	0.750732422	884.8	-172.5428333	12.01651011	9.665951317	-72
58247	0	-0.079345703	-0.050354004	-0.372253418	0.999999046	4.95911E-05	-9.44138E-05	0.000141144	-1.983642578	-1.258850098	-9.306335449	0.002479553	-0.004720688	0.00705719	0.865478516	0.2890625	0.750732422	884.7	-172.539874	12.02468495	9.667951121	-72
58248	0	-0.07998085	-0.050429344	-0.371195793	0.999999046	-3.14713E-05	-0.000106812	0.000125885	-1.999521255	-1.260733604	-9.279894829	-0.001573563	-0.005340576	0.006294251	0.865478516	0.288818359	0.7421875	884.74	-172.5457309	12.03402707	9.673793369	-72
58249	0	-0.079223633	-0.049499512	-0.371826172	0.999999046	-0.000133514	6.58035E-05	5.72205E-05	-1.98059082	-1.237487793	-9.295654297	-0.00667572	0.003290176	0.002861023	0.865478516	0.291015625	0.741943359	884.74	-172.5621501	12.02267602	9.69111164	-72
58250	0	-0.079303741	-0.048659325	-0.372216225	0.999999046	5.14984E-05	5.72205E-06	8.01086E-05	-1.982593536	-1.216483116	-9.305405617	0.002574921	0.000286102	0.004005432	0.865478516	0.286621094	0.748046875	884.76	-172.5577652	12.01843467	9.693795064	-72
58251	0	-0.079772949	-0.049560547	-0.372009277	0.999999046	2.67029E-05	9.53674E-07	0.00019455	-1.99432373	-1.239013672	-9.300231934	0.001335144	4.76837E-05	0.009727478	0.865478516	0.2890625	0.750732422	884.68	-172.5589534	12.01640831	9.689552882	-72
58252	0	-0.080159187	-0.049733162	-0.371763229	0.999999046	2.86102E-06	-8.01086E-05	8.39233E-05	-2.003979683	-1.243329048	-9.294080734	0.000143051	-0.004005432	0.004196167	0.865478516	0.288818359	0.747802734	884.78	-172.5599124	12.02194704	9.699585164	-72
58253	0	-0.079956055	-0.049438477	-0.370117188	0.999999046	-8.7738E-05	3.14713E-05	0.000125885	-1.998901367	-1.235961914	-9.252929688	-0.004386902	0.001573563	0.006294251	0.865478516	0.286621094	0.750976563	884.74	-172.5725982	12.01542988	9.69733139	-72
58254	0	-0.079763412	-0.049292564	-0.372328758	0.999999046	-7.05719E-05	-5.14984E-05	0.000136375	-1.994085312	-1.23231411	-9.308218956	-0.003528595	-0.002574921	0.006818771	0.865478516	0.288818359	0.747802734	884.74	-172.5832998	12.01846766	9.702300897	-71
58255	0	-0.080322266	-0.049438477	-0.370300293	0.999999046	6.48499E-05	-7.53403E-05	7.62939E-05	-2.008056641	-1.235961914	-9.257507324	0.003242493	-0.003767014	0.003814697	0.865478516	0.2890625	0.750732422	884.68	-172.5769244	12.02334519	9.71435357	-71
58256	0	-0.08008194	-0.049352646	-0.370587349	0.999999046	6.67572E-06	-9.15527E-05	4.19617E-05	-2.002048492	-1.233816147	-9.264683723	0.000333786	-0.004577637	0.002098083	0.865478516	0.288818359	0.747802734	884.68	-172.5763113	12.0295594	9.730585571	-71
58257	0	-0.079528809	-0.049743652	-0.371765137	0.999999046	-0.000118256	-6.67572E-06	1.90735E-05	-1.988220215	-1.243591309	-9.294128418	-0.005912781	-0.000333786	0.000953674	0.86328125	0.286865234	0.745361328	884.62	-172.5896963	12.02575049	9.744999299	-72
58258	0	-0.079475403	-0.048920631	-0.371775627	0.999999046	-3.62396E-05	-0.000177383	1.43051E-05	-1.986885071	-1.223015785	-9.294390678	-0.001811981	-0.008869171	0.000715256	0.863037109	0.286865234	0.748291016	884.68	-172.593035	12.04123126	9.76199079	-71
