Counter	Temperature	VelInc_X	VelInc_Y	VelInc_Z	OriInc_w	OriInc_x	OriInc_y	OriInc_z	Acc_X	Acc_Y	Acc_Z	Gyr_X	Gyr_Y	Gyr_Z	Mag_X	Mag_Y	Mag_Z	Pressure	Roll	Pitch	Yaw	RSSI
23300	0	0.003024101	-0.206793785	0.34853363	0.999999046	-0.000632286	1.90735E-06	3.43323E-05	0.075602531	-5.169844627	8.713340759	-0.031614306	9.53674E-05	0.001716614	-0.484619141	0.046875	-0.776123047	891.76	-30.89882518	-0.708758895	147.9329828	-79
23301	0	0.002746582	-0.208679199	0.346130371	0.999999046	-0.000492096	-3.71933E-05	5.72205E-05	0.068664551	-5.21697998	8.653259277	-0.024604798	-0.001859665	0.002861023	-0.489501953	0.047119141	-0.772949219	891.72	-30.9574442	-0.70375956	147.9196875	-79
23302	0	0.00299263	-0.2087183	0.348426819	0.999999046	-0.000368118	-0.000131607	6.77109E-05	0.07481575	-5.217957497	8.710670471	-0.018405915	-0.006580353	0.003385544	-0.487060547	0.049316406	-0.776367188	891.78	-31.00200085	-0.707438697	147.9085082	-79
23303	0	0.00213623	-0.209106445	0.347229004	0.999999046	-0.000347137	-2.19345E-05	8.01086E-05	0.053405762	-5.227661133	8.680725098	-0.017356873	-0.001096725	0.004005432	-0.487304688	0.051513672	-0.7734375	891.76	-31.04416399	-0.699594882	147.8987648	-79
23304	0	0.002545357	-0.209044456	0.348303795	0.999999046	-0.000329018	-0.000116348	0.000174522	0.063633919	-5.226111412	8.707594872	-0.016450882	-0.005817413	0.00872612	-0.487304688	0.051513672	-0.7734375	891.68	-31.0844729	-0.695436483	147.902412	-79
23305	0	0.002624512	-0.209289551	0.345581055	0.999999046	-0.000320435	-2.19345E-05	8.7738E-05	0.065612793	-5.23223877	8.639526367	-0.016021729	-0.001096725	0.004386902	-0.487304688	0.051513672	-0.7734375	891.76	-31.12373342	-0.687149172	147.891005	-79
23306	0	0.00235939	-0.209757805	0.347704887	0.999999046	-5.91278E-05	-9.72748E-05	0.000117302	0.058984756	-5.243945122	8.692622185	-0.00295639	-0.004863739	0.005865097	-0.487060547	0.049316406	-0.770507813	891.78	-31.13319431	-0.684494751	147.8854575	-79
23307	0	0.002319336	-0.208984375	0.347961426	0.999999046	1.90735E-05	-2.95639E-05	-6.86646E-05	0.057983398	-5.224609375	8.699035645	0.000953674	-0.001478195	-0.003433228	-0.487060547	0.051513672	-0.776367188	891.76	-31.13344032	-0.686207507	147.8554432	-79
23308	0	0.003040314	-0.210313797	0.34778595	0.999999046	-7.34329E-05	2.86102E-05	0	0.076007843	-5.257844925	8.694648743	-0.003671646	0.001430511	0	-0.489501953	0.051513672	-0.776367188	891.76	-31.14439336	-0.678177421	147.832247	-78
23309	0	0.002868652	-0.209228516	0.346801758	0.999999046	-8.39233E-05	-0.000174522	9.15527E-05	0.071716309	-5.230712891	8.670043945	-0.004196167	-0.00872612	0.004577637	-0.487304688	0.051513672	-0.770507813	891.76	-31.15683548	-0.684670063	147.8329094	-78
23310	0	0.002402306	-0.210447311	0.347070694	0.999999046	-4.57764E-05	-2.47955E-05	0.000114441	0.06005764	-5.261182785	8.676767349	-0.002288818	-0.001239777	0.005722046	-0.487304688	0.053710938	-0.770751953	891.82	-31.16490379	-0.675121137	147.8304163	-78
23311	0	0.002502441	-0.209960938	0.345581055	0.999999046	7.62939E-05	-7.53403E-05	0.00018692	0.062561035	-5.249023438	8.639526367	0.003814697	-0.003767014	0.009346008	-0.487060547	0.051513672	-0.776367188	891.82	-31.15921712	-0.666227981	147.8271281	-79
23312	0	0.002049446	-0.209543228	0.348053932	0.999999046	4.86374E-05	-0.000123978	6.10352E-05	0.051236153	-5.238580704	8.701348305	0.00243187	-0.006198883	0.003051758	-0.487060547	0.051513672	-0.776367188	891.82	-31.15660108	-0.669553349	147.8143829	-79
23313	0	0.00201416	-0.209838867	0.346740723	0.999999046	3.8147E-06	-0.000105858	0.000106812	0.050354004	-5.24597168	8.668518066	0.000190735	-0.005292892	0.005340576	-0.487304688	0.053710938	-0.776611328	891.68	-31.15921449	-0.668373182	147.808976	-79
23314	0	0.003385544	-0.209837914	0.346679688	0.999999046	4.3869E-05	-0.000188828	-3.52859E-05	0.084638596	-5.245947838	8.666992188	0.002193451	-0.009441376	-0.001764297	-0.484863281	0.053710938	-0.773925781	891.82	-31.15719117	-0.683807114	147.7940574	-79
23315	0	0.003051758	-0.209228516	0.346801758	0.999999046	-4.19617E-05	9.53674E-07	0.000179291	0.076293945	-5.230712891	8.670043945	-0.002098084	4.76837E-05	0.008964539	-0.489746094	0.051513672	-0.770507813	891.88	-31.16513906	-0.667940989	147.7952861	-79
23316	0	0.00206089	-0.209686279	0.348309517	0.999999046	-4.29153E-05	-4.57764E-05	4.48227E-05	0.051522255	-5.242156982	8.707737923	-0.002145767	-0.002288818	0.002241135	-0.484863281	0.051513672	-0.773681641	891.88	-31.17309634	-0.664607855	147.7755836	-79
23317	0	0.002685547	-0.210693359	0.346984863	0.999999046	3.05176E-05	-3.71933E-05	2.28882E-05	0.067138672	-5.267333984	8.674621582	0.001525879	-0.001859665	0.001144409	-0.487304688	0.051513672	-0.7734375	891.82	-31.17268433	-0.661753164	147.7571563	-79
23318	0	0.002502441	-0.209594727	0.346252441	0.999999046	7.24792E-05	-7.62939E-05	2.28882E-05	0.062561035	-5.239868164	8.656311035	0.003623962	-0.003814697	0.001144409	-0.487304688	0.053710938	-0.776611328	891.72	-31.1675408	-0.662740727	147.741696	-79
23319	0	0.00213623	-0.209716797	0.346496582	0.999999046	-0.0001297	-1.04904E-05	4.19617E-05	0.053405762	-5.242919922	8.662414551	-0.006484985	-0.000524521	0.002098084	-0.489501953	0.051513672	-0.7734375	891.68	-31.18558968	-0.65613631	147.7265361	-79
23320	0	0.002319336	-0.210998535	0.345703125	0.999999046	7.72476E-05	-3.05176E-05	6.48499E-05	0.057983398	-5.274963379	8.642578125	0.003862381	-0.001525879	0.003242493	-0.487304688	0.053710938	-0.773681641	891.82	-31.18008024	-0.650140325	147.7157396	-79
23321	0	0.002048492	-0.209477425	0.347639084	0.999998093	0.000321388	-0.000127792	3.24249E-05	0.051212311	-5.236935616	8.690977097	0.016069413	-0.006389618	0.001621246	-0.487060547	0.051513672	-0.776367188	891.82	-31.1466367	-0.655588422	147.700813	-79
23322	0	0.002437592	-0.208919525	0.346486092	0.999999046	-2.09808E-05	-0.000156403	8.7738E-05	0.060939789	-5.222988129	8.66215229	-0.001049042	-0.007820129	0.004386902	-0.489501953	0.051513672	-0.7734375	891.84	-31.15251583	-0.660574969	147.6992841	-79
23323	0	0.002685547	-0.208862305	0.346984863	0.999999046	-0.000419617	7.72476E-05	0.000202179	0.067138672	-5.221557617	8.674621582	-0.020980836	0.003862381	0.010108948	-0.487304688	0.053710938	-0.773681641	891.78	-31.20404455	-0.635881641	147.694696	-79
23324	0	0.001875877	-0.21086216	0.345464706	0.999999046	-0.0002985	-4.95911E-05	6.77109E-05	0.046896935	-5.271553993	8.636617661	-0.014925003	-0.002479553	0.003385544	-0.484863281	0.053710938	-0.776855469	891.76	-31.24175286	-0.631584507	147.676574	-79
23325	0	0.002746582	-0.210693359	0.34576416	0.999999046	1.52588E-05	-0.000105858	6.48499E-05	0.068664551	-5.267333984	8.644104004	0.000762939	-0.005292892	0.003242493	-0.487304688	0.053710938	-0.767822266	891.84	-31.24359504	-0.633011402	147.6750258	-79
23326	0	0.002670288	-0.209341049	0.345403671	0.999999046	0.000190735	-0.000101089	7.53403E-05	0.066757202	-5.23352623	8.635091782	0.009536743	-0.005054474	0.003767014	-0.487060547	0.051513672	-0.776367188	891.76	-31.22538741	-0.633365851	147.6604262	-80
23327	0	0.00213623	-0.209960938	0.347717285	0.999999046	-3.8147E-06	-8.29697E-05	3.8147E-06	0.053405762	-5.249023438	8.692932129	-0.000190735	-0.004148483	0.000190735	-0.484863281	0.053710938	-0.776855469	891.88	-31.22937938	-0.636192913	147.6383207	-80
23328	0	0.002070427	-0.209780693	0.345334053	0.999999046	-0.000193596	-3.24249E-05	0.000141144	0.051760674	-5.244517326	8.633351326	-0.009679794	-0.001621246	0.00705719	-0.484863281	0.053710938	-0.779785156	891.72	-31.25529224	-0.625900359	147.62289	-80
23329	0	0.00189209	-0.212036133	0.345703125	0.999999046	-3.05176E-05	-0.000185966	7.24792E-05	0.047302246	-5.30090332	8.642578125	-0.001525879	-0.009298325	0.003623962	-0.487304688	0.053710938	-0.773681641	891.82	-31.26265518	-0.634724919	147.619769	-79
23330	0	0.00272274	-0.208762169	0.345749855	0.999999046	0.000146866	-0.000177383	1.81198E-05	0.068068504	-5.219054222	8.643746376	0.007343292	-0.008869171	0.000905991	-0.489501953	0.051513672	-0.7734375	891.82	-31.24960818	-0.645969431	147.6101609	-79
23331	0	0.003662109	-0.210388184	0.346374512	0.999999046	-5.72205E-05	9.53674E-07	9.91821E-05	0.091552734	-5.25970459	8.659362793	-0.002861023	4.76837E-05	0.004959106	-0.487304688	0.053710938	-0.773681641	891.88	-31.25995422	-0.634996117	147.5985276	-80
23332	0	0.001972198	-0.210428238	0.346166611	0.999999046	-6.67572E-06	1.90735E-06	0.000247002	0.049304962	-5.260705948	8.654165268	-0.000333786	9.53674E-05	0.012350083	-0.487548828	0.055908203	-0.770996094	891.76	-31.26469399	-0.615131161	147.6084622	-80
23333	0	0.00189209	-0.210083008	0.344848633	0.999999046	5.72205E-05	-9.05991E-05	9.91821E-05	0.047302246	-5.252075195	8.62121582	0.002861023	-0.004529953	0.004959106	-0.487548828	0.055908203	-0.770996094	891.82	-31.26207076	-0.613109517	147.6091535	-80
23334	0	0.00154686	-0.209677696	0.345726013	0.999999046	0.000104904	-0.000169754	6.38962E-05	0.038671494	-5.241942406	8.64315033	0.005245209	-0.008487701	0.003194809	-0.484863281	0.053710938	-0.773925781	891.76	-31.25403179	-0.62090883	147.5998537	-80
23335	0	0.002746582	-0.209594727	0.346862793	0.999999046	-3.05176E-05	-0.000174522	-0.0001297	0.068664551	-5.239868164	8.671569824	-0.001525879	-0.00872612	-0.006484985	-0.484863281	0.053710938	-0.770996094	891.78	-31.2612863	-0.64072143	147.5750714	-80
23336	0	0.003409386	-0.210163116	0.346237183	0.999998093	3.8147E-06	-0.000184059	0.000166893	0.085234642	-5.254077911	8.655929565	0.000190735	-0.009202957	0.00834465	-0.484863281	0.053710938	-0.773925781	891.72	-31.26496693	-0.643888031	147.5760643	-80
23337	0	0.002929688	-0.209594727	0.345336914	0.999999046	-6.10352E-05	2.38419E-05	0.000198364	0.073242188	-5.239868164	8.633422852	-0.003051758	0.001192093	0.009918213	-0.487304688	0.053710938	-0.773681641	891.82	-31.27598975	-0.624852195	147.5713458	-80
23338	0	0.002280235	-0.210248947	0.345921516	0.999999046	0.000112534	-6.67572E-05	6.00815E-05	0.057005882	-5.256223679	8.64803791	0.005626678	-0.00333786	0.003004074	-0.487304688	0.053710938	-0.770751953	891.82	-31.26705663	-0.622922382	147.5620377	-80
23339	0	0.002319336	-0.209472656	0.345947266	0.999999046	3.05176E-05	-2.57492E-05	6.48499E-05	0.057983398	-5.236816406	8.648681641	0.001525879	-0.00128746	0.003242493	-0.487304688	0.053710938	-0.770751953	891.82	-31.26749876	-0.616699813	147.5508339	-80
23340	0	0.00267601	-0.210246086	0.346997261	0.999999046	-0.000145912	-0.000160217	-1.14441E-05	0.066900253	-5.256152153	8.674931526	-0.007295609	-0.008010864	-0.000572205	-0.484863281	0.053710938	-0.773925781	891.88	-31.28818016	-0.62821016	147.5325538	-80
23341	0	0.002624512	-0.211425781	0.346862793	0.999999046	0.000190735	-0.000159264	-6.86646E-05	0.065612793	-5.285644531	8.671569824	0.009536743	-0.007963181	-0.003433228	-0.487304688	0.053710938	-0.776611328	891.84	-31.27027175	-0.643051042	147.50951	-80
23342	0	0.003129959	-0.209218979	0.346208572	0.999999046	0.000263214	-0.000125885	3.71933E-05	0.078248978	-5.230474472	8.65521431	0.013160706	-0.006294251	0.001859665	-0.487304688	0.055908203	-0.773925781	891.82	-31.24411474	-0.648368058	147.5024628	-80
23343	0	0.003234863	-0.20892334	0.346801758	0.999999046	-0.000114441	-2.19345E-05	6.48499E-05	0.080871582	-5.223083496	8.670043945	-0.005722046	-0.001096725	0.003242493	-0.487304688	0.053710938	-0.770751953	891.88	-31.2611555	-0.64189932	147.4911536	-80
23344	0	0.002001762	-0.210956573	0.345471382	0.999999046	-0.000264168	-7.62939E-05	0.000121117	0.05004406	-5.273914337	8.636784554	-0.013208389	-0.003814697	0.006055832	-0.484863281	0.053710938	-0.770996094	891.76	-31.29553587	-0.637388153	147.4839678	-80
23345	0	0.002075195	-0.210083008	0.345275879	0.999999046	0.000160217	-0.00014782	6.86646E-05	0.051879883	-5.252075195	8.631896973	0.008010864	-0.007390976	0.003433228	-0.489746094	0.053710938	-0.776611328	891.78	-31.28130649	-0.642989099	147.476509	-80
23346	0	0.002087593	-0.210583687	0.346258163	0.999999046	0.000137329	-5.72205E-06	1.43051E-05	0.052189827	-5.264592171	8.656454086	0.006866455	-0.000286102	0.000715256	-0.484863281	0.053710938	-0.776855469	891.78	-31.26958508	-0.637890838	147.4490214	-80
23347	0	0.002563477	-0.209655762	0.345825195	0.999999046	-8.01086E-05	-0.000136375	0.000175476	0.064086914	-5.241394043	8.645629883	-0.004005432	-0.006818771	0.008773804	-0.484863281	0.053710938	-0.776855469	891.84	-31.28304853	-0.636012684	147.4446297	-80
23348	0	0.002401352	-0.210506439	0.346339226	0.999999046	-2.95639E-05	1.33514E-05	6.48499E-05	0.060033798	-5.26266098	8.658480644	-0.001478195	0.000667572	0.003242493	-0.487304688	0.055908203	-0.779785156	891.76	-31.29051791	-0.626059035	147.4248471	-79
23349	0	0.00201416	-0.209716797	0.346435547	0.999999046	0.000114441	-0.000197411	-1.14441E-05	0.050354004	-5.242919922	8.660888672	0.005722046	-0.009870529	-0.000572205	-0.487304688	0.051513672	-0.7734375	891.76	-31.28152603	-0.641272872	147.4093764	-80
23350	0	0.00213623	-0.210571289	0.34564209	0.999999046	2.28882E-05	-8.7738E-05	1.90735E-05	0.053405762	-5.264282227	8.641052246	0.001144409	-0.004386902	0.000953674	-0.484863281	0.053710938	-0.773925781	891.78	-31.28302859	-0.6439198	147.3905965	-79
23351	0	0.002380371	-0.208557129	0.346008301	0.999999046	-6.48499E-05	-4.48227E-05	-3.8147E-05	0.059509277	-5.213928223	8.65020752	-0.003242493	-0.002241135	-0.001907349	-0.487304688	0.051513672	-0.7734375	891.76	-31.29444119	-0.645771501	147.363696	-80
23352	0	0.003221512	-0.210677147	0.347078323	0.999999046	-0.000163078	-0.000101089	9.44138E-05	0.080537796	-5.266928673	8.676958084	-0.008153915	-0.005054474	0.004720688	-0.487304688	0.053710938	-0.770751953	891.78	-31.31729019	-0.645288102	147.3594462	-79
23353	0	0.00177002	-0.209838867	0.344787598	0.999999046	0.000110626	-0.000128746	6.48499E-05	0.044250488	-5.24597168	8.619689941	0.005531311	-0.006437302	0.003242493	-0.484863281	0.053710938	-0.773925781	891.76	-31.30879399	-0.64923935	147.3471626	-79
23354	0	0.002076149	-0.209885597	0.345687866	1	4.86374E-05	2.86102E-06	-4.76837E-06	0.051903725	-5.247139931	8.642196655	0.00243187	0.000143051	-0.000238419	-0.489746094	0.051513672	-0.770507813	891.76	-31.30722981	-0.64443674	147.3272198	-79
23355	0	0.002197266	-0.210021973	0.345214844	0.999999046	3.8147E-06	-0.000170708	2.28882E-05	0.054931641	-5.250549316	8.630371094	0.000190735	-0.008535385	0.001144409	-0.484863281	0.053710938	-0.770996094	891.84	-31.31097556	-0.654971733	147.316733	-79
23356	0	0.00261116	-0.209897995	0.347167969	0.999999046	-6.67572E-06	-0.000225067	6.10352E-05	0.065279007	-5.247449875	8.679199219	-0.000333786	-0.011253357	0.003051758	-0.487304688	0.053710938	-0.773681641	891.82	-31.31596851	-0.668565071	147.3130378	-79
23357	0	0.003173828	-0.209655762	0.345031738	0.999999046	-6.48499E-05	-9.44138E-05	8.39233E-05	0.079345703	-5.241394043	8.625793457	-0.003242493	-0.004720688	0.004196167	-0.487304688	0.053710938	-0.779541016	891.88	-31.32758382	-0.668035013	147.2970736	-79
23358	0	0.001556396	-0.209823608	0.346774101	0.999999046	-0.000167847	-1.52588E-05	7.62939E-05	0.038909912	-5.24559021	8.669352531	-0.008392334	-0.000762939	0.003814697	-0.487304688	0.053710938	-0.773681641	891.76	-31.35089303	-0.660164143	147.281926	-79
23359	0	0.00213623	-0.210693359	0.345031738	0.999999046	0.000118256	-7.53403E-05	3.43323E-05	0.053405762	-5.267333984	8.625793457	0.005912781	-0.003767014	0.001716614	-0.487304688	0.053710938	-0.776611328	891.78	-31.34145833	-0.660657742	147.2634193	-79
23360	0	0.002967834	-0.208964348	0.347216606	0.999999046	-8.58307E-06	-0.000165939	-7.62939E-05	0.074195862	-5.224108696	8.680415154	-0.000429153	-0.008296967	-0.003814697	-0.487304688	0.053710938	-0.776611328	891.78	-31.34640629	-0.676637776	147.2394697	-79
23361	0	0.002319336	-0.209960938	0.345397949	0.999999046	-0.00031662	8.58307E-06	0.000133514	0.057983398	-5.249023438	8.63494873	-0.015830994	0.000429153	0.00667572	-0.487060547	0.051513672	-0.776367188	891.84	-31.38678227	-0.66301708	147.2210474	-79
23362	0	0.002746582	-0.211914063	0.346130371	0.999999046	7.24792E-05	-1.14441E-05	7.24792E-05	0.068664551	-5.297851563	8.653259277	0.003623962	-0.000572205	0.003623962	-0.487304688	0.053710938	-0.773681641	891.82	-31.38255681	-0.655013093	147.205577	-79
23363	0	0.00229454	-0.210168839	0.347478867	0.999998093	0.000317574	-8.2016E-05	0.000185966	0.05736351	-5.254220963	8.686971664	0.015878678	-0.0041008	0.009298325	-0.487304688	0.053710938	-0.776611328	891.78	-31.35036712	-0.647135161	147.202901	-79
23364	0	0.00239563	-0.209055901	0.346772194	0.999999046	-9.63211E-05	-8.7738E-05	0.000118256	0.059890747	-5.226397514	8.669304848	-0.004816055	-0.004386902	0.005912781	-0.487304688	0.053710938	-0.770751953	891.82	-31.36545001	-0.643859467	147.1999778	-79
23365	0	0.002258301	-0.210205078	0.346069336	0.999999046	-0.000362396	2.00272E-05	7.62939E-05	0.05645752	-5.255126953	8.651733398	-0.018119812	0.001001358	0.003814697	-0.489501953	0.053710938	-0.779541016	891.94	-31.41091002	-0.632537429	147.1790281	-79
23366	0	0.002090454	-0.211615562	0.345305443	0.999999046	4.76837E-05	-9.34601E-05	7.53403E-05	0.052261353	-5.290389061	8.63263607	0.002384186	-0.004673004	0.003767014	-0.487304688	0.053710938	-0.773681641	891.76	-31.409502	-0.63236579	147.1683623	-79
23367	0	0.00201416	-0.210388184	0.346008301	0.999999046	0.000335693	-0.000117302	0.0001297	0.050354004	-5.25970459	8.65020752	0.016784668	-0.005865097	0.006484986	-0.487304688	0.051513672	-0.7734375	891.82	-31.37515293	-0.631268259	147.1615686	-79
23368	0	0.002468109	-0.209240913	0.346574783	0.999999046	9.63211E-05	-2.28882E-05	9.44138E-05	0.061702728	-5.231022835	8.664369583	0.004816055	-0.001144409	0.004720688	-0.484619141	0.051269531	-0.779541016	891.76	-31.36808158	-0.623049835	147.13555	-79
23369	0	0.002197266	-0.209838867	0.346313477	0.999999046	-2.28882E-05	-0.000144005	3.05176E-05	0.054931641	-5.24597168	8.657836914	-0.001144409	-0.007200241	0.001525879	-0.487304688	0.053710938	-0.773681641	891.76	-31.37462756	-0.63049646	147.1248459	-79
23370	0	0.002589226	-0.210892677	0.34575367	0.999999046	-7.62939E-05	-4.3869E-05	9.91821E-05	0.064730644	-5.272316933	8.643841743	-0.003814697	-0.002193451	0.004959106	-0.489746094	0.053955078	-0.770751953	891.82	-31.38731926	-0.624068173	147.1215171	-79
23371	0	0.00201416	-0.21105957	0.346740723	0.999999046	0.00030899	-2.86102E-06	-2.28882E-05	0.050354004	-5.276489258	8.668518066	0.015449524	-0.000143051	-0.001144409	-0.487304688	0.053710938	-0.776611328	891.82	-31.35572219	-0.620897007	147.0947991	-79
23372	0	0.003368378	-0.208770752	0.345831871	0.999999046	-0.000271797	8.01086E-05	0.000102043	0.084209442	-5.219268799	8.645796776	-0.013589859	0.004005432	0.005102158	-0.487304688	0.053710938	-0.773681641	891.84	-31.39069516	-0.602216675	147.0782094	-79
23373	0	0.002319336	-0.211303711	0.345336914	0.999999046	-1.52588E-05	-6.38962E-05	0.000183105	0.057983398	-5.282592773	8.633422852	-0.000762939	-0.003194809	0.009155273	-0.487304688	0.053710938	-0.773681641	891.82	-31.39649696	-0.592798098	147.0779017	-79
23374	0	0.001432419	-0.210399628	0.34581852	0.999999046	9.34601E-05	-7.05719E-05	0.000109673	0.035810471	-5.259990692	8.64546299	0.004673004	-0.003528595	0.005483627	-0.487304688	0.053710938	-0.773681641	891.84	-31.38976486	-0.588386107	147.070975	-79
23375	0	0.002075195	-0.209899902	0.347229004	0.999999046	0.000125885	-6.38962E-05	0.000106812	0.051879883	-5.247497559	8.680725098	0.006294251	-0.003194809	0.005340576	-0.487304688	0.055908203	-0.776855469	891.76	-31.37924861	-0.583496897	147.0640506	-79
23376	0	0.001403809	-0.209752083	0.346610069	0.999999046	-4.673E-05	-0.000177383	-8.01086E-05	0.035095215	-5.243802071	8.665251732	-0.002336502	-0.008869171	-0.004005432	-0.487304688	0.053710938	-0.773681641	891.82	-31.38835011	-0.600836734	147.0449233	-79
23377	0	0.003540039	-0.210083008	0.346557617	0.999999046	7.62939E-06	-8.67844E-05	3.8147E-05	0.088500977	-5.252075195	8.66394043	0.00038147	-0.004339218	0.001907349	-0.487304688	0.053710938	-0.773681641	891.76	-31.39125496	-0.602332071	147.0319458	-79
23378	0	0.002729416	-0.210688591	0.346071243	0.999999046	0	-1.90735E-05	0.000285149	0.068235397	-5.267214775	8.651781082	0	-0.000953674	0.014257431	-0.487304688	0.053710938	-0.773681641	891.82	-31.39525034	-0.582492006	147.0388836	-79
23379	0	0.00189209	-0.210083008	0.346069336	0.999999046	1.14441E-05	-5.62668E-05	3.8147E-05	0.047302246	-5.252075195	8.651733398	0.000572205	-0.002813339	0.001907349	-0.487304688	0.053710938	-0.779541016	891.84	-31.3976981	-0.581029183	147.0177123	-79
23380	0	0.0026474	-0.210075378	0.347171783	0.999999046	1.04904E-05	-0.000135422	2.67029E-05	0.066184998	-5.25188446	8.679294586	0.000524521	-0.006771088	0.001335144	-0.487304688	0.053710938	-0.770751953	891.76	-31.40022669	-0.5880275	147.0095957	-79
23381	0	0.002502441	-0.20904541	0.347106934	0.999999046	-0.000175476	-2.86102E-06	0.000137329	0.062561035	-5.226135254	8.67767334	-0.008773804	-0.000143051	0.006866455	-0.487548828	0.058349609	-0.777099609	891.82	-31.42400115	-0.575479159	147.0054134	-79
23382	0	0.002140999	-0.211792946	0.346116066	0.999999046	-1.71661E-05	-6.10352E-05	-6.58035E-05	0.053524971	-5.294823647	8.652901649	-0.000858307	-0.003051758	-0.003290176	-0.487304688	0.053710938	-0.773681641	891.82	-31.42952354	-0.580763938	146.9802232	-79
23383	0	0.002746582	-0.210876465	0.34552002	0.999999046	0.00037384	-9.44138E-05	0.000190735	0.068664551	-5.271911621	8.638000488	0.018692017	-0.004720688	0.009536743	-0.487304688	0.053710938	-0.773681641	891.82	-31.39053133	-0.574025695	146.9828814	-79
23384	0	0.002243996	-0.208543777	0.346529961	0.999999046	0.000220299	-9.53674E-05	0.000179291	0.056099892	-5.213594437	8.663249016	0.011014939	-0.004768372	0.008964539	-0.487304688	0.053710938	-0.773681641	891.88	-31.36902587	-0.568083987	146.9848119	-79
23385	0	0.002685547	-0.209655762	0.346069336	0.999999046	-0.000114441	-9.82285E-05	4.19617E-05	0.067138672	-5.241394043	8.651733398	-0.005722046	-0.004911423	0.002098084	-0.487304688	0.053710938	-0.773681641	891.82	-31.38572286	-0.570654378	146.973078	-79
23386	0	0.001759529	-0.211627007	0.344738007	0.999999046	-0.000144958	-0.000123978	0.000136375	0.043988228	-5.290675163	8.618450165	-0.007247925	-0.006198883	0.006818771	-0.487304688	0.053710938	-0.779541016	891.78	-31.40612574	-0.570096553	146.9652051	-79
23387	0	0.002502441	-0.209960938	0.345947266	0.999999046	0.000125885	-0.000159264	2.28882E-05	0.062561035	-5.249023438	8.648681641	0.006294251	-0.007963181	0.001144409	-0.487548828	0.055908203	-0.770996094	891.82	-31.39535817	-0.579793698	146.9618129	-79
23388	0	0.003030777	-0.209874153	0.345876694	0.999999046	0.000123024	-0.000106812	0.00014019	0.075769424	-5.246853828	8.646917343	0.006151199	-0.005340576	0.007009506	-0.487304688	0.053710938	-0.770751953	891.78	-31.3849882	-0.577407988	146.9628396	-79
23389	0	0.001953125	-0.210266113	0.345031738	0.999999046	-7.24792E-05	-9.44138E-05	0.00012207	0.048828125	-5.256652832	8.625793457	-0.003623962	-0.004720688	0.006103516	-0.485107422	0.055908203	-0.773925781	891.78	-31.39702213	-0.574885924	146.958407	-79
23390	0	0.003188133	-0.212026596	0.346892357	0.999999046	-4.19617E-05	-4.3869E-05	0.000128746	0.079703331	-5.300664902	8.672308922	-0.002098084	-0.002193451	0.006437302	-0.484863281	0.055908203	-0.776855469	891.72	-31.40558587	-0.567077818	146.9480501	-79
23391	0	0.001953125	-0.2109375	0.34753418	0.999999046	0.000160217	-3.71933E-05	0.000144958	0.048828125	-5.2734375	8.688354492	0.008010864	-0.001859665	0.007247925	-0.484863281	0.053710938	-0.773925781	891.72	-31.39097008	-0.557645169	146.9387455	-79
23392	0	0.003199577	-0.209607124	0.346380234	0.999999046	-0.000138283	-6.10352E-05	9.91821E-05	0.079989433	-5.240178108	8.659505844	-0.006914139	-0.003051758	0.004959106	-0.487304688	0.053710938	-0.773681641	891.82	-31.41048191	-0.5533412	146.9295455	-79
23393	0	0.002197266	-0.211914063	0.346435547	0.999999046	3.8147E-06	-0.000124931	0.000198364	0.054931641	-5.297851563	8.660888672	0.000190735	-0.006246567	0.009918213	-0.487304688	0.053710938	-0.773681641	891.82	-31.41388892	-0.549374486	146.9335112	-79
23394	0	0.002384186	-0.209471703	0.346679688	0.999999046	5.14984E-05	-0.000123978	6.67572E-06	0.059604645	-5.236792564	8.666992188	0.002574921	-0.006198883	0.000333786	-0.487304688	0.053710938	-0.776611328	891.82	-31.41158881	-0.556786226	146.9156706	-79
23395	0	0.002380371	-0.210449219	0.346130371	0.999999046	0.000110626	-0.000136375	0.00019455	0.059509277	-5.261230469	8.653259277	0.005531311	-0.006818771	0.009727478	-0.489746094	0.053955078	-0.773681641	891.76	-31.40268165	-0.554210967	146.9236519	-79
23396	0	0.001599312	-0.210312843	0.345993042	0.999999046	0.000124931	-0.000165939	0.000109673	0.039982796	-5.257821083	8.64982605	0.006246567	-0.008296967	0.005483627	-0.484863281	0.055908203	-0.776855469	891.72	-31.39207335	-0.559577591	146.9185891	-79
23397	0	0.002197266	-0.210449219	0.344482422	0.999999046	7.62939E-05	-0.000151634	-1.52588E-05	0.054931641	-5.261230469	8.612060547	0.003814697	-0.007581711	-0.000762939	-0.487304688	0.053710938	-0.773681641	891.82	-31.38695086	-0.57101241	146.9034338	-79
23398	0	0.002858162	-0.209908485	0.345611572	0.999999046	-9.15527E-05	-3.8147E-06	4.57764E-05	0.071454048	-5.247712135	8.640289307	-0.004577637	-0.000190735	0.002288818	-0.487304688	0.053710938	-0.779541016	891.78	-31.40103516	-0.564383657	146.8792802	-79
23399	0	0.002319336	-0.209960938	0.345397949	0.999999046	-0.000164032	-6.00815E-05	0.000114441	0.057983398	-5.249023438	8.63494873	-0.008201599	-0.003004074	0.005722046	-0.487304688	0.055908203	-0.776855469	891.78	-31.42350985	-0.559172414	146.8714449	-79
23400	0	0.00219059	-0.212150574	0.346059799	0.999999046	0.000174522	-0.000127792	0.000113487	0.054764748	-5.303764343	8.65149498	0.00872612	-0.006389618	0.005674362	-0.487304688	0.055908203	-0.773925781	891.82	-31.407286	-0.560646785	146.8708766	-79
23401	0	0.002502441	-0.208740234	0.346130371	0.999999046	-3.43323E-05	-0.000136375	1.90735E-05	0.062561035	-5.218505859	8.653259277	-0.001716614	-0.006818771	0.000953674	-0.487304688	0.053710938	-0.776611328	891.84	-31.41483853	-0.568622759	146.8547603	-80
23402	0	0.003112793	-0.21105957	0.346191406	0.999999046	-3.43323E-05	-0.000156403	7.62939E-05	0.077819824	-5.276489258	8.654785156	-0.001716614	-0.007820129	0.003814697	-0.487304688	0.055908203	-0.776855469	891.72	-31.42247041	-0.57518936	146.8486395	-80
23403	0	0.002197266	-0.211547852	0.346191406	0.999999046	0.000236511	4.29153E-05	0.000102997	0.054931641	-5.288696289	8.654785156	0.011825562	0.002145767	0.005149841	-0.484863281	0.053710938	-0.770996094	891.78	-31.39900699	-0.5606683	146.8334226	-80
23404	0	0.001953125	-0.20916748	0.346008301	0.999999046	0.000317574	-0.000133514	2.67029E-05	0.048828125	-5.229187012	8.65020752	0.015878678	-0.00667572	0.001335144	-0.489501953	0.051513672	-0.7734375	891.78	-31.36623035	-0.5679501	146.8218108	-80
23405	0	0.002743721	-0.209596634	0.347314835	0.999998093	-0.000119209	-9.53674E-05	2.67029E-05	0.068593025	-5.239915848	8.682870865	-0.005960465	-0.004768372	0.001335144	-0.484863281	0.051513672	-0.770751953	891.82	-31.3834276	-0.571529781	146.8043596	-80
23406	0	0.001955032	-0.210943222	0.345396996	0.999999046	-7.62939E-05	-0.0001297	0.000148773	0.048875809	-5.273580551	8.634924889	-0.003814697	-0.006484985	0.00743866	-0.487304688	0.055908203	-0.773925781	891.78	-31.39588253	-0.571171633	146.8077573	-80
23407	0	0.002685547	-0.211181641	0.34552002	0.999999046	0.00018692	-0.000132561	9.53674E-05	0.067138672	-5.279541016	8.638000488	0.009346008	-0.006628037	0.004768372	-0.487304688	0.053710938	-0.773681641	891.88	-31.37817637	-0.574307025	146.802851	-80
23408	0	0.002615929	-0.209404945	0.347367287	0.999999046	7.72476E-05	-8.01086E-05	6.86646E-05	0.065398216	-5.235123634	8.684182167	0.003862381	-0.004005432	0.003433228	-0.487304688	0.053710938	-0.770751953	891.84	-31.37290193	-0.573925137	146.795425	-79
23409	0	0.00201416	-0.210083008	0.346252441	0.999999046	-0.000255585	-6.67572E-06	0.000148773	0.050354004	-5.252075195	8.656311035	-0.012779236	-0.000333786	0.00743866	-0.487304688	0.051513672	-0.770507813	891.76	-31.40579682	-0.561568806	146.7873176	-80
23410	0	0.00165081	-0.211359978	0.345899582	0.999999046	-0.000139236	-0.000118256	5.24521E-05	0.041270256	-5.283999443	8.647489548	-0.006961823	-0.005912781	0.002622604	-0.487304688	0.053710938	-0.773681641	891.76	-31.42537392	-0.565852335	146.7763744	-80
23411	0	0.002502441	-0.210266113	0.346313477	0.999999046	0.000102997	-0.000102043	1.90735E-05	0.062561035	-5.256652832	8.657836914	0.005149841	-0.005102158	0.000953674	-0.487304688	0.053710938	-0.773681641	891.78	-31.41712658	-0.570562696	146.761491	-79
23412	0	0.002687454	-0.210195541	0.345623016	0.999999046	-4.673E-05	-0.000164032	2.67029E-05	0.067186356	-5.254888535	8.640575409	-0.002336502	-0.008201599	0.001335144	-0.487304688	0.055908203	-0.773925781	891.84	-31.42607085	-0.580904518	146.7541557	-80
23413	0	0.002075195	-0.210510254	0.346130371	0.999999046	0.000102997	-8.67844E-05	7.62939E-05	0.051879883	-5.262756348	8.653259277	0.005149841	-0.004339218	0.003814697	-0.487304688	0.055908203	-0.773925781	891.76	-31.41785132	-0.580719857	146.7472081	-80
23414	0	0.002896309	-0.210378647	0.346111298	0.999999046	-1.33514E-05	-0.000120163	-8.39233E-05	0.072407722	-5.259466171	8.65278244	-0.000667572	-0.006008148	-0.004196167	-0.487304688	0.053710938	-0.773681641	891.84	-31.42281923	-0.593402158	146.7231504	-80
23415	0	0.002380371	-0.212097168	0.34588623	0.999999046	0.000125885	-0.000132561	0.00019455	0.059509277	-5.302429199	8.647155762	0.006294251	-0.006628037	0.009727478	-0.487548828	0.055908203	-0.770996094	891.78	-31.41217823	-0.590661618	146.7338139	-80
23416	0	0.001962662	-0.210119247	0.344839096	0.999999046	3.14713E-05	-1.52588E-05	8.67844E-05	0.049066544	-5.252981186	8.620977402	0.001573563	-0.000762939	0.004339218	-0.487304688	0.053710938	-0.776611328	891.84	-31.41220123	-0.582868029	146.7172272	-80
23417	0	0.001708984	-0.210510254	0.34564209	0.999999046	-3.43323E-05	-0.000136375	6.86646E-05	0.042724609	-5.262756348	8.641052246	-0.001716614	-0.006818771	0.003433228	-0.489746094	0.056152344	-0.779541016	891.76	-31.4198236	-0.587971908	146.7101269	-80
23418	0	0.003116608	-0.210412979	0.34471035	0.999999046	4.00543E-05	-9.34601E-05	-2.00272E-05	0.077915192	-5.260324478	8.617758751	0.002002716	-0.004673004	-0.001001358	-0.485107422	0.055908203	-0.773925781	891.82	-31.41883069	-0.594218593	146.6913577	-80
23419	0	0.003295898	-0.210388184	0.344787598	0.999999046	0.000171661	-0.000121117	8.01086E-05	0.082397461	-5.25970459	8.619689941	0.008583069	-0.006055832	0.004005432	-0.487304688	0.051513672	-0.770507813	891.78	-31.40289885	-0.597235387	146.6834055	-80
23420	0	0.003163338	-0.209843636	0.345712662	0.999999046	3.52859E-05	-4.95911E-05	0.000205994	0.079083443	-5.246090889	8.642816544	0.001764297	-0.002479553	0.010299683	-0.484863281	0.053710938	-0.776855469	891.78	-31.40266382	-0.585778812	146.6774637	-80
23421	0	0.00177002	-0.210205078	0.343994141	0.999999046	-6.48499E-05	-1.43051E-05	0.0001297	0.044250488	-5.255126953	8.599853516	-0.003242493	-0.000715256	0.006484985	-0.487304688	0.053710938	-0.776611328	891.78	-31.41384098	-0.575397164	146.665473	-80
23422	0	0.002213478	-0.211288452	0.345492363	0.999999046	0.000261307	-0.000116348	-4.76837E-06	0.055336952	-5.282211304	8.637309074	0.013065338	-0.005817413	-0.000238419	-0.487304688	0.055908203	-0.776855469	891.82	-31.38760912	-0.583021335	146.6505943	-80
23423	0	0.002685547	-0.209228516	0.34564209	0.999999046	-2.28882E-05	-0.000121117	4.57764E-05	0.067138672	-5.230712891	8.641052246	-0.001144409	-0.006055832	0.002288818	-0.487304688	0.055908203	-0.773925781	891.68	-31.3939507	-0.588112616	146.643755	-80
23424	0	0.002689362	-0.211564064	0.34599781	0.999999046	-0.000123024	-0.000102997	2.28882E-05	0.067234039	-5.289101601	8.649945259	-0.006151199	-0.005149841	0.001144409	-0.487304688	0.053710938	-0.773681641	891.72	-31.41178667	-0.592814508	146.6297743	-80
23425	0	0.002624512	-0.211608887	0.34564209	0.999999046	0.000175476	-0.000136375	8.01086E-05	0.065612793	-5.290222168	8.641052246	0.008773804	-0.006818771	0.004005432	-0.487304688	0.053710938	-0.773681641	891.76	-31.39554729	-0.597374963	146.6236607	-80
23426	0	0.002380371	-0.209352493	0.34608078	0.999999046	0.000188828	-0.00022316	5.34058E-05	0.059509277	-5.233812332	8.652019501	0.009441376	-0.01115799	0.002670288	-0.489746094	0.051513672	-0.770507813	891.76	-31.37774954	-0.612016295	146.6229489	-79
23427	0	0.002807617	-0.209350586	0.34552002	0.999999046	-0.00018692	7.72476E-05	6.10352E-05	0.07019043	-5.233764648	8.638000488	-0.009346008	0.003862381	0.003051758	-0.487304688	0.053710938	-0.773681641	891.78	-31.40280127	-0.596829874	146.6021923	-80
23428	0	0.002240181	-0.211433411	0.345318794	0.999999046	-0.000142097	-4.19617E-05	1.81198E-05	0.056004524	-5.285835266	8.632969856	-0.007104874	-0.002098084	0.000905991	-0.487304688	0.055908203	-0.773925781	891.76	-31.4228021	-0.595858297	146.5875142	-80
23429	0	0.002258301	-0.211547852	0.346252441	0.999999046	0.000228882	-0.000163078	-2.67029E-05	0.05645752	-5.288696289	8.656311035	0.011444092	-0.008153916	-0.001335144	-0.484863281	0.055908203	-0.776855469	891.76	-31.40035678	-0.609399115	146.5699707	-80
23430	0	0.00299263	-0.209803581	0.345065117	0.999999046	0.000179291	-9.53674E-05	3.71933E-05	0.07481575	-5.245089531	8.626627922	0.008964539	-0.004768372	0.001859665	-0.487304688	0.058105469	-0.780029297	891.76	-31.38360446	-0.612524304	146.5586773	-80
23431	0	0.002624512	-0.209960938	0.346496582	0.999999046	-0.000202179	-7.53403E-05	3.8147E-05	0.065612793	-5.249023438	8.662414551	-0.010108948	-0.003767014	0.001907349	-0.487304688	0.053710938	-0.773681641	891.82	-31.4105226	-0.613637099	146.5450012	-80
23432	0	0.002904892	-0.211750031	0.346470833	0.999999046	-1.43051E-05	-1.71661E-05	5.62668E-05	0.072622299	-5.293750763	8.661770821	-0.000715256	-0.000858307	0.002813339	-0.487304688	0.055908203	-0.773925781	891.78	-31.41592612	-0.60799565	146.5331212	-80
23433	0	0.003417969	-0.209350586	0.346191406	0.999999046	5.72205E-05	-0.000185966	1.14441E-05	0.085449219	-5.233764648	8.654785156	0.002861023	-0.009298325	0.000572205	-0.487304688	0.055908203	-0.776855469	891.82	-31.41313569	-0.621584276	146.5237712	-80
23434	0	0.002748489	-0.211325645	0.345664978	0.999999046	0.00012207	-1.90735E-05	9.44138E-05	0.068712234	-5.283141136	8.641624451	0.006103516	-0.000953674	0.004720688	-0.487304688	0.053710938	-0.776611328	891.84	-31.40293703	-0.613900125	146.5096742	-80
23435	0	0.002502441	-0.209472656	0.34576416	0.999999046	-6.86646E-05	-0.000128746	3.05176E-05	0.062561035	-5.236816406	8.644104004	-0.003433228	-0.006437302	0.001525879	-0.487304688	0.053710938	-0.773681641	891.84	-31.41455371	-0.620752681	146.4986344	-80
23436	0	0.003250122	-0.211901665	0.345611572	0.999999046	2.76566E-05	-7.82013E-05	4.48227E-05	0.081253052	-5.297541618	8.640289307	0.001382828	-0.003910065	0.002241135	-0.487304688	0.053710938	-0.776611328	891.76	-31.41518402	-0.62183799	146.483111	-80
23437	0	0.002563477	-0.209960938	0.347351074	0.999999046	8.39233E-05	-1.04904E-05	5.72205E-05	0.064086914	-5.249023438	8.683776855	0.004196167	-0.000524521	0.002861023	-0.487304688	0.053710938	-0.770751953	891.84	-31.4092613	-0.615554029	146.47118	-80
23438	0	0.001831055	-0.211181641	0.346801758	0.999999046	4.95911E-05	2.67029E-05	0.000141144	0.045776367	-5.279541016	8.670043945	0.002479553	0.001335144	0.00705719	-0.487304688	0.053710938	-0.773681641	891.74	-31.40734557	-0.600579436	146.4624993	-80
23439	0	0.002058029	-0.210659027	0.34700489	0.999998093	-2.86102E-06	-0.000127792	-1.04904E-05	0.051450729	-5.266475677	8.675122261	-0.000143051	-0.006389618	-0.000524521	-0.487304688	0.053710938	-0.776611328	891.78	-31.41136223	-0.609747192	146.4451871	-80
23440	0	0.003129005	-0.210479736	0.347125053	0.999999046	0.000197411	-5.14984E-05	2.57492E-05	0.078225136	-5.261993408	8.678126335	0.009870529	-0.002574921	0.00128746	-0.487304688	0.053710938	-0.770751953	891.82	-31.39237528	-0.609316113	146.4334712	-80
23441	0	0.003845215	-0.210083008	0.347167969	0.999999046	9.91821E-05	-6.77109E-05	0.000148773	0.096130371	-5.252075195	8.679199219	0.004959106	-0.003385544	0.00743866	-0.487304688	0.053710938	-0.776611328	891.84	-31.38474481	-0.603191536	146.4289018	-80
23442	0	0.001876831	-0.210320473	0.346293449	0.999999046	1.90735E-06	-4.57764E-05	9.91821E-05	0.046920776	-5.258011818	8.657336235	9.53674E-05	-0.002288818	0.004959106	-0.487304688	0.055908203	-0.776855469	891.72	-31.38818339	-0.59784622	146.4215763	-80
23443	0	0.00213623	-0.211486816	0.34588623	0.999999046	0.000125885	-0.00014019	-4.57764E-05	0.053405762	-5.28717041	8.647155762	0.006294251	-0.007009506	-0.002288818	-0.487304688	0.053710938	-0.770751953	891.78	-31.3773736	-0.61036815	146.4085152	-80
23444	0	0.002374649	-0.209935188	0.34630394	0.999999046	0.000107765	-8.39233E-05	2.95639E-05	0.059366226	-5.248379707	8.657598495	0.00538826	-0.004196167	0.001478195	-0.484863281	0.055908203	-0.776855469	891.78	-31.36866474	-0.612878866	146.39396	-80
23445	0	0.002685547	-0.210754395	0.346374512	0.999999046	-0.000125885	-0.000163078	0.000106812	0.067138672	-5.268859863	8.659362793	-0.006294251	-0.008153915	0.005340576	-0.487304688	0.053710938	-0.776611328	891.76	-31.38687731	-0.618529401	146.3908672	-80
23446	0	0.002142906	-0.21163559	0.345160484	0.999999046	0.000112534	-0.000131607	1.43051E-05	0.053572655	-5.29088974	8.629012108	0.005626678	-0.006580353	0.000715256	-0.487304688	0.053710938	-0.776611328	891.92	-31.37772769	-0.626595645	146.3771004	-80
23447	0	0.002624512	-0.210144043	0.346496582	0.999999046	0.000213623	-2.57492E-05	-1.90735E-05	0.065612793	-5.253601074	8.662414551	0.010681152	-0.00128746	-0.000953674	-0.487304688	0.053710938	-0.776611328	891.76	-31.35686689	-0.626291147	146.3546196	-79
23448	0	0.002711296	-0.209630013	0.346707344	0.999999046	-0.000166893	-6.10352E-05	6.10352E-05	0.067782402	-5.240750313	8.667683601	-0.00834465	-0.003051758	0.003051758	-0.487304688	0.053710938	-0.776611328	891.88	-31.3796785	-0.624662613	146.341714	-80
23449	0	0.002563477	-0.211242676	0.345092773	0.999999046	-0.000144958	-0.000159264	0.000167847	0.064086914	-5.281066895	8.627319336	-0.007247925	-0.007963181	0.008392334	-0.489746094	0.056152344	-0.773681641	891.82	-31.40020749	-0.626263099	146.3543477	-80
23450	0	0.002114296	-0.210794449	0.344725609	0.999999046	2.09808E-05	-0.000185013	6.38962E-05	0.052857399	-5.269861221	8.618140221	0.001049042	-0.009250641	0.003194809	-0.489746094	0.053955078	-0.773681641	891.76	-31.40167688	-0.636558617	146.3543102	-80
23451	0	0.002990723	-0.210144043	0.345947266	0.999999046	0.000148773	-0.000193596	4.95911E-05	0.074768066	-5.253601074	8.648681641	0.00743866	-0.009679794	0.002479553	-0.484863281	0.053710938	-0.770996094	891.76	-31.38847945	-0.648561803	146.3494079	-80
23452	0	0.002737999	-0.21016407	0.34576416	0.999999046	2.38419E-05	3.05176E-05	0.000105858	0.068449974	-5.254101753	8.644104004	0.001192093	0.001525879	0.005292892	-0.484863281	0.053710938	-0.776855469	891.82	-31.38951079	-0.635280342	146.331099	-79
23453	0	0.002563477	-0.211364746	0.34564209	0.999999046	2.67029E-05	-9.05991E-05	0.000125885	0.064086914	-5.284118652	8.641052246	0.001335144	-0.004529953	0.006294251	-0.487304688	0.053710938	-0.773681641	891.82	-31.39035854	-0.632642077	146.3283432	-80
23454	0	0.00336647	-0.210126877	0.344737053	0.999999046	5.14984E-05	-0.000185013	0.000105858	0.084161758	-5.253171921	8.618426323	0.002574921	-0.009250641	0.005292892	-0.487304688	0.055908203	-0.776855469	891.88	-31.38842319	-0.640469082	146.3293586	-80
23455	0	0.002319336	-0.211120605	0.34552002	0.999999046	9.91821E-05	-5.62668E-05	6.10352E-05	0.057983398	-5.278015137	8.638000488	0.004959106	-0.002813339	0.003051758	-0.487304688	0.053710938	-0.770751953	891.82	-31.38092599	-0.638353451	146.3211456	-80
23456	0	0.002943039	-0.209771156	0.344889641	0.999999046	-0.000103951	-0.000137329	2.28882E-05	0.073575974	-5.244278908	8.62224102	-0.005197525	-0.006866455	0.001144409	-0.487548828	0.055908203	-0.770996094	891.84	-31.39671487	-0.646454648	146.3171283	-79
23457	0	0.003234863	-0.211730957	0.346618652	0.999999046	-8.7738E-05	-7.15256E-05	0.000205994	0.080871582	-5.293273926	8.665466309	-0.004386902	-0.003576279	0.010299683	-0.487304688	0.053710938	-0.776611328	891.84	-31.4108479	-0.637208988	146.3170687	-79
23458	0	0.002465248	-0.210022926	0.346092224	0.999999046	-0.00012207	-1.52588E-05	0.000236511	0.061631203	-5.250573158	8.652305603	-0.006103516	-0.000762939	0.011825562	-0.484863281	0.053710938	-0.776855469	891.78	-31.4288792	-0.620620624	146.3130058	-79
23459	0	0.004516602	-0.211914063	0.348510742	0.999999046	-0.000511169	-3.71933E-05	0.000617981	0.112915039	-5.297851563	8.712768555	-0.025558474	-0.001859665	0.030899051	-0.487304688	0.055908203	-0.773925781	891.82	-31.49186858	-0.583447793	146.3552543	-79
23460	0	0.008775711	-0.181352615	0.36352253	0.999962807	-0.007746696	0.0004673	0.003604889	0.219392776	-4.533815384	9.08806324	-0.387339551	0.023365306	0.180246646	-0.485107422	0.058105469	-0.777099609	891.76	-32.38417229	-0.316075481	146.6312164	-80
23461	0	0.030944824	-0.233581543	0.394897461	0.998697281	-0.047190666	0.007736206	0.017753601	0.773620605	-5.839538574	9.872436523	-2.36055776	0.386978246	0.888065462	-0.483886719	0.087402344	-0.773681641	891.82	-37.78382928	1.579992218	147.6671666	-81
23462	0	-0.003612518	-0.428079605	0.386766434	0.998250008	-0.052021027	0.011331558	0.025705338	-0.090312958	-10.70199013	9.669160843	-2.602568986	0.566908497	1.286016801	-0.462402344	0.196777344	-0.763671875	891.76	-43.684113	4.485789528	148.9552262	-81
23463	0	0.034057617	-0.493041992	0.351257324	0.99894619	-0.020698547	0.015755653	0.037799835	0.85144043	-12.3260498	8.781433105	-1.035290886	0.788059377	1.890655618	-0.430664063	0.290039063	-0.755859375	891.78	-45.86176208	8.814107424	150.7417538	-82
23464	0	-0.036456108	-0.45174408	0.319340706	0.998604774	0.007838249	0.018266678	0.048918724	-0.911402702	-11.29360199	7.983517647	0.392094808	0.913758845	2.447074238	-0.375244141	0.346435547	-0.760742188	891.78	-44.47752073	14.26104412	153.2982164	-87
23465	0	-0.063537598	-0.393432617	0.266479492	0.998146057	0.014744759	0.01568222	0.056930542	-1.588439941	-9.83581543	6.661987305	0.737693865	0.784595945	2.848287494	-0.305908203	0.361572266	-0.792236328	891.82	-41.71859641	20.02703293	157.01324	-86
23466	0	-0.099009514	-0.395657539	0.261124611	0.997336388	0.034547806	0.011363983	0.063211441	-2.475237846	-9.891438484	6.528115273	1.728925118	0.568704016	3.163380297	-0.238525391	0.368164063	-0.813964844	891.76	-35.74900858	25.57362541	162.3320253	-82
23467	0	-0.14239502	-0.332763672	0.260253906	0.996480942	0.050057411	0.006671906	0.066898346	-3.559875488	-8.319091797	6.506347656	2.505810579	0.333987136	3.348846434	-0.173583984	0.327392578	-0.849365234	891.76	-26.7762685	30.20821463	169.3957223	-73
23468	0	-0.12644577	-0.262770653	0.213163376	0.994936943	0.070485115	0.00261116	0.071585655	-3.161144257	-6.569266319	5.329084396	3.530215065	0.13077878	3.585335121	-0.124267578	0.255859375	-0.878173828	891.78	-14.01457774	33.35513146	178.4905072	-67
23469	0	-0.117858887	-0.201965332	0.182495117	0.9874506	0.134944916	0.003300667	0.0819664	-2.946472168	-5.049133301	4.56237793	6.775610797	0.165727131	4.115549094	-0.086669922	0.126464844	-0.918945313	891.82	7.774814293	34.25558114	-169.8261677	-72
23470	0	-0.110516548	0.041426659	0.199468613	0.993192673	0.098841667	0.014090538	0.059991837	-2.762913704	1.035666466	4.986715317	4.953327212	0.706129787	3.006416272	-0.080566406	-0.125244141	-0.924560547	891.72	23.86858685	33.95071391	-161.1121571	-69
23471	0	-0.155212402	0.098815918	0.247253418	0.99561882	0.049584389	0.019374847	0.076869965	-3.880310059	2.470397949	6.181335449	2.482846355	0.970159571	3.84912099	-0.065673828	-0.253662109	-0.899902344	891.76	35.1707687	31.55643621	-150.6133671	-69
23472	0	-0.175016403	0.103078842	0.233406067	0.996221542	0.032011032	0.016200066	0.079081535	-4.37541008	2.576971054	5.835151672	1.602570099	0.811024795	3.959063348	-0.080322266	-0.315917969	-0.876220703	891.82	43.43388691	27.26949901	-141.1733994	-75
23473	0	-0.129760742	0.1171875	0.237304688	0.995388985	0.045433044	0.013836861	0.083332062	-3.244018555	2.9296875	5.932617188	2.275149865	0.692908258	4.173018372	-0.107910156	-0.350585938	-0.860107422	891.72	52.05253183	21.28699511	-132.7323049	-85
23474	0	-0.101131439	0.228329659	0.198460579	0.994847298	0.054950714	0.015623093	0.083751678	-2.52828598	5.708241463	4.961514473	2.752264139	0.782498978	4.19479064	-0.149169922	-0.411865234	-0.823486328	891.76	60.53221091	14.31975728	-125.4572831	-70
23475	0	0.02545166	0.263977051	0.174865723	0.995865822	0.035888672	0.018860817	0.08127594	0.636291504	6.59942627	4.371643066	1.796909996	0.944342288	4.069405227	-0.195800781	-0.459228516	-0.784667969	891.76	65.78336354	7.008390199	-119.1468832	-76
23476	0	0.20288372	0.497177124	0.082744598	0.994335175	0.022958755	0.036812782	0.097022057	5.07209301	12.4294281	2.06861496	1.150109935	1.844122024	4.860282223	-0.239257813	-0.464355469	-0.761474609	891.76	68.79033567	-1.620977315	-110.9291549	-72
23477	0	0.130981445	0.44317627	-0.040466309	0.997764587	0.024567604	0.023742676	0.057422638	3.274536133	11.07940674	-1.011657715	1.229296091	1.188018923	2.87327263	-0.264404297	-0.434326172	-0.774169922	891.84	71.2407121	-6.858431094	-106.0877864	-70
23478	0	0.151260376	0.403805733	0.031937599	0.996204376	0.067597389	0.016989708	0.052138329	3.781509399	10.09514332	0.79843998	3.384151987	0.850561754	2.610219569	-0.285400391	-0.460449219	-0.744628906	891.78	78.42048779	-12.10195726	-102.5689234	-76
23479	0	0.1328125	0.390136719	0.062927246	0.993873596	0.104237556	0.00901413	0.035614014	3.3203125	9.753417969	1.573181152	5.222547159	0.451629132	1.784345991	-0.309326172	-0.544433594	-0.677734375	891.76	90.0263003	-16.04499108	-101.0598787	-73
23480	0	0.102164268	0.461800575	-0.019155502	0.999368668	0.030714035	0.017848015	-0.00020504	2.554106712	11.54501438	-0.478887558	1.536024931	0.892588542	-0.010254156	-0.325927734	-0.6484375	-0.571777344	891.76	92.95100673	-16.05947035	-98.98954628	-70
23481	0	0.00213623	0.364196777	-0.07409668	0.998446465	-0.055130005	-0.004981041	-0.006256104	0.053405762	9.104919434	-1.852416992	-2.757927931	-0.24918104	-0.312967188	-0.303955078	-0.651611328	-0.581298828	891.78	86.78658746	-15.32360312	-99.58864613	-70
23482	0	0.12629509	0.361034393	-0.038824081	0.998042107	-0.060811996	0.010185242	0.010473251	3.157377243	9.025859833	-0.970602036	-3.042585552	0.509594669	0.524004556	-0.30859375	-0.566650391	-0.661376953	891.82	79.44244635	-16.35584097	-98.25311573	-74
23483	0	0.026916504	0.334472656	0.023132324	0.999743462	0.000419617	0.010426521	0.020069122	0.672912598	8.361816406	0.578308105	0.020982625	0.521370532	1.003541707	-0.308349609	-0.497558594	-0.713867188	891.88	78.99022944	-18.36888284	-96.58642877	-84
23484	0	0.088046074	0.335559845	0.042375565	0.999341965	0.025196075	0.011458397	0.023412704	2.201151848	8.388996124	1.059389114	1.260079894	0.573045417	1.170891801	-0.317871094	-0.499511719	-0.713134766	891.76	81.25771299	-20.76388024	-94.75027251	-77
23485	0	0.099731445	0.361999512	0.01953125	0.999648094	0.002113342	0.011467934	0.023803711	2.493286133	9.049987793	0.48828125	0.105679492	0.573463848	1.190324961	-0.326904297	-0.519287109	-0.693603516	891.78	80.80799696	-23.2294577	-92.90329778	-76
23486	0	0.113028526	0.355769157	-0.008398056	0.998422623	-0.049395561	0.009711266	0.024827003	2.825713158	8.894228935	-0.209951401	-2.471076788	0.48581861	1.242002935	-0.335449219	-0.483154297	-0.716552734	891.78	74.37812021	-25.74367427	-91.01593563	-85
23487	0	0.142271042	0.290704727	0.045758247	0.996688843	-0.077031136	0.003505707	0.025785446	3.556776047	7.267618179	1.143956184	-3.85581321	0.175479051	1.290697109	-0.34375	-0.37109375	-0.781005859	891.78	64.83243491	-28.34832364	-89.38703867	-84
23488	0	0.186340332	0.276977539	0.168640137	0.996567726	-0.078738213	0.000164032	0.025543213	4.658508301	6.924438477	4.216003418	-3.941420625	0.008210995	1.278623718	-0.361328125	-0.22265625	-0.830566406	891.76	54.964777	-30.8472447	-87.64167389	-76
23489	0	0.216364861	0.245817184	0.230708122	0.997349739	-0.068904877	-0.002512932	0.023182869	5.409121513	6.145429611	5.767703056	-3.448289593	-0.125757669	1.160168185	-0.370117188	-0.069824219	-0.8515625	891.76	46.15580272	-33.05923606	-85.89262037	-79
23490	0	0.24816227	0.224382401	0.242074013	0.997929573	-0.059928894	-0.003646851	0.023050308	6.20405674	5.609560013	6.051850319	-2.99851415	-0.182468461	1.153311378	-0.378173828	0.060546875	-0.853515625	891.82	38.15675426	-35.12162196	-83.85799989	-76
23491	0	0.284851074	0.186523438	0.267700195	0.997977257	-0.058349609	-0.003630638	0.024944305	7.121276855	4.663085938	6.692504883	-2.919448523	-0.181654363	1.248056609	-0.37890625	0.177490234	-0.828125	891.66	29.91788314	-37.04980478	-81.21849272	-75
23492	0	0.301086426	0.08972168	0.27154541	0.997613907	-0.06174469	-0.004515648	0.030555725	7.527160645	2.243041992	6.788635254	-3.089692297	-0.225962144	1.529002552	-0.375244141	0.301269531	-0.797851563	891.78	20.53769423	-38.99937766	-77.48507523	-74
23493	0	0.322983742	0.006075859	0.293043137	0.998044968	-0.051728249	-0.004905701	0.034684181	8.074593544	0.151896477	7.326078415	-2.588097797	-0.245444868	1.735339112	-0.362060547	0.422363281	-0.750244141	891.72	11.55080636	-40.63296105	-72.7433553	-73
23494	0	0.344647408	0.005442619	0.299209595	0.998486519	-0.041099548	-0.001407623	0.036493301	8.616185188	0.136065483	7.480239868	-2.056014165	-0.070416672	1.825585624	-0.3359375	0.518310547	-0.701416016	891.76	3.250426031	-41.33054456	-67.32675065	-74
23495	0	0.349304199	0.022338867	0.33203125	0.998262405	-0.04620266	0.003875732	0.03635788	8.73260498	0.55847168	8.30078125	-2.311471717	0.193898922	1.818947463	-0.297363281	0.607177734	-0.655517578	891.76	-5.671809133	-40.79940489	-61.86582339	-69
23496	0	0.284492493	0.05874157	0.342060089	0.999351501	-0.01955986	0.004000664	0.029911995	7.112312317	1.468539238	8.551502228	-0.978203944	0.200076331	1.495922316	-0.243652344	0.675292969	-0.605712891	891.72	-10.73308882	-39.85835835	-57.58190619	-72
23497	0	0.283325195	0.018127441	0.247375488	0.998333931	-0.050678253	0.004612923	0.027172089	7.083129883	0.453186035	6.184387207	-2.535320197	0.230774253	1.359359109	-0.200195313	0.716552734	-0.576660156	891.82	-18.88107283	-38.55795417	-53.89167796	-69
23498	0	0.242004395	-0.151672363	0.216491699	0.997445107	-0.067588806	-0.006679535	0.022132874	6.050109863	-3.791809082	5.41229248	-3.382320987	-0.334261432	1.107586995	-0.159912109	0.796875	-0.48046875	891.82	-28.71407855	-38.24529116	-50.53531957	-68
23499	0	0.256225586	-0.234680176	0.226623535	0.999221802	-0.029860497	-0.01361084	0.021873474	6.405639648	-5.867004395	5.665588379	-1.493412127	-0.68071853	1.093957413	-0.130615234	0.854980469	-0.381835938	891.82	-34.46861038	-38.27294724	-46.81499831	-67
23500	0	0.253684998	-0.21015358	0.309556007	0.99954319	-0.01759243	-0.009084702	0.022791862	6.342124939	-5.253839493	7.738900185	-0.879755189	-0.454304111	1.139766318	-0.098876953	0.87890625	-0.330078125	891.76	-38.60641689	-37.5650438	-43.41725271	-67
23501	0	0.23626709	-0.194030762	0.290710449	0.999698639	0.0042696	-0.005474091	0.023509979	5.906677246	-4.850769043	7.26776123	0.213501382	-0.273731948	1.175616723	-0.066162109	0.893554688	-0.3125	891.82	-39.9870072	-36.35340287	-40.37146547	-68
23502	0	0.225976944	-0.203847885	0.262681961	0.99973011	-0.004482269	-0.004026413	0.022400856	5.649423599	-5.096197128	6.567049026	-0.224133569	-0.201338708	1.120143275	-0.027832031	0.89453125	-0.312011719	891.72	-42.11096072	-35.024025	-37.65715652	-69
23503	0	0.212219238	-0.199279785	0.268310547	0.999773979	-0.001277924	-0.005759239	0.020423889	5.305480957	-4.981994629	6.707763672	-0.063900993	-0.287983654	1.021271393	0.010253906	0.899902344	-0.302734375	891.88	-43.74319721	-33.92095943	-35.07134503	-70
23504	0	0.20515728	-0.214726448	0.284298897	0.999769211	-0.003166199	-0.008755684	0.019348145	5.128931999	-5.368161201	7.10747242	-0.158322104	-0.437817841	0.967481577	0.043701172	0.901123047	-0.301757813	891.84	-45.61515993	-33.08191643	-32.36445222	-70
23505	0	0.195800781	-0.285827637	0.32421875	0.999679565	0.012242317	-0.012184143	0.018505096	4.895019531	-7.145690918	8.10546875	0.612181249	-0.609272232	0.925353662	0.070068359	0.90234375	-0.300537109	891.82	-45.8080443	-32.54190294	-29.45261392	-69
23506	0	0.184397697	-0.243611336	0.324406624	0.999032021	0.035684586	-0.01587677	0.020195961	4.609942436	-6.090283394	8.110165596	1.784804699	-0.794094517	1.010123714	0.09765625	0.889892578	-0.3359375	891.82	-43.56458475	-32.20775287	-26.03932639	-68
23507	0	0.170715332	-0.182617188	0.239929199	0.998854637	0.037948608	-0.019370079	0.02173233	4.267883301	-4.565429688	5.99822998	1.89815459	-0.968873589	1.087031232	0.121826172	0.859375	-0.407958984	891.72	-41.30441231	-32.16461612	-22.14081303	-67
23508	0	0.140351295	-0.16629982	0.223925591	0.999172211	0.026901245	-0.018240929	0.024432182	3.508782387	-4.157495499	5.598139763	1.345433173	-0.91229794	1.221945989	0.141357422	0.826904297	-0.470458984	891.82	-40.39136293	-31.91213183	-18.06352402	-67
23509	0	0.140136719	-0.1796875	0.231018066	0.999522209	0.011295319	-0.009692192	0.027080536	3.503417969	-4.4921875	5.77545166	0.564855849	-0.484686761	1.354242376	0.164794922	0.801025391	-0.516357422	891.82	-40.95860019	-30.72768171	-14.48448898	-68
23510	0	0.152282715	-0.171569824	0.213928223	0.999551773	-0.0007658	-0.001952171	0.029838562	3.807067871	-4.289245605	5.348205566	-0.038295736	-0.097623128	1.492150671	0.204345703	0.783691406	-0.528808594	891.74	-42.57359398	-28.61284296	-11.39574302	-69
23511	0	0.145054817	-0.198604584	0.145659447	0.998407364	-0.045308113	0.002836227	0.033435822	3.62637043	-4.965114594	3.641486168	-2.266607596	0.141886611	1.672678068	0.251953125	0.784423828	-0.513916016	891.78	-49.01256445	-25.63724015	-8.655321429	-69
23512	0	0.094845772	-0.345537186	0.089729309	0.99747467	-0.057491302	0.001032829	0.041687965	2.371144295	-8.638429642	2.243232727	-2.876987275	0.051684978	2.086154614	0.311035156	0.821289063	-0.415283203	891.84	-56.83578241	-21.75020244	-5.617714411	-69
23513	0	0.171630859	-0.292419434	0.226318359	0.996850967	-0.06396389	0.00655365	0.046401978	4.290771484	-7.31048584	5.657958984	-3.201555449	0.328026853	2.322537042	0.390136719	0.837402344	-0.318603516	891.78	-64.8563582	-16.73899034	-3.575832466	-69
23514	0	0.106383324	-0.393216133	0.164903641	0.997786522	-0.04617691	0.010557175	0.046661377	2.659583092	-9.830403328	4.122591019	-2.310550165	0.528248458	2.334791377	0.474609375	0.830810547	-0.194335938	891.78	-70.3890535	-11.33297836	-2.64306206	-68
23515	0	0.079711914	-0.392272949	0.099853516	0.997727394	-0.04486084	0.00747776	0.049701691	1.992797852	-9.80682373	2.496337891	-2.244742205	0.374171421	2.486968213	0.556396484	0.797119141	-0.114257813	891.9	-75.67056734	-5.635137926	-1.801254462	-67
23516	0	0.088575363	-0.450922012	0.113399506	0.99790287	-0.038126945	0.004875183	0.052073479	2.214384079	-11.27305031	2.83498764	-1.907680763	0.243929665	2.605495203	0.641113281	0.743408203	-0.026611328	891.78	-80.08724269	0.313838887	-1.104114752	-66
23517	0	0.03338623	-0.39276123	0.050476074	0.998483658	-0.025931358	0.006198883	0.048160553	0.834655762	-9.819030762	1.261901855	-1.297223643	0.310100904	2.409245485	0.717529297	0.678222656	0.024169922	891.82	-83.0663095	5.871604272	-1.007863531	-66
23518	0	-0.022788048	-0.341460228	0.041688919	0.9985466	-0.032691002	0.009030342	0.041870117	-0.569701195	-8.536505699	1.042222977	-1.635342076	0.451735877	2.094520217	0.77734375	0.604736328	0.079589844	891.78	-86.91600224	10.73418046	-1.635362831	-64
23519	0	-0.099121094	-0.395446777	0.04119873	0.998943329	-0.024222374	0.014812469	0.036125183	-2.478027344	-9.886169434	1.029968262	-1.211545248	0.740884318	1.806895311	0.824951172	0.536132813	0.138183594	891.84	-90.0653026	14.91010105	-3.27249221	-63
23520	0	-0.146666527	-0.43303299	0.003295898	0.99909687	-0.016564369	0.020923615	0.033039093	-3.66666317	-10.82582474	0.082397461	-0.828467647	1.04649549	1.652451675	0.858154297	0.468017578	0.188964844	891.78	-92.72555997	18.63085782	-5.880670224	-63
23521	0	-0.125915527	-0.435180664	-0.028015137	0.999035835	-0.021011353	0.025177956	0.029178619	-3.147888184	-10.8795166	-0.700378418	-1.050905292	1.259302406	1.459399887	0.876708984	0.402587891	0.245849609	891.9	-96.3006153	21.72980908	-9.233649127	-63
23522	0	-0.084283829	-0.458971977	-0.042988777	0.99924469	-0.019618034	0.025679588	0.021549225	-2.107095718	-11.47429943	-1.074719429	-0.98114853	1.284302487	1.07773235	0.885498047	0.344482422	0.302978516	891.82	-99.92806506	23.74588436	-12.77788767	-64
23523	0	-0.110717773	-0.382080078	-0.053405762	0.999643326	-0.009135246	0.021793365	0.012428284	-2.767944336	-9.552001953	-1.335144043	-0.4568166	1.08979778	0.621488039	0.881591797	0.300048828	0.365478516	891.78	-102.2088913	24.64709725	-15.77181275	-64
23524	0	-0.139832497	-0.360827446	-0.064961433	0.999760628	-0.019221306	0.009731293	0.003694534	-3.495812416	-9.02068615	-1.624035835	-0.961141843	0.486603392	0.184741429	0.869873047	0.273925781	0.403320313	891.88	-104.9643073	24.7778903	-17.08059807	-65
23525	0	-0.136291504	-0.399841309	-0.055908203	0.999547958	-0.029597282	-0.004703522	-0.00233078	-3.407287598	-9.996032715	-1.397705078	-1.480087068	-0.235211517	-0.116556558	0.865722656	0.251708984	0.428710938	891.82	-108.0884767	24.65408351	-16.43274803	-65
23526	0	-0.140710831	-0.300093651	-0.029950142	0.999930382	0.005498886	-0.009841919	-0.003470421	-3.517770767	-7.50234127	-0.748753548	0.274950682	-0.49210736	-0.173525066	0.871337891	0.229248047	0.433349609	891.82	-106.9118295	24.59322551	-15.12140836	-64
23527	0	-0.143737793	-0.131652832	-0.071411133	0.999927521	0.005013466	-0.007949829	-0.007518768	-3.593444824	-3.291320801	-1.78527832	0.250679347	-0.397501053	-0.375947493	0.878173828	0.246826172	0.407958984	891.82	-105.8363531	24.00636459	-13.89912488	-64
23528	0	-0.144036293	-0.246136665	-0.033011436	0.999749184	-0.016947746	-0.00797081	-0.012229919	-3.600907326	-6.153416634	-0.825285912	-0.847457992	-0.398573738	-0.611546975	0.880371094	0.255615234	0.404296875	891.84	-107.2272343	22.90727972	-12.51230545	-64
23529	0	0.031555176	-0.432128906	-0.218933105	0.999316216	-0.013843536	0.013215065	-0.031635284	0.788879395	-10.80322266	-5.473327637	-0.692334625	0.660903892	-1.582124841	0.875	0.264892578	0.406738281	891.88	-108.9406897	18.96404732	-12.85135232	-67
23530	0	-0.235412598	-0.603820801	-0.184631348	0.99825573	0.02759552	0.008102417	-0.051548004	-5.885314941	-15.09552002	-4.615783691	1.380578532	0.405356484	-2.578899324	0.8359375	0.313720703	0.460205078	891.84	-105.5304502	13.01937824	-11.95875349	-67
23531	0	-0.120811462	-0.486896515	-0.060931206	0.998952866	0.030539513	0.000265121	-0.034021378	-3.02028656	-12.17241287	-1.523280144	1.527508077	0.013260695	-1.701662028	0.797851563	0.433837891	0.426025391	891.78	-101.853651	9.199526703	-11.0525188	-65
23532	0	-0.058283806	-0.461860657	-0.119996071	0.999973297	-0.006277084	0.000390053	-0.00357151	-1.457095146	-11.54651642	-2.999901772	-0.313856954	0.01950281	-0.178577073	0.771972656	0.477294922	0.420898438	891.78	-102.5683356	8.765448797	-11.01321506	-67
23533	0	-0.048156738	-0.342285156	-0.047485352	0.999979973	-0.005584717	0.001854897	0.00195694	-1.203918457	-8.557128906	-1.187133789	-0.27923763	0.092745422	0.097847612	0.769775391	0.470703125	0.424560547	891.76	-103.2490564	8.911962445	-11.27732064	-68
23534	0	-0.037802696	-0.377432823	-0.099209785	0.999991417	0.001848221	0.00302124	-0.002020836	-0.945067406	-9.43582058	-2.480244637	0.092411297	0.15106243	-0.101042074	0.769775391	0.468505859	0.430419922	891.82	-103.0823309	8.582196441	-11.56907212	-69
23535	0	-0.033996582	-0.368347168	-0.063842773	0.999933243	-0.003085136	0.010940552	0.002006531	-0.849914551	-9.208679199	-1.596069336	-0.154260246	0.547039736	0.100328766	0.764648438	0.46875	0.439453125	891.78	-103.6270826	8.490190524	-12.85952233	-68
23536	0	-0.073979378	-0.35081768	-0.074467659	0.99991703	0.000844002	0.011638641	-0.005311012	-1.849484444	-8.770442009	-1.861691475	0.042201245	0.581948012	-0.265557889	0.754882813	0.464599609	0.4609375	891.82	-103.6922424	7.55914006	-14.02687574	-68
23537	0	-0.013366699	-0.436767578	-0.079223633	0.999786377	-0.007342339	0.012954712	-0.014305115	-0.33416748	-10.91918945	-1.98059082	-0.367143021	0.647781634	-0.715306574	0.737304688	0.478759766	0.475341797	891.82	-104.6512119	5.579643864	-15.07462429	-72
23538	0	-0.179101944	-0.393585205	-0.027018547	0.999339104	-0.00151062	0.034582138	-0.01104641	-4.477548599	-9.839630127	-0.675463676	-0.075547635	1.729487599	-0.552442084	0.707519531	0.489013672	0.502441406	891.82	-105.0912384	3.319290088	-18.59280065	-78
23539	0	-0.116088867	-0.43170166	-0.109130859	0.998299599	-0.050163269	0.026932716	-0.012485504	-2.90222168	-10.7925415	-2.728271484	-2.509585923	1.347399545	-0.624629257	0.650634766	0.498291016	0.572021484	891.82	-110.9317591	0.99009493	-21.08895708	-72
23540	0	0.145420074	-0.348371506	-0.144759178	0.996801376	-0.077577591	0.018694878	-0.004089355	3.635501862	-8.709287643	-3.618979454	-3.883018904	0.935741396	-0.204685972	0.613525391	0.432861328	0.652587891	891.82	-119.8354692	-0.372970235	-22.82398485	-72
23541	0	0.139770508	-0.311706543	-0.193054199	0.99924469	-0.036635399	-0.000434875	0.012916565	3.494262695	-7.792663574	-4.82635498	-1.832231001	-0.021749247	0.645990803	0.594970703	0.330810547	0.735351563	891.82	-124.032884	0.881723177	-23.56803158	-72
23542	0	-0.01712513	-0.363316536	-0.201892853	0.999519348	-0.022976875	-0.009203911	0.018621445	-0.428128242	-9.082913399	-5.04732132	-1.149027546	-0.460269159	0.931221179	0.609130859	0.278808594	0.735839844	891.88	-126.6730227	3.20573747	-23.94336862	-76
23543	0	-0.040527344	-0.348022461	-0.178405762	0.998420715	-0.054331779	-0.004394531	0.013568878	-1.013183594	-8.700561523	-4.460144043	-2.718019646	-0.21984228	0.678801206	0.633544922	0.208251953	0.746337891	891.92	-132.9345546	4.697401089	-24.55010674	-72
23544	0	0.010008812	-0.262804031	-0.229075432	0.997481346	-0.068114281	-0.00677681	0.018537521	0.250220299	-6.570100784	-5.726885796	-3.408575139	-0.339125141	0.927654727	0.640380859	0.102783203	0.763671875	891.82	-140.8383859	6.689846676	-25.57005122	-73
23545	0	-0.061401367	-0.21673584	-0.32989502	0.998661041	-0.045290947	-0.010139465	0.022827148	-1.53503418	-5.418395996	-8.247375488	-2.265558235	-0.507199578	1.141866921	0.655517578	-0.023681641	0.758789063	891.82	-146.219448	9.154854162	-26.99112756	-76
23546	0	-0.141221046	-0.182676315	-0.353210449	0.99961853	-0.020308495	-0.008700371	0.0165205	-3.530526161	-4.566907883	-8.83026123	-1.015553572	-0.435073737	0.826129821	0.671142578	-0.102783203	0.744140625	891.88	-148.7286331	10.99369343	-28.06163813	-78
23547	0	-0.129699707	-0.196899414	-0.27557373	0.999597549	-0.026877403	-0.008548737	0.002826691	-3.242492676	-4.922485352	-6.889343262	-1.344050187	-0.427494088	0.141353467	0.680664063	-0.150390625	0.729980469	891.78	-151.7590641	11.98882378	-27.84483095	-81
23548	0	-0.047462463	-0.189302444	-0.220849991	0.999546051	-0.020523071	-0.013054848	-0.017748833	-1.186561584	-4.732561111	-5.521249771	-1.026308688	-0.652841061	-0.887575789	0.696777344	-0.180175781	0.711181641	891.82	-153.5619789	12.36700831	-25.28528499	-82
23549	0	0.010986328	-0.130554199	-0.26965332	0.998873711	-0.032665253	-0.009543419	-0.033061981	0.274658203	-3.26385498	-6.741333008	-1.633876053	-0.47735016	-1.653719929	0.721191406	-0.181396484	0.686523438	891.84	-156.4653469	11.73666824	-21.29156994	-83
23550	0	-0.05241394	-0.110691071	-0.352438927	0.999080658	-0.027569771	0.001635551	-0.032763481	-1.310348511	-2.767276764	-8.810973167	-1.378910756	0.08180262	-1.638675811	0.740966797	-0.182128906	0.665039063	891.82	-158.9622113	10.11640074	-17.8160371	-82
23551	0	-0.058227539	-0.102722168	-0.41809082	0.999709129	-0.002174377	0.006497383	-0.02312088	-1.455688477	-2.568054199	-10.45227051	-0.108729412	0.32490065	-1.156156079	0.747558594	-0.168945313	0.666503906	891.84	-158.8478644	8.444659102	-15.57439246	-82
23552	0	-0.044921875	-0.109924316	-0.400512695	0.999546051	0.025863647	0.003804207	-0.014949799	-1.123046875	-2.74810791	-10.01281738	1.293377917	0.190239104	-0.747602958	0.743408203	-0.1328125	0.675292969	891.76	-155.6871566	7.35646621	-14.14223247	-79
23553	0	-0.056653976	-0.16055584	-0.35322094	0.999239922	0.037786484	0.000542641	-0.009439468	-1.416349411	-4.013895988	-8.830523491	1.889802267	0.0271389	-0.472092848	0.740478516	-0.072021484	0.685058594	891.88	-151.2394295	6.793661329	-13.18866638	-81
23554	0	-0.049126625	-0.189977646	-0.338859558	0.999205589	0.039113998	-0.000774384	-0.007474899	-1.228165627	-4.749441147	-8.471488953	1.95621737	-0.038729422	-0.373843852	0.742431641	-0.004638672	0.682128906	891.76	-146.666283	6.403967461	-12.39785516	-79
23555	0	-0.037780762	-0.215698242	-0.321594238	0.999243736	0.038219452	-0.001364708	-0.007003784	-0.944519043	-5.392456055	-8.039855957	1.911454374	-0.0682526	-0.350277496	0.742431641	0.055908203	0.674072266	891.82	-142.2050618	6.040020143	-11.64457675	-80
23556	0	-0.032223701	-0.243058205	-0.284377098	0.999491692	0.030823708	-0.002195358	-0.007803917	-0.805592537	-6.076455116	-7.109427452	1.541446427	-0.109786506	-0.390261938	0.744873047	0.116210938	0.663085938	891.84	-138.5855429	5.638991838	-10.7862709	-81
23557	0	-0.024414063	-0.273742676	-0.257507324	0.999697685	0.023006439	-0.002257347	-0.008312225	-0.610351563	-6.843566895	-6.437683105	1.150437692	-0.112878711	-0.415653081	0.745361328	0.163330078	0.653320313	891.82	-135.8649903	5.156650885	-9.903677041	-81
23558	0	-0.019022942	-0.300410271	-0.248076439	0.999930382	0.011318207	-0.000408173	-0.003062248	-0.47557354	-7.510256767	-6.201910973	0.565923323	-0.020409099	-0.153115924	0.743652344	0.203857422	0.646972656	891.78	-134.5400899	4.916627048	-9.616620146	-82
23559	0	-0.019287109	-0.296142578	-0.244995117	0.999915123	-0.012634277	-0.000971794	0.0027771	-0.482177734	-7.403564453	-6.12487793	-0.631731586	-0.048591069	0.138858875	0.745849609	0.212646484	0.637451172	891.9	-135.9964697	5.19340011	-9.759917052	-82
23560	0	-0.026641846	-0.270019531	-0.273158073	0.999773979	-0.020596504	-0.001506805	0.004968643	-0.666046143	-6.750488281	-6.828951836	-1.029902665	-0.075345937	0.248450844	0.744628906	0.185791016	0.642578125	891.82	-138.3808336	5.680762823	-10.05688707	-83
23561	0	-0.035949707	-0.244506836	-0.288452148	0.999894142	-0.01335144	-0.001162529	0.005535126	-0.898742676	-6.112670898	-7.211303711	-0.667595417	-0.058128487	0.276765986	0.750732422	0.149658203	0.654052734	891.84	-139.9475651	6.170497923	-10.44759323	-84
23562	0	-0.045520782	-0.232481956	-0.288929939	0.999979973	-0.004482269	0.000165939	0.004451752	-1.138019562	-5.812048912	-7.223248482	-0.224114956	0.008297022	0.222589067	0.751708984	0.129394531	0.652832031	891.82	-140.5023499	6.457187697	-10.8499311	-86
23563	0	-0.045532227	-0.234924316	-0.286193848	0.999998093	0.000596046	0.001113892	0.001022339	-1.138305664	-5.87310791	-7.154846191	0.029802336	0.055694605	0.051116966	0.754150391	0.122802734	0.659179688	891.88	-140.4499924	6.408781428	-11.01831236	-86
23564	0	-0.038482666	-0.241172791	-0.290021896	0.999988556	0.003540039	0.000723839	-0.002949715	-0.96206665	-6.029319763	-7.250547409	0.177002595	0.036192072	-0.147486268	0.754150391	0.125	0.656005859	891.88	-140.0184257	6.104410707	-10.80598705	-85
23565	0	-0.032043457	-0.249816895	-0.294372559	0.999974251	0.005981445	-0.000304222	-0.003715515	-0.801086426	-6.245422363	-7.359313965	0.299074742	-0.015211231	-0.185777295	0.748779297	0.134033203	0.658447266	891.84	-139.2936593	5.830718418	-10.45308198	-85
23566	0	-0.032605171	-0.254160881	-0.289747238	0.999979973	0.005886078	-0.001131058	-0.001772881	-0.81512928	-6.354022026	-7.243680954	0.29430581	-0.056553255	-0.088644605	0.750976563	0.145263672	0.651611328	891.82	-138.5919959	5.770280899	-10.20938747	-85
23567	0	-0.033813477	-0.262084961	-0.273620605	0.999994278	0.003052711	-0.000595093	0.001094818	-0.845336914	-6.552124023	-6.840515137	0.152635851	-0.029754693	0.054741005	0.750488281	0.154296875	0.650878906	891.82	-138.2436189	5.879872034	-10.2539666	-86
23568	0	-0.037014008	-0.256147385	-0.269394875	0.999998093	-0.00120163	0.000367165	0.001322746	-0.925350189	-6.403684616	-6.734871864	-0.060081515	0.018358241	0.066137351	0.752929688	0.154052734	0.650634766	891.72	-138.3919911	5.924825003	-10.39151413	-87
23569	0	-0.035583496	-0.252441406	-0.280456543	0.999998093	-0.001227379	0.001079559	0.000255585	-0.889587402	-6.311035156	-7.011413574	-0.06136897	0.053977991	0.012779242	0.753173828	0.151855469	0.645019531	891.82	-138.5394866	5.827374486	-10.49149534	-86
23570	0	-0.034365654	-0.253250122	-0.285305023	0.999997139	0.002117157	0.000749588	-0.000370979	-0.85914135	-6.331253052	-7.13262558	0.105857941	0.037479433	-0.018548981	0.748291016	0.152099609	0.654052734	891.78	-138.2957515	5.710720629	-10.51296526	-85
23571	0	-0.033203125	-0.259460449	-0.281799316	0.999993324	0.003448486	-0.000452995	-0.000991821	-0.830078125	-6.48651123	-7.04498291	0.172424692	-0.022649814	-0.049591173	0.748046875	0.156494141	0.656738281	891.76	-137.884973	5.64926649	-10.3893691	-86
23572	0	-0.030639648	-0.263549805	-0.274047852	0.999998093	0.000343323	-0.001322746	-0.000679016	-0.765991211	-6.588745117	-6.851196289	0.017166144	-0.06613734	-0.033950819	0.747802734	0.163330078	0.650146484	891.78	-137.8257206	5.685192226	-10.22501229	-86
23573	0	-0.033447266	-0.261169434	-0.273010254	0.999994278	-0.003008842	-0.000747681	0.000530243	-0.836181641	-6.52923584	-6.825256348	-0.150442371	-0.037384095	0.02651219	0.747802734	0.163330078	0.650146484	891.82	-138.1649137	5.765358587	-10.20848709	-87
23574	0	-0.035966873	-0.254693031	-0.279561996	0.999987602	-0.004795074	-0.000310898	0.00103569	-0.899171829	-6.367325783	-6.989049911	-0.239754689	-0.015544954	0.051784724	0.752929688	0.154052734	0.653564453	891.82	-138.7166929	5.846805906	-10.26975715	-87
23575	0	-0.037231445	-0.249633789	-0.287231445	0.999996185	-0.002448082	1.90735E-05	0.000740051	-0.930786133	-6.240844727	-7.180786133	-0.122404232	0.000953675	0.037002604	0.750732422	0.149658203	0.654052734	891.76	-138.9999094	5.877252664	-10.33115095	-87
23576	0	-0.0362463	-0.247641563	-0.284482956	0.999998093	0.001285553	0.000576973	0.000634193	-0.906157494	-6.191039085	-7.112073898	0.064277675	0.02884866	0.031709684	0.753173828	0.145019531	0.654296875	891.84	-138.8588634	5.851627186	-10.4257458	-86
23577	0	-0.035766602	-0.250549316	-0.281494141	0.999992371	0.003613472	0.000740051	-0.000419617	-0.894165039	-6.26373291	-7.037353516	0.180674014	0.037002648	-0.020980883	0.753173828	0.149658203	0.651123047	891.9	-138.443033	5.732806597	-10.44154382	-85
23578	0	-0.033975601	-0.256768227	-0.281284332	0.999990463	0.004059792	0.000187874	-0.001325607	-0.84939003	-6.419205666	-7.032108307	0.202990197	0.009393721	-0.066280567	0.750488281	0.154296875	0.653808594	891.88	-137.9641969	5.592157983	-10.33829808	-85
23579	0	-0.03125	-0.265808105	-0.278686523	0.999998093	0.001702309	-0.000408173	-0.000408173	-0.78125	-6.645202637	-6.967163086	0.085115479	-0.020408641	-0.020408641	0.750244141	0.158691406	0.653320313	891.88	-137.7585594	5.572027451	-10.26797748	-85
23580	0	-0.032664299	-0.262681007	-0.274289131	0.999996185	-0.002426147	-0.00039196	0.001038551	-0.816607475	-6.567025185	-6.857228279	-0.121307517	-0.01959803	0.051927628	0.747802734	0.160888672	0.650390625	891.84	-138.0379026	5.661773087	-10.32216175	-85
23581	0	-0.035217285	-0.255065918	-0.27734375	0.999990463	-0.004122734	-0.00019455	0.001064301	-0.880432129	-6.376647949	-6.93359375	-0.206137328	-0.009727507	0.053215188	0.752929688	0.15625	0.650634766	891.82	-138.5135388	5.736416528	-10.39430476	-85
23582	0	-0.036108971	-0.250441551	-0.286180496	0.999997139	-0.002029419	-6.29425E-05	0.000564575	-0.902724266	-6.26103878	-7.154512405	-0.101471022	-0.003147128	0.028228781	0.750732422	0.149658203	0.648193359	891.82	-138.7464183	5.761620092	-10.43404305	-85
23583	0	-0.035949707	-0.249511719	-0.283569336	0.999999046	0.000812531	0.000187874	-2.67029E-05	-0.898742676	-6.237792969	-7.089233398	0.040626531	0.009393693	-0.001335144	0.748535156	0.147460938	0.651611328	891.78	-138.650617	5.720627477	-10.44203591	-85
23584	0	-0.035403252	-0.250952721	-0.284090996	0.999995232	0.002964973	9.72748E-05	-0.000843048	-0.885081291	-6.273818016	-7.102274895	0.148248907	0.004863747	-0.042152472	0.750732422	0.149658203	0.651123047	891.84	-138.3007171	5.625558407	-10.37281422	-85
23585	0	-0.035095215	-0.255981445	-0.281433105	0.999990463	0.004071236	-3.8147E-06	-0.000907898	-0.877380371	-6.399536133	-7.035827637	0.203562373	-0.000190735	-0.045395029	0.752929688	0.154052734	0.647705078	891.78	-137.8229565	5.533781888	-10.29078301	-85
23586	0	-0.034563065	-0.261904716	-0.276381493	0.999997139	0.001972198	-4.95911E-05	-0.000350952	-0.864076614	-6.547617912	-6.909537315	0.09860999	-0.002479555	-0.017547619	0.750244141	0.160888672	0.647460938	891.78	-137.5898853	5.488466732	-10.25307127	-85
23587	0	-0.033447266	-0.261535645	-0.27532959	0.999999046	-0.000999451	9.53674E-07	0.000244141	-0.836181641	-6.538391113	-6.883239746	-0.049972543	4.76837E-05	0.012207033	0.750244141	0.160888672	0.647460938	891.82	-137.7024231	5.484876005	-10.26990196	-85
23588	0	-0.034610748	-0.257118225	-0.278224945	0.999998093	-0.001361847	0.000231743	0.000415802	-0.865268707	-6.427955627	-6.955623627	-0.06809237	0.011587147	0.020790107	0.748046875	0.160888672	0.647460938	891.9	-137.8596619	5.475044967	-10.31922373	-85
23589	0	-0.035217285	-0.254455566	-0.279907227	0.999999046	-0.00012207	0.0001688	4.95911E-05	-0.880432129	-6.36138916	-6.997680664	-0.006103516	0.008440018	0.002479553	0.750488281	0.158691406	0.650390625	891.84	-137.8715533	5.442536056	-10.33260536	-85
23590	0	-0.033988953	-0.256520271	-0.280469894	0.999999046	0.000782013	-2.28882E-05	-0.000385284	-0.849723816	-6.413006783	-7.01174736	0.039100652	-0.001144409	-0.019264224	0.748046875	0.158691406	0.650634766	891.9	-137.7750501	5.392986086	-10.29418793	-85
23591	0	-0.03314209	-0.25994873	-0.278930664	0.999999046	0.001171112	-0.000128746	-0.000152588	-0.828552246	-6.498718262	-6.973266602	0.058555617	-0.006437303	-0.007629396	0.748046875	0.160888672	0.647460938	891.76	-137.6350459	5.370367553	-10.26729575	-85
23592	0	-0.033257484	-0.259878159	-0.277765274	0.999999046	0.000142097	-8.39233E-05	0.000293732	-0.831437111	-6.496953964	-6.944131851	0.007104874	-0.004196167	0.014686585	0.747802734	0.163330078	0.653076172	891.84	-137.6168165	5.378498657	-10.28198056	-85
23593	0	-0.034362793	-0.257446289	-0.276672363	0.999999046	-9.91821E-05	9.53674E-07	0.000278473	-0.859069824	-6.436157227	-6.916809082	-0.004959107	4.76837E-05	0.013923645	0.747802734	0.163330078	0.653076172	891.9	-137.6267617	5.378443136	-10.3018857	-85
23594	0	-0.034627914	-0.256457329	-0.277151108	0.999999046	0.000312805	4.76837E-05	0	-0.865697861	-6.41143322	-6.928777695	0.015640259	0.002384186	0	0.75	0.165527344	0.652832031	891.9	-137.5876974	5.353108565	-10.30163464	-85
23595	0	-0.034423828	-0.257995605	-0.277160645	0.999999046	0.000442505	0.000161171	-0.000263214	-0.860595703	-6.449890137	-6.929016113	0.022125245	0.008058548	-0.013160706	0.750244141	0.163085938	0.650146484	891.82	-137.5325516	5.297993763	-10.2879368	-85
23596	0	-0.033099174	-0.260457039	-0.277734756	0.999999046	0.000617027	5.34058E-05	-8.01086E-05	-0.827479362	-6.511425972	-6.943368912	0.030851366	0.002670288	-0.004005432	0.747802734	0.163330078	0.650146484	891.88	-137.458063	5.266252541	-10.28154021	-85
23597	0	-0.033874512	-0.260009766	-0.276733398	0.999999046	-1.14441E-05	-2.95639E-05	5.72205E-05	-0.846862793	-6.500244141	-6.918334961	-0.000572205	-0.001478195	0.002861023	0.747802734	0.163330078	0.647216797	891.94	-137.45606	5.252313414	-10.28021896	-85
23598	0	-0.034226418	-0.259695053	-0.275151253	0.999999046	-0.000371933	-4.57764E-05	8.39233E-05	-0.855660439	-6.492376328	-6.878781319	-0.01859665	-0.002288818	0.004196167	0.750244141	0.165283203	0.646972656	891.82	-137.4954043	5.241997426	-10.27980152	-85
23599	0	-0.033996582	-0.259521484	-0.276855469	0.999999046	-0.000419617	2.76566E-05	7.24792E-05	-0.849914551	-6.488037109	-6.921386719	-0.020980836	0.001382828	0.003623963	0.747802734	0.163330078	0.647216797	891.92	-137.5406447	5.224756482	-10.28431223	-85
23600	0	-0.033409119	-0.258063316	-0.278478622	0.999999046	-0.000102043	7.43866E-05	3.8147E-05	-0.835227966	-6.451582909	-6.961965561	-0.005102158	0.00371933	0.001907349	0.75	0.165527344	0.652832031	891.84	-137.5496511	5.201045172	-10.28959834	-85
23601	0	-0.033935547	-0.258300781	-0.277404785	0.999999046	0.000114441	-7.53403E-05	0.000110626	-0.848388672	-6.457519531	-6.935119629	0.005722046	-0.003767014	0.005531311	0.747802734	0.163330078	0.647216797	891.82	-137.533396	5.19577135	-10.28930664	-85
23602	0	-0.033303261	-0.258601189	-0.275570869	0.999999046	0.000387192	-8.58307E-05	-1.23978E-05	-0.83258152	-6.465029716	-6.889271736	0.019359589	-0.004291535	-0.000619888	0.747558594	0.165527344	0.653076172	891.82	-137.484843	5.182002768	-10.27794271	-85
23603	0	-0.034057617	-0.259887695	-0.276733398	0.999999046	0.000118256	8.58307E-06	-8.01086E-05	-0.85144043	-6.497192383	-6.918334961	0.005912781	0.000429153	-0.004005432	0.747802734	0.165527344	0.650146484	891.82	-137.46724	5.155182272	-10.2680098	-85
23604	0	-0.033340454	-0.25959301	-0.277466774	0.999999046	-0.000235558	1.90735E-06	-0.000157356	-0.833511353	-6.489825249	-6.93666935	-0.011777878	9.53674E-05	-0.007867813	0.75	0.165527344	0.649902344	891.84	-137.4895794	5.123081554	-10.25098122	-85
23605	0	-0.033691406	-0.259399414	-0.278381348	0.999999046	4.57764E-05	0.000214577	-2.67029E-05	-0.842285156	-6.484985352	-6.959533691	0.002288818	0.010728836	-0.001335144	0.747558594	0.165527344	0.653076172	891.76	-137.4822031	5.083298536	-10.26175937	-85
23606	0	-0.032765388	-0.259671211	-0.279104233	0.999999046	0.000267029	6.48499E-05	-9.91821E-05	-0.819134712	-6.491780281	-6.97760582	0.013351441	0.003242493	-0.004959107	0.747802734	0.165527344	0.650146484	891.82	-137.447967	5.050669836	-10.25461545	-85
23607	0	-0.031799316	-0.25982666	-0.278381348	0.999999046	0.000152588	-2.95639E-05	-7.62939E-05	-0.79498291	-6.495666504	-6.959533691	0.007629395	-0.001478195	-0.003814697	0.747558594	0.167724609	0.652832031	891.82	-137.4264259	5.027861918	-10.24214676	-85
23608	0	-0.032692909	-0.259794235	-0.277262688	0.999999046	8.4877E-05	-7.62939E-05	8.7738E-05	-0.817322731	-6.494855881	-6.931567192	0.004243851	-0.003814697	0.004386902	0.75	0.165527344	0.652832031	891.76	-137.4135655	5.021847703	-10.23997763	-85
23609	0	-0.03302002	-0.25994873	-0.27746582	0.999999046	-0.000125885	0.00011158	3.8147E-06	-0.825500488	-6.498718262	-6.936645508	-0.006294251	0.005578995	0.000190735	0.747558594	0.167724609	0.652832031	891.98	-137.4255369	4.993625307	-10.24525011	-85
23610	0	-0.032960892	-0.260062218	-0.277661324	1	6.38962E-05	3.33786E-05	1.90735E-05	-0.824022293	-6.501555443	-6.941533089	0.003194809	0.00166893	0.000953674	0.747558594	0.165527344	0.653076172	891.94	-137.4153637	4.973336989	-10.24584196	-85
23611	0	-0.031738281	-0.260314941	-0.277770996	0.999999046	0	-1.81198E-05	4.95911E-05	-0.793457031	-6.507873535	-6.944274902	0	-0.000905991	0.002479553	0.745361328	0.165527344	0.647216797	891.78	-137.4124078	4.959852945	-10.24480255	-85
23612	0	-0.032446861	-0.259518623	-0.278624535	0.999999046	0.00055027	5.14984E-05	6.38962E-05	-0.811171532	-6.487965584	-6.965613365	0.027513505	0.002574921	0.003194809	0.745117188	0.167724609	0.649902344	891.78	-137.3470469	4.941738301	-10.25053589	-85
23613	0	-0.03336525	-0.257071495	-0.276331902	0.999996185	0.00262928	0.000291824	-0.00017643	-0.834131241	-6.426787376	-6.908297539	0.131464159	0.014591234	-0.008821498	0.747558594	0.165527344	0.653076172	891.82	-137.0434308	4.884919895	-10.25512799	-85
23614	0	-0.032444	-0.261559486	-0.271192551	0.999997139	0.002044678	0.000101089	-0.000495911	-0.811100006	-6.53898716	-6.779813766	0.102233962	0.005054478	-0.024795551	0.745117188	0.172363281	0.646728516	891.82	-136.8031501	4.81924889	-10.21767996	-84
23615	0	-0.030883789	-0.264343262	-0.273193359	0.999999046	0.000522614	-1.04904E-05	-0.000240326	-0.772094727	-6.608581543	-6.829833984	0.026130678	-0.000524521	-0.012016297	0.744873047	0.174560547	0.649414063	891.84	-136.7383072	4.782940824	-10.19319276	-84
23616	0	-0.031005859	-0.264764786	-0.27248764	0.999998093	-0.000181198	-4.48227E-05	0.000347137	-0.775146484	-6.619119644	-6.81219101	-0.009059906	-0.002241135	0.017356873	0.744873047	0.176757813	0.646240234	891.82	-136.7579025	4.795721673	-10.21499227	-84
23617	0	-0.031982422	-0.263427734	-0.272460938	0.999999046	-0.001033783	-0.000124931	0.000514984	-0.799560547	-6.585693359	-6.811523438	-0.05168916	-0.006246568	0.025749212	0.744873047	0.174560547	0.65234375	891.9	-136.8758007	4.828485869	-10.24494191	-84
23618	0	-0.032381058	-0.260755539	-0.272993088	0.999999046	-0.000980377	-5.72205E-05	0.00030899	-0.809526443	-6.518888474	-6.824827194	-0.049018869	-0.002861023	0.015449527	0.747558594	0.169921875	0.649658203	891.78	-136.9866075	4.839568216	-10.26285692	-85
23619	0	-0.031921387	-0.260986328	-0.274353027	0.999999046	-3.43323E-05	0.000134468	-4.95911E-05	-0.798034668	-6.524658203	-6.858825684	-0.001716614	0.006723404	-0.002479553	0.745117188	0.170166016	0.646972656	891.88	-136.9877556	4.806668788	-10.26559761	-84
23620	0	-0.031762123	-0.261398315	-0.27425766	0.999999046	0.000691414	7.62939E-05	-0.000293732	-0.794053078	-6.534957886	-6.856441498	0.034570697	0.003814698	-0.014686586	0.745117188	0.170166016	0.652832031	891.88	-136.9036531	4.759667134	-10.24360185	-84
23621	0	-0.031005859	-0.263366699	-0.276367188	0.999999046	0.000579834	-0.000121117	-0.000297546	-0.775146484	-6.58416748	-6.909179688	0.028991701	-0.006055832	-0.01487732	0.747314453	0.174560547	0.649414063	891.94	-136.8310814	4.728930067	-10.20541477	-85
23622	0	-0.031038284	-0.263215065	-0.273491859	0.999999046	0.000171661	-9.91821E-05	0.000102997	-0.775957108	-6.580376625	-6.837296486	0.008583069	-0.004959106	0.005149841	0.744873047	0.174560547	0.65234375	891.84	-136.8081698	4.727840831	-10.20283553	-84
23623	0	-0.031921387	-0.262695313	-0.271972656	0.999999046	-0.000492096	6.96182E-05	0.000247955	-0.798034668	-6.567382813	-6.799316406	-0.024604799	0.003480911	0.012397767	0.744873047	0.172363281	0.649658203	891.84	-136.8633512	4.724163359	-10.22556591	-85
23624	0	-0.031097412	-0.261555672	-0.273393631	0.999998093	-0.000455856	5.24521E-05	0.000132561	-0.777435303	-6.538891792	-6.834840775	-0.022792817	0.002622604	0.006628037	0.744873047	0.174560547	0.649414063	891.88	-136.9134799	4.712975365	-10.23714447	-85
23625	0	-0.030639648	-0.261962891	-0.275634766	0.999999046	0.000148773	-9.44138E-05	-3.8147E-06	-0.765991211	-6.549072266	-6.890869141	0.00743866	-0.004720688	-0.000190735	0.744873047	0.172363281	0.652587891	891.78	-136.8924914	4.703474538	-10.22605438	-85
23626	0	-0.030751228	-0.262411118	-0.274147987	0.999999046	8.39233E-05	-0.000213623	0.000152588	-0.768780708	-6.560277939	-6.853699684	0.004196167	-0.010681152	0.007629395	0.742431641	0.172363281	0.652587891	891.84	-136.8792381	4.716279447	-10.21869426	-84
23627	0	-0.031677246	-0.261962891	-0.273742676	0.999999046	-0.000240326	-6.77109E-05	0.000221252	-0.791931152	-6.549072266	-6.843566895	-0.012016297	-0.003385544	0.011062622	0.742675781	0.172363281	0.649658203	891.84	-136.9045591	4.722387428	-10.22834773	-85
23628	0	-0.031525612	-0.261512756	-0.273498535	0.999999046	-0.000342369	2.28882E-05	0.000247955	-0.788140297	-6.537818909	-6.837463379	-0.017118454	0.001144409	0.012397766	0.744873047	0.172363281	0.649658203	891.84	-136.9423455	4.723118808	-10.24733491	-85
23629	0	-0.031311035	-0.262023926	-0.274230957	0.999999046	-0.000137329	-2.95639E-05	0.000114441	-0.782775879	-6.550598145	-6.855773926	-0.006866455	-0.001478195	0.005722046	0.745117188	0.170166016	0.646972656	891.82	-136.9553678	4.717893345	-10.25102142	-85
23630	0	-0.031327248	-0.261636734	-0.275156021	0.999999046	-0.000192642	-2.67029E-05	6.10352E-05	-0.78318119	-6.54091835	-6.878900528	-0.009632111	-0.001335144	0.003051758	0.744873047	0.172363281	0.652587891	891.82	-136.9744152	4.708351099	-10.25062757	-85
23631	0	-0.03137207	-0.261230469	-0.273803711	0.999999046	0.000114441	-3.71933E-05	0.0001297	-0.784301758	-6.530761719	-6.845092773	0.005722046	-0.001859665	0.006484985	0.744873047	0.170166016	0.655761719	891.84	-136.9586775	4.705165866	-10.25535562	-85
23632	0	-0.031705856	-0.261346817	-0.273802757	0.999999046	0.000163078	-7.82013E-05	0.000148773	-0.792646408	-6.533670425	-6.845068932	0.008153915	-0.003910065	0.00743866	0.745117188	0.170166016	0.649902344	891.76	-136.9372328	4.707032599	-10.25808328	-85
23633	0	-0.031738281	-0.260803223	-0.271911621	0.999999046	0.000202179	-5.62668E-05	2.28882E-05	-0.793457031	-6.520080566	-6.797790527	0.010108948	-0.002813339	0.001144409	0.747558594	0.169921875	0.649658203	891.82	-136.9105427	4.697340849	-10.25199755	-84
23634	0	-0.031293869	-0.261341095	-0.27497673	0.999999046	0.000520706	4.76837E-05	-0.000267982	-0.782346725	-6.533527374	-6.874418259	0.02603531	0.002384186	-0.013399125	0.745117188	0.170166016	0.649902344	891.78	-136.8460893	4.65625938	-10.22983378	-84
23635	0	-0.031188965	-0.262878418	-0.272827148	0.999999046	0.000190735	-1.43051E-05	-0.000183105	-0.779724121	-6.571960449	-6.820678711	0.009536743	-0.000715256	-0.009155274	0.745117188	0.172363281	0.652587891	891.82	-136.8195924	4.627095989	-10.20996052	-84
23636	0	-0.03042984	-0.26256752	-0.275168419	0.999999046	-0.000163078	-6.10352E-05	0.000183105	-0.760746002	-6.564188004	-6.879210472	-0.008153915	-0.003051758	0.009155274	0.742675781	0.172363281	0.649902344	891.88	-136.835875	4.63061332	-10.21700081	-84
23637	0	-0.03137207	-0.261474609	-0.273376465	0.999999046	-0.000190735	-6.77109E-05	0.00019455	-0.784301758	-6.536865234	-6.834411621	-0.009536743	-0.003385544	0.009727478	0.745117188	0.172363281	0.646728516	891.84	-136.8553827	4.635703597	-10.22428345	-84
23638	0	-0.031939507	-0.261174202	-0.275913239	0.999999046	-0.000261307	-2.67029E-05	3.05176E-05	-0.798487663	-6.529355049	-6.897830963	-0.013065338	-0.001335144	0.001525879	0.745117188	0.172363281	0.652587891	891.84	-136.882239	4.624646213	-10.22144244	-84
23639	0	-0.031311035	-0.262145996	-0.275024414	0.999999046	0.000114441	8.86917E-05	-0.000110626	-0.782775879	-6.553649902	-6.875610352	0.005722046	0.004434586	-0.005531311	0.745117188	0.172363281	0.655517578	891.9	-136.8658498	4.592985135	-10.21591106	-84
23640	0	-0.030838966	-0.261910439	-0.273322105	0.999999046	0.000119209	-9.91821E-05	3.43323E-05	-0.770974159	-6.547760963	-6.833052635	0.005960465	-0.004959106	0.001716614	0.742675781	0.172607422	0.652832031	891.84	-136.8486963	4.588483245	-10.20759564	-84
23641	0	-0.03112793	-0.26171875	-0.274536133	0.999999046	9.53674E-05	-6.38962E-05	8.7738E-05	-0.778198242	-6.54296875	-6.86340332	0.004768372	-0.003194809	0.004386902	0.745117188	0.172363281	0.652587891	891.84	-136.834899	4.585320001	-10.20647273	-84
23642	0	-0.03090477	-0.262742996	-0.2735672	0.999999046	-0.000116348	-0.000102997	-1.14441E-05	-0.772619247	-6.568574905	-6.839179993	-0.005817413	-0.005149841	-0.000572205	0.745117188	0.172363281	0.652587891	891.78	-136.8444282	4.577741392	-10.19398022	-85
23643	0	-0.030273438	-0.261108398	-0.274291992	0.999999046	-0.000148773	-7.53403E-05	8.01086E-05	-0.756835938	-6.527709961	-6.857299805	-0.00743866	-0.003767014	0.004005432	0.744873047	0.174560547	0.652587891	891.82	-136.858519	4.575089365	-10.19122994	-85
23644	0	-0.031700134	-0.261571884	-0.274060249	0.999999046	-0.000216484	-1.71661E-05	0.000152588	-0.792503357	-6.539297104	-6.851506233	-0.010824204	-0.000858307	0.007629395	0.742675781	0.172363281	0.649902344	891.78	-136.8812454	4.573384365	-10.1992079	-85
23645	0	-0.031005859	-0.260742188	-0.275024414	0.999999046	-0.000118256	-2.86102E-06	4.57764E-05	-0.775146484	-6.518554688	-6.875610352	-0.005912781	-0.000143051	0.002288818	0.745117188	0.172363281	0.649658203	891.82	-136.8921729	4.562210365	-10.19929263	-85
23646	0	-0.030971527	-0.261590004	-0.275513649	0.999999046	0.000112534	-0.00012207	-0.000142097	-0.774288177	-6.539750099	-6.887841225	0.005626679	-0.006103516	-0.007104874	0.745117188	0.172363281	0.652587891	891.82	-136.8747212	4.546381788	-10.17453693	-85
23647	0	-0.031494141	-0.262756348	-0.276245117	0.999999046	0.0001297	-2.57492E-05	4.95911E-05	-0.787353516	-6.568908691	-6.90612793	0.006484985	-0.00128746	0.002479553	0.745117188	0.172363281	0.649658203	891.82	-136.8572304	4.537622115	-10.17320597	-85
23648	0	-0.031535149	-0.261116028	-0.275505066	0.999999046	-0.000136375	-2.28882E-05	0.000110626	-0.788378716	-6.527900696	-6.887626648	-0.006818771	-0.001144409	0.005531311	0.745117188	0.172363281	0.655517578	891.82	-136.8707406	4.533528121	-10.17762298	-85
23649	0	-0.031066895	-0.261047363	-0.27557373	0.999999046	-9.15527E-05	-4.86374E-05	4.57764E-05	-0.776672363	-6.526184082	-6.889343262	-0.004577637	-0.00243187	0.002288818	0.745117188	0.172363281	0.649658203	891.82	-136.8786115	4.526604831	-10.1740596	-85
23650	0	-0.031057358	-0.261055946	-0.276656151	0.999999046	-0.000108719	-0.000143051	7.53403E-05	-0.776433945	-6.526398659	-6.91640377	-0.005435944	-0.007152557	0.003767014	0.745117188	0.170166016	0.652832031	891.88	-136.8881785	4.529987466	-10.16602759	-85
23651	0	-0.031860352	-0.260925293	-0.275390625	0.999999046	6.48499E-05	-1.43051E-05	0.000137329	-0.796508789	-6.523132324	-6.884765625	0.003242493	-0.000715256	0.006866455	0.745117188	0.172363281	0.655517578	891.9	-136.8791388	4.527590376	-10.17323732	-85
23652	0	-0.031697273	-0.26095295	-0.275844574	0.999999046	7.15256E-05	-6.29425E-05	-4.95911E-05	-0.792431831	-6.523823738	-6.896114349	0.003576279	-0.003147125	-0.002479553	0.745117188	0.172363281	0.649658203	891.88	-136.8678854	4.514741914	-10.1605134	-85
23653	0	-0.030700684	-0.261535645	-0.276184082	0.999999046	-0.000110626	8.4877E-05	-8.7738E-05	-0.76751709	-6.538391113	-6.904602051	-0.005531311	0.004243851	-0.004386902	0.742675781	0.170166016	0.656005859	891.82	-136.8782505	4.48661113	-10.15699466	-85
23654	0	-0.031036377	-0.261846542	-0.275637627	0.999999046	-4.76837E-05	7.43866E-05	6.10352E-05	-0.775909424	-6.546163559	-6.890940666	-0.002384186	0.00371933	0.003051758	0.747558594	0.172363281	0.649658203	891.94	-136.8823599	4.471108012	-10.16414401	-85
23655	0	-0.03112793	-0.261291504	-0.274536133	0.999999046	-0.000179291	-1.81198E-05	0.00019455	-0.778198242	-6.532287598	-6.86340332	-0.008964539	-0.000905991	0.009727478	0.745117188	0.172363281	0.649658203	891.88	-136.9018805	4.473906081	-10.17550426	-85
23656	0	-0.031555176	-0.260986328	-0.275512695	0.999999046	-0.000258446	-0.000240326	0.000144958	-0.788879395	-6.524658203	-6.887817383	-0.012922287	-0.012016297	0.007247925	0.745117188	0.172363281	0.652587891	891.78	-136.928847	4.491537686	-10.16557719	-86
23657	0	-0.030583382	-0.260612488	-0.275572777	0.999998093	-0.00023365	-6.67572E-05	6.38962E-05	-0.764584541	-6.515312195	-6.88931942	-0.01168251	-0.00333786	0.003194809	0.745361328	0.16796875	0.650146484	891.82	-136.9535727	4.488364495	-10.16257025	-85
23658	0	-0.030665398	-0.260653496	-0.275782585	0.999999046	6.48499E-05	-0.000112534	0.00020504	-0.766634941	-6.516337395	-6.894564629	0.003242493	-0.005626679	0.010251999	0.745117188	0.170166016	0.655761719	891.78	-136.9448031	4.500134755	-10.16803762	-86
23659	0	-0.030944824	-0.260192871	-0.276062012	0.999999046	2.67029E-05	-0.000144005	1.52588E-05	-0.773620605	-6.504821777	-6.901550293	0.001335144	-0.007200241	0.000762939	0.745117188	0.170166016	0.649902344	891.88	-136.9390528	4.499770364	-10.15451691	-86
23660	0	-0.031093597	-0.260451317	-0.275245667	0.999999046	-6.77109E-05	-0.000152588	9.91821E-05	-0.777339935	-6.511282921	-6.881141663	-0.003385544	-0.007629395	0.004959106	0.742675781	0.170166016	0.655761719	891.92	-136.9446739	4.506773717	-10.1480389	-85
23661	0	-0.031005859	-0.260437012	-0.275085449	0.999999046	-0.000263214	-8.67844E-05	6.10352E-05	-0.775146484	-6.510925293	-6.87713623	-0.013160706	-0.004339218	0.003051758	0.744873047	0.170166016	0.655761719	891.76	-136.9728967	4.50536042	-10.14323779	-85
23662	0	-0.031331062	-0.260043144	-0.277719498	0.999999046	-0.000183105	-6.29425E-05	0.000189781	-0.783276558	-6.501078606	-6.942987442	-0.009155274	-0.003147125	0.00948906	0.745117188	0.167724609	0.649902344	891.82	-136.9930773	4.512101361	-10.1507566	-85
23663	0	-0.031494141	-0.259887695	-0.276184082	0.999999046	8.39233E-05	-0.000151634	3.43323E-05	-0.787353516	-6.497192383	-6.904602051	0.004196167	-0.007581711	0.001716614	0.745117188	0.16796875	0.655761719	891.84	-136.9811654	4.514214463	-10.13886938	-85
23664	0	-0.030863762	-0.260176659	-0.275887489	0.999999046	0.000191689	-2.09808E-05	4.86374E-05	-0.771594048	-6.504416466	-6.897187233	0.009584427	-0.001049042	0.00243187	0.745117188	0.167724609	0.649902344	891.82	-136.9578689	4.50655611	-10.13783798	-85
23665	0	-0.030639648	-0.260620117	-0.276184082	0.999999046	3.43323E-05	-8.29697E-05	0.000144958	-0.765991211	-6.51550293	-6.904602051	0.001716614	-0.004148483	0.007247925	0.745117188	0.170166016	0.652832031	891.88	-136.9529207	4.511668865	-10.14018396	-85
23666	0	-0.030761719	-0.260864258	-0.276489258	0.999999046	-7.62939E-06	1.52588E-05	0.000118256	-0.769042969	-6.521606445	-6.912231445	-0.00038147	0.000762939	0.005912781	0.744873047	0.170166016	0.655761719	891.84	-136.9532746	4.506515216	-10.14829909	-84
23667	0	-0.031066895	-0.260986328	-0.275939941	0.999999046	-0.000232697	2.00272E-05	2.67029E-05	-0.776672363	-6.524658203	-6.898498535	-0.011634827	0.001001358	0.001335144	0.745117188	0.16796875	0.652832031	891.82	-136.9788829	4.49386615	-10.14891298	-84
23668	0	-0.031681061	-0.260124207	-0.276978493	0.999999046	-0.000123024	6.29425E-05	0.000228882	-0.79202652	-6.503105164	-6.924462318	-0.006151199	0.003147125	0.011444092	0.745117188	0.170166016	0.646972656	891.88	-136.9936164	4.493524501	-10.16906429	-84
23669	0	-0.031433105	-0.260192871	-0.276428223	0.999999046	-0.000137329	-1.43051E-05	0.000114441	-0.785827637	-6.504821777	-6.910705566	-0.006866455	-0.000715256	0.005722046	0.745117188	0.16796875	0.652832031	891.9	-137.0088278	4.490793039	-10.1746152	-84
23670	0	-0.031440735	-0.260415077	-0.276804924	0.999999046	4.76837E-05	-0.000108719	-3.14713E-05	-0.786018372	-6.51037693	-6.9201231	0.002384186	-0.005435944	-0.001573563	0.742675781	0.170166016	0.652832031	891.78	-137.0013651	4.48465306	-10.16035332	-84
23671	0	-0.030700684	-0.260375977	-0.276916504	0.999999046	4.19617E-05	-9.44138E-05	-2.67029E-05	-0.76751709	-6.509399414	-6.922912598	0.002098084	-0.004720688	-0.001335144	0.744873047	0.170166016	0.655761719	891.88	-136.9947507	4.477727841	-10.14783924	-84
23672	0	-0.030617714	-0.261134148	-0.275913239	0.999999046	-0.000124931	-0.000160217	0.000202179	-0.765442848	-6.528353691	-6.897830963	-0.006246567	-0.008010864	0.010108948	0.745117188	0.16796875	0.652832031	891.78	-137.0083708	4.494246354	-10.14921713	-84
23673	0	-0.03137207	-0.260192871	-0.276062012	0.999999046	-0.00044632	-4.86374E-05	0.00038147	-0.784301758	-6.504821777	-6.901550293	-0.02231598	-0.00243187	0.019073487	0.745117188	0.16796875	0.655761719	891.78	-137.0607361	4.515486786	-10.17459809	-84
23674	0	-0.031414986	-0.259189606	-0.277023315	0.999999046	-0.000368118	-0.000120163	0.00045681	-0.785374641	-6.479740143	-6.925582886	-0.018405915	-0.006008149	0.022840501	0.745117188	0.16796875	0.652832031	891.82	-137.1043094	4.548657896	-10.20023336	-84
23675	0	-0.031921387	-0.258422852	-0.275634766	0.999999046	-0.000324249	4.29153E-05	0.000156403	-0.798034668	-6.460571289	-6.890869141	-0.016212464	0.002145767	0.00782013	0.745117188	0.165527344	0.656005859	891.78	-137.1419285	4.544781766	-10.21398745	-84
23676	0	-0.032040596	-0.258904457	-0.278002739	0.999999046	0.000164986	0.000116348	7.62939E-06	-0.8010149	-6.472611427	-6.950068474	0.008249283	0.005817413	0.00038147	0.745117188	0.165771484	0.658935547	891.9	-137.1230549	4.523222545	-10.22114031	-84
23677	0	-0.031311035	-0.260070801	-0.276306152	0.999999046	0.000167847	1.23978E-05	3.05176E-05	-0.782775879	-6.50177002	-6.907653809	0.008392334	0.000619888	0.001525879	0.745117188	0.167724609	0.649902344	891.88	-137.103376	4.512232137	-10.220672	-84
23678	0	-0.031992912	-0.259978294	-0.2754879	0.999999046	-1.33514E-05	-0.000110626	0.000213623	-0.799822807	-6.499457359	-6.887197495	-0.000667572	-0.005531311	0.010681152	0.745117188	0.165527344	0.656005859	891.78	-137.1049087	4.525944803	-10.22728238	-84
23679	0	-0.032287598	-0.259033203	-0.275939941	0.999999046	-0.000339508	-0.000136375	0.000179291	-0.807189941	-6.475830078	-6.898498535	-0.016975403	-0.006818772	0.008964539	0.742919922	0.165771484	0.653320313	891.78	-137.1434736	4.539242755	-10.22858378	-84
23680	0	-0.032700539	-0.258102417	-0.27641201	0.999999046	-0.000317574	4.57764E-05	-6.10352E-05	-0.817513466	-6.452560425	-6.910300255	-0.015878678	0.002288818	-0.003051758	0.742919922	0.165771484	0.653320313	891.84	-137.17913	4.518625831	-10.22383989	-84
23681	0	-0.03112793	-0.259155273	-0.276733398	0.999999046	-3.05176E-05	-5.62668E-05	5.34058E-05	-0.778198242	-6.478881836	-6.918334961	-0.001525879	-0.002813339	0.002670288	0.742919922	0.163330078	0.650390625	891.84	-137.1820622	4.515538016	-10.22075908	-84
23682	0	-0.031371117	-0.259135246	-0.277295113	0.999999046	0.000183105	-0.000127792	0.000197411	-0.784277916	-6.478381157	-6.932377815	0.009155274	-0.006389618	0.009870529	0.745361328	0.163330078	0.650390625	891.82	-137.1610871	4.529727166	-10.22417807	-84
23683	0	-0.031982422	-0.25982666	-0.277099609	0.999999046	0.00018692	-0.000216484	2.28882E-05	-0.799560547	-6.495666504	-6.927490234	0.009346008	-0.010824204	0.001144409	0.745117188	0.167724609	0.649902344	891.82	-137.1379936	4.537838598	-10.20544726	-84
23684	0	-0.031809807	-0.260112762	-0.276805878	0.999999046	-0.000273705	-0.000156403	0.000171661	-0.795245171	-6.502819061	-6.920146942	-0.013685227	-0.00782013	0.008583069	0.747558594	0.167724609	0.655761719	891.82	-137.1690599	4.552554747	-10.20480159	-84
23685	0	-0.032592773	-0.258850098	-0.278808594	0.999999046	-0.00037384	-0.000102043	0.000202179	-0.814819336	-6.471252441	-6.970214844	-0.018692017	-0.005102158	0.010108948	0.747802734	0.165527344	0.650146484	891.82	-137.2122647	4.565167116	-10.21036451	-84
23686	0	-0.031534195	-0.258569717	-0.277104378	0.999999046	-0.000167847	1.71661E-05	0.000190735	-0.788354874	-6.464242935	-6.927609444	-0.008392334	0.000858307	0.009536743	0.742919922	0.165771484	0.653320313	891.84	-137.2325832	4.566894071	-10.22512751	-84
23687	0	-0.032165527	-0.259094238	-0.277709961	0.999999046	0.000141144	-0.000136375	1.52588E-05	-0.804138184	-6.477355957	-6.942749023	0.00705719	-0.006818771	0.000762939	0.745361328	0.163330078	0.65625	891.9	-137.2154073	4.567941725	-10.21377825	-84
23688	0	-0.031517982	-0.258867264	-0.277750969	0.999999046	0.000193596	-1.33514E-05	-3.14713E-05	-0.787949562	-6.471681595	-6.943774223	0.009679794	-0.000667572	-0.001573563	0.745117188	0.165527344	0.653076172	891.82	-137.1927354	4.555029236	-10.20707423	-84
23689	0	-0.031677246	-0.25970459	-0.278320313	0.999999046	1.90735E-05	-6.77109E-05	4.19617E-05	-0.791931152	-6.492614746	-6.958007813	0.000953674	-0.003385544	0.002098083	0.745117188	0.165527344	0.656005859	891.84	-137.1902736	4.552438512	-10.20284573	-83
23690	0	-0.031433105	-0.260375977	-0.277893066	0.999999046	-1.90735E-05	-0.000164032	0.000213623	-0.785827637	-6.509399414	-6.94732666	-0.000953674	-0.008201599	0.010681152	0.745361328	0.163330078	0.650390625	891.78	-137.1927518	4.571334906	-10.20490172	-83
23691	0	-0.031616211	-0.259399414	-0.277709961	0.999999046	-0.000328064	-0.000132561	0.00031662	-0.790405273	-6.484985352	-6.942749023	-0.016403199	-0.006628037	0.015830994	0.747802734	0.163330078	0.650146484	891.84	-137.2315746	4.595629936	-10.21785029	-83
23692	0	-0.032403946	-0.258464813	-0.277443886	0.999999046	-0.00051403	-1.90735E-05	0.000324249	-0.810098648	-6.461620331	-6.936097145	-0.025701524	-0.000953674	0.016212464	0.745361328	0.163330078	0.653320313	891.84	-137.2925318	4.611018635	-10.24097744	-83
23693	0	-0.031982422	-0.25793457	-0.277709961	0.999999046	-0.00043869	0.000145912	0.000289917	-0.799560547	-6.448364258	-6.942749023	-0.02193451	0.007295609	0.01449585	0.742919922	0.163330078	0.650390625	891.88	-137.3457242	4.609855506	-10.27349885	-83
23694	0	-0.03217411	-0.257856369	-0.277580261	0.999999046	-0.000261307	2.47955E-05	0.000277519	-0.80435276	-6.446409225	-6.939506531	-0.013065338	0.001239777	0.013875962	0.745361328	0.161132813	0.653564453	891.76	-137.3777904	4.617962843	-10.29629498	-83
23695	0	-0.031982422	-0.257568359	-0.278076172	0.999999046	-7.62939E-05	-8.29697E-05	0.000190735	-0.799560547	-6.439208984	-6.951904297	-0.003814697	-0.004148483	0.009536743	0.747802734	0.161132813	0.65625	891.84	-137.3874496	4.628447512	-10.30357104	-83
23696	0	-0.032126427	-0.258306503	-0.278597832	0.999998093	0.000125885	-7.72476E-05	4.86374E-05	-0.803160667	-6.457662582	-6.964945793	0.006294251	-0.003862381	0.00243187	0.745361328	0.161132813	0.650634766	891.84	-137.3730513	4.627452918	-10.29840436	-83
23697	0	-0.032348633	-0.257873535	-0.278381348	0.999999046	-0.000171661	-6.00815E-05	0.000125885	-0.80871582	-6.446838379	-6.959533691	-0.008583069	-0.003004074	0.006294251	0.747802734	0.161132813	0.653320313	891.72	-137.39344	4.631046881	-10.30147506	-83
23698	0	-0.03263092	-0.257953644	-0.2787714	0.999999046	-8.96454E-05	-0.000127792	0.000224113	-0.81577301	-6.448841095	-6.969285011	-0.004482269	-0.006389618	0.011205673	0.745361328	0.161132813	0.656494141	891.84	-137.4047343	4.648023396	-10.30841965	-83
23699	0	-0.032409668	-0.257202148	-0.276306152	0.999999046	-3.8147E-05	-1.43051E-05	5.72205E-05	-0.810241699	-6.430053711	-6.907653809	-0.001907349	-0.000715256	0.002861023	0.743164063	0.161132813	0.650634766	891.84	-137.4096961	4.642525462	-10.30894704	-82
23700	0	-0.032569885	-0.256811142	-0.278095245	1	2.86102E-05	-1.81198E-05	-7.24792E-05	-0.814247131	-6.420278549	-6.952381134	0.001430511	-0.000905991	-0.003623962	0.745361328	0.161132813	0.653564453	891.88	-137.4061668	4.627339229	-10.29876462	-82
23701	0	-0.031494141	-0.257202148	-0.277404785	0.999999046	-4.19617E-05	-0.000121117	0.000125885	-0.787353516	-6.430053711	-6.935119629	-0.002098084	-0.006055832	0.006294251	0.745361328	0.161132813	0.653564453	891.84	-137.4114649	4.63622395	-10.29737336	-82
23702	0	-0.032115936	-0.258696556	-0.278700829	0.999999046	7.62939E-05	1.90735E-06	0.000208855	-0.802898407	-6.467413902	-6.967520714	0.003814697	9.53674E-05	0.010442734	0.745361328	0.161132813	0.656494141	891.82	-137.4045708	4.641184592	-10.31318322	-83
23703	0	-0.033081055	-0.256896973	-0.278503418	0.999999046	-0.000110626	-9.05991E-05	0.000205994	-0.827026367	-6.422424316	-6.962585449	-0.005531311	-0.004529953	0.010299683	0.747558594	0.163330078	0.656005859	891.82	-137.4185767	4.653798775	-10.32057274	-82
23704	0	-0.03275013	-0.256883621	-0.2780056	1	5.72205E-05	2.86102E-06	4.48227E-05	-0.818753242	-6.42209053	-6.950139999	0.002861023	0.000143051	0.002241135	0.745361328	0.161132813	0.653564453	891.78	-137.4128888	4.646079748	-10.32188709	-83
23705	0	-0.032043457	-0.257751465	-0.278930664	0.999999046	8.01086E-05	-1.43051E-05	-2.67029E-05	-0.801086426	-6.443786621	-6.973266602	0.004005432	-0.000715256	-0.001335144	0.747802734	0.161132813	0.653320313	891.84	-137.4040366	4.634272489	-10.31561043	-83
23706	0	-0.032343864	-0.257615089	-0.278217316	0.999999046	0.000331879	-0.000133514	-1.14441E-05	-0.808596611	-6.440377235	-6.955432892	0.016593933	-0.00667572	-0.000572205	0.747558594	0.163330078	0.656005859	891.84	-137.3657269	4.633730515	-10.30177202	-83
23707	0	-0.032287598	-0.257568359	-0.277099609	0.999999046	0.000118256	-4.86374E-05	-3.43323E-05	-0.807189941	-6.439208984	-6.927490234	0.005912781	-0.00243187	-0.001716614	0.745361328	0.161132813	0.656494141	891.88	-137.3522875	4.624281826	-10.29360121	-83
23708	0	-0.032176018	-0.258003235	-0.278622627	0.999999046	-6.77109E-05	-0.000118256	6.10352E-05	-0.804400444	-6.450080872	-6.965565681	-0.003385544	-0.005912781	0.003051758	0.747802734	0.160888672	0.650390625	891.82	-137.3604268	4.628125763	-10.28623615	-83
23709	0	-0.032958984	-0.257629395	-0.27746582	0.999999046	3.05176E-05	2.00272E-05	4.19617E-05	-0.823974609	-6.440734863	-6.936645508	0.001525879	0.001001358	0.002098083	0.745361328	0.161132813	0.653564453	891.88	-137.3580711	4.618897818	-10.28920361	-84
23710	0	-0.033031464	-0.25788784	-0.276535988	0.999999046	0.000173569	2.09808E-05	4.19617E-05	-0.825786591	-6.447196007	-6.913399696	0.008678436	0.001049042	0.002098084	0.745361328	0.161132813	0.653564453	891.84	-137.3393111	4.609662106	-10.2922748	-84
23711	0	-0.032043457	-0.25769043	-0.276123047	0.999999046	0.000354767	-4.86374E-05	-0.000133514	-0.801086426	-6.442260742	-6.903076172	0.017738343	-0.00243187	-0.00667572	0.745361328	0.161132813	0.656494141	891.82	-137.2981436	4.592685621	-10.27606364	-84
23712	0	-0.032917976	-0.259178162	-0.277767181	0.999999046	0.000222206	-4.19617E-05	-2.67029E-05	-0.822949409	-6.479454041	-6.944179535	0.011110306	-0.002098084	-0.001335144	0.747558594	0.163330078	0.656005859	891.84	-137.2729327	4.583503549	-10.26836983	-84
23713	0	-0.032226563	-0.259460449	-0.27746582	0.999999046	3.8147E-05	-6.77109E-05	7.24792E-05	-0.805664063	-6.48651123	-6.936645508	0.001907349	-0.003385544	0.003623962	0.745361328	0.163330078	0.647460938	891.72	-137.2693093	4.584228687	-10.26504343	-84
23714	0	-0.032241821	-0.258195877	-0.277441978	0.999999046	-0.000141144	9.91821E-05	0.000144958	-0.806045532	-6.454896927	-6.936049461	-0.00705719	0.004959106	0.007247925	0.745361328	0.163330078	0.65625	891.9	-137.2877913	4.576575817	-10.28346879	-84
23715	0	-0.032104492	-0.257263184	-0.277404785	0.999999046	-4.19617E-05	6.58035E-05	7.24792E-05	-0.802612305	-6.43157959	-6.935119629	-0.002098084	0.003290176	0.003623962	0.745361328	0.163330078	0.65625	891.88	-137.2942698	4.566129731	-10.29301295	-84
23716	0	-0.03247261	-0.257540703	-0.277980804	0.999999046	8.58307E-06	4.57764E-05	-4.19617E-05	-0.811815262	-6.43851757	-6.949520111	0.000429153	0.002288818	-0.002098083	0.745361328	0.161132813	0.653564453	891.82	-137.2941277	4.548526707	-10.29117128	-85
23717	0	-0.031921387	-0.258300781	-0.278808594	0.999999046	0.000144958	-0.000109673	2.67029E-05	-0.798034668	-6.457519531	-6.970214844	0.007247925	-0.005483627	0.001335144	0.742919922	0.163330078	0.653320313	891.9	-137.277921	4.549371375	-10.28271647	-85
23718	0	-0.031935692	-0.258563042	-0.27579689	0.999999046	0.000118256	3.05176E-05	0.00014019	-0.798392296	-6.464076042	-6.894922256	0.005912781	0.001525879	0.007009506	0.745361328	0.161132813	0.656494141	891.84	-137.2663547	4.547269644	-10.29612974	-85
23719	0	-0.032287598	-0.258789063	-0.276672363	0.999999046	3.05176E-05	-8.67844E-05	2.67029E-05	-0.807189941	-6.469726563	-6.916809082	0.001525879	-0.004339218	0.001335144	0.745361328	0.163330078	0.65625	891.82	-137.2633386	4.546262722	-10.28995042	-85
23720	0	-0.032167435	-0.257766724	-0.276773453	0.999999046	-7.15256E-05	-5.34058E-05	0.00018692	-0.804185867	-6.444168091	-6.919336319	-0.003576279	-0.002670288	0.009346008	0.745361328	0.161132813	0.656494141	891.78	-137.2733188	4.554946779	-10.30059154	-85
