Counter	Temperature	VelInc_X	VelInc_Y	VelInc_Z	OriInc_w	OriInc_x	OriInc_y	OriInc_z	Acc_X	Acc_Y	Acc_Z	Gyr_X	Gyr_Y	Gyr_Z	Mag_X	Mag_Y	Mag_Z	Pressure	Roll	Pitch	Yaw	RSSI
4165	0	0.38067627	-0.074584961	0.066894531	0.999999046	-0.000923157	0.000172615	-7.63E-06	9.516906738	-1.864624023	1.672363281	-0.046157844	0.008630754	-0.00038147	-0.668212891	-0.041992188	-0.740478516	895.94	-46.11090289	-74.97924331	52.69578594	-68
4166	0	0.379737854	-0.07336235	0.067926407	0.999999046	-0.000606537	7.63E-06	-0.000103951	9.49344635	-1.834058762	1.698160172	-0.030326845	0.00038147	-0.005197525	-0.670654297	-0.041992188	-0.737548828	895.86	-46.11930553	-74.98974869	52.64029119	-69
4167	0	0.37878418	-0.07409668	0.06842041	0.999999046	-0.000576019	-8.30E-05	0.00012207	9.469604492	-1.852416992	1.710510254	-0.028800966	-0.004148484	0.006103516	-0.668212891	-0.041992188	-0.737548828	895.84	-46.2193539	-74.98884225	52.683868	-69
4168	0	0.379387856	-0.073292732	0.069126129	0.999999046	-0.000531197	-0.000110626	5.63E-05	9.484696388	-1.832318306	1.728153229	-0.026559831	-0.005531311	0.002813339	-0.670654297	-0.037597656	-0.743652344	895.86	-46.30342171	-74.99563659	52.70795833	-69
4169	0	0.38067627	-0.073669434	0.069580078	0.999999046	-0.001045227	-4.86E-05	-0.000110626	9.516906738	-1.84173584	1.739501953	-0.052261362	-0.00243187	-0.005531312	-0.670654297	-0.037597656	-0.740722656	895.9	-46.37798809	-75.01141742	52.66491438	-72
4170	0	0.38368988	-0.07574749	0.0709095	0.999999046	-0.000677109	-7.63E-05	-0.000344276	9.592247009	-1.893687248	1.772737503	-0.033855442	-0.003814698	-0.017213823	-0.668457031	-0.035644531	-0.743896484	896	-46.34986896	-75.04874236	52.55422628	-70
4171	0	0.378479004	-0.074523926	0.073181152	0.999999046	-0.00037384	-2.57E-05	-0.000377655	9.461975098	-1.863098145	1.829528809	-0.018692017	-0.00128746	-0.018882752	-0.668457031	-0.037597656	-0.738037109	895.86	-46.26056618	-75.08466362	52.42218497	-70
4172	0	0.378600121	-0.074537277	0.072433472	0.999999046	-0.000523567	0.000181198	-0.000225067	9.465003014	-1.863431931	1.810836792	-0.026178362	0.009059907	-0.011253358	-0.666015625	-0.035644531	-0.743896484	895.94	-46.16890255	-75.09137141	52.26399995	-70
4173	0	0.381164551	-0.075378418	0.071472168	0.999999046	-0.000694275	0.000226021	-0.000240326	9.52911377	-1.884460449	1.786804199	-0.034713749	0.011301042	-0.012016298	-0.668457031	-0.035400391	-0.73828125	895.86	-46.07828488	-75.09563078	52.09091183	-70
4174	0	0.378666878	-0.076575279	0.069460869	0.999999046	-0.0007267	0.000177383	-9.25E-05	9.466671944	-1.914381981	1.736521721	-0.036334995	0.008869172	-0.004625321	-0.668457031	-0.035400391	-0.735351563	895.76	-46.05111811	-75.09142281	51.98261579	-71
4175	0	0.379394531	-0.076477051	0.066955566	0.999999046	-0.00044632	0.000161171	2.29E-05	9.484863281	-1.91192627	1.67388916	-0.02231598	0.008058548	0.001144409	-0.666259766	-0.033447266	-0.741210938	895.9	-46.03223614	-75.07898464	51.91055631	-72
4176	0	0.379551888	-0.076310158	0.066459656	0.999999046	-0.000525475	8.77E-05	-0.000153542	9.488797188	-1.907753944	1.661491394	-0.026273729	0.004386902	-0.007677079	-0.668457031	-0.033447266	-0.744140625	895.94	-45.99336594	-75.08696843	51.80945962	-72
4177	0	0.379089355	-0.077087402	0.065490723	0.999999046	-0.000465393	-0.000132561	-0.000232697	9.477233887	-1.927185059	1.637268066	-0.023269654	-0.006628037	-0.011634827	-0.666259766	-0.033447266	-0.741210938	895.84	-45.99314898	-75.11904332	51.75602998	-72
4178	0	0.379203796	-0.077280045	0.06763649	0.999999046	-0.000411987	-0.000169754	-7.72E-05	9.48009491	-1.932001114	1.690912247	-0.020599366	-0.008487702	-0.003862381	-0.668457031	-0.033203125	-0.73828125	895.86	-46.04571541	-75.1412142	51.76576002	-72
4179	0	0.37878418	-0.078430176	0.06842041	0.999999046	-0.000102997	-0.000163078	0.000171661	9.469604492	-1.960754395	1.710510254	-0.005149841	-0.008153915	0.008583069	-0.666259766	-0.033447266	-0.735595703	895.84	-46.13628781	-75.14217178	51.85229406	-73
4180	0	0.380550385	-0.076134682	0.06962204	0.999999046	0.000224113	-0.00028801	0.00026226	9.513759613	-1.903367043	1.740550995	0.011205674	-0.014400483	0.013113022	-0.668457031	-0.033203125	-0.741210938	895.84	-46.2557123	-75.14543968	52.00547378	-72
4181	0	0.380126953	-0.075927734	0.069274902	0.999999046	0.000202179	-0.000121117	0.000331879	9.503173828	-1.898193359	1.731872559	0.010108948	-0.006055832	0.016593934	-0.668457031	-0.033203125	-0.73828125	895.84	-46.34652666	-75.12960335	52.12753093	-73
4182	0	0.384796143	-0.071760178	0.072749138	0.999999046	-0.000289917	6.48E-05	0.000289917	9.619903564	-1.79400444	1.818728447	-0.01449585	0.003242493	0.01449585	-0.668701172	-0.031005859	-0.738525391	895.86	-46.42209971	-75.10254824	52.1727745	-74
4183	0	0.379516602	-0.072998047	0.071289063	0.999999046	0.000862122	0.000199318	-0.000148773	9.487915039	-1.824951172	1.782226563	0.043106085	0.009965898	-0.007438661	-0.668701172	-0.031005859	-0.741455078	895.86	-46.1928723	-75.10119762	52.03540424	-75
4184	0	0.377990723	-0.072631836	0.067810059	0.999999046	0.00098896	0.000347137	-0.000160217	9.449768066	-1.815795898	1.695251465	0.049448023	0.017356876	-0.008010866	-0.668457031	-0.033447266	-0.744140625	895.82	-45.90001185	-75.08896954	51.84802056	-75
4185	0	0.382353783	-0.074487686	0.065605164	0.999998093	0.000252724	0.000301361	6.29E-05	9.558844566	-1.862192154	1.640129089	0.012636185	0.015068055	0.003147125	-0.666015625	-0.035644531	-0.741210938	895.82	-45.7736141	-75.06204236	51.74964203	-75
4186	0	0.379868507	-0.074792862	0.066511154	0.999999046	0.000310898	1.91E-05	8.77E-05	9.496712685	-1.869821548	1.662778854	0.015544892	0.000953674	0.004386902	-0.666015625	-0.035644531	-0.73828125	895.78	-45.73574038	-75.05571144	51.75004616	-75
4187	0	0.378845215	-0.069335938	0.071044922	0.999999046	-0.000526428	8.11E-05	0.000213623	9.471130371	-1.733398438	1.776123047	-0.026321413	0.004053116	0.010681153	-0.666015625	-0.037841797	-0.740966797	895.82	-45.81168792	-75.03421283	51.77452847	-75
4188	0	0.379228592	-0.074578285	0.070965767	0.999999046	-0.001158714	0.000156403	0.000155449	9.480714798	-1.86445713	1.774144173	-0.057935728	0.007820131	0.007772447	-0.666015625	-0.035644531	-0.741210938	895.84	-45.91942916	-75.01143578	51.75627488	-75
4189	0	0.380004883	-0.07623291	0.07208252	0.999999046	0.000823975	0.000184059	-0.00037384	9.50012207	-1.905822754	1.802062988	0.041198736	0.009202958	-0.018692019	-0.668701172	-0.031005859	-0.741455078	895.84	-45.63355801	-75.02977458	51.55409899	-75
4190	0	0.381225586	-0.073974609	0.06817627	0.999999046	0.000556946	0.000164032	-0.000530243	9.530639648	-1.849365234	1.704406738	0.027847293	0.0082016	-0.026512149	-0.666015625	-0.035644531	-0.746826172	895.9	-45.33702392	-75.06233529	51.31247664	-75
4191	0	0.380363464	-0.073976517	0.070859909	0.999998093	-0.000407219	0.000146866	-0.000336647	9.509086609	-1.849412918	1.771497726	-0.020360948	0.007343293	-0.016832353	-0.666015625	-0.035644531	-0.746826172	895.9	-45.21398883	-75.08027039	51.13657644	-75
4192	0	0.379202843	-0.074602127	0.073092461	0.999999046	-0.000844002	0.000226974	9.82E-05	9.480071068	-1.865053177	1.827311516	-0.042200094	0.011348726	0.004911423	-0.663818359	-0.035644531	-0.741210938	895.9	-45.24805822	-75.05619293	51.07558719	-75
4193	0	0.379150391	-0.076293945	0.073059082	0.999999046	-0.000495911	0.000359535	-6.48E-05	9.478759766	-1.907348633	1.826477051	-0.024795534	0.017976762	-0.003242493	-0.663574219	-0.035644531	-0.744140625	895.86	-45.15287356	-75.03448209	50.92251875	-76
4194	0	0.382405281	-0.077352524	0.071059227	0.999999046	0.000350952	0.000339508	-0.000331879	9.560132027	-1.933813095	1.776480675	0.017547608	0.016975404	-0.016593934	-0.663818359	-0.035644531	-0.741210938	895.86	-44.88675392	-75.03581287	50.69241438	-75
4195	0	0.382507324	-0.074523926	0.072875977	0.999999046	0.001155853	0.0001688	-0.000469208	9.562683105	-1.863098145	1.821899414	0.057792679	0.00844002	-0.023460394	-0.663574219	-0.037841797	-0.743896484	895.94	-44.53782612	-75.06172701	50.47075607	-75
4196	0	0.380539894	-0.07619381	0.073973656	0.999998093	0.001739502	-1.43E-05	-6.48E-05	9.513497353	-1.904845238	1.849341393	0.086975142	-0.000715256	-0.003242494	-0.663574219	-0.037841797	-0.741210938	895.76	-44.30061836	-75.06970331	50.42938212	-75
4197	0	0.376220703	-0.072998047	0.072875977	0.999998093	0.001675606	8.77E-05	6.10E-05	9.405517578	-1.824951172	1.821899414	0.083780328	0.004386904	0.003051759	-0.661132813	-0.040283203	-0.749511719	895.86	-44.07881987	-75.05909392	50.3922264	-75
4198	0	0.377236366	-0.073592186	0.073493958	0.999999046	0.000606537	0.000305176	0.000166893	9.430909157	-1.839804649	1.837348938	0.030326846	0.01525879	0.008344651	-0.665527344	-0.044433594	-0.74609375	895.84	-43.94762086	-75.02199188	50.3328065	-74
4199	0	0.377990723	-0.073669434	0.072692871	0.999999046	0.000843048	0.000130653	0.00018692	9.449768066	-1.84173584	1.817321777	0.04215241	0.00653267	0.009346009	-0.665527344	-0.044433594	-0.74609375	895.84	-43.84793919	-74.99760773	50.33199641	-75
4200	0	0.375869751	-0.070755005	0.074496269	0.999999046	0.000544548	4.20E-05	0.000144958	9.396743774	-1.768875122	1.862406731	0.027227403	0.002098084	0.007247925	-0.663330078	-0.044433594	-0.746337891	895.86	-43.79550927	-74.98383412	50.34232325	-74
4201	0	0.379882813	-0.072143555	0.074890137	0.999999046	0.00082016	-4.86E-05	3.05E-05	9.497070313	-1.803588867	1.872253418	0.041008	-0.00243187	0.001525879	-0.660888672	-0.044433594	-0.743652344	895.82	-43.70278921	-74.98657965	50.34108961	-73
4202	0	0.379702568	-0.072166443	0.07490921	0.999999046	0.000947952	6.29E-05	-5.82E-05	9.492564201	-1.804161072	1.872730255	0.047397621	0.003147126	-0.002908707	-0.660644531	-0.048828125	-0.74609375	895.86	-43.53488862	-74.98702383	50.28208991	-73
4203	0	0.379455566	-0.069763184	0.073730469	0.999998093	0.001389503	1.91E-05	8.77E-05	9.48638916	-1.74407959	1.843261719	0.069475196	0.000953675	0.004386903	-0.663085938	-0.048828125	-0.743164063	895.86	-43.37422939	-74.97963376	50.28120635	-73
4204	0	0.378768921	-0.065785408	0.072034836	0.999999046	0.000458717	4.58E-05	0.000281334	9.469223022	-1.644635201	1.800870895	0.022935868	0.002288818	0.014066697	-0.663085938	-0.048828125	-0.748779297	895.9	-43.37191538	-74.95503266	50.3309445	-73
4205	0	0.37902832	-0.067932129	0.07220459	0.999999046	-0.000980377	0.000462532	0.000404358	9.475708008	-1.698303223	1.805114746	-0.049018871	0.023126607	0.0202179	-0.660644531	-0.051025391	-0.748779297	895.82	-43.45022651	-74.8862276	50.30146368	-73
4206	0	0.382748604	-0.069607735	0.073946953	0.999999046	-0.000595093	0.000228882	8.68E-05	9.568715096	-1.740193367	1.84867382	-0.029754641	0.011444093	0.004339218	-0.663085938	-0.048828125	-0.751708984	895.82	-43.45444255	-74.86202973	50.23863632	-73
4207	0	0.380065918	-0.067565918	0.074584961	0.999999046	-0.001045227	8.11E-05	-0.000415802	9.501647949	-1.689147949	1.864624023	-0.052261364	0.004053117	-0.020790105	-0.663085938	-0.048828125	-0.745849609	895.78	-43.39795604	-74.88986828	50.06399071	-73
4208	0	0.377674103	-0.074363708	0.073207855	0.999999046	-0.000452995	7.63E-06	-0.000515938	9.44185257	-1.859092712	1.830196381	-0.022649767	0.00038147	-0.025796892	-0.663330078	-0.046630859	-0.743164063	895.82	-43.26400747	-74.93154755	49.87590534	-73
4209	0	0.378723145	-0.073120117	0.074768066	0.999999046	0.000591278	-0.00026226	-0.000591278	9.468078613	-1.82800293	1.86920166	0.029563908	-0.013113024	-0.029563908	-0.660644531	-0.048828125	-0.74609375	895.78	-43.06472058	-75.00145241	49.74237853	-73
4210	0	0.376467705	-0.073505402	0.072764397	0.999999046	0.000232697	-0.000299454	-0.000556946	9.411692619	-1.83763504	1.819109917	0.011634828	-0.014972688	-0.027847292	-0.660644531	-0.048828125	-0.74609375	895.78	-42.92731048	-75.07160173	49.62771969	-72
4211	0	0.377319336	-0.071533203	0.073852539	0.999999046	0.000267029	-0.000323296	-4.96E-05	9.432983398	-1.788330078	1.846313477	0.013351441	-0.01616478	-0.002479553	-0.663085938	-0.051025391	-0.742919922	895.9	-42.95228049	-75.10405002	49.69066954	-72
4212	0	0.380486488	-0.071762085	0.073765755	0.999999046	-0.000468254	-0.000282288	0.000282288	9.512162209	-1.794052124	1.844143867	-0.023412706	-0.014114381	0.014114381	-0.663085938	-0.051025391	-0.742919922	895.9	-43.15444369	-75.10703604	49.8514806	-72
4213	0	0.37902832	-0.073974609	0.073364258	0.999999046	-8.01E-05	-0.000330925	0.000179291	9.475708008	-1.849365234	1.834106445	-0.004005432	-0.01654625	0.008964539	-0.665283203	-0.051025391	-0.745605469	895.94	-43.29476565	-75.1219338	49.99435115	-72
4214	0	0.378746986	-0.07101059	0.074687958	0.999999046	-4.20E-05	-0.00041008	0.000266075	9.46867466	-1.77526474	1.867198944	-0.002098084	-0.020503999	0.013303757	-0.665527344	-0.048828125	-0.745849609	895.86	-43.4815304	-75.1364226	50.18547726	-72
4215	0	0.381286621	-0.070861816	0.076721191	0.999999046	0.000617981	-0.000330925	9.54E-05	9.532165527	-1.77154541	1.918029785	0.03089905	-0.016546251	0.004768372	-0.665283203	-0.051025391	-0.745605469	895.86	-43.51542185	-75.15759521	50.29905696	-72
4216	0	0.384009361	-0.066447258	0.075632095	0.999999046	0.001166344	-0.000162125	-0.000107765	9.600234032	-1.66118145	1.890802383	0.058317198	-0.008106234	-0.005388261	-0.663085938	-0.051025391	-0.739990234	895.78	-43.37147886	-75.18086198	50.29077959	-72
4217	0	0.381347656	-0.06854248	0.070739746	0.999999046	0.000354767	4.29E-05	0.000392914	9.533691406	-1.713562012	1.768493652	0.017738343	0.002145767	0.019645692	-0.665283203	-0.053222656	-0.745361328	895.86	-43.4169384	-75.14780086	50.38547676	-72
4218	0	0.380493164	-0.069828987	0.072041512	0.999999046	0.000867844	-0.000238419	0.00056076	9.512329102	-1.745724678	1.801037788	0.04339219	-0.011920931	0.02803803	-0.665283203	-0.053222656	-0.742675781	895.84	-43.53944826	-75.12493854	50.62019731	-71
4219	0	0.379150391	-0.059997559	0.072143555	0.999998093	0.001851082	-0.000339508	7.25E-05	9.478759766	-1.499938965	1.803588867	0.092554147	-0.016975413	0.003623965	-0.665283203	-0.053222656	-0.745361328	895.84	-43.42489471	-75.14936412	50.7191089	-72
4220	0	0.381081581	-0.06357193	0.071875572	0.999999046	-0.000630379	0.000146866	-0.000172615	9.527039528	-1.589298248	1.796889305	-0.031518939	0.007343293	-0.008630753	-0.665039063	-0.055419922	-0.745361328	895.9	-43.37242118	-75.15291184	50.5941848	-72
4221	0	0.37902832	-0.068969727	0.069335938	0.999999046	4.96E-05	-1.81E-05	0.00025177	9.475708008	-1.724243164	1.733398438	0.002479553	-0.000905991	0.012588501	-0.665039063	-0.055419922	-0.745361328	895.84	-43.42462606	-75.13694409	50.65849672	-72
4222	0	0.378569603	-0.066163063	0.070059776	0.999999046	8.20E-05	-0.000207901	0.000415802	9.464240074	-1.654076576	1.751494408	0.0041008	-0.01039505	0.020790101	-0.665283203	-0.055419922	-0.739501953	895.9	-43.58050324	-75.12400922	50.83692041	-72
4223	0	0.379516602	-0.066040039	0.073242188	0.999999046	-0.000614166	-0.000308037	0.000114441	9.487915039	-1.651000977	1.831054688	-0.030708315	-0.015401841	0.005722046	-0.665039063	-0.055419922	-0.745361328	895.78	-43.75111208	-75.14322068	50.94716479	-72
4224	0	0.379546165	-0.068720818	0.073655128	0.999999046	-0.000844002	-0.000198364	-0.000179291	9.488654137	-1.718020439	1.841378212	-0.042200094	-0.009918214	-0.00896454	-0.665283203	-0.051025391	-0.745605469	895.86	-43.823476	-75.17660776	50.92122044	-72
4225	0	0.382202148	-0.072387695	0.072875977	0.999999046	0.000156403	-0.000144005	-0.00030899	9.555053711	-1.809692383	1.821899414	0.00782013	-0.007200241	-0.015449524	-0.665283203	-0.053222656	-0.742675781	895.76	-43.72441326	-75.21571608	50.84068564	-72
4226	0	0.380862236	-0.070299149	0.071749687	0.999999046	-2.29E-05	-0.000261307	-0.000228882	9.521555901	-1.757478714	1.79374218	-0.001144409	-0.013065338	-0.011444092	-0.667724609	-0.052978516	-0.739746094	895.86	-43.70603775	-75.2581919	50.82314239	-72
4227	0	0.379333496	-0.071289063	0.072631836	0.999999046	-9.16E-05	-0.000197411	-0.0001297	9.483337402	-1.782226563	1.815795898	-0.004577637	-0.009870529	-0.006484985	-0.665283203	-0.055419922	-0.742431641	895.82	-43.70758649	-75.28743885	50.82041843	-72
4228	0	0.380111694	-0.070349693	0.071674347	0.999999046	0.000237465	-0.000144958	1.05E-05	9.502792358	-1.758742332	1.791858673	0.011873245	-0.007247925	0.000524521	-0.667480469	-0.055175781	-0.7421875	895.84	-43.69996099	-75.30122683	50.84667631	-71
4229	0	0.385131836	-0.071655273	0.071655273	0.999999046	0.000259399	-6.68E-06	-0.000152588	9.628295898	-1.791381836	1.791381836	0.012969971	-0.000333786	-0.007629395	-0.667480469	-0.055175781	-0.7421875	895.82	-43.59681248	-75.31645377	50.77533654	-71
4230	0	0.377829552	-0.069915771	0.073271751	0.999999046	0.000141144	-0.000106812	0.00030899	9.445738792	-1.747894287	1.831793785	0.00705719	-0.005340576	0.015449524	-0.667480469	-0.055175781	-0.7421875	895.84	-43.6832871	-75.30338331	50.88612818	-71
4231	0	0.376953125	-0.070068359	0.07208252	0.999999046	0.000125885	-1.81E-05	0.000453949	9.423828125	-1.751708984	1.802062988	0.006294251	-0.000905991	0.02269745	-0.665283203	-0.053222656	-0.742675781	895.86	-43.79024628	-75.27137813	51.01173335	-71
4232	0	0.37933445	-0.069052696	0.072328568	0.999999046	-0.000174522	8.39E-05	0.000224113	9.483361244	-1.726317406	1.808214188	-0.00872612	0.004196167	0.011205673	-0.667480469	-0.055175781	-0.7421875	895.94	-43.82804269	-75.24913518	51.03664621	-72
4233	0	0.380065918	-0.070007324	0.071655273	0.999999046	-0.00018692	5.05E-05	0.000259399	9.501647949	-1.750183105	1.791381836	-0.009346008	0.002527237	0.012969971	-0.665283203	-0.055419922	-0.739501953	895.86	-43.88831954	-75.2268616	51.08507147	-72
4234	0	0.378619194	-0.068887711	0.070934296	0.999999046	-9.92E-05	8.20E-05	0.00038147	9.465479851	-1.722192764	1.773357391	-0.004959107	0.0041008	0.019073487	-0.667724609	-0.05078125	-0.745605469	895.9	-43.96700479	-75.19234091	51.15321497	-71
4235	0	0.378723145	-0.0703125	0.069458008	0.999999046	-0.000473022	-1.81E-05	0.000202179	9.468078613	-1.7578125	1.736450195	-0.023651124	-0.000905991	0.010108948	-0.667724609	-0.05078125	-0.742675781	895.78	-44.06283555	-75.18040678	51.19790557	-71
4236	0	0.380588531	-0.071936607	0.069802284	0.999999046	-4.77E-06	-9.54E-05	-9.25E-05	9.514713287	-1.798415184	1.745057106	-0.000238419	-0.004768372	-0.00462532	-0.665283203	-0.053222656	-0.739746094	895.84	-44.03694664	-75.19835033	51.17680582	-71
4237	0	0.380004883	-0.071044922	0.068725586	0.999999046	-0.000160217	-0.000227928	-0.000164032	9.50012207	-1.776123047	1.718139648	-0.008010864	-0.011396408	-0.008201599	-0.667724609	-0.05078125	-0.745605469	895.82	-44.04699175	-75.23300378	51.16771089	-71
4238	0	0.37975502	-0.070699692	0.070725441	0.999999046	0.000141144	-0.000204086	0.00014019	9.493875504	-1.767492294	1.768136024	0.00705719	-0.010204315	0.007009506	-0.667724609	-0.05078125	-0.739746094	895.84	-44.11054559	-75.24146459	51.25164479	-71
4239	0	0.379943848	-0.068359375	0.069824219	0.999999046	-0.000583649	-0.000155449	0.000217438	9.498596191	-1.708984375	1.745605469	-0.029182436	-0.007772446	0.010871888	-0.665527344	-0.048828125	-0.739990234	895.82	-44.26649842	-75.23984929	51.34221646	-72
4240	0	0.383656502	-0.072759628	0.070168495	0.999999046	-0.000649452	-3.81E-06	-8.77E-05	9.591412544	-1.818990707	1.754212379	-0.032472613	-0.000190735	-0.004386902	-0.667724609	-0.048583984	-0.742919922	895.82	-44.28932774	-75.25018575	51.28834836	-71
4241	0	0.377990723	-0.070617676	0.071228027	0.999999046	-0.000324249	-0.000155449	1.53E-05	9.449768066	-1.765441895	1.780700684	-0.016212464	-0.007772446	0.000762939	-0.665527344	-0.051025391	-0.739990234	895.86	-44.35306803	-75.2646911	51.32132865	-71
4242	0	0.37801075	-0.069699287	0.07088089	0.999999046	-0.000370026	1.72E-05	0.000350952	9.450268745	-1.742482185	1.772022247	-0.018501283	0.000858307	0.017547608	-0.66796875	-0.048583984	-0.737060547	895.82	-44.47379617	-75.23814771	51.40697368	-71
4243	0	0.381896973	-0.068725586	0.070068359	0.999999046	-0.000488281	3.15E-05	7.63E-06	9.547424316	-1.718139648	1.751708984	-0.024414063	0.001573563	0.00038147	-0.665771484	-0.046630859	-0.737304688	895.94	-44.49680667	-75.23810977	51.37381267	-71
4244	0	0.38164711	-0.070202827	0.068557739	0.999999046	-0.000882149	0.000143051	1.14E-05	9.54117775	-1.755070686	1.713943481	-0.044107443	0.007152558	0.000572205	-0.667724609	-0.048583984	-0.745605469	895.82	-44.532356	-75.228781	51.31145828	-71
4245	0	0.38067627	-0.068725586	0.071166992	0.999999046	-0.001152039	0.000161171	0.000228882	9.516906738	-1.718139648	1.779174805	-0.057601942	0.00805855	0.011444094	-0.66796875	-0.044189453	-0.74609375	895.82	-44.66020607	-75.20058148	51.30764374	-72
4246	0	0.378849983	-0.071872711	0.071855545	0.999999046	-0.001102448	0.000179291	9.92E-05	9.47124958	-1.79681778	1.796388626	-0.055122387	0.00896454	0.004959107	-0.665771484	-0.042236328	-0.740722656	895.84	-44.73665811	-75.18129296	51.25736223	-72
4247	0	0.380737305	-0.072875977	0.070617676	0.999999046	9.92E-05	5.44E-05	-0.000274658	9.518432617	-1.821899414	1.765441895	0.004959107	0.002717972	-0.01373291	-0.665771484	-0.042236328	-0.740722656	895.82	-44.59850912	-75.20226241	51.1264108	-71
4248	0	0.379118919	-0.068809509	0.070304871	0.999999046	-0.000349998	-3.62E-05	-0.000283241	9.477972984	-1.720237732	1.757621765	-0.017499924	-0.001811981	-0.014162064	-0.665771484	-0.044433594	-0.743408203	895.82	-44.53615784	-75.23134901	51.02438136	-71
4249	0	0.380493164	-0.074890137	0.073303223	0.999999046	-0.000484467	5.44E-05	-0.000114441	9.512329102	-1.872253418	1.832580566	-0.024223329	0.002717972	-0.005722046	-0.66796875	-0.041992188	-0.743408203	895.78	-44.51392105	-75.2392323	50.94491997	-72
4250	0	0.379464149	-0.072612762	0.069671631	0.999999046	0.000196457	6.29E-05	0.000110626	9.486603737	-1.815319061	1.741790771	0.009822846	0.003147125	0.005531311	-0.665771484	-0.042236328	-0.746337891	895.82	-44.48123368	-75.2283042	50.93339058	-72
4251	0	0.380493164	-0.073242188	0.069946289	0.999999046	0.000148773	-1.81E-05	-0.000152588	9.512329102	-1.831054688	1.748657227	0.00743866	-0.000905991	-0.007629395	-0.665771484	-0.042236328	-0.740722656	895.9	-44.39746368	-75.24508685	50.86450425	-72
4252	0	0.378441811	-0.071702003	0.071784019	0.999999046	0.000454903	-0.000152588	-0.00025177	9.461045265	-1.792550087	1.794600487	0.022745134	-0.007629395	-0.012588502	-0.663330078	-0.044433594	-0.743408203	895.82	-44.28841837	-75.28072112	50.80584998	-71
4253	0	0.378234863	-0.072631836	0.069030762	0.999999046	0.000778198	3.15E-05	4.58E-05	9.455871582	-1.815795898	1.725769043	0.038909916	0.001573563	0.002288819	-0.665771484	-0.042236328	-0.746337891	895.84	-44.17953833	-75.27739725	50.77872542	-72
4254	0	0.38048172	-0.070668221	0.068736076	0.999999046	0.000471115	-4.58E-05	0.000278473	9.512042999	-1.766705513	1.718401909	0.023555757	-0.002288818	0.013923646	-0.665771484	-0.044433594	-0.743408203	895.84	-44.20239351	-75.26190854	50.8563874	-72
4255	0	0.380737305	-0.070129395	0.06817627	0.999999046	0.000247955	-0.00014782	0.000247955	9.518432617	-1.753234863	1.704406738	0.012397766	-0.007390976	0.012397766	-0.665527344	-0.046630859	-0.743164063	895.86	-44.27251978	-75.25734604	50.96070109	-72
4256	0	0.380235672	-0.068758011	0.069988251	0.999999046	-7.92E-05	-0.0001297	0.000232697	9.5058918	-1.718950272	1.749706268	-0.003957748	-0.006484985	0.011634827	-0.665771484	-0.044433594	-0.743408203	895.9	-44.36964933	-75.2525827	51.05025024	-72
4257	0	0.378723145	-0.0703125	0.069580078	0.999999046	-4.96E-05	-0.000185966	-9.16E-05	9.468078613	-1.7578125	1.739501953	-0.002479553	-0.009298325	-0.004577637	-0.66796875	-0.044189453	-0.74609375	895.82	-44.37968573	-75.27843333	51.05234334	-70
4258	0	0.379371643	-0.071166039	0.068209648	0.999999046	5.91E-05	-0.000141144	-0.000195503	9.484291077	-1.779150963	1.705241203	0.00295639	-0.00705719	-0.009775162	-0.66796875	-0.044189453	-0.743164063	895.82	-44.33149731	-75.30899833	51.00730475	-69
4259	0	0.379638672	-0.070739746	0.070129395	0.999999046	-0.000286102	-0.000201225	-0.000102997	9.490966797	-1.768493652	1.753234863	-0.014305115	-0.010061264	-0.005149841	-0.66796875	-0.044189453	-0.740234375	895.9	-44.37015599	-75.33707338	51.01260657	-69
4260	0	0.38224411	-0.069480896	0.06987381	0.999999046	-0.000544548	-0.000169754	0.00019455	9.556102753	-1.7370224	1.746845245	-0.027227403	-0.008487702	0.009727479	-0.665771484	-0.044433594	-0.743408203	895.78	-44.52191013	-75.33877114	51.10447248	-69
4261	0	0.38067627	-0.071166992	0.07043457	0.999999046	-0.000465393	0.000153542	1.14E-05	9.516906738	-1.779174805	1.760864258	-0.023269654	0.007677079	0.000572205	-0.665527344	-0.046630859	-0.743164063	895.86	-44.50818723	-75.32871097	51.04079928	-69
4262	0	0.381323814	-0.070325851	0.070363045	0.999999046	-0.000545502	0.000148773	-7.34E-05	9.53309536	-1.758146286	1.759076118	-0.027275087	0.00743866	-0.003671646	-0.665771484	-0.042236328	-0.743408203	895.86	-44.47858052	-75.32586803	50.94359827	-70
4263	0	0.377746582	-0.069824219	0.069824219	0.999999046	-0.000469208	0.000100136	-2.67E-05	9.443664551	-1.745605469	1.745605469	-0.023460389	0.00500679	-0.001335144	-0.665771484	-0.042236328	-0.740722656	895.84	-44.46968796	-75.3232525	50.87931597	-71
4264	0	0.378956795	-0.071944237	0.069221497	0.999999046	-0.000451088	5.15E-05	0.000247002	9.473919868	-1.798605919	1.730537415	-0.022554399	0.002574921	0.012350083	-0.665527344	-0.044433594	-0.74609375	895.84	-44.55933099	-75.30260754	50.92352343	-72
4265	0	0.381835938	-0.07019043	0.069274902	0.999999046	-0.000400543	0.000100136	0.000171661	9.545898438	-1.754760742	1.731872559	-0.020027161	0.00500679	0.008583069	-0.665771484	-0.042236328	-0.740722656	895.84	-44.60473777	-75.28411977	50.92716492	-72
4266	0	0.381308556	-0.070989609	0.072039604	0.999999046	-0.001058578	-3.81E-05	0.000182152	9.53271389	-1.774740219	1.800990105	-0.052928935	-0.001907349	0.009107591	-0.665771484	-0.040039063	-0.740722656	895.86	-44.7708343	-75.27600556	50.97664938	-70
4267	0	0.379699707	-0.073791504	0.073547363	0.999999046	-0.000591278	-1.43E-05	6.10E-05	9.492492676	-1.844787598	1.838684082	-0.029563906	-0.000715256	0.003051758	-0.665771484	-0.040039063	-0.743652344	895.86	-44.83838492	-75.27549658	50.98039889	-71
4268	0	0.379508972	-0.072518349	0.070519447	0.999999046	8.58E-06	7.44E-05	0.000102997	9.487724304	-1.812958717	1.762986183	0.000429153	0.00371933	0.005149841	-0.666015625	-0.037841797	-0.740966797	895.84	-44.82301469	-75.26432696	50.96616427	-69
4269	0	0.38092041	-0.074035645	0.069213867	0.999999046	0.000247955	-5.63E-05	-0.000148773	9.523010254	-1.850891113	1.73034668	0.012397766	-0.002813339	-0.00743866	-0.665771484	-0.037841797	-0.746582031	895.78	-44.7429628	-75.28405387	50.90991232	-70
4270	0	0.37948513	-0.072728157	0.071464539	0.999999046	0.000537872	-0.00018692	-9.16E-05	9.487128258	-1.818203926	1.786613464	0.026893617	-0.009346009	-0.004577637	-0.668212891	-0.040039063	-0.746337891	895.82	-44.68742393	-75.30968312	50.91695636	-70
4271	0	0.381530762	-0.06854248	0.07019043	0.999999046	0.000770569	-6.01E-05	-0.000152588	9.538269043	-1.713562012	1.754760742	0.038528446	-0.003004074	-0.007629395	-0.668212891	-0.040039063	-0.746337891	895.84	-44.54670103	-75.32998054	50.86055552	-71
4272	0	0.380522728	-0.0698452	0.069519043	0.999999046	0.000315666	2.10E-05	-0.000161171	9.513068199	-1.74612999	1.737976074	0.01578331	0.001049042	-0.008058548	-0.665771484	-0.042236328	-0.743408203	895.84	-44.43025479	-75.34436609	50.77848424	-70
4273	0	0.383056641	-0.073181152	0.068725586	0.999999046	0.000343323	-1.81E-05	-2.29E-05	9.576416016	-1.829528809	1.718139648	0.017166138	-0.000905991	-0.001144409	-0.665771484	-0.042236328	-0.746337891	895.78	-44.36637158	-75.35082915	50.75166641	-71
4274	0	0.38019371	-0.069696426	0.072359085	0.999999046	0.000656128	-0.000179291	1.14E-05	9.504842758	-1.74241066	1.808977127	0.032806399	-0.008964539	0.000572205	-0.665771484	-0.044433594	-0.743408203	895.92	-44.32636417	-75.36769383	50.78997532	-71
4275	0	0.378051758	-0.071411133	0.070251465	0.999999046	0.000808716	-6.77E-05	9.92E-05	9.451293945	-1.78527832	1.756286621	0.040435796	-0.003385544	0.004959107	-0.66796875	-0.044189453	-0.743164063	895.82	-44.2623456	-75.36832491	50.81965601	-71
4276	0	0.381158829	-0.072715759	0.070438385	0.999999046	0.001057625	0.000137329	0.000144005	9.528970718	-1.817893982	1.760959625	0.052881251	0.006866456	0.007200242	-0.665527344	-0.046630859	-0.740234375	895.86	-44.12151526	-75.34846288	50.80166102	-70
4277	0	0.379699707	-0.07019043	0.070129395	0.999999046	0.000530243	-0.000136375	0.000217438	9.492492676	-1.754760742	1.753234863	0.026512148	-0.006818772	0.010871888	-0.66796875	-0.044189453	-0.740234375	895.86	-44.14789023	-75.34525429	50.88871865	-70
4278	0	0.379138947	-0.070707321	0.071076393	0.999999046	0.000549316	1.14E-05	0.000349998	9.478473663	-1.767683029	1.776909828	0.027465822	0.000572205	0.017499925	-0.66796875	-0.046386719	-0.742919922	895.86	-44.1685196	-75.31925514	50.97489256	-69
4279	0	0.378479004	-0.068786621	0.070678711	0.999999046	9.92E-05	4.67E-05	0.000255585	9.461975098	-1.719665527	1.766967773	0.004959107	0.002336502	0.012779236	-0.665527344	-0.046630859	-0.743164063	895.92	-44.19996471	-75.29792283	51.01864064	-69
4280	0	0.379961014	-0.072813034	0.068652153	0.999999046	0.000266075	-9.35E-05	0.00012207	9.499025345	-1.820325851	1.716303825	0.013303757	-0.004673004	0.006103516	-0.66796875	-0.046386719	-0.740234375	895.92	-44.21372443	-75.29876612	51.0648867	-70
4281	0	0.381286621	-0.071777344	0.069335938	0.999999046	0.000587463	-8.30E-05	-6.10E-05	9.532165527	-1.794433594	1.733398438	0.029373171	-0.004148484	-0.003051758	-0.665527344	-0.048828125	-0.745849609	895.9	-44.13043918	-75.31339608	51.04849019	-70
4282	0	0.381184578	-0.070059776	0.07222271	0.999999046	0.000423431	-8.01E-05	0.000350952	9.529614449	-1.751494408	1.805567741	0.021171571	-0.004005432	0.017547608	-0.667724609	-0.048583984	-0.745605469	895.86	-44.19392091	-75.2948711	51.16446466	-70
4283	0	0.380126953	-0.069030762	0.071350098	0.999999046	0.00050354	-2.86E-06	0.000320435	9.503173828	-1.725769043	1.783752441	0.025177003	-0.000143051	0.016021729	-0.665527344	-0.048828125	-0.739990234	895.84	-44.21464339	-75.27245064	51.24666661	-70
4284	0	0.379410744	-0.069448471	0.069280624	0.999999046	0.00023365	5.72E-05	0.000384331	9.485268593	-1.736211777	1.73201561	0.011682511	0.002861023	0.019216538	-0.667724609	-0.048583984	-0.742919922	895.9	-44.26779852	-75.24006485	51.33007843	-69
4285	0	0.382385254	-0.070983887	0.070617676	0.999999046	0.00025177	-2.96E-05	0.000247955	9.559631348	-1.774597168	1.765441895	0.012588501	-0.001478195	0.012397766	-0.667724609	-0.048583984	-0.742919922	895.96	-44.30259796	-75.22573138	51.39642979	-69
4286	0	0.377960205	-0.069426537	0.071483612	0.999999046	8.01E-05	8.39E-05	0.000239372	9.449005127	-1.735663414	1.787090302	0.004005432	0.004196167	0.011968613	-0.665283203	-0.051025391	-0.742675781	895.78	-44.31956368	-75.20277984	51.42847397	-69
4287	0	0.379272461	-0.071044922	0.071533203	0.999999046	0.000587463	3.53E-05	0.000541687	9.481811523	-1.776123047	1.788330078	0.029373172	0.001764298	0.027084353	-0.66796875	-0.046386719	-0.740234375	895.86	-44.38654438	-75.15956454	51.5644872	-69
4288	0	0.379375458	-0.068930626	0.07182312	0.999999046	0.000376701	-2.67E-05	0.000457764	9.484386444	-1.723265648	1.795578003	0.018835069	-0.001335144	0.022888185	-0.667724609	-0.048583984	-0.745605469	895.86	-44.46952653	-75.12816045	51.69448447	-69
4289	0	0.379760742	-0.071166992	0.0703125	0.999999046	0.000183105	9.54E-07	0.000480652	9.494018555	-1.779174805	1.7578125	0.009155274	4.77E-05	0.024032594	-0.66796875	-0.046386719	-0.742919922	895.82	-44.57294726	-75.09264932	51.81999025	-69
4290	0	0.378778458	-0.069248199	0.069543839	0.999999046	0.000473022	4.77E-05	0.000609398	9.469461441	-1.731204987	1.738595963	0.023651125	0.002384186	0.030469897	-0.667724609	-0.048583984	-0.742919922	895.9	-44.66768491	-75.04304426	51.97559185	-69
4291	0	0.379821777	-0.067138672	0.069824219	0.999999046	0.000198364	-2.19E-05	0.000583649	9.495544434	-1.678466797	1.745605469	0.009918214	-0.001096726	0.029182436	-0.667724609	-0.048583984	-0.742919922	895.86	-44.80570697	-75.0013297	52.14431665	-68
4292	0	0.380477905	-0.067920685	0.072274208	0.999999046	0.000407219	-0.000108719	0.000274658	9.511947632	-1.69801712	1.806855202	0.020360948	-0.005435944	0.013732911	-0.665527344	-0.046630859	-0.74609375	895.86	-44.85096909	-74.99169202	52.23476308	-68
4293	0	0.37902832	-0.067626953	0.070068359	0.999999046	5.72E-05	2.77E-05	9.54E-05	9.475708008	-1.690673828	1.751708984	0.002861023	0.001382828	0.004768372	-0.665527344	-0.048828125	-0.742919922	895.86	-44.84036442	-74.98565638	52.23180184	-68
4294	0	0.379560471	-0.069583893	0.070218086	0.999999046	0.00021553	-3.24E-05	6.87E-05	9.489011765	-1.739597321	1.755452156	0.01077652	-0.001621246	0.003433228	-0.665527344	-0.046630859	-0.743164063	895.86	-44.82140905	-74.98679031	52.23371963	-69
4295	0	0.379150391	-0.068054199	0.068786621	0.999999046	5.72E-05	-6.77E-05	3.43E-05	9.478759766	-1.70135498	1.719665527	0.002861023	-0.003385544	0.001716614	-0.66796875	-0.046386719	-0.740234375	895.9	-44.82058686	-74.99379078	52.23725418	-69
4296	0	0.383487701	-0.070148468	0.070206642	0.999999046	-0.000103951	-0.000207901	-8.39E-05	9.587192535	-1.7537117	1.755166054	-0.005197525	-0.01039505	-0.004196167	-0.66796875	-0.048583984	-0.739990234	895.82	-44.84452142	-75.0218899	52.2517227	-69
4297	0	0.378112793	-0.068847656	0.071411133	0.999999046	-0.000213623	-8.30E-05	-0.000240326	9.452819824	-1.721191406	1.78527832	-0.010681153	-0.004148483	-0.012016297	-0.667724609	-0.048583984	-0.742919922	895.9	-44.79521182	-75.05253782	52.17587947	-69
4298	0	0.378646851	-0.071320534	0.070706367	0.999999046	-0.000444412	9.54E-06	-3.81E-05	9.466171265	-1.783013344	1.767659187	-0.022220612	0.000476837	-0.001907349	-0.667724609	-0.048583984	-0.742919922	895.86	-44.80580475	-75.0593371	52.13583846	-69
4299	0	0.380126953	-0.070983887	0.07019043	0.999999046	-0.000579834	0.000119209	-7.25E-05	9.503173828	-1.774597168	1.754760742	-0.028991701	0.005960465	-0.003623963	-0.66796875	-0.046386719	-0.745849609	895.84	-44.78826624	-75.06004072	52.04665382	-69
4300	0	0.377251625	-0.071378708	0.071172714	0.999998093	-0.001348495	0.00039959	0.000270844	9.431290627	-1.784467697	1.779317856	-0.067424797	0.019979484	0.01354218	-0.665527344	-0.048828125	-0.742919922	895.9	-44.87851635	-75.01020451	51.98825894	-69
4301	0	0.379699707	-0.073486328	0.071228027	0.999999046	-0.000873566	0.000416756	0.000213623	9.492492676	-1.837158203	1.780700684	-0.043678291	0.020837787	0.010681154	-0.66796875	-0.044189453	-0.74609375	895.96	-44.89209214	-74.96355925	51.90064621	-69
4302	0	0.379059792	-0.073710442	0.070376396	0.999999046	-0.000984192	0.000339508	3.72E-05	9.476494789	-1.84276104	1.759409904	-0.049209604	0.016975406	0.001859665	-0.663330078	-0.044433594	-0.746337891	895.86	-44.88884531	-74.93742912	51.78413096	-69
4303	0	0.37890625	-0.076965332	0.07232666	0.999999046	-0.000518799	0.00017643	-0.000167847	9.47265625	-1.924133301	1.808166504	-0.025939943	0.008821488	-0.008392334	-0.665771484	-0.040039063	-0.743652344	895.9	-44.82000838	-74.94089867	51.64911554	-69
4304	0	0.378905296	-0.075815201	0.072502136	0.999999046	-0.000159264	3.81E-05	-0.000279427	9.472632408	-1.89538002	1.812553406	-0.007963181	0.001907349	-0.013971329	-0.665771484	-0.040039063	-0.740722656	895.9	-44.71790543	-74.96440769	51.52310338	-69
4305	0	0.380615234	-0.078186035	0.071350098	0.999999046	-0.000453949	9.25E-05	1.53E-05	9.515380859	-1.954650879	1.783752441	-0.02269745	0.004625321	0.000762939	-0.665771484	-0.040039063	-0.746582031	895.9	-44.72326682	-74.95951444	51.47266637	-70
4306	0	0.379256248	-0.076921463	0.072997093	0.999999046	-6.29E-05	-3.62E-05	0.000559807	9.481406212	-1.923036575	1.82492733	-0.003147125	-0.001811981	0.027990343	-0.665771484	-0.040039063	-0.749267578	895.82	-44.88747859	-74.92092258	51.6337393	-70
4307	0	0.379272461	-0.074768066	0.071716309	0.999999046	-0.000133514	2.77E-05	0.001026154	9.481811523	-1.86920166	1.792907715	-0.006675721	0.001382828	0.051307687	-0.663330078	-0.042236328	-0.746337891	895.86	-45.17938982	-74.83910869	51.92640094	-70
4308	0	0.383757591	-0.072952271	0.076966286	0.999999046	-9.06E-05	0.000108719	0.000720978	9.593939781	-1.823806763	1.924157143	-0.004529953	0.005435944	0.036048892	-0.663574219	-0.037841797	-0.746826172	895.82	-45.34801347	-74.77519814	52.08957464	-70
4309	0	0.37878418	-0.07019043	0.074157715	0.999999046	0.000411987	5.82E-05	0.000152588	9.469604492	-1.754760742	1.853942871	0.020599366	0.002908707	0.007629395	-0.663574219	-0.037841797	-0.743896484	895.82	-45.30444783	-74.76168006	52.0928232	-70
4310	0	0.377593994	-0.072628975	0.070292473	0.999999046	0.000385284	0.000236511	0.000258446	9.439849854	-1.815724373	1.757311821	0.019264222	0.011825562	0.012922288	-0.661132813	-0.038085938	-0.746826172	895.86	-45.24208286	-74.72524538	52.07139689	-70
4311	0	0.379150391	-0.074157715	0.069030762	0.999999046	-7.63E-06	-1.05E-05	0.00025177	9.478759766	-1.853942871	1.725769043	-0.00038147	-0.000524521	0.012588501	-0.663574219	-0.037841797	-0.749755859	895.78	-45.29683878	-74.70937927	52.12490917	-70
4312	0	0.378808975	-0.074533463	0.067372322	0.999999046	0.000185966	-4.77E-05	7.53E-05	9.47022438	-1.863336563	1.684308052	0.009298325	-0.002384186	0.003767014	-0.663574219	-0.037841797	-0.746826172	895.84	-45.28908932	-74.71102368	52.13718541	-70
4313	0	0.378173828	-0.072143555	0.069580078	0.999999046	-0.000339508	-0.000178337	0.00018692	9.454345703	-1.803588867	1.739501953	-0.016975403	-0.008916855	0.009346009	-0.661376953	-0.035644531	-0.744140625	895.86	-45.41343901	-74.7142335	52.22069116	-70
4314	0	0.378294945	-0.073190689	0.074765205	0.999998093	-0.001818657	-0.000124931	0.000362396	9.457373619	-1.829767227	1.869130135	-0.090932898	-0.00624657	0.018119822	-0.663574219	-0.037841797	-0.746826172	895.86	-45.74220018	-74.69863944	52.35150778	-70
4315	0	0.378662109	-0.076721191	0.074462891	0.999999046	-0.000328064	8.58E-06	-0.000167847	9.466552734	-1.918029785	1.861572266	-0.016403199	0.000429153	-0.008392334	-0.663818359	-0.03125	-0.747314453	895.92	-45.70465723	-74.71561376	52.26637392	-70
4316	0	0.380883217	-0.07542038	0.07167244	0.999999046	0.000178337	7.25E-05	-0.000442505	9.522080421	-1.885509491	1.791810989	0.008916855	0.003623963	-0.022125245	-0.663574219	-0.033447266	-0.75	895.9	-45.50905284	-74.74990617	52.07941744	-70
4317	0	0.377868652	-0.074584961	0.069519043	0.999999046	-8.39E-05	2.38E-05	-0.000110626	9.446716309	-1.864624023	1.737976074	-0.004196167	0.001192093	-0.005531311	-0.663818359	-0.033447266	-0.744384766	895.86	-45.45568315	-74.76092993	52.01086379	-70
4318	0	0.378796577	-0.07433033	0.069828987	0.999999046	-0.001073837	9.54E-06	2.57E-05	9.469914436	-1.858258247	1.745724678	-0.053691874	0.000476837	0.001287461	-0.663574219	-0.035644531	-0.747070313	895.82	-45.56048211	-74.76201605	51.9955054	-71
4319	0	0.378051758	-0.076843262	0.07208252	0.999999046	-0.000751495	-0.000121117	-0.000270844	9.451293945	-1.921081543	1.802062988	-0.037574772	-0.006055833	-0.013542177	-0.661376953	-0.033691406	-0.744384766	895.86	-45.58040249	-74.79773742	51.92762854	-72
4320	0	0.379083633	-0.069363594	0.073044777	0.999999046	-0.001048088	-0.000123978	-0.000240326	9.477090836	-1.734089851	1.826119423	-0.052404414	-0.006198884	-0.012016299	-0.663574219	-0.033447266	-0.75	895.86	-45.64319115	-74.83131207	51.86996792	-72
4321	0	0.372924805	-0.072998047	0.072570801	0.999998093	-0.001448631	2.29E-05	-0.000713348	9.323120117	-1.824951172	1.81427002	-0.072431596	0.00114441	-0.035667435	-0.666259766	-0.03125	-0.744384766	895.86	-45.56667636	-74.89174735	51.62157447	-72
4322	0	0.375411034	-0.076691628	0.068824768	0.999998093	-0.000559807	-0.000292778	-0.001317024	9.385275841	-1.917290688	1.720619202	-0.027990351	-0.014638906	-0.065851235	-0.663818359	-0.03125	-0.747314453	895.78	-45.30192781	-75.02656988	51.27937324	-72
4323	0	0.377807617	-0.072753906	0.067382813	0.999995232	0.001739502	-0.001349449	-0.002082825	9.44519043	-1.818847656	1.684570313	0.086975231	-0.067472561	-0.104141395	-0.663574219	-0.033447266	-0.75	895.76	-44.85587259	-75.30856151	51.01339547	-73
4324	0	0.377603531	-0.079846382	0.070794106	0.999994278	-0.000411987	-0.001732826	-0.002579689	9.440088272	-1.996159554	1.769852638	-0.020599399	-0.086641454	-0.128984663	-0.666015625	-0.037841797	-0.743896484	895.78	-44.60838112	-75.66105253	50.70290984	-73
4325	0	0.374694824	-0.080993652	0.078918457	0.999993324	-0.001552582	-0.001578331	-0.002662659	9.367370605	-2.024841309	1.972961426	-0.077629245	-0.078916707	-0.133133201	-0.668212891	-0.039794922	-0.740722656	895.82	-44.40259856	-76.0064321	50.30306268	-72
4326	0	0.378811836	-0.085925102	0.09387207	0.999983788	-0.005044937	-0.000957489	-0.002214432	9.470295906	-2.148127556	2.346801758	-0.252248171	-0.0478747	-0.110722165	-0.670654297	-0.039794922	-0.740478516	895.92	-44.5328045	-76.2634203	49.84733515	-71
4327	0	0.378234863	-0.093444824	0.081665039	0.999996185	0.001614571	-0.000873566	-0.001773834	9.455871582	-2.336120605	2.041625977	0.080728619	-0.043678331	-0.088691808	-0.670654297	-0.039794922	-0.737792969	895.84	-44.01141405	-76.47642601	49.49670414	-69
4328	0	0.380245209	-0.080555916	0.077235222	0.999993324	0.002699852	-0.000564575	-0.001962662	9.506130219	-2.013897896	1.930880547	0.134992857	-0.028228814	-0.098133275	-0.672851563	-0.044189453	-0.739990234	895.82	-43.18236279	-76.67682899	48.95295458	-69
4329	0	0.377685547	-0.082946777	0.071105957	0.999995232	0.000888824	-0.001067162	-0.002632141	9.442138672	-2.073669434	1.777648926	0.044441289	-0.053358157	-0.13160725	-0.670166016	-0.05078125	-0.739746094	895.84	-42.46837548	-76.96909881	48.31654522	-69
4330	0	0.374422073	-0.081096649	0.069963455	0.999993324	0.001342773	-0.001422882	-0.002903938	9.360551834	-2.027416229	1.74908638	0.067138809	-0.071144249	-0.145197211	-0.674560547	-0.057128906	-0.736083984	895.92	-41.69091507	-77.30976756	47.67178983	-69
4331	0	0.373352051	-0.079833984	0.078552246	0.999995232	-0.000564575	-0.001429558	-0.002510071	9.33380127	-1.995849609	1.963806152	-0.028228801	-0.071477993	-0.125503721	-0.676757813	-0.061523438	-0.735595703	895.84	-41.25466118	-77.61837812	47.15711416	-69
4332	0	0.376085281	-0.084630013	0.079394341	0.999995232	0.000325203	-0.001558304	-0.002565384	9.402132034	-2.115750313	1.984858513	0.016260172	-0.07791531	-0.12826939	-0.678955078	-0.065673828	-0.732177734	895.86	-40.71570715	-77.93988829	46.64332466	-73
4333	0	0.371948242	-0.07989502	0.077941895	0.999993324	0.000804901	-0.001582146	-0.003116608	9.298706055	-1.997375488	1.948547363	0.040245142	-0.079107454	-0.155830717	-0.681396484	-0.067871094	-0.729003906	895.9	-39.86950691	-78.3016493	45.86637079	-82
4334	0	0.376862526	-0.08298111	0.074993134	0.999992371	0.000481606	-0.001885414	-0.003349304	9.421563148	-2.07452774	1.874828339	0.024080337	-0.094270942	-0.167465629	-0.681152344	-0.074462891	-0.722900391	895.86	-39.01880394	-78.70343578	45.05152327	-73
4335	0	0.370483398	-0.078491211	0.073791504	0.999988556	0.001770973	-0.002254486	-0.003684998	9.262084961	-1.962280273	1.844787598	0.088548982	-0.112724714	-0.184250547	-0.685546875	-0.083007813	-0.721923828	895.92	-37.93761085	-79.15813934	44.15555415	-67
4336	0	0.371144295	-0.07678318	0.072152138	0.99998951	0.00118351	-0.002342224	-0.003733635	9.278607368	-1.919579506	1.803803444	0.059175697	-0.117111613	-0.186682395	-0.6875	-0.089355469	-0.718505859	895.86	-36.85128994	-79.61954926	43.18634668	-66
4337	0	0.374328613	-0.075744629	0.07232666	0.999985695	0.001438141	-0.002631187	-0.004314423	9.358215332	-1.893615723	1.808166504	0.071907374	-0.131559977	-0.215722123	-0.691894531	-0.097900391	-0.714599609	895.9	-35.44437707	-80.14159544	41.92461548	-67
4338	0	0.370079041	-0.070580482	0.070649147	0.999985695	0.000896454	-0.002841949	-0.004416466	9.251976013	-1.764512062	1.766228676	0.044822905	-0.142098145	-0.220824333	-0.694091797	-0.104492188	-0.711181641	895.92	-33.98007341	-80.6831056	40.54204768	-76
4339	0	0.366149902	-0.068481445	0.070129395	0.999983788	0.000793457	-0.003035545	-0.004600525	9.153747559	-1.712036133	1.753234863	0.039673057	-0.151778052	-0.230027434	-0.696044922	-0.11328125	-0.713134766	895.84	-32.3194602	-81.2468493	38.95154907	-72
4340	0	0.362214088	-0.068583488	0.06853199	0.999980927	-0.000112534	-0.003190041	-0.005155563	9.055352211	-1.714587212	1.713299751	-0.005626713	-0.159503007	-0.257779747	-0.702636719	-0.123779297	-0.708984375	895.92	-30.23071573	-81.84882942	36.83460045	-67
4341	0	0.361694336	-0.067871094	0.06463623	0.999976158	0.00025177	-0.003470421	-0.005809784	9.042358398	-1.696777344	1.615905762	0.012588597	-0.173522368	-0.290491417	-0.707275391	-0.130126953	-0.696777344	895.9	-27.38503006	-82.49975572	33.99809236	-79
4342	0	0.360136032	-0.063231468	0.069375038	0.999972343	0.000133514	-0.003965378	-0.006206512	9.003400803	-1.580786705	1.734375954	0.006675781	-0.198270684	-0.310328429	-0.708984375	-0.143310547	-0.698486328	895.96	-23.8769214	-83.19748476	30.49179851	-69
4343	0	0.357727051	-0.061950684	0.06439209	0.999969482	-0.001238823	-0.003822327	-0.006645203	8.94317627	-1.54876709	1.609802246	-0.061941769	-0.191118254	-0.332263471	-0.713623047	-0.149658203	-0.689208984	895.82	-19.27272634	-83.86444914	25.72894344	-65
4344	0	0.351965904	-0.064582825	0.062944412	0.999967575	-0.001846313	-0.004014015	-0.00669384	8.799147606	-1.614570618	1.573610306	-0.092316664	-0.200702912	-0.33469559	-0.718017578	-0.158203125	-0.688232422	895.9	-13.66401839	-84.50225032	19.89548794	-81
4345	0	0.344421387	-0.06439209	0.061157227	0.999962807	-0.001270294	-0.004725456	-0.007061005	8.610534668	-1.609802246	1.528930664	-0.063515491	-0.236275718	-0.353054575	-0.720214844	-0.164550781	-0.678955078	895.84	-6.216929266	-85.15530406	12.28652451	-66
4346	0	0.339579582	-0.063181877	0.059801102	0.999952316	-0.001441002	-0.005135536	-0.008137703	8.489489555	-1.579546928	1.495027542	-0.072051232	-0.256780861	-0.406891568	-0.727050781	-0.175292969	-0.669189453	895.86	4.98333709	-85.73707704	0.905371463	-77
4347	0	0.337219238	-0.062255859	0.05859375	0.999938965	-0.002566338	-0.005325317	-0.009326935	8.430480957	-1.556396484	1.46484375	-0.128319487	-0.266271281	-0.466356219	-0.728759766	-0.190673828	-0.670654297	895.82	20.81010005	-86.08235239	-15.22380835	-65
4348	0	0.335116386	-0.070208549	0.062166214	0.999925613	-0.002532959	-0.006085396	-0.010253906	8.37790966	-1.755213737	1.55415535	-0.126651086	-0.304277326	-0.51270801	-0.733154297	-0.198974609	-0.658447266	895.86	40.05163086	-86.08377918	-34.77214399	-70
4349	0	0.350341797	-0.136413574	0.068969727	0.999853134	0.014847755	-0.006134033	-0.005893707	8.758544922	-3.410339355	1.724243164	0.742424007	-0.30671663	-0.294699747	-0.737304688	-0.216308594	-0.651123047	895.84	55.37973988	-86.06592661	-48.43000006	-75
4350	0	0.30556488	-0.116293907	0.11066246	0.999494553	0.029824257	-0.004836082	0.009842873	7.639122009	-2.907347679	2.766561508	1.491463919	-0.241844835	0.492226493	-0.745361328	-0.250976563	-0.636230469	895.86	54.62279171	-87.322728	-44.21437269	-72
4351	0	0.330322266	-0.149291992	0.188354492	0.998459816	0.049232483	-0.00083065	0.025554657	8.258056641	-3.732299805	4.708862305	2.462888533	-0.041553849	1.278389143	-0.756835938	-0.268066406	-0.611572266	895.92	-24.41476611	-88.43810897	40.52950203	-74
4352	0	0.387231827	-0.122424126	0.382752419	0.99760437	0.054185867	0.018877983	0.038635254	9.68079567	-3.060603142	9.568810463	2.711458769	0.944653567	1.933306658	-0.772705078	-0.291503906	-0.591552734	895.82	-50.68696806	-83.75719753	73.18562056	-75
4353	0	0.231994629	-0.092407227	0.401367188	0.997693062	0.036834717	0.044243813	0.035961151	5.799865723	-2.310180664	10.03417969	1.843153085	2.213892944	1.79944119	-0.765625	-0.28515625	-0.609619141	895.96	-41.492085	-77.17294876	68.38767879	-68
4354	0	7.06E-05	0.030529976	0.333001137	0.997582436	0.030986786	0.057943344	0.022576332	0.001764297	0.763249397	8.325028419	1.550588532	2.899503201	1.129726773	-0.718017578	-0.278564453	-0.669921875	895.96	-31.41367022	-70.17564418	61.87044984	-73
4355	0	-0.241516113	0.289428711	0.226379395	0.99792099	-0.005713463	0.064064026	-0.004051208	-6.037902832	7.235717773	5.659484863	-0.285871258	3.205422734	-0.202700902	-0.643554688	-0.294677734	-0.735351563	895.86	-23.06761425	-63.721509	52.6038096	-70
4356	0	-0.167581558	0.105070114	-0.103851318	0.99581337	-0.066217422	0.059018135	-0.022091866	-4.189538956	2.626752853	-2.596282959	-3.315499454	2.955031883	-1.106137409	-0.530029297	-0.27734375	-0.831542969	896.02	-21.7196446	-58.29619609	43.26880875	-79
4357	0	0.233154297	-0.794555664	-0.510559082	0.999065399	-0.028834343	0.028938293	0.014102936	5.828857422	-19.8638916	-12.76397705	-1.442166317	1.447365461	0.705366479	-0.421386719	-0.156738281	-0.915771484	895.86	-25.3211101	-54.51399885	43.99988934	-72
4358	0	2.859145164	1.45456028	-0.234278679	0.997319221	0.072078705	0.008293152	0.009466171	71.47862911	36.364007	-5.856966972	3.60715876	0.415028481	0.473731911	-0.409912109	-0.203125	-0.915527344	895.82	-17.90298854	-53.25539278	44.98767302	-72
4359	0	1.518676758	-0.925842285	0.62322998	0.995004654	-0.053931236	0.082519531	0.015686035	37.96691895	-23.14605713	15.58074951	-2.701060149	4.132859412	0.78561011	-0.355712891	-0.198486328	-0.944580078	896.06	-22.33265308	-43.77865339	43.37211582	-73
4360	0	-0.019425392	-0.151636124	0.679029465	0.995788574	0.013414383	0.027403831	-0.086445808	-0.485634804	-3.790903091	16.97573662	0.671662148	1.372118003	-4.328367369	-0.202880859	-0.193115234	-0.993164063	895.92	-10.80545586	-43.60106768	29.04792328	-77
4361	0	0.234680176	-0.044372559	0.598754883	0.995545387	0.059295654	-0.0398283	-0.061531067	5.867004395	-1.109313965	14.96887207	2.969192375	-1.994376949	-3.081129246	-0.145751953	-0.271728516	-0.989990234	895.96	3.038123912	-48.64738112	18.97529239	-75
4362	0	0.111270905	0.437162399	0.422277451	0.998135567	0.030218124	-0.024925232	-0.046798706	2.781772614	10.92905998	10.55693626	1.511845695	-1.247036517	-2.341390266	-0.202148438	-0.400634766	-0.936279297	896	13.29087807	-50.69627797	10.08711529	-73
4363	0	-0.015563965	0.259399414	0.477905273	0.997817993	-0.028540611	0.031574249	-0.050468445	-0.389099121	6.484985352	11.94763184	-1.428069236	1.579861538	-2.525258929	-0.177001953	-0.449462891	-0.913574219	896	15.33534064	-45.70016829	3.365315198	-77
4364	0	-0.086322784	-0.143382072	0.06172657	0.997046471	-0.050209999	0.034662247	-0.046638489	-2.158069611	-3.584551811	1.543164253	-2.512974207	1.734820425	-2.334222694	-0.066894531	-0.374755859	-0.962890625	896	13.51204724	-40.45994173	-2.029558209	-70
4365	0	0.15234375	-0.092956543	-0.016906738	0.998758316	-0.005965233	0.028926849	-0.040111542	3.80859375	-2.323913574	-0.422668457	-0.298385126	1.446941268	-2.006407415	0.022216797	-0.314453125	-0.984130859	895.96	15.68626857	-36.04415732	-6.51713508	-81
4366	0	0.331029892	0.017876625	-0.035037041	0.999423027	-0.005613327	0.021568298	-0.025609016	8.275747299	0.446915627	-0.875926018	-0.280720292	1.078622174	-1.280696907	0.103271484	-0.295410156	-0.984375	895.9	16.51199468	-32.82487568	-9.010844316	-85
4367	0	0.298706055	0.116638184	0.326171875	0.999369621	0.025344849	0.023545265	0.007972717	7.467651367	2.91595459	8.154296875	1.267508768	1.177510685	0.398719646	0.138671875	-0.305175781	-0.974121094	895.9	18.38602566	-30.49911057	-7.089654559	-76
4368	0	0.670360565	0.190340042	0.409381866	0.998287201	0.050815582	0.026064873	0.012619019	16.75901413	4.758501053	10.23454666	2.542229948	1.303987815	0.631311213	0.183105469	-0.372070313	-0.939453125	895.92	22.86881368	-28.20552894	-4.476191936	-72
4369	0	0.49786377	0.489807129	0.369384766	0.99890995	0.042221069	0.019093513	-0.005607605	12.44659424	12.24517822	9.234619141	2.111820752	0.955022662	-0.280482156	0.233398438	-0.474121094	-0.888183594	895.96	27.55533122	-25.95363734	-4.140278014	-73
4370	0	0.255680084	0.33910656	0.082710266	0.999651909	0.024522781	0.001026154	0.00966835	6.392002106	8.477663994	2.067756653	1.226281324	0.051313631	0.483473597	0.263183594	-0.533935547	-0.850585938	895.92	29.89959606	-26.39033513	-3.000880467	-73
4371	0	0.172119141	0.302490234	0.200500488	0.999940872	-0.005290031	-0.005241394	0.007923126	4.302978516	7.562255859	5.012512207	-0.264506784	-0.262074867	0.396164118	0.245849609	-0.570556641	-0.829589844	895.84	29.09024556	-27.36729423	-2.334009224	-72
4372	0	0.213242531	0.219304085	0.35471344	0.998793602	-0.047820091	0.008882523	0.00670433	5.331063271	5.482602119	8.867835999	-2.391966235	0.444304759	0.335351348	0.235839844	-0.546142578	-0.851074219	895.96	23.07411432	-26.79797028	-0.816392949	-73
4373	0	0.210754395	0.081542969	0.347290039	0.998419762	-0.054222107	0.014592171	0.002231598	5.268859863	2.038574219	8.682250977	-2.7125343	0.729993094	0.111638706	0.248779297	-0.448486328	-0.894042969	895.84	16.50498088	-25.32109822	0.294351151	-73
4374	0	0.184613228	0.036744118	0.355390549	0.999625206	-0.025505066	0.009914398	-0.000108719	4.615330696	0.918602943	8.884763718	-1.275412504	0.495781798	-0.005436622	0.276123047	-0.359863281	-0.928466797	895.9	13.48859032	-24.23251981	0.697607508	-74
4375	0	0.156066895	0.051330566	0.327331543	0.999970436	-0.004112244	0.00640583	0.000541687	3.901672363	1.28326416	8.183288574	-0.205614178	0.320294628	0.027084613	0.291259766	-0.327636719	-0.934814453	895.98	12.95011198	-23.54478993	0.974179056	-73
4376	0	0.139858246	0.100599289	0.322297096	0.999945641	-0.009068489	0.000879288	0.00505352	3.496456146	2.514982224	8.057427406	-0.453432657	0.043965181	0.252680582	0.300292969	-0.323486328	-0.932861328	895.9	11.68902543	-23.58203587	1.664342666	-73
4377	0	0.177185059	0.093322754	0.363830566	0.999876976	-0.014877319	-0.002390862	0.004276276	4.429626465	2.333068848	9.09576416	-0.743896387	-0.119547964	0.213822525	0.294921875	-0.301513672	-0.939941406	895.9	9.828946692	-23.95544455	2.187691262	-73
4378	0	0.187582016	0.01958847	0.403823853	0.999811172	-0.018523216	0.001633644	-0.005508423	4.6895504	0.489711761	10.09559631	-0.92621888	0.081687326	-0.275438411	0.291503906	-0.272949219	-0.950683594	895.9	7.999536582	-23.68566707	1.606750262	-74
4379	0	0.14453125	-0.05255127	0.368835449	0.999910355	0.009732246	0.004302979	-0.008106232	3.61328125	-1.313781738	9.22088623	0.486626834	0.215155343	-0.405323673	0.299804688	-0.242675781	-0.959472656	895.84	9.503392459	-23.06917919	0.655139125	-73
4380	0	0.128112793	0.04888916	0.332946777	0.99930954	0.036708832	3.91E-05	-0.005687714	3.202819824	1.222229004	8.323669434	1.83586397	0.001955482	-0.284451125	0.310302734	-0.275878906	-0.945800781	895.9	14.0043894	-22.94264792	-0.138448469	-73
4381	0	0.167175293	0.140686035	0.349243164	0.999507904	0.030434608	-0.003295898	-0.006732941	4.179382324	3.517150879	8.731079102	1.521979707	-0.164821918	-0.336702182	0.310546875	-0.345703125	-0.92578125	895.9	17.8773017	-23.10344221	-1.117999739	-72
4382	0	0.168318748	0.14051342	0.348418236	0.999825478	0.015842438	-0.003261566	-0.009305	4.207968712	3.512835503	8.710455894	0.792167864	-0.163087774	-0.46527702	0.309570313	-0.387207031	-0.908203125	895.9	20.20158309	-23.11738034	-2.365071711	-73
4383	0	0.16027832	0.11505127	0.330505371	0.999840736	0.015399933	-0.003237724	-0.008358002	4.006958008	2.876281738	8.262634277	0.770037394	-0.161894783	-0.417922202	0.3125	-0.406738281	-0.895263672	896.02	22.43066377	-23.12271684	-3.503663269	-72
4384	0	0.17081356	0.158997536	0.330316544	0.999873161	0.015536308	-0.000747681	-0.003340721	4.270339012	3.974938393	8.257913589	0.776848186	-0.03738561	-0.167043103	0.313476563	-0.430908203	-0.890380859	895.92	24.40161715	-23.05681026	-3.952501119	-72
4385	0	0.169128418	0.202697754	0.308166504	0.99998951	-0.002086639	0.003972054	0.000511169	4.228210449	5.067443848	7.704162598	-0.104332325	0.198603351	0.025558559	0.314208984	-0.452636719	-0.874511719	895.92	24.08993676	-22.67331178	-3.665301803	-72
4386	0	0.15160656	0.1726017	0.315778732	0.999746323	-0.021912575	0.004849434	0.001814842	3.790163994	4.315042496	7.894468307	-1.095721335	0.242492187	0.09074978	0.322998047	-0.437744141	-0.881835938	895.9	21.44007728	-22.24866664	-3.152029222	-72
4387	0	0.152648926	0.108215332	0.352172852	0.99968338	-0.024809837	0.002998352	0.002613068	3.816223145	2.705383301	8.804321289	-1.240622434	0.149933382	0.130667133	0.328613281	-0.394287109	-0.899902344	895.98	18.46165785	-22.03551212	-2.652599743	-73
4388	0	0.14487648	0.07481575	0.353855133	0.999927521	-0.011739731	0.001130104	0.002144814	3.621912003	1.870393753	8.846378326	-0.587000601	0.056506557	0.107243245	0.33203125	-0.359375	-0.911621094	895.9	17.02978595	-21.99493682	-2.321648854	-73
4389	0	0.150024414	0.085571289	0.351196289	0.999996185	0.002030373	-0.001167297	0.000648499	3.750610352	2.139282227	8.779907227	0.101518731	-0.058364926	0.032424959	0.331298828	-0.342041016	-0.915771484	895.96	17.27180525	-22.15267629	-2.296668907	-73
4390	0	0.154717445	0.113841057	0.352329254	0.999968529	0.007369995	-0.002138138	-0.001519203	3.867936134	2.846026421	8.808231354	0.368503514	-0.106907981	-0.075960934	0.329345703	-0.352783203	-0.917724609	896.02	18.23657724	-22.34066289	-2.57199372	-74
4391	0	0.159057617	0.12487793	0.344055176	0.999974251	0.006191254	-0.002036095	-0.002792358	3.97644043	3.121948242	8.601379395	0.309565277	-0.101805586	-0.13961909	0.327392578	-0.365966797	-0.910888672	895.98	19.12381466	-22.4666973	-2.987280707	-73
4392	0	0.164992332	0.131536484	0.344045639	0.999986649	0.0033741	-0.000844002	-0.003660202	4.124808311	3.288412094	8.601140976	0.168705703	-0.042200268	-0.183010879	0.325439453	-0.372314453	-0.91015625	895.9	19.70932866	-22.42593457	-3.453514339	-72
4393	0	0.156066895	0.128601074	0.344909668	0.999993324	-0.000572205	0.000733376	-0.003475189	3.901672363	3.215026855	8.622741699	-0.028610291	0.036668857	-0.173759835	0.330078125	-0.374755859	-0.907470703	895.96	19.80790766	-22.21927268	-3.819306949	-72
4394	0	0.15130806	0.120349884	0.34594059	0.999995232	-0.001804352	0.001234055	-0.001973152	3.782701492	3.008747101	8.648514748	-0.090217721	0.061702817	-0.098657751	0.332275391	-0.368164063	-0.910888672	895.9	19.68934723	-22.01648768	-3.995090455	-73
4395	0	0.152648926	0.12322998	0.342895508	0.999995232	-0.00227356	0.000763893	-0.001583099	3.816223145	3.080749512	8.572387695	-0.113678135	0.038194709	-0.079155077	0.339111328	-0.366210938	-0.908447266	895.96	19.50648026	-21.87973004	-4.136786243	-74
4396	0	0.145222664	0.114912033	0.347060204	0.999996185	-0.002155304	4.10E-05	-0.001329422	3.630566597	2.872800827	8.676505089	-0.107765313	0.002050402	-0.066471171	0.341308594	-0.359863281	-0.912109375	895.9	19.33617768	-21.83078005	-4.283390746	-75
4397	0	0.147033691	0.112670898	0.346069336	0.999998093	0.001343727	-0.000873566	-0.000518799	3.675842285	2.816772461	8.651733398	0.067186387	-0.043678304	-0.025939954	0.341064453	-0.357666016	-0.906738281	895.98	19.54476674	-21.91123719	-4.378584894	-74
4398	0	0.15617466	0.126457214	0.345946312	0.999995232	0.002616882	-0.001163483	-0.000584602	3.904366493	3.161430359	8.648657799	0.130844303	-0.058174216	-0.029230159	0.341308594	-0.357666016	-0.909667969	895.9	19.90667447	-22.01999118	-4.504302061	-74
4399	0	0.151245117	0.131286621	0.344360352	0.999999046	0.000400543	-0.000704765	-0.000843048	3.78112793	3.282165527	8.609008789	0.020027165	-0.035238274	-0.042152414	0.336669922	-0.361816406	-0.908935547	896.02	20.0188669	-22.0684605	-4.634393575	-74
4400	0	0.151893616	0.12217617	0.346061707	0.999999046	-0.000716209	-0.000261307	0.000125885	3.797340393	3.054404259	8.651542664	-0.035810474	-0.013065339	0.006294251	0.339111328	-0.364013672	-0.906005859	896.02	19.95316932	-22.10686431	-4.624456373	-73
4401	0	0.153503418	0.124450684	0.344848633	0.999999046	-0.000911713	-4.10E-05	0.000293732	3.837585449	3.11126709	8.62121582	-0.045585639	-0.0020504	0.014686587	0.336669922	-0.361816406	-0.908935547	895.96	19.85370653	-22.12799987	-4.589300928	-74
4402	0	0.150428772	0.120192528	0.345421791	0.999998093	-0.001479149	3.15E-05	0.00044632	3.760719299	3.004813194	8.635544777	-0.073957473	0.001573563	0.022315988	0.336669922	-0.359619141	-0.909179688	895.92	19.6806759	-22.14696063	-4.532800625	-73
4403	0	0.155212402	0.118041992	0.344116211	0.999999046	0.000995636	-0.000300407	0.000724792	3.880310059	2.951049805	8.602905273	0.049781813	-0.015020375	0.036239634	0.336669922	-0.357421875	-0.915039063	895.96	19.78346797	-22.21254735	-4.469555707	-73
4404	0	0.152861595	0.129313469	0.346329689	0.999999046	-0.000130653	-0.000200272	-0.000701904	3.821539879	3.232836723	8.658242226	-0.00653267	-0.010013581	-0.035095218	0.334228516	-0.359619141	-0.911865234	895.96	19.8182602	-22.21177984	-4.561756166	-73
4405	0	0.151550293	0.121582031	0.344726563	0.999999046	-0.000106812	4.29E-05	-0.000537872	3.788757324	3.039550781	8.618164063	-0.005340576	0.002145767	-0.026893617	0.336669922	-0.357421875	-0.915039063	895.92	19.84415013	-22.1909279	-4.629121379	-73
4406	0	0.155844688	0.122346878	0.344887733	0.999998093	0.001637459	-0.000216484	-5.34E-05	3.89611721	3.058671951	8.622193336	0.081872977	-0.010824208	-0.002670289	0.336425781	-0.357421875	-0.909423828	895.86	20.05224072	-22.21683299	-4.653688997	-73
4407	0	0.150695801	0.127990723	0.343505859	0.999999046	-0.000812531	4.67E-05	0.000133514	3.76739502	3.199768066	8.587646484	-0.04062653	0.002336502	0.006675721	0.336669922	-0.361816406	-0.908935547	895.96	19.96693292	-22.2214257	-4.634414919	-73
4408	0	0.151610374	0.116336823	0.347920418	0.999997139	-0.001763344	-6.68E-05	0.000868797	3.790259361	2.908420563	8.698010445	-0.088167247	-0.003337862	0.043439893	0.336669922	-0.359619141	-0.909179688	896	19.74116658	-22.26665157	-4.532953353	-74
4409	0	0.150878906	0.115539551	0.344055176	0.999997139	0.001205444	-0.000517845	0.001560211	3.771972656	2.88848877	8.601379395	0.060272259	-0.025892276	0.078010613	0.336669922	-0.357421875	-0.915039063	895.96	19.83120919	-22.38711968	-4.382820228	-74
4410	0	0.156229973	0.133705139	0.34405899	0.999999046	-0.000432968	-0.000408173	0.000938416	3.905749321	3.342628479	8.601474762	-0.021648411	-0.020408635	0.046920786	0.334228516	-0.359619141	-0.908935547	895.92	19.75929939	-22.47156709	-4.292855433	-74
4411	0	0.15435791	0.120727539	0.346130371	0.999999046	-0.001125336	0.000237465	0.000217438	3.858947754	3.018188477	8.653259277	-0.056266798	0.011873248	0.01087189	0.334228516	-0.357421875	-0.909179688	895.96	19.62926543	-22.45823785	-4.260355138	-73
4412	0	0.154551506	0.119029999	0.344701767	0.999999046	0.001105309	-0.000101089	8.77E-05	3.863787651	2.975749969	8.617544174	0.055265438	-0.005054475	0.004386903	0.331787109	-0.355224609	-0.912109375	895.86	19.76549969	-22.47634595	-4.267107356	-74
4413	0	0.153442383	0.119934082	0.344177246	0.999999046	0.000511169	-0.00014782	1.14E-05	3.83605957	2.998352051	8.604431152	0.025558473	-0.007390976	0.000572205	0.334228516	-0.359619141	-0.911865234	895.96	19.83732708	-22.49636988	-4.277975854	-73
4414	0	0.153669357	0.119429588	0.3462677	0.999999046	9.16E-05	-0.000133514	0.000488281	3.841733932	2.985739708	8.656692505	0.004577637	-0.006675721	0.024414064	0.33203125	-0.359619141	-0.911865234	895.92	19.83896584	-22.53321393	-4.233614233	-73
4415	0	0.153137207	0.121765137	0.345153809	0.999999046	0.000183105	-0.000407219	0.00088501	3.828430176	3.044128418	8.628845215	0.009155275	-0.02036095	0.044250496	0.33203125	-0.359619141	-0.914550781	895.96	19.837262	-22.61479887	-4.157194567	-73
4416	0	0.155529976	0.123813629	0.345042229	0.999999046	-0.000102043	-0.000209808	0.000812531	3.888249397	3.095340729	8.626055717	-0.005102158	-0.010490419	0.040626531	0.33203125	-0.359619141	-0.908935547	895.9	19.80252621	-22.67213835	-4.077927066	-73
4417	0	0.155273438	0.12322998	0.346740723	0.999999046	-0.000362396	0.000119209	0.000354767	3.881835938	3.080749512	8.668518066	-0.018119813	0.005960465	0.017738343	0.329833984	-0.361572266	-0.914306641	896	19.75284024	-22.67601725	-4.037292508	-73
4418	0	0.154299736	0.119757652	0.344483376	0.999999046	-0.000259399	0.000110626	0.000205994	3.857493401	2.993941307	8.612084389	-0.012969971	0.005531311	0.010299683	0.33203125	-0.361572266	-0.908691406	895.96	19.72134939	-22.67487571	-4.010255608	-73
4419	0	0.154296875	0.118896484	0.344360352	0.999999046	7.25E-05	-0.000201225	0.000389099	3.857421875	2.972412109	8.609008789	0.003623963	-0.010061264	0.019454957	0.33203125	-0.359619141	-0.914550781	895.96	19.7241811	-22.71431353	-3.982079866	-73
4420	0	0.154467583	0.119192123	0.34519577	0.999999046	0.000189781	-0.000165939	0.000208855	3.861689568	2.979803085	8.629894257	0.00948906	-0.008296967	0.010442734	0.329589844	-0.359375	-0.911621094	895.92	19.74755198	-22.7428043	-3.97317263	-72
4421	0	0.155395508	0.121398926	0.344238281	0.999999046	0.000614166	-0.000178337	0.000240326	3.884887695	3.034973145	8.605957031	0.030708315	-0.008916856	0.012016297	0.329589844	-0.361572266	-0.908691406	895.86	19.81801445	-22.77372653	-3.957871851	-73
4422	0	0.155882835	0.123270988	0.343358994	0.999999046	0.000106812	-8.01E-05	0.000190735	3.897070885	3.081774712	8.583974838	0.005340576	-0.004005432	0.009536743	0.33203125	-0.361572266	-0.908691406	895.96	19.83075323	-22.79203322	-3.944446639	-73
4423	0	0.154663086	0.120056152	0.343017578	0.999999046	-0.000190735	-8.30E-05	0.000244141	3.866577148	3.001403809	8.575439453	-0.009536743	-0.004148483	0.012207031	0.329833984	-0.361572266	-0.911376953	895.9	19.80663072	-22.81257983	-3.926091804	-72
4424	0	0.15520668	0.119970322	0.345233917	0.999999046	5.44E-05	-0.000104904	0.000418663	3.880167007	2.999258041	8.630847931	0.002717972	-0.005245209	0.020933152	0.33203125	-0.361816406	-0.914550781	896	19.80260477	-22.84210899	-3.889746586	-73
4425	0	0.155517578	0.120910645	0.344909668	0.999999046	9.16E-05	-0.000136375	0.000362396	3.887939453	3.022766113	8.622741699	0.004577637	-0.006818772	0.018119812	0.329833984	-0.363769531	-0.9140625	895.92	19.80554814	-22.87269036	-3.858416701	-73
4426	0	0.155638695	0.121043205	0.3449049	0.999999046	-1.91E-05	-2.29E-05	0.00012207	3.890967369	3.026080132	8.62262249	-0.000953674	-0.001144409	0.006103516	0.327392578	-0.363769531	-0.908203125	895.92	19.80455187	-22.88154364	-3.847383417	-73
4427	0	0.154602051	0.120178223	0.34588623	0.999999046	0.000209808	-0.000159264	0.000110626	3.86505127	3.004455566	8.647155762	0.010490418	-0.007963181	0.005531311	0.33203125	-0.361816406	-0.914550781	895.92	19.83214555	-22.9044513	-3.850449694	-73
4428	0	0.155104637	0.121142387	0.345113754	0.999999046	0.000226021	1.14E-05	0.00014019	3.877615929	3.028559685	8.627843857	0.011301041	0.000572205	0.007009506	0.327636719	-0.363769531	-0.9140625	896	19.8571339	-22.90991426	-3.840470719	-72
4429	0	0.154663086	0.119812012	0.344482422	0.999999046	-0.000160217	-6.77E-05	8.39E-05	3.866577148	2.995300293	8.612060547	-0.008010864	-0.003385544	0.004196167	0.329833984	-0.361572266	-0.911376953	895.92	19.84134889	-22.92153738	-3.841656711	-72
4430	0	0.154668808	0.11924839	0.344437599	0.999999046	0.000343323	-7.82E-05	0.000231743	3.8667202	2.981209755	8.61093998	0.017166138	-0.003910065	0.011587143	0.329833984	-0.363769531	-0.911376953	896	19.87631198	-22.939866	-3.823480282	-72
4431	0	0.155456543	0.120849609	0.345458984	0.999999046	0.000156403	-0.000102043	0.000297546	3.886413574	3.021240234	8.636474609	0.00782013	-0.005102158	0.01487732	0.329833984	-0.361572266	-0.914306641	895.96	19.88690627	-22.9631647	-3.804458323	-72
4432	0	0.155659676	0.120559692	0.345327377	0.999999046	1.43E-05	-0.000160217	0.000225067	3.89149189	3.01399231	8.633184433	0.000715256	-0.008010864	0.011253357	0.329833984	-0.363769531	-0.911376953	895.92	19.88515012	-22.9897428	-3.791007448	-72
4433	0	0.155395508	0.120422363	0.34375	0.999999046	2.67E-05	-7.92E-05	0.000331879	3.884887695	3.010559082	8.59375	0.001335144	-0.003957748	0.016593933	0.329833984	-0.363769531	-0.911376953	895.9	19.87827707	-23.01159729	-3.76182717	-72
4434	0	0.155835152	0.119787216	0.345427513	0.999999046	2.86E-05	-0.000116348	0.000155449	3.895878792	2.994680405	8.635687828	0.001430511	-0.005817413	0.007772446	0.327392578	-0.363769531	-0.908203125	895.86	19.87995104	-23.03042028	-3.753322235	-72
4435	0	0.154907227	0.119567871	0.343933105	0.999999046	0.000236511	-0.000136375	1.14E-05	3.872680664	2.989196777	8.598327637	0.011825562	-0.006818771	0.000572205	0.329833984	-0.365966797	-0.908203125	895.96	19.91205065	-23.04561142	-3.75936068	-72
4436	0	0.155858994	0.12180233	0.345235825	0.999999046	0.000191689	-0.000164032	0.000183105	3.896474838	3.04505825	8.630895615	0.009584427	-0.008201599	0.009155274	0.327636719	-0.363769531	-0.9140625	895.98	19.93135898	-23.07030756	-3.754106707	-72
4437	0	0.155578613	0.120483398	0.344726563	0.999999046	-8.77E-05	-7.53E-05	0.000236511	3.889465332	3.012084961	8.618164063	-0.004386902	-0.003767014	0.011825562	0.327636719	-0.365966797	-0.910888672	895.96	19.91442097	-23.08736062	-3.733175961	-72
4438	0	0.155138016	0.119738579	0.345150948	0.999999046	0.000106812	-3.24E-05	0.00014019	3.878450394	2.99346447	8.628773689	0.005340576	-0.001621246	0.007009506	0.327636719	-0.365966797	-0.910888672	895.9	19.92314673	-23.0958324	-3.722039836	-72
4439	0	0.155883789	0.120849609	0.345153809	0.999999046	0.00018692	-0.000128746	0.000110626	3.897094727	3.021240234	8.628845215	0.009346008	-0.006437302	0.005531311	0.327636719	-0.365966797	-0.913818359	895.86	19.94374173	-23.11336078	-3.720578291	-72
4440	0	0.155083656	0.119783401	0.344396591	0.999999046	0.000321388	-4.58E-05	0.000197411	3.877091408	2.994585037	8.60991478	0.016069413	-0.002288818	0.009870529	0.327392578	-0.363769531	-0.911132813	895.96	19.97405752	-23.12516065	-3.708468358	-73
4441	0	0.155639648	0.121582031	0.343444824	0.999999046	0.000137329	-9.44E-05	0.000133514	3.890991211	3.039550781	8.586120605	0.006866455	-0.004720688	0.00667572	0.327392578	-0.365966797	-0.908203125	896.02	19.98683361	-23.13954699	-3.701085039	-72
4442	0	0.155370712	0.120231628	0.345823288	0.999999046	8.39E-05	-3.43E-05	9.06E-05	3.884267807	3.00579071	8.645582199	0.004196167	-0.001716614	0.004529953	0.325195313	-0.365966797	-0.913818359	895.9	19.99413912	-23.14558083	-3.699522258	-72
4443	0	0.155334473	0.12097168	0.345275879	0.999999046	0.000476837	-0.000163078	0.000137329	3.883361816	3.024291992	8.631896973	0.023841859	-0.008153916	0.006866455	0.327636719	-0.365966797	-0.910888672	895.9	20.04621486	-23.1671158	-3.697559681	-72
4444	0	0.156517982	0.121377945	0.343826294	0.999999046	0.000119209	-5.72E-05	0.000141144	3.912949562	3.034448624	8.595657349	0.005960465	-0.002861023	0.00705719	0.329833984	-0.368164063	-0.908203125	895.86	20.05513492	-23.17728924	-3.68583784	-72
4445	0	0.156005859	0.120300293	0.345031738	0.999999046	-9.54E-05	-6.39E-05	6.10E-05	3.900146484	3.007507324	8.625793457	-0.004768372	-0.003194809	0.003051758	0.327636719	-0.368164063	-0.905029297	895.96	20.04297166	-23.1848745	-3.681771968	-72
4446	0	0.156675339	0.12112999	0.345827103	0.999999046	0.000164032	-0.000112534	0.000182152	3.916883469	3.028249741	8.645677567	0.008201599	-0.005626679	0.00910759	0.325195313	-0.365966797	-0.913818359	895.92	20.05549851	-23.20230695	-3.674508234	-72
4447	0	0.155944824	0.12121582	0.34362793	0.999999046	0.000263214	-0.000109673	0.000160217	3.898620605	3.030395508	8.590698242	0.013160706	-0.005483627	0.008010864	0.327392578	-0.365966797	-0.908203125	896.02	20.08014326	-23.21843025	-3.667131166	-72
4448	0	0.156059265	0.120736122	0.344506264	0.999999046	1.81E-05	-6.87E-05	3.81E-05	3.901481628	3.018403053	8.612656593	0.000905991	-0.003433228	0.001907349	0.327636719	-0.368164063	-0.913574219	895.96	20.08138955	-23.22518918	-3.67156155	-72
4449	0	0.15637207	0.120910645	0.345397949	0.999999046	0.000167847	-9.82E-05	0.000209808	3.909301758	3.022766113	8.63494873	0.008392334	-0.004911423	0.010490418	0.325195313	-0.368164063	-0.910644531	895.9	20.09210686	-23.24172997	-3.656120319	-72
4450	0	0.155391693	0.12053299	0.344899178	0.999999046	0.000164032	-8.01E-05	0.000220299	3.884792328	3.013324738	8.622479439	0.008201599	-0.004005432	0.011014939	0.325195313	-0.367919922	-0.907958984	895.92	20.10132672	-23.25654673	-3.638046318	-72
4451	0	0.155822754	0.120849609	0.344787598	0.999999046	7.63E-05	-6.39E-05	0.000137329	3.895568848	3.021240234	8.619689941	0.003814697	-0.003194809	0.006866455	0.327636719	-0.368164063	-0.910888672	896	20.10380715	-23.2661852	-3.630204341	-72
4452	0	0.155655861	0.122079849	0.344138145	0.999999046	-0.000119209	-0.000133514	0.000164032	3.891396523	3.051996231	8.603453636	-0.005960465	-0.00667572	0.008201599	0.325195313	-0.367919922	-0.907958984	896	20.08366592	-23.28419235	-3.620594603	-72
4453	0	0.156311035	0.119567871	0.34387207	0.999999046	-0.000125885	-0.000174522	0.000297546	3.907775879	2.989196777	8.596801758	-0.006294251	-0.00872612	0.01487732	0.327636719	-0.368164063	-0.907958984	895.9	20.05698427	-23.31174247	-3.596170271	-72
4454	0	0.156015396	0.120669365	0.346227646	0.999999046	0.000391006	-0.000165939	1.81E-05	3.900384903	3.016734123	8.655691147	0.019550324	-0.008296967	0.000905991	0.325195313	-0.367919922	-0.907958984	895.96	20.10209905	-23.32718341	-3.605584089	-72
4455	0	0.156494141	0.123596191	0.345825195	0.999999046	0.000297546	4.77E-06	-2.29E-05	3.912353516	3.089904785	8.645629883	0.01487732	0.000238419	-0.001144409	0.325439453	-0.368164063	-0.913574219	896.02	20.13541211	-23.32244772	-3.615861549	-72
4456	0	0.155508995	0.121670723	0.343556404	0.999999046	-0.000220299	-3.62E-05	-1.53E-05	3.887724876	3.041768074	8.588910103	-0.011014938	-0.001811981	-0.000762939	0.325195313	-0.367919922	-0.907958984	895.98	20.10956882	-23.32225796	-3.623276998	-72
4457	0	0.156188965	0.120605469	0.344543457	0.999999046	1.91E-05	-6.01E-05	0.000106812	3.904724121	3.015136719	8.613586426	0.000953674	-0.003004074	0.005340576	0.325439453	-0.368164063	-0.913574219	896.02	20.10567317	-23.32930322	-3.619951823	-72
4458	0	0.156867027	0.122171402	0.344518661	0.999999046	8.39E-05	-4.39E-05	0.000124931	3.921675682	3.054285049	8.612966537	0.004196167	-0.002193451	0.006246567	0.327636719	-0.368164063	-0.910888672	895.98	20.10795891	-23.33519863	-3.612336581	-72
4459	0	0.155822754	0.120300293	0.344543457	0.999999046	0.000148773	-0.00014019	-3.81E-06	3.895568848	3.007507324	8.613586426	0.00743866	-0.007009506	-0.000190735	0.327880859	-0.370361328	-0.913574219	896.02	20.12506344	-23.34623212	-3.622152444	-72
4460	0	0.156345367	0.121990204	0.343668938	0.999999046	0.0002985	-3.43E-05	0.000109673	3.908634186	3.049755096	8.591723442	0.014925003	-0.001716614	0.005483627	0.325195313	-0.368164063	-0.910644531	895.96	20.15213155	-23.35022008	-3.616803703	-72
4461	0	0.156066895	0.121032715	0.342102051	0.999999046	-0.000125885	5.44E-05	0.000106812	3.901672363	3.025817871	8.55255127	-0.006294251	0.002717972	0.005340576	0.327636719	-0.368164063	-0.907958984	896.06	20.12904178	-23.34445437	-3.605862542	-72
4462	0	0.156543732	0.121033669	0.345322609	0.999999046	-2.10E-05	-1.72E-05	0.000121117	3.913593292	3.025841713	8.633065224	-0.001049042	-0.000858307	0.006055832	0.325195313	-0.367919922	-0.907958984	895.9	20.11832839	-23.34681062	-3.596546411	-72
4463	0	0.15612793	0.120666504	0.345031738	0.999999046	-4.58E-05	-0.000136375	0.000106812	3.903198242	3.016662598	8.625793457	-0.002288818	-0.006818771	0.005340576	0.327636719	-0.368164063	-0.907958984	895.9	20.10726136	-23.36128801	-3.59319779	-72
4464	0	0.15704155	0.121088982	0.344999313	0.999999046	-0.000102043	-0.000102997	9.92E-05	3.926038742	3.027224541	8.624982834	-0.005102158	-0.005149841	0.004959106	0.325439453	-0.370361328	-0.913330078	895.92	20.08936071	-23.37176977	-3.588427515	-72
4465	0	0.156799316	0.120361328	0.344909668	0.999999046	-8.01E-05	9.25E-05	1.14E-05	3.91998291	3.009033203	8.622741699	-0.004005432	0.00462532	0.000572205	0.327636719	-0.368164063	-0.907958984	895.9	20.07453209	-23.35764866	-3.585476349	-72
4466	0	0.156616211	0.121278763	0.344896317	0.999999046	0.00028038	2.10E-05	8.39E-05	3.915405273	3.03196907	8.622407913	0.014019013	0.001049042	0.004196167	0.325195313	-0.368164063	-0.910644531	895.9	20.09871973	-23.35395864	-3.579369281	-72
4467	0	0.155761719	0.120849609	0.345397949	0.999999046	-2.29E-05	-7.53E-05	8.39E-05	3.894042969	3.021240234	8.63494873	-0.001144409	-0.003767014	0.004196167	0.327636719	-0.368164063	-0.907958984	895.9	20.08961754	-23.36047808	-3.575538092	-72
4468	0	0.155529022	0.121051788	0.344463348	0.999999046	-2.77E-05	-0.000217438	4.10E-05	3.888225555	3.026294708	8.61158371	-0.001382828	-0.010871887	0.0020504	0.325195313	-0.367919922	-0.907958984	895.92	20.08424234	-23.38044976	-3.582879761	-71
4469	0	0.156921387	0.121154785	0.345458984	0.999999046	0.000217438	-6.39E-05	4.20E-05	3.923034668	3.028869629	8.636474609	0.010871887	-0.003194809	0.002098084	0.327636719	-0.368164063	-0.907958984	895.96	20.10415076	-23.38382644	-3.583538737	-72
4470	0	0.156121254	0.121474266	0.344042778	0.999999046	4.58E-05	-6.87E-05	0.000144958	3.903031349	3.036856651	8.60106945	0.002288818	-0.003433228	0.007247925	0.325195313	-0.365722656	-0.907958984	895.96	20.09956882	-23.3916479	-3.5761031	-72
4471	0	0.15625	0.120910645	0.344299316	0.999999046	1.14E-05	-0.000128746	0.00019455	3.90625	3.022766113	8.60748291	0.000572205	-0.006437302	0.009727478	0.325195313	-0.368164063	-0.910644531	895.92	20.08962852	-23.40777417	-3.56298574	-72
4472	0	0.157057762	0.121528625	0.344865799	0.999999046	-6.77E-05	9.16E-05	0.000255585	3.926444054	3.038215637	8.621644974	-0.003385544	0.004577637	0.012779236	0.325195313	-0.367919922	-0.905029297	895.92	20.06391321	-23.40249383	-3.530337794	-72
4473	0	0.156738281	0.120361328	0.343505859	0.999999046	-0.000102997	-8.68E-05	0.000156403	3.918457031	3.009033203	8.587646484	-0.005149841	-0.004339218	0.007820129	0.325439453	-0.370117188	-0.907714844	895.9	20.04167859	-23.41243321	-3.514643801	-72
4474	0	0.157201767	0.119690895	0.345638275	0.999999046	0.000307083	-4.01E-05	-9.25E-05	3.930044174	2.992272377	8.640956879	0.015354157	-0.002002716	-0.004625321	0.325195313	-0.368164063	-0.910644531	895.9	20.07704376	-23.40746915	-3.531404899	-72
4475	0	0.156982422	0.123474121	0.344238281	0.999999046	0.000164032	-6.77E-05	0.000152588	3.924560547	3.086853027	8.605957031	0.008201599	-0.003385544	0.007629395	0.325439453	-0.370117188	-0.907714844	895.86	20.08508836	-23.41502869	-3.516391426	-72
4476	0	0.15688324	0.121279716	0.343688011	0.999999046	-0.000300407	-3.81E-06	8.77E-05	3.922080994	3.031992912	8.592200279	-0.015020371	-0.000190735	0.004386902	0.325439453	-0.368164063	-0.913574219	895.9	20.04175771	-23.4130822	-3.511388031	-72
4477	0	0.156311035	0.119567871	0.344055176	0.999999046	-0.000156403	-2.86E-06	0.000141144	3.907775879	2.989196777	8.601379395	-0.007820129	-0.000143051	0.00705719	0.325195313	-0.367919922	-0.907958984	895.96	20.01226079	-23.41303819	-3.4966402	-72
4478	0	0.156042099	0.121490479	0.344213486	0.999999046	0.000249863	-0.000192642	0.000121117	3.901052475	3.037261963	8.605337143	0.012493134	-0.009632111	0.006055832	0.325195313	-0.365966797	-0.910888672	895.9	20.03342185	-23.43251768	-3.497573587	-72
4479	0	0.15814209	0.122253418	0.345214844	0.999999046	-0.000137329	-4.10E-05	0.000183105	3.953552246	3.056335449	8.630371094	-0.006866455	-0.0020504	0.009155274	0.325195313	-0.367919922	-0.907958984	895.96	20.00470521	-23.43805913	-3.479484076	-72
4480	0	0.155589104	0.119111061	0.343524933	0.999999046	2.57E-05	-5.53E-05	7.53E-05	3.889727592	2.977776527	8.588123322	0.00128746	-0.002765656	0.003767014	0.325195313	-0.367919922	-0.907958984	895.96	19.9997899	-23.44079946	-3.474505765	-72
4481	0	0.157348633	0.120666504	0.343261719	0.999999046	0.000144958	-0.00014782	7.25E-05	3.93371582	3.016662598	8.581542969	0.007247925	-0.007390976	0.003623962	0.325195313	-0.368164063	-0.910644531	895.9	20.01017439	-23.45335188	-3.475163334	-72
4482	0	0.156064034	0.120986938	0.342996597	1	-2.57E-05	-6.68E-06	3.05E-05	3.901600838	3.024673462	8.574914932	-0.00128746	-0.000333786	0.001525879	0.322998047	-0.367919922	-0.913330078	895.92	20.00051029	-23.44896369	-3.476279483	-72
4483	0	0.15637207	0.120666504	0.343444824	0.999999046	4.58E-05	-0.000121117	0.00012207	3.909301758	3.016662598	8.586120605	0.002288818	-0.006055832	0.006103516	0.325195313	-0.368164063	-0.910644531	895.98	19.9966443	-23.46040545	-3.469534061	-72
4484	0	0.156363487	0.120110512	0.345409393	0.999999046	-4.86E-05	-6.10E-05	0.000225067	3.909087181	3.002762794	8.635234833	-0.00243187	-0.003051758	0.011253357	0.325439453	-0.370361328	-0.910644531	895.9	19.97599152	-23.469294	-3.444463678	-72
4485	0	0.156433105	0.120483398	0.344726563	0.999999046	3.81E-05	-7.53E-05	6.87E-05	3.910827637	3.012084961	8.618164063	0.001907349	-0.003767014	0.003433228	0.325439453	-0.368164063	-0.916503906	895.92	19.97274882	-23.47348445	-3.445012735	-72
4486	0	0.156074524	0.119998932	0.343716621	0.999999046	-3.81E-05	3.05E-05	6.01E-05	3.901863098	2.999973297	8.592915535	-0.001907349	0.001525879	0.003004074	0.325439453	-0.368164063	-0.913574219	895.96	19.95927688	-23.46584128	-3.439985309	-72
4487	0	0.156311035	0.120239258	0.344543457	0.999999046	7.63E-06	-0.000124931	6.87E-05	3.907775879	3.005981445	8.613586426	0.00038147	-0.006246567	0.003433228	0.325195313	-0.367919922	-0.907958984	895.96	19.95320438	-23.47518018	-3.437532171	-72
4488	0	0.156902313	0.120649338	0.344135284	0.999999046	-0.000113487	2.67E-05	0.000110626	3.922557831	3.016233444	8.603382111	-0.005674362	0.001335144	0.005531311	0.325195313	-0.367919922	-0.907958984	895.98	19.92866341	-23.46975792	-3.423204844	-72
4489	0	0.156494141	0.119995117	0.343994141	0.999999046	4.20E-05	1.24E-05	4.58E-05	3.912353516	2.99987793	8.599853516	0.002098083	0.000619888	0.002288818	0.325195313	-0.368164063	-0.910644531	895.96	19.92513858	-23.46326478	-3.418189227	-72
4490	0	0.156313896	0.12116909	0.344292641	0.999999046	-0.000104904	-7.25E-05	6.10E-05	3.907847404	3.029227257	8.607316017	-0.005245209	-0.003623962	0.003051758	0.325439453	-0.368164063	-0.913574219	895.98	19.90549379	-23.46641695	-3.416094701	-72
4491	0	0.156982422	0.122070313	0.343017578	0.999999046	-0.000679016	5.44E-05	0.000144958	3.924560547	3.051757813	8.575439453	-0.033950808	0.002717972	0.007247925	0.327636719	-0.365966797	-0.913818359	895.96	19.81405293	-23.45912348	-3.400024538	-72
4492	0	0.157530785	0.12485218	0.344302177	0.999998093	-0.001743317	0.000206947	9.16E-05	3.938269615	3.121304512	8.607554436	-0.087165877	0.010347372	0.004577639	0.325195313	-0.365966797	-0.913818359	895.96	19.60082156	-23.43322271	-3.37807799	-72
4493	0	0.154724121	0.112792969	0.347229004	0.999998093	-0.001791954	-1.53E-05	-7.63E-06	3.868103027	2.819824219	8.680725098	-0.08959775	-0.00076294	-0.00038147	0.324951172	-0.361572266	-0.911132813	896.02	19.38998919	-23.42734096	-3.376407624	-72
4494	0	0.154061317	0.110880852	0.346647263	0.999999046	4.20E-05	-0.000307083	0.000212669	3.851532936	2.772021294	8.666181564	0.002098084	-0.015354157	0.010633469	0.324951172	-0.359375	-0.914306641	895.86	19.38339761	-23.46124107	-3.366067568	-72
4495	0	0.157714844	0.114807129	0.347229004	0.999999046	0.000869751	-0.000319481	0.000244141	3.942871094	2.870178223	8.680725098	0.043487555	-0.015974047	0.012207033	0.324951172	-0.359375	-0.914306641	895.86	19.4702012	-23.49765143	-3.355190124	-72
4496	0	0.155795097	0.119357109	0.343442917	0.999999046	0.000941277	-0.000234604	7.92E-05	3.894877434	2.983927727	8.586072922	0.047063835	-0.011730196	0.003957749	0.327392578	-0.361572266	-0.916992188	896.02	19.57164445	-23.51849991	-3.361058475	-72
4497	0	0.156738281	0.122802734	0.344482422	0.999999046	3.05E-05	-0.000124931	0.00031662	3.918457031	3.070068359	8.612060547	0.001525879	-0.006246567	0.015830994	0.325195313	-0.363769531	-0.911132813	895.98	19.55594501	-23.53652582	-3.32768257	-72
4498	0	0.157326698	0.118268013	0.344984055	0.999999046	-0.000490189	-0.00025177	7.25E-05	3.933167458	2.956700325	8.624601364	-0.024509431	-0.012588502	0.003623963	0.325195313	-0.363769531	-0.916748047	895.98	19.49413163	-23.55883494	-3.329649733	-72
4499	0	0.156799316	0.116943359	0.346130371	0.999999046	-5.34E-05	-0.000224113	-1.53E-05	3.91998291	2.923583984	8.653259277	-0.002670288	-0.011205673	-0.000762939	0.325195313	-0.361572266	-0.916992188	896.02	19.48593383	-23.57471353	-3.343870597	-72
4500	0	0.157317162	0.115934372	0.346254349	0.999999046	0.000197411	-0.000183105	-7.34E-05	3.932929039	2.898359299	8.656358719	0.009870529	-0.009155274	-0.003671646	0.322753906	-0.361328125	-0.911132813	895.98	19.50838621	-23.583874	-3.360446087	-72
4501	0	0.156982422	0.118225098	0.346069336	0.999999046	0.000556946	-0.000182152	0.000102997	3.924560547	2.955627441	8.651733398	0.027847292	-0.00910759	0.005149842	0.322753906	-0.361328125	-0.916748047	895.9	19.56367358	-23.59957778	-3.361016852	-72
4502	0	0.157194138	0.119247437	0.344779968	0.999999046	-1.72E-05	-0.000120163	-4.96E-05	3.929853439	2.981185913	8.619499207	-0.000858307	-0.006008148	-0.002479553	0.322753906	-0.359130859	-0.916992188	895.96	19.55935845	-23.60265927	-3.380124568	-72
4503	0	0.156921387	0.117797852	0.346191406	0.999999046	0.000179291	-4.86E-05	4.20E-05	3.923034668	2.944946289	8.654785156	0.008964539	-0.00243187	0.002098084	0.327392578	-0.361572266	-0.914306641	895.96	19.57195985	-23.60143735	-3.380113612	-72
4504	0	0.156721115	0.119617462	0.346010208	0.999999046	-6.58E-05	-0.000160217	0.000125885	3.918027878	2.990436554	8.650255203	-0.003290176	-0.008010864	0.006294251	0.325195313	-0.363769531	-0.913818359	896.02	19.55440506	-23.6153731	-3.37058559	-72
4505	0	0.156494141	0.116394043	0.346496582	0.999999046	-0.000164032	-2.57E-05	8.39E-05	3.912353516	2.909851074	8.662414551	-0.008201599	-0.00128746	0.004196167	0.324951172	-0.359375	-0.908447266	895.92	19.52516602	-23.61305983	-3.363628871	-72
4506	0	0.157875061	0.117961884	0.347685814	0.999999046	2.10E-05	-0.000104904	0.000117302	3.946876526	2.949047089	8.692145348	0.001049042	-0.005245209	0.005865097	0.322753906	-0.359130859	-0.9140625	895.92	19.51679798	-23.62048889	-3.359479083	-72
4507	0	0.157165527	0.118225098	0.345581055	0.999999046	-6.87E-05	-1.81E-05	0.000118256	3.929138184	2.955627441	8.639526367	-0.003433228	-0.000905991	0.005912781	0.325195313	-0.361572266	-0.9140625	895.98	19.49663795	-23.61850901	-3.347093835	-72
4508	0	0.157938957	0.118322372	0.345834732	0.999999046	-0.000164986	-3.81E-05	-2.38E-05	3.94847393	2.958059311	8.645868301	-0.008249283	-0.001907349	-0.001192093	0.322753906	-0.363525391	-0.916748047	896.02	19.47247433	-23.61321975	-3.349755727	-72
4509	0	0.157043457	0.116699219	0.346130371	0.999999046	-0.000152588	-3.72E-05	7.25E-05	3.926086426	2.917480469	8.653259277	-0.007629395	-0.001859665	0.003623962	0.322753906	-0.361328125	-0.911132813	895.92	19.44507173	-23.61143434	-3.340627409	-72
4510	0	0.157452583	0.117974281	0.346276283	0.999999046	0.000173569	-0.000116348	0.000144005	3.936314583	2.949357033	8.656907082	0.008678436	-0.005817413	0.007200241	0.322753906	-0.361328125	-0.911132813	895.9	19.45296708	-23.62086414	-3.326816092	-72
4511	0	0.157104492	0.117370605	0.344848633	0.999999046	-4.58E-05	-0.000109673	0.000205994	3.927612305	2.934265137	8.62121582	-0.002288818	-0.005483627	0.010299683	0.322753906	-0.361328125	-0.9140625	895.9	19.4326585	-23.63188159	-3.306877965	-72
4512	0	0.156985283	0.118188858	0.346715927	0.999999046	-2.77E-05	-0.00012207	4.86E-05	3.924632072	2.954721451	8.667898178	-0.001382828	-0.006103516	0.00243187	0.325195313	-0.361572266	-0.916992188	895.92	19.42206126	-23.63813523	-3.3069408	-72
4513	0	0.156677246	0.118774414	0.345581055	0.999999046	-0.000133514	-2.19E-05	0.000141144	3.916931152	2.969360352	8.639526367	-0.00667572	-0.001096725	0.00705719	0.324951172	-0.361572266	-0.911132813	896.02	19.39333373	-23.63699722	-3.287892637	-72
4514	0	0.157640457	0.115951538	0.346092224	0.999999046	-6.68E-05	-4.96E-05	1.05E-05	3.941011429	2.898788452	8.652305603	-0.00333786	-0.002479553	0.000524521	0.322753906	-0.361328125	-0.916748047	895.96	19.3787954	-23.63383216	-3.288593839	-72
4515	0	0.157104492	0.117858887	0.344360352	0.999999046	0.000358582	-0.000109673	-4.96E-05	3.927612305	2.946472168	8.609008789	0.017929078	-0.005483627	-0.002479553	0.322753906	-0.359130859	-0.916992188	895.9	19.41687651	-23.63482653	-3.303541802	-72
4516	0	0.15765667	0.119281769	0.34607029	0.999999046	-1.05E-05	-3.81E-06	7.25E-05	3.94141674	2.98204422	8.65175724	-0.000524521	-0.000190735	0.003623962	0.322753906	-0.361328125	-0.9140625	895.98	19.40519319	-23.62897326	-3.293962198	-72
4517	0	0.156738281	0.117675781	0.344726563	0.999999046	-0.000198364	-2.19E-05	0.000228882	3.918457031	2.941894531	8.618164063	-0.009918213	-0.001096725	0.011444092	0.322753906	-0.361328125	-0.911132813	895.96	19.36489609	-23.63096672	-3.264236636	-72
4518	0	0.157661438	0.117404938	0.344704628	0.999999046	-0.000185013	-4.58E-05	7.92E-05	3.94153595	2.935123444	8.6176157	-0.009250641	-0.002288818	0.003957748	0.324951172	-0.361572266	-0.911132813	895.96	19.33361619	-23.62982679	-3.251977891	-72
4519	0	0.157775879	0.117553711	0.345214844	0.999999046	-1.91E-05	0.00017643	0.000236511	3.944396973	2.938842773	8.630371094	-0.000953674	0.008821488	0.011825562	0.322753906	-0.359130859	-0.9140625	895.96	19.3102456	-23.6105963	-3.21785801	-72
4520	0	0.157771111	0.117892265	0.344480515	0.999999046	-0.000355721	1.14E-05	5.25E-05	3.944277763	2.947306633	8.612012863	-0.017786026	0.000572205	0.002622604	0.322753906	-0.363525391	-0.913818359	895.96	19.2597975	-23.60223491	-3.203249645	-72
4521	0	0.15814209	0.119384766	0.345092773	0.999999046	-0.000846863	0.000222206	-0.000118256	3.953552246	2.984619141	8.627319336	-0.042343145	0.011110307	-0.005912782	0.322509766	-0.359130859	-0.911376953	895.96	19.15780859	-23.56462621	-3.203044811	-72
4522	0	0.155702591	0.114866257	0.347003937	0.999999046	-0.001142502	5.91E-05	1.81E-05	3.892564774	2.871656418	8.675098419	-0.057125104	0.002956391	0.000905991	0.324951172	-0.357177734	-0.911621094	895.92	19.01809631	-23.54970381	-3.192749771	-72
4523	0	0.156738281	0.110351563	0.345825195	0.999999046	0.000495911	-0.000128746	0.000236511	3.918457031	2.758789063	8.645629883	0.024795534	-0.006437302	0.011825562	0.324951172	-0.357177734	-0.917236328	895.9	19.05862412	-23.56329152	-3.169321596	-72
4524	0	0.157309532	0.115868568	0.345729828	0.999999046	0.000380516	-0.000270844	0.000297546	3.932738304	2.896714211	8.643245697	0.019025804	-0.013542176	0.01487732	0.322509766	-0.357177734	-0.917236328	895.9	19.08538457	-23.59454516	-3.145773863	-72
4525	0	0.158081055	0.115600586	0.345214844	0.999999046	0.00038147	-0.000155449	0.00018692	3.952026367	2.890014648	8.630371094	0.019073487	-0.007772446	0.009346009	0.324951172	-0.359375	-0.911376953	895.92	19.11560373	-23.60919018	-3.124537416	-72
4526	0	0.157561302	0.118246078	0.345135689	0.999999046	3.81E-06	4.96E-05	9.44E-05	3.939032555	2.956151962	8.62839222	0.000190735	0.002479553	0.004720688	0.322753906	-0.359130859	-0.916992188	895.98	19.10369985	-23.5981371	-3.109604975	-72
4527	0	0.157226563	0.116088867	0.34552002	0.999999046	-0.000240326	8.49E-05	-3.81E-06	3.930664063	2.90222168	8.638000488	-0.012016297	0.004243851	-0.000190735	0.322753906	-0.359130859	-0.9140625	895.9	19.06790747	-23.57955589	-3.101998034	-72
4528	0	0.155641556	0.113909721	0.345172882	0.999999046	2.57E-05	-7.06E-05	0.000105858	3.891038895	2.847743034	8.629322052	0.00128746	-0.003528595	0.005292892	0.322509766	-0.359130859	-0.911376953	895.9	19.05988317	-23.58184661	-3.0861257	-72
4529	0	0.157531738	0.116271973	0.34576416	0.999999046	0.000404358	-0.000144005	0.000247955	3.938293457	2.906799316	8.644104004	0.020217896	-0.007200241	0.012397767	0.324951172	-0.359375	-0.914306641	895.92	19.08976467	-23.59739677	-3.059330706	-72
4530	0	0.156896591	0.117815971	0.345561981	0.999999046	-7.63E-05	2.67E-05	0.000216484	3.92241478	2.945399284	8.63904953	-0.003814697	0.001335144	0.010824204	0.324951172	-0.359375	-0.911376953	895.92	19.06337434	-23.59322932	-3.027305147	-72
4531	0	0.158447266	0.115722656	0.347290039	0.999999046	-0.000102997	2.77E-05	2.67E-05	3.961181641	2.893066406	8.682250977	-0.005149841	0.001382828	0.001335144	0.324951172	-0.357177734	-0.911621094	895.96	19.04286536	-23.58185225	-3.021110193	-72
4532	0	0.156847954	0.116008759	0.346528053	0.999999046	0.0002985	0.000137329	-0.000144958	3.921198845	2.900218964	8.663201332	0.014925003	0.006866455	-0.007247925	0.324951172	-0.359375	-0.911376953	895.92	19.07469726	-23.55212358	-3.027450642	-72
4533	0	0.15625	0.116149902	0.34588623	0.999999046	9.16E-05	3.53E-05	6.87E-05	3.90625	2.903747559	8.647155762	0.004577637	0.001764297	0.003433228	0.324951172	-0.359375	-0.914306641	896.04	19.07440962	-23.54138189	-3.014726374	-72
4534	0	0.156241417	0.116312981	0.345630646	0.999999046	-7.44E-05	1.14E-05	0.000136375	3.906035423	2.907824516	8.640766144	-0.00371933	0.000572205	0.006818771	0.324951172	-0.359375	-0.914306641	895.98	19.05233653	-23.53570645	-2.994640489	-72
4535	0	0.157287598	0.115661621	0.34588623	0.999999046	-0.000171661	-1.43E-05	0.00019455	3.932189941	2.891540527	8.647155762	-0.008583069	-0.000715256	0.009727478	0.324951172	-0.357177734	-0.914550781	895.96	19.01679533	-23.53498809	-2.972092569	-72
4536	0	0.156488419	0.116763115	0.346103668	0.999999046	0.00011158	9.73E-05	0.0001297	3.912210464	2.919077873	8.652591705	0.005578995	0.004863739	0.006484985	0.325195313	-0.359375	-0.919921875	895.98	19.01502783	-23.51970759	-2.952380503	-72
4537	0	0.156738281	0.115539551	0.344787598	0.999999046	-3.81E-05	7.72E-05	6.48E-05	3.918457031	2.88848877	8.619689941	-0.001907349	0.003862381	0.003242493	0.324951172	-0.359375	-0.914306641	895.9	18.99951669	-23.50418288	-2.937398405	-72
4538	0	0.15712738	0.1165905	0.346345901	0.999999046	-0.000181198	-6.10E-05	-4.77E-06	3.928184509	2.914762497	8.658647537	-0.009059906	-0.003051758	-0.000238419	0.324951172	-0.357177734	-0.917236328	895.96	18.97319716	-23.50103368	-2.941047367	-72
4539	0	0.156921387	0.115844727	0.346191406	0.999999046	-0.000301361	0.000115395	8.01E-05	3.923034668	2.896118164	8.654785156	-0.015068054	0.00576973	0.004005432	0.324951172	-0.357177734	-0.917236328	895.98	18.92628427	-23.48192048	-2.926220215	-72
4540	0	0.156677246	0.114938736	0.346540451	0.999999046	-0.000136375	8.20E-05	3.81E-05	3.916931152	2.873468399	8.663511276	-0.006818771	0.0041008	0.001907349	0.324951172	-0.359375	-0.914306641	895.92	18.90079068	-23.46485434	-2.911307506	-72
4541	0	0.156738281	0.113586426	0.34576416	0.999999046	0.000141144	-7.53E-05	-4.58E-05	3.918457031	2.839660645	8.644104004	0.00705719	-0.003767014	-0.002288818	0.324951172	-0.354980469	-0.917480469	895.92	18.91352931	-23.46174281	-2.922700925	-72
4542	0	0.157572746	0.116444588	0.345279694	0.999999046	3.81E-06	-1.91E-05	0.000209808	3.939318657	2.911114693	8.63199234	0.000190735	-0.000953674	0.010490418	0.324951172	-0.357177734	-0.911621094	895.92	18.89769741	-23.46207663	-2.894015314	-72
4543	0	0.156433105	0.113891602	0.346496582	0.999999046	-4.20E-05	-9.44E-05	9.92E-05	3.910827637	2.847290039	8.662414551	-0.002098084	-0.004720688	0.004959106	0.324951172	-0.357177734	-0.917236328	895.98	18.88298629	-23.46645479	-2.884594965	-72
4544	0	0.156949043	0.116821289	0.345926285	0.999999046	0.000224113	-1.72E-05	-4.29E-05	3.923726082	2.920532227	8.64815712	0.011205673	-0.000858307	-0.002145767	0.327392578	-0.359375	-0.914306641	895.9	18.904325	-23.45719177	-2.883672944	-72
4545	0	0.156921387	0.114379883	0.346618652	0.999999046	1.91E-05	-3.72E-05	-3.05E-05	3.923034668	2.85949707	8.665466309	0.000953674	-0.001859665	-0.001525879	0.327148438	-0.357177734	-0.914550781	895.92	18.90187109	-23.45056381	-2.886028789	-72
4546	0	0.156330109	0.11562252	0.347333908	0.999999046	6.10E-05	-7.63E-06	0.000124931	3.908252716	2.890563011	8.683347702	0.003051758	-0.00038147	0.006246567	0.324951172	-0.359375	-0.914306641	895.9	18.89645886	-23.44646453	-2.864842582	-72
4547	0	0.156555176	0.115234375	0.347045898	0.999999046	-9.16E-05	-6.39E-05	0.00025177	3.913879395	2.880859375	8.676147461	-0.004577637	-0.003194809	0.012588501	0.327392578	-0.359375	-0.917236328	895.96	18.86850912	-23.45314514	-2.832537554	-72
4548	0	0.157512665	0.115701675	0.347290039	0.999999046	-0.000187874	-1.91E-05	7.63E-05	3.93781662	2.892541885	8.682250977	-0.009393692	-0.000953674	0.003814697	0.327392578	-0.359375	-0.914306641	895.96	18.83709095	-23.44847451	-2.816548094	-72
4549	0	0.155639648	0.114685059	0.346740723	0.999999046	-7.63E-06	3.91E-05	0.000175476	3.890991211	2.867126465	8.668518066	-0.00038147	0.001955032	0.008773804	0.324951172	-0.357177734	-0.911621094	895.9	18.8207328	-23.4411073	-2.788839495	-72
4550	0	0.158399582	0.114501953	0.346815109	0.999999046	0.000238419	-2.10E-05	-3.05E-05	3.959989548	2.862548828	8.670377731	0.011920929	-0.001049042	-0.001525879	0.324951172	-0.357177734	-0.914550781	895.96	18.84321917	-23.43271469	-2.790376675	-72
4551	0	0.155883789	0.115844727	0.346008301	0.999999046	0.000267029	2.00E-05	-6.48E-05	3.897094727	2.896118164	8.65020752	0.013351441	0.001001358	-0.003242493	0.324951172	-0.357177734	-0.911621094	895.98	18.87000975	-23.41857085	-2.793207206	-72
4552	0	0.155855179	0.116599083	0.346439362	0.999999046	-0.000212669	-4.96E-05	0.000141144	3.896379471	2.914977074	8.660984039	-0.010633469	-0.002479553	0.00705719	0.324951172	-0.359375	-0.914306641	895.86	18.83336586	-23.41956786	-2.771349648	-72
4553	0	0.157348633	0.115661621	0.347839355	0.999999046	-0.00019455	2.38E-05	0.000110626	3.93371582	2.891540527	8.695983887	-0.009727478	0.001192093	0.005531311	0.327392578	-0.359375	-0.914306641	895.9	18.79908862	-23.41147718	-2.74942632	-72
4554	0	0.156624794	0.114209175	0.34844017	0.999999046	1.91E-06	-7.44E-05	2.57E-05	3.91561985	2.855229378	8.711004257	9.54E-05	-0.00371933	0.00128746	0.324951172	-0.357177734	-0.911621094	895.96	18.79283726	-23.41088335	-2.743671648	-72
4555	0	0.156494141	0.116210938	0.347167969	0.999999046	1.91E-05	-6.68E-06	0.000179291	3.912353516	2.905273438	8.679199219	0.000953674	-0.000333786	0.008964539	0.324951172	-0.357177734	-0.917236328	895.92	18.78034662	-23.40859128	-2.720679785	-72
4556	0	0.157334328	0.116411209	0.346000671	0.999999046	-0.00017643	-1.14E-05	7.63E-06	3.933358192	2.910280228	8.650016785	-0.008821487	-0.000572205	0.00038147	0.322509766	-0.354736328	-0.914550781	895.96	18.75371151	-23.40052815	-2.7200744	-72
4557	0	0.156433105	0.113769531	0.346679688	0.999999046	-0.000202179	7.34E-05	8.77E-05	3.910827637	2.844238281	8.666992188	-0.010108948	0.003671646	0.004386902	0.324951172	-0.354980469	-0.917480469	895.92	18.7189902	-23.38621445	-2.707039738	-72
4558	0	0.155731201	0.114821434	0.348091125	0.999999046	0.000234604	-2.86E-05	-1.91E-05	3.893280029	2.870535851	8.702278137	0.011730194	-0.001430511	-0.000953674	0.324951172	-0.354980469	-0.917480469	895.96	18.74097656	-23.37899123	-2.711277139	-72
4559	0	0.155578613	0.11541748	0.347900391	0.999999046	0.000175476	4.77E-06	5.72E-05	3.889465332	2.885437012	8.697509766	0.008773804	0.000238419	0.002861023	0.324951172	-0.357177734	-0.914550781	895.9	18.75212075	-23.37090025	-2.699694367	-72
4560	0	0.156442642	0.115581512	0.346761703	0.999999046	-6.20E-05	1.53E-05	0.000113487	3.911066055	2.889537811	8.669042587	-0.003099442	0.000762939	0.005674362	0.327148438	-0.354980469	-0.914794922	895.96	18.73331813	-23.36374857	-2.684990685	-72
4561	0	0.156005859	0.115539551	0.346984863	0.999999046	-0.000125885	-0.000102043	0.000110626	3.900146484	2.88848877	8.674621582	-0.006294251	-0.005102158	0.005531311	0.327392578	-0.359375	-0.917236328	896.02	18.70926117	-23.36920952	-2.668085775	-72
