Counter	Temperature	VelInc_X	VelInc_Y	VelInc_Z	OriInc_w	OriInc_x	OriInc_y	OriInc_z	Acc_X	Acc_Y	Acc_Z	Gyr_X	Gyr_Y	Gyr_Z	Mag_X	Mag_Y	Mag_Z	Pressure	Roll	Pitch	Yaw	RSSI
32276	0	0.387693405	-0.033322334	0.083800316	0.999998093	-0.001373291	0.000231743	0.000297546	9.692335129	-0.833058357	2.095007896	-0.068664574	0.011587147	0.014877324	-0.645263672	0.535644531	-0.516113281	892.1	-20.59914978	-77.2817299	-38.2362682	-55
32277	0	0.38684082	-0.033996582	0.084960938	0.999999046	-0.001075745	0.000283241	0.000701904	9.671020508	-0.849914551	2.124023438	-0.053787247	0.014162068	0.035095225	-0.647949219	0.542480469	-0.510742188	892.04	-20.97267245	-77.21565341	-37.98818765	-55
32278	0	0.388756752	-0.03691864	0.082842827	0.999999046	-0.001171112	0.00031662	0.000350952	9.7189188	-0.922966003	2.071070671	-0.058555619	0.015830998	0.017547612	-0.645507813	0.540039063	-0.510498047	892.04	-21.18394085	-77.16022299	-37.91396418	-55
32279	0	0.387939453	-0.036437988	0.083068848	0.999999046	-0.001159668	0.000229836	0.000213623	9.698486328	-0.910949707	2.076721191	-0.057983412	0.011491778	0.010681155	-0.643310547	0.542236328	-0.510986328	892.14	-21.34473405	-77.11975388	-37.88906722	-55
32280	0	0.386481285	-0.035698891	0.083712578	0.999998093	-0.001440048	0.000231743	0.000449181	9.662032127	-0.892472267	2.092814445	-0.072002439	0.011587147	0.022459039	-0.643554688	0.544433594	-0.505371094	892.04	-21.64618566	-77.06918756	-37.75744737	-55
32281	0	0.387084961	-0.035766602	0.084350586	0.999999046	-0.001152039	0.000317574	0.000518799	9.677124023	-0.894165039	2.108764648	-0.057601945	0.015878682	0.025939949	-0.645996094	0.546875	-0.505371094	892.08	-21.92916624	-77.00638919	-37.61094075	-55
32282	0	0.386505127	-0.036789894	0.084327698	0.999999046	-0.0008564	0.000314713	0.000598907	9.662628174	-0.919747353	2.108192444	-0.042819985	0.015735629	0.029945379	-0.643798828	0.549072266	-0.502685547	892.04	-22.21350883	-76.94028733	-37.43058704	-55
32283	0	0.387329102	-0.03717041	0.083251953	0.999999046	-0.00056839	0.000252724	0.000431061	9.683227539	-0.929260254	2.081298828	-0.028419497	0.012636186	0.021553042	-0.641357422	0.551025391	-0.505859375	892.1	-22.39797514	-76.88796898	-37.31553334	-55
32284	0	0.386888504	-0.03637886	0.084076881	0.999999046	-0.000531197	7.43866E-05	0.000403404	9.672212601	-0.909471512	2.101922035	-0.026559832	0.00371933	0.020170213	-0.641357422	0.553466797	-0.506103516	892.04	-22.59779985	-76.85572194	-37.18061383	-55
32285	0	0.38684082	-0.03729248	0.083679199	0.999999046	-0.000480652	0.000134468	0.000278473	9.671020508	-0.932312012	2.09197998	-0.024032594	0.006723404	0.013923646	-0.641601563	0.553466797	-0.503173828	892.04	-22.72318911	-76.8226239	-37.11832989	-55
32286	0	0.387407303	-0.038321495	0.083928108	0.999999046	-0.000234604	-3.62396E-05	0.000163078	9.685182571	-0.958037376	2.098202705	-0.011730194	-0.001811981	0.008153916	-0.641601563	0.553466797	-0.503173828	892.02	-22.8003568	-76.81271373	-37.07591666	-55
32287	0	0.386535645	-0.037963867	0.084350586	0.999999046	0.000507355	3.14713E-05	0.0001297	9.663391113	-0.94909668	2.108764648	0.025367738	0.001573563	0.006484986	-0.641601563	0.555664063	-0.503417969	891.96	-22.76449971	-76.79715966	-37.06452271	-56
32288	0	0.38609314	-0.036575317	0.084288597	0.999999046	0.000609398	-1.71661E-05	0.000110626	9.652328491	-0.914382935	2.107214928	0.030469896	-0.000858307	0.005531311	-0.641601563	0.553466797	-0.503173828	892.1	-22.71721211	-76.7876524	-37.05242199	-55
32289	0	0.389038086	-0.03527832	0.084228516	0.999999046	0.000507355	-0.000128746	8.39233E-05	9.725952148	-0.881958008	2.105712891	0.025367738	-0.006437302	0.004196167	-0.641601563	0.553466797	-0.503173828	892.1	-22.69004	-76.79124561	-37.03228516	-55
32290	0	0.38899231	-0.03617382	0.084102631	0.999999046	-0.000211716	-9.53674E-06	-0.000164032	9.724807739	-0.904345512	2.102565765	-0.010585785	-0.000476837	-0.008201599	-0.641357422	0.551025391	-0.508789063	892.08	-22.61076053	-76.79329399	-37.14177967	-56
32291	0	0.389770508	-0.037841797	0.083618164	0.999999046	-0.000843048	0.000103951	-0.000236511	9.744262695	-0.946044922	2.090454102	-0.04215241	0.005197526	-0.011825563	-0.639160156	0.553222656	-0.503417969	892.08	-22.54996985	-76.78660055	-37.31263465	-55
32292	0	0.385802269	-0.035668373	0.085590363	0.999999046	-0.000905037	0.000160217	-0.00031662	9.645056725	-0.891709328	2.139759064	-0.045251853	0.008010866	-0.015830996	-0.643798828	0.551269531	-0.502929688	892.04	-22.44932042	-76.77742992	-37.53015301	-55
32293	0	0.384033203	-0.037719727	0.085632324	0.999999046	-0.000389099	-3.33786E-05	-0.000339508	9.600830078	-0.942993164	2.140808105	-0.019454957	-0.00166893	-0.016975404	-0.641357422	0.553466797	-0.506103516	892.02	-22.31520859	-76.78962999	-37.71842718	-56
32294	0	0.388092995	-0.037827492	0.084111214	0.999999046	0.000301361	-0.000148773	-0.000260353	9.702324867	-0.945687294	2.102780342	0.015068055	-0.00743866	-0.013017655	-0.641357422	0.553466797	-0.506103516	892.18	-22.1588701	-76.81059095	-37.84889075	-56
32295	0	0.387878418	-0.037353516	0.085388184	0.999999046	0.000926971	-9.44138E-05	-0.000225067	9.696960449	-0.933837891	2.13470459	0.046348579	-0.004720689	-0.011253359	-0.643798828	0.551269531	-0.505859375	892.1	-21.93634862	-76.82415766	-37.97463127	-56
32296	0	0.387971878	-0.03567791	0.0858078	0.999999046	0.001070976	-5.53131E-05	-0.000451088	9.699296951	-0.891947746	2.145195007	0.053548825	-0.002765656	-0.022554403	-0.645996094	0.551269531	-0.508544922	892.04	-21.58659504	-76.84302308	-38.21389585	-56
32297	0	0.384338379	-0.035522461	0.084350586	0.999999046	0.000610352	-2.19345E-05	-0.000461578	9.608459473	-0.888061523	2.108764648	0.030517581	-0.001096726	-0.023078921	-0.645996094	0.546875	-0.502441406	892.1	-21.27794785	-76.85847544	-38.47034202	-55
32298	0	0.385070801	-0.036499023	0.084838867	0.999999046	0.000301361	-6.86646E-05	-4.57764E-05	9.62677002	-0.912475586	2.12097168	0.015068054	-0.003433228	-0.002288818	-0.643554688	0.546630859	-0.508300781	892.08	-21.20302251	-76.86145829	-38.51602957	-56
32299	0	0.388183594	-0.03692627	0.085693359	0.999999046	0.000236511	-1.81198E-05	0.000148773	9.704589844	-0.923156738	2.142333984	0.011825562	-0.000905991	0.00743866	-0.645996094	0.549072266	-0.511230469	892.1	-21.21576847	-76.85094948	-38.47874442	-56
32300	0	0.388298035	-0.036330223	0.086732864	0.999999046	0.000559807	-4.76837E-05	3.33786E-05	9.707450867	-0.908255577	2.168321609	0.027990343	-0.002384186	0.00166893	-0.645751953	0.546875	-0.511230469	892.1	-21.14392015	-76.84832807	-38.48954417	-55
32301	0	0.386230469	-0.036010742	0.08581543	0.999999046	0.000770569	8.58307E-06	-3.8147E-06	9.655761719	-0.900268555	2.145385742	0.038528446	0.000429153	-0.000190735	-0.645751953	0.546875	-0.511230469	892.02	-21.02101122	-76.84118762	-38.52976293	-56
32302	0	0.385374069	-0.033557892	0.085079193	0.999999046	0.001317978	3.8147E-06	0.00037384	9.63435173	-0.838947296	2.126979828	0.065898916	0.000190735	0.018692022	-0.645751953	0.546875	-0.511230469	892.08	-21.00852216	-76.81906323	-38.39476395	-55
32303	0	0.386169434	-0.034729004	0.085693359	0.999998093	0.001259804	-0.000183105	0.00063324	9.65423584	-0.868225098	2.142333984	0.06299021	-0.009155277	0.031661998	-0.645751953	0.544677734	-0.505126953	892.08	-21.1534418	-76.80619732	-38.11237888	-56
32304	0	0.390486717	-0.03635788	0.083016396	0.999999046	0.000868797	-0.000127792	0.000254631	9.762167931	-0.908946991	2.075409889	0.043439871	-0.006389619	0.012731554	-0.643310547	0.542236328	-0.510986328	892.08	-21.16089279	-76.8031476	-38.00867994	-56
32305	0	0.387695313	-0.034179688	0.085266113	0.999999046	0.000915527	-5.24521E-05	1.52588E-05	9.692382813	-0.854492188	2.131652832	0.045776374	-0.002622605	0.00076294	-0.645751953	0.544677734	-0.510986328	892.08	-21.0402646	-76.80199456	-38.03564327	-55
32306	0	0.382698059	-0.033730507	0.085103989	0.999999046	0.000450134	-5.34058E-05	8.39233E-05	9.567451477	-0.843262672	2.127599716	0.022506715	-0.002670288	0.004196167	-0.643310547	0.542236328	-0.513916016	892.02	-21.00410643	-76.79812939	-38.02502817	-56
32307	0	0.386291504	-0.034118652	0.084960938	0.999999046	0.000156403	-0.000258446	0.000484467	9.657287598	-0.852966309	2.124023438	0.00782013	-0.012922288	0.024223329	-0.643310547	0.542236328	-0.510986328	892.08	-21.21997087	-76.79970532	-37.79325606	-56
32308	0	0.388986588	-0.035568237	0.084708214	0.999999046	2.76566E-05	-0.000213623	0.000534058	9.724664688	-0.889205933	2.117705345	0.001382828	-0.010681153	0.026702882	-0.643310547	0.542236328	-0.513916016	892.1	-21.46520063	-76.79429145	-37.54188093	-56
32309	0	0.387390137	-0.03692627	0.086303711	0.999999046	0.000278473	3.14713E-05	0.000694275	9.684753418	-0.923156738	2.157592773	0.013923646	0.001573563	0.034713748	-0.643310547	0.544433594	-0.513916016	892.1	-21.7099318	-76.75572194	-37.26358905	-56
32310	0	0.386116982	-0.033995628	0.088481903	0.999998093	0.001229286	4.86374E-05	0.000827789	9.652924538	-0.849890709	2.212047577	0.061464332	0.00243187	0.04138948	-0.643066406	0.542236328	-0.516845703	892.02	-21.90053333	-76.70931042	-36.92520508	-56
32311	0	0.385192871	-0.034851074	0.086120605	0.999999046	0.000854492	-7.15256E-05	0.000717163	9.629821777	-0.871276855	2.153015137	0.042724618	-0.003576279	0.035858162	-0.643310547	0.544433594	-0.513916016	892.1	-22.10407532	-76.68015539	-36.62475074	-57
32312	0	0.387713432	-0.038191795	0.085335732	0.999999046	0.001124382	-8.2016E-05	0.000422478	9.692835808	-0.954794884	2.133393288	0.056219115	-0.004100801	0.021123891	-0.640869141	0.544433594	-0.514160156	892.02	-22.14598213	-76.66470265	-36.45986281	-57
32313	0	0.38885498	-0.035766602	0.086425781	0.999998093	0.001339912	-0.000205994	0.000328064	9.721374512	-0.894165039	2.160644531	0.066995642	-0.010299686	0.016403204	-0.638427734	0.541992188	-0.517089844	892.08	-22.14299075	-76.66650682	-36.311484	-56
32314	0	0.387890816	-0.033837318	0.086295128	0.999998093	0.001694679	-0.000134468	0.000227928	9.697270393	-0.845932961	2.157378197	0.084734005	-0.006723407	0.011396414	-0.643066406	0.540039063	-0.516601563	892.04	-22.04069357	-76.6651217	-36.22665605	-56
32315	0	0.387817383	-0.03302002	0.083374023	0.999998093	0.001549721	-5.34058E-05	5.72205E-05	9.69543457	-0.825500488	2.084350586	0.077486069	-0.002670289	0.002861024	-0.640625	0.539794922	-0.516601563	892.1	-21.86316719	-76.66268757	-36.23900633	-56
32316	0	0.386296272	-0.033110619	0.083618164	0.999999046	0.000555992	-0.000259399	8.39233E-05	9.657406807	-0.827765465	2.090454102	0.027799608	-0.012969972	0.004196167	-0.640380859	0.537597656	-0.522216797	892.18	-21.84804693	-76.68119669	-36.19246584	-56
32317	0	0.390319824	-0.034606934	0.082885742	0.999999046	-0.000831604	-0.000163078	-0.000156403	9.757995605	-0.86517334	2.072143555	-0.041580205	-0.008153916	-0.00782013	-0.640625	0.537597656	-0.516601563	892.1	-21.8664448	-76.69993818	-36.2802888	-56
32318	0	0.387489319	-0.035299301	0.085080147	0.999999046	-0.000883102	-0.000221252	-0.000393867	9.687232971	-0.882482529	2.12700367	-0.044155128	-0.011062624	-0.019693378	-0.642822266	0.537597656	-0.522216797	892.08	-21.79386675	-76.73505056	-36.45829845	-56
32319	0	0.383789063	-0.034790039	0.084533691	0.999999046	-0.00100708	-0.000208855	-0.000160217	9.594726563	-0.869750977	2.113342285	-0.050354013	-0.010442736	-0.008010866	-0.640625	0.537597656	-0.516601563	892.1	-21.83815419	-76.75893163	-36.53535224	-56
32320	0	0.386338234	-0.036789894	0.08441925	0.999999046	-0.000300407	-0.000352859	-4.673E-05	9.658455849	-0.919747353	2.110481262	-0.015020371	-0.017642975	-0.002336502	-0.640625	0.539794922	-0.51953125	892.04	-21.87908012	-76.79333513	-36.5295412	-56
32321	0	0.388000488	-0.035949707	0.084350586	0.999999046	0.000389099	-0.000411034	-8.01086E-05	9.700012207	-0.898742676	2.108764648	0.019454957	-0.020551683	-0.004005432	-0.640625	0.537597656	-0.516601563	892.08	-21.83644182	-76.83540457	-36.53058733	-56
32322	0	0.388196945	-0.035211563	0.084424019	0.999999046	0.00063324	-0.000423431	2.19345E-05	9.70492363	-0.880289078	2.110600471	0.03166199	-0.021171572	0.001096726	-0.642822266	0.537597656	-0.519287109	892.08	-21.81430151	-76.87449293	-36.47941718	-56
32323	0	0.38659668	-0.034179688	0.084533691	0.999999046	0.000179291	-0.000247002	-0.000366211	9.664916992	-0.854492188	2.113342285	0.008964539	-0.012350083	-0.018310548	-0.643066406	0.537841797	-0.513427734	891.98	-21.63406239	-76.9113091	-36.652882	-55
32324	0	0.385197639	-0.033867836	0.083683014	0.999999046	-0.00057888	-0.000181198	-0.000244141	9.629940987	-0.8466959	2.092075348	-0.028944018	-0.009059907	-0.012207032	-0.645263672	0.535644531	-0.516113281	892.14	-21.58375037	-76.93593483	-36.77496933	-56
32325	0	0.386962891	-0.037963867	0.084289551	0.999999046	-0.00112915	-0.000258446	0.000225067	9.674072266	-0.94909668	2.10723877	-0.056457533	-0.01292229	0.01125336	-0.647705078	0.537841797	-0.513183594	892.04	-21.82657843	-76.94890816	-36.66420927	-56
32326	0	0.38808918	-0.037233353	0.085469246	0.999999046	-0.000455856	-0.000295639	0.000250816	9.7022295	-0.930833817	2.136731148	-0.022792818	-0.014781953	0.012540818	-0.645507813	0.540039063	-0.510498047	891.98	-22.01149294	-76.96456923	-36.53727247	-56
32327	0	0.387451172	-0.035949707	0.084594727	0.999999046	0.000564575	-0.000170708	0.000274658	9.686279297	-0.898742676	2.114868164	0.028228762	-0.008535386	0.013732911	-0.643066406	0.537841797	-0.507568359	892.14	-22.06737665	-76.96584917	-36.42489038	-56
32328	0	0.388070107	-0.034972191	0.081997871	0.999999046	0.001315117	-0.000226974	0.000315666	9.701752663	-0.874304771	2.049946785	0.065755865	-0.011348728	0.015783315	-0.645263672	0.537841797	-0.516357422	892.14	-22.06647472	-76.97143998	-36.27294678	-56
32329	0	0.386962891	-0.034484863	0.081848145	0.999999046	0.001209259	-0.000273705	0.000225067	9.674072266	-0.862121582	2.046203613	0.060462968	-0.01368523	0.01125336	-0.645507813	0.537841797	-0.513427734	892.02	-22.04472169	-76.98600757	-36.16156328	-56
32330	0	0.391324043	-0.035503387	0.080863953	0.999999046	0.000581741	-0.00025177	0.000156403	9.783101082	-0.887584686	2.021598816	0.029087069	-0.012588502	0.00782013	-0.645507813	0.537841797	-0.513427734	892.14	-22.05948328	-77.00138118	-36.08732282	-56
32331	0	0.387878418	-0.03314209	0.082336426	0.999999046	0.000495911	-0.000201225	6.86646E-05	9.696960449	-0.828552246	2.058410645	0.024795533	-0.010061265	0.003433228	-0.647705078	0.535644531	-0.512939453	892.02	-22.03386798	-77.0152716	-36.06419777	-56
32332	0	0.385464668	-0.032565117	0.081418991	0.999999046	-5.62668E-05	-0.00012207	0.000347137	9.636616707	-0.814127922	2.035474777	-0.002813339	-0.006103516	0.017356873	-0.642822266	0.535400391	-0.513183594	892.1	-22.18448377	-77.00887112	-35.92260256	-56
32333	0	0.387939453	-0.035766602	0.08215332	0.999999046	-0.00025177	-0.000185966	0.000217438	9.698486328	-0.894165039	2.053833008	-0.012588501	-0.009298325	0.010871887	-0.640625	0.535400391	-0.510498047	891.96	-22.30989523	-77.0148635	-35.83201483	-56
32334	0	0.389601707	-0.036282539	0.081684113	0.999999046	-0.000425339	-0.000205994	0.000202179	9.740042686	-0.907063484	2.042102814	-0.021266938	-0.010299683	0.010108948	-0.645507813	0.540039063	-0.519287109	892.04	-22.45226414	-77.02368799	-35.73577608	-55
32335	0	0.38861084	-0.035095215	0.082336426	0.999999046	-0.000156403	-0.000132561	0.000324249	9.715270996	-0.877380371	2.058410645	-0.00782013	-0.006628037	0.016212464	-0.643066406	0.537841797	-0.513427734	892.04	-22.60583675	-77.01939736	-35.60118612	-56
32336	0	0.387084961	-0.033419609	0.082832336	0.999999046	0.000294685	-7.43866E-05	0.000254631	9.677124023	-0.835490227	2.070808411	0.014734269	-0.00371933	0.012731552	-0.642822266	0.537597656	-0.519287109	892.08	-22.66393561	-77.01202697	-35.50287832	-56
32337	0	0.385131836	-0.034912109	0.081298828	0.999999046	-0.000263214	9.53674E-07	0.000217438	9.628295898	-0.872802734	2.032470703	-0.013160706	4.76837E-05	0.010871887	-0.645507813	0.537841797	-0.513427734	892.1	-22.7542032	-76.9983913	-35.44597938	-56
32338	0	0.388716698	-0.036222458	0.08103466	0.999999046	-0.000600815	-3.05176E-05	6.77109E-05	9.717917442	-0.905561447	2.025866508	-0.030040743	-0.001525879	0.003385544	-0.643066406	0.540039063	-0.516601563	892.02	-22.8206837	-76.99482073	-35.44857131	-55
32339	0	0.389160156	-0.035827637	0.082092285	0.999999046	-0.000640869	-0.000163078	0.000125885	9.729003906	-0.895690918	2.052307129	-0.032043459	-0.008153916	0.006294251	-0.643310547	0.540039063	-0.5078125	892.08	-22.94382346	-77.00273326	-35.40886247	-55
32340	0	0.389177322	-0.035848618	0.082651138	0.999999046	-0.000569344	-0.000160217	2.19345E-05	9.72943306	-0.896215439	2.066278458	-0.02846718	-0.008010865	0.001096726	-0.643066406	0.540039063	-0.510742188	892.04	-23.01057903	-77.01502303	-35.41208044	-55
32341	0	0.388183594	-0.035827637	0.081542969	0.999999046	-0.000289917	-4.48227E-05	0.000144958	9.704589844	-0.895690918	2.038574219	-0.01449585	-0.002241135	0.007247925	-0.643066406	0.540039063	-0.510742188	892.1	-23.07906664	-77.00970622	-35.37962251	-55
32342	0	0.38640976	-0.037147522	0.081729889	0.999999046	-0.00018692	2.86102E-05	0.000205994	9.660243988	-0.928688049	2.043247223	-0.009346008	0.001430511	0.010299683	-0.643310547	0.542236328	-0.508056641	892.02	-23.14938267	-76.99391953	-35.33912368	-56
32343	0	0.390441895	-0.037231445	0.081420898	0.999999046	-0.000221252	5.43594E-05	4.57764E-05	9.761047363	-0.930786133	2.035522461	-0.011062622	0.002717972	0.002288818	-0.643310547	0.542236328	-0.508056641	892.1	-23.1456123	-76.98271751	-35.37809505	-56
32344	0	0.388293266	-0.035655975	0.081201553	0.999999046	0.000153542	-7.62939E-06	-7.62939E-05	9.707331657	-0.891399384	2.030038834	0.007677078	-0.00038147	-0.003814697	-0.643310547	0.542236328	-0.510986328	892.1	-23.0551684	-76.98363337	-35.4578801	-55
32345	0	0.385803223	-0.03503418	0.081787109	0.999999046	-4.19617E-05	-4.86374E-05	9.15527E-05	9.645080566	-0.875854492	2.044677734	-0.002098084	-0.00243187	0.004577637	-0.645507813	0.542236328	-0.516601563	891.98	-23.07130848	-76.98138153	-35.44277287	-56
32346	0	0.387818336	-0.037492752	0.080890656	0.999999046	-0.000167847	0.000164032	0.000236511	9.695458412	-0.937318802	2.022266388	-0.008392334	0.008201599	0.011825562	-0.645507813	0.540039063	-0.510498047	892.08	-23.12684582	-76.95026913	-35.40886271	-56
32347	0	0.388122559	-0.03704834	0.081420898	0.999999046	-0.000190735	0.000123024	0.000347137	9.703063965	-0.926208496	2.035522461	-0.009536743	0.0061512	0.017356873	-0.643310547	0.542236328	-0.508056641	892.04	-23.24302865	-76.91854536	-35.32054013	-55
32348	0	0.387040138	-0.035090446	0.081868172	0.999999046	-0.000275612	6.10352E-05	0.000342369	9.676003456	-0.877261162	2.046704292	-0.013780594	0.003051758	0.017118455	-0.643310547	0.542236328	-0.508056641	892.04	-23.37799281	-76.89360187	-35.22179343	-56
32349	0	0.387451172	-0.034912109	0.081665039	0.999999046	-0.000556946	0.000100136	0.000289917	9.686279297	-0.872802734	2.041625977	-0.027847292	0.00500679	0.014495851	-0.640869141	0.544433594	-0.511230469	892.04	-23.51300242	-76.86699557	-35.15126746	-55
32350	0	0.387901306	-0.037242889	0.08188343	0.999999046	-0.000930786	0.00012207	0.000315666	9.697532654	-0.931072235	2.047085762	-0.046539314	0.006103517	0.015783313	-0.643310547	0.542236328	-0.508056641	891.98	-23.69765587	-76.83693113	-35.07414804	-55
32351	0	0.389038086	-0.039672852	0.081970215	0.999999046	-0.000671387	0.000172615	0.000469208	9.725952148	-0.991821289	2.049255371	-0.03356934	0.008630754	0.023460391	-0.641113281	0.546630859	-0.508544922	892.02	-23.9110933	-76.79444572	-34.93860088	-55
32352	0	0.388912201	-0.038013458	0.083211899	0.999999046	-0.000422478	0.000211716	0.000419617	9.722805023	-0.950336456	2.08029747	-0.021123888	0.010585786	0.020980836	-0.641113281	0.546630859	-0.508544922	892.04	-24.06503137	-76.75010568	-34.8336345	-55
32353	0	0.38848877	-0.038208008	0.08203125	0.999999046	-0.000270844	0.00023365	0.000244141	9.712219238	-0.955200195	2.05078125	-0.013542176	0.011682511	0.012207032	-0.641113281	0.548828125	-0.508789063	892.08	-24.11871803	-76.71172152	-34.81541307	-55
32354	0	0.387088776	-0.038319588	0.081763268	0.999999046	-0.000221252	0.000320435	0.000179291	9.677219391	-0.957989693	2.044081688	-0.011062622	0.016021729	0.008964539	-0.638671875	0.548828125	-0.51171875	892.14	-24.1207432	-76.6673838	-34.83905906	-55
32355	0	0.388000488	-0.03717041	0.081237793	0.999999046	-0.000728607	0.000161171	8.39233E-05	9.700012207	-0.929260254	2.030944824	-0.036430362	0.008058549	0.004196167	-0.638916016	0.548828125	-0.508789063	892.1	-24.17015898	-76.64433445	-34.87678724	-56
32356	0	0.388334274	-0.038146019	0.08014679	0.999998093	-0.00153923	0.000277519	0.000224113	9.708356857	-0.953650475	2.003669739	-0.076961549	0.013875967	0.011205678	-0.638916016	0.548828125	-0.505859375	892.02	-24.35103454	-76.60275085	-34.87555687	-55
32357	0	0.388427734	-0.039428711	0.082275391	0.999997139	-0.002120972	0.000329018	3.05176E-05	9.710693359	-0.985717773	2.056884766	-0.106048665	0.016450895	0.00152588	-0.639160156	0.555419922	-0.509277344	892.14	-24.50326363	-76.5650632	-34.9688151	-55
32358	0	0.385195732	-0.038772583	0.084317207	0.999998093	-0.001461983	-1.23978E-05	0.000124931	9.629893303	-0.969314575	2.107930183	-0.073099163	-0.000619889	0.006246569	-0.639160156	0.557861328	-0.503662109	891.98	-24.68874765	-76.55850444	-34.95777814	-55
32359	0	0.38470459	-0.043884277	0.083679199	0.999999046	-0.000350952	-0.000105858	0.000160217	9.617614746	-1.097106934	2.09197998	-0.017547608	-0.005292893	0.008010864	-0.636962891	0.559814453	-0.50390625	892.04	-24.78170981	-76.559878	-34.91076202	-55
32360	0	0.387638092	-0.042175293	0.083322525	0.999999046	0.00083065	-7.43866E-05	6.38962E-05	9.690952301	-1.054382324	2.083063126	0.041532521	-0.00371933	0.003194809	-0.639160156	0.555664063	-0.503417969	892.04	-24.69138987	-76.56257999	-34.91182466	-55
32361	0	0.387817383	-0.039550781	0.082214355	0.999999046	0.000499725	-1.43051E-05	0.0001297	9.69543457	-0.988769531	2.055358887	0.024986268	-0.000715256	0.006484986	-0.639160156	0.555664063	-0.503417969	892.04	-24.65560602	-76.55596547	-34.89709188	-55
32362	0	0.387077332	-0.037494659	0.081811905	0.999999046	-0.000484467	0.000179291	0.000346184	9.676933289	-0.937366486	2.045297623	-0.024223329	0.008964539	0.01730919	-0.639160156	0.555419922	-0.506347656	892.02	-24.78754872	-76.51896453	-34.81925044	-55
32363	0	0.385253906	-0.038513184	0.082336426	0.999999046	-0.001167297	2.00272E-05	0.000205994	9.631347656	-0.96282959	2.058410645	-0.058364882	0.001001358	0.010299685	-0.63671875	0.555419922	-0.503662109	892.14	-24.96817964	-76.5053248	-34.77204572	-55
32364	0	0.38492775	-0.042469978	0.084326744	0.999999046	-0.000855446	-6.86646E-05	4.86374E-05	9.623193741	-1.061749458	2.108168602	-0.042772298	-0.003433228	0.00243187	-0.639404297	0.557861328	-0.500732422	892.04	-25.06303214	-76.50841765	-34.78194659	-56
32365	0	0.387451172	-0.042297363	0.084228516	0.999999046	-0.00030899	-0.000155449	0.000133514	9.686279297	-1.057434082	2.105712891	-0.015449524	-0.007772446	0.00667572	-0.639648438	0.562255859	-0.498291016	891.96	-25.14982437	-76.51634988	-34.74340679	-55
32366	0	0.38722229	-0.041049957	0.08420372	0.999999046	5.34058E-05	-2.86102E-05	6.77109E-05	9.680557251	-1.026248932	2.105093002	0.002670288	-0.001430511	0.003385544	-0.636962891	0.557861328	-0.498046875	892.14	-25.14083858	-76.51429818	-34.75521569	-56
32367	0	0.387634277	-0.040161133	0.083435059	0.999999046	0.000247955	-4.1008E-05	6.10352E-05	9.690856934	-1.00402832	2.085876465	0.012397766	-0.0020504	0.003051758	-0.639404297	0.560058594	-0.498046875	892.1	-25.10903417	-76.51389127	-34.77118042	-55
32368	0	0.385011673	-0.04034996	0.083482742	0.999999046	0.000128746	7.82013E-05	-0.000203133	9.625291824	-1.008749008	2.087068558	0.006437302	0.003910065	-0.010156632	-0.636962891	0.557617188	-0.500976563	892.08	-24.95230456	-76.51390611	-34.92199056	-56
32369	0	0.38671875	-0.039978027	0.082397461	0.999999046	-0.000179291	3.14713E-05	5.72205E-05	9.66796875	-0.999450684	2.059936523	-0.008964539	0.001573563	0.002861023	-0.63671875	0.557617188	-0.506835938	892.04	-24.95305288	-76.50621322	-34.93670496	-56
32370	0	0.388661385	-0.039442062	0.082100868	0.999999046	-0.000259399	4.57764E-05	-3.14713E-05	9.716534615	-0.986051559	2.052521706	-0.012969971	0.002288818	-0.001573563	-0.639404297	0.560058594	-0.500976563	892.08	-24.92163501	-76.5014423	-35.00689499	-55
32371	0	0.39050293	-0.040588379	0.082824707	0.999999046	-0.000148773	-3.71933E-05	-0.000133514	9.762573242	-1.014709473	2.070617676	-0.00743866	-0.001859665	-0.00667572	-0.639404297	0.560058594	-0.500976563	892.14	-24.85008558	-76.51028942	-35.10489509	-56
32372	0	0.388077736	-0.037275314	0.082905769	0.999999046	0.000279427	-0.0001297	-0.0001688	9.701943398	-0.931882858	2.072644234	0.013971329	-0.006484985	-0.008440018	-0.639160156	0.557861328	-0.503662109	892.16	-24.73195367	-76.53053305	-35.19385639	-56
32373	0	0.386962891	-0.036865234	0.083496094	0.999999046	0.00075531	0.000100136	7.62939E-06	9.674072266	-0.921630859	2.087402344	0.037765507	0.005006791	0.00038147	-0.639160156	0.557861328	-0.503662109	892.04	-24.58923836	-76.51842768	-35.25462622	-55
32374	0	0.390119553	-0.033450127	0.083013535	0.999999046	0.000644684	8.2016E-05	-0.00030899	9.752988815	-0.836253166	2.075338364	0.032234195	0.0041008	-0.015449525	-0.639160156	0.555664063	-0.503417969	892.1	-24.32398215	-76.52338193	-35.45483427	-55
32375	0	0.389465332	-0.034179688	0.081542969	0.999999046	-0.000354767	0.000275612	-0.000724792	9.736633301	-0.854492188	2.038574219	-0.017738344	0.013780596	-0.036239628	-0.639160156	0.555664063	-0.503417969	892.14	-23.95292356	-76.52755344	-35.8820553	-56
32376	0	0.388002396	-0.032821655	0.082159042	0.999999046	-0.001135826	0.00021553	-0.000626564	9.700059891	-0.820541382	2.053976059	-0.056791322	0.010776523	-0.03132821	-0.641601563	0.555664063	-0.503417969	892.08	-23.72472739	-76.53316632	-36.25280967	-56
32377	0	0.386047363	-0.032836914	0.082092285	0.999996185	-0.002295494	0.00025177	-0.000759125	9.651184082	-0.820922852	2.052307129	-0.114774817	0.012588513	-0.037956275	-0.643798828	0.555664063	-0.506103516	892.04	-23.56316575	-76.54096015	-36.68215274	-56
32378	0	0.387770653	-0.037451744	0.083090782	0.999994278	-0.003031731	0.000159264	-0.000908852	9.694266319	-0.936293602	2.077269554	-0.151586786	0.007963194	-0.045442657	-0.641601563	0.555664063	-0.500488281	892.04	-23.4372436	-76.56512995	-37.16308719	-56
32379	0	0.388061523	-0.039367676	0.084289551	0.999994278	-0.002985954	0.000110626	-0.000995636	9.701538086	-0.984191895	2.10723877	-0.149297961	0.00553132	-0.049781882	-0.641845703	0.555664063	-0.494628906	892.02	-23.27609307	-76.59804695	-37.67756916	-56
32380	0	0.385497093	-0.039910316	0.086332321	0.999996185	-0.002498627	-1.62125E-05	-0.000565529	9.63742733	-0.997757912	2.158308029	-0.124931472	-0.000810624	-0.028276474	-0.64453125	0.5625	-0.4921875	892.14	-23.27239365	-76.62449587	-37.97857867	-56
32381	0	0.38482666	-0.039916992	0.087646484	0.999998093	-0.001410484	-2.67029E-05	-0.000339508	9.620666504	-0.997924805	2.191162109	-0.07052424	-0.001335145	-0.016975409	-0.64453125	0.5625	-0.489257813	892.16	-23.24581745	-76.64155756	-38.17609493	-57
32382	0	0.384614944	-0.042100906	0.087384224	0.999999046	-0.000318527	1.52588E-05	-0.000293732	9.615373611	-1.052522659	2.184605598	-0.015926362	0.000762939	-0.014686585	-0.646972656	0.560302734	-0.486083984	892.02	-23.10683362	-76.65178655	-38.36380043	-56
32383	0	0.386962891	-0.040039063	0.08605957	0.999999046	0.000724792	-7.15256E-05	-1.52588E-05	9.674072266	-1.000976563	2.151489258	0.036239627	-0.003576279	-0.00076294	-0.64453125	0.5625	-0.4921875	892.08	-22.98868386	-76.65841922	-38.40028781	-56
32384	0	0.386487007	-0.037830353	0.084470749	0.999998093	0.001476288	-0.000178337	0.000110626	9.662175179	-0.94575882	2.111768723	0.073814419	-0.008916858	0.005531313	-0.64453125	0.560302734	-0.489013672	892.08	-22.86063634	-76.67063826	-38.36565697	-57
32385	0	0.389831543	-0.038513184	0.083984375	0.999998093	0.001423836	-0.000160217	-0.000183105	9.745788574	-0.96282959	2.099609375	0.071191812	-0.008010867	-0.009155277	-0.646728516	0.560302734	-0.491943359	892.04	-22.60429695	-76.69397173	-38.46867185	-57
32386	0	0.385842323	-0.034594536	0.083532333	0.999998093	0.001717567	-0.000292778	-0.000209808	9.646058083	-0.864863396	2.088308334	0.085878416	-0.014638908	-0.010490423	-0.644287109	0.560302734	-0.494873047	892.1	-22.32588475	-76.73243618	-38.55868321	-56
32387	0	0.382751465	-0.034729004	0.082885742	0.999998093	0.001790047	-0.000305176	0.00019455	9.568786621	-0.868225098	2.072143555	0.089502384	-0.015258798	0.009727483	-0.646484375	0.555908203	-0.494384766	892.02	-22.22257886	-76.75459411	-38.46121641	-56
32388	0	0.388892174	-0.032022476	0.082335472	0.999996185	0.00246048	-0.000464439	0.000583649	9.722304344	-0.800561905	2.058386803	0.123024122	-0.023221995	0.029182466	-0.646484375	0.555908203	-0.494384766	892.04	-22.24681192	-76.77693806	-38.15950192	-57
32389	0	0.389953613	-0.032531738	0.083129883	0.999996185	0.002408028	-0.000396729	0.000637054	9.748840332	-0.813293457	2.07824707	0.12040151	-0.019836447	0.031852756	-0.646484375	0.553710938	-0.497070313	892.08	-22.28856847	-76.78984353	-37.84423342	-57
32390	0	0.389307976	-0.030495644	0.082173347	0.999996185	0.002602577	-7.72476E-05	0.000227928	9.732699394	-0.76239109	2.054333687	0.130129009	-0.003862385	0.011396421	-0.645996094	0.549072266	-0.502685547	892.04	-22.06338004	-76.78682773	-37.77231284	-56
32391	0	0.38684082	-0.027160645	0.080566406	0.999998093	0.001740456	0.000183105	-0.000202179	9.671020508	-0.679016113	2.014160156	0.087022826	0.009155278	-0.010108953	-0.645996094	0.546875	-0.505371094	892.08	-21.69363617	-76.77484729	-37.94918487	-56
32392	0	0.386699677	-0.027763367	0.080377579	0.999999046	-0.000758171	0.000261307	-0.000458717	9.667491913	-0.694084167	2.009439468	-0.037908559	0.01306534	-0.022935871	-0.645996094	0.546875	-0.505371094	892.1	-21.47928022	-76.76540912	-38.25947598	-56
32393	0	0.38861084	-0.031677246	0.07989502	0.999994278	-0.003123283	0.000305176	-0.000495911	9.715270996	-0.791931152	1.997375488	-0.156164432	0.015258815	-0.024795574	-0.6484375	0.546875	-0.505126953	892.04	-21.51146501	-76.75298614	-38.58782908	-56
32394	0	0.388407707	-0.032488823	0.084079742	0.999990463	-0.004267693	0.000155449	-0.00048542	9.71019268	-0.812220573	2.101993561	-0.213385285	0.00777247	-0.024271086	-0.648681641	0.549316406	-0.496582031	892.04	-21.70607956	-76.75626829	-38.89003398	-56
32395	0	0.387695313	-0.03515625	0.085144043	0.999993324	-0.003501892	0.000119209	-0.000427246	9.692382813	-0.87890625	2.128601074	-0.175094968	0.005960477	-0.021362349	-0.648925781	0.555908203	-0.497314453	892.08	-21.84581542	-76.76107103	-39.15489683	-56
32396	0	0.386057854	-0.036705017	0.085101128	0.999997139	-0.001965523	4.19617E-05	-0.000275612	9.651446342	-0.917625427	2.127528191	-0.098276203	0.002098085	-0.013780603	-0.649169922	0.558105469	-0.491699219	892.08	-21.89235589	-76.76760494	-39.34177298	-56
32397	0	0.386779785	-0.037109375	0.086975098	0.999999046	-0.00038147	2.38419E-05	-0.000144958	9.669494629	-0.927734375	2.174377441	-0.019073487	0.001192093	-0.007247925	-0.649169922	0.558349609	-0.488769531	892.14	-21.81997711	-76.77028039	-39.46897775	-56
32398	0	0.388799667	-0.035473824	0.083303452	0.999999046	-1.14441E-05	-7.62939E-05	-3.14713E-05	9.719991684	-0.886845589	2.082586288	-0.000572205	-0.003814697	-0.001573563	-0.646728516	0.558105469	-0.494628906	892.08	-21.774908	-76.7787688	-39.51284948	-55
32399	0	0.388671875	-0.034423828	0.083679199	0.999999046	0.000263214	-6.38962E-05	-0.000160217	9.716796875	-0.860595703	2.09197998	0.013160706	-0.003194809	-0.008010864	-0.651367188	0.558349609	-0.491455078	892.08	-21.63769977	-76.7913926	-39.627416	-56
32400	0	0.383503914	-0.031755447	0.081997871	0.999999046	-0.000287056	2.09808E-05	-3.43323E-05	9.587597847	-0.793886185	2.049946785	-0.014352799	0.001049042	-0.001716614	-0.649169922	0.558349609	-0.488769531	892.04	-21.60495897	-76.78969832	-39.70283579	-56
32401	0	0.385986328	-0.033813477	0.083251953	0.999999046	-0.000270844	-3.71933E-05	0.0001297	9.649658203	-0.845336914	2.081298828	-0.013542175	-0.001859665	0.006484985	-0.651367188	0.558349609	-0.491455078	892.08	-21.65527745	-76.78728414	-39.68571292	-56
32402	0	0.389401436	-0.034326553	0.083752632	0.999999046	-0.000101089	-0.000108719	0.000235558	9.735035896	-0.858163834	2.093815804	-0.005054474	-0.005435944	0.011777878	-0.648925781	0.555908203	-0.491455078	892.04	-21.74710427	-76.78801344	-39.6016717	-55
32403	0	0.388183594	-0.034667969	0.084350586	0.999999046	-7.62939E-06	-1.04904E-05	0.00012207	9.704589844	-0.866699219	2.108764648	-0.00038147	-0.000524521	0.006103516	-0.651367188	0.556152344	-0.494140625	892.1	-21.75905505	-76.78306023	-39.58480888	-56
32404	0	0.386590004	-0.032444954	0.082265854	0.999999046	-0.000178337	0.000247955	0.000156403	9.664750099	-0.811123848	2.056646347	-0.008916855	0.012397766	0.00782013	-0.648925781	0.558105469	-0.494384766	892.14	-21.75916903	-76.74923253	-39.60142297	-56
32405	0	0.385620117	-0.031860352	0.082092285	0.999999046	-0.000495911	0.000138283	0.000289917	9.64050293	-0.796508789	2.052307129	-0.024795534	0.006914139	0.01449585	-0.651367188	0.558349609	-0.491455078	892.08	-21.875317	-76.72150116	-39.54119014	-55
32406	0	0.388384819	-0.034365654	0.082714081	0.999999046	-0.000875473	0.000141144	0.000437737	9.709620476	-0.85914135	2.06785202	-0.043773658	0.007057191	0.021886829	-0.649169922	0.558105469	-0.491699219	892.14	-22.10051166	-76.68715826	-39.40946773	-56
32407	0	0.388000488	-0.036132813	0.084350586	0.999999046	-0.000656128	0.000184059	0.000411987	9.700012207	-0.903320313	2.108764648	-0.0328064	0.009202958	0.020599367	-0.649169922	0.560546875	-0.485839844	892.08	-22.28059054	-76.6492512	-39.30984158	-56
32408	0	0.387085915	-0.035463333	0.083530426	0.999999046	-0.000191689	4.76837E-05	0.00026226	9.677147865	-0.886583328	2.088260651	-0.009584427	0.002384186	0.013113022	-0.646728516	0.560302734	-0.489013672	892.1	-22.36512058	-76.63228492	-39.24611922	-56
32409	0	0.386108398	-0.034301758	0.082946777	0.999999046	0.000240326	3.91006E-05	0.00025177	9.652709961	-0.857543945	2.073669434	0.012016297	0.001955032	0.012588501	-0.649169922	0.560546875	-0.491699219	892.04	-22.39677997	-76.61673591	-39.18265386	-56
32410	0	0.387244225	-0.033968925	0.083296776	0.999999046	0.000421524	-8.2016E-05	0.00019455	9.681105614	-0.849223137	2.082419395	0.021076203	-0.0041008	0.009727478	-0.649169922	0.560546875	-0.488769531	892.04	-22.40415161	-76.6165858	-39.12920671	-56
32411	0	0.389099121	-0.034240723	0.083007813	0.999999046	-0.00030899	9.63211E-05	0.000160217	9.727478027	-0.856018066	2.075195313	-0.015449524	0.004816055	0.008010864	-0.649169922	0.562744141	-0.491943359	892.04	-22.44703697	-76.59913942	-39.12115196	-56
32412	0	0.390353203	-0.035028458	0.083548546	0.999999046	-0.000792503	0.000221252	-8.4877E-05	9.75883007	-0.875711441	2.088713646	-0.039625172	0.011062623	-0.004243851	-0.646972656	0.5625	-0.489257813	892.08	-22.4134826	-76.57925732	-39.25090762	-56
32413	0	0.385131836	-0.030456543	0.083251953	0.999999046	-0.000743866	0.000206947	6.10352E-05	9.628295898	-0.761413574	2.081298828	-0.037193302	0.010347367	0.003051758	-0.646972656	0.562744141	-0.486328125	892.08	-22.44097719	-76.55463437	-39.31597056	-55
32414	0	0.384238243	-0.032580376	0.082995415	0.999998093	-0.001458168	0.000113487	0.000430107	9.605956078	-0.814509392	2.074885368	-0.07290843	0.005674364	0.021505364	-0.649414063	0.562744141	-0.486083984	892.14	-22.73002944	-76.52378909	-39.19263109	-56
32415	0	0.388977051	-0.034240723	0.082763672	0.999997139	-0.001991272	8.58307E-06	0.000347137	9.72442627	-0.856018066	2.069091797	-0.099563666	0.000429154	0.017356884	-0.649658203	0.567138672	-0.483642578	892.04	-23.06202529	-76.5077029	-39.09084458	-55
32416	0	0.38925457	-0.037837029	0.08396244	0.999997139	-0.001973152	-9.91821E-05	4.86374E-05	9.73136425	-0.945925713	2.099061012	-0.098657672	-0.00495911	0.002431871	-0.647216797	0.569335938	-0.483886719	892.02	-23.2810317	-76.5163327	-39.09782939	-56
32417	0	0.38885498	-0.036315918	0.085510254	0.999998093	-0.00134182	0.000133514	0.000301361	9.721374512	-0.907897949	2.137756348	-0.06709101	0.006675722	0.015068059	-0.647460938	0.571533203	-0.478271484	892.04	-23.49425102	-76.48897494	-39.04514134	-55
32418	0	0.384963989	-0.037388802	0.08569622	0.999999046	-0.000558853	0.000154495	0.000347137	9.624099731	-0.934720039	2.14240551	-0.02794266	0.007724763	0.017356874	-0.647460938	0.571533203	-0.481201172	892.1	-23.63317664	-76.4571775	-38.96933992	-56
32419	0	0.386291504	-0.037902832	0.084716797	0.999999046	-0.000240326	9.53674E-07	0.000431061	9.657287598	-0.947570801	2.117919922	-0.012016297	4.76837E-05	0.02155304	-0.645263672	0.571533203	-0.475585938	892.02	-23.8010578	-76.43754325	-38.83482563	-56
32420	0	0.388027191	-0.038949966	0.083904266	0.999999046	0.000164986	7.05719E-05	0.000545502	9.700679779	-0.973749161	2.097606659	0.008249283	0.003528595	0.027275087	-0.645019531	0.571533203	-0.478515625	892.14	-23.95855141	-76.40522057	-38.65773323	-56
32421	0	0.38873291	-0.03717041	0.083618164	0.999999046	0.000850677	9.53674E-07	0.000255585	9.718322754	-0.929260254	2.090454102	0.04253388	4.76837E-05	0.012779238	-0.642822266	0.573730469	-0.481689453	892.1	-23.92481878	-76.39370091	-38.59487586	-56
32422	0	0.387371063	-0.037042618	0.084046364	0.999999046	0.000844955	-4.76837E-05	5.34058E-05	9.684276581	-0.926065445	2.101159096	0.042247777	-0.002384186	0.002670288	-0.645019531	0.571533203	-0.478515625	892.02	-23.81341628	-76.39671614	-38.61927425	-56
32423	0	0.385864258	-0.035949707	0.083251953	0.999999046	0.000804901	-7.9155E-05	0.000156403	9.646606445	-0.898742676	2.081298828	0.040245061	-0.003957749	0.00782013	-0.645019531	0.569335938	-0.481201172	891.98	-23.75697731	-76.39834394	-38.58648344	-56
32424	0	0.38794136	-0.035204887	0.083185196	0.999999046	0.000336647	-2.28882E-05	0.000449181	9.698534012	-0.880122185	2.079629898	0.016832353	-0.001144409	0.022459031	-0.645019531	0.571533203	-0.484130859	892.04	-23.86983461	-76.38064391	-38.43227269	-55
32425	0	0.388916016	-0.036071777	0.08001709	0.999999046	-0.000385284	-3.33786E-05	0.00056076	9.722900391	-0.901794434	2.000427246	-0.019264223	-0.00166893	0.028038027	-0.645019531	0.571533203	-0.481201172	892.14	-24.1152069	-76.3589968	-38.23040643	-55
32426	0	0.387907982	-0.033213615	0.082039833	0.999999046	-0.000658035	-9.91821E-05	-0.000100136	9.697699547	-0.830340385	2.050995827	-0.032901766	-0.004959107	-0.005006791	-0.642578125	0.571533203	-0.484375	892.02	-24.11850883	-76.37529019	-38.30083389	-56
32427	0	0.384216309	-0.036010742	0.083312988	0.999998093	-0.001479149	1.52588E-05	-0.000175476	9.605407715	-0.900268555	2.082824707	-0.073957471	0.00076294	-0.008773807	-0.642578125	0.573730469	-0.484619141	892.04	-24.16086504	-76.38320389	-38.42554068	-56
32428	0	0.385691643	-0.040029526	0.083572388	0.999999046	-0.001124382	-0.000204086	0.000231743	9.642291069	-1.000738144	2.089309692	-0.056219114	-0.010204317	0.011587146	-0.645263672	0.573730469	-0.475585938	892.02	-24.38131519	-76.39489805	-38.33871732	-56
32429	0	0.389282227	-0.040222168	0.083557129	0.999999046	-0.000747681	-4.48227E-05	0.000312805	9.732055664	-1.005554199	2.088928223	-0.037384037	-0.002241135	0.015640261	-0.643066406	0.575927734	-0.476074219	892.04	-24.5628409	-76.38606683	-38.24550491	-56
32430	0	0.387740135	-0.038271904	0.084197044	0.999999046	-0.000305176	0.000207901	0.000282288	9.69350338	-0.9567976	2.104926109	-0.01525879	0.01039505	0.01411438	-0.645263672	0.575927734	-0.475830078	892.02	-24.63047816	-76.35231373	-38.21767695	-56
32431	0	0.386779785	-0.037780762	0.083007813	0.999999046	-0.000183105	0.000107765	0.000141144	9.669494629	-0.944519043	2.075195313	-0.009155274	0.00538826	0.00705719	-0.645263672	0.578369141	-0.479003906	892.08	-24.64301808	-76.33579268	-38.228426	-56
32432	0	0.386018753	-0.038226128	0.083197594	0.999999046	-0.000260353	-4.76837E-05	0.000338554	9.650468826	-0.955653191	2.079939842	-0.013017655	-0.002384186	0.01692772	-0.645507813	0.578369141	-0.476074219	892.08	-24.77938422	-76.32604483	-38.12514723	-55
32433	0	0.387634277	-0.039550781	0.083068848	0.999999046	-0.000682831	-1.81198E-05	0.000396729	9.690856934	-0.988769531	2.076721191	-0.034141544	-0.000905991	0.019836428	-0.643066406	0.578125	-0.479003906	892.1	-24.98308423	-76.31038732	-37.99317704	-56
32434	0	0.388581276	-0.040646553	0.084341049	0.999999046	-0.00053215	-7.82013E-05	0.000308037	9.714531898	-1.016163826	2.10852623	-0.026607515	-0.003910065	0.015401841	-0.643066406	0.578125	-0.479003906	891.98	-25.14357155	-76.30515823	-37.88582277	-56
32435	0	0.387634277	-0.039916992	0.085632324	0.999999046	-0.00018692	-0.000144005	0.000282288	9.690856934	-0.997924805	2.140808105	-0.009346009	-0.007200241	0.01411438	-0.643066406	0.580322266	-0.479248047	892.08	-25.26651467	-76.30787949	-37.77725978	-56
32436	0	0.385621071	-0.040410995	0.083673477	0.999999046	-6.67572E-06	8.58307E-05	0.000171661	9.640526772	-1.010274887	2.091836929	-0.000333786	0.004291534	0.008583069	-0.640625	0.580322266	-0.4765625	892.1	-25.27571556	-76.29215088	-37.76905735	-56
32437	0	0.385620117	-0.040100098	0.083251953	0.999999046	-0.000141144	1.62125E-05	9.53674E-05	9.64050293	-1.002502441	2.081298828	-0.00705719	0.000810623	0.004768372	-0.645751953	0.582763672	-0.473388672	892.08	-25.28194011	-76.28738346	-37.78957054	-55
32438	0	0.3869524	-0.040808678	0.084533691	0.999999046	-0.000637054	0.000102997	0.000331879	9.673810005	-1.020216942	2.113342285	-0.031852725	0.005149842	0.016593935	-0.640869141	0.580322266	-0.470703125	892.1	-25.42789868	-76.26198665	-37.72340966	-57
32439	0	0.389953613	-0.041809082	0.08380127	0.999999046	-0.000587463	5.43594E-05	8.7738E-05	9.748840332	-1.045227051	2.095031738	-0.029373171	0.002717972	0.004386902	-0.640625	0.580322266	-0.4765625	892.04	-25.47469245	-76.25363098	-37.74042186	-57
32440	0	0.385725975	-0.040145874	0.085076332	0.999999046	0.000199318	3.8147E-06	-0.000102997	9.643149376	-1.003646851	2.126908302	0.009965897	0.000190735	-0.005149841	-0.641113281	0.582763672	-0.468017578	892.04	-25.36062052	-76.25983339	-37.8501447	-57
32441	0	0.383605957	-0.041625977	0.083862305	0.999999046	0.000770569	-3.33786E-05	6.10352E-05	9.590148926	-1.040649414	2.096557617	0.038528446	-0.00166893	0.003051758	-0.640625	0.580322266	-0.4765625	892.08	-25.25824438	-76.26174566	-37.86356868	-57
32442	0	0.387084961	-0.043374062	0.084695816	0.999999046	0.000923157	-7.62939E-05	0.000217438	9.677124023	-1.08435154	2.117395401	0.046157844	-0.003814698	0.010871889	-0.640869141	0.580322266	-0.473632813	892.1	-25.21383297	-76.26036974	-37.80763901	-57
32443	0	0.389038086	-0.042785645	0.085205078	0.999999046	0.00056839	0.000149727	0.000370026	9.725952148	-1.069641113	2.130126953	0.028419497	0.007486344	0.018501283	-0.640869141	0.580322266	-0.473632813	892.02	-25.22995381	-76.22804109	-37.73305873	-57
32444	0	0.386053085	-0.040534019	0.08506012	0.999999046	0.000668526	0.000225067	0.000464439	9.651327133	-1.013350487	2.126502991	0.033426289	0.011253358	0.023221972	-0.640625	0.580322266	-0.479492188	892.1	-25.25916882	-76.18323695	-37.62422194	-57
32445	0	0.385375977	-0.03894043	0.083068848	0.999999046	0.000938416	9.25064E-05	0.00056076	9.634399414	-0.973510742	2.076721191	0.046920786	0.004625321	0.028038031	-0.640625	0.580322266	-0.4765625	892.08	-25.32372513	-76.14752017	-37.45543515	-57
32446	0	0.386597633	-0.039401054	0.083334923	0.999999046	0.00107193	0.000177383	0.00051403	9.664940834	-0.98502636	2.08337307	0.053596509	0.008869173	0.025701529	-0.635742188	0.577880859	-0.479492188	892.1	-25.33585337	-76.10536495	-37.31846489	-57
32447	0	0.387329102	-0.040039063	0.083557129	0.999999046	0.000179291	0.00023365	0.000240326	9.683227539	-1.000976563	2.088928223	0.008964539	0.011682511	0.012016297	-0.640380859	0.575927734	-0.481933594	892.02	-25.32430233	-76.07088882	-37.30688307	-57
32448	0	0.388368607	-0.040928841	0.084300995	0.999999046	-0.000296593	0.000240326	0.000231743	9.709215164	-1.023221016	2.107524872	-0.014829636	0.012016297	0.011587143	-0.638183594	0.580322266	-0.482421875	892.08	-25.36242807	-76.03620357	-37.30321823	-57
32449	0	0.387817383	-0.041259766	0.083862305	0.999999046	-0.000400543	0.000287056	0.000484467	9.69543457	-1.031494141	2.096557617	-0.020027162	0.0143528	0.02422333	-0.638183594	0.580322266	-0.479492188	892.1	-25.50815107	-75.98432432	-37.20551267	-57
32450	0	0.384981155	-0.042676926	0.084048271	0.999999046	0.000221252	0.000352859	0.00056839	9.624528885	-1.066923141	2.101206779	0.011062623	0.017642976	0.028419497	-0.638183594	0.580322266	-0.482421875	892.1	-25.60382616	-75.92146441	-37.08146978	-57
32451	0	0.387756348	-0.044494629	0.083618164	0.999999046	0.000686646	0.000264168	0.000640869	9.693908691	-1.112365723	2.090454102	0.034332281	0.013208391	0.032043462	-0.635986328	0.582275391	-0.479736328	892.04	-25.69326151	-75.86418181	-36.91781262	-57
32452	0	0.387836456	-0.045609474	0.084189415	0.999998093	0.00129509	0.000155449	0.000736237	9.695911407	-1.140236855	2.104735374	0.06475451	0.007772449	0.036811842	-0.635986328	0.580078125	-0.479736328	892.1	-25.77327346	-75.81334132	-36.69325209	-57
32453	0	0.386779785	-0.053161621	0.089416504	0.999996185	0.002747536	3.8147E-06	0.000171661	9.669494629	-1.329040527	2.235412598	0.137376959	0.000190735	0.00858308	-0.630859375	0.579833984	-0.488525391	892.08	-25.48751792	-75.80588325	-36.66465725	-56
32454	0	0.382115364	-0.070794106	0.103237152	0.999954224	0.009514809	-0.000102043	-0.000347137	9.552884102	-1.769852638	2.580928802	0.475747622	-0.005102235	-0.017357135	-0.635498047	0.575683594	-0.490966797	892.16	-24.23732955	-75.83309567	-36.85467799	-57
32455	0	0.373046875	-0.080566406	0.106933594	0.9997015	0.024398804	0.000439644	-0.000606537	9.326171875	-2.014160156	2.673339844	1.220061371	0.021984377	-0.030329856	-0.634765625	0.564208984	-0.504638672	892.04	-21.07997906	-75.81094085	-37.29523105	-56
32456	0	0.382231712	-0.050209045	0.109981537	0.999657631	0.026129723	0.001186371	0.00049305	9.555792809	-1.255226135	2.749538422	1.306635205	0.059325311	0.024655294	-0.6328125	0.532714844	-0.533935547	892.16	-18.08678878	-75.65960161	-37.35548098	-56
32457	0	0.393859863	-0.048583984	0.100769043	0.999811172	0.019062996	0.002819061	0.002433777	9.846496582	-1.214599609	2.519226074	0.953209738	0.140961928	0.121696496	-0.631347656	0.508056641	-0.561035156	892.1	-16.53308818	-75.26286919	-36.74989859	-56
32458	0	0.395405769	-0.045700073	0.088167191	0.999923706	0.011036873	0.004376411	0.003205299	9.885144234	-1.142501831	2.204179764	0.551857554	0.218826088	0.160269009	-0.623046875	0.491943359	-0.586181641	892.02	-16.03671519	-74.67320987	-35.97478899	-57
32459	0	0.386230469	-0.04876709	0.077941895	0.999977112	0.000756264	0.005157471	0.004257202	9.655761719	-1.219177246	1.948547363	0.037813472	0.257875482	0.212861714	-0.615234375	0.484863281	-0.59765625	892.16	-17.00192678	-73.96343959	-34.87956961	-57
32460	0	0.370215416	-0.065005302	0.070204735	0.999955177	-0.004376411	0.005004883	0.006664276	9.255385399	-1.625132561	1.75511837	-0.218823804	0.250247837	0.333218728	-0.601318359	0.493164063	-0.602050781	892.04	-19.34948313	-73.1769859	-32.94085742	-59
32461	0	0.350891113	-0.073730469	0.065979004	0.999937057	-0.003966331	0.003974915	0.009647369	8.772277832	-1.843261719	1.649475098	-0.198320693	0.198749855	0.482378487	-0.58984375	0.506347656	-0.600830078	892.08	-22.60607214	-72.35359222	-29.99381763	-59
32462	0	0.331180573	-0.087187767	0.065941811	0.999919891	-0.000956535	0.002104759	0.012430191	8.279514313	-2.179694176	1.648545265	-0.047828041	0.105240765	0.621526112	-0.576416016	0.525878906	-0.609130859	892.08	-26.39449708	-71.54154871	-26.10743618	-59
32463	0	0.315185547	-0.100036621	0.065979004	0.99988842	0.006103516	0.000115395	0.013626099	7.879638672	-2.500915527	1.649475098	0.305187122	0.005769944	0.681330249	-0.557861328	0.538574219	-0.60546875	892.1	-29.73401089	-70.79323668	-21.84741142	-60
32464	0	0.304626465	-0.103820801	0.064941406	0.9998312	0.011879921	-0.001537323	0.013870239	7.615661621	-2.59552002	1.623535156	0.594029305	-0.076870454	0.693550791	-0.545898438	0.544921875	-0.615234375	892.1	-32.48689093	-70.12019316	-17.50076046	-64
32465	0	0.305376053	-0.124552727	0.066205978	0.999825478	0.01360321	-0.002106667	0.012515068	7.634401321	-3.113818169	1.65514946	0.680199764	-0.105339405	0.625789505	-0.531494141	0.546386719	-0.630859375	892.08	-34.57571091	-69.52538021	-13.6364718	-69
32466	0	0.305119514	-0.141324997	0.065016747	0.999801636	0.016524315	-0.002375603	0.010787964	7.627987862	-3.533124924	1.625418663	0.826270157	-0.118787959	0.539433717	-0.519042969	0.541503906	-0.639892578	892.04	-35.80693401	-69.02985754	-10.33559425	-63
32467	0	0.295166016	-0.165283203	0.07208252	0.999814034	0.015808105	-0.001856804	0.010822296	7.379150391	-4.132080078	1.802062988	0.790454085	-0.092845928	0.541148223	-0.510986328	0.529785156	-0.662597656	892.04	-36.93549965	-68.45719943	-7.205410814	-64
32468	0	0.297131538	-0.17700386	0.071679115	0.999760628	0.016409874	0.000743866	0.014405251	7.42828846	-4.425096512	1.791977882	0.820558989	0.037196258	0.720319842	-0.498535156	0.522705078	-0.677001953	892.1	-38.2084885	-67.37094642	-3.833781541	-79
32469	0	0.286376953	-0.191833496	0.080322266	0.999629974	0.019150734	0.003055573	0.019065857	7.159423828	-4.795837402	2.008056641	0.957654768	0.152797464	0.953410394	-0.481201172	0.515136719	-0.694824219	892.04	-39.49193483	-65.71083789	-0.082406757	-66
32470	0	0.281538963	-0.198385239	0.0908041	0.999429703	0.023369789	0.005597115	0.02369976	7.038474083	-4.959630966	2.270102501	1.168711418	0.279908889	1.185213118	-0.454101563	0.509521484	-0.722167969	892.1	-40.39446049	-63.45317103	3.827730796	-67
32471	0	0.26159668	-0.18939209	0.099609375	0.999189377	0.028729439	0.007923126	0.027046204	6.539916992	-4.734802246	2.490234375	1.436859986	0.396263328	1.352675493	-0.416992188	0.492431641	-0.754638672	892.1	-40.50612779	-60.72400904	7.616802522	-67
32472	0	0.246945381	-0.204088211	0.106216431	0.999080658	0.029283524	0.010443687	0.029509544	6.173634529	-5.102205276	2.655410767	1.464624931	0.522344415	1.475929435	-0.377441406	0.472900391	-0.787109375	892.04	-40.22866559	-57.58933177	11.12854387	-71
32473	0	0.235046387	-0.212158203	0.128356934	0.998799324	0.03629303	0.011929512	0.030658722	5.876159668	-5.303955078	3.20892334	1.81537797	0.596714395	1.533549794	-0.332275391	0.442138672	-0.830566406	892.08	-38.84678062	-54.26060509	14.39455587	-67
32474	0	0.205896378	-0.247327805	0.134034157	0.998553276	0.039875031	0.012985229	0.033635139	5.147409439	-6.183195114	3.35085392	1.994713086	0.649574605	1.682568063	-0.282226563	0.402099609	-0.870849609	892.1	-37.09759377	-50.67135653	17.84074149	-70
32475	0	0.211181641	-0.291625977	0.135131836	0.997496605	0.057258606	0.011746407	0.039775848	5.279541016	-7.290649414	3.378295898	2.865320807	0.587810733	1.990453035	-0.233398438	0.344238281	-0.91796875	892.14	-33.93290105	-46.87512991	22.172304	-83
32476	0	0.234744072	-0.275641441	0.16547966	0.996468544	0.068366051	0.012372971	0.047147751	5.868601799	-6.891036034	4.136991501	3.42233179	0.619377748	2.360166265	-0.185546875	0.246337891	-0.96484375	892.08	-29.95780655	-42.75261411	27.4322364	-80
32477	0	0.344909668	-0.302246094	0.24822998	0.996097565	0.070191383	0.017272949	0.050636292	8.622741699	-7.556152344	6.205749512	3.514141346	0.864772599	2.535112959	-0.139404297	0.133056641	-0.998535156	892.1	-25.55722876	-38.23322364	32.8097939	-75
32478	0	0.383003235	-0.260540962	0.247748375	0.996072769	0.071734428	0.02600956	0.044896126	9.575080872	-6.513524055	6.193709373	3.59142347	1.302182857	2.247749142	-0.09765625	0.006347656	-1.019287109	892.08	-19.97171453	-33.43125333	37.08640549	-73
32479	0	0.31427002	-0.184448242	0.297546387	0.996055603	0.073246956	0.037727356	0.032920837	7.856750488	-4.611206055	7.438659668	3.66717005	1.8888516	1.648209233	-0.041259766	-0.134033203	-1.028076172	892.02	-13.03917646	-28.15384622	39.73678796	-80
32480	0	0.277648926	-0.154296875	0.422302246	0.996992111	0.069530487	0.031758308	0.012722015	6.941223145	-3.857421875	10.55755615	3.480013169	1.58950895	0.636739119	0.026611328	-0.28125	-1.008056641	892.04	-5.532705905	-24.26911867	40.55838615	-83
32481	0	0.315856934	-0.08807373	0.538085938	0.999731064	0.02052784	0.003124237	-0.010250092	7.89642334	-2.201843262	13.45214844	1.026483733	0.156225817	-0.512550391	0.074462891	-0.400878906	-0.980224609	892.1	-2.69711383	-23.94246042	39.30013117	-72
32482	0	0.320930481	-0.033753395	0.591617584	0.998876572	-0.035517693	-0.030842781	-0.005414963	8.023262024	-0.843834877	14.79043961	-1.776548919	-1.542715909	-0.270849415	0.069580078	-0.394287109	-0.995117188	892.1	-6.663301301	-27.46687443	39.07060191	-73
32483	0	0.28326416	-0.070129395	0.497741699	0.998707771	-0.013786316	-0.048052788	0.009132385	7.081604004	-1.753234863	12.44354248	-0.689612838	-2.403674742	0.456816031	0.002685547	-0.318603516	-1.038330078	892.14	-9.344088603	-32.73020774	41.06132613	-72
32484	0	0.195678711	0.04296875	0.397216797	0.997433662	0.054364204	-0.038070679	0.026855469	4.891967773	1.07421875	9.930419922	2.720537878	-1.90516397	1.343923281	-0.102539063	-0.317138672	-1.032714844	892.16	-5.655955044	-36.60809627	45.16540163	-73
32485	0	0.105113983	0.102520943	0.342492104	0.997319221	0.062387466	-0.013461113	0.035754204	2.627849579	2.563023567	8.562302589	3.1221624	-0.673657438	1.789308608	-0.187255859	-0.418701172	-0.993408203	892.14	-1.710209734	-37.8280087	50.25808686	-82
32486	0	0.123853683	0.07354641	0.285508156	0.998121262	0.052042961	0.010928154	0.030423164	3.096342087	1.83866024	7.137703896	2.603778656	0.546750098	1.522111431	-0.219482422	-0.522216797	-0.942138672	892.08	1.597912034	-36.50854502	54.586508	-73
32487	0	0.217956543	-0.08416748	0.130859375	0.998857498	0.030514717	0.025588989	0.02640152	5.448913574	-2.104187012	3.271484375	1.526316991	1.279936791	1.320578791	-0.207763672	-0.582763672	-0.914550781	892.16	2.875091127	-33.63663745	58.41480255	-77
32488	0	0.453605652	0.090667725	0.133379936	0.998776436	-0.031903267	0.029489517	0.023618698	11.3401413	2.266693115	3.334498405	-1.595814169	1.475077444	1.181416725	-0.180175781	-0.619140625	-0.907226563	892.14	-2.488336934	-30.22295158	61.64819401	-73
32489	0	0.36340332	-0.133605957	0.337036133	0.997223854	-0.059757233	0.033333778	0.029342651	9.085083008	-3.340148926	8.42590332	-2.990628857	1.668232532	1.468491361	-0.126464844	-0.501220703	-0.989746094	892.1	-10.9089491	-26.00153562	64.92758357	-74
32490	0	0.300153732	-0.20380497	0.210266113	0.996196747	-0.075261116	0.02842617	0.033463478	7.503843307	-5.095124245	5.256652832	-3.767833717	1.423113139	1.675298317	-0.072021484	-0.349609375	-1.060791016	892.1	-20.81297847	-21.7949263	67.98142217	-69
32491	0	0.399658203	-0.138122559	0.203125	0.998361588	-0.043696404	0.017280579	0.032649994	9.991455078	-3.453063965	5.078125	-2.186014124	0.864501101	1.633391815	-0.025146484	-0.199707031	-1.104980469	892.16	-26.81181639	-18.46410253	70.76307667	-69
32492	0	0.677441597	-0.179127693	0.542488098	0.999798775	0.010678291	0.011331558	0.012627602	16.93603992	-4.478192329	13.56220245	0.533950335	0.566615868	0.631422379	0.014648438	-0.118652344	-1.122558594	892.16	-25.8361074	-16.67494516	71.50244834	-70
32493	0	0.221618652	0.043701172	0.396911621	0.999526024	0.017635345	0.018280983	0.017353058	5.540466309	1.092529297	9.922790527	0.881906406	0.914193375	0.867789799	0.046142578	-0.188964844	-1.115722656	892.16	-24.07513767	-13.95783523	72.44102342	-72
32494	0	0.287204742	-0.004404068	0.354745865	0.999494553	-0.028025627	0.007792473	0.012765884	7.180118561	-0.1101017	8.868646622	-1.401517142	0.389689202	0.638401622	0.070068359	-0.1875	-1.116943359	892.16	-27.50851483	-12.54851269	73.381122	-72
32495	0	0.178100586	-0.182556152	0.35925293	0.998748779	-0.047739983	0.010410309	0.010559082	4.452514648	-4.563903809	8.981323242	-2.387994425	0.520732479	0.52817424	0.088134766	-0.105712891	-1.122070313	892.2	-33.07689205	-10.9439142	73.82061872	-75
32496	0	0.07588768	-0.250844955	0.272791862	0.999556541	-0.023550987	0.018009186	0.002655029	1.897192001	-6.271123886	6.819796562	-1.177723322	0.900592315	0.132771076	0.110107422	-0.008300781	-1.122558594	892.08	-35.621289	-9.104420099	72.88027219	-77
32497	0	0.014892578	-0.268005371	0.297485352	0.999623299	-0.007980347	0.025834084	0.004669189	0.372314453	-6.700134277	7.437133789	-0.39906742	1.291866317	0.233488777	0.151611328	0.026123047	-1.122070313	892.24	-36.36626177	-6.427576279	71.54899385	-75
32498	0	-0.039774895	-0.293326378	0.334826469	0.999662399	-0.002732277	0.022852898	0.01198864	-0.994372368	-7.333159447	8.370661736	-0.136629184	1.142773173	0.599499293	0.212890625	0.041992188	-1.112060547	892.16	-36.65033417	-3.533069604	71.07934558	-76
32499	0	0.082458496	-0.251342773	0.364379883	0.99990654	0.009484291	0.001091003	0.009777069	2.061462402	-6.283569336	9.10949707	0.474229314	0.054551869	0.48886867	0.255859375	0.038085938	-1.111328125	892.14	-35.61949161	-2.801435886	71.89388965	-82
32500	0	0.007995605	-0.102844238	0.403442383	0.999936104	-0.005656242	-0.007228851	0.006584167	0.199890137	-2.571105957	10.08605957	-0.282818133	-0.361450253	0.329215376	0.245361328	0.009521484	-1.114257813	892.16	-36.32654374	-3.057378723	72.97744188	-86
32501	0	0.012878418	-0.243530273	0.338867188	0.999199867	-0.039417267	0.00489521	-0.004642487	0.321960449	-6.088256836	8.471679688	-1.971389034	0.244825799	-0.232186243	0.233886719	0.047851563	-1.108154297	892.16	-40.80689012	-2.978590109	72.199503	-84
32502	0	0.037909508	-0.360673904	0.255572319	0.999782562	-0.016480446	0.00988102	-0.008041382	0.947737694	-9.01684761	6.389307976	-0.824081896	0.494086715	-0.402098174	0.249023438	0.134521484	-1.095703125	892.1	-42.63077558	-2.775607884	70.74304751	-85
32503	0	-0.008056641	-0.26953125	0.285400391	0.999946594	0.001130104	0.008239746	-0.006122589	-0.201416016	-6.73828125	7.135009766	0.056506208	0.411994629	-0.306134898	0.267089844	0.15625	-1.083984375	892.14	-42.45445203	-2.581457063	69.5721412	-85
32504	0	-0.011645317	-0.286789894	0.283119202	0.999982834	-0.001239777	0.004437447	-0.003529549	-0.291132927	-7.169747353	7.077980042	-0.061989179	0.221873575	-0.176478423	0.279052734	0.157958984	-1.087890625	892.14	-42.57588999	-2.504993415	68.91585204	-85
32505	0	-0.018371582	-0.304260254	0.266967773	0.999996185	-0.000376701	0.00063324	-0.002441406	-0.459289551	-7.606506348	6.674194336	-0.018835088	0.031662022	-0.122070445	0.283447266	0.162353516	-1.082519531	892.14	-42.61736242	-2.66358043	68.64645426	-86
32506	0	0.006752014	-0.307437897	0.286518097	0.99998951	0.004262924	-0.00116539	-0.000478745	0.168800354	-7.685947418	7.162952423	0.213146912	-0.058269693	-0.023937304	0.283203125	0.164550781	-1.079833984	892.14	-42.14248899	-2.820641355	68.6817174	-86
32507	0	0.016723633	-0.255187988	0.309997559	0.999991417	0.003677368	-0.001589775	0.000663757	0.41809082	-6.379699707	7.749938965	0.183868914	-0.079488973	0.033187957	0.281494141	0.151367188	-1.087402344	892.1	-41.74017791	-2.926000283	68.84656755	-87
32508	0	0.016300201	-0.257754326	0.302267075	0.999996185	0.001016617	-0.002291679	0.000239372	0.407505035	-6.443858147	7.556676865	0.050830895	-0.11458409	0.011968625	0.279541016	0.14453125	-1.089599609	892.04	-41.64356234	-3.123801011	69.02831232	-86
32509	0	0.022949219	-0.263061523	0.299316406	0.999996185	0.001076698	-0.002296448	-0.000972748	0.573730469	-6.576538086	7.482910156	0.053834981	-0.114822529	-0.04863745	0.272460938	0.142578125	-1.089111328	892.1	-41.5347114	-3.414135013	69.10629853	-85
32510	0	0.028329849	-0.252641678	0.307181358	0.999997139	-0.001239777	-0.001462936	-0.000544548	0.708246231	-6.316041946	7.679533958	-0.061988872	-0.073146869	-0.02722742	0.270263672	0.140380859	-1.091552734	892.2	-41.68917288	-3.600233231	69.15768998	-85
32511	0	0.025817871	-0.260864258	0.303894043	0.999987602	-0.004703522	-0.000849724	0.000217438	0.645446777	-6.521606445	7.597351074	-0.235176984	-0.042486353	0.010871929	0.267333984	0.147216797	-1.086181641	892.1	-42.24143475	-3.674971115	69.22813298	-85
32512	0	0.022060394	-0.271816254	0.298932076	0.999993324	-0.003586769	-0.000659943	-0.000218391	0.551509857	-6.795406342	7.473301888	-0.179338854	-0.032997205	-0.010919595	0.262207031	0.158691406	-1.086914063	892.1	-42.66245597	-3.766150588	69.2475584	-85
32513	0	0.025695801	-0.267272949	0.300354004	0.999993324	-0.003372192	-0.000845909	-0.000118256	0.64239502	-6.68182373	7.508850098	-0.168609959	-0.042295541	-0.005912793	0.261962891	0.165283203	-1.084472656	892.14	-43.06006438	-3.864559894	69.29020774	-85
32514	0	0.024918556	-0.274575233	0.295292854	0.999991417	-0.003921509	-0.000822067	0.000289917	0.622963905	-6.864380836	7.382321358	-0.196075967	-0.041103474	0.014495889	0.261474609	0.174316406	-1.088134766	892.04	-43.52281479	-3.928069844	69.36572609	-85
32515	0	0.026123047	-0.283569336	0.289916992	0.999996185	-0.002566338	-0.000556946	5.72205E-05	0.653076172	-7.089233398	7.247924805	-0.128317027	-0.027847322	0.002861026	0.258789063	0.181152344	-1.082763672	892.1	-43.82784626	-3.987041035	69.40123297	-85
32516	0	0.025071144	-0.283415794	0.289718628	0.999999046	-0.00093174	-0.000347137	-0.000164986	0.626778603	-7.085394859	7.242965698	-0.046586998	-0.017356875	-0.008249284	0.260986328	0.185546875	-1.086181641	892.16	-43.94328779	-4.045673237	69.4016194	-85
32517	0	0.025634766	-0.275634766	0.293395996	0.999999046	-0.000461578	-0.000620842	-0.000152588	0.640869141	-6.890869141	7.334899902	-0.023078921	-0.031042102	-0.007629395	0.256103516	0.187988281	-1.080322266	892.14	-44.0061563	-4.125390268	69.42515212	-85
32518	0	0.025898933	-0.278582573	0.2915802	0.999999046	-0.000911713	-0.000535965	6.10352E-05	0.647473335	-6.964564323	7.289505005	-0.045585641	-0.026798253	0.003051758	0.258300781	0.190185547	-1.080566406	892.14	-44.12126176	-4.180553065	69.45940307	-85
32519	0	0.026855469	-0.278808594	0.290771484	0.999999046	-0.000499725	-0.000529289	-6.10352E-05	0.671386719	-6.970214844	7.269287109	-0.024986269	-0.026464465	-0.003051758	0.255859375	0.192382813	-1.080566406	892.16	-44.18825072	-4.244395427	69.48331385	-85
32520	0	0.02746582	-0.275634766	0.292480469	0.999999046	-0.000723839	-0.00056839	-1.14441E-05	0.686645508	-6.890869141	7.312011719	-0.036191945	-0.028419499	-0.000572205	0.255859375	0.192382813	-1.080566406	892.1	-44.2811281	-4.307014382	69.51448003	-85
32521	0	0.027282715	-0.280090332	0.288818359	0.999999046	-0.000827789	-0.000372887	6.10352E-05	0.682067871	-7.002258301	7.220458984	-0.041389471	-0.018644335	0.003051758	0.255859375	0.192382813	-1.077636719	892.16	-44.38512163	-4.347292221	69.53596937	-85
32522	0	0.027586937	-0.280391693	0.290287018	0.999999046	-0.00037384	9.53674E-06	0.000102997	0.689673424	-7.009792328	7.257175446	-0.018692017	0.000476837	0.005149841	0.253417969	0.197021484	-1.083740234	892.1	-44.43486037	-4.352421752	69.53041214	-85
32523	0	0.026916504	-0.278930664	0.289428711	0.999999046	-0.000740051	-0.000174522	7.24792E-05	0.672912598	-6.973266602	7.235717773	-0.037002567	-0.008726121	0.003623963	0.255859375	0.196777344	-1.086914063	892.1	-44.52728824	-4.374590445	69.53698899	-85
32524	0	0.027586937	-0.279729843	0.28912735	0.999999046	-0.000967979	-4.95911E-05	8.7738E-05	0.689673424	-6.993246078	7.228183746	-0.048398979	-0.002479554	0.004386903	0.255615234	0.19921875	-1.078369141	892.16	-44.64496564	-4.384893861	69.53462612	-85
32525	0	0.026184082	-0.284118652	0.286804199	0.999999046	-0.000526428	9.53674E-07	9.15527E-05	0.654602051	-7.102966309	7.17010498	-0.026321412	4.76837E-05	0.004577637	0.253173828	0.19921875	-1.083984375	892.14	-44.71175846	-4.390275551	69.52887436	-86
32526	0	0.025826454	-0.283085823	0.289130211	0.999999046	2.09808E-05	-7.62939E-05	-0.000149727	0.645661354	-7.077145576	7.228255272	0.001049042	-0.003814697	-0.007486343	0.252929688	0.203613281	-1.078613281	892.02	-44.71464729	-4.420895256	69.50932279	-85
32527	0	0.027404785	-0.280090332	0.289489746	0.999999046	0.000114441	-0.000178337	-0.000137329	0.685119629	-7.002258301	7.237243652	0.005722046	-0.008916855	-0.006866455	0.255371094	0.201416016	-1.078369141	892.2	-44.70727298	-4.458405692	69.49893217	-85
32528	0	0.027950287	-0.28038311	0.287834167	0.999999046	-0.000357628	-0.00022316	7.24792E-05	0.698757172	-7.009577751	7.195854187	-0.017881394	-0.01115799	0.003623963	0.253173828	0.201416016	-1.081298828	892.16	-44.75542796	-4.482257312	69.50960046	-85
32529	0	0.027038574	-0.281433105	0.287902832	0.999999046	-0.000225067	-0.000102043	9.15527E-05	0.675964355	-7.035827637	7.197570801	-0.011253357	-0.005102158	0.004577637	0.252929688	0.203613281	-1.084228516	892.14	-44.78759752	-4.494271437	69.5119785	-85
32530	0	0.027656555	-0.281385422	0.288380623	0.999999046	-0.00030899	7.62939E-06	7.62939E-05	0.691413879	-7.034635544	7.209515572	-0.015449524	0.00038147	0.003814697	0.255371094	0.205810547	-1.081787109	892.1	-44.82841042	-4.498199766	69.50395487	-85
32531	0	0.027404785	-0.282836914	0.287109375	0.999999046	-0.000312805	-0.000144005	0.000133514	0.685119629	-7.070922852	7.177734375	-0.015640259	-0.007200241	0.00667572	0.252929688	0.205810547	-1.084472656	892.16	-44.87089642	-4.509423288	69.51321223	-85
32532	0	0.026863098	-0.282657623	0.286802292	0.999999046	-0.000117302	8.96454E-05	0.000217438	0.671577454	-7.066440582	7.170057297	-0.005865097	0.004482269	0.010871887	0.255371094	0.205810547	-1.081787109	892.16	-44.88992854	-4.494460475	69.51010251	-85
32533	0	0.025939941	-0.283508301	0.28717041	0.999999046	-0.000152588	-0.000144005	-4.19617E-05	0.648498535	-7.08770752	7.179260254	-0.007629395	-0.007200241	-0.002098084	0.252929688	0.205810547	-1.078613281	892.14	-44.91274443	-4.518988588	69.50499351	-85
32534	0	0.026779175	-0.282007217	0.287442207	0.999999046	-0.000301361	-0.000249863	0.000118256	0.66947937	-7.050180435	7.186055183	-0.015068055	-0.012493134	0.005912781	0.252685547	0.208007813	-1.081787109	892.16	-44.95415886	-4.538731925	69.52149852	-86
32535	0	0.02722168	-0.282470703	0.28704834	0.999999046	-0.000289917	-0.000212669	3.05176E-05	0.680541992	-7.061767578	7.176208496	-0.01449585	-0.010633469	0.001525879	0.255371094	0.205810547	-1.084716797	892.14	-44.99332755	-4.562172559	69.52775583	-86
32536	0	0.026916504	-0.285217285	0.286010742	0.999999046	0.000142097	-0.000160217	-6.48499E-05	0.672912598	-7.130432129	7.150268555	0.007104874	-0.008010864	-0.003242493	0.252929688	0.205810547	-1.078613281	892.16	-44.98202385	-4.588685369	69.52207435	-86
32537	0	0.027194023	-0.282049179	0.287864685	0.999998093	0.000458717	-0.000383377	-3.91006E-05	0.679850578	-7.051229477	7.196617126	0.022935869	-0.019168855	-0.001955032	0.252685547	0.208007813	-1.081787109	892.1	-44.93587224	-4.630824145	69.53653283	-86
32538	0	0.028248787	-0.281371117	0.287914276	0.999999046	0.000228882	-0.000259399	-1.23978E-05	0.706219673	-7.034277916	7.197856903	0.011444092	-0.012969971	-0.000619888	0.250488281	0.206054688	-1.078613281	892.04	-44.91523449	-4.66042004	69.54319882	-86
32539	0	0.027709961	-0.282104492	0.286560059	0.999999046	-0.000160217	-6.77109E-05	-1.14441E-05	0.692749023	-7.052612305	7.164001465	-0.008010864	-0.003385544	-0.000572205	0.250488281	0.203613281	-1.081298828	892.14	-44.93782185	-4.674027381	69.53444831	-86
32540	0	0.027877808	-0.281829834	0.287503242	0.999999046	-0.000145912	-0.000198364	-5.05447E-05	0.69694519	-7.04574585	7.187581062	-0.007295609	-0.009918213	-0.002527237	0.252929688	0.205810547	-1.078613281	892.16	-44.95922148	-4.701052243	69.53277056	-86
32541	0	0.027893066	-0.282287598	0.287902832	0.999999046	-0.000396729	-0.000235558	0.00012207	0.69732666	-7.057189941	7.197570801	-0.019836427	-0.011777878	0.006103516	0.250488281	0.206054688	-1.078613281	892.24	-45.0106085	-4.716759295	69.54843835	-86
32542	0	0.027591705	-0.283864021	0.285223007	0.999999046	-0.000497818	-0.00030899	8.67844E-05	0.689792633	-7.096600533	7.13057518	-0.024890901	-0.015449525	0.004339218	0.250488281	0.206054688	-1.081542969	892.14	-45.07382667	-4.740899666	69.56723431	-86
32543	0	0.027770996	-0.28338623	0.286987305	0.999999046	-0.000297546	-0.00032711	-1.90735E-05	0.694274902	-7.084655762	7.174682617	-0.01487732	-0.016355515	-0.000953674	0.250244141	0.208251953	-1.078857422	892.14	-45.11339804	-4.774728895	69.57878213	-86
32544	0	0.028030396	-0.282640457	0.286556244	0.999999046	-0.000290871	-0.000213623	-0.000125885	0.700759888	-7.066011429	7.163906097	-0.014543534	-0.010681153	-0.006294251	0.250488281	0.208251953	-1.081787109	892.14	-45.15057544	-4.807712102	69.57249996	-86
32545	0	0.029052734	-0.283447266	0.286437988	0.999999046	-0.000358582	-0.000281334	1.14441E-05	0.726318359	-7.086181641	7.160949707	-0.017929078	-0.014066697	0.000572205	0.250244141	0.210449219	-1.078857422	892.08	-45.19679313	-4.83471686	69.58279522	-86
32546	0	0.028717995	-0.284018517	0.285912514	0.999998093	-0.000369072	-0.000254631	-1.81198E-05	0.717949867	-7.100462914	7.147812843	-0.018453599	-0.012731553	-0.000905991	0.250244141	0.208251953	-1.078857422	892.1	-45.24374147	-4.861651878	69.58863768	-86
32547	0	0.028259277	-0.284057617	0.286010742	0.999999046	-0.000141144	-0.000185966	-4.57764E-05	0.706481934	-7.10144043	7.150268555	-0.00705719	-0.009298325	-0.002288818	0.250244141	0.210449219	-1.081787109	892.1	-45.26380027	-4.884959645	69.58662442	-86
32548	0	0.028330803	-0.283465385	0.286773682	0.999999046	-0.000197411	-0.000230789	2.28882E-05	0.708270073	-7.086634636	7.169342041	-0.009870529	-0.011539459	0.001144409	0.247802734	0.212646484	-1.084716797	892.1	-45.2909323	-4.90595982	69.59398375	-86
32549	0	0.028747559	-0.282775879	0.285461426	0.999999046	-0.000492096	-0.000117302	9.91821E-05	0.718688965	-7.069396973	7.136535645	-0.024604798	-0.005865097	0.004959107	0.247802734	0.212646484	-1.079101563	892.1	-45.35142615	-4.911290722	69.59808931	-86
32550	0	0.027781487	-0.284955025	0.285235405	0.999999046	-0.000289917	-5.91278E-05	0.000213623	0.694537163	-7.123875618	7.130885124	-0.01449585	-0.00295639	0.010681153	0.247802734	0.212646484	-1.079101563	892.14	-45.38906029	-4.90225007	69.60671107	-85
32551	0	0.028320313	-0.284545898	0.284118652	0.999999046	-0.000164032	-3.33786E-05	7.24792E-05	0.708007813	-7.113647461	7.102966309	-0.008201599	-0.00166893	0.003623962	0.247802734	0.212890625	-1.076171875	892.1	-45.41105268	-4.902341607	69.60177026	-86
32552	0	0.0290308	-0.284583092	0.284754753	0.999999046	-0.000199318	-0.0001297	5.62668E-05	0.725769997	-7.114577293	7.118868828	-0.009965897	-0.006484985	0.002813339	0.247802734	0.212646484	-1.079101563	892.14	-45.43756222	-4.911239133	69.60348577	-86
32553	0	0.028625488	-0.284973145	0.285583496	0.999999046	-0.000144958	-0.000105858	0.000110626	0.715637207	-7.124328613	7.139587402	-0.007247925	-0.005292892	0.005531311	0.250244141	0.21484375	-1.085205078	892.08	-45.45793936	-4.913494315	69.60749665	-86
32554	0	0.028927803	-0.284879684	0.285982132	0.999999046	-0.000160217	-5.72205E-06	0.0001297	0.723195076	-7.121992111	7.149553299	-0.008010864	-0.000286102	0.006484985	0.25	0.217041016	-1.082519531	892.14	-45.4793597	-4.905877556	69.60481874	-86
32555	0	0.028076172	-0.285339355	0.28527832	0.999999046	-5.34058E-05	5.43594E-05	5.34058E-05	0.701904297	-7.133483887	7.131958008	-0.002670288	0.002717972	0.002670288	0.250244141	0.212646484	-1.079101563	892.1	-45.48749728	-4.899370038	69.59117074	-86
32556	0	0.027648926	-0.284518242	0.284213066	1	4.00543E-05	-3.14713E-05	1.81198E-05	0.691223145	-7.112956047	7.105326653	0.002002716	-0.001573563	0.000905991	0.247558594	0.215087891	-1.076171875	892.2	-45.48519658	-4.902338076	69.58177715	-86
32557	0	0.028137207	-0.284790039	0.284179688	0.999999046	-6.10352E-05	-0.000102043	9.53674E-05	0.703430176	-7.119750977	7.104492188	-0.003051758	-0.005102158	0.004768372	0.247558594	0.215087891	-1.079101563	892.16	-45.49543334	-4.904390737	69.58440209	-86
32558	0	0.028446198	-0.285136223	0.28450489	0.999999046	0.000120163	-0.000200272	-5.05447E-05	0.711154938	-7.128405571	7.112622261	0.006008148	-0.01001358	-0.002527237	0.247802734	0.212890625	-1.076171875	892.1	-45.4845146	-4.926005821	69.58322623	-86
32559	0	0.029052734	-0.283569336	0.284912109	0.999999046	-2.67029E-05	-0.000151634	0.000118256	0.726318359	-7.089233398	7.122802734	-0.001335144	-0.007581711	0.005912781	0.247558594	0.215087891	-1.079101563	892.16	-45.49111229	-4.92970091	69.59166793	-86
32560	0	0.028827667	-0.285057068	0.285619736	0.999999046	-0.000254631	-8.7738E-05	0.000175476	0.720691681	-7.126426697	7.140493393	-0.012731552	-0.004386902	0.008773804	0.250244141	0.212646484	-1.079101563	892.24	-45.5236637	-4.923351997	69.59937001	-86
32561	0	0.027893066	-0.285339355	0.283203125	0.999999046	-7.62939E-05	-2.19345E-05	9.91821E-05	0.69732666	-7.133483887	7.080078125	-0.003814697	-0.001096725	0.004959106	0.25	0.21484375	-1.079345703	892.14	-45.53476598	-4.917691228	69.59556158	-86
32562	0	0.028642654	-0.283863068	0.283768654	1	-8.58307E-06	-2.76566E-05	1.04904E-05	0.71606636	-7.096576691	7.094216347	-0.000429153	-0.001382828	0.000524521	0.25	0.21484375	-1.079345703	892.1	-45.5374393	-4.919527681	69.58511651	-86
32563	0	0.028198242	-0.284667969	0.282958984	0.999999046	-4.95911E-05	-0.000163078	0.000232697	0.704956055	-7.116699219	7.073974609	-0.002479553	-0.008153916	0.011634827	0.247558594	0.215087891	-1.079101563	892.04	-45.54726049	-4.913826379	69.60384731	-86
32564	0	0.028342247	-0.284282684	0.284629822	0.999999046	-0.0001688	-0.000144958	0.000133514	0.708556175	-7.107067108	7.115745544	-0.008440018	-0.007247925	0.00667572	0.25	0.217285156	-1.076660156	892.16	-45.56981362	-4.914560448	69.61275251	-86
32565	0	0.028442383	-0.284851074	0.282836914	0.999999046	-3.05176E-05	-0.000189781	2.67029E-05	0.71105957	-7.121276855	7.070922852	-0.001525879	-0.00948906	0.001335144	0.247558594	0.215087891	-1.076171875	892.18	-45.57606475	-4.927421391	69.61705302	-86
32566	0	0.028412819	-0.284931183	0.284822464	0.999999046	-4.19617E-05	-0.000204086	6.86646E-05	0.710320473	-7.123279572	7.1205616	-0.002098084	-0.010204315	0.003433228	0.247558594	0.217285156	-1.076416016	892.16	-45.58391404	-4.93778143	69.62576984	-87
32567	0	0.028625488	-0.285949707	0.282897949	0.999999046	-0.000156403	-0.000254631	3.05176E-05	0.715637207	-7.148742676	7.07244873	-0.00782013	-0.012731552	0.001525879	0.25	0.217041016	-1.079589844	892.1	-45.60497329	-4.955117052	69.63546124	-87
32568	0	0.02850914	-0.284393311	0.284564018	0.999999046	3.14713E-05	-0.000120163	0.000132561	0.7127285	-7.109832764	7.114100456	0.001573563	-0.006008148	0.006628037	0.247558594	0.217285156	-1.076416016	892.1	-45.60413687	-4.95311024	69.64248298	-87
32569	0	0.028503418	-0.284423828	0.282653809	0.999999046	-5.72205E-05	-0.000132561	0.000137329	0.712585449	-7.110595703	7.066345215	-0.002861023	-0.006628037	0.006866455	0.245117188	0.217285156	-1.076416016	892.16	-45.61353552	-4.951512535	69.65104437	-87
32570	0	0.028501511	-0.284098625	0.285725594	0.999999046	-0.000173569	-0.0001297	4.57764E-05	0.712537766	-7.10246563	7.143139839	-0.008678436	-0.006484985	0.002288818	0.247558594	0.217285156	-1.076416016	892.14	-45.63543667	-4.956985799	69.65172585	-87
32571	0	0.02911377	-0.284606934	0.283630371	0.999999046	-0.000301361	-0.000224113	0.000133514	0.727844238	-7.11517334	7.090759277	-0.015068055	-0.011205674	0.00667572	0.247314453	0.219482422	-1.073730469	892.1	-45.67318012	-4.962673597	69.66718864	-88
32572	0	0.028738022	-0.285335541	0.28393364	0.999999046	-0.000332832	-0.000198364	3.8147E-05	0.718450546	-7.133388519	7.098340988	-0.016641617	-0.009918213	0.001907349	0.25	0.217041016	-1.082519531	892.08	-45.71360582	-4.97393263	69.67297578	-88
32573	0	0.028747559	-0.285400391	0.284179688	0.999999046	-0.000247955	-7.9155E-05	0.000133514	0.718688965	-7.135009766	7.104492188	-0.012397766	-0.003957748	0.00667572	0.247558594	0.217285156	-1.076416016	892.14	-45.74402056	-4.967649591	69.67668987	-88
32574	0	0.028777122	-0.28609848	0.283910751	0.999999046	-0.000135422	-0.000232697	3.71933E-05	0.719428062	-7.152462006	7.097768784	-0.006771088	-0.011634827	0.001859665	0.247558594	0.219482422	-1.076660156	892.14	-45.76189438	-4.981378113	69.68521407	-88
32575	0	0.028564453	-0.286193848	0.284179688	0.999999046	-0.000144958	-0.000231743	8.01086E-05	0.714111328	-7.154846191	7.104492188	-0.007247925	-0.011587143	0.004005432	0.247558594	0.219482422	-1.076660156	892.1	-45.78107208	-4.991321469	69.6971113	-89
32576	0	0.029139519	-0.285243988	0.284998894	0.999999046	-5.05447E-05	-0.000211716	7.53403E-05	0.728487968	-7.131099701	7.124972343	-0.002527237	-0.010585785	0.003767014	0.245117188	0.219482422	-1.079345703	892.1	-45.78910404	-4.999901542	69.70718725	-88
32577	0	0.028930664	-0.285583496	0.284545898	0.999999046	-4.19617E-05	-0.000128746	0.000133514	0.723266602	-7.139587402	7.113647461	-0.002098084	-0.006437302	0.00667572	0.247558594	0.219482422	-1.076660156	892.24	-45.79584135	-4.996912136	69.71474885	-89
32578	0	0.028804779	-0.286592484	0.28329277	0.999999046	3.24249E-05	-0.000143051	9.44138E-05	0.720119476	-7.164812088	7.08231926	0.001621246	-0.007152557	0.004720688	0.247558594	0.219482422	-1.079589844	892.16	-45.79384448	-4.998115716	69.72047416	-89
32579	0	0.029724121	-0.284545898	0.282592773	0.999999046	-7.62939E-06	-0.000109673	0.000118256	0.743103027	-7.113647461	7.064819336	-0.00038147	-0.005483627	0.005912781	0.245117188	0.219482422	-1.082275391	892.14	-45.79627956	-4.994591047	69.72558302	-88
32580	0	0.028863907	-0.285961151	0.283740997	0.999999046	-0.000214577	-0.00018692	0.000198364	0.721597672	-7.149028778	7.093524933	-0.010728836	-0.009346008	0.009918213	0.247558594	0.219482422	-1.076660156	892.1	-45.82346627	-4.990503982	69.74308524	-89
32581	0	0.028869629	-0.28717041	0.282836914	0.999999046	-0.000148773	-2.19345E-05	0.000125885	0.721740723	-7.179260254	7.070922852	-0.00743866	-0.001096725	0.006294251	0.247314453	0.221679688	-1.076904297	892.16	-45.84141532	-4.979049195	69.74125755	-89
32582	0	0.028748512	-0.286407471	0.283177376	0.999999046	-7.43866E-05	-0.000268936	7.9155E-05	0.718712807	-7.160186768	7.079434395	-0.00371933	-0.013446808	0.003957748	0.247314453	0.221679688	-1.076904297	892.2	-45.85223334	-4.991010808	69.75609346	-89
32583	0	0.02935791	-0.285705566	0.281799316	0.999999046	-0.000228882	-9.05991E-05	0.00012207	0.733947754	-7.14263916	7.04498291	-0.011444092	-0.004529953	0.006103516	0.245117188	0.219482422	-1.082275391	892.1	-45.87974535	-4.98510178	69.76001229	-88
32584	0	0.029277802	-0.286514282	0.282394409	0.999999046	-0.000248909	-0.000156403	0.000117302	0.731945038	-7.162857056	7.059860229	-0.01244545	-0.00782013	0.005865097	0.244873047	0.221923828	-1.076660156	892.14	-45.90995904	-4.984722591	69.76866617	-89
32585	0	0.028808594	-0.286743164	0.281860352	0.999999046	-0.000179291	-0.000197411	6.10352E-05	0.720214844	-7.168579102	7.046508789	-0.008964539	-0.009870529	0.003051758	0.247314453	0.221679688	-1.073974609	892.16	-45.9320844	-4.992111816	69.77598317	-89
32586	0	0.029190063	-0.28544426	0.282478333	0.999999046	-0.000356674	-0.000274658	6.10352E-05	0.729751587	-7.136106491	7.061958313	-0.01783371	-0.013732911	0.003051758	0.245117188	0.221679688	-1.082519531	892.16	-45.97500442	-5.005544106	69.79014091	-89
32587	0	0.029541016	-0.286804199	0.282104492	0.999999046	-0.000812531	-0.000319481	0.000198364	0.738525391	-7.17010498	7.052612305	-0.040626531	-0.015974047	0.009918214	0.247314453	0.223876953	-1.079833984	892.14	-46.07140408	-5.01110889	69.81861404	-89
32588	0	0.029178619	-0.287638664	0.281068802	0.999998093	-0.000473022	-0.000319481	0.000185966	0.729465485	-7.190966606	7.026720047	-0.023651124	-0.015974046	0.009298325	0.244873047	0.226318359	-1.080078125	892.14	-46.1288069	-5.017549093	69.84632643	-90
32589	0	0.028930664	-0.287475586	0.281005859	0.999999046	-0.000198364	-0.000144005	0.000110626	0.723266602	-7.186889648	7.025146484	-0.009918213	-0.007200241	0.005531311	0.244628906	0.226318359	-1.07421875	892.1	-46.15290763	-5.016140533	69.85336581	-89
32590	0	0.030334473	-0.287719727	0.281005859	0.999999046	-0.000137329	-0.000236511	0.000259399	0.758361816	-7.192993164	7.025146484	-0.006866455	-0.011825562	0.012969971	0.2421875	0.228515625	-1.07421875	892.16	-46.17168878	-5.009726482	69.88009494	-90
32591	0	0.02935791	-0.287353516	0.281799316	0.999999046	-0.000228882	-0.000220299	0.000270844	0.733947754	-7.183837891	7.04498291	-0.011444092	-0.011014939	0.013542176	0.244873047	0.226318359	-1.080078125	892.16	-46.20083906	-5.000974869	69.90629465	-90
32592	0	0.028715134	-0.288841248	0.280677795	0.999999046	-0.000210762	-0.000217438	8.67844E-05	0.717878342	-7.221031189	7.016944885	-0.010538101	-0.010871887	0.004339218	0.244873047	0.226318359	-1.080078125	892.16	-46.22661902	-5.00708769	69.91759256	-90
32593	0	0.02947998	-0.288879395	0.280273438	0.999999046	-0.000110626	-4.48227E-05	3.8147E-06	0.736999512	-7.221984863	7.006835938	-0.005531311	-0.002241135	0.000190735	0.242431641	0.226318359	-1.073974609	892.1	-46.23911218	-5.006296484	69.90805805	-90
32594	0	0.029563904	-0.287721634	0.279901505	0.999999046	-6.10352E-05	-0.000185013	6.00815E-05	0.739097595	-7.193040848	6.997537613	-0.003051758	-0.009250641	0.003004074	0.244628906	0.228515625	-1.07421875	892.24	-46.24731311	-5.011888235	69.9142962	-91
32595	0	0.029418945	-0.288696289	0.280944824	0.999999046	-1.14441E-05	-0.000227928	3.43323E-05	0.735473633	-7.217407227	7.023620605	-0.000572205	-0.011396408	0.001716614	0.2421875	0.228515625	-1.077148438	892.2	-46.24994062	-5.022925994	69.92245412	-90
32596	0	0.029038429	-0.287606239	0.280802727	0.999999046	-9.82285E-05	-0.000133514	3.8147E-05	0.725960732	-7.190155983	7.020068169	-0.004911423	-0.00667572	0.001907349	0.244873047	0.226318359	-1.080078125	892.1	-46.26179585	-5.026063936	69.92286666	-91
32597	0	0.029907227	-0.288696289	0.280212402	0.999999046	-0.000114441	-0.000109673	-1.90735E-05	0.747680664	-7.217407227	7.005310059	-0.005722046	-0.005483627	-0.000953674	0.242431641	0.228515625	-1.080078125	892.1	-46.2749371	-5.031991664	69.91694222	-90
32598	0	0.030101776	-0.287539482	0.279955864	0.999999046	-0.000272751	-0.000144958	-5.34058E-05	0.752544403	-7.188487053	6.998896599	-0.013637543	-0.007247925	-0.002670288	0.2421875	0.228515625	-1.07421875	892.14	-46.30620185	-5.043513879	69.91102528	-91
32599	0	0.02911377	-0.2890625	0.279785156	0.999999046	-0.000148773	-0.000201225	0.000110626	0.727844238	-7.2265625	6.994628906	-0.00743866	-0.010061264	0.005531311	0.2421875	0.230712891	-1.077392578	892.08	-46.32483092	-5.045796756	69.92283333	-91
32600	0	0.029406548	-0.288298607	0.279931068	0.999999046	8.58307E-06	-0.00022316	0.00020504	0.735163689	-7.207465172	6.998276711	0.000429153	-0.01115799	0.010251999	0.2421875	0.228515625	-1.077148438	892.14	-46.32622039	-5.041905886	69.94403134	-91
32601	0	0.030395508	-0.288879395	0.280334473	0.999999046	-0.000102997	-9.05991E-05	0.000190735	0.759887695	-7.221984863	7.008361816	-0.005149841	-0.004529953	0.009536743	0.2421875	0.230957031	-1.074462891	892.1	-46.33930303	-5.028677865	69.95287215	-91
32602	0	0.02947998	-0.289794922	0.279968262	0.999999046	0.000320435	6.48499E-05	7.24792E-05	0.736999512	-7.244873047	6.999206543	0.016021729	0.003242493	0.003623962	0.244628906	0.228515625	-1.077148438	892.14	-46.30193025	-5.012873924	69.93935054	-91
32603	0	0.029541016	-0.287475586	0.280456543	0.999999046	7.62939E-05	-5.62668E-05	-1.90735E-05	0.738525391	-7.186889648	7.011413574	0.003814697	-0.002813339	-0.000953674	0.244628906	0.230712891	-1.080322266	892.14	-46.29271729	-5.014178012	69.92870243	-91
32604	0	0.029827118	-0.286944389	0.279764175	0.999999046	-5.62668E-05	-9.53674E-05	2.67029E-05	0.745677948	-7.173609734	6.994104385	-0.002813339	-0.004768372	0.001335144	0.2421875	0.228515625	-1.07421875	892.16	-46.29924463	-5.014744968	69.92520386	-91
32605	0	0.029663086	-0.289306641	0.278503418	0.999999046	-0.000106812	-7.9155E-05	0.000164032	0.741577148	-7.232666016	6.962585449	-0.005340576	-0.003957748	0.008201599	0.244628906	0.228515625	-1.080078125	892.16	-46.31247496	-5.002599987	69.93109688	-91
32606	0	0.029307365	-0.287545204	0.279535294	0.999999046	-5.14984E-05	-0.000177383	0.000136375	0.732684135	-7.188630104	6.988382339	-0.002574921	-0.008869171	0.006818771	0.2421875	0.228515625	-1.07421875	892.1	-46.31985414	-5.000460298	69.94307783	-91
32607	0	0.030151367	-0.288269043	0.279785156	0.999999046	-1.52588E-05	-9.05991E-05	9.53674E-05	0.75378418	-7.206726074	6.994628906	-0.000762939	-0.004529953	0.004768372	0.244628906	0.228515625	-1.071533203	892.16	-46.32214933	-4.994832094	69.94410945	-91
32608	0	0.029602051	-0.289367676	0.278747559	0.999999046	4.76837E-06	-0.000106812	-1.14441E-05	0.74005127	-7.234191895	6.968688965	0.000238419	-0.005340576	-0.000572205	0.2421875	0.230712891	-1.080322266	892.16	-46.32158834	-4.999293858	69.93868375	-91
32609	0	0.029992104	-0.288851738	0.280165672	0.999997139	0.000524521	2.86102E-06	-4.76837E-06	0.749802589	-7.221293449	7.004141808	0.026226045	0.000143051	-0.000238419	0.244628906	0.228515625	-1.080078125	892.08	-46.26070879	-4.99448709	69.92424492	-91
32610	0	0.029446602	-0.290715218	0.277955055	0.999999046	0.001113892	0.000219345	-8.4877E-05	0.736165047	-7.26788044	6.948876381	0.055694592	0.010967257	-0.004243852	0.2421875	0.230712891	-1.077392578	892.1	-46.13033841	-4.979056231	69.88559305	-91
32611	0	0.029907227	-0.286010742	0.281494141	0.999999046	0.001346588	0.000142097	-0.000228882	0.747680664	-7.150268555	7.037353516	0.067329428	0.007104876	-0.011444095	0.239990234	0.224121094	-1.076660156	892.1	-45.97277617	-4.981531704	69.84239589	-91
32612	0	0.029835701	-0.285176277	0.282637596	0.999999046	0.000720024	4.95911E-05	-3.8147E-05	0.745892525	-7.129406929	7.065939903	0.036001209	0.002479553	-0.001907349	0.242431641	0.221923828	-1.073730469	892.1	-45.88889546	-4.975559703	69.82141717	-92
32613	0	0.030700684	-0.286315918	0.283996582	0.999999046	0.000404358	-6.38962E-05	-5.34058E-05	0.76751709	-7.157897949	7.099914551	0.020217896	-0.003194809	-0.002670288	0.242675781	0.221923828	-1.082275391	892.1	-45.84181129	-4.979889254	69.8088504	-92
32614	0	0.030584335	-0.286511421	0.282819748	0.999999046	-6.86646E-05	-1.90735E-05	0.000152588	0.764608383	-7.16278553	7.070493698	-0.003433228	-0.000953674	0.007629395	0.244873047	0.224121094	-1.079833984	892.08	-45.85002614	-4.963711693	69.8084224	-92
32615	0	0.028747559	-0.287353516	0.280944824	0.999999046	-5.72205E-05	-5.62668E-05	9.15527E-05	0.718688965	-7.183837891	7.023620605	-0.002861023	-0.002813339	0.004577637	0.245117188	0.219482422	-1.082275391	892.1	-45.85685129	-4.955447859	69.80671208	-92
32616	0	0.029642105	-0.28818512	0.282921791	0.999999046	8.86917E-05	7.05719E-05	5.62668E-05	0.741052628	-7.204627991	7.073044777	0.004434586	0.003528595	0.002813339	0.242675781	0.221923828	-1.079589844	892.2	-45.84584231	-4.939929339	69.79188519	-92
32617	0	0.028930664	-0.286437988	0.282470703	0.999999046	5.34058E-05	-0.000105858	5.34058E-05	0.723266602	-7.160949707	7.061767578	0.002670288	-0.005292892	0.002670288	0.245117188	0.221679688	-1.082519531	892.14	-45.84010347	-4.93867289	69.79097189	-92
32618	0	0.029448509	-0.285923004	0.282921791	0.999999046	0.00028801	-0.000204086	-8.58307E-06	0.73621273	-7.148075104	7.073044777	0.014400482	-0.010204315	-0.000429153	0.245117188	0.219482422	-1.076416016	892.02	-45.80770724	-4.950329207	69.79299062	-91
32619	0	0.030151367	-0.285522461	0.282531738	0.999999046	0.000171661	-0.000208855	3.05176E-05	0.75378418	-7.138061523	7.063293457	0.008583069	-0.010442734	0.001525879	0.244873047	0.224121094	-1.079833984	892.04	-45.78891678	-4.959164503	69.79843264	-92
32620	0	0.029886246	-0.285121918	0.284020424	0.999999046	-3.52859E-05	-0.000228882	3.8147E-05	0.747156143	-7.128047943	7.100510597	-0.001764298	-0.011444092	0.001907349	0.242675781	0.221923828	-1.082275391	892.04	-45.79394471	-4.968962871	69.80690899	-92
32621	0	0.030395508	-0.286437988	0.284240723	0.999999046	-0.000110626	-0.000144005	0.000118256	0.759887695	-7.160949707	7.106018066	-0.005531311	-0.007200241	0.005912781	0.245117188	0.221679688	-1.082519531	892.14	-45.80750364	-4.965404944	69.81421977	-91
32622	0	0.030531883	-0.285593033	0.282520294	0.999999046	-0.000324249	-6.86646E-05	0.000110626	0.763297081	-7.139825821	7.063007355	-0.016212464	-0.003433228	0.005531311	0.245117188	0.221679688	-1.082519531	892.1	-45.84492741	-4.95647678	69.81484098	-91
32623	0	0.029663086	-0.286682129	0.282165527	0.999999046	-0.000114441	-7.53403E-05	8.7738E-05	0.741577148	-7.167053223	7.054138184	-0.005722046	-0.003767014	0.004386902	0.245117188	0.221679688	-1.082519531	892.1	-45.85821393	-4.949941207	69.81422944	-91
32624	0	0.029776573	-0.287240028	0.280691147	0.999999046	-0.000117302	4.76837E-05	0.000137329	0.74441433	-7.18100071	7.017278671	-0.005865097	0.002384186	0.006866455	0.242675781	0.221923828	-1.082275391	892.1	-45.8713806	-4.92949964	69.80801747	-91
32625	0	0.02935791	-0.286987305	0.282836914	0.999999046	-5.72205E-05	-8.67844E-05	0.000106812	0.733947754	-7.174682617	7.070922852	-0.002861023	-0.004339218	0.005340576	0.245117188	0.221679688	-1.082519531	892.14	-45.87839813	-4.922267783	69.80980424	-90
32626	0	0.02983284	-0.286780357	0.28145504	0.999998093	0.000107765	-2.00272E-05	6.38962E-05	0.745820999	-7.169508934	7.036375999	0.00538826	-0.001001358	0.003194809	0.245117188	0.221679688	-1.085449219	892.14	-45.8657737	-4.913241906	69.80284077	-91
32627	0	0.029541016	-0.286499023	0.282775879	0.999999046	0.000156403	-0.000124931	8.7738E-05	0.738525391	-7.162475586	7.069396973	0.007820129	-0.006246567	0.004386902	0.244873047	0.224121094	-1.079833984	892.14	-45.84845791	-4.910613916	69.80590645	-90
32628	0	0.029805183	-0.285561562	0.282429695	0.999999046	4.86374E-05	-0.000272751	2.28882E-05	0.745129585	-7.13903904	7.060742378	0.00243187	-0.013637543	0.001144409	0.244873047	0.224121094	-1.079833984	892.08	-45.84405333	-4.925124857	69.81598226	-91
32629	0	0.030090332	-0.286743164	0.281066895	0.999999046	-0.000152588	-0.000185966	2.67029E-05	0.752258301	-7.168579102	7.026672363	-0.007629395	-0.009298325	0.001335144	0.244873047	0.224121094	-1.076904297	892.1	-45.86217639	-4.932410904	69.81912783	-91
32630	0	0.030151367	-0.285400391	0.282104492	0.999999046	-6.86646E-05	-0.000110626	0.000114441	0.75378418	-7.135009766	7.052612305	-0.003433228	-0.005531311	0.005722046	0.242675781	0.224121094	-1.085449219	892.08	-45.8707149	-4.926485428	69.8242468	-90
32631	0	0.029839516	-0.286048889	0.282470703	0.999998093	-6.77109E-05	-9.91821E-05	-8.01086E-05	0.745987892	-7.151222229	7.061767578	-0.003385544	-0.004959106	-0.004005432	0.244873047	0.221923828	-1.076660156	892.1	-45.87769578	-4.93564857	69.81176168	-91
32632	0	0.029667854	-0.287154198	0.281303406	0.999999046	-4.86374E-05	-2.47955E-05	6.48499E-05	0.741696358	-7.178854942	7.032585144	-0.00243187	-0.001239777	0.003242493	0.244873047	0.224121094	-1.076904297	892.14	-45.88301338	-4.926940951	69.80470456	-90
32633	0	0.029968262	-0.28729248	0.281433105	0.999999046	-0.000114441	-0.000117302	2.67029E-05	0.749206543	-7.182312012	7.035827637	-0.005722046	-0.005865097	0.001335144	0.244873047	0.224121094	-1.079833984	892.24	-45.89631448	-4.92875644	69.80253029	-90
32634	0	0.029774666	-0.286687851	0.281176567	0.999999046	-9.91821E-05	-0.000207901	0.000136375	0.744366646	-7.167196274	7.029414177	-0.004959107	-0.01039505	0.006818771	0.244873047	0.224121094	-1.076904297	892.16	-45.90929318	-4.928769745	69.81640755	-90
32635	0	0.030273438	-0.287536621	0.281311035	0.999999046	1.52588E-05	-0.000109673	3.05176E-05	0.756835938	-7.188415527	7.032775879	0.000762939	-0.005483627	0.001525879	0.242431641	0.226318359	-1.076904297	892.16	-45.907781	-4.929682587	69.81420486	-91
32636	0	0.029951096	-0.287528992	0.281067848	0.999998093	0.000102997	2.19345E-05	2.57492E-05	0.74877739	-7.188224792	7.026696205	0.005149841	0.001096725	0.00128746	0.242431641	0.226318359	-1.076904297	892.1	-45.89530751	-4.920495575	69.80073558	-90
32637	0	0.030273438	-0.286987305	0.28125	0.999999046	5.72205E-05	-1.81198E-05	4.57764E-05	0.756835938	-7.174682617	7.03125	0.002861023	-0.000905991	0.002288818	0.242431641	0.224121094	-1.079589844	892.16	-45.88853875	-4.912876193	69.792573	-91
32638	0	0.030212402	-0.285644531	0.281616211	0.999999046	-3.43323E-05	-0.000164032	5.34058E-05	0.755310059	-7.141113281	7.040405273	-0.001716614	-0.008201599	0.002670288	0.242431641	0.224121094	-1.079589844	892.16	-45.89332152	-4.916292789	69.79687858	-90
32639	0	0.029907227	-0.28717041	0.281311035	0.999999046	-8.01086E-05	-0.000220299	1.90735E-05	0.747680664	-7.179260254	7.032775879	-0.004005432	-0.011014938	0.000953674	0.244873047	0.223876953	-1.082763672	892.1	-45.9035527	-4.927026395	69.80242598	-90
32640	0	0.030203819	-0.287339211	0.281434059	0.999999046	-1.43051E-05	-0.000101089	2.57492E-05	0.755095482	-7.183480263	7.035851479	-0.000715256	-0.005054474	0.00128746	0.244873047	0.223876953	-1.082763672	892.16	-45.90547986	-4.927719614	69.79869905	-90
32641	0	0.030517578	-0.286254883	0.282470703	0.999999046	-8.01086E-05	-0.000102043	0.000133514	0.762939453	-7.15637207	7.061767578	-0.004005432	-0.005102158	0.00667572	0.242431641	0.226318359	-1.082763672	892.16	-45.91565179	-4.919650514	69.80422684	-90
32642	0	0.029948235	-0.287712097	0.280282021	0.999999046	-0.000141144	-4.57764E-05	8.01086E-05	0.748705864	-7.192802429	7.007050514	-0.00705719	-0.002288818	0.004005432	0.242431641	0.226318359	-1.079833984	892.14	-45.93213956	-4.911497706	69.80058592	-90
32643	0	0.029907227	-0.287658691	0.280151367	0.999999046	-0.000137329	4.76837E-06	-3.05176E-05	0.747680664	-7.191467285	7.00378418	-0.006866455	0.000238419	-0.001525879	0.242431641	0.224121094	-1.076660156	892.1	-45.94715898	-4.90843391	69.7839917	-91
32644	0	0.029983521	-0.287612915	0.281659126	0.999999046	-2.00272E-05	-6.29425E-05	5.24521E-05	0.749588013	-7.190322876	7.041478157	-0.001001358	-0.003147125	0.002622604	0.244873047	0.226318359	-1.077148438	892.1	-45.94980417	-4.903940494	69.77854146	-90
32645	0	0.030029297	-0.287231445	0.281311035	0.999999046	-3.43323E-05	-6.77109E-05	-1.52588E-05	0.750732422	-7.180786133	7.032775879	-0.001716614	-0.003385544	-0.000762939	0.242431641	0.226318359	-1.082763672	892.1	-45.95367462	-4.905417336	69.76959642	-91
32646	0	0.030076027	-0.286762238	0.281103134	0.999999046	6.10352E-05	-0.000177383	9.05991E-05	0.751900673	-7.169055939	7.027578354	0.003051758	-0.008869171	0.004529953	0.244873047	0.226318359	-1.077148438	892.04	-45.94812167	-4.906929985	69.77658086	-91
32647	0	0.029541016	-0.288085938	0.280700684	0.999999046	2.67029E-05	-0.000182152	0.000118256	0.738525391	-7.202148438	7.01751709	0.001335144	-0.00910759	0.005912781	0.242431641	0.226318359	-1.076904297	892.16	-45.94679107	-4.906532828	69.7871368	-91
32648	0	0.030368805	-0.286857605	0.280399323	0.999999046	0.000144005	-0.000104904	3.71933E-05	0.759220123	-7.171440125	7.009983063	0.007200241	-0.005245209	0.001859665	0.242675781	0.224121094	-1.082519531	892.2	-45.93095127	-4.906690108	69.78545711	-91
32649	0	0.030029297	-0.286499023	0.281494141	0.999999046	4.95911E-05	-9.44138E-05	3.8147E-06	0.750732422	-7.162475586	7.037353516	0.002479553	-0.004720688	0.000190735	0.242431641	0.228515625	-1.080078125	892.16	-45.9256148	-4.908771597	69.77932629	-91
32650	0	0.029896736	-0.287693024	0.280844688	0.999999046	-4.76837E-05	-0.000104904	-6.10352E-05	0.747418404	-7.192325592	7.02111721	-0.002384186	-0.005245209	-0.003051758	0.242431641	0.226318359	-1.073974609	892.16	-45.93111031	-4.917031084	69.76860826	-91
32651	0	0.029785156	-0.286682129	0.281433105	0.999999046	-9.15527E-05	-0.000212669	0.000133514	0.744628906	-7.167053223	7.035827637	-0.004577637	-0.010633469	0.00667572	0.242431641	0.226318359	-1.079833984	892.16	-45.94372296	-4.917856454	69.78293181	-90
32652	0	0.029706001	-0.287474632	0.28075695	0.999999046	-0.000275612	-7.62939E-05	4.19617E-05	0.742650032	-7.186865807	7.018923759	-0.013780594	-0.003814697	0.002098084	0.244873047	0.226318359	-1.077148438	892.1	-45.97587647	-4.915345297	69.77745901	-90
32653	0	0.029785156	-0.288879395	0.279907227	0.999999046	-0.000152588	-9.05991E-05	5.72205E-05	0.744628906	-7.221984863	6.997680664	-0.007629395	-0.004529953	0.002861023	0.244628906	0.228515625	-1.080078125	892.1	-45.99424929	-4.91271182	69.77470096	-90
32654	0	0.030291557	-0.287443161	0.280302048	0.999999046	1.52588E-05	-0.000108719	9.82285E-05	0.757288933	-7.186079025	7.007551193	0.000762939	-0.005435944	0.004911423	0.242431641	0.228515625	-1.080078125	892.14	-45.99383123	-4.908166496	69.7777593	-89
32655	0	0.029663086	-0.288024902	0.282104492	0.999999046	4.19617E-05	-0.000159264	7.24792E-05	0.741577148	-7.200622559	7.052612305	0.002098084	-0.007963181	0.003623962	0.242431641	0.228515625	-1.083007813	892.16	-45.99052363	-4.909754546	69.78309965	-90
32656	0	0.029709816	-0.289227486	0.27918911	0.999999046	-8.58307E-06	-0.00018692	5.34058E-05	0.742745399	-7.230687141	6.979727745	-0.000429153	-0.009346008	0.002670288	0.242431641	0.228515625	-1.083007813	892.14	-45.99321318	-4.915110726	69.78901872	-90
32657	0	0.029907227	-0.286743164	0.281433105	0.999999046	0.000190735	-0.000132561	8.01086E-05	0.747680664	-7.168579102	7.035827637	0.009536743	-0.006628037	0.004005432	0.244628906	0.228515625	-1.07421875	892.08	-45.9728271	-4.913941514	69.79043999	-89
32658	0	0.029934883	-0.287984848	0.280069351	0.999999046	-2.86102E-05	-0.000104904	-1.14441E-05	0.748372078	-7.199621201	7.00173378	-0.001430511	-0.005245209	-0.000572205	0.242431641	0.226318359	-1.076904297	892.1	-45.97681853	-4.918119645	69.7841976	-89
32659	0	0.030395508	-0.28729248	0.280822754	0.999999046	6.10352E-05	-0.000121117	9.15527E-05	0.759887695	-7.182312012	7.020568848	0.003051758	-0.006055832	0.004577637	0.2421875	0.228515625	-1.07421875	892.14	-45.9713706	-4.915128757	69.78688005	-88
32660	0	0.029190063	-0.287874222	0.282254219	0.999999046	-0.000134468	-0.000164032	7.24792E-05	0.729751587	-7.196855545	7.056355476	-0.006723404	-0.008201599	0.003623962	0.244873047	0.226318359	-1.080078125	892.16	-45.98848215	-4.917085966	69.7913957	-88
32661	0	0.030334473	-0.287109375	0.280212402	0.999999046	-3.43323E-05	-0.000166893	9.91821E-05	0.758361816	-7.177734375	7.005310059	-0.001716614	-0.00834465	0.004959106	0.242431641	0.226318359	-1.073974609	892.1	-45.9943438	-4.917096835	69.79876637	-88
32662	0	0.030029297	-0.28704834	0.280212402	0.999999046	-0.000190735	-2.67029E-05	0.000167847	0.750732422	-7.176208496	7.005310059	-0.009536743	-0.001335144	0.008392334	0.2421875	0.228515625	-1.07421875	892.18	-46.01762216	-4.900297733	69.79996137	-88
32663	0	0.02935791	-0.287719727	0.280273438	0.999999046	-0.000144958	-0.000159264	6.48499E-05	0.733947754	-7.192993164	7.006835938	-0.007247925	-0.007963181	0.003242493	0.2421875	0.228515625	-1.077148438	892.14	-46.03592052	-4.902519026	69.80425782	-88
32664	0	0.029715538	-0.288354874	0.280790329	0.999999046	-0.000203133	-0.00019455	-2.67029E-05	0.742888451	-7.208871841	7.019758224	-0.010156632	-0.009727478	-0.001335144	0.2421875	0.228515625	-1.077148438	892.1	-46.06053867	-4.915092088	69.8040798	-88
32665	0	0.029785156	-0.287536621	0.279602051	0.999999046	-0.000106812	-0.000159264	-1.90735E-05	0.744628906	-7.188415527	6.99005127	-0.005340576	-0.007963181	-0.000953674	0.2421875	0.228515625	-1.077148438	892.16	-46.07395495	-4.924229378	69.80151039	-88
32666	0	0.029885292	-0.28783989	0.279774666	0.999999046	3.05176E-05	-0.00015831	4.86374E-05	0.747132301	-7.195997238	6.994366646	0.001525879	-0.007915497	0.00243187	0.2421875	0.230957031	-1.074462891	892.1	-46.07212428	-4.927702334	69.80330401	-88
32667	0	0.02947998	-0.288574219	0.280395508	0.999999046	-0.000133514	-0.000132561	7.24792E-05	0.736999512	-7.214355469	7.009887695	-0.00667572	-0.006628037	0.003623962	0.242431641	0.228515625	-1.080078125	892.08	-46.08910432	-4.927134767	69.80608385	-87
32668	0	0.030183792	-0.287127495	0.279578209	0.999999046	-6.77109E-05	-7.43866E-05	7.9155E-05	0.754594803	-7.17818737	6.989455223	-0.003385544	-0.00371933	0.003957748	0.2421875	0.228515625	-1.077148438	892.1	-46.0981823	-4.921409953	69.80429783	-87
32669	0	0.030029297	-0.288269043	0.278991699	0.999999046	-1.14441E-05	-5.62668E-05	0.000152588	0.750732422	-7.206726074	6.97479248	-0.000572205	-0.002813339	0.007629395	0.2421875	0.228515625	-1.07421875	892.16	-46.10125116	-4.908191629	69.80648349	-87
32670	0	0.029728889	-0.288346291	0.279408455	0.999999046	5.72205E-06	-0.000162125	0.000102043	0.743222237	-7.208657265	6.985211372	0.000286102	-0.008106232	0.005102158	0.242431641	0.228515625	-1.080078125	892.08	-46.10280705	-4.907555391	69.81403185	-87
32671	0	0.029724121	-0.288024902	0.279296875	0.999999046	-2.28882E-05	-0.000109673	0.000175476	0.743103027	-7.200622559	6.982421875	-0.001144409	-0.005483627	0.008773804	0.2421875	0.230712891	-1.083007813	892.16	-46.10780887	-4.89668682	69.82313561	-87
32672	0	0.029623032	-0.288414955	0.28000927	0.999999046	-0.000172615	-0.000137329	9.15527E-05	0.74057579	-7.210373878	7.000231743	-0.008630753	-0.006866455	0.004577637	0.2421875	0.230712891	-1.077392578	892.14	-46.12961681	-4.894938684	69.82695206	-86
32673	0	0.030395508	-0.288818359	0.279663086	0.999999046	4.95911E-05	-0.00014019	5.72205E-05	0.759887695	-7.220458984	6.991577148	0.002479553	-0.007009506	0.002861023	0.242431641	0.226318359	-1.076904297	892.1	-46.12579138	-4.896287183	69.82894629	-86
32674	0	0.029341698	-0.289404869	0.279500008	0.999999046	-7.24792E-05	-5.72205E-05	6.48499E-05	0.733542442	-7.235121727	6.987500191	-0.003623962	-0.002861023	0.003242493	0.2421875	0.230712891	-1.083007813	892.14	-46.1354902	-4.890393881	69.82481882	-86
32675	0	0.029724121	-0.287658691	0.280578613	0.999999046	9.53674E-05	-0.000132561	4.95911E-05	0.743103027	-7.191467285	7.014465332	0.004768372	-0.006628037	0.002479553	0.239990234	0.228759766	-1.079833984	892.14	-46.12634601	-4.891747299	69.82690082	-86
32676	0	0.030319214	-0.28748703	0.280381203	0.999999046	4.86374E-05	-0.000108719	7.62939E-06	0.757980347	-7.187175751	7.009530067	0.00243187	-0.005435944	0.00038147	0.239746094	0.230957031	-1.080078125	892.1	-46.12207332	-4.894705564	69.82306591	-87
32677	0	0.029663086	-0.289733887	0.280944824	0.999999046	4.95911E-05	-6.77109E-05	8.7738E-05	0.741577148	-7.243347168	7.023620605	0.002479553	-0.003385544	0.004386902	0.2421875	0.230712891	-1.080322266	892.16	-46.11798057	-4.887776496	69.8205239	-87
32678	0	0.029650688	-0.287514687	0.279931068	0.999999046	0.000123978	-0.000104904	8.67844E-05	0.741267204	-7.187867165	6.998276711	0.006198883	-0.005245209	0.004339218	0.242431641	0.228515625	-1.080078125	892.16	-46.10560984	-4.883881728	69.82125106	-87
32679	0	0.029724121	-0.287109375	0.280029297	0.999999046	5.72205E-05	-0.00014019	3.43323E-05	0.743103027	-7.177734375	7.000732422	0.002861023	-0.007009506	0.001716614	0.2421875	0.228515625	-1.07421875	892.08	-46.10075927	-4.887128639	69.81976014	-87
32680	0	0.03014946	-0.286347389	0.280236244	0.999999046	-9.82285E-05	-3.43323E-05	3.8147E-05	0.753736496	-7.158684731	7.005906105	-0.004911423	-0.001716614	0.001907349	0.239746094	0.228759766	-1.073974609	892.04	-46.11294233	-4.881680559	69.81168517	-87
32681	0	0.030212402	-0.288330078	0.278625488	0.999999046	-0.000133514	-0.000136375	9.53674E-05	0.755310059	-7.208251953	6.965637207	-0.00667572	-0.006818771	0.004768372	0.2421875	0.228515625	-1.07421875	892.14	-46.13035242	-4.879642749	69.81485686	-88
32682	0	0.029623032	-0.288350105	0.280126572	0.999999046	-0.000230789	-6.48499E-05	4.95911E-05	0.74057579	-7.208752632	7.003164291	-0.011539459	-0.003242493	0.002479553	0.239746094	0.230957031	-1.07421875	892.08	-46.15809999	-4.875705432	69.80988571	-87
32683	0	0.030090332	-0.28894043	0.278808594	0.999999046	-2.28882E-05	-4.86374E-05	0.000171661	0.752258301	-7.223510742	6.970214844	-0.001144409	-0.00243187	0.008583069	0.244628906	0.230712891	-1.077392578	892.16	-46.16281081	-4.860413922	69.8102402	-87
32684	0	0.029724121	-0.289733887	0.27947998	0.999999046	0.000103951	-8.7738E-05	-8.7738E-05	0.743103027	-7.243347168	6.986999512	0.005197525	-0.004386902	-0.004386902	0.2421875	0.230712891	-1.083007813	892.08	-46.15157222	-4.869673687	69.79623866	-88
32685	0	0.029968262	-0.288635254	0.280578613	0.999999046	0.000152588	-0.000121117	1.52588E-05	0.749206543	-7.215881348	7.014465332	0.007629395	-0.006055832	0.000762939	0.239746094	0.230957031	-1.077148438	892.1	-46.13567941	-4.873085929	69.7936909	-88
32686	0	0.03027153	-0.286903381	0.280536652	0.999999046	0.000116348	-8.58307E-05	1.04904E-05	0.756788254	-7.172584534	7.01341629	0.005817413	-0.004291534	0.000524521	0.2421875	0.230957031	-1.074462891	892.14	-46.12360113	-4.874121068	69.7850939	-88
32687	0	0.030151367	-0.287658691	0.280090332	0.999999046	-7.24792E-05	-5.24521E-05	-1.90735E-05	0.75378418	-7.191467285	7.002258301	-0.003623962	-0.002622604	-0.000953674	0.2421875	0.228515625	-1.07421875	892.16	-46.13271143	-4.874973521	69.77223194	-88
32688	0	0.030252457	-0.288064957	0.281082153	0.999999046	-0.000124931	-7.05719E-05	7.9155E-05	0.756311417	-7.201623917	7.027053833	-0.006246567	-0.003528595	0.003957748	0.2421875	0.228515625	-1.077148438	892.08	-46.14858642	-4.869176748	69.76944506	-88
32689	0	0.030212402	-0.28894043	0.277770996	0.999999046	-0.000232697	-0.000239372	8.01086E-05	0.755310059	-7.223510742	6.944274902	-0.011634827	-0.011968613	0.004005432	0.242431641	0.228515625	-1.080078125	892.14	-46.17811456	-4.876731535	69.78097601	-88
32690	0	0.030604362	-0.288831711	0.278170586	0.999999046	-0.000165939	-0.0001297	-2.67029E-05	0.765109062	-7.22079277	6.954264641	-0.008296967	-0.006484985	-0.001335144	0.239746094	0.230957031	-1.07421875	892.14	-46.19857071	-4.884462206	69.77522148	-88
32691	0	0.030029297	-0.289855957	0.27947998	0.999999046	-3.05176E-05	-0.000117302	0.00012207	0.750732422	-7.246398926	6.986999512	-0.001525879	-0.005865097	0.006103516	0.239990234	0.228759766	-1.079833984	892.1	-46.2044828	-4.878914153	69.78185291	-88
32692	0	0.030334473	-0.289001465	0.278381348	0.999999046	8.10623E-05	-0.000167847	4.95911E-05	0.758361816	-7.225036621	6.959533691	0.004053116	-0.008392334	0.002479553	0.2421875	0.230712891	-1.080322266	892.14	-46.19754253	-4.88339802	69.78393869	-88
32693	0	0.030029297	-0.288330078	0.278442383	0.999999046	-4.95911E-05	-3.71933E-05	-1.52588E-05	0.750732422	-7.208251953	6.96105957	-0.002479553	-0.001859665	-0.000762939	0.242431641	0.228515625	-1.080078125	892.1	-46.20424847	-4.88289812	69.77057403	-88
32694	0	0.030303001	-0.287442207	0.278594017	0.999999046	7.82013E-05	-4.76837E-05	5.24521E-05	0.757575035	-7.186055183	6.964850426	0.003910065	-0.002384186	0.002622604	0.239746094	0.230957031	-1.080078125	892.14	-46.19683699	-4.877662385	69.76517197	-88
32695	0	0.030761719	-0.287475586	0.27923584	0.999999046	-4.19617E-05	-0.000113487	8.7738E-05	0.769042969	-7.186889648	6.980895996	-0.002098084	-0.005674362	0.004386902	0.239746094	0.233154297	-1.077392578	892.08	-46.20387829	-4.87477924	69.76648709	-87
32696	0	0.030713081	-0.289092064	0.279265404	0.999999046	-0.000126839	-5.34058E-05	0	0.767827034	-7.227301598	6.981635094	-0.006341934	-0.002670288	0	0.2421875	0.230712891	-1.080322266	892.16	-46.21966362	-4.874432543	69.75507907	-87
32697	0	0.030212402	-0.288513184	0.278991699	0.999999046	-2.67029E-05	-0.000216484	8.7738E-05	0.755310059	-7.21282959	6.97479248	-0.001335144	-0.010824204	0.004386902	0.239746094	0.233154297	-1.080322266	892.1	-46.22572911	-4.879780349	69.76549509	-87
32698	0	0.030527115	-0.288534164	0.279755592	0.999999046	-0.000293732	-0.000183105	0.000148773	0.763177872	-7.213354111	6.993889809	-0.014686585	-0.009155274	0.00743866	0.241943359	0.233154297	-1.074462891	892.04	-46.26256191	-4.877456636	69.77429091	-87
32699	0	0.030273438	-0.287902832	0.279296875	0.999999046	-0.000431061	-0.000258446	0.000137329	0.756835938	-7.197570801	6.982421875	-0.021553041	-0.012922288	0.006866455	0.2421875	0.230712891	-1.077392578	892.02	-46.31555004	-4.882060625	69.78993986	-87
32700	0	0.029604912	-0.290226936	0.278176308	0.999999046	-0.000563622	-0.000150681	0.000213623	0.740122795	-7.255673409	6.954407692	-0.028181078	-0.007534028	0.010681153	0.241943359	0.235351563	-1.080566406	892.1	-46.38355079	-4.871778481	69.8024946	-87
32701	0	0.030517578	-0.290100098	0.279296875	0.999999046	-0.000144958	-0.000136375	4.95911E-05	0.762939453	-7.252502441	6.982421875	-0.007247925	-0.006818771	0.002479553	0.239501953	0.235351563	-1.077636719	892.1	-46.40236143	-4.873997145	69.80273504	-87
32702	0	0.030686378	-0.290060997	0.278348923	0.999998093	-9.82285E-05	-5.43594E-05	7.62939E-05	0.767159462	-7.251524925	6.958723068	-0.004911423	-0.002717972	0.003814697	0.239746094	0.235351563	-1.080566406	892.08	-46.41544315	-4.867558971	69.7988491	-87
32703	0	0.030517578	-0.289978027	0.278686523	0.999999046	9.15527E-05	-6.38962E-05	7.24792E-05	0.762939453	-7.249450684	6.967163086	0.004577637	-0.003194809	0.003623962	0.239746094	0.235351563	-1.080566406	892.1	-46.40682585	-4.862222735	69.79529944	-87
32704	0	0.029778481	-0.289382935	0.27824688	0.999999046	-4.29153E-05	-0.000125885	3.43323E-05	0.744462013	-7.234573364	6.956171989	-0.002145767	-0.006294251	0.001716614	0.239746094	0.233154297	-1.074462891	892.2	-46.41380418	-4.864948602	69.79290919	-87
32705	0	0.030761719	-0.289672852	0.279174805	0.999999046	-1.52588E-05	-0.000170708	0	0.769042969	-7.241821289	6.979370117	-0.000762939	-0.008535385	0	0.237304688	0.233154297	-1.077148438	892.08	-46.41766919	-4.874112474	69.79472451	-87
32706	0	0.030246735	-0.289803505	0.278422356	0.999999046	2.67029E-05	-6.29425E-05	3.71933E-05	0.756168365	-7.245087624	6.960558891	0.001335144	-0.003147125	0.001859665	0.2421875	0.232910156	-1.080322266	892.1	-46.41623631	-4.871684824	69.78565334	-87
32707	0	0.030578613	-0.2890625	0.27923584	0.999999046	-3.43323E-05	-4.48227E-05	6.86646E-05	0.764465332	-7.2265625	6.980895996	-0.001716614	-0.002241135	0.003433228	0.239501953	0.233154297	-1.071533203	892.16	-46.42183077	-4.865247733	69.77827795	-87
32708	0	0.030380249	-0.290062904	0.278846741	0.999999046	-4.76837E-06	-0.000110626	-1.62125E-05	0.759506226	-7.251572609	6.971168518	-0.000238419	-0.005531311	-0.000810623	0.239501953	0.235351563	-1.074707031	892.08	-46.42393513	-4.871076107	69.76952971	-87
32709	0	0.030761719	-0.289550781	0.27923584	0.999999046	-2.28882E-05	-9.44138E-05	5.72205E-05	0.769042969	-7.238769531	6.980895996	-0.001144409	-0.004720688	0.002861023	0.239501953	0.237548828	-1.077636719	892.2	-46.42846515	-4.869566199	69.76513938	-87
32710	0	0.030536652	-0.289934158	0.279093742	0.999999046	-9.53674E-05	-0.000106812	0.000133514	0.76341629	-7.248353958	6.977343559	-0.004768372	-0.005340576	0.00667572	0.239501953	0.235351563	-1.077636719	892.14	-46.44188603	-4.862727798	69.76878926	-86
32711	0	0.030517578	-0.289794922	0.27911377	0.999999046	-0.00012207	-0.000201225	0.000110626	0.762939453	-7.244873047	6.977844238	-0.006103516	-0.010061264	0.005531311	0.239501953	0.235351563	-1.077636719	892.1	-46.45885623	-4.865270548	69.77821535	-87
32712	0	0.030749321	-0.290297508	0.279884338	0.999999046	-0.00032711	1.90735E-05	0.000152588	0.768733025	-7.257437706	6.997108459	-0.016355515	0.000953674	0.007629395	0.239746094	0.233154297	-1.083251953	892.16	-46.49800191	-4.846972596	69.77556493	-87
32713	0	0.030212402	-0.289672852	0.277770996	0.999999046	-0.000152588	-4.1008E-05	7.24792E-05	0.755310059	-7.241821289	6.944274902	-0.007629395	-0.0020504	0.003623962	0.237060547	0.235595703	-1.074462891	892.14	-46.51703742	-4.840095861	69.7712943	-87
32714	0	0.029949188	-0.290189743	0.279022217	0.999999046	-7.82013E-05	-0.000146866	7.15256E-05	0.748729706	-7.254743576	6.97555542	-0.003910065	-0.007343292	0.003576279	0.241943359	0.237548828	-1.080810547	892.1	-46.52827352	-4.841642621	69.77016938	-87
32715	0	0.029907227	-0.289489746	0.278015137	0.999999046	-0.000507355	-0.000258446	1.90735E-05	0.747680664	-7.237243652	6.950378418	-0.025367738	-0.012922288	0.000953674	0.237060547	0.237792969	-1.071777344	892.2	-46.58908955	-4.85635438	69.77778315	-87
32716	0	0.030528069	-0.29062748	0.277093887	0.999999046	-0.000191689	-0.00038147	-5.05447E-05	0.763201714	-7.265686989	6.927347183	-0.009584427	-0.019073487	-0.002527237	0.239501953	0.237548828	-1.074707031	892.1	-46.61418308	-4.886569017	69.78706697	-87
32717	0	0.031066895	-0.291442871	0.277526855	0.999999046	-0.000152588	-0.000266075	8.7738E-05	0.776672363	-7.286071777	6.938171387	-0.007629395	-0.013303757	0.004386902	0.236816406	0.239990234	-1.072021484	892.1	-46.63493744	-4.896224536	69.79891514	-86
32718	0	0.031224251	-0.290617943	0.276871681	0.999999046	-1.33514E-05	-0.000329971	5.24521E-05	0.78060627	-7.26544857	6.92179203	-0.000667572	-0.016498566	0.002622604	0.237060547	0.237792969	-1.074707031	892.16	-46.63997735	-4.913895472	69.81410188	-86
32719	0	0.030761719	-0.291320801	0.278503418	0.999999046	-0.00018692	-0.000285149	1.14441E-05	0.769042969	-7.28302002	6.962585449	-0.009346008	-0.014257431	0.000572205	0.239257813	0.2421875	-1.075195313	892.16	-46.6643088	-4.931460924	69.81661305	-86
32720	0	0.030730247	-0.290815353	0.277338982	0.999999046	-0.000338554	-0.000207901	0.000114441	0.768256187	-7.270383835	6.933474541	-0.01692772	-0.01039505	0.005722046	0.237060547	0.239990234	-1.074951172	892.14	-46.7061499	-4.934374451	69.82514967	-86
32721	0	0.030761719	-0.29095459	0.27734375	0.999999046	-0.000118256	-0.000178337	0.00012207	0.769042969	-7.273864746	6.93359375	-0.005912781	-0.008916855	0.006103516	0.236816406	0.239990234	-1.072021484	892.1	-46.72257577	-4.934331705	69.83094085	-86
32722	0	0.030911446	-0.290905952	0.276226044	0.999999046	-0.000165939	-0.000106812	6.48499E-05	0.77278614	-7.272648811	6.905651093	-0.008296967	-0.005340576	0.003242493	0.236816406	0.2421875	-1.077880859	892.16	-46.74358479	-4.933462993	69.82727808	-86
32723	0	0.030822754	-0.291748047	0.276733398	0.999999046	-0.000137329	-0.000174522	6.10352E-05	0.770568848	-7.293701172	6.918334961	-0.006866455	-0.00872612	0.003051758	0.239501953	0.239746094	-1.077880859	892.1	-46.76181355	-4.938235889	69.82593982	-86
