Counter	Temperature	VelInc_X	VelInc_Y	VelInc_Z	OriInc_w	OriInc_x	OriInc_y	OriInc_z	Acc_X	Acc_Y	Acc_Z	Gyr_X	Gyr_Y	Gyr_Z	Mag_X	Mag_Y	Mag_Z	Pressure	Roll	Pitch	Yaw	RSSI
45860	0	0.384828568	-0.036276817	0.072170258	0.999999046	-0.000763893	0.000139236	0.000361443	9.620714188	-0.906920433	1.804256439	-0.038194661	0.006961823	0.018072131	-0.836425781	0.412109375	0.413818359	895.94	-25.47881589	-78.04655234	-122.267861	-64
45861	0	0.384033203	-0.035949707	0.07043457	0.999998093	-0.001368523	9.53674E-05	0.000267029	9.600830078	-0.898742676	1.760864258	-0.068426154	0.004768373	0.013351445	-0.838867188	0.414550781	0.416503906	895.9	-25.70821456	-78.02570508	-122.1940613	-64
45862	0	0.384548187	-0.038489342	0.07211113	0.999998093	-0.001822472	5.43594E-05	2.19345E-05	9.613704681	-0.962233543	1.802778244	-0.091123631	0.002717973	0.001096726	-0.838867188	0.409912109	0.416992188	895.94	-25.88043426	-78.02122552	-122.2364512	-63
45863	0	0.386474609	-0.042236328	0.075378418	0.999999046	-0.000968933	-2.95639E-05	0.000289917	9.661865234	-1.055908203	1.884460449	-0.048446664	-0.001478195	0.014495852	-0.838867188	0.409912109	0.416992188	895.96	-26.10587983	-78.01172315	-122.1228077	-64
45864	0	0.385296822	-0.037473679	0.072535515	0.999999046	0.000918388	-9.34601E-05	0.000407219	9.63242054	-0.936841965	1.813387871	0.045919426	-0.004673005	0.02036095	-0.838867188	0.409912109	0.416992188	896.06	-26.18718508	-78.00279492	-121.9385719	-64
45865	0	0.386291504	-0.03515625	0.071716309	0.999999046	0.000339508	0.000119209	8.39233E-05	9.657287598	-0.87890625	1.792907715	0.016975403	0.005960465	0.004196167	-0.836425781	0.412109375	0.416748047	895.96	-26.12761975	-77.98840407	-121.9619368	-63
45866	0	0.387428284	-0.03541851	0.070305824	0.999999046	-0.000967026	0.000202179	0.000174522	9.685707092	-0.885462761	1.757645607	-0.048351296	0.010108949	0.008726121	-0.836425781	0.412109375	0.416748047	896	-26.24194186	-77.96106305	-121.9589313	-64
45867	0	0.387817383	-0.038085938	0.073120117	0.999999046	-0.000598907	-2.95639E-05	7.24792E-05	9.69543457	-0.952148438	1.82800293	-0.029945375	-0.001478195	0.003623963	-0.836669922	0.412109375	0.419433594	895.96	-26.32018891	-77.96269763	-121.9511478	-64
45868	0	0.384703636	-0.034443855	0.071529388	0.999999046	-2.95639E-05	9.15527E-05	-1.14441E-05	9.617590904	-0.861096382	1.788234711	-0.001478195	0.004577637	-0.000572205	-0.838867188	0.409912109	0.419921875	896.02	-26.26364613	-77.95625243	-122.0195428	-64
45869	0	0.384643555	-0.035888672	0.071166992	0.999999046	-0.000202179	0.000107765	0.000209808	9.616088867	-0.897216797	1.779174805	-0.010108948	0.00538826	0.010490418	-0.838867188	0.409912109	0.419921875	896.02	-26.32962351	-77.93699738	-121.9829014	-64
45870	0	0.387236595	-0.037545204	0.071783066	0.999999046	-0.00019455	0.000118256	2.67029E-05	9.680914879	-0.938630104	1.794576645	-0.009727478	0.005912781	0.001335144	-0.836425781	0.409912109	0.416748047	895.96	-26.30453134	-77.9260191	-122.0337559	-64
45871	0	0.385070801	-0.035461426	0.07232666	0.999999046	-0.000297546	0.000271797	0.000152588	9.62677002	-0.886535645	1.808166504	-0.01487732	0.013589859	0.007629395	-0.838623047	0.407714844	0.414306641	896.02	-26.31514125	-77.89292987	-122.0623749	-63
45872	0	0.384531975	-0.034096718	0.072392464	0.999999046	-0.000460625	0.000255585	8.29697E-05	9.61329937	-0.852417946	1.809811592	-0.023031236	0.012779236	0.004148483	-0.836425781	0.409912109	0.413818359	896	-26.31456455	-77.8651305	-122.1154785	-64
45873	0	0.385070801	-0.035522461	0.07208252	0.999999046	-0.000854492	0.000321388	0.000141144	9.62677002	-0.888061523	1.802062988	-0.042724615	0.016069415	0.007057191	-0.838867188	0.409912109	0.416992188	896.02	-26.37130294	-77.82770503	-122.1590447	-64
45874	0	0.3863554	-0.037892342	0.072875023	0.999999046	-0.000997543	0.000244141	0.000151634	9.658885002	-0.94730854	1.821875572	-0.049877176	0.012207033	0.007581712	-0.841064453	0.407714844	0.414306641	896	-26.46783956	-77.79770626	-122.1790032	-64
45875	0	0.385375977	-0.038391113	0.074584961	0.999999046	-0.000473022	0.000210762	0	9.634399414	-0.959777832	1.864624023	-0.023651124	0.010538102	0	-0.841064453	0.407958984	0.417236328	896	-26.44039788	-77.77880888	-122.2658135	-64
45876	0	0.384184837	-0.037302017	0.073795319	0.999999046	0.000103951	0.000335693	-0.000118256	9.604620934	-0.93255043	1.844882965	0.005197525	0.016784668	-0.005912781	-0.838623047	0.405517578	0.417236328	896.06	-26.26188609	-77.75305184	-122.4431222	-64
45877	0	0.384399414	-0.035766602	0.074462891	0.999999046	0.000110626	0.000256538	-7.24792E-05	9.609985352	-0.894165039	1.861572266	0.005531311	0.01282692	-0.003623962	-0.838623047	0.405517578	0.414306641	896.08	-26.12306238	-77.73301863	-122.5760547	-64
45878	0	0.385587692	-0.034657478	0.073019028	0.999999046	-0.000177383	0.000341415	9.44138E-05	9.639692307	-0.866436958	1.825475693	-0.008869171	0.017070771	0.004720688	-0.841064453	0.405517578	0.417480469	896	-26.07659086	-77.69590213	-122.6524883	-64
45879	0	0.387207031	-0.036865234	0.071899414	0.999999046	-0.000686646	0.000306129	-0.000335693	9.680175781	-0.921630859	1.797485352	-0.034332279	0.015306475	-0.01678467	-0.838623047	0.407714844	0.414306641	896	-25.89432522	-77.68412485	-122.9168148	-64
45880	0	0.385170937	-0.03793335	0.076842308	0.999999046	-0.000302315	0.000205994	-0.000228882	9.629273415	-0.94833374	1.921057701	-0.015115738	0.010299683	-0.011444092	-0.841064453	0.407958984	0.417236328	896.02	-25.74176799	-77.67705317	-123.1077729	-63
45881	0	0.383178711	-0.037475586	0.076660156	0.999999046	-0.000133514	0.000252724	-0.00012207	9.579467773	-0.936889648	1.916503906	-0.00667572	0.012636185	-0.006103516	-0.840820313	0.403320313	0.417724609	895.96	-25.61001995	-77.65962595	-123.2659071	-63
45882	0	0.384064674	-0.040393829	0.076476097	0.999999046	0.000600815	0.000152588	5.34058E-05	9.601616859	-1.009845734	1.911902428	0.030040743	0.007629395	0.002670288	-0.840820313	0.403320313	0.417724609	896	-25.50070029	-77.64364903	-123.316397	-63
45883	0	0.384460449	-0.036621094	0.074035645	0.999999046	0.001251221	9.25064E-05	-0.000106812	9.61151123	-0.915527344	1.850891113	0.062561052	0.004625322	-0.005340578	-0.843261719	0.403320313	0.414794922	895.9	-25.25505255	-77.64177546	-123.4303675	-63
45884	0	0.384758949	-0.035072327	0.074010849	0.999999046	0.00130558	-8.7738E-05	4.57764E-05	9.618973732	-0.876808167	1.850271225	0.065279026	-0.004386903	0.002288819	-0.843261719	0.403564453	0.417724609	895.96	-25.11549741	-77.65115397	-123.4345559	-63
45885	0	0.385803223	-0.031188965	0.074707031	0.999999046	0.000526428	-0.000231743	-1.90735E-05	9.645080566	-0.779724121	1.867675781	0.026321413	-0.011587144	-0.000953674	-0.841064453	0.405517578	0.414550781	895.96	-25.0654716	-77.67876798	-123.4311655	-63
45886	0	0.384373665	-0.035064697	0.073710442	0.999999046	-0.000350952	-8.01086E-05	0.000106812	9.609341621	-0.876617432	1.84276104	-0.017547608	-0.004005432	0.005340576	-0.843261719	0.405761719	0.411865234	896	-25.14213352	-77.68460024	-123.3976909	-63
45887	0	0.384887695	-0.038208008	0.074401855	0.999999046	0.000270844	-0.000185966	0.000419617	9.622192383	-0.955200195	1.860046387	0.013542176	-0.009298325	0.020980836	-0.843261719	0.405761719	0.414550781	896.02	-25.32046034	-77.68608765	-123.1914781	-63
45888	0	0.38549614	-0.034646988	0.073604584	0.999999046	0.000746727	-0.000120163	0.000159264	9.637403488	-0.866174698	1.840114594	0.037336353	-0.006008149	0.007963181	-0.841064453	0.407714844	0.414306641	895.96	-25.30585017	-77.69354509	-123.1240486	-63
45889	0	0.386413574	-0.032409668	0.073852539	0.999999046	0.000362396	-3.33786E-05	-9.15527E-05	9.660339355	-0.810241699	1.846313477	0.018119812	-0.00166893	-0.004577637	-0.840820313	0.405517578	0.408691406	895.96	-25.19599998	-77.7044198	-123.1973996	-63
45890	0	0.38447094	-0.034667015	0.07324028	0.999999046	3.62396E-05	-1.71661E-05	-0.000217438	9.611773491	-0.866675377	1.831007004	0.001811981	-0.000858307	-0.010871887	-0.843505859	0.407958984	0.414550781	895.94	-25.05972643	-77.71979128	-123.3377033	-63
45891	0	0.386108398	-0.035339355	0.074584961	0.999999046	0.000415802	-0.000166893	-6.10352E-05	9.652709961	-0.883483887	1.864624023	0.020790101	-0.008344651	-0.003051758	-0.840820313	0.405517578	0.411621094	895.9	-24.98769144	-77.74309742	-123.3683288	-63
45892	0	0.388640404	-0.036693573	0.07643795	0.999999046	0.000674248	-0.000268936	-0.000256538	9.716010094	-0.917339325	1.910948753	0.03371239	-0.013446809	-0.012826921	-0.841064453	0.407958984	0.417236328	896	-24.81489548	-77.78635885	-123.4732291	-63
45893	0	0.386413574	-0.036376953	0.075500488	0.999999046	0.001251221	-2.19345E-05	-0.000415802	9.660339355	-0.909423828	1.887512207	0.062561053	-0.001096726	-0.020790106	-0.841064453	0.407714844	0.414306641	896.02	-24.44372572	-77.8113344	-123.7119838	-63
45894	0	0.382478714	-0.035259247	0.075998306	0.999999046	0.001054764	0.000183105	7.53403E-05	9.56196785	-0.881481171	1.899957657	0.0527382	0.009155275	0.003767014	-0.840820313	0.407714844	0.408447266	896	-24.2868903	-77.79134858	-123.7509363	-62
45895	0	0.384277344	-0.037109375	0.07409668	0.999998093	0.001351357	8.01086E-05	0.000476837	9.606933594	-0.927734375	1.852416992	0.067567849	0.004005434	0.023841866	-0.840820313	0.407714844	0.405761719	896	-24.31298197	-77.76314537	-123.5697372	-62
45896	0	0.385331154	-0.033860207	0.074005127	0.999998093	0.00154686	6.19888E-05	0.000553131	9.633278847	-0.846505165	1.850128174	0.077343022	0.003099443	0.027656568	-0.841064453	0.409912109	0.408447266	895.9	-24.35679561	-77.73326825	-123.3516417	-62
45897	0	0.385131836	-0.033752441	0.073608398	0.999998093	0.001587868	2.67029E-05	0.000881195	9.628295898	-0.843811035	1.840209961	0.07939343	0.001335145	0.044059778	-0.841064453	0.414550781	0.405029297	895.96	-24.5597712	-77.69149255	-122.9601783	-62
45898	0	0.383667946	-0.031632423	0.073666573	0.999998093	0.001547813	-5.81741E-05	0.000656128	9.591698647	-0.790810585	1.841664314	0.077390707	-0.002908708	0.032806412	-0.841308594	0.414550781	0.407958984	895.96	-24.67646163	-77.66919564	-122.6702806	-62
45899	0	0.38494873	-0.029846191	0.073059082	0.999999046	0.000728607	-0.000174522	0.000415802	9.623718262	-0.746154785	1.826477051	0.036430363	-0.008726121	0.020790103	-0.838867188	0.418701172	0.398925781	895.86	-24.79677638	-77.67061009	-122.457134	-61
45900	0	0.385190964	-0.032503128	0.072115898	0.999999046	4.86374E-05	-0.000171661	0.000118256	9.629774094	-0.812578201	1.802897453	0.00243187	-0.008583069	0.005912781	-0.838867188	0.418701172	0.401611328	895.96	-24.85262241	-77.68616836	-122.3927142	-61
45901	0	0.386535645	-0.035583496	0.074951172	0.999999046	7.24792E-05	3.14713E-05	-0.000160217	9.663391113	-0.889587402	1.873779297	0.003623962	0.001573563	-0.008010864	-0.838867188	0.418701172	0.404541016	895.94	-24.72838883	-77.6939885	-122.5124423	-61
45902	0	0.38452816	-0.035633087	0.074917793	0.999999046	0.000436783	8.7738E-05	-0.000205994	9.613204002	-0.890827179	1.872944832	0.021839143	0.004386902	-0.010299683	-0.838867188	0.418701172	0.401611328	896	-24.52824544	-77.69804186	-122.6642248	-61
45903	0	0.383178711	-0.034362793	0.072875977	0.999999046	0.000774384	-0.000185966	7.62939E-05	9.579467773	-0.859069824	1.821899414	0.038719181	-0.009298326	0.003814698	-0.838867188	0.416503906	0.401855469	895.92	-24.48419782	-77.71722901	-122.622419	-61
45904	0	0.385397911	-0.031682968	0.074123383	0.999999046	0.000248909	-0.000305176	0.000282288	9.634947777	-0.792074203	1.853084564	0.01244545	-0.01525879	0.01411438	-0.836425781	0.418701172	0.401611328	895.96	-24.62479676	-77.73912333	-122.4488958	-61
45905	0	0.388000488	-0.032653809	0.073181152	0.999999046	-0.000965118	-2.57492E-05	0.00012207	9.700012207	-0.816345215	1.829528809	-0.048255928	-0.001287461	0.006103517	-0.838867188	0.418701172	0.404541016	895.96	-24.76633662	-77.73964811	-122.4187113	-61
45906	0	0.385554314	-0.035029411	0.07498455	0.999999046	-0.000717163	6.10352E-05	-1.52588E-05	9.638857841	-0.875735283	1.874613762	-0.035858157	0.003051758	-0.00076294	-0.838867188	0.416503906	0.401855469	895.9	-24.79455812	-77.73771112	-122.4745587	-61
45907	0	0.381713867	-0.03326416	0.075500488	0.999999046	-0.000881195	3.14713E-05	0.000190735	9.54284668	-0.831604004	1.887512207	-0.044059759	0.001573563	0.009536744	-0.839111328	0.418945313	0.410400391	895.96	-24.94621429	-77.72889306	-122.4265094	-61
45908	0	0.383831978	-0.035129547	0.074728966	0.999999046	-0.001042366	-0.000146866	0.000441551	9.595799446	-0.878238678	1.868224144	-0.052118313	-0.007343294	0.022077565	-0.838867188	0.418701172	0.404541016	896.02	-25.27565838	-77.72631661	-122.2080116	-62
45909	0	0.385925293	-0.03692627	0.076538086	0.999999046	-0.001075745	3.14713E-05	0.000324249	9.648132324	-0.923156738	1.913452148	-0.053787243	0.001573563	0.016212467	-0.841308594	0.416748047	0.410644531	896.02	-25.51277402	-77.71070276	-122.0972343	-62
45910	0	0.38638401	-0.038071632	0.074954033	0.999999046	-0.000663757	0.000207901	0.000431061	9.659600258	-0.95179081	1.873850822	-0.03318787	0.010395051	0.021553042	-0.838867188	0.416503906	0.407714844	896	-25.71309994	-77.67141736	-121.9720475	-62
45911	0	0.384155273	-0.036071777	0.07598877	0.999999046	0	0.000302315	0.00038147	9.603881836	-0.901794434	1.899719238	0	0.015115739	0.019073487	-0.838867188	0.416503906	0.407714844	896	-25.79147641	-77.62472132	-121.895239	-63
45912	0	0.382313728	-0.035997391	0.073166847	0.999999046	-0.000533104	0.000419617	0.000281334	9.557843208	-0.899934769	1.829171181	-0.0266552	0.020980837	0.014066697	-0.841308594	0.418945313	0.407714844	895.94	-25.85683665	-77.57095814	-121.8908432	-63
45913	0	0.383483887	-0.03918457	0.074707031	0.999999046	-0.000305176	0.00017643	0.000343323	9.587097168	-0.979614258	1.867675781	-0.01525879	0.008821488	0.017166138	-0.838867188	0.416503906	0.401855469	896	-25.98037803	-77.53910105	-121.7978908	-63
45914	0	0.384957314	-0.03766346	0.0744524	0.999999046	0.000108719	0.000112534	0.000343323	9.623932838	-0.941586494	1.861310005	0.005435944	0.005626679	0.017166138	-0.839111328	0.418945313	0.407470703	895.94	-26.07075984	-77.51380754	-121.6933157	-63
45915	0	0.383483887	-0.037475586	0.075744629	0.999999046	0.000339508	0.000287056	0.000164032	9.587097168	-0.936889648	1.893615723	0.016975403	0.014352799	0.008201599	-0.836425781	0.416503906	0.407470703	895.92	-26.0115989	-77.47951641	-121.7196711	-62
45916	0	0.382819176	-0.035964012	0.074400902	0.999999046	0.000170708	0.000232697	0.000365257	9.570479393	-0.899100304	1.860022545	0.008535385	0.011634827	0.018262864	-0.838867188	0.416503906	0.404785156	896.02	-26.07713483	-77.44075346	-121.6378101	-62
45917	0	0.383972168	-0.036193848	0.073608398	0.999998093	-0.001498222	0.000278473	0.000171661	9.599304199	-0.904846191	1.840209961	-0.074911147	0.01392365	0.008583072	-0.839111328	0.418945313	0.407470703	896.08	-26.23365284	-77.40713824	-121.6543251	-62
45918	0	0.387516022	-0.043328285	0.075464249	0.999999046	-0.000928879	9.72748E-05	0.000288963	9.687900543	-1.08320713	1.886606216	-0.046443947	0.00486374	0.014448168	-0.839111328	0.418945313	0.410400391	895.9	-26.42076483	-77.38610668	-121.5744283	-62
45919	0	0.383422852	-0.037719727	0.075195313	0.999999046	0.000469208	-0.000189781	0.000343323	9.585571289	-0.942993164	1.879882813	0.02346039	-0.00948906	0.017166139	-0.839111328	0.418945313	0.410400391	895.9	-26.53780799	-77.39171529	-121.4038457	-62
45920	0	0.383181572	-0.036388397	0.0735569	0.999999046	0.000325203	-0.000106812	0.000365257	9.579539299	-0.90970993	1.838922501	0.016260148	-0.005340576	0.018262864	-0.836669922	0.418701172	0.407470703	895.94	-26.66226032	-77.3877339	-121.2405105	-63
45921	0	0.386230469	-0.038757324	0.073242188	0.999999046	-0.000476837	-0.000151634	0.000225067	9.655761719	-0.968933105	1.831054688	-0.023841859	-0.007581711	0.011253357	-0.838867188	0.418701172	0.404541016	895.96	-26.82509815	-77.39558977	-121.1289763	-63
45922	0	0.383488655	-0.039855957	0.074307442	0.999999046	-0.000761032	-0.000274658	0.000300407	9.587216377	-0.996398926	1.857686043	-0.03805161	-0.013732912	0.015020372	-0.834228516	0.420898438	0.404296875	895.94	-27.0841102	-77.41201584	-120.9449051	-63
45923	0	0.384521484	-0.04083252	0.07421875	0.999999046	-0.000572205	-0.00014019	0.000255585	9.613037109	-1.020812988	1.85546875	-0.028610231	-0.007009507	0.012779237	-0.839111328	0.421142578	0.407226563	895.96	-27.27038545	-77.41692449	-120.8169922	-63
45924	0	0.381897926	-0.038674355	0.076019287	0.999999046	-0.000401497	-9.91821E-05	8.29697E-05	9.547448158	-0.966858864	1.900482178	-0.020074845	-0.004959107	0.004148483	-0.839111328	0.416748047	0.413574219	895.96	-27.34854059	-77.42660115	-120.7933369	-63
45925	0	0.381530762	-0.041320801	0.075195313	0.999999046	-0.000961304	9.53674E-07	-0.000282288	9.538269043	-1.03302002	1.879882813	-0.048065194	4.76837E-05	-0.014114382	-0.834228516	0.416503906	0.413330078	895.96	-27.300757	-77.4451956	-120.959114	-63
45926	0	0.385399818	-0.043874741	0.076086998	0.999999046	-0.000764847	7.62939E-06	-0.000747681	9.634995461	-1.096868515	1.90217495	-0.038242347	0.00038147	-0.03738404	-0.836669922	0.416503906	0.413330078	896.02	-27.01559445	-77.48719059	-121.3413845	-63
45927	0	0.384155273	-0.042724609	0.075256348	0.999999046	0.000450134	9.53674E-07	-0.000484467	9.603881836	-1.068115234	1.881408691	0.022506716	4.76837E-05	-0.024223329	-0.838867188	0.414306641	0.413574219	895.96	-26.7128281	-77.51568815	-121.6033189	-64
45928	0	0.385472298	-0.036607742	0.075166702	0.999999046	0.000622749	-0.00012207	-0.000198364	9.636807442	-0.915193558	1.879167557	0.031137469	-0.006103516	-0.009918214	-0.838867188	0.416503906	0.410644531	896.08	-26.54983114	-77.54188845	-121.6951485	-64
45929	0	0.386352539	-0.034362793	0.075805664	0.999999046	0.000411987	-0.000128746	0.000671387	9.658813477	-0.859069824	1.895141602	0.020599367	-0.006437302	0.03356934	-0.838867188	0.416503906	0.410644531	895.94	-26.81450754	-77.52408461	-121.3765139	-64
45930	0	0.387054443	-0.03635025	0.071644783	0.999999046	-0.001083374	0.000110626	0.000232697	9.676361084	-0.908756256	1.791119576	-0.054168712	0.005531312	0.011634829	-0.836425781	0.414306641	0.413574219	895.94	-26.99112769	-77.50450616	-121.3277354	-64
45931	0	0.38470459	-0.042236328	0.074401855	0.999999046	-0.001117706	6.19888E-05	-0.000175476	9.617614746	-1.055908203	1.860046387	-0.055885327	0.003099442	-0.008773806	-0.836425781	0.414306641	0.413574219	895.96	-26.9955538	-77.51103414	-121.455954	-65
45932	0	0.382695198	-0.041115761	0.077468872	0.999999046	-0.000407219	-1.14441E-05	-8.4877E-05	9.567379951	-1.02789402	1.936721802	-0.020360947	-0.000572205	-0.004243851	-0.839111328	0.416748047	0.413574219	895.94	-26.97767098	-77.52014039	-121.5187807	-65
45933	0	0.384033203	-0.042419434	0.076721191	0.999999046	0.00038147	-7.15256E-05	-2.67029E-05	9.600830078	-1.06048584	1.918029785	0.019073487	-0.003576279	-0.001335144	-0.838867188	0.412109375	0.416748047	895.96	-26.91082981	-77.53216396	-121.5512402	-65
45934	0	0.385266304	-0.041060448	0.074926376	0.999999046	0.001148224	-1.90735E-05	9.82285E-05	9.6316576	-1.026511192	1.873159409	0.057411207	-0.000953675	0.004911424	-0.836425781	0.412109375	0.407958984	895.94	-26.80197283	-77.53228343	-121.5294202	-65
45935	0	0.384399414	-0.036254883	0.074829102	0.999999046	0.000930786	-7.15256E-05	0.000144958	9.609985352	-0.90637207	1.870727539	0.046539314	-0.003576279	0.007247926	-0.836425781	0.414306641	0.407714844	895.84	-26.75140675	-77.53539937	-121.4714989	-66
45936	0	0.383544922	-0.034945488	0.074959755	1	-9.53674E-06	9.53674E-07	3.8147E-06	9.588623047	-0.873637199	1.873993874	-0.000476837	4.76837E-05	0.000190735	-0.836669922	0.416503906	0.410400391	895.96	-26.72556857	-77.53843328	-121.4972843	-65
45937	0	0.384460449	-0.038269043	0.07598877	0.999999046	-0.000617981	6.58035E-05	0.000152588	9.61151123	-0.956726074	1.899719238	-0.03089905	0.003290177	0.007629395	-0.836669922	0.416503906	0.410400391	896	-26.82300854	-77.52709831	-121.4672052	-66
45938	0	0.384559631	-0.040863991	0.077879906	0.999999046	-0.000400543	8.39233E-05	1.14441E-05	9.613990784	-1.02159977	1.946997643	-0.020027161	0.004196167	0.000572205	-0.838867188	0.416503906	0.407714844	895.96	-26.82614731	-77.52101175	-121.5053546	-65
45939	0	0.384216309	-0.040405273	0.077026367	0.999999046	0.000396729	0.000130653	-0.000267029	9.605407715	-1.010131836	1.92565918	0.019836427	0.006532669	-0.013351441	-0.836425781	0.416503906	0.407470703	895.92	-26.59843332	-77.52432275	-121.6853271	-65
45940	0	0.383544922	-0.038003922	0.076727867	0.999999046	0.001030922	7.62939E-05	-0.000392914	9.588623047	-0.950098038	1.918196678	0.051546107	0.003814698	-0.019645695	-0.836425781	0.416503906	0.407470703	896	-26.25170726	-77.53934154	-121.9138799	-65
45941	0	0.384094238	-0.036132813	0.076782227	0.999999046	0.000896454	-5.62668E-05	-0.00043869	9.602355957	-0.903320313	1.919555664	0.0448227	-0.00281334	-0.021934513	-0.836425781	0.414306641	0.413574219	895.94	-25.92797583	-77.56996492	-122.1453401	-64
45942	0	0.384072304	-0.035538673	0.075764656	0.999999046	0.000459671	9.53674E-06	-0.000309944	9.601807594	-0.888466835	1.894116402	0.022983552	0.000476837	-0.015497208	-0.836181641	0.412109375	0.405029297	895.9	-25.69816007	-77.58714227	-122.3266004	-64
45943	0	0.386535645	-0.036987305	0.073791504	0.999999046	-0.000228882	5.81741E-05	-0.000415802	9.663391113	-0.924682617	1.844787598	-0.011444092	0.002908707	-0.020790101	-0.838623047	0.412109375	0.405273438	895.9	-25.48618106	-77.60446396	-122.5695239	-64
45944	0	0.383322716	-0.037376404	0.078150749	0.999999046	0.000117302	0.000102997	-0.000583649	9.583067894	-0.934410095	1.95376873	0.005865097	0.005149842	-0.029182436	-0.841064453	0.412109375	0.405273438	895.96	-25.14448618	-77.62494848	-122.9038195	-64
45945	0	0.381469727	-0.03717041	0.075805664	0.999999046	4.57764E-05	0.000153542	-0.000324249	9.536743164	-0.929260254	1.895141602	0.002288818	0.007677078	-0.016212464	-0.843505859	0.412353516	0.411132813	896	-24.92202225	-77.62717244	-123.1300598	-64
45946	0	0.385255814	-0.038561821	0.075559616	0.999999046	8.7738E-05	1.52588E-05	-6.10352E-05	9.63139534	-0.964045525	1.888990402	0.004386902	0.000762939	-0.003051758	-0.841064453	0.412109375	0.405273438	896	-24.85042334	-77.63090424	-123.1901536	-64
45947	0	0.383728027	-0.035766602	0.075439453	0.999999046	8.01086E-05	-8.29697E-05	7.62939E-06	9.593200684	-0.894165039	1.885986328	0.004005432	-0.004148483	0.00038147	-0.841064453	0.412109375	0.405273438	895.86	-24.83382172	-77.64153074	-123.1947985	-64
45948	0	0.382214546	-0.034601212	0.077577591	0.999999046	-0.000128746	-0.000259399	0.000511169	9.555363655	-0.865030289	1.939439774	-0.006437302	-0.012969971	0.025558473	-0.838623047	0.412109375	0.405273438	895.86	-25.11856565	-77.64603125	-122.9154231	-64
45949	0	0.38293457	-0.035339355	0.076843262	0.999999046	-0.000125885	-0.000491142	0.000675201	9.573364258	-0.883483887	1.921081543	-0.006294251	-0.024557117	0.033760075	-0.841064453	0.412109375	0.408203125	896	-25.53263414	-77.66607154	-122.5084034	-64
45950	0	0.383871078	-0.03850174	0.07413578	0.999999046	-0.000782013	-0.00044632	0.000652313	9.596776962	-0.962543488	1.853394508	-0.039100655	-0.022315984	0.032615668	-0.838867188	0.414306641	0.407958984	895.9	-26.00267239	-77.68194998	-122.1155463	-63
45951	0	0.383972168	-0.04107666	0.077941895	0.999999046	-0.000881195	-0.000365257	0.000652313	9.599304199	-1.026916504	1.948547363	-0.044059763	-0.018262867	0.032615669	-0.841308594	0.414550781	0.407958984	895.9	-26.46669492	-77.68858784	-121.7404879	-64
45952	0	0.384768486	-0.040554047	0.075941086	0.999999046	-0.000439644	-0.000211716	0.000323296	9.619212151	-1.013851166	1.898527145	-0.021982194	-0.010585786	0.016164781	-0.836425781	0.414306641	0.407714844	895.96	-26.69029134	-77.69576379	-121.5577388	-63
45953	0	0.381530762	-0.040771484	0.075683594	0.999999046	8.7738E-05	-0.000212669	0.000110626	9.538269043	-1.019287109	1.892089844	0.004386902	-0.010633469	0.005531311	-0.836425781	0.414306641	0.413574219	895.94	-26.75447114	-77.71374812	-121.4825869	-63
45954	0	0.385643005	-0.038097382	0.074609756	0.999999046	0.000654221	-0.000337601	-3.52859E-05	9.641075134	-0.95243454	1.865243912	0.032711032	-0.016880037	-0.001764298	-0.838867188	0.414306641	0.413574219	895.9	-26.7147798	-77.75202952	-121.4489778	-63
45955	0	0.385803223	-0.038757324	0.071960449	0.999999046	0.000465393	-0.000193596	6.48499E-05	9.645080566	-0.968933105	1.79901123	0.023269654	-0.009679795	0.003242493	-0.836669922	0.416503906	0.410400391	895.86	-26.71014794	-77.770499	-121.3943774	-63
45956	0	0.388878822	-0.039105415	0.074469566	0.999999046	0.000668526	-0.000289917	0.000267029	9.721970558	-0.977635384	1.861739159	0.033426288	-0.014495851	0.013351442	-0.833984375	0.414306641	0.410644531	895.96	-26.80099107	-77.78837573	-121.2234656	-63
45957	0	0.385131836	-0.033691406	0.074890137	0.999999046	0.000476837	2.38419E-05	0.000244141	9.628295898	-0.842285156	1.872253418	0.023841859	0.001192093	0.012207032	-0.836669922	0.416503906	0.413330078	895.94	-26.82712796	-77.77535604	-121.1428124	-63
45958	0	0.383156776	-0.03600502	0.074575424	0.999999046	-0.000850677	0.000137329	0.000342369	9.578919411	-0.900125504	1.864385605	-0.042533881	0.006866456	0.017118456	-0.836669922	0.416503906	0.413330078	895.94	-27.02371304	-77.74560394	-121.0424878	-63
45959	0	0.38659668	-0.041442871	0.074279785	0.999999046	-0.000915527	0.000123024	0.000495911	9.664916992	-1.036071777	1.856994629	-0.045776376	0.0061512	0.024795537	-0.836425781	0.414306641	0.410644531	896	-27.30289189	-77.70912469	-120.8658309	-63
45960	0	0.384461403	-0.041171074	0.07612896	0.999999046	-0.000226021	5.91278E-05	0.000518799	9.611535072	-1.029276848	1.903223991	-0.011301041	0.002956391	0.025939943	-0.834228516	0.416503906	0.416259766	895.94	-27.52818445	-77.67762203	-120.6655046	-63
45961	0	0.383361816	-0.038818359	0.07611084	0.999999046	0.000457764	2.00272E-05	0.00056839	9.58404541	-0.970458984	1.902770996	0.022888186	0.001001358	0.028419497	-0.834228516	0.416503906	0.413330078	895.86	-27.70626975	-77.64720858	-120.432977	-63
45962	0	0.384291649	-0.038516998	0.073230743	0.999999046	0.000492096	0.000148773	0.000742912	9.607291222	-0.962924957	1.830768585	0.024604801	0.007438661	0.03714562	-0.836914063	0.421142578	0.413085938	895.94	-27.92821785	-77.59430052	-120.147487	-63
45963	0	0.385131836	-0.037719727	0.074768066	0.999999046	-0.000213623	2.76566E-05	0.000297546	9.628295898	-0.942993164	1.86920166	-0.010681153	0.001382828	0.01487732	-0.834472656	0.420898438	0.412841797	895.9	-28.05381392	-77.57745521	-120.0430101	-63
45964	0	0.384981155	-0.040789604	0.07586956	0.999999046	-0.000260353	-5.34058E-05	9.82285E-05	9.624528885	-1.019740105	1.896739006	-0.013017655	-0.002670288	0.004911423	-0.836669922	0.418701172	0.416015625	895.86	-28.11287302	-77.57944444	-120.0197135	-63
45965	0	0.384277344	-0.040100098	0.077270508	0.999999046	0.000236511	3.52859E-05	-9.53674E-05	9.606933594	-1.002502441	1.931762695	0.011825562	0.001764298	-0.004768372	-0.834472656	0.420898438	0.409912109	895.96	-28.00399427	-77.58277301	-120.0989172	-63
45966	0	0.384279251	-0.040053368	0.074568748	0.999999046	0.00028801	4.57764E-05	-9.25064E-05	9.606981277	-1.00133419	1.864218712	0.014400482	0.002288818	-0.004625321	-0.834228516	0.418701172	0.404296875	895.96	-27.88786943	-77.5848396	-120.1778986	-63
45967	0	0.384094238	-0.039306641	0.076171875	0.999999046	0.00050354	-0.000117302	-6.86646E-05	9.602355957	-0.982666016	1.904296875	0.025177003	-0.005865097	-0.003433228	-0.834228516	0.418701172	0.41015625	895.9	-27.79727425	-77.60205402	-120.2122472	-63
45968	0	0.38558197	-0.0402174	0.074167252	0.999999046	0.000144005	-4.76837E-05	-0.000293732	9.639549255	-1.00543499	1.85418129	0.007200241	-0.002384186	-0.014686585	-0.834228516	0.418701172	0.41015625	896	-27.62689396	-77.62419474	-120.3695677	-63
45969	0	0.386047363	-0.039611816	0.074768066	0.999999046	0.000221252	-4.48227E-05	-0.000305176	9.651184082	-0.99029541	1.86920166	0.011062622	-0.002241135	-0.015258789	-0.836669922	0.418701172	0.407470703	896	-27.4410308	-77.64654188	-120.5310745	-63
45970	0	0.383696556	-0.038796425	0.074139595	0.999999046	5.72205E-06	0.000125885	6.00815E-05	9.592413902	-0.969910622	1.853489876	0.000286102	0.006294251	0.003004074	-0.836669922	0.418701172	0.410400391	896	-27.40796864	-77.63219049	-120.5647614	-63
45971	0	0.384216309	-0.040344238	0.07434082	0.999999046	0.000293732	3.52859E-05	0.000213623	9.605407715	-1.008605957	1.858520508	0.014686585	0.001764298	0.010681153	-0.834228516	0.418701172	0.41015625	896.02	-27.43517713	-77.61892918	-120.5030456	-64
45972	0	0.384681702	-0.040281296	0.075550079	0.999999046	0.000130653	3.05176E-05	0.000128746	9.617042542	-1.007032394	1.888751984	0.006532669	0.001525879	0.006437302	-0.836669922	0.418701172	0.410400391	895.96	-27.44293178	-77.61056716	-120.4821739	-64
45973	0	0.38458252	-0.0390625	0.075622559	0.999999046	0.00031662	0.000164986	0.000270844	9.614562988	-0.9765625	1.890563965	0.015830994	0.008249283	0.013542176	-0.834228516	0.416503906	0.410400391	895.94	-27.46255854	-77.58098778	-120.432008	-64
45974	0	0.381912231	-0.038490295	0.075222015	0.999999046	0.000253677	4.57764E-05	0.000331879	9.547805786	-0.962257385	1.880550385	0.012683869	0.002288818	0.016593934	-0.836669922	0.418701172	0.410400391	895.9	-27.54568359	-77.56026197	-120.3226092	-64
45975	0	0.382263184	-0.037658691	0.073181152	0.999999046	-4.57764E-05	0.000138283	0.000267029	9.55657959	-0.941467285	1.829528809	-0.002288818	0.006914139	0.013351441	-0.836669922	0.420898438	0.407226563	895.9	-27.6105112	-77.53364786	-120.2604787	-63
45976	0	0.383929253	-0.039946556	0.076761246	0.999999046	-0.000576973	-1.52588E-05	-4.76837E-06	9.598231316	-0.998663902	1.919031143	-0.02884865	-0.000762939	-0.000238419	-0.834228516	0.418701172	0.41015625	895.86	-27.6479697	-77.53696859	-120.2932391	-62
45977	0	0.384765625	-0.041748047	0.077331543	0.999999046	-0.000366211	0.000100136	-6.10352E-05	9.619140625	-1.043701172	1.933288574	-0.018310547	0.00500679	-0.003051758	-0.836669922	0.420898438	0.407226563	895.96	-27.60784692	-77.53142237	-120.3734762	-62
45978	0	0.383351326	-0.039804459	0.075974464	0.999999046	0.00015831	0.000242233	0.000263214	9.58378315	-0.995111465	1.89936161	0.007915497	0.012111664	0.013160706	-0.834228516	0.420898438	0.406982422	895.94	-27.62225982	-77.49417244	-120.336603	-62
45979	0	0.382873535	-0.038574219	0.077453613	0.999999046	-4.57764E-05	0.000107765	0.000270844	9.571838379	-0.964355469	1.936340332	-0.002288818	0.00538826	0.013542175	-0.834228516	0.418701172	0.41015625	895.86	-27.695046	-77.47008345	-120.2720091	-63
45980	0	0.383263588	-0.03872776	0.074480057	0.999999046	-0.001162529	0.000118256	0.000212669	9.581589699	-0.968194008	1.862001419	-0.058126463	0.005912782	0.010633471	-0.834472656	0.420898438	0.409912109	895.92	-27.86624506	-77.4480749	-120.23141	-63
45981	0	0.386413574	-0.042724609	0.077941895	0.999999046	-0.000888824	7.34329E-05	6.86646E-05	9.660339355	-1.068115234	1.948547363	-0.044441229	0.003671647	0.003433228	-0.836669922	0.418701172	0.410400391	895.96	-27.95135755	-77.43817635	-120.2503419	-63
45982	0	0.381879807	-0.039741516	0.07774353	0.999999046	-0.000411987	0.0001297	0	9.546995163	-0.993537903	1.943588257	-0.020599366	0.006484986	0	-0.834228516	0.416503906	0.407470703	895.94	-27.93667951	-77.42617026	-120.3145254	-63
45983	0	0.381469727	-0.042480469	0.075195313	0.999999046	-0.000366211	0.000195503	0.000289917	9.536743164	-1.062011719	1.879882813	-0.018310548	0.009775162	0.01449585	-0.836425781	0.416503906	0.407470703	895.9	-28.03279463	-77.39187493	-120.2609107	-63
45984	0	0.385626793	-0.042028427	0.076413155	0.999999046	-5.05447E-05	1.33514E-05	0.000144005	9.640669823	-1.050710678	1.910328865	-0.002527237	0.000667572	0.007200241	-0.836669922	0.418701172	0.407470703	896	-28.07056802	-77.38381506	-120.2262903	-62
45985	0	0.38494873	-0.04083252	0.076904297	0.999999046	0.000167847	0.000157356	-2.28882E-05	9.623718262	-1.020812988	1.922607422	0.008392334	0.007867813	-0.001144409	-0.838867188	0.416503906	0.407714844	895.94	-27.97316291	-77.37014228	-120.3100831	-63
45986	0	0.379676819	-0.039019585	0.078195572	0.999999046	-0.000171661	0.000425339	-0.000180244	9.491920471	-0.975489616	1.954889297	-0.008583069	0.021266938	-0.009012223	-0.836669922	0.418701172	0.404541016	896	-27.77932917	-77.33760791	-120.5237323	-63
45987	0	0.382019043	-0.04095459	0.076477051	0.999999046	-0.001132965	7.72476E-05	0.000511169	9.550476074	-1.023864746	1.91192627	-0.056648269	0.003862382	0.025558478	-0.838867188	0.416503906	0.410644531	895.94	-28.09033195	-77.30321737	-120.3431765	-63
45988	0	0.38666153	-0.04378891	0.079366684	0.999999046	-0.00086689	-5.72205E-06	0.000433922	9.666538239	-1.094722748	1.984167099	-0.043344504	-0.000286102	0.021696094	-0.836669922	0.418701172	0.413085938	896	-28.3552296	-77.28103397	-120.1753716	-63
45989	0	0.384216309	-0.044372559	0.079406738	0.999999046	0.000904083	-0.000224113	-8.39233E-05	9.605407715	-1.109313965	1.985168457	0.045204169	-0.011205675	-0.004196168	-0.836669922	0.416503906	0.410400391	896	-28.23817945	-77.30877973	-120.1936766	-63
45990	0	0.382913589	-0.038982391	0.076252937	0.999998093	0.001513481	-0.000220299	-9.25064E-05	9.572839737	-0.974559784	1.906323433	0.075674087	-0.011014943	-0.004625322	-0.834228516	0.416503906	0.407470703	895.86	-28.04564403	-77.33664641	-120.216443	-63
45991	0	0.383666992	-0.036193848	0.074707031	0.999999046	0.000152588	-0.000342369	-0.000114441	9.591674805	-0.904846191	1.867675781	0.007629395	-0.017118454	-0.005722046	-0.834228516	0.418701172	0.404296875	896	-28.02735591	-77.37821496	-120.2123715	-62
45992	0	0.38348484	-0.040233612	0.077201843	0.999998093	-0.001554489	-4.673E-05	-0.000133514	9.58712101	-1.005840302	1.930046082	-0.077724488	-0.002336503	-0.006675723	-0.836425781	0.416503906	0.407470703	895.86	-28.12470917	-77.39088267	-120.294186	-62
45993	0	0.386413574	-0.047241211	0.078796387	0.999999046	-0.001148224	6.96182E-05	-3.43323E-05	9.660339355	-1.181030273	1.969909668	-0.057411207	0.003480912	-0.001716614	-0.836425781	0.414306641	0.407714844	895.96	-28.19322897	-77.38621811	-120.359303	-62
45994	0	0.384390831	-0.0445261	0.078197479	0.999999046	0.000705719	-5.72205E-05	-0.000496864	9.609770775	-1.113152504	1.954936981	0.035285954	-0.002861023	-0.024843219	-0.836669922	0.416503906	0.410400391	895.94	-27.87094669	-77.41909146	-120.605749	-62
45995	0	0.382507324	-0.040893555	0.077270508	0.999998093	0.001542091	-0.000148773	-0.000354767	9.562683105	-1.022338867	1.931762695	0.077104601	-0.007438663	-0.01773835	-0.836669922	0.416503906	0.410400391	895.94	-27.53777912	-77.45329568	-120.7672259	-62
45996	0	0.384633064	-0.039901733	0.074959755	0.999998093	0.001625061	-0.000197411	-0.000205994	9.615826607	-0.997543335	1.873993874	0.081253089	-0.009870534	-0.010299687	-0.838867188	0.416503906	0.404785156	895.96	-27.27356511	-77.48447769	-120.8460109	-62
45997	0	0.38494873	-0.036987305	0.075500488	0.999999046	0.000747681	-0.000132561	4.19617E-05	9.623718262	-0.924682617	1.887512207	0.037384037	-0.006628037	0.002098084	-0.836669922	0.416503906	0.410400391	896	-27.20735673	-77.49609172	-120.8315311	-62
45998	0	0.383011818	-0.039045334	0.074052811	0.999999046	0.000133514	-0.0001297	0.000179291	9.575295448	-0.976133347	1.851320267	0.00667572	-0.006484985	0.008964539	-0.838867188	0.416503906	0.404785156	895.96	-27.27407847	-77.50029938	-120.7484347	-63
45999	0	0.381469727	-0.035888672	0.075439453	0.999999046	0.000244141	-0.00014019	0.000228882	9.536743164	-0.897216797	1.885986328	0.012207032	-0.007009506	0.011444092	-0.836669922	0.420898438	0.407226563	895.94	-27.35272426	-77.50302401	-120.6347398	-64
46000	0	0.38666153	-0.036640167	0.074554443	0.999999046	-0.001120567	-3.43323E-05	0.000255585	9.666538239	-0.916004181	1.863861084	-0.056028378	-0.001716614	0.012779239	-0.836425781	0.416503906	0.407470703	895.92	-27.57430521	-77.49366936	-120.541107	-64
46001	0	0.383422852	-0.045837402	0.074645996	0.999999046	-0.000988007	8.86917E-05	-1.52588E-05	9.585571289	-1.145935059	1.866149902	-0.049400338	0.004434586	-0.00076294	-0.836669922	0.418701172	0.407470703	895.86	-27.62851071	-77.48605935	-120.597018	-64
46002	0	0.384631157	-0.041706085	0.077072144	0.999999046	0.000272751	5.72205E-06	0.000385284	9.615778923	-1.04265213	1.926803589	0.013637543	0.000286102	0.019264222	-0.836669922	0.416503906	0.413330078	896	-27.74131179	-77.46547482	-120.4569651	-65
46003	0	0.38482666	-0.037902832	0.075378418	0.999999046	0.001110077	-0.000102043	0.000259399	9.620666504	-0.947570801	1.884460449	0.055503857	-0.005102159	0.012969974	-0.836669922	0.418701172	0.404541016	895.9	-27.72591202	-77.46259018	-120.339768	-65
46004	0	0.384455681	-0.037085533	0.073489189	0.999999046	0.000300407	7.43866E-05	-0.000256538	9.611392021	-0.927138329	1.837229729	0.015020371	0.00371933	-0.01282692	-0.838867188	0.416503906	0.404785156	895.92	-27.52513845	-77.46943142	-120.5124926	-65
46005	0	0.386901855	-0.03704834	0.073730469	0.999999046	-0.000774384	7.72476E-05	0.000125885	9.672546387	-0.926208496	1.843261719	-0.038719181	0.003862381	0.006294251	-0.836669922	0.418701172	0.404541016	895.96	-27.62118922	-77.45585293	-120.5006308	-65
46006	0	0.383766174	-0.040927887	0.07750988	0.999999046	-0.001094818	0.000213623	-0.000289917	9.594154358	-1.023197174	1.937747002	-0.054740918	0.010681155	-0.014495853	-0.838867188	0.418701172	0.404541016	895.94	-27.53169345	-77.45038143	-120.7139913	-65
46007	0	0.3828125	-0.040405273	0.076782227	0.999999046	-0.000747681	0.000161171	1.52588E-05	9.5703125	-1.010131836	1.919555664	-0.037384037	0.008058549	0.00076294	-0.836669922	0.416503906	0.413330078	895.96	-27.55432412	-77.43397933	-120.7825485	-65
46008	0	0.385349274	-0.042853355	0.078062057	0.999999046	-8.86917E-05	-7.43866E-05	0.000250816	9.633731842	-1.071333885	1.951551437	-0.004434586	-0.00371933	0.012540817	-0.838867188	0.414306641	0.405029297	895.9	-27.66518567	-77.42886621	-120.6799422	-64
46009	0	0.388183594	-0.039733887	0.076293945	0.999999046	0.001190186	-3.71933E-05	0.000354767	9.704589844	-0.993347168	1.907348633	0.059509293	-0.001859665	0.017738347	-0.841308594	0.414550781	0.407958984	895.9	-27.66767709	-77.41447266	-120.5455759	-64
46010	0	0.387125969	-0.035256386	0.073478699	0.999999046	0.000488281	6.86646E-05	0.000315666	9.678149223	-0.881409645	1.836967468	0.024414064	0.003433228	0.015783311	-0.836425781	0.416503906	0.404785156	895.96	-27.70664901	-77.39167318	-120.4493332	-63
46011	0	0.385864258	-0.037597656	0.07232666	0.999999046	-0.000137329	8.58307E-06	0.000404358	9.646606445	-0.939941406	1.808166504	-0.006866455	0.000429153	0.020217896	-0.836669922	0.418701172	0.410400391	895.96	-27.8713344	-77.37043922	-120.3005101	-63
46012	0	0.384550095	-0.038600922	0.074458122	0.999999046	0.000639915	-0.000123978	0.000525475	9.613752365	-0.965023041	1.861453056	0.031995777	-0.006198884	0.02627373	-0.836669922	0.416503906	0.410400391	895.96	-28.03270779	-77.3561449	-120.0707052	-61
46013	0	0.384094238	-0.035583496	0.071899414	0.999997139	0.002223969	-0.000365257	0.000328064	9.602355957	-0.889587402	1.797485352	0.111198521	-0.018262879	0.016403212	-0.836669922	0.418701172	0.407470703	896	-27.98078761	-77.37713161	-119.8717877	-62
46014	0	0.38619709	-0.034432411	0.068840027	0.999994278	0.002978325	-0.000855446	1.90735E-05	9.654927254	-0.86081028	1.721000671	0.148916483	-0.042772362	0.000953676	-0.834472656	0.420898438	0.409912109	895.86	-27.82023713	-77.46487703	-119.6988531	-63
46015	0	0.389526367	-0.032287598	0.066650391	0.999996185	0.002411842	-0.001056671	-0.000228882	9.73815918	-0.807189941	1.666259766	0.120592258	-0.052833619	-0.011444105	-0.834472656	0.425292969	0.403808594	895.94	-27.65926631	-77.58697089	-119.5812824	-63
46016	0	0.387672424	-0.035749435	0.067774773	0.999983788	0.005421638	-0.00160408	0.000677109	9.691810608	-0.893735886	1.694369316	0.271083389	-0.080204443	0.033855621	-0.834716797	0.427490234	0.406494141	895.96	-27.70720478	-77.71680356	-118.9085288	-63
46017	0	0.384094238	-0.023864746	0.067932129	0.999991417	0.003746033	-0.001692772	-0.000488281	9.602355957	-0.596618652	1.698303223	0.187302171	-0.084638837	-0.024414132	-0.832275391	0.431884766	0.403076172	895.9	-27.42624961	-77.91831027	-118.7606419	-63
46018	0	0.383195877	-0.030179977	0.068022728	0.999975204	0.006611824	-0.002371788	0.000325203	9.579896927	-0.754499435	1.700568199	0.330593926	-0.118590379	0.016260281	-0.832275391	0.434082031	0.400146484	895.86	-27.37526732	-78.14642138	-118.0478294	-63
46019	0	0.384399414	-0.023681641	0.067443848	0.999965668	0.007874489	-0.002235413	0.000118256	9.609985352	-0.592041016	1.686096191	0.393728839	-0.111771878	0.005912847	-0.830078125	0.440673828	0.393554688	895.9	-27.05192532	-78.3723987	-117.4611123	-63
46020	0	0.38615036	-0.0216465	0.064600945	0.99996376	0.008243561	-0.00206852	0.000447273	9.653759003	-0.541162491	1.615023613	0.412183016	-0.103427228	0.022363933	-0.827880859	0.445068359	0.393066406	895.96	-26.8117333	-78.56537592	-116.755294	-63
46021	0	0.381530762	-0.020874023	0.057434082	0.999960899	0.008403778	-0.001948357	0.001529694	9.538269043	-0.521850586	1.435852051	0.42019428	-0.097419078	0.076485659	-0.825927734	0.453857422	0.392333984	895.96	-27.08092823	-78.69059348	-115.516269	-64
46022	0	0.385099411	-0.018473625	0.052577972	0.999958992	0.008543015	-0.001691818	0.00225544	9.627485275	-0.46184063	1.31444931	0.427156488	-0.084592053	0.112773509	-0.823730469	0.462646484	0.385498047	895.9	-27.6504327	-78.7506662	-113.9553301	-65
46023	0	0.379394531	-0.02166748	0.047668457	0.999974251	0.006053925	-0.00159359	0.003292084	9.484863281	-0.541687012	1.191711426	0.302698752	-0.079680154	0.164605559	-0.819580078	0.475830078	0.378417969	896	-29.0122421	-78.74029016	-111.8663553	-65
46024	0	0.370857239	-0.029338837	0.041579247	0.999973297	0.005292892	-0.001488686	0.004749298	9.271430969	-0.733470917	1.039481163	0.264646951	-0.074434935	0.237466994	-0.815185547	0.484619141	0.377441406	895.94	-31.14125566	-78.62436156	-109.090764	-66
46025	0	0.365234375	-0.025817871	0.037414551	0.999966621	0.00567627	-0.00146389	0.005577087	9.130859375	-0.645446777	0.93536377	0.283816573	-0.073195302	0.278857413	-0.808349609	0.497802734	0.373046875	896	-33.55331673	-78.43488196	-105.9779915	-64
46026	0	0.353240967	-0.024718285	0.035052299	0.999972343	0.004018784	-0.001117706	0.006126404	8.83102417	-0.617957115	0.876307487	0.200941018	-0.055885827	0.306322995	-0.804199219	0.513183594	0.371582031	895.9	-36.18944793	-78.1509149	-102.8252919	-62
46027	0	0.33581543	-0.029541016	0.033752441	0.999973297	0.003090858	-0.001159668	0.006385803	8.395385742	-0.738525391	0.843811035	0.154544254	-0.057983898	0.319292911	-0.795410156	0.528564453	0.372802734	895.86	-38.91141802	-77.82399505	-99.68774943	-60
46028	0	0.314538002	-0.030172348	0.034478188	0.999959946	0.006414413	-0.000681877	0.006193161	7.86345005	-0.754308701	0.861954689	0.320724947	-0.034094311	0.309662178	-0.786132813	0.536865234	0.362792969	895.86	-40.86224257	-77.4436522	-96.9483604	-59
46029	0	0.270751953	-0.010192871	0.033447266	0.999948502	0.008004189	0.000106812	0.006099701	6.768798828	-0.254821777	0.836181641	0.400216183	0.005340666	0.304990195	-0.782226563	0.556884766	0.360839844	895.92	-42.18933957	-76.98718748	-94.66016641	-59
46030	0	0.236304283	0.012645721	0.039624214	0.999968529	-0.001594543	0.001441956	0.007511139	5.907607079	0.316143036	0.990605354	-0.079727984	0.072098512	0.375560767	-0.773193359	0.572021484	0.353271484	895.86	-44.50018694	-76.29385518	-92.46653563	-57
46031	0	0.194641113	-0.015686035	0.032043457	0.999904633	-0.009688377	0.002944946	0.009296417	4.866027832	-0.392150879	0.801086426	-0.484434126	0.147251952	0.464835502	-0.764160156	0.583007813	0.352050781	895.86	-47.54693472	-75.31117662	-90.44447774	-57
46032	0	0.142738342	-0.020251274	0.038690567	0.999874115	-0.008760452	0.00411129	0.012547493	3.568458557	-0.506281853	0.967264175	-0.438040946	0.205573102	0.627400906	-0.750244141	0.591308594	0.359130859	895.96	-50.65427325	-73.93391183	-88.24843107	-60
46033	0	0.14831543	-0.041320801	0.060058594	0.999848366	-0.001773834	0.00621891	0.016139984	3.707885742	-1.03302002	1.501464844	-0.088696181	0.310961181	0.807039874	-0.736816406	0.608886719	0.371582031	895.96	-52.75371872	-72.05732273	-86.29091819	-60
46034	0	0.208255768	-0.031460762	0.050900459	0.999811172	0.000678062	0.006688118	0.018213272	5.206394196	-0.786519051	1.272511482	0.033905252	0.33442691	0.910720821	-0.716552734	0.639160156	0.353271484	895.96	-54.45909953	-69.93962672	-84.40948101	-57
46035	0	0.199829102	-0.055297852	0.090515137	0.999631882	0.018036842	0.006938934	0.019001007	4.995727539	-1.382446289	2.262878418	0.901952557	0.346989203	0.950166697	-0.69140625	0.671630859	0.340576172	895.96	-53.98970981	-67.72398542	-82.74542479	-54
46036	0	0.212369919	-0.07704258	0.082747459	0.998758316	0.045999527	0.007517815	0.017570496	5.309247971	-1.926064491	2.068686485	2.300928528	0.376046349	0.878888485	-0.666259766	0.715087891	0.294921875	895.86	-49.99378176	-65.6213278	-81.47590624	-54
46037	0	0.269836426	-0.117980957	0.044555664	0.996306419	0.084579468	0.011647224	0.009124756	6.745910645	-2.949523926	1.113891602	4.23418713	0.583079192	0.456800271	-0.635986328	0.769042969	0.201660156	896	-39.84307574	-63.9513721	-82.17817989	-48
46038	0	0.307619095	-0.044758797	0.013002396	0.993375778	0.11301899	0.018206596	-0.009950638	7.690477371	-1.118969917	0.325059891	5.663459609	0.912345116	-0.498633332	-0.631591797	0.80078125	0.021728516	896	-22.74096154	-62.77620845	-86.98344981	-51
46039	0	0.40234375	-0.00793457	0.10736084	0.995279312	0.088036537	0.026412964	-0.031139374	10.05859375	-0.198364258	2.684020996	4.408765513	1.322729948	-1.559422958	-0.650146484	0.766601563	-0.188964844	895.96	-4.80930951	-60.69760094	-95.87289666	-56
46040	0	1.852454185	-0.390514374	1.298540115	0.988286972	-0.092824936	0.115998268	-0.034864426	46.31135464	-9.762859344	32.46350288	-4.659452143	5.822663637	-1.75005909	-0.680664063	0.697509766	-0.320800781	895.92	-7.914476548	-47.86403541	-105.1354354	-61
46041	0	0.745483398	-0.275817871	-0.026123047	0.994443893	0.034584999	0.099258423	-0.005638123	18.63708496	-6.895446777	-0.653076172	1.732459373	4.972132125	-0.282429334	-0.635253906	0.717773438	-0.371337891	896	-2.43215956	-36.60314145	-107.4254912	-68
46042	0	0.178534508	0.340242386	0.449782372	0.999475479	-0.021313667	0.012629509	0.020845413	4.463362694	8.506059647	11.24455929	-1.065869647	0.631585831	1.04245285	-0.565673828	0.669677734	-0.548095703	896.08	-6.512226209	-34.99628168	-104.6016859	-64
46043	0	0.071472168	-0.063171387	0.606262207	0.997911453	-0.044882774	-0.025173187	0.039039612	1.786804199	-1.579284668	15.15655518	-2.245702171	-1.259536249	1.953340502	-0.528076172	0.755859375	-0.461669922	896.06	-15.25490889	-36.9954233	-98.49268168	-57
46044	0	0.118737221	0.008917809	0.414453506	0.998939514	-0.035989761	-0.022507668	0.017795563	2.968430519	0.222945213	10.36133766	-1.800124055	-1.125781118	0.890092609	-0.494384766	0.82421875	-0.382324219	896.06	-21.51563919	-38.80237657	-95.01223614	-54
46045	0	0.139587402	-0.028442383	0.244018555	0.998096466	-0.059973717	-0.013233185	0.005504608	3.489685059	-0.71105957	6.100463867	-3.000589395	-0.66207926	0.275405123	-0.490966797	0.864990234	-0.275634766	896.02	-29.38347888	-39.9015642	-93.443225	-52
46046	0	-0.027190208	-0.21221447	0.215044022	0.999829292	0.016599655	0.005104065	-0.006188393	-0.679755211	-5.305361748	5.37610054	0.830029783	0.255217706	-0.309437163	-0.486328125	0.887939453	-0.190673828	896.06	-26.72482602	-39.7096844	-94.6321771	-52
46047	0	0.043701172	-0.060546875	0.275695801	0.999497414	-0.013938904	0.011712074	-0.025939941	1.092529297	-1.513671875	6.89239502	-0.697061906	0.585701783	-1.297214274	-0.505859375	0.865966797	-0.242919922	896	-25.60081334	-39.79922256	-98.8823954	-52
46048	0	0.157107353	-0.167874336	0.315705299	0.997091293	-0.070510864	0.014624596	-0.024945259	3.92768383	-4.196858406	7.892632484	-3.528964846	0.73193946	-1.248473456	-0.549072266	0.852050781	-0.190185547	896	-30.93175444	-39.65528589	-103.1948178	-55
46049	0	0.244140625	-0.324523926	0.205383301	0.997955322	-0.061617851	0.009838104	-0.013835907	6.103515625	-8.113098145	5.13458252	-3.082993992	0.492240733	-0.692267212	-0.581542969	0.843017578	-0.0859375	895.94	-36.39580757	-39.57421096	-105.7212465	-56
46050	0	0.289245605	-0.295790672	0.2622118	0.999209404	-0.039718628	-0.000452042	-0.001420975	7.231140137	-7.394766808	6.555294991	-1.986454662	-0.022608037	-0.071067457	-0.599609375	0.835205078	0.005615234	896	-40.88330754	-39.69508397	-105.8488409	-58
46051	0	0.333190918	-0.237731934	0.311462402	0.999970436	-0.005077362	-0.005465508	0.001480103	8.329772949	-5.94329834	7.786560059	-0.25387055	-0.27327801	0.07400584	-0.597900391	0.829101563	0.061035156	896.08	-41.92863146	-40.03270782	-105.1542349	-58
46052	0	0.305625916	-0.133421898	0.2754879	0.999745369	0.020800591	-0.008659363	0.000109673	7.640647888	-3.335547447	6.887197495	1.040117543	-0.433004782	0.005484091	-0.593261719	0.833251953	0.057617188	896.02	-40.1119574	-40.75592077	-104.3021972	-57
46053	0	0.264221191	-0.059753418	0.200012207	0.99973011	0.020401001	-0.010157585	-0.004421234	6.605529785	-1.493835449	5.000305176	1.020141693	-0.507924886	-0.221081567	-0.595214844	0.833007813	0.031738281	896	-38.07251691	-41.9656467	-103.8646311	-57
46054	0	0.29739666	-0.113587379	0.177734375	0.999896049	0.008565903	-0.011487961	0.000936508	7.434916496	-2.839684486	4.443359375	0.428309858	-0.574417785	0.046827019	-0.601806641	0.828857422	0.014892578	896	-37.90605154	-42.92835455	-102.6697105	-56
46055	0	0.289428711	-0.129882813	0.210083008	0.999959946	-0.000964165	-0.006984711	0.005489349	7.235717773	-3.247070313	5.252075195	-0.048208878	-0.349240183	0.274471121	-0.597167969	0.830810547	0.017333984	896.02	-38.9357708	-43.15839339	-101.3341044	-57
46056	0	0.281669617	-0.164511681	0.212677956	0.999873161	-0.013161659	0.001367569	0.008768082	7.041740417	-4.112792015	5.316948891	-0.658110602	0.06838132	0.438422497	-0.583496094	0.839355469	0.033447266	895.96	-41.05704002	-42.38795803	-100.4411147	-57
46057	0	0.269165039	-0.192626953	0.201660156	0.999698639	-0.021830559	0.007061005	0.008686066	6.729125977	-4.815673828	5.041503906	-1.091637463	0.353085657	0.434346862	-0.570068359	0.850341797	0.060791016	896.06	-43.72356427	-41.1158397	-100.2029458	-57
46058	0	0.263249397	-0.229898453	0.206245422	0.999663353	-0.022825241	0.010177612	0.006840706	6.581234932	-5.747461319	5.156135559	-1.141389795	0.508937574	0.342073577	-0.556640625	0.856689453	0.091308594	895.96	-46.10838623	-39.73330518	-100.5685087	-58
46059	0	0.250305176	-0.251037598	0.218322754	0.999752045	-0.018801689	0.011058807	0.00428772	6.257629395	-6.275939941	5.458068848	-0.940161904	0.552985921	0.214403648	-0.550048828	0.856689453	0.1171875	896.02	-47.78192135	-38.50540827	-101.3416769	-58
46060	0	0.231489182	-0.258419037	0.223216057	0.999876976	-0.01198101	0.00989151	0.001854897	5.787229538	-6.460475922	5.580401421	-0.599074969	0.494595684	0.092748612	-0.545654297	0.858886719	0.128173828	896.12	-48.60459644	-37.58644689	-102.2441143	-58
46061	0	0.217956543	-0.249328613	0.218933105	0.999973297	-0.004572868	0.005653381	0.000579834	5.448913574	-6.233215332	5.473327637	-0.228645445	0.282671574	0.028991956	-0.545654297	0.856689453	0.134277344	895.96	-48.79101834	-37.10287913	-102.8109283	-58
46062	0	0.218623161	-0.233586311	0.219659805	0.999998093	0.001393318	-0.001112938	0.000436783	5.465579033	-5.839657784	5.491495132	0.069665948	-0.055646928	0.021839154	-0.545654297	0.858886719	0.139892578	896.08	-48.72851834	-37.14258894	-102.6600659	-58
46063	0	0.236022949	-0.229064941	0.212219238	0.999964714	0.005393982	-0.006278038	0.000865936	5.90057373	-5.726623535	5.305480957	0.26970221	-0.313905525	0.043297314	-0.543212891	0.858886719	0.136962891	896.02	-48.57130098	-37.53692696	-101.9100125	-58
46064	0	0.251506805	-0.230700493	0.205102921	0.999951363	0.005997658	-0.007543564	0.001631737	6.287670135	-5.767512321	5.127573013	0.299887664	-0.377184198	0.081588137	-0.541015625	0.861083984	0.133544922	896.06	-48.47989908	-37.96372118	-100.9467615	-58
46065	0	0.25	-0.231933594	0.202270508	0.999970436	0.004520416	-0.005862236	0.001964569	6.25	-5.798339844	5.056762695	0.226023023	-0.293114667	0.098229415	-0.533935547	0.863037109	0.130126953	896	-48.47165724	-38.23554818	-100.1295882	-57
46066	0	0.245810509	-0.233408928	0.199556351	0.999991417	0.002155304	-0.002973557	0.00169754	6.145262718	-5.835223198	4.988908768	0.107765492	-0.148678232	0.084877246	-0.531738281	0.869628906	0.132324219	895.9	-48.52630489	-38.31108012	-99.65147443	-57
46067	0	0.245544434	-0.232055664	0.198974609	0.999998093	6.96182E-05	-0.000408173	0.001506805	6.13861084	-5.801391602	4.974365234	0.003480913	-0.020408639	0.075340302	-0.526855469	0.869384766	0.129150391	896	-48.63488633	-38.20837907	-99.47132205	-57
46068	0	0.245503426	-0.230998993	0.203138351	0.999996185	-0.001832962	0.001574516	0.001102448	6.13758564	-5.774974823	5.078458786	-0.09164821	0.078725907	0.05512244	-0.527099609	0.871582031	0.134765625	895.96	-48.80280868	-37.99061985	-99.54832101	-58
46069	0	0.245361328	-0.236450195	0.208068848	0.999991417	-0.002960205	0.002560616	0.000606537	6.134033203	-5.911254883	5.201721191	-0.148010641	0.128031112	0.030326923	-0.524658203	0.871582031	0.131835938	896.08	-49.00448171	-37.74179464	-99.7795331	-57
46070	0	0.241568565	-0.237852097	0.207660675	0.999993324	-0.002567291	0.002311707	0.000305176	6.039214134	-5.946302414	5.191516876	-0.12836482	0.115585559	0.01525882	-0.527099609	0.871582031	0.134765625	896	-49.16085798	-37.53841821	-100.013123	-57
46071	0	0.238464355	-0.23815918	0.207458496	0.999998093	-0.001162529	0.000965118	0.000431061	5.961608887	-5.953979492	5.186462402	-0.058126474	0.04825594	0.021553048	-0.524658203	0.869384766	0.137939453	896.02	-49.25348915	-37.42537608	-100.0877516	-58
46072	0	0.239320755	-0.238424301	0.208709717	0.999999046	1.43051E-05	-0.000310898	0.000300407	5.983018875	-5.960607529	5.21774292	0.000715256	-0.015544892	0.015020371	-0.524902344	0.871582031	0.140625	896	-49.288414	-37.41923255	-100.0354202	-58
46073	0	0.239379883	-0.238464355	0.205078125	0.999998093	0.00098896	-0.000961304	0.00018692	5.98449707	-5.961608887	5.126953125	0.049448029	-0.048065201	0.009346011	-0.522460938	0.869384766	0.140625	895.96	-49.2484166	-37.4717329	-99.92259895	-58
46074	0	0.241271019	-0.239919662	0.20502758	0.999998093	0.001231194	-0.000832558	1.43051E-05	6.031775475	-5.997991562	5.125689507	0.0615597	-0.041627899	0.000715256	-0.522460938	0.873779297	0.134521484	896.02	-49.1623298	-37.52984372	-99.83847803	-58
46075	0	0.239257813	-0.236938477	0.20489502	0.999999046	0.001209259	-0.000464439	-0.000137329	5.981445313	-5.923461914	5.122375488	0.060462969	-0.023221976	-0.006866457	-0.524902344	0.871582031	0.140625	895.96	-49.04546735	-37.57372944	-99.81153803	-58
46076	0	0.241282463	-0.234363556	0.204688072	0.999999046	0.000418663	-9.34601E-05	-0.000210762	6.032061577	-5.859088898	5.117201805	0.020933152	-0.004673004	-0.010538102	-0.522460938	0.871582031	0.137451172	896.02	-48.99015135	-37.59639073	-99.83061746	-58
46077	0	0.24230957	-0.234680176	0.205383301	0.999999046	0.000125885	0.00024128	-0.000118256	6.057739258	-5.867004395	5.13458252	0.006294251	0.01206398	-0.005912781	-0.522460938	0.871582031	0.134521484	896.02	-48.95138259	-37.58613626	-99.87697176	-58
46078	0	0.24177742	-0.234693527	0.20610714	0.999999046	0.000228882	0.000175476	-0.000175476	6.044435501	-5.867338181	5.15267849	0.011444092	0.008773804	-0.008773804	-0.524658203	0.871582031	0.131835938	896.02	-48.90179518	-37.58598377	-99.92196181	-58
46079	0	0.241882324	-0.23638916	0.204467773	0.999999046	0.000766754	-8.29697E-05	-0.000202179	6.047058105	-5.909729004	5.111694336	0.038337712	-0.004148484	-0.010108949	-0.524658203	0.871582031	0.134765625	895.92	-48.80626131	-37.60780155	-99.94177332	-58
46080	0	0.241828918	-0.235118866	0.207716942	0.999999046	0.000844002	-0.000205994	-0.000141144	6.045722961	-5.877971649	5.192923546	0.042200094	-0.010299684	-0.007057191	-0.522216797	0.871337891	0.12890625	896.06	-48.71346443	-37.63380138	-99.94079626	-57
46081	0	0.240722656	-0.234313965	0.205688477	0.999999046	0.000667572	-0.000136375	-0.000171661	6.018066406	-5.857849121	5.142211914	0.033378604	-0.006818772	-0.00858307	-0.524658203	0.871582031	0.131835938	896.08	-48.63444036	-37.65733308	-99.95180688	-58
46082	0	0.239943504	-0.23426342	0.205508232	0.999999046	0.000455856	6.67572E-05	-0.000214577	5.998587608	-5.856585503	5.137705803	0.022792817	0.00333786	-0.010728837	-0.527099609	0.871582031	0.132080078	896.02	-48.56369036	-37.66928362	-99.98990298	-58
46083	0	0.240661621	-0.232849121	0.206237793	0.999999046	0.000232697	0.000245094	-0.000137329	6.016540527	-5.821228027	5.155944824	0.011634827	0.012254715	-0.006866455	-0.527099609	0.871582031	0.132080078	896	-48.51116921	-37.66121235	-100.0398227	-58
46084	0	0.242758751	-0.233295441	0.20957756	0.999999046	0.000294685	0.000205994	-0.00012207	6.068968773	-5.832386017	5.239439011	0.014734269	0.010299683	-0.006103516	-0.524658203	0.873779297	0.123046875	896	-48.45489785	-37.65494398	-100.0809556	-58
46085	0	0.242370605	-0.233398438	0.207214355	0.999999046	0.000240326	3.52859E-05	-0.000301361	6.059265137	-5.834960938	5.180358887	0.012016297	0.001764298	-0.015068055	-0.527099609	0.871582031	0.129150391	896.06	-48.40560038	-37.67719967	-100.1233384	-58
46086	0	0.241826057	-0.234863281	0.205756187	0.999999046	0.000514984	0	-0.000453949	6.045651436	-5.871582031	5.143904686	0.025749209	0	-0.022697451	-0.526855469	0.869384766	0.126464844	896	-48.31827243	-37.71533672	-100.1762805	-58
46087	0	0.240539551	-0.233337402	0.207824707	0.999999046	0.00112915	-0.00014782	-0.00056839	6.01348877	-5.833435059	5.195617676	0.056457535	-0.007390978	-0.028419502	-0.526855469	0.869384766	0.126464844	895.96	-48.16346076	-37.77453907	-100.2242037	-58
46088	0	0.241902351	-0.230817795	0.210594177	0.999999046	0.000557899	-0.000173569	-0.000556946	6.047558784	-5.77044487	5.264854431	0.027894977	-0.008678437	-0.027847293	-0.529296875	0.869384766	0.123535156	896.02	-48.07613851	-37.83477697	-100.26867	-58
46089	0	0.245544434	-0.23059082	0.209228516	0.999999046	0.000255585	9.63211E-05	-0.000419617	6.13861084	-5.764770508	5.230712891	0.012779236	0.004816055	-0.020980836	-0.529296875	0.869384766	0.123535156	896.06	-48.01355988	-37.86286729	-100.3287443	-58
46090	0	0.242768288	-0.230463982	0.20835495	0.999999046	0.000835419	6.48499E-05	-0.000389099	6.069207191	-5.761599541	5.208873749	0.041770941	0.003242493	-0.019454959	-0.531738281	0.869384766	0.123779297	896.02	-47.88832583	-37.89086792	-100.3835579	-58
46091	0	0.242370605	-0.231872559	0.211120605	0.999999046	0.00082016	-0.000170708	-0.000442505	6.059265137	-5.796813965	5.278015137	0.041008002	-0.008535386	-0.022125247	-0.531494141	0.869384766	0.120849609	895.9	-47.77706623	-37.94148658	-100.4174675	-58
46092	0	0.241244316	-0.231556892	0.211722374	0.999999046	0.001030922	-0.000303268	-0.00075531	6.031107903	-5.78892231	5.293059349	0.051546112	-0.015163426	-0.037765514	-0.533935547	0.867431641	0.12109375	895.96	-47.63137654	-38.02876098	-100.4691952	-58
46093	0	0.242980957	-0.230773926	0.206604004	0.999999046	0.000972748	-0.000430107	-0.000587463	6.074523926	-5.769348145	5.165100098	0.048637402	-0.021505361	-0.029373176	-0.536132813	0.867431641	0.118408203	896	-47.51085551	-38.11169686	-100.4910943	-58
46094	0	0.245992661	-0.228554726	0.208362579	0.999999046	0.000440598	-0.000108719	-0.000466347	6.149816513	-5.713868141	5.209064484	0.022029878	-0.005435944	-0.023317339	-0.536376953	0.869628906	0.118164063	896.06	-47.43728212	-38.15973038	-100.5346467	-58
46095	0	0.247131348	-0.228271484	0.211608887	0.999999046	-6.86646E-05	0.000222206	-0.000511169	6.178283691	-5.706787109	5.290222168	-0.003433228	0.011110306	-0.025558473	-0.536132813	0.867431641	0.121337891	896.02	-47.39721959	-38.18605889	-100.6188257	-58
46096	0	0.242815018	-0.227442741	0.209731102	0.999999046	0.000197411	0.000358582	-0.000320435	6.070375443	-5.686068535	5.24327755	0.00987053	0.017929078	-0.016021729	-0.536132813	0.867431641	0.118408203	896.02	-47.32921033	-38.18574022	-100.697941	-58
46097	0	0.242797852	-0.228515625	0.213195801	0.999999046	0	0.000119209	-0.000255585	6.069946289	-5.712890625	5.32989502	0	0.005960465	-0.012779236	-0.538330078	0.865234375	0.115722656	896.02	-47.30352402	-38.19848189	-100.7459764	-58
46098	0	0.245551109	-0.229916573	0.210018158	0.999999046	0.000244141	4.95911E-05	-0.000232697	6.138777733	-5.747914314	5.250453949	0.012207031	0.002479553	-0.011634827	-0.535888672	0.865234375	0.112792969	895.94	-47.2559692	-38.21480448	-100.7822157	-58
46099	0	0.243530273	-0.226989746	0.21081543	0.999999046	0.000434875	8.58307E-06	-4.57764E-05	6.088256836	-5.674743652	5.270385742	0.021743775	0.000429153	-0.002288818	-0.538574219	0.865234375	0.118652344	896	-47.20065618	-38.21864808	-100.798257	-58
46100	0	0.244951248	-0.228005409	0.210589409	0.999999046	-3.91006E-05	0.000154495	-0.000164986	6.123781204	-5.700135231	5.264735222	-0.001955032	0.007724762	-0.008249283	-0.538330078	0.863037109	0.115966797	896.02	-47.1827178	-38.22125854	-100.8414628	-58
46101	0	0.244384766	-0.227600098	0.21282959	0.999999046	0.000225067	8.10623E-05	-0.000110626	6.109619141	-5.690002441	5.320739746	0.011253357	0.004053116	-0.005531311	-0.540771484	0.865234375	0.115966797	896.12	-47.14261394	-38.22505576	-100.8718021	-58
46102	0	0.244216919	-0.225925446	0.21107769	0.999999046	-0.000104904	1.90735E-06	2.19345E-05	6.105422974	-5.648136139	5.276942253	-0.005245209	9.53674E-05	0.001096725	-0.538330078	0.863037109	0.113037109	896.06	-47.15363831	-38.22399653	-100.8793246	-58
46103	0	0.244689941	-0.226501465	0.210388184	0.999999046	-0.000267029	4.673E-05	0.000110626	6.117248535	-5.662536621	5.25970459	-0.013351441	0.002336502	0.005531311	-0.538330078	0.863037109	0.118896484	896	-47.18570997	-38.21212823	-100.8840569	-58
46104	0	0.245412827	-0.228561401	0.211874962	0.999999046	-0.000144005	8.58307E-05	0.000171661	6.135320663	-5.714035034	5.296874046	-0.007200241	0.004291534	0.008583069	-0.540771484	0.867431641	0.112792969	896	-47.20484354	-38.19216995	-100.8853298	-58
46105	0	0.244506836	-0.229431152	0.212585449	0.999999046	-0.000305176	0.000237465	4.57764E-05	6.112670898	-5.735778809	5.31463623	-0.015258789	0.011873246	0.002288818	-0.538330078	0.865234375	0.115722656	896	-47.22471099	-38.17101432	-100.9153349	-58
46106	0	0.242004395	-0.230377197	0.212375641	0.999999046	3.43323E-05	-6.10352E-05	-0.000138283	6.050109863	-5.759429932	5.309391022	0.001716614	-0.003051758	-0.006914139	-0.540771484	0.865234375	0.118652344	896.12	-47.21419472	-38.18848104	-100.9333227	-58
46107	0	0.244873047	-0.228210449	0.211120605	0.999999046	0.000495911	-0.000357628	-8.01086E-05	6.121826172	-5.70526123	5.278015137	0.024795534	-0.017881395	-0.004005432	-0.540771484	0.865234375	0.115966797	896.02	-47.17397451	-38.22424117	-100.9131662	-58
46108	0	0.246097565	-0.225765228	0.21098423	0.999999046	0.000203133	-0.000114441	4.86374E-05	6.152439117	-5.644130707	5.274605751	0.010156632	-0.005722046	0.00243187	-0.540771484	0.865234375	0.118652344	896.02	-47.15902662	-38.23043204	-100.9069715	-58
46109	0	0.245239258	-0.2265625	0.210266113	0.999999046	-0.000133514	9.25064E-05	3.8147E-05	6.130981445	-5.6640625	5.256652832	-0.00667572	0.00462532	0.001907349	-0.538330078	0.865234375	0.115722656	896	-47.16832088	-38.22152499	-100.9217678	-58
46110	0	0.243657112	-0.227858543	0.210248947	0.999999046	-0.000425339	0.000322342	0.000270844	6.091427803	-5.696463585	5.256223679	-0.021266939	0.016117097	0.013542176	-0.540771484	0.865234375	0.113037109	896	-47.21017483	-38.17521401	-100.9389634	-58
46111	0	0.245117188	-0.22857666	0.21081543	0.999999046	-0.00056076	0.000245094	0.000255585	6.127929688	-5.714416504	5.270385742	-0.028038027	0.012254716	0.012779237	-0.538574219	0.865234375	0.118652344	896.02	-47.2717515	-38.13630367	-100.9495013	-58
46112	0	0.24349308	-0.228450775	0.211593628	0.999999046	-0.000390053	0.000188828	0.000205994	6.087327003	-5.711269379	5.289840698	-0.019502641	0.009441376	0.010299683	-0.540771484	0.863037109	0.115966797	896.02	-47.3144202	-38.1059774	-100.9605014	-58
46113	0	0.244262695	-0.22833252	0.211669922	0.999999046	-0.00038147	3.14713E-05	0.000244141	6.106567383	-5.708312988	5.291748047	-0.019073487	0.001573563	0.012207032	-0.536132813	0.865234375	0.115722656	896	-47.36877323	-38.08473121	-100.9472696	-58
46114	0	0.245052338	-0.229773521	0.210776329	0.999999046	-0.000310898	0	0.000105858	6.126308441	-5.744338036	5.269408226	-0.015544892	0	0.005292893	-0.541015625	0.865234375	0.121582031	896.06	-47.40873379	-38.07767338	-100.9485965	-58
46115	0	0.24420166	-0.229187012	0.209594727	0.999999046	-0.000144958	-2.95639E-05	0.00012207	6.105041504	-5.729675293	5.239868164	-0.007247925	-0.001478195	0.006103516	-0.541015625	0.865234375	0.121582031	896.02	-47.43267539	-38.07163621	-100.945036	-57
46116	0	0.244646072	-0.229492188	0.212137222	0.999999046	-0.000216484	4.00543E-05	0.000175476	6.11615181	-5.737304688	5.303430557	-0.010824204	0.002002716	0.008773804	-0.538574219	0.867431641	0.121337891	896.02	-47.46339501	-38.05574728	-100.9412222	-57
46117	0	0.242919922	-0.228637695	0.212341309	0.999999046	-0.000339508	0.000100136	0.000144958	6.072998047	-5.715942383	5.308532715	-0.016975403	0.00500679	0.007247925	-0.536132813	0.865234375	0.121337891	896	-47.50227043	-38.03778556	-100.9463196	-58
46118	0	0.244276047	-0.229767799	0.21089077	0.999999046	-0.000270844	0.000114441	8.01086E-05	6.106901169	-5.744194984	5.272269249	-0.013542176	0.005722046	0.004005432	-0.538574219	0.865234375	0.121582031	896.02	-47.52839319	-38.02426839	-100.9608403	-58
46119	0	0.244750977	-0.229553223	0.21081543	0.999999046	7.62939E-06	8.10623E-05	0.000205994	6.118774414	-5.738830566	5.270385742	0.00038147	0.004053116	0.010299683	-0.538574219	0.863037109	0.121826172	896	-47.53240471	-38.00279321	-100.9606524	-58
46120	0	0.243401527	-0.229650497	0.211528778	0.999999046	3.71933E-05	-0.000116348	0.000144958	6.085038185	-5.741262436	5.288219452	0.001859665	-0.005817413	0.007247925	-0.538574219	0.867431641	0.118408203	896	-47.54232762	-38.00178099	-100.942556	-58
46121	0	0.242919922	-0.22869873	0.211242676	0.999999046	0.000144958	-0.000159264	0.000293732	6.072998047	-5.717468262	5.281066895	0.007247925	-0.007963181	0.014686585	-0.536132813	0.863037109	0.124511719	895.96	-47.55163761	-37.99154667	-100.9077328	-58
46122	0	0.24394989	-0.229453087	0.209216118	0.999999046	-3.05176E-05	-2.28882E-05	0.000293732	6.098747253	-5.736327171	5.230402946	-0.001525879	-0.001144409	0.014686585	-0.536132813	0.865234375	0.124267578	896.06	-47.57208301	-37.97086813	-100.8867601	-58
46123	0	0.243835449	-0.230163574	0.210327148	0.999999046	-0.000205994	0.000153542	0.000358582	6.09588623	-5.754089355	5.258178711	-0.010299683	0.007677078	0.017929078	-0.536132813	0.867431641	0.118408203	896.02	-47.60490064	-37.93112795	-100.8761472	-58
46124	0	0.242811203	-0.231036186	0.211342812	0.999999046	-0.000136375	8.39233E-05	0.000163078	6.070280075	-5.775904655	5.28357029	-0.006818771	0.004196167	0.008153915	-0.538574219	0.865234375	0.118652344	896	-47.62253679	-37.91330784	-100.8800823	-58
46125	0	0.242553711	-0.23046875	0.211181641	0.999999046	8.01086E-05	-1.43051E-05	7.62939E-05	6.063842773	-5.76171875	5.279541016	0.004005432	-0.000715256	0.003814697	-0.536132813	0.865234375	0.121337891	896.06	-47.61659183	-37.91043184	-100.8810833	-58
46126	0	0.242585182	-0.229740143	0.209989548	0.999999046	9.34601E-05	-0.000114441	0.000156403	6.064629555	-5.743503571	5.249738693	0.004673004	-0.005722046	0.007820129	-0.536132813	0.867431641	0.121337891	896.02	-47.62053543	-37.90856409	-100.8626382	-58
46127	0	0.243347168	-0.229492188	0.211730957	0.999999046	4.19617E-05	-0.000117302	0.000175476	6.083679199	-5.737304688	5.293273926	0.002098084	-0.005865097	0.008773804	-0.536132813	0.865234375	0.121337891	896.02	-47.63161704	-37.90535403	-100.8433196	-58
46128	0	0.244109154	-0.231880188	0.211386681	0.999999046	3.33786E-05	-0.000112534	4.57764E-05	6.102728844	-5.7970047	5.284667015	0.00166893	-0.005626678	0.002288818	-0.538574219	0.867431641	0.121337891	896.06	-47.63559051	-37.91279059	-100.8377806	-58
46129	0	0.241210938	-0.230407715	0.211120605	0.999999046	0.000350952	-0.000208855	1.52588E-05	6.030273438	-5.760192871	5.278015137	0.017547608	-0.010442734	0.000762939	-0.538574219	0.863037109	0.121826172	895.96	-47.60765596	-37.93020696	-100.8272237	-58
46130	0	0.243245125	-0.229840279	0.210874557	0.999999046	0.000221252	-0.000282288	0.0001297	6.08112812	-5.746006966	5.271863937	0.011062622	-0.01411438	0.006484986	-0.533935547	0.867431641	0.12109375	895.94	-47.60629242	-37.94366506	-100.7919977	-58
46131	0	0.244567871	-0.229797363	0.211242676	0.999999046	0.000415802	-8.29697E-05	8.01086E-05	6.114196777	-5.744934082	5.281066895	0.020790101	-0.004148483	0.004005432	-0.536132813	0.867431641	0.118408203	896.06	-47.56644681	-37.9460135	-100.7841679	-58
46132	0	0.243772507	-0.229966164	0.211270332	0.999999046	0.000245094	-0.000114441	0.000125885	6.094312668	-5.749154091	5.281758308	0.012254715	-0.005722046	0.006294251	-0.536132813	0.867431641	0.121337891	896.06	-47.5509662	-37.94697826	-100.7696259	-58
46133	0	0.243286133	-0.229980469	0.210327148	0.999999046	3.43323E-05	-0.000121117	5.34058E-05	6.08215332	-5.749511719	5.258178711	0.001716614	-0.006055832	0.002670288	-0.533691406	0.8671875	0.112304688	895.96	-47.55573195	-37.95463846	-100.7570059	-59
46134	0	0.243495941	-0.230114937	0.210466385	0.999999046	-0.000152588	4.95911E-05	0.000141144	6.087398529	-5.752873421	5.261659622	-0.007629395	0.002479553	0.00705719	-0.536376953	0.867431641	0.124023438	896	-47.57596377	-37.94172532	-100.7596896	-59
46135	0	0.242553711	-0.229736328	0.210388184	0.999999046	-0.000495911	0.000184059	7.62939E-05	6.063842773	-5.743408203	5.25970459	-0.024795533	0.009202958	0.003814697	-0.533935547	0.867431641	0.12109375	896	-47.62275983	-37.92393326	-100.7800756	-59
46136	0	0.242685318	-0.229127884	0.209943771	0.999999046	-0.000565529	0.000211716	0.000160217	6.06713295	-5.728197098	5.248594284	-0.028276445	0.010585786	0.008010865	-0.533691406	0.864990234	0.121337891	895.96	-47.68073075	-37.89697209	-100.7962712	-59
46137	0	0.243591309	-0.230224609	0.211547852	0.999999046	-0.000404358	0.00017643	0.000106812	6.089782715	-5.755615234	5.288696289	-0.020217896	0.008821488	0.005340576	-0.533935547	0.865234375	0.124267578	896.02	-47.71927554	-37.87731256	-100.8147616	-60
46138	0	0.243162155	-0.230570793	0.211690903	0.999999046	-5.53131E-05	0.000139236	0.000167847	6.079053879	-5.764269829	5.292272568	-0.002765656	0.006961823	0.008392334	-0.533691406	0.8671875	0.118164063	896	-47.72386364	-37.85537125	-100.8203516	-58
46139	0	0.242553711	-0.229919434	0.210083008	0.999999046	-0.0001297	3.52859E-05	6.10352E-05	6.063842773	-5.74798584	5.252075195	-0.006484985	0.001764297	0.003051758	-0.536132813	0.867431641	0.118408203	896.02	-47.73740095	-37.8505524	-100.8270573	-58
46140	0	0.242815971	-0.230370522	0.209794998	0.999999046	-0.000201225	9.15527E-05	6.10352E-05	6.070399284	-5.759263039	5.244874954	-0.010061264	0.004577637	0.003051758	-0.536132813	0.867431641	0.118408203	896	-47.75543009	-37.84145806	-100.8396781	-59
46141	0	0.242736816	-0.23059082	0.212524414	0.999999046	-3.05176E-05	0.000191689	0.000179291	6.06842041	-5.764770508	5.313110352	-0.001525879	0.009584427	0.008964539	-0.536132813	0.867431641	0.121337891	895.96	-47.75425648	-37.81461403	-100.8527728	-57
46142	0	0.242389679	-0.230568886	0.210710526	0.999999046	0.000118256	0.00021553	9.53674E-05	6.059741974	-5.764222145	5.267763138	0.005912781	0.01077652	0.004768372	-0.536132813	0.865234375	0.118408203	896	-47.72942621	-37.7930769	-100.8770355	-58
46143	0	0.243896484	-0.231079102	0.211181641	0.999999046	0.000358582	4.29153E-05	1.90735E-05	6.097412109	-5.776977539	5.279541016	0.017929078	0.002145767	0.000953674	-0.533935547	0.869628906	0.120849609	896.08	-47.68383281	-37.79138022	-100.8868932	-58
46144	0	0.2433815	-0.230083466	0.211122513	0.999999046	0.00055027	0.000171661	4.48227E-05	6.084537506	-5.752086639	5.27806282	0.027513506	0.008583069	0.002241135	-0.533935547	0.867431641	0.12109375	896	-47.60931562	-37.77762998	-100.9098045	-59
46145	0	0.243469238	-0.230529785	0.212280273	0.999999046	0.00012207	0.000317574	-4.19617E-05	6.086730957	-5.763244629	5.307006836	0.006103516	0.015878678	-0.002098084	-0.536132813	0.867431641	0.118408203	896.08	-47.56906626	-37.75997461	-100.9576812	-58
46146	0	0.241644859	-0.2307024	0.212489128	0.999999046	-6.86646E-05	0.000238419	-5.81741E-05	6.041121483	-5.767560005	5.312228203	-0.003433228	0.011920929	-0.002908707	-0.533691406	0.8671875	0.118164063	896.02	-47.55486547	-37.74976417	-100.9964028	-58
46147	0	0.2421875	-0.229736328	0.211791992	0.999999046	-5.72205E-05	0.000275612	-0.000110626	6.0546875	-5.743408203	5.294799805	-0.002861023	0.013780594	-0.005531311	-0.536132813	0.867431641	0.118408203	896.08	-47.5337423	-37.74113544	-101.0459323	-58
46148	0	0.243341446	-0.23056221	0.213119507	0.999999046	-7.9155E-05	0.000276566	-0.000157356	6.083536148	-5.764055252	5.327987671	-0.003957748	0.013828278	-0.007867813	-0.536132813	0.867431641	0.118408203	896.02	-47.51221718	-37.73640307	-101.0996756	-58
46149	0	0.239624023	-0.229858398	0.213439941	0.999999046	4.19617E-05	-4.1008E-05	-0.000293732	5.990600586	-5.746459961	5.335998535	0.002098084	-0.0020504	-0.014686585	-0.538574219	0.867431641	0.115478516	896.02	-47.48929837	-37.76765783	-101.1332692	-58
46150	0	0.240631104	-0.229761124	0.21362114	0.999999046	0.000320435	-0.000183105	-0.000142097	6.015777588	-5.744028091	5.340528488	0.016021729	-0.009155274	-0.007104874	-0.536132813	0.867431641	0.112548828	896	-47.45273741	-37.79702783	-101.1335385	-58
46151	0	0.245117188	-0.229553223	0.213134766	0.999999046	0.000659943	-0.000121117	-0.000133514	6.127929688	-5.738830566	5.328369141	0.032997134	-0.006055832	-0.006675721	-0.536132813	0.865234375	0.115722656	896.08	-47.37362855	-37.82097795	-101.1422257	-58
46152	0	0.244131088	-0.228904724	0.211484909	0.999999046	0.000430107	8.96454E-05	-0.000191689	6.103277206	-5.722618103	5.287122726	0.021505357	0.004482269	-0.009584427	-0.536132813	0.867431641	0.118408203	895.96	-47.30353556	-37.83356576	-101.1785626	-58
46153	0	0.241088867	-0.229309082	0.212585449	0.999999046	6.86646E-05	4.76837E-06	-8.39233E-05	6.02722168	-5.732727051	5.31463623	0.003433228	0.000238419	-0.004196167	-0.538574219	0.865234375	0.118652344	896	-47.28689572	-37.84360359	-101.1986201	-58
46154	0	0.24234581	-0.229727745	0.211397171	1	2.95639E-05	5.81741E-05	6.67572E-06	6.058645248	-5.743193626	5.284929276	0.001478195	0.002908707	0.000333786	-0.535888672	0.865234375	0.112792969	896.06	-47.27678826	-37.84187259	-101.2107536	-58
46155	0	0.243225098	-0.22857666	0.212341309	0.999999046	3.8147E-05	6.96182E-05	3.8147E-05	6.080627441	-5.714416504	5.308532715	0.001907349	0.003480911	0.001907349	-0.538330078	0.865234375	0.112792969	896.08	-47.26683314	-37.83665708	-101.2232681	-58
46156	0	0.243178368	-0.22809124	0.212758064	0.999999046	-0.000189781	0.00019455	0.000109673	6.07945919	-5.702280998	5.318951607	-0.00948906	0.009727478	0.005483627	-0.538330078	0.865234375	0.115722656	896.02	-47.27909881	-37.81576441	-101.2431381	-58
46157	0	0.242614746	-0.229248047	0.213256836	0.999999046	-0.000377655	2.76566E-05	9.91821E-05	6.065368652	-5.731201172	5.331420898	-0.018882752	0.001382828	0.004959107	-0.538330078	0.863037109	0.113037109	896.06	-47.32313632	-37.80873535	-101.2464496	-58
46158	0	0.243106842	-0.229945183	0.212424278	0.999999046	0.000217438	9.34601E-05	-3.8147E-06	6.077671051	-5.74862957	5.310606956	0.010871887	0.004673004	-0.000190735	-0.536132813	0.867431641	0.112548828	896.08	-47.28849683	-37.80529442	-101.2618643	-58
46159	0	0.242614746	-0.229003906	0.212524414	0.999999046	8.7738E-05	-6.67572E-06	6.10352E-05	6.065368652	-5.725097656	5.313110352	0.004386902	-0.000333786	0.003051758	-0.538574219	0.865234375	0.118652344	896	-47.27916274	-37.80419987	-101.2663382	-58
46160	0	0.242405891	-0.229729652	0.212255478	1	-5.72205E-06	-2.38419E-05	-1.90735E-05	6.060147285	-5.74324131	5.306386948	-0.000286102	-0.001192093	-0.000953674	-0.538330078	0.865234375	0.115722656	895.96	-47.27686572	-37.81119111	-101.2752549	-58
46161	0	0.241760254	-0.229309082	0.212585449	0.999999046	-4.57764E-05	8.58307E-06	7.62939E-06	6.044006348	-5.732727051	5.31463623	-0.002288818	0.000429153	0.00038147	-0.540771484	0.865234375	0.110107422	896.06	-47.27865465	-37.8133953	-101.2850093	-58
46162	0	0.242485046	-0.228478432	0.2126894	0.999999046	-3.62396E-05	-8.39233E-05	-2.00272E-05	6.06212616	-5.711960793	5.317234993	-0.001811981	-0.004196167	-0.001001358	-0.538574219	0.865234375	0.118652344	896.08	-47.2836875	-37.82514732	-101.288516	-58
46163	0	0.242858887	-0.228271484	0.21282959	0.999999046	-0.000106812	8.86917E-05	-3.8147E-05	6.071472168	-5.706787109	5.320739746	-0.005340576	0.004434586	-0.001907349	-0.540771484	0.867431641	0.112792969	896.06	-47.28437689	-37.82504555	-101.3102964	-58
46164	0	0.242167473	-0.229031563	0.212395668	0.999999046	-0.000107765	1.33514E-05	6.77109E-05	6.054186821	-5.72578907	5.309891701	-0.00538826	0.000667572	0.003385544	-0.540771484	0.865234375	0.115966797	896.02	-47.2964895	-37.82189091	-101.3162376	-58
46165	0	0.241760254	-0.229309082	0.212036133	0.999999046	-7.62939E-05	9.53674E-07	8.7738E-05	6.044006348	-5.732727051	5.30090332	-0.003814697	4.76837E-05	0.004386902	-0.541015625	0.867675781	0.118652344	896.02	-47.30703953	-37.81800216	-101.3184286	-58
46166	0	0.242024422	-0.229933739	0.212244987	0.999999046	7.62939E-06	4.76837E-05	0.00012207	6.050610542	-5.748343468	5.306124687	0.00038147	0.002384186	0.006103516	-0.538330078	0.865234375	0.115722656	896.02	-47.30702719	-37.80757256	-101.3201843	-58
46167	0	0.242675781	-0.228820801	0.211669922	0.999999046	-5.72205E-05	0.000107765	0.000102997	6.066894531	-5.72052002	5.291748047	-0.002861023	0.00538826	0.005149841	-0.538330078	0.865234375	0.115722656	896.02	-47.30938793	-37.79413089	-101.3302713	-58
46168	0	0.24197197	-0.229810715	0.211694717	0.999999046	-0.000172615	4.57764E-05	0.000144005	6.04929924	-5.745267868	5.292367935	-0.008630753	0.002288818	0.007200241	-0.538330078	0.865234375	0.115722656	896.06	-47.33154864	-37.78205365	-101.3297382	-58
46169	0	0.242675781	-0.229003906	0.21081543	0.999999046	-0.000102997	-6.38962E-05	0.000141144	6.066894531	-5.725097656	5.270385742	-0.005149841	-0.003194809	0.00705719	-0.538330078	0.865234375	0.112792969	896.02	-47.3527741	-37.77880469	-101.3166849	-58
46170	0	0.242149353	-0.230703354	0.213360786	0.999999046	-0.000123978	-7.24792E-05	0.000136375	6.053733826	-5.767583847	5.334019661	-0.006198883	-0.003623962	0.006818771	-0.538330078	0.865234375	0.115722656	896.02	-47.37667473	-37.77657799	-101.30443	-58
46171	0	0.240844727	-0.230102539	0.212341309	0.999999046	4.19617E-05	-0.000113487	1.14441E-05	6.021118164	-5.752563477	5.308532715	0.002098084	-0.005674362	0.000572205	-0.540771484	0.865234375	0.115966797	896	-47.37673859	-37.78800811	-101.3025097	-58
46172	0	0.243451118	-0.228931427	0.21224308	0.999999046	-0.000144005	-3.8147E-06	-7.62939E-06	6.086277962	-5.723285675	5.306077003	-0.007200241	-0.000190735	-0.00038147	-0.536132813	0.865234375	0.115722656	896.02	-47.389761	-37.79260845	-101.3089416	-58
46173	0	0.243164063	-0.228820801	0.212402344	0.999999046	-0.00025177	0.000126839	0.000190735	6.079101563	-5.72052002	5.310058594	-0.012588501	0.006341934	0.009536743	-0.538574219	0.867431641	0.112548828	896.02	-47.41846815	-37.77040173	-101.3097194	-58
46174	0	0.241984367	-0.2299366	0.213079453	0.999999046	-0.000219345	3.05176E-05	7.53403E-05	6.049609184	-5.748414993	5.326986313	-0.010967255	0.001525879	0.003767014	-0.538330078	0.865234375	0.112792969	896.02	-47.44277855	-37.76537795	-101.312889	-58
46175	0	0.241394043	-0.229614258	0.211791992	0.999999046	-2.67029E-05	-7.9155E-05	0.000247955	6.034851074	-5.740356445	5.294799805	-0.001335144	-0.003957748	0.012397766	-0.535888672	0.865234375	0.112792969	896.02	-47.46254164	-37.75427059	-101.2853241	-58
46176	0	0.243206024	-0.228953362	0.211313248	0.999999046	-0.000214577	-9.53674E-05	0.00019455	6.080150604	-5.723834038	5.282831192	-0.010728836	-0.004768372	0.009727478	-0.538574219	0.865234375	0.118652344	896.06	-47.50166699	-37.74901277	-101.266742	-58
46177	0	0.242004395	-0.23046875	0.212036133	0.999999046	-0.00025177	-1.04904E-05	9.15527E-05	6.050109863	-5.76171875	5.30090332	-0.012588501	-0.000524521	0.004577637	-0.536132813	0.865234375	0.118408203	896.02	-47.53332778	-37.74587308	-101.2643989	-58
46178	0	0.242271423	-0.229643822	0.211181641	0.999999046	-0.000240326	5.91278E-05	0.000141144	6.056785583	-5.741095543	5.279541016	-0.012016297	0.00295639	0.00705719	-0.538574219	0.867431641	0.121337891	896.08	-47.56208492	-37.73319732	-101.2668675	-58
46179	0	0.241821289	-0.230834961	0.21081543	0.999999046	-0.000247955	6.96182E-05	0.000148773	6.045532227	-5.770874023	5.270385742	-0.012397766	0.003480911	0.00743866	-0.538574219	0.865234375	0.118652344	896	-47.59153728	-37.71907313	-101.2701634	-58
46180	0	0.241723061	-0.230218887	0.212077141	0.999999046	-7.53403E-05	4.3869E-05	4.19617E-05	6.043076515	-5.755472183	5.30192852	-0.003767014	0.002193451	0.002098083	-0.538574219	0.865234375	0.118652344	896.08	-47.59646502	-37.71597242	-101.2809919	-58
46181	0	0.241943359	-0.230163574	0.211364746	0.999999046	-0.0001297	-5.62668E-05	0.000110626	6.048583984	-5.754089355	5.284118652	-0.006484985	-0.002813339	0.005531311	-0.538574219	0.867431641	0.118408203	896.08	-47.61826506	-37.71482026	-101.2725884	-58
46182	0	0.241915703	-0.230577469	0.211704254	0.999999046	-9.15527E-05	-2.47955E-05	0.000118256	6.04789257	-5.764436722	5.292606354	-0.004577637	-0.001239777	0.005912781	-0.536132813	0.867431641	0.118408203	896.02	-47.63407032	-37.71059343	-101.2641832	-58
46183	0	0.241516113	-0.230651855	0.210998535	0.999999046	-0.000133514	-3.33786E-05	0.000110626	6.037902832	-5.766296387	5.274963379	-0.00667572	-0.00166893	0.005531311	-0.536132813	0.867431641	0.121337891	896.02	-47.65480285	-37.70767694	-101.2568968	-58
46184	0	0.24135685	-0.230762482	0.211346626	0.999999046	-0.000218391	-9.15527E-05	7.15256E-05	6.033921242	-5.769062042	5.283665657	-0.010919571	-0.004577637	0.003576279	-0.536132813	0.867431641	0.115478516	895.96	-47.68673245	-37.7125469	-101.2444848	-58
46185	0	0.241943359	-0.23059082	0.211181641	0.999999046	-0.000125885	2.00272E-05	0.00018692	6.048583984	-5.764770508	5.279541016	-0.006294251	0.001001358	0.009346008	-0.538574219	0.865234375	0.121582031	896	-47.7076169	-37.69904688	-101.2401587	-58
46186	0	0.241726875	-0.230490685	0.210704803	0.999999046	-0.000123978	-3.05176E-05	0.00014782	6.043171883	-5.762267113	5.267620087	-0.006198883	-0.001525879	0.007390976	-0.536132813	0.865234375	0.121337891	896.06	-47.72925444	-37.69278076	-101.2314037	-58
46187	0	0.241455078	-0.231262207	0.210754395	0.999999046	-7.24792E-05	4.29153E-05	0.000110626	6.036376953	-5.781555176	5.268859863	-0.003623962	0.002145767	0.005531311	-0.536132813	0.867431641	0.121337891	896.08	-47.73798093	-37.68400359	-101.232453	-58
46188	0	0.241934776	-0.23153019	0.211473465	0.999999046	-1.23978E-05	-0.000108719	9.82285E-05	6.048369408	-5.788254738	5.286836624	-0.000619888	-0.005435944	0.004911423	-0.536132813	0.867431641	0.118408203	896.02	-47.74901089	-37.68796051	-101.217246	-58
46189	0	0.241271973	-0.230895996	0.209350586	0.999999046	8.01086E-05	-0.000170708	8.39233E-05	6.031799316	-5.772399902	5.233764648	0.004005432	-0.008535385	0.004196167	-0.536132813	0.867431641	0.121337891	896	-47.75271577	-37.69793493	-101.1981786	-59
46190	0	0.241671562	-0.230537415	0.210646629	0.999999046	-0.000152588	-9.15527E-05	0.000102997	6.041789055	-5.763435364	5.266165733	-0.007629395	-0.004577637	0.005149841	-0.536132813	0.867431641	0.121337891	896.02	-47.77901716	-37.70021261	-101.1856958	-58
46191	0	0.242004395	-0.230957031	0.210876465	0.999999046	5.72205E-05	-8.67844E-05	8.39233E-05	6.050109863	-5.773925781	5.271911621	0.002861023	-0.004339218	0.004196167	-0.536132813	0.867431641	0.121337891	896.08	-47.77980998	-37.70375919	-101.1756886	-60
46192	0	0.242856979	-0.230791092	0.211408615	0.999999046	-9.53674E-07	-7.24792E-05	7.24792E-05	6.071424484	-5.769777298	5.285215378	-4.76837E-05	-0.003623962	0.003623962	-0.533935547	0.867431641	0.12109375	896.06	-47.78559813	-37.70721916	-101.1657058	-60
46193	0	0.241027832	-0.231750488	0.212158203	0.999999046	0.000282288	-0.00014782	-0.000167847	6.025695801	-5.793762207	5.303955078	0.01411438	-0.007390976	-0.008392334	-0.533935547	0.867431641	0.124023438	896	-47.74951042	-37.73680509	-101.1720306	-59
46194	0	0.239825249	-0.231062889	0.211606026	0.999999046	0.000572205	-0.000312805	-0.000213623	5.995631218	-5.776572227	5.290150642	0.028610232	-0.01564026	-0.010681153	-0.536132813	0.867431641	0.118408203	895.96	-47.6882369	-37.78288602	-101.1649405	-58
46195	0	0.243652344	-0.229858398	0.210144043	0.999999046	0.00044632	-0.000349998	4.57764E-05	6.091308594	-5.746459961	5.253601074	0.02231598	-0.017499925	0.002288818	-0.533935547	0.867431641	0.12109375	896.02	-47.65933274	-37.80996225	-101.1275789	-59
46196	0	0.243900299	-0.229693413	0.210543633	0.999999046	0.000121117	-0.000219345	0	6.097507477	-5.74233532	5.263590813	0.006055832	-0.010967255	0	-0.536132813	0.867431641	0.115478516	896	-47.65635992	-37.83093169	-101.1086651	-59
46197	0	0.24230957	-0.229980469	0.211608887	0.999999046	-2.28882E-05	-0.000170708	-3.8147E-06	6.057739258	-5.749511719	5.290222168	-0.001144409	-0.008535385	-0.000190735	-0.536132813	0.865234375	0.121337891	896.02	-47.66641804	-37.84846125	-101.0997031	-58
46198	0	0.239880562	-0.230599403	0.211576462	0.999999046	-0.000125885	-0.000169754	2.67029E-05	5.997014046	-5.764985085	5.289411545	-0.006294251	-0.008487701	0.001335144	-0.536132813	0.867431641	0.115478516	896.06	-47.69002898	-37.86320277	-101.0829976	-58
46199	0	0.241577148	-0.230285645	0.212463379	0.999999046	4.95911E-05	-0.000132561	6.48499E-05	6.039428711	-5.757141113	5.311584473	0.002479553	-0.006628037	0.003242493	-0.538574219	0.867431641	0.121337891	896.06	-47.69328882	-37.87177046	-101.0723807	-58
46200	0	0.242518425	-0.230419159	0.211321831	0.999999046	0.000220299	-0.000230789	-3.14713E-05	6.062960625	-5.760478973	5.283045769	0.011014939	-0.011539459	-0.001573563	-0.536132813	0.865234375	0.121337891	896.08	-47.67765914	-37.89606447	-101.0593865	-58
46201	0	0.242675781	-0.229187012	0.210998535	0.999999046	6.48499E-05	-0.000353813	0.000148773	6.066894531	-5.729675293	5.274963379	0.003242493	-0.017690659	0.00743866	-0.538574219	0.865234375	0.121582031	896.06	-47.69873538	-37.9145945	-101.0188843	-58
46202	0	0.243244171	-0.231063843	0.210733414	0.999999046	3.05176E-05	-0.000190735	0.000128746	6.081104279	-5.776596069	5.268335342	0.001525879	-0.009536743	0.006437302	-0.536132813	0.865234375	0.118408203	896.02	-47.71182113	-37.92223362	-100.993427	-58
46203	0	0.242858887	-0.230895996	0.210388184	0.999999046	0.000190735	-0.000136375	-2.28882E-05	6.071472168	-5.772399902	5.25970459	0.009536743	-0.006818771	-0.001144409	-0.533691406	0.8671875	0.115234375	895.96	-47.69388223	-37.93852353	-100.9823273	-58
46204	0	0.242560387	-0.230438232	0.211385727	0.999999046	0.000119209	-0.000242233	-7.62939E-06	6.064009666	-5.760955811	5.284643173	0.005960465	-0.012111664	-0.00038147	-0.536132813	0.867431641	0.118408203	896.02	-47.69202574	-37.96164943	-100.9626947	-58
46205	0	0.242370605	-0.230102539	0.212341309	0.999999046	0.000183105	-0.000243187	-6.10352E-05	6.059265137	-5.752563477	5.308532715	0.009155274	-0.012159348	-0.003051758	-0.536132813	0.865234375	0.115722656	896.02	-47.67961481	-37.98931171	-100.9486209	-58
46206	0	0.24341774	-0.229873657	0.212672234	0.999999046	0.000228882	-0.000301361	-2.76566E-05	6.085443497	-5.746841431	5.31680584	0.011444092	-0.015068055	-0.001382828	-0.535888672	0.865234375	0.112792969	896.02	-47.66771794	-38.01860443	-100.9232693	-58
46207	0	0.242492676	-0.229675293	0.211853027	0.999999046	0.00019455	-0.000292778	3.05176E-05	6.062316895	-5.741882324	5.296325684	0.009727478	-0.014638901	0.001525879	-0.536132813	0.865234375	0.121337891	896	-47.66263831	-38.04225404	-100.897804	-58
46208	0	0.243272781	-0.230218887	0.210578918	0.999999046	0.000247002	-0.000204086	-3.91006E-05	6.081819534	-5.755472183	5.264472961	0.012350083	-0.010204315	-0.001955032	-0.536132813	0.865234375	0.115722656	896.08	-47.64148895	-38.06493941	-100.8857754	-58
46209	0	0.243041992	-0.230102539	0.212280273	0.999999046	0.000171661	-0.000201225	-2.28882E-05	6.076049805	-5.752563477	5.307006836	0.008583069	-0.010061264	-0.001144409	-0.536132813	0.867431641	0.121337891	896.14	-47.62970286	-38.08596563	-100.8732722	-58
46210	0	0.244724274	-0.229897499	0.210062027	0.999999046	2.09808E-05	-9.53674E-06	-0.0001688	6.118106842	-5.747437477	5.251550674	0.001049042	-0.000476837	-0.008440018	-0.538574219	0.867431641	0.115478516	896.08	-47.61367062	-38.10458407	-100.8951508	-58
46211	0	0.244140625	-0.229553223	0.20916748	0.999999046	-0.000205994	-1.81198E-05	-0.000247955	6.103515625	-5.738830566	5.229187012	-0.010299683	-0.000905991	-0.012397766	-0.538574219	0.865234375	0.118652344	896.02	-47.6194823	-38.13060399	-100.9262141	-58
46212	0	0.242247581	-0.228421211	0.210284233	0.999999046	-0.000222206	2.86102E-05	-0.000102997	6.056189537	-5.710530281	5.257105827	-0.011110306	0.001430511	-0.005149841	-0.538330078	0.865234375	0.115722656	896.02	-47.63279481	-38.14070384	-100.9455217	-58
46213	0	0.243774414	-0.229797363	0.212768555	0.999999046	-0.000175476	4.76837E-06	-0.000160217	6.094360352	-5.744934082	5.319213867	-0.008773804	0.000238419	-0.008010864	-0.538574219	0.865234375	0.118652344	896.02	-47.63876901	-38.15742393	-100.9688662	-58
46214	0	0.241709709	-0.228756905	0.211895943	0.999999046	0.000362396	-0.000232697	-5.05447E-05	6.042742729	-5.718922615	5.297398567	0.018119813	-0.011634827	-0.002527237	-0.538574219	0.865234375	0.118652344	896.02	-47.60545536	-38.18308425	-100.95593	-58
46215	0	0.242675781	-0.228820801	0.210144043	0.999999046	0.000499725	-0.000342369	0.000106812	6.066894531	-5.72052002	5.253601074	0.024986269	-0.017118455	0.005340577	-0.538574219	0.865234375	0.121582031	896.02	-47.57326934	-38.20386936	-100.9178517	-58
46216	0	0.245212555	-0.229090691	0.210814476	0.999999046	0.000735283	-0.000391006	0.000113487	6.130313873	-5.727267265	5.2703619	0.036764149	-0.019550326	0.005674363	-0.538574219	0.865234375	0.118652344	896.02	-47.51773393	-38.22790654	-100.8732412	-58
46217	0	0.245788574	-0.230041504	0.209899902	0.999999046	0.000587463	-0.000113487	5.72205E-05	6.144714355	-5.751037598	5.247497559	0.029373171	-0.005674363	0.002861023	-0.536132813	0.867431641	0.118408203	896.06	-47.45732976	-38.2352832	-100.8592678	-58
46218	0	0.243246078	-0.228664398	0.20925808	0.999999046	0.00022316	-0.000143051	-8.01086E-05	6.081151962	-5.716609955	5.231451988	0.01115799	-0.007152557	-0.004005432	-0.538574219	0.865234375	0.118652344	896.02	-47.43233682	-38.25653115	-100.8607815	-58
46219	0	0.243286133	-0.227050781	0.209533691	0.999999046	-0.000392914	0.000130653	-3.8147E-06	6.08215332	-5.676269531	5.238342285	-0.019645691	0.006532669	-0.000190735	-0.536132813	0.867431641	0.112548828	896	-47.46439604	-38.25013475	-100.8751153	-58
46220	0	0.2445755	-0.229534149	0.210453987	0.999999046	-0.000729561	0.000310898	9.53674E-05	6.114387512	-5.738353729	5.261349678	-0.036478046	0.015544893	0.004768372	-0.540771484	0.865234375	0.113037109	896.12	-47.52915727	-38.22140562	-100.9069561	-58
46221	0	0.244262695	-0.229187012	0.209655762	0.999999046	-0.000545502	0.000260353	0.000164032	6.106567383	-5.729675293	5.241394043	-0.027275087	0.013017655	0.0082016	-0.536132813	0.865234375	0.115722656	896.02	-47.58043357	-38.19081208	-100.9216402	-58
46222	0	0.24297905	-0.229070663	0.210935593	0.999999046	-0.000534058	0.000301361	6.10352E-05	6.074476242	-5.726766586	5.273389816	-0.026702883	0.015068055	0.003051758	-0.536132813	0.865234375	0.118408203	895.96	-47.62138515	-38.16572148	-100.951875	-58
46223	0	0.24206543	-0.230102539	0.209716797	0.999999046	-0.000396729	0.000187874	5.72205E-05	6.051635742	-5.752563477	5.242919922	-0.019836426	0.009393692	0.002861023	-0.538574219	0.867431641	0.115478516	896	-47.65399048	-38.14965241	-100.9695514	-58
46224	0	0.243485451	-0.229992867	0.211151123	0.999999046	-8.86917E-05	1.33514E-05	0.000117302	6.087136269	-5.749821663	5.278778076	-0.004434586	0.000667572	0.005865097	-0.538574219	0.867431641	0.121337891	896	-47.66653182	-38.14192711	-100.9658044	-58
46225	0	0.242797852	-0.228149414	0.210998535	0.999999046	4.57764E-05	8.58307E-06	6.86646E-05	6.069946289	-5.703735352	5.274963379	0.002288818	0.000429153	0.003433228	-0.538330078	0.865234375	0.115722656	896.02	-47.66093764	-38.13866659	-100.9652865	-58
46226	0	0.243861198	-0.229202271	0.208947182	0.999999046	-5.34058E-05	6.86646E-05	-2.76566E-05	6.096529961	-5.730056763	5.223679543	-0.002670288	0.003433228	-0.001382828	-0.538330078	0.865234375	0.115722656	896.02	-47.65692752	-38.13896719	-100.9803648	-58
46227	0	0.243103027	-0.229187012	0.209716797	0.999999046	-0.000133514	9.63211E-05	9.91821E-05	6.077575684	-5.729675293	5.242919922	-0.00667572	0.004816055	0.004959106	-0.538330078	0.865234375	0.115722656	896.06	-47.66796007	-38.12638327	-100.9860191	-58
46228	0	0.243383408	-0.229230881	0.208969116	0.999999046	-0.000203133	-4.95911E-05	0.000136375	6.08458519	-5.730772018	5.224227905	-0.010156632	-0.002479553	0.006818771	-0.538574219	0.865234375	0.121582031	896	-47.69897111	-38.12193183	-100.9757794	-58
46229	0	0.243286133	-0.229736328	0.210754395	0.999999046	-0.000133514	0.000103951	0.000133514	6.08215332	-5.743408203	5.268859863	-0.00667572	0.005197525	0.00667572	-0.538330078	0.865234375	0.115722656	896	-47.71159079	-38.10585069	-100.9790343	-58
46230	0	0.242937088	-0.229063988	0.209705353	0.999999046	-0.000238419	6.10352E-05	0.000182152	6.0734272	-5.726599693	5.24263382	-0.011920929	0.003051758	0.00910759	-0.538574219	0.865234375	0.124511719	896	-47.7420123	-38.08895837	-100.9781166	-58
46231	0	0.244934082	-0.23059082	0.210021973	0.999999046	-0.000453949	0.000123024	0.000160217	6.123352051	-5.764770508	5.250549316	-0.02269745	0.0061512	0.008010865	-0.536132813	0.865234375	0.124267578	896.02	-47.7917078	-38.06919601	-100.9823182	-58
