Counter	Temperature	VelInc_X	VelInc_Y	VelInc_Z	OriInc_w	OriInc_x	OriInc_y	OriInc_z	Acc_X	Acc_Y	Acc_Z	Gyr_X	Gyr_Y	Gyr_Z	Mag_X	Mag_Y	Mag_Z	Pressure	Roll	Pitch	Yaw	RSSI
40930	0	0.379365921	-0.063585281	0.078041077	0.999996185	0.002150536	-0.000649452	-0.001243591	9.484148026	-1.589632034	1.951026917	0.107526897	-0.032472646	-0.062179634	-0.660400391	-0.103759766	-0.752929688	895.88	-40.30041688	-74.87407211	70.50599922	-64
40931	0	0.380554199	-0.0625	0.079467773	0.999997139	0.001815796	-0.00096035	-0.001052856	9.51385498	-1.5625	1.986694336	0.090789876	-0.048017544	-0.052642869	-0.66015625	-0.105957031	-0.752685547	895.88	-39.95077324	-75.05912342	70.32053022	-64
40932	0	0.379072189	-0.062567711	0.080921173	0.999997139	0.001917839	-0.000694275	-0.001011848	9.476804733	-1.564192772	2.023029327	0.095892035	-0.034713775	-0.050592466	-0.659912109	-0.112792969	-0.749267578	895.8	-39.52375253	-75.21688316	70.07361572	-64
40933	0	0.379333496	-0.060791016	0.078674316	0.999998093	0.001519203	-0.000400543	-0.000919342	9.483337402	-1.519775391	1.96685791	0.075960201	-0.020027172	-0.045967127	-0.657470703	-0.114990234	-0.752197266	895.82	-39.08653199	-75.34092074	69.76127856	-64
40934	0	0.378897667	-0.059973717	0.080080032	0.999999046	0.000787735	-5.14984E-05	-0.000515938	9.472441673	-1.499342918	2.002000809	0.039386755	-0.002574921	-0.025796894	-0.662109375	-0.119140625	-0.745849609	895.86	-38.7702748	-75.40382188	69.50051673	-65
40935	0	0.381286621	-0.058776855	0.07824707	0.999999046	-0.000411987	-6.00815E-05	-1.52588E-05	9.532165527	-1.469421387	1.956176758	-0.020599366	-0.003004074	-0.000762939	-0.662109375	-0.121582031	-0.745605469	895.8	-38.76487054	-75.43095193	69.42440711	-65
40936	0	0.381175995	-0.058465958	0.081020355	0.999999046	-0.000821114	7.05719E-05	3.05176E-05	9.529399872	-1.461648941	2.025508881	-0.041055684	0.003528595	0.001525879	-0.662109375	-0.119384766	-0.748535156	895.76	-38.78583609	-75.4425226	69.32236846	-65
40937	0	0.377807617	-0.057373047	0.080078125	0.999999046	-0.001113892	0.000283241	-0.000354767	9.44519043	-1.434326172	2.001953125	-0.055694594	0.014162067	-0.017738347	-0.659912109	-0.1171875	-0.74609375	895.76	-38.64859456	-75.46212997	69.02261953	-65
40938	0	0.378231049	-0.059664726	0.080402374	0.999999046	-0.000900269	0.000175476	-0.000325203	9.455776215	-1.491618156	2.010059357	-0.045013435	0.008773805	-0.01626015	-0.664550781	-0.114746094	-0.748779297	895.86	-38.52638523	-75.48848521	68.76096007	-64
40939	0	0.380432129	-0.059875488	0.08001709	0.999999046	-0.000461578	-5.62668E-05	0.000125885	9.510803223	-1.496887207	2.000427246	-0.023078919	-0.002813339	0.006294251	-0.659912109	-0.114990234	-0.74609375	895.82	-38.57414539	-75.50279751	68.72916801	-65
40940	0	0.380548477	-0.058521271	0.081566811	0.999999046	-0.000271797	-0.000238419	0.000349998	9.513711929	-1.463031769	2.039170265	-0.01358986	-0.011920929	0.017499924	-0.659912109	-0.114990234	-0.74609375	895.82	-38.72828713	-75.51680637	68.83070205	-65
40941	0	0.380615234	-0.058227539	0.080993652	0.999999046	-0.000473022	-0.000212669	0.000106812	9.515380859	-1.455688477	2.024841309	-0.023651124	-0.010633469	0.005340576	-0.659912109	-0.112792969	-0.746337891	895.82	-38.81438043	-75.5453584	68.83496234	-65
40942	0	0.378866196	-0.059178352	0.079981804	0.999999046	-0.000679016	-6.10352E-05	9.53674E-05	9.471654892	-1.479458809	1.999545097	-0.033950808	-0.003051758	0.004768372	-0.659912109	-0.112792969	-0.746337891	895.88	-38.87819107	-75.5606553	68.79392716	-65
40943	0	0.379943848	-0.061828613	0.079528809	0.999999046	-0.000827789	-0.000250816	0.000102997	9.498596191	-1.545715332	1.988220215	-0.041389471	-0.012540819	0.005149842	-0.659912109	-0.114990234	-0.74609375	895.76	-39.01555361	-75.59175727	68.81757073	-64
40944	0	0.379849434	-0.061614037	0.080944061	0.999999046	-0.000760078	-0.000492096	5.24521E-05	9.496235847	-1.540350914	2.023601532	-0.038003927	-0.024604801	0.002622605	-0.66015625	-0.110595703	-0.749511719	895.82	-39.19637635	-75.64725833	68.88380914	-64
40945	0	0.379455566	-0.061645508	0.080688477	0.999999046	-0.000354767	-0.000346184	-0.000305176	9.48638916	-1.541137695	2.017211914	-0.017738343	-0.01730919	-0.01525879	-0.662597656	-0.110351563	-0.746337891	895.76	-39.16599957	-75.71505009	68.78375805	-64
40946	0	0.379670143	-0.061226845	0.079587936	0.999999046	0.000221252	-0.000415802	-0.000267982	9.491753578	-1.53067112	1.98969841	0.011062623	-0.020790101	-0.013399125	-0.662353516	-0.112548828	-0.746337891	895.76	-39.10233796	-75.78576295	68.71928339	-64
40947	0	0.38269043	-0.060546875	0.078186035	0.999999046	-0.000312805	-0.000304222	-0.000118256	9.567260742	-1.513671875	1.954650879	-0.015640259	-0.015211106	-0.005912781	-0.662597656	-0.110351563	-0.743652344	895.86	-39.12094221	-75.83526528	68.67542867	-64
40948	0	0.381227493	-0.061911583	0.079928398	0.999999046	-0.000458717	-0.000265121	-0.000110626	9.530687332	-1.547789574	1.998209953	-0.022935868	-0.013256074	-0.005531311	-0.662597656	-0.110351563	-0.743652344	895.88	-39.14824275	-75.88014001	68.62391658	-64
40949	0	0.384094238	-0.060791016	0.079223633	0.999999046	-0.000366211	-0.000216484	2.67029E-05	9.602355957	-1.519775391	1.98059082	-0.018310547	-0.010824204	0.001335144	-0.66015625	-0.110595703	-0.749511719	895.86	-39.19980763	-75.91021875	68.60248521	-64
40950	0	0.379425049	-0.061541557	0.079928398	0.999999046	2.47955E-05	-0.000213623	-0.000374794	9.485626221	-1.538538933	1.998209953	0.001239777	-0.010681153	-0.018739701	-0.662597656	-0.108154297	-0.743652344	895.76	-39.06368897	-75.96849171	68.43535908	-64
40951	0	0.378417969	-0.061279297	0.078857422	0.999999046	0.000431061	-0.000296593	-0.000389099	9.460449219	-1.531982422	1.971435547	0.021553041	-0.014829637	-0.019454957	-0.657714844	-0.110595703	-0.743896484	895.76	-38.89922584	-76.03452572	68.28640107	-64
40952	0	0.380894661	-0.062746048	0.079600334	0.999999046	0.000645638	-0.000297546	-0.000138283	9.522366524	-1.568651199	1.990008354	0.032281878	-0.014877321	-0.006914139	-0.664794922	-0.110351563	-0.743408203	895.82	-38.80034847	-76.0819421	68.23132391	-65
40953	0	0.381164551	-0.061218262	0.077209473	0.999999046	0.000545502	-0.000189781	0.000137329	9.52911377	-1.530456543	1.930236816	0.027275087	-0.00948906	0.006866455	-0.664794922	-0.114746094	-0.743164063	895.8	-38.78176644	-76.09949372	68.25398175	-64
40954	0	0.379834175	-0.059774399	0.076763153	0.999999046	0.000347137	-0.000282288	0.000221252	9.495854378	-1.49435997	1.919078827	0.017356873	-0.01411438	0.011062623	-0.664794922	-0.110351563	-0.743408203	895.74	-38.84383951	-76.11882414	68.3271874	-64
40955	0	0.380310059	-0.059204102	0.078063965	0.999999046	-7.24792E-05	-0.000166893	0.000133514	9.507751465	-1.480102539	1.951599121	-0.003623962	-0.00834465	0.00667572	-0.665039063	-0.112548828	-0.737548828	895.82	-38.88938122	-76.1337428	68.34440379	-64
40956	0	0.380501747	-0.061392784	0.075973511	0.999999046	-0.00032711	-0.00012207	0.000118256	9.512543678	-1.534819603	1.899337769	-0.016355515	-0.006103516	0.005912781	-0.664794922	-0.112548828	-0.74609375	895.76	-38.94640832	-76.14528038	68.33579355	-64
40957	0	0.380615234	-0.062927246	0.077392578	0.999999046	-0.000156403	-0.000288963	0.000255585	9.515380859	-1.573181152	1.934814453	-0.00782013	-0.014448166	0.012779236	-0.667236328	-0.112304688	-0.743164063	895.82	-39.08345022	-76.16125494	68.43418645	-65
40958	0	0.380200386	-0.062414169	0.077091217	0.999999046	0.000322342	-0.000349045	0.000182152	9.505009651	-1.560354233	1.927280426	0.016117097	-0.017452241	0.00910759	-0.664794922	-0.110351563	-0.743408203	895.82	-39.15791088	-76.18731488	68.51877685	-65
40959	0	0.381225586	-0.062194824	0.076477051	0.999999046	0.000869751	-0.000315666	0.000179291	9.530639648	-1.554870605	1.91192627	0.043487555	-0.015783312	0.00896454	-0.664794922	-0.110351563	-0.746337891	895.86	-39.15989264	-76.21013893	68.58814864	-65
40960	0	0.378381729	-0.062138557	0.075429916	0.999999046	0.000952721	-0.000257492	2.86102E-06	9.459543228	-1.553463936	1.88574791	0.04763604	-0.012874605	0.000143051	-0.664794922	-0.112548828	-0.743164063	895.82	-39.07244343	-76.24016238	68.57967341	-65
40961	0	0.382629395	-0.060180664	0.073974609	0.999999046	0.00062561	-0.000452995	-7.62939E-05	9.565734863	-1.504516602	1.849365234	0.031280521	-0.022649767	-0.003814698	-0.664794922	-0.114746094	-0.740234375	895.88	-39.05232936	-76.29306699	68.60637945	-65
40962	0	0.383194923	-0.060638428	0.075777054	0.999999046	0.000577927	-0.000299454	-0.000359535	9.579873085	-1.515960693	1.894426346	0.028896334	-0.014972688	-0.017976763	-0.666992188	-0.116699219	-0.739990234	895.86	-38.88910384	-76.35238692	68.4822031	-65
40963	0	0.386108398	-0.059265137	0.073303223	0.999999046	0.000335693	-0.000235558	-0.000457764	9.652709961	-1.481628418	1.832580566	0.016784669	-0.011777879	-0.022888185	-0.666992188	-0.118896484	-0.736816406	895.88	-38.69819653	-76.41281441	68.30591494	-65
40964	0	0.380216599	-0.061004639	0.072980881	0.999999046	-1.23978E-05	-0.000150681	-0.000770569	9.505414963	-1.525115967	1.824522018	-0.000619888	-0.007534028	-0.038528446	-0.666992188	-0.118896484	-0.736816406	895.8	-38.40509602	-76.48749529	67.98170625	-65
40965	0	0.379516602	-0.061401367	0.073608398	0.999999046	3.43323E-05	-0.000311852	-0.000385284	9.487915039	-1.53503418	1.840209961	0.001716614	-0.015592576	-0.019264222	-0.669433594	-0.12109375	-0.736572266	895.76	-38.29753097	-76.54864424	67.857738	-65
40966	0	0.38156414	-0.062018394	0.075632095	0.999999046	0.000740051	-0.000556946	0.000254631	9.539103508	-1.550459862	1.890802383	0.037002569	-0.027847294	0.012731554	-0.669433594	-0.12109375	-0.736572266	895.82	-38.42359942	-76.58584107	68.05467741	-65
40967	0	0.383239746	-0.060058594	0.073791504	0.999999046	0.00075531	-0.000380516	7.24792E-05	9.580993652	-1.501464844	1.844787598	0.037765507	-0.019025805	0.003623963	-0.669433594	-0.12109375	-0.736572266	895.76	-38.42826668	-76.61980231	68.12613811	-65
40968	0	0.384690285	-0.05829525	0.073158264	0.999999046	0.000395775	-0.000173569	-0.000248909	9.617257118	-1.457381248	1.828956604	0.019788743	-0.008678437	-0.01244545	-0.669433594	-0.12109375	-0.736572266	895.76	-38.29143166	-76.65783062	68.00816445	-65
40969	0	0.383483887	-0.058837891	0.07409668	0.999999046	0.00056839	-0.000285149	-0.000232697	9.587097168	-1.470947266	1.852416992	0.028419497	-0.014257432	-0.011634828	-0.669189453	-0.123291016	-0.739257813	895.76	-38.17444471	-76.70440321	67.92978276	-65
40970	0	0.380560875	-0.057174683	0.073027611	0.999999046	0.000190735	-0.00028038	-9.15527E-05	9.514021873	-1.429367065	1.825690269	0.009536743	-0.014019013	-0.004577637	-0.671386719	-0.125488281	-0.739013672	895.8	-38.15341821	-76.74030567	67.90973122	-65
40971	0	0.380981445	-0.05871582	0.073852539	0.999999046	0.000160217	-0.000105858	-0.000183105	9.524536133	-1.467895508	1.846313477	0.008010864	-0.005292893	-0.009155274	-0.668945313	-0.127685547	-0.736083984	895.76	-38.04903682	-76.76663482	67.80533138	-65
40972	0	0.38150692	-0.058308601	0.075193405	0.999999046	0.000161171	-0.000143051	-0.000213623	9.537672997	-1.457715034	1.879835129	0.008058548	-0.007152557	-0.010681153	-0.669189453	-0.125488281	-0.736083984	895.8	-37.94411885	-76.79806812	67.69586404	-65
40973	0	0.383178711	-0.056640625	0.074951172	0.999999046	0.000205994	-0.000178337	7.62939E-05	9.579467773	-1.416015625	1.873779297	0.010299683	-0.008916855	0.003814697	-0.669189453	-0.125488281	-0.73046875	895.8	-37.95651897	-76.81198492	67.7172243	-65
40974	0	0.381609917	-0.055569649	0.075080872	0.999999046	0.000415802	5.72205E-06	7.15256E-05	9.540247917	-1.389241219	1.87702179	0.020790101	0.000286102	0.003576279	-0.668945313	-0.127685547	-0.736083984	895.8	-37.88770136	-76.8093186	67.67740577	-66
40975	0	0.382507324	-0.05456543	0.072265625	0.999999046	-3.43323E-05	-6.77109E-05	-0.000144958	9.562683105	-1.364135742	1.806640625	-0.001716614	-0.003385544	-0.007247925	-0.669189453	-0.125488281	-0.736083984	895.76	-37.80919771	-76.82839747	67.57099493	-65
40976	0	0.382106781	-0.057512283	0.074222565	0.999999046	-0.000535011	2.09808E-05	-0.000274658	9.552669525	-1.437807083	1.855564117	-0.026750566	0.001049042	-0.013732911	-0.668945313	-0.127929688	-0.738769531	895.8	-37.71148908	-76.84822295	67.38880138	-66
40977	0	0.384338379	-0.059692383	0.074523926	0.999999046	-0.000537872	-0.000124931	-0.000198364	9.608459473	-1.49230957	1.863098145	-0.026893617	-0.006246567	-0.009918213	-0.671386719	-0.125488281	-0.736083984	895.76	-37.68816236	-76.87555635	67.28321133	-66
40978	0	0.382793427	-0.057733536	0.078331947	0.999999046	0.000305176	-0.000175476	-0.000153542	9.569835663	-1.443338394	1.958298683	0.015258789	-0.008773804	-0.007677078	-0.669189453	-0.125488281	-0.733154297	895.76	-37.60066664	-76.9038772	67.21163656	-66
40979	0	0.380065918	-0.055847168	0.07598877	0.999999046	0.001026154	1.23978E-05	-0.000205994	9.501647949	-1.396179199	1.899719238	0.051307688	0.000619888	-0.010299684	-0.668945313	-0.127929688	-0.738769531	895.8	-37.3532602	-76.91839307	67.05661171	-66
40980	0	0.382772446	-0.056331635	0.074037552	0.999999046	0.001336098	-3.8147E-06	-0.000106812	9.569311142	-1.408290863	1.850938797	0.066804906	-0.000190735	-0.005340578	-0.668945313	-0.127929688	-0.738769531	895.82	-37.11429694	-76.92715909	66.94330213	-66
40981	0	0.38269043	-0.0546875	0.07220459	0.999999046	0.000576019	-0.000163078	-4.19617E-05	9.567260742	-1.3671875	1.805114746	0.028800966	-0.008153916	-0.002098084	-0.671142578	-0.132080078	-0.741210938	895.76	-37.03572492	-76.94585743	66.90944133	-66
40982	0	0.381071091	-0.054021835	0.073972702	0.999999046	-6.86646E-05	-0.000169754	0	9.526777267	-1.350545883	1.849317551	-0.003433228	-0.008487701	0	-0.671386719	-0.132080078	-0.732666016	895.9	-37.04982793	-76.96212608	66.90329763	-66
40983	0	0.38293457	-0.05456543	0.07598877	0.999999046	-0.000156403	-0.000105858	-0.000183105	9.573364258	-1.364135742	1.899719238	-0.007820129	-0.005292893	-0.009155274	-0.671142578	-0.132080078	-0.73828125	895.82	-36.98244573	-76.98490618	66.79792818	-66
40984	0	0.382422447	-0.057196617	0.076926231	0.999999046	0.000229836	-6.10352E-05	-2.76566E-05	9.56056118	-1.429915428	1.923155785	0.011491776	-0.003051758	-0.001382828	-0.671142578	-0.132080078	-0.735595703	895.74	-36.91925528	-76.99248189	66.74434219	-66
40985	0	0.382080078	-0.057373047	0.075622559	0.999999046	0.000728607	-0.00014019	0.000133514	9.552001953	-1.434326172	1.890563965	0.036430362	-0.007009507	0.006675721	-0.668945313	-0.132324219	-0.735595703	895.86	-36.88700397	-76.99588548	66.77904443	-66
40986	0	0.382329941	-0.055047035	0.075166702	0.999999046	0.000865936	-0.000133514	0.000193596	9.55824852	-1.37617588	1.879167557	0.04329682	-0.006675721	0.009679796	-0.671142578	-0.132080078	-0.73828125	895.82	-36.86110183	-76.99431938	66.83261373	-65
40987	0	0.383056641	-0.055236816	0.073486328	0.999999046	0.00038147	-4.86374E-05	-1.90735E-05	9.576416016	-1.38092041	1.837158203	0.019073487	-0.00243187	-0.000953674	-0.673583984	-0.134277344	-0.735107422	895.76	-36.78155439	-76.99945813	66.78103381	-66
40988	0	0.381052017	-0.056509018	0.074528694	0.999999046	0.000117302	-7.43866E-05	-9.53674E-05	9.52630043	-1.412725449	1.863217354	0.005865097	-0.00371933	-0.004768372	-0.671142578	-0.134277344	-0.735351563	895.76	-36.7101425	-77.01192524	66.70515534	-65
40989	0	0.381713867	-0.055603027	0.073974609	0.999999046	-0.000137329	-7.9155E-05	0.000183105	9.54284668	-1.390075684	1.849365234	-0.006866455	-0.003957748	0.009155274	-0.671142578	-0.134277344	-0.732421875	895.88	-36.78072025	-77.00555566	66.74868582	-65
40990	0	0.383108139	-0.05637455	0.074873924	0.999999046	-9.72748E-05	-0.000101089	0.00020504	9.577703476	-1.409363747	1.871848106	-0.004863739	-0.005054474	0.010251999	-0.671142578	-0.136474609	-0.735107422	895.7	-36.86236795	-76.99944016	66.81022449	-65
40991	0	0.385986328	-0.057373047	0.073974609	0.999999046	-9.91821E-05	-5.24521E-05	-7.62939E-06	9.649658203	-1.434326172	1.849365234	-0.004959106	-0.002622604	-0.00038147	-0.671142578	-0.134277344	-0.729492188	895.82	-36.84612065	-77.00330335	66.77287457	-65
40992	0	0.383065224	-0.056955338	0.076180458	0.999999046	0.000273705	-0.000137329	-0.000271797	9.576630592	-1.423883438	1.904511452	0.013685227	-0.006866455	-0.013589859	-0.671142578	-0.134277344	-0.73828125	895.76	-36.70749145	-77.03275404	66.64436316	-65
40993	0	0.380554199	-0.055908203	0.07434082	0.999999046	0.000556946	-6.67572E-06	-0.000171661	9.51385498	-1.397705078	1.858520508	0.027847292	-0.000333786	-0.008583069	-0.671142578	-0.136474609	-0.729248047	895.76	-36.5376553	-77.04309343	66.527531	-66
40994	0	0.382283211	-0.056854248	0.074459076	0.999999046	0.000831604	-0.000106812	2.28882E-05	9.557080269	-1.421356201	1.861476898	0.041580205	-0.005340577	0.001144409	-0.671142578	-0.136474609	-0.735107422	895.8	-36.44441509	-77.04910135	66.51400604	-66
40995	0	0.383117676	-0.05645752	0.074157715	0.999999046	0.000415802	-5.24521E-05	0.000118256	9.577941895	-1.411437988	1.853942871	0.020790101	-0.002622604	0.005912781	-0.671142578	-0.138671875	-0.729248047	895.76	-36.42164427	-77.04344281	66.53223503	-66
40996	0	0.382867813	-0.054656029	0.074039459	0.999999046	0.000266075	-0.000225067	0.000106812	9.571695328	-1.366400719	1.850986481	0.013303757	-0.011253357	0.005340576	-0.673583984	-0.136474609	-0.732177734	895.86	-36.46289476	-77.05433998	66.5924394	-66
40997	0	0.382507324	-0.053955078	0.07434082	0.999999046	0.000232697	-0.000113487	-5.34058E-05	9.562683105	-1.348876953	1.858520508	0.011634827	-0.005674362	-0.002670288	-0.670898438	-0.138671875	-0.732177734	895.76	-36.41083915	-77.06573689	66.55492147	-66
40998	0	0.381370544	-0.055527687	0.074767113	0.999999046	0.000375748	-0.000110626	-6.19888E-05	9.534263611	-1.388192177	1.869177818	0.018787385	-0.005531311	-0.003099442	-0.670898438	-0.138671875	-0.732177734	895.76	-36.33843308	-77.07724719	66.51224014	-66
40999	0	0.383178711	-0.055297852	0.073303223	0.999999046	0.000659943	-0.000338554	-3.43323E-05	9.579467773	-1.382446289	1.832580566	0.032997134	-0.016927721	-0.001716614	-0.673339844	-0.136474609	-0.735107422	895.8	-36.31261493	-77.10779653	66.54324515	-66
41000	0	0.381951332	-0.052059174	0.075614929	0.999999046	0.000512123	-0.000366211	-1.52588E-05	9.548783302	-1.30147934	1.89037323	0.025606157	-0.018310548	-0.00076294	-0.670898438	-0.140869141	-0.729003906	895.74	-36.31939839	-77.13949775	66.60059961	-66
41001	0	0.383239746	-0.052734375	0.073303223	0.999999046	0.000202179	-0.000193596	-0.000118256	9.580993652	-1.318359375	1.832580566	0.010108948	-0.009679794	-0.005912781	-0.675537109	-0.143066406	-0.728515625	895.76	-36.26884205	-77.16220577	66.56767579	-66
41002	0	0.382487297	-0.054079056	0.073846817	0.999999046	-0.000307083	-4.3869E-05	-7.24792E-05	9.562182426	-1.351976395	1.846170425	-0.015354157	-0.002193451	-0.003623962	-0.670898438	-0.140869141	-0.729003906	895.82	-36.2509087	-77.16783851	66.50313026	-66
41003	0	0.382629395	-0.054138184	0.073791504	0.999999046	-0.000610352	-8.29697E-05	8.01086E-05	9.565734863	-1.35345459	1.844787598	-0.03051758	-0.004148484	0.004005432	-0.673339844	-0.140869141	-0.729003906	895.76	-36.34157371	-77.16661577	66.51714108	-66
41004	0	0.383487701	-0.053986549	0.074576378	0.999999046	-0.000662804	5.72205E-06	0.000205994	9.587192535	-1.349663734	1.864409447	-0.033140185	0.000286102	0.010299683	-0.670898438	-0.140869141	-0.729003906	895.82	-36.46285391	-77.14850301	66.55781324	-66
41005	0	0.385009766	-0.055053711	0.073059082	0.999999046	-0.000469208	-4.1008E-05	3.8147E-06	9.625244141	-1.376342773	1.826477051	-0.023460389	-0.0020504	0.000190735	-0.673339844	-0.140869141	-0.729003906	895.88	-36.49463196	-77.14837489	66.5316873	-67
41006	0	0.382452011	-0.053969383	0.076210976	0.999999046	0.000253677	-5.34058E-05	-0.000172615	9.561300278	-1.349234581	1.905274391	0.012683869	-0.002670288	-0.008630753	-0.67578125	-0.136474609	-0.731933594	895.7	-36.37581737	-77.16117891	66.42601578	-66
41007	0	0.382080078	-0.054260254	0.073242188	0.999999046	0.000556946	3.14713E-05	-0.000133514	9.552001953	-1.356506348	1.831054688	0.027847292	0.001573563	-0.006675721	-0.673583984	-0.138671875	-0.726074219	895.9	-36.21300107	-77.16336104	66.31745635	-66
41008	0	0.384408951	-0.053894043	0.07228756	0.999999046	0.000603676	-0.000225067	4.19617E-05	9.61022377	-1.347351074	1.807188988	0.030183794	-0.011253358	0.002098084	-0.673339844	-0.140869141	-0.729003906	895.82	-36.19266242	-77.17733056	66.35971301	-66
41009	0	0.384521484	-0.05267334	0.072753906	0.999999046	0.000156403	-0.000182152	0.000118256	9.613037109	-1.316833496	1.818847656	0.007820129	-0.00910759	0.005912781	-0.670898438	-0.141113281	-0.731933594	895.86	-36.24200552	-77.18215536	66.41742968	-67
41010	0	0.383009911	-0.052008629	0.074032784	0.999999046	8.58307E-05	-7.43866E-05	-3.52859E-05	9.575247765	-1.300215721	1.850819588	0.004291534	-0.00371933	-0.001764297	-0.673339844	-0.143066406	-0.725830078	895.8	-36.20483208	-77.18737661	66.38757755	-67
41011	0	0.38104248	-0.052429199	0.073791504	0.999999046	-3.8147E-06	-1.81198E-05	-0.000164032	9.526062012	-1.31072998	1.844787598	-0.000190735	-0.000905991	-0.008201599	-0.67578125	-0.140869141	-0.725830078	895.86	-36.10876435	-77.1960086	66.2837196	-66
41012	0	0.383320808	-0.05315876	0.072860718	0.999999046	4.76837E-06	-0.000133514	0.000136375	9.58302021	-1.328969002	1.821517944	0.000238419	-0.00667572	0.006818771	-0.673339844	-0.140869141	-0.731689453	895.76	-36.16856746	-77.19495917	66.33476164	-66
41013	0	0.383789063	-0.053833008	0.073242188	0.999999046	0.000263214	-7.9155E-05	0.000305176	9.594726563	-1.345825195	1.831054688	0.013160706	-0.003957749	0.015258789	-0.673339844	-0.140869141	-0.731689453	895.76	-36.25146477	-77.17737349	66.43992557	-66
41014	0	0.383708	-0.051954269	0.07326889	0.999999046	0.000335693	-2.47955E-05	0.00033474	9.592700005	-1.298856735	1.83172226	0.016784669	-0.001239777	0.016736985	-0.67578125	-0.140869141	-0.731689453	895.7	-36.32148543	-77.15272536	66.54140243	-66
41015	0	0.383178711	-0.052001953	0.072570801	0.999999046	0.000118256	0.000210762	0.000213623	9.579467773	-1.300048828	1.81427002	0.005912781	0.010538101	0.010681153	-0.673339844	-0.140869141	-0.731689453	895.8	-36.2971754	-77.11455972	66.52038403	-66
41016	0	0.381356239	-0.052270889	0.070972443	0.999999046	-6.58035E-05	0.000137329	0.000208855	9.533905983	-1.306772232	1.774311066	-0.003290176	0.006866455	0.010442734	-0.67578125	-0.140869141	-0.728759766	895.8	-36.31412456	-77.08357971	66.52467373	-66
41017	0	0.383666992	-0.052185059	0.071472168	0.999999046	-0.000591278	0.000119209	0.000392914	9.591674805	-1.304626465	1.786804199	-0.029563906	0.005960465	0.019645693	-0.67578125	-0.140869141	-0.725830078	895.74	-36.47053018	-77.04185121	66.61559961	-66
41018	0	0.384706497	-0.053486824	0.070828438	0.999999046	-0.000778198	0.000160217	0.000484467	9.61766243	-1.337170601	1.770710945	-0.038909918	0.008010865	0.024223331	-0.673339844	-0.138671875	-0.731933594	895.82	-36.6723481	-76.99012321	66.72460585	-66
41019	0	0.387207031	-0.0546875	0.074523926	0.999999046	-0.000827789	0.000252724	0.000225067	9.680175781	-1.3671875	1.863098145	-0.041389471	0.012636186	0.011253358	-0.670898438	-0.138671875	-0.732177734	895.82	-36.74865255	-76.94756308	66.70111355	-66
41020	0	0.382871628	-0.054800987	0.074564934	0.999999046	-0.000277519	0.000286102	-9.53674E-05	9.571790695	-1.370024681	1.864123344	-0.013875962	0.014305115	-0.004768372	-0.671142578	-0.134277344	-0.729492188	895.82	-36.62543728	-76.92379555	66.5336658	-65
41021	0	0.379455566	-0.056152344	0.070861816	0.999999046	3.05176E-05	0.000386238	2.67029E-05	9.48638916	-1.403808594	1.77154541	0.001525879	0.019311905	0.001335144	-0.673583984	-0.136474609	-0.729248047	895.76	-36.48732761	-76.88240152	66.39282751	-65
41022	0	0.383425713	-0.056290627	0.070794106	0.999999046	4.76837E-05	0.000221252	0.00031662	9.585642815	-1.407265663	1.769852638	0.002384186	0.011062622	0.015830994	-0.673583984	-0.134277344	-0.7265625	895.76	-36.51141341	-76.83647933	66.4200895	-65
41023	0	0.38293457	-0.056030273	0.069458008	0.999999046	-0.000743866	-2.95639E-05	0.000427246	9.573364258	-1.400756836	1.736450195	-0.037193303	-0.001478195	0.021362307	-0.671142578	-0.134277344	-0.729492188	895.76	-36.74338121	-76.8061718	66.56713352	-65
41024	0	0.38283062	-0.055064201	0.073929787	0.999999046	-0.000622749	-5.72205E-05	0.000338554	9.570765495	-1.376605034	1.848244667	-0.031137469	-0.002861023	0.016927721	-0.673583984	-0.132080078	-0.735351563	895.8	-36.9342844	-76.78434504	66.68092773	-65
41025	0	0.382629395	-0.056762695	0.073669434	0.999999046	-0.000473022	-0.000109673	0.000152588	9.565734863	-1.419067383	1.84173584	-0.023651124	-0.005483628	0.007629395	-0.671386719	-0.129882813	-0.729980469	895.74	-37.05103457	-76.78002463	66.73774837	-64
41026	0	0.382322311	-0.059268951	0.073467255	0.999999046	-0.000167847	-3.24249E-05	0.000179291	9.558057785	-1.481723785	1.836681366	-0.008392334	-0.001621246	0.008964539	-0.671386719	-0.129882813	-0.732910156	895.76	-37.12124964	-76.76665144	66.78113326	-64
41027	0	0.381408691	-0.059265137	0.072998047	0.999999046	-6.86646E-05	-0.000163078	0.000274658	9.535217285	-1.481628418	1.824951172	-0.003433228	-0.008153916	0.01373291	-0.671386719	-0.132080078	-0.732666016	895.74	-37.25624977	-76.75847808	66.9073841	-64
41028	0	0.3826828	-0.057472229	0.074817657	0.999999046	1.62125E-05	-0.000207901	0.000411034	9.567070007	-1.436805725	1.870441437	0.000810623	-0.01039505	0.020551682	-0.671386719	-0.129882813	-0.735595703	895.8	-37.44753695	-76.74471717	67.0958321	-64
41029	0	0.383483887	-0.058166504	0.074584961	0.999999046	0.000171661	-2.57492E-05	0.000148773	9.587097168	-1.454162598	1.864624023	0.008583069	-0.00128746	0.00743866	-0.671386719	-0.132080078	-0.729736328	895.74	-37.46587135	-76.73249635	67.13364373	-64
41030	0	0.382248878	-0.05850029	0.072997093	0.999999046	0.000318527	-0.000112534	0.000175476	9.556221962	-1.462507248	1.82492733	0.015926361	-0.005626679	0.008773804	-0.671386719	-0.132080078	-0.732666016	895.88	-37.50382031	-76.72624686	67.20576261	-64
41031	0	0.382568359	-0.058105469	0.073120117	0.999999046	-3.8147E-05	-0.000124931	0.000236511	9.564208984	-1.452636719	1.82800293	-0.001907349	-0.006246567	0.011825562	-0.673828125	-0.129882813	-0.729736328	895.8	-37.61016953	-76.71680802	67.30636875	-64
41032	0	0.380848885	-0.059817314	0.07399559	0.999999046	-9.82285E-05	3.43323E-05	0.000198364	9.521222115	-1.495432854	1.849889755	-0.004911423	0.001716614	0.009918213	-0.673828125	-0.129882813	-0.729736328	895.76	-37.66196997	-76.69541456	67.34470099	-63
41033	0	0.384643555	-0.059570313	0.076599121	0.999999046	-1.14441E-05	-9.82285E-05	0.000225067	9.616088867	-1.489257813	1.914978027	-0.000572205	-0.004911423	0.011253357	-0.671386719	-0.129882813	-0.727050781	895.76	-37.75329247	-76.68397979	67.43557982	-64
41034	0	0.381092072	-0.057912827	0.075667381	0.999999046	0.000516891	-0.000185013	0.000254631	9.527301788	-1.447820663	1.891684532	0.025844576	-0.009250641	0.012731553	-0.673828125	-0.129882813	-0.732666016	895.8	-37.82091108	-76.67816822	67.55947943	-63
41035	0	0.379455566	-0.057922363	0.071838379	0.999999046	0.000366211	8.86917E-05	0.000225067	9.48638916	-1.448059082	1.795959473	0.018310547	0.004434586	0.011253357	-0.673583984	-0.129882813	-0.735595703	895.94	-37.81362485	-76.64965204	67.58590548	-63
41036	0	0.381917953	-0.059141159	0.071276665	0.999999046	-2.00272E-05	-4.95911E-05	8.7738E-05	9.547948837	-1.478528976	1.781916618	-0.001001358	-0.002479553	0.004386902	-0.673828125	-0.129882813	-0.732666016	895.86	-37.83981591	-76.64334372	67.60419042	-63
41037	0	0.382568359	-0.059570313	0.073913574	0.999999046	-0.000564575	-6.67572E-06	0.000156403	9.564208984	-1.489257813	1.847839355	-0.028228761	-0.000333786	0.00782013	-0.673583984	-0.132080078	-0.732421875	895.74	-37.94215493	-76.62824588	67.6425322	-63
41038	0	0.383099556	-0.059470177	0.074816704	0.999999046	-0.000400543	1.71661E-05	0.000209808	9.577488899	-1.486754417	1.870417595	-0.020027161	0.000858307	0.010490418	-0.673583984	-0.129882813	-0.735595703	895.88	-38.03899361	-76.60711808	67.68971975	-63
41039	0	0.38293457	-0.059509277	0.076721191	0.999999046	-6.86646E-05	7.72476E-05	0.0001297	9.573364258	-1.487731934	1.918029785	-0.003433228	0.003862381	0.006484985	-0.671630859	-0.127685547	-0.729980469	895.82	-38.04943686	-76.58606077	67.68804573	-63
41040	0	0.38144207	-0.061083794	0.074512482	0.999999046	6.96182E-05	6.48499E-05	-0.000331879	9.53605175	-1.527094841	1.862812042	0.003480911	0.003242493	-0.016593933	-0.673828125	-0.127685547	-0.735839844	895.86	-37.87339298	-76.59852693	67.50625292	-64
41041	0	0.382324219	-0.059692383	0.07434082	0.999999046	0.000263214	-8.67844E-05	-0.000339508	9.558105469	-1.49230957	1.858520508	0.013160706	-0.004339218	-0.016975403	-0.671386719	-0.129882813	-0.727050781	895.86	-37.71688433	-76.62508467	67.37609506	-63
41042	0	0.382863998	-0.058235168	0.073204994	0.999999046	0.000301361	-0.000114441	-0.000209808	9.57159996	-1.455879211	1.830124855	0.015068055	-0.005722046	-0.010490418	-0.671386719	-0.129882813	-0.729980469	895.74	-37.61346686	-76.64501815	67.30110448	-63
41043	0	0.384338379	-0.056213379	0.074462891	0.999999046	0.000667572	-3.33786E-05	6.10352E-05	9.608459473	-1.405334473	1.861572266	0.033378604	-0.00166893	0.003051758	-0.671386719	-0.132080078	-0.732666016	895.76	-37.54738355	-76.63867768	67.30757598	-63
41044	0	0.381528854	-0.05548954	0.074632645	0.999999046	0.000494957	-1.33514E-05	-0.000149727	9.538221359	-1.387238503	1.865816116	0.02474785	-0.000667572	-0.007486344	-0.673583984	-0.132080078	-0.735351563	895.82	-37.41417154	-76.64523962	67.22179987	-63
41045	0	0.381896973	-0.055969238	0.073669434	0.999999046	0.000114441	-7.15256E-05	-0.000240326	9.547424316	-1.399230957	1.84173584	0.005722046	-0.003576279	-0.012016297	-0.673583984	-0.132080078	-0.735351563	895.88	-37.30661692	-76.66341281	67.11681426	-64
41046	0	0.382240295	-0.057600021	0.074114799	0.999999046	-0.000207901	-3.24249E-05	-0.000148773	9.556007385	-1.440000534	1.852869987	-0.01039505	-0.001621246	-0.00743866	-0.673583984	-0.134277344	-0.732421875	895.86	-37.25972518	-76.67161917	67.04288388	-64
41047	0	0.385986328	-0.059020996	0.075866699	0.999999046	1.52588E-05	-7.9155E-05	-0.000392914	9.649658203	-1.475524902	1.89666748	0.000762939	-0.003957749	-0.019645691	-0.673583984	-0.136474609	-0.732177734	895.86	-37.10678513	-76.70087948	66.88928197	-64
41048	0	0.383723259	-0.056520462	0.07879734	0.999999046	0.000674248	-4.57764E-05	-0.000592232	9.593081474	-1.413011551	1.96993351	0.033712392	-0.002288819	-0.029611592	-0.671142578	-0.132080078	-0.735595703	895.76	-36.78984101	-76.74049066	66.63002215	-64
41049	0	0.380126953	-0.055603027	0.074707031	0.999998093	0.001400948	0.000144958	-0.000415802	9.503173828	-1.390075684	1.867675781	0.070047404	0.007247927	-0.020790108	-0.673339844	-0.138671875	-0.729003906	895.8	-36.4015348	-76.75012905	66.39669288	-64
41050	0	0.383263588	-0.054170609	0.07100296	0.999999046	0.001251221	-1.52588E-05	-0.000217438	9.581589699	-1.354265213	1.775074005	0.062561052	-0.00076294	-0.01087189	-0.671142578	-0.138671875	-0.729248047	895.76	-36.15428946	-76.76101667	66.28559776	-64
41051	0	0.383728027	-0.053039551	0.072265625	0.999999046	0.000297546	-9.05991E-05	-0.000228882	9.593200684	-1.32598877	1.806640625	0.01487732	-0.004529953	-0.011444092	-0.673339844	-0.140869141	-0.729003906	895.82	-36.03314701	-76.77975203	66.1953612	-64
41052	0	0.382667542	-0.053613663	0.074363708	0.999999046	-0.000243187	-0.000165939	-0.000270844	9.566688538	-1.340341568	1.859092712	-0.012159348	-0.008296967	-0.013542176	-0.673095703	-0.143066406	-0.731689453	895.86	-35.97860341	-76.80831563	66.11121394	-64
41053	0	0.38067627	-0.055053711	0.076660156	0.999999046	-0.000118256	-7.15256E-05	-0.000263214	9.516906738	-1.376342773	1.916503906	-0.005912781	-0.003576279	-0.013160706	-0.673339844	-0.140869141	-0.729003906	895.76	-35.88524552	-76.82746312	66.00006886	-64
41054	0	0.381875992	-0.056091309	0.0753088	0.999999046	0.000431061	-2.67029E-05	0.000247002	9.546899796	-1.402282715	1.882719994	0.02155304	-0.001335144	0.012350083	-0.670898438	-0.140869141	-0.729003906	895.82	-35.91851844	-76.80806691	66.08200868	-64
41055	0	0.383728027	-0.054260254	0.07409668	0.999999046	0.00063324	-1.43051E-05	0.000526428	9.593200684	-1.356506348	1.852416992	0.031661991	-0.000715256	0.026321414	-0.673339844	-0.140869141	-0.729003906	895.76	-36.03520381	-76.76873567	66.27391289	-64
41056	0	0.383185387	-0.053045273	0.073723793	0.999999046	0.000390053	8.7738E-05	0.000441551	9.579634666	-1.326131821	1.843094826	0.019502641	0.004386902	0.022077562	-0.670898438	-0.141113281	-0.734863281	895.82	-36.11612007	-76.72570706	66.39511761	-64
41057	0	0.383117676	-0.051818848	0.074035645	0.999999046	0.000423431	0.000138283	0.000282288	9.577941895	-1.295471191	1.850891113	0.021171571	0.006914139	0.014114381	-0.673095703	-0.143066406	-0.734375	895.86	-36.11537257	-76.68887985	66.44101612	-64
41058	0	0.382091522	-0.052095413	0.072902679	0.999999046	0.000509262	3.05176E-05	0.000408173	9.552288055	-1.30238533	1.822566986	0.025463106	0.001525879	0.020408632	-0.670898438	-0.143310547	-0.731689453	895.8	-36.18424866	-76.65368768	66.57004495	-65
41059	0	0.383972168	-0.051635742	0.07434082	0.999999046	0.00025177	-1.43051E-05	7.24792E-05	9.599304199	-1.290893555	1.858520508	0.012588501	-0.000715256	0.003623962	-0.673339844	-0.140869141	-0.734619141	895.86	-36.1638182	-76.64549562	66.57072837	-64
41060	0	0.384515762	-0.053242683	0.072890282	0.999999046	-3.91006E-05	-2.86102E-05	-7.62939E-05	9.612894058	-1.331067085	1.822257042	-0.001955032	-0.001430511	-0.003814697	-0.670898438	-0.143066406	-0.728759766	895.74	-36.12276277	-76.64886685	66.5238856	-64
41061	0	0.385498047	-0.05456543	0.076904297	0.999999046	0.000164032	-0.000144005	-0.000141144	9.637451172	-1.364135742	1.922607422	0.008201599	-0.007200241	-0.00705719	-0.671142578	-0.138671875	-0.729248047	895.82	-36.06570529	-76.66727369	66.47547722	-65
41062	0	0.381505966	-0.052968025	0.076322556	0.999999046	0.000406265	-0.000141144	-0.000214577	9.537649155	-1.32420063	1.908063889	0.020313264	-0.00705719	-0.010728836	-0.670654297	-0.143310547	-0.734619141	895.8	-35.95065205	-76.69034389	66.39779238	-65
41063	0	0.38079834	-0.054016113	0.075378418	0.999999046	0.000976563	-2.57492E-05	-8.01086E-05	9.519958496	-1.350402832	1.884460449	0.048828133	-0.001287461	-0.004005433	-0.670654297	-0.143310547	-0.734619141	895.74	-35.78988353	-76.6936208	66.33748881	-65
41064	0	0.384654999	-0.052651405	0.07399559	0.999999046	0.00074482	-6.10352E-05	8.01086E-05	9.616374969	-1.316285133	1.849889755	0.037240986	-0.003051758	0.004005433	-0.673095703	-0.145263672	-0.731445313	895.8	-35.72845533	-76.68956169	66.35734489	-65
41065	0	0.382568359	-0.052734375	0.074279785	0.999999046	3.43323E-05	-8.67844E-05	1.14441E-05	9.564208984	-1.318359375	1.856994629	0.001716614	-0.004339218	0.000572205	-0.673095703	-0.145263672	-0.728515625	895.8	-35.72861204	-76.69258858	66.35923685	-65
41066	0	0.382457733	-0.051029205	0.075619698	0.999999046	-0.00025177	-7.62939E-06	0.000175476	9.561443329	-1.275730133	1.890492439	-0.012588501	-0.00038147	0.008773804	-0.673095703	-0.147460938	-0.728271484	895.94	-35.80298593	-76.67735019	66.40898672	-64
41067	0	0.381652832	-0.052307129	0.075378418	0.999999046	-0.000549316	0.000191689	8.7738E-05	9.541320801	-1.307678223	1.884460449	-0.027465822	0.009584427	0.004386902	-0.673095703	-0.145263672	-0.731445313	895.86	-35.82028762	-76.64950981	66.36049939	-64
41068	0	0.38124752	-0.054839134	0.076439857	0.999999046	-0.000397682	1.71661E-05	0.000170708	9.531188011	-1.370978355	1.910996437	-0.01988411	0.000858307	0.008535385	-0.673095703	-0.145263672	-0.731445313	895.76	-35.90197675	-76.63224996	66.39763353	-64
41069	0	0.381835938	-0.054260254	0.07598877	0.999999046	-0.000137329	-1.81198E-05	0.000350952	9.545898438	-1.356506348	1.899719238	-0.006866455	-0.000905991	0.017547608	-0.673095703	-0.143066406	-0.731689453	895.76	-36.03385188	-76.60609994	66.51408846	-64
41070	0	0.383692741	-0.053330421	0.077179909	0.999999046	9.34601E-05	-5.53131E-05	0.000353813	9.592318535	-1.333260536	1.929497719	0.004673004	-0.002765656	0.017690659	-0.673339844	-0.140869141	-0.734619141	895.82	-36.15006868	-76.58313538	66.63590165	-64
41071	0	0.381958008	-0.052856445	0.075073242	0.999999046	-3.05176E-05	7.72476E-05	0.000236511	9.548950195	-1.321411133	1.876831055	-0.001525879	0.003862381	0.011825562	-0.670898438	-0.143066406	-0.725830078	895.8	-36.19676084	-76.55588628	66.68298953	-64
41072	0	0.381737709	-0.052981377	0.076104164	0.999999046	-0.000338554	0.000179291	0.000281334	9.543442726	-1.324534416	1.902604103	-0.01692772	0.008964539	0.014066697	-0.670654297	-0.143310547	-0.734619141	895.88	-36.26659765	-76.51619544	66.71234256	-64
41073	0	0.382873535	-0.054199219	0.074035645	0.999999046	-0.000598907	0.000187874	0.000347137	9.571838379	-1.354980469	1.850891113	-0.029945376	0.009393693	0.017356874	-0.670898438	-0.141113281	-0.734863281	895.9	-36.38886286	-76.47134891	66.76380978	-64
41074	0	0.384819984	-0.055901527	0.076980591	0.999999046	-0.000707626	-1.90735E-05	0.000128746	9.620499611	-1.397538185	1.924514771	-0.03538132	-0.000953674	0.006437302	-0.673339844	-0.140869141	-0.731689453	895.8	-36.49790883	-76.4604029	66.79450783	-64
41075	0	0.381591797	-0.053588867	0.077087402	0.999999046	-0.000301361	5.43594E-05	9.91821E-05	9.539794922	-1.33972168	1.927185059	-0.015068054	0.002717972	0.004959107	-0.668457031	-0.138916016	-0.738037109	895.86	-36.52781015	-76.44471029	66.78197843	-64
41076	0	0.380595207	-0.056517601	0.074834824	0.999999046	-4.1008E-05	0.000268936	0.000171661	9.51488018	-1.412940025	1.87087059	-0.0020504	0.013446808	0.008583069	-0.670898438	-0.138916016	-0.734863281	895.76	-36.49522222	-76.40432374	66.74068273	-64
41077	0	0.382873535	-0.056518555	0.074401855	0.999999046	-5.34058E-05	5.43594E-05	0.000102997	9.571838379	-1.412963867	1.860046387	-0.002670288	0.002717972	0.005149841	-0.670898438	-0.138671875	-0.732177734	895.8	-36.49882368	-76.38845094	66.73750784	-64
41078	0	0.380656242	-0.055933952	0.076755524	0.999999046	-0.000131607	-0.000133514	0.000197411	9.516406059	-1.398348808	1.918888092	-0.006580353	-0.00667572	0.009870529	-0.670898438	-0.138671875	-0.732177734	895.86	-36.60008735	-76.38339813	66.826213	-64
41079	0	0.382385254	-0.055480957	0.075744629	0.999999046	-0.00038147	-9.44138E-05	0.00018692	9.559631348	-1.387023926	1.893615723	-0.019073487	-0.004720688	0.009346009	-0.670898438	-0.138671875	-0.732177734	895.9	-36.71483232	-76.37547475	66.90069577	-64
41080	0	0.381585121	-0.05659771	0.076238632	0.999999046	-0.00036335	-0.000137329	5.24521E-05	9.539628029	-1.414942741	1.905965805	-0.018167496	-0.006866455	0.002622604	-0.671142578	-0.136474609	-0.732177734	895.88	-36.78871933	-76.38066755	66.93231424	-64
41081	0	0.382385254	-0.059020996	0.076293945	0.999999046	-0.0001297	-8.29697E-05	0.0001297	9.559631348	-1.475524902	1.907348633	-0.006484985	-0.004148483	0.006484985	-0.670898438	-0.13671875	-0.738037109	895.76	-36.85016813	-76.3754742	66.97465736	-64
41082	0	0.381222725	-0.058651924	0.076396942	0.999999046	0.000106812	-0.000127792	0.000277519	9.530568123	-1.466298103	1.909923553	0.005340576	-0.006389618	0.013875962	-0.668701172	-0.13671875	-0.735351563	895.8	-36.95334958	-76.36411628	67.08936047	-64
41083	0	0.38104248	-0.057128906	0.075622559	0.999999046	0.000484467	-0.000159264	0.00037384	9.526062012	-1.428222656	1.890563965	0.024223329	-0.007963181	0.018692018	-0.670898438	-0.138916016	-0.734863281	895.86	-37.05837304	-76.34893938	67.25508322	-64
41084	0	0.38065815	-0.055998802	0.074333191	0.999999046	0.000683784	-8.58307E-05	0.000483513	9.516453743	-1.399970055	1.858329773	0.034189228	-0.004291535	0.024175647	-0.673339844	-0.136474609	-0.735107422	895.8	-37.16057981	-76.31948267	67.43685314	-64
41085	0	0.381408691	-0.056396484	0.071044922	0.999999046	1.90735E-05	-7.53403E-05	0.000144958	9.535217285	-1.409912109	1.776123047	0.000953674	-0.003767014	0.007247925	-0.670898438	-0.138916016	-0.737792969	895.88	-37.20911238	-76.31267595	67.48632157	-64
41086	0	0.381890297	-0.058580399	0.07281971	0.999999046	-0.00030899	-7.62939E-06	5.34058E-05	9.547257423	-1.464509964	1.820492744	-0.015449524	-0.00038147	0.002670288	-0.673583984	-0.136474609	-0.732177734	895.82	-37.2422541	-76.3061156	67.48374705	-64
41087	0	0.385437012	-0.057128906	0.074768066	0.999999046	-0.000404358	4.673E-05	0.000148773	9.635925293	-1.428222656	1.86920166	-0.020217896	0.002336502	0.00743866	-0.670898438	-0.138671875	-0.732177734	895.88	-37.30656066	-76.28807266	67.50641799	-63
41088	0	0.383215904	-0.056389809	0.076161385	0.999999046	0.000195503	3.62396E-05	-1.14441E-05	9.580397606	-1.409745216	1.904034615	0.009775162	0.001811981	-0.000572205	-0.671142578	-0.136474609	-0.732177734	895.88	-37.2450291	-76.28214312	67.46583439	-63
41089	0	0.379760742	-0.057983398	0.072021484	0.999999046	0.000255585	0.000218391	-0.000175476	9.494018555	-1.449584961	1.800537109	0.012779236	0.010919571	-0.008773804	-0.671142578	-0.134277344	-0.73828125	895.76	-37.06440634	-76.27102168	67.29985152	-64
41090	0	0.378833771	-0.056410789	0.071665764	0.999999046	0.000131607	-2.28882E-05	0.000167847	9.470844269	-1.410269737	1.791644096	0.006580353	-0.001144409	0.008392334	-0.673339844	-0.136474609	-0.735107422	895.82	-37.0951555	-76.25835407	67.34459364	-63
41091	0	0.380981445	-0.055908203	0.071716309	0.999999046	-0.000694275	2.76566E-05	3.43323E-05	9.524536133	-1.397705078	1.792907715	-0.034713748	0.001382828	0.001716614	-0.671142578	-0.136474609	-0.732177734	895.9	-37.15659653	-76.25049881	67.32718743	-63
41092	0	0.373404503	-0.057441711	0.074585915	0.999999046	9.63211E-05	-0.000312805	-0.000512123	9.335112572	-1.436042786	1.864647865	0.004816056	-0.01564026	-0.025606157	-0.671142578	-0.136474609	-0.732177734	895.82	-37.01937507	-76.31147127	67.19647364	-63
41093	0	0.368347168	-0.055358887	0.080383301	0.999998093	0.000729561	-0.000713348	-0.001342773	9.208679199	-1.383972168	2.00958252	0.03647806	-0.035667436	-0.067138704	-0.670898438	-0.138916016	-0.737792969	895.86	-36.60531764	-76.46576814	66.84882167	-63
41094	0	0.379457474	-0.070211411	0.082447052	0.999998093	0.000575066	-0.000844002	-0.001644135	9.486436844	-1.755285263	2.0611763	0.028753299	-0.042200115	-0.082206777	-0.670898438	-0.141113281	-0.731933594	895.82	-36.1219562	-76.65122187	66.41396772	-64
41095	0	0.379821777	-0.081787109	0.085876465	0.999983788	0.005249023	-0.001437187	-0.001567841	9.495544434	-2.044677734	2.146911621	0.262452575	-0.071859744	-0.078392448	-0.675537109	-0.145263672	-0.731201172	895.86	-35.28947481	-76.88434442	66.15961522	-65
41096	0	0.37814045	-0.087136269	0.10433197	0.999960899	0.008507729	-0.001775742	-0.001319885	9.453511238	-2.178406715	2.608299255	0.425391908	-0.088788222	-0.065995113	-0.675048828	-0.158447266	-0.721435547	895.86	-34.26182339	-77.12995743	66.09009213	-66
41097	0	0.385253906	-0.104003906	0.114624023	0.999899864	0.013904572	-0.001101494	-0.001968384	9.631347656	-2.600097656	2.865600586	0.69525157	-0.055076513	-0.098422445	-0.677001953	-0.171630859	-0.720458984	895.76	-32.12774278	-77.34805384	65.49888723	-70
41098	0	0.375932693	-0.101818085	0.127438545	0.999725342	0.023377419	0.000115395	-0.001245499	9.398317337	-2.545452118	3.185963631	1.168977722	0.005770257	-0.062280623	-0.680664063	-0.200439453	-0.711914063	895.76	-28.86201508	-77.3941916	64.85172092	-79
41099	0	0.374389648	-0.105041504	0.131713867	0.999690056	0.024654388	0.003209114	0	9.359741211	-2.626037598	3.29284668	1.232846455	0.160472239	0	-0.677001953	-0.233642578	-0.703613281	895.82	-25.29797798	-77.04779882	64.04834721	-71
41100	0	0.390254974	-0.096255302	0.137299538	0.999769211	0.020681381	0.004879951	0.002853394	9.756374359	-2.406382561	3.432488441	1.0341483	0.244016271	0.14268061	-0.673095703	-0.269042969	-0.697998047	895.88	-23.2229465	-76.38106664	64.32611218	-66
41101	0	0.383911133	-0.09185791	0.133911133	0.999837875	0.014824867	0.00711441	0.007293701	9.59777832	-2.296447754	3.34777832	0.741283345	0.355739707	0.36470473	-0.665283203	-0.287109375	-0.691162109	895.74	-23.29958423	-75.27628607	66.15346753	-69
41102	0	0.370308876	-0.087284088	0.129130363	0.999856949	0.006236076	0.009152412	0.01274395	9.257721901	-2.182102203	3.228259087	0.311818634	0.457642365	0.637227772	-0.66015625	-0.293945313	-0.696777344	895.8	-25.80898996	-73.68682981	69.5243174	-84
41103	0	0.364929199	-0.097717285	0.125915527	0.999787331	-0.001358032	0.010670662	0.017555237	9.12322998	-2.442932129	3.147888184	-0.067906409	0.533570797	0.877823866	-0.658203125	-0.280761719	-0.709472656	895.76	-29.84358142	-71.63522222	73.63653572	-70
41104	0	0.366439819	-0.11288166	0.132845879	0.999695778	-0.004130363	0.011713028	0.021286011	9.160995483	-2.822041512	3.321146965	-0.206539084	0.585710696	1.0644083	-0.652099609	-0.250244141	-0.723876953	895.76	-34.1371337	-69.17136212	77.74877384	-72
41105	0	0.353942871	-0.12902832	0.132080078	0.999585152	-0.005825043	0.013157845	0.024944305	8.848571777	-3.225708008	3.302001953	-0.291292406	0.65798319	1.247387717	-0.646240234	-0.212890625	-0.747558594	895.8	-38.2627676	-66.23162692	81.54527762	-64
41106	0	0.347081184	-0.150387764	0.138920784	0.999510765	-0.002569199	0.014383316	0.027626991	8.67702961	-3.759694099	3.4730196	-0.128480851	0.719282925	1.38157453	-0.633544922	-0.169189453	-0.766357422	895.86	-41.45005553	-62.90138104	84.79896281	-66
41107	0	0.329345703	-0.174072266	0.146179199	0.999472618	0.004264832	0.015820503	0.028003693	8.233642578	-4.351806641	3.65447998	0.213279008	0.791164011	1.400430406	-0.622802734	-0.134277344	-0.792724609	895.76	-43.06127969	-59.36433798	87.23293803	-65
41108	0	0.304213524	-0.172270775	0.165615082	0.999458313	0.007932663	0.015999794	0.027640343	7.605338097	-4.306769371	4.140377045	0.396704769	0.800134157	1.38226669	-0.602294922	-0.104003906	-0.810791016	895.88	-43.79143351	-55.81667352	89.19415099	-72
41109	0	0.262084961	-0.18182373	0.165588379	0.999523163	0.006913185	0.014167786	0.026546478	6.552124023	-4.545593262	4.139709473	0.345714195	0.708501874	1.327534879	-0.581787109	-0.082763672	-0.825439453	895.82	-44.45774382	-52.49284093	91.00913279	-66
41110	0	0.224807739	-0.189026833	0.190773964	0.999537468	0.013523102	0.011981964	0.02445507	5.620193481	-4.725670815	4.769349098	0.676259317	0.599190554	1.222942008	-0.565673828	-0.063476563	-0.839355469	895.8	-44.19737367	-49.50920786	92.66217046	-69
41111	0	0.215026855	-0.168457031	0.240539551	0.999530792	0.01680851	0.013671875	0.021648407	5.375671387	-4.211425781	6.01348877	0.840556947	0.683700675	1.082589657	-0.548828125	-0.062011719	-0.860595703	895.82	-43.05997813	-46.61736435	93.70671062	-68
41112	0	0.182882309	-0.172211647	0.234422684	0.999644279	0.012042046	0.013751984	0.019377708	4.572057724	-4.305291176	5.860567093	0.602173513	0.687680531	0.969000049	-0.526855469	-0.067138672	-0.875732422	895.86	-42.24131228	-43.90459564	94.48591636	-71
41113	0	0.159912109	-0.172058105	0.227050781	0.999681473	0.015500069	0.011070251	0.016525269	3.997802734	-4.301452637	5.676269531	0.775085593	0.553571252	0.826351021	-0.507568359	-0.068115234	-0.891357422	895.9	-40.98428686	-41.64647337	95.21645696	-65
41114	0	0.142492294	-0.16474247	0.226366043	0.999710083	0.017796516	0.008160591	0.013968468	3.562307358	-4.118561745	5.659151077	0.889911627	0.408068903	0.698490735	-0.492919922	-0.079589844	-0.896972656	895.7	-39.46451357	-39.84398771	95.96804852	-69
41115	0	0.117004395	-0.151245117	0.222412109	0.999795914	0.015496254	0.005340576	0.011802673	2.925109863	-3.78112793	5.560302734	0.77486539	0.267046968	0.590173799	-0.482421875	-0.09765625	-0.904541016	895.8	-38.21919547	-38.46150125	96.75146872	-75
41116	0	0.094032288	-0.139507294	0.222836494	0.999789238	0.018172264	0.003046036	0.009033203	2.35080719	-3.487682343	5.570912361	0.908676988	0.15231248	0.451691862	-0.479248047	-0.115722656	-0.909179688	895.76	-36.59631157	-37.49476367	97.42781292	-69
41117	0	0.069763184	-0.125	0.219055176	0.999803543	0.018654823	0.000732422	0.006565094	1.74407959	-3.125	5.476379395	0.932802059	0.036623485	0.32827613	-0.473388672	-0.142333984	-0.907226563	895.86	-34.86618281	-36.92317998	98.00969539	-73
41118	0	0.057516098	-0.118260384	0.226441383	0.999855995	0.01618576	-0.001955032	0.004646301	1.437902451	-2.95650959	5.661034584	0.809326793	-0.0977563	0.232326192	-0.479248047	-0.170898438	-0.907470703	895.94	-33.41454293	-36.74183724	98.57968244	-71
41119	0	0.02923584	-0.106750488	0.214233398	0.999904633	0.01264286	-0.003967285	0.003871918	0.730895996	-2.668762207	5.355834961	0.632163101	-0.198370559	0.193602036	-0.485595703	-0.195068359	-0.899169922	895.9	-32.40559038	-36.81015796	99.20503662	-71
41120	0	-0.009561539	-0.076191902	0.219240189	0.999928474	0.009839058	-0.004377365	0.005059242	-0.239038467	-1.904797554	5.481004715	0.491964504	-0.21887342	0.252968081	-0.496582031	-0.216796875	-0.888183594	895.9	-31.81832992	-36.84923869	100.0089787	-71
41121	0	-0.072509766	-0.034362793	0.20135498	0.999909401	0.009807587	-0.001036644	0.009082794	-1.812744141	-0.859069824	5.033874512	0.490394026	-0.051833752	0.454153317	-0.508056641	-0.229736328	-0.883544922	895.86	-31.36571398	-36.32104044	101.0528501	-69
41122	0	-0.181303024	0.004698753	0.149454117	0.999741554	0.009830475	0.010227203	0.017753601	-4.532575607	0.117468834	3.736352921	0.491566058	0.511404192	0.887756475	-0.510009766	-0.238525391	-0.879882813	895.88	-31.00105189	-34.17218378	102.3589557	-69
41123	0	-0.37310791	0.105957031	-0.114379883	0.999615669	0.013057709	0.011612892	0.021518707	-9.327697754	2.648925781	-2.85949707	0.652969081	0.580718996	1.076073206	-0.500244141	-0.240966797	-0.888916016	895.94	-30.3960116	-31.66755498	103.9592835	-85
41124	0	-0.179577827	-0.101247787	-0.300813675	0.999058723	0.034424782	-0.025501251	0.006809235	-4.489445686	-2.531194687	-7.520341873	1.72177937	-1.27546279	0.340568599	-0.504638672	-0.249755859	-0.885009766	895.88	-27.77399083	-33.74101821	105.9621775	-69
41125	0	3.624450684	-1.313720703	1.933166504	0.987727165	0.0519104	0.108262062	0.099891663	90.61126709	-32.84301758	48.3291626	2.606189958	5.435355861	5.015115391	-0.564697266	-0.373535156	-0.816650391	895.94	-24.09795837	-17.50183377	112.0938288	-85
41126	0	0.667859077	0.221840858	-0.259662628	0.967763901	-0.179886818	0.128882408	0.120262146	16.69647694	5.546021461	-6.491565704	-9.092251899	6.514270104	6.078565055	-0.314208984	-0.223876953	-1.001464844	895.96	-45.52779571	2.568720701	114.9490234	-75
41127	0	-0.091918945	-1.094848633	0.176330566	0.999567986	-0.022891998	-0.012499809	0.01354599	-2.297973633	-27.37121582	4.40826416	-1.14476476	-0.625080474	0.677397044	-0.175537109	0.205322266	-1.030273438	895.82	-48.07748142	2.690375377	116.9298497	-86
41128	0	0.000624657	-0.243958473	0.350786209	0.999777794	-0.005677223	-0.010686874	-0.017245293	0.015616417	-6.09896183	8.769655228	-0.283882163	-0.534383255	-0.862328431	-0.206298828	0.199951172	-1.025390625	895.82	-48.7556083	0.369360203	116.4625074	-82
41129	0	0.028015137	-0.335266113	0.261352539	0.999685287	-0.013346672	-0.007549286	-0.019824982	0.700378418	-8.381652832	6.533813477	-0.667403488	-0.377503823	-0.99135289	-0.235107422	0.205322266	-1.015625	895.86	-50.29110863	-1.951633147	115.6065343	-91
41130	0	0.001263618	-0.18269825	0.26170063	0.999590874	-0.019382477	-0.007211685	-0.019740105	0.031590462	-4.567456245	6.542515755	-0.96925591	-0.360633398	-0.98713974	-0.264404297	0.221923828	-1.009521484	895.88	-52.48267165	-4.265392483	114.8145464	-91
41131	0	-0.069030762	-0.336853027	0.227600098	0.99886322	-0.032313347	0.01171875	-0.033000946	-1.725769043	-8.421325684	5.690002441	-1.616279376	0.58615946	-1.650672359	-0.280517578	0.260253906	-0.991699219	895.82	-55.88620837	-6.572468064	111.5031257	-85
41132	0	0.105565071	-0.419733047	0.140563011	0.999521255	0.006015778	0.001807213	-0.030282974	2.639126778	-10.49332619	3.514075279	0.300836852	0.090375053	-1.5143902	-0.276855469	0.284423828	-0.988037109	895.88	-54.91297113	-9.340166567	109.3375062	-84
41133	0	0.084960938	-0.297790527	0.234191895	0.999643326	0.00527668	-0.008625031	-0.024707794	2.124023438	-7.444763184	5.854797363	0.263865349	-0.431302768	-1.235536502	-0.298583984	0.243164063	-1.000732422	895.86	-54.16188815	-12.24887003	108.4698474	-84
41134	0	0.092514992	-0.295445442	0.226753235	0.999803543	-0.001343727	-0.010069847	-0.016967773	2.312874794	-7.386136055	5.668830872	-0.067190736	-0.503525182	-0.848443984	-0.331298828	0.2265625	-0.991699219	895.82	-54.28030694	-14.52989165	108.2551037	-84
41135	0	0.165466309	-0.291870117	0.195678711	0.999972343	3.05176E-05	-0.006037712	-0.004116058	4.136657715	-7.29675293	4.891967773	0.001525892	-0.301888292	-0.205804749	-0.357177734	0.218505859	-0.986816406	895.82	-54.36573672	-15.34838368	108.5526771	-82
41136	0	0.165271759	-0.302663803	0.190555573	0.999945641	0.001982689	0.000324249	0.010222435	4.131793976	-7.566595078	4.763889313	0.099136239	0.016212757	0.511130996	-0.364257813	0.21875	-0.980712891	895.88	-54.32533404	-14.40918374	109.2369787	-83
41137	0	0.149780273	-0.302062988	0.207397461	0.999771118	0.007958412	0.007915497	0.018177032	3.744506836	-7.551574707	5.184936523	0.397950883	0.395804952	0.90892077	-0.354736328	0.218505859	-0.984130859	895.76	-53.54374713	-12.2273882	109.7597212	-83
41138	0	0.129457474	-0.343419075	0.200068474	0.999890327	0.001197815	0.007917404	0.012401581	3.236436844	-8.585476875	5.001711845	0.059892923	0.395884588	0.620101564	-0.326171875	0.217529297	-0.997070313	895.88	-53.44599491	-10.58252205	109.8847012	-85
41139	0	0.023864746	-0.303588867	0.246765137	0.999982834	0.004071236	0.00345993	0.002124786	0.596618652	-7.58972168	6.169128418	0.203562905	0.172997474	0.106239904	-0.309570313	0.221191406	-0.998291016	895.8	-52.96282988	-10.18381614	109.7099481	-89
41140	0	0.020316124	-0.290390968	0.246906281	0.999998093	-0.001533508	-0.000466347	-0.000839233	0.507903099	-7.259774208	6.172657013	-0.076675457	-0.02331735	-0.041961693	-0.3046875	0.216552734	-1.001220703	895.76	-53.14908887	-10.32324251	109.6883682	-89
41141	0	0.034973145	-0.320007324	0.261352539	0.999978065	-0.000297546	-0.004908562	-0.004253387	0.874328613	-8.000183105	6.533813477	-0.014877424	-0.245429815	-0.212670871	-0.307128906	0.216796875	-0.995117188	895.9	-53.22514103	-11.07812721	109.8381568	-90
41142	0	0.051224709	-0.297962189	0.265274048	0.999959946	-0.000685692	-0.006020546	-0.006510735	1.280617714	-7.449054718	6.631851196	-0.034285044	-0.301031267	-0.32554102	-0.318847656	0.215087891	-0.997314453	895.82	-53.33561689	-12.11423676	109.9330996	-90
41143	0	0.082946777	-0.286254883	0.205444336	0.999967575	-0.00347805	-0.005592346	-0.004516602	2.073669434	-7.15637207	5.136108398	-0.17390436	-0.279620282	-0.225832478	-0.333251953	0.215576172	-0.990722656	895.74	-53.7904398	-12.93656745	110.1343033	-87
41144	0	0.083498955	-0.299596786	0.335950851	0.999762535	-0.012173653	-0.015789032	-0.008731842	2.087473869	-7.489919662	8.398771286	-0.608730702	-0.789513944	-0.436626581	-0.34765625	0.216064453	-0.984375	895.82	-55.41193381	-14.82419665	111.0294502	-88
41145	0	0.216247559	-0.359008789	0.32043457	0.998995781	-0.010314941	-0.043196678	-0.00579071	5.406188965	-8.975219727	8.010864258	-0.515919648	-2.160556623	-0.289632406	-0.39453125	0.248779297	-0.952636719	895.86	-57.71264614	-18.13559552	114.905206	-90
41146	0	0.331832886	-0.387599945	0.109036446	0.995961189	0.049819946	-0.069208145	-0.028087616	8.295822144	-9.689998627	2.72591114	2.494356046	-3.465073091	-1.406274392	-0.491699219	0.228271484	-0.908203125	895.86	-53.89431663	-25.30313127	119.9485051	-82
41147	0	0.147094727	-0.24822998	0.155822754	0.995609283	0.041592598	-0.075679779	-0.036113739	3.677368164	-6.205749512	3.895568848	2.08267874	-3.78953647	-1.808334178	-0.636474609	0.091796875	-0.831054688	895.88	-51.63394669	-33.89626008	124.9555106	-79
41148	0	-0.180243492	-0.267510414	0.272749901	0.998758316	0.004772186	-0.045365334	-0.019981384	-4.506087303	-6.687760353	6.81874752	0.238708051	-2.269205292	-0.999482631	-0.748046875	-0.000976563	-0.736328125	895.9	-53.10751133	-38.90152668	128.3260589	-72
41149	0	0.146362305	-0.174804688	0.131591797	0.999361992	-0.00037384	-0.034964561	-0.007202148	3.659057617	-4.370117188	3.289794922	-0.018695989	-1.748599648	-0.36018396	-0.800292969	-0.020996094	-0.674072266	895.94	-55.52770464	-41.92288077	131.969907	-70
41150	0	0.334794998	-0.273488998	0.15519619	0.999530792	-0.000756264	-0.030201912	-0.005031586	8.369874954	-6.83722496	3.879904747	-0.037819101	-1.510331785	-0.251618633	-0.846191406	-0.030029297	-0.610351563	895.82	-58.04861806	-44.31549089	135.5158929	-75
41151	0	0.332214355	-0.302490234	0.142822266	0.999697685	-0.008037567	-0.019942284	-0.011924744	8.305358887	-7.562255859	3.570556641	-0.401918857	-0.997214668	-0.59629727	-0.877197266	-0.039550781	-0.564453125	895.86	-60.27455276	-46.67344217	137.3341218	-74
41152	0	0.277916908	-0.243265152	0.147927284	0.999580383	-0.007453918	-0.018950462	-0.020572662	6.947922707	-6.081628799	3.698182106	-0.37274799	-0.947655491	-1.028776823	-0.895996094	-0.058837891	-0.532958984	895.86	-62.0055124	-49.79818976	138.4969571	-70
41153	0	0.283874512	-0.210388184	0.15838623	0.999203682	-0.009937286	-0.029410362	-0.025058746	7.096862793	-5.25970459	3.959655762	-0.49699622	-1.470908486	-1.25326993	-0.916748047	-0.090820313	-0.491699219	895.9	-65.39058231	-53.87791427	141.3370223	-70
41154	0	0.317708015	-0.263120651	0.038110733	0.99900341	0.00412178	-0.024942398	-0.036777496	7.942700386	-6.578016281	0.952768326	0.206157492	-1.247534256	-1.839485778	-0.937011719	-0.140869141	-0.434326172	895.9	-66.27307104	-58.90369395	142.9505445	-69
41155	0	0.360839844	-0.207397461	0.05480957	0.999026299	0.011791229	-0.013083458	-0.040447235	9.020996094	-5.184936523	1.370239258	0.589752863	-0.654385274	-2.023018313	-0.946044922	-0.222167969	-0.392578125	895.88	-63.86557365	-63.74893031	141.7427358	-66
41156	0	0.357503891	-0.177827835	0.039708138	0.999015808	0.012655258	-0.003378868	-0.042363167	8.937597275	-4.445695877	0.992703438	0.63297045	-0.168998817	-2.118853079	-0.930908203	-0.308837891	-0.368896484	895.88	-57.91036429	-68.19281856	136.8129936	-66
41157	0	0.366210938	-0.15637207	0.075073242	0.999000549	0.01548481	0.002319336	-0.041843414	9.155273438	-3.909301758	1.876831055	0.774498293	0.11600541	-2.092867347	-0.903564453	-0.398193359	-0.357177734	895.88	-47.59454183	-71.87040162	127.7329683	-66
41158	0	0.364868164	-0.093688965	0.06262207	0.9989748	0.017593384	0.004508972	-0.041461945	9.121704102	-2.342224121	1.565551758	0.879969867	0.225525668	-2.073805828	-0.866699219	-0.488037109	-0.348876953	895.86	-32.41569614	-74.56065582	113.9955162	-65
41159	0	0.480773926	-0.08782959	0.049621582	0.998904228	0.017444611	0.014737129	-0.040843964	12.01934814	-2.195739746	1.240539551	0.872549168	0.737125645	-2.042944226	-0.818115234	-0.571777344	-0.341552734	895.86	-12.21895646	-74.79609397	95.1458757	-65
41160	0	0.515175819	-0.047335625	0.03235817	0.9985466	0.017015457	0.034800529	-0.037451744	12.87939548	-1.183390617	0.808954239	0.851185062	1.740869527	-1.873494483	-0.7578125	-0.649169922	-0.355957031	895.9	4.59353528	-71.09174977	79.63120627	-66
41161	0	0.589599609	0.026367188	0.049377441	0.998699188	0.008027077	0.046226501	-0.019962311	14.73999023	0.659179688	1.234436035	0.401527948	2.312327751	-0.998548533	-0.683349609	-0.714111328	-0.392089844	895.82	9.586254653	-65.57759623	75.27662813	-68
41162	0	0.914180756	0.033729553	-0.826152802	0.992863655	-0.105289459	0.028280258	0.048327446	22.85451889	0.843238831	-20.65382004	-5.277031337	1.41738603	2.422136544	-0.636962891	-0.713867188	-0.466796875	895.9	-13.61687847	-62.21252767	87.71981539	-73
41163	0	0.872192383	0.172058105	-0.603149414	0.994438171	-0.101241112	-0.003765106	0.028762817	21.80480957	4.301452637	-15.07873535	-5.071460013	-0.188605056	1.440812686	-0.676513672	-0.488037109	-0.650878906	895.86	-31.28335332	-61.48682689	94.60398835	-80
41164	0	0.626610756	0.007538795	-0.214809418	0.999281883	-0.027523994	-0.025787354	0.003417969	15.6652689	0.188469887	-5.370235443	-1.376528902	-1.289676085	0.170939315	-0.702392578	-0.361083984	-0.697509766	895.76	-38.40721113	-63.84427942	98.90632389	-76
41165	0	0.085083008	-0.099487305	0.182006836	0.993863106	-0.081726074	-0.061553001	-0.042041779	2.127075195	-2.487182617	4.550170898	-4.094682879	-3.083960944	-2.106399366	-0.740234375	-0.32421875	-0.660888672	895.86	-51.93723805	-72.38779023	103.1629012	-79
41166	0	-0.252952576	-0.397061348	0.681591988	0.988232613	-0.111509323	-0.07563591	-0.072397232	-6.323814392	-9.926533699	17.03979969	-5.597439341	-3.796699743	-3.634127654	-0.792724609	-0.277832031	-0.612792969	895.88	-91.82672743	-83.38418642	130.4446349	-82
41167	0	-0.175354004	-0.803649902	0.966918945	0.997425079	0.018414497	-0.041507721	-0.05550766	-4.383850098	-20.09124756	24.17297363	0.921515929	-2.077169158	-2.777767524	-0.833251953	-0.306884766	-0.536132813	895.86	-176.2456616	-85.13644807	-143.0784697	-74
41168	0	0.492858887	-0.673279762	0.402716637	0.999002457	0.036407471	0.018523216	0.018039703	12.32147217	-16.83199406	10.06791592	1.820979063	0.92646889	0.902285204	-0.822021484	-0.430664063	-0.468505859	895.94	-134.5237019	-86.26811861	179.3253635	-78
41169	0	0.602111816	0.331481934	-0.129516602	0.999546051	-0.0049963	0.019287109	0.022590637	15.05279541	8.28704834	-3.237915039	-0.249852778	0.964501354	1.129702733	-0.827880859	-0.390869141	-0.494628906	895.76	-94.9344976	-84.761441	139.1084394	-82
41170	0	0.477369308	-0.044779778	0.04029274	0.999398232	-0.017131805	0.024187088	0.017996788	11.93423271	-1.119494438	1.007318497	-0.856762024	1.209596886	0.900019826	-0.819580078	-0.347167969	-0.5390625	895.9	-73.94761834	-82.40526387	116.0811673	-72
41171	0	0.301574707	-0.036010742	-0.030273438	0.999458313	-0.014761925	0.020915985	0.02066803	7.539367676	-0.900268555	-0.756835938	-0.738229474	1.045988037	1.033588033	-0.802001953	-0.294921875	-0.587890625	895.9	-66.52673771	-79.36762547	106.8919948	-68
41172	0	0.395632744	-0.093942642	0.069052696	0.999663353	-0.009951591	0.014665604	0.018915176	9.890818596	-2.348566055	1.726317406	-0.497635312	0.733362322	0.945864761	-0.791503906	-0.244628906	-0.630126953	895.86	-64.63905779	-76.70715889	103.8030821	-69
41173	0	0.38458252	-0.09185791	0.039123535	0.999681473	-0.011755943	0.012638092	0.018409729	9.614562988	-2.296447754	0.978088379	-0.587859572	0.631971692	0.920584179	-0.783447266	-0.203125	-0.654052734	895.82	-64.417184	-74.1876411	102.1909201	-69
41174	0	0.449607849	-0.130867958	0.089464188	0.999780655	-0.005301476	0.011500359	0.016655922	11.24019623	-3.271698952	2.236604691	-0.265093121	0.575059893	0.832856873	-0.772949219	-0.161376953	-0.678466797	895.94	-63.83958346	-71.90157667	100.9460147	-67
41175	0	0.422363281	-0.191345215	0.057250977	0.99979496	-0.002708435	0.013062477	0.015224457	10.55908203	-4.783630371	1.431274414	-0.135431003	0.653168467	0.761274834	-0.759765625	-0.131103516	-0.696044922	895.82	-62.55451767	-69.67254546	99.25019804	-67
41176	0	0.372466087	-0.125222206	0.034715652	0.99981308	-0.003225327	0.014685631	0.012148857	9.311652184	-3.130555153	0.867891312	-0.161276372	0.734327277	0.607480692	-0.743652344	-0.105224609	-0.719238281	895.82	-60.80895789	-67.65201267	96.97084491	-67
41177	0	0.405151367	-0.125854492	0.102661133	0.999803543	0.001618385	0.017047882	0.009941101	10.12878418	-3.146362305	2.56652832	0.080924554	0.852449814	0.49708754	-0.722900391	-0.081787109	-0.745605469	895.88	-58.05114646	-65.68078238	94.1518685	-68
41178	0	0.559907913	-0.068543434	0.065005302	0.999637604	0.01495266	0.021807671	0.004874229	13.99769783	-1.713585854	1.625132561	0.747723089	1.090514948	0.243740845	-0.698974609	-0.076171875	-0.770263672	895.86	-52.63429595	-63.80978483	90.03032737	-71
41179	0	0.602844238	0.035888672	-0.084594727	0.999225616	0.027543068	0.027778625	-0.004112244	15.07110596	0.897216797	-2.114868164	1.377508762	1.389289679	-0.20566524	-0.661865234	-0.102050781	-0.804931641	895.86	-44.18510818	-62.07392917	84.04550233	-72
41180	0	0.49928093	0.018128395	-0.256358147	0.998709679	0.045495033	0.016370773	0.015501976	12.48202324	0.453209877	-6.408953667	2.275730226	0.818890788	0.775432236	-0.615966797	-0.163574219	-0.828369141	895.82	-39.1151443	-59.53800939	84.14336949	-68
41181	0	0.470825195	0.122924805	-0.036743164	0.999109268	0.005948067	0.014816284	0.039051056	11.77062988	3.073120117	-0.918579102	0.29749163	0.741034146	1.95313248	-0.600830078	-0.181884766	-0.836181641	895.9	-42.03330786	-55.39606567	88.39069258	-69
41182	0	0.409936905	0.066340446	-0.092054367	0.999047279	0.034433365	0.000793457	0.026784897	10.24842262	1.658511162	-2.301359177	1.722214973	0.03968545	1.339670131	-0.592285156	-0.155517578	-0.84765625	895.86	-41.21453073	-53.36509047	92.1274175	-70
41183	0	0.300537109	0.03527832	0.03302002	0.999682426	0.020530701	-0.014540672	-0.000606537	7.513427734	0.881958008	0.825500488	1.026643417	-0.727110376	-0.030330045	-0.603271484	-0.190429688	-0.823974609	895.88	-40.30082785	-54.75642023	93.76803168	-75
41184	0	0.22531414	-0.083093643	0.178610802	0.998685837	0.009550095	-0.039402962	-0.031331062	5.632853508	-2.07734108	4.465270042	0.47771392	-1.971011189	-1.567239407	-0.630615234	-0.224853516	-0.790527344	895.82	-39.43342603	-60.60582384	93.82455356	-66
41185	0	0.416442871	-0.106872559	0.265869141	0.997215271	-0.002390862	-0.056213379	-0.048942566	10.41107178	-2.671813965	6.646728516	-0.119654151	-2.813280524	-2.449402085	-0.680908203	-0.295654297	-0.724365234	895.86	-39.14543409	-69.22694417	92.98413235	-72
41186	0	0.576568604	-0.162791252	0.302492142	0.997240067	-0.029265404	-0.044909477	-0.051364899	14.41421509	-4.069781303	7.562303543	-1.464617711	-2.247541716	-2.570610028	-0.72265625	-0.353515625	-0.647949219	895.82	-37.8412871	-76.99939307	88.00106177	-66
41187	0	0.612243652	-0.165710449	0.274902344	0.9985075	-0.012386322	-0.034823418	-0.04019165	15.30609131	-4.14276123	6.872558594	-0.619624259	-1.742037251	-2.010582443	-0.733642578	-0.390380859	-0.598144531	895.86	-30.1504356	-82.9609165	78.65196187	-69
41188	0	0.627487183	-0.063765526	0.204652786	0.999102592	-0.005671501	-0.030275345	-0.029073715	15.68717957	-1.594138145	5.116319656	-0.283659918	-1.514220236	-1.454120774	-0.739501953	-0.440917969	-0.555908203	895.82	-4.678900291	-87.42461939	52.38017906	-67
41189	0	0.559814453	-0.071838379	0.190002441	0.999568939	-0.005923271	-0.01947403	-0.021129608	13.99536133	-1.795959473	4.750061035	-0.296206064	-0.973841222	-1.056632033	-0.743408203	-0.473632813	-0.518310547	895.86	81.58387717	-87.74083728	-34.65244586	-63
41190	0	0.506971359	-0.060968399	0.129534721	0.999686241	-0.011590958	-0.014194489	-0.017046928	12.67428398	-1.524209976	3.238368034	-0.579608407	-0.709798546	-0.852435435	-0.740722656	-0.491210938	-0.494140625	895.88	106.1762558	-85.58964312	-60.62119669	-71
41191	0	0.465026855	-0.054443359	0.098266602	0.999624252	-0.018965721	-0.011650085	-0.015995026	11.62567139	-1.361083984	2.456665039	-0.948404832	-0.582577233	-0.799851453	-0.735595703	-0.500244141	-0.490722656	895.88	110.9880477	-83.39208599	-67.63618058	-67
41192	0	0.430689812	-0.054777145	0.066757202	0.999424934	-0.028470039	-0.010297775	-0.015248299	10.76724529	-1.369428635	1.668930054	-1.423774733	-0.514987424	-0.762561023	-0.730957031	-0.498291016	-0.491210938	895.74	111.1531214	-81.31350364	-71.07291786	-72
41193	0	0.411071777	-0.076599121	0.031066895	0.999371529	-0.030448914	-0.009253502	-0.015598297	10.27679443	-1.914978027	0.776672363	-1.522764576	-0.462772008	-0.78007822	-0.7265625	-0.487548828	-0.506591797	895.82	109.7401118	-79.25324113	-73.16737812	-66
41194	0	0.403414726	-0.091044426	-0.000482559	0.999789238	-0.015136719	-0.004802704	-0.012965202	10.08536816	-2.276110649	-0.01206398	-0.756888962	-0.240152017	-0.648305534	-0.721923828	-0.4765625	-0.516357422	895.82	108.1348124	-77.66322158	-73.31623048	-66
41195	0	0.369934082	-0.053955078	-0.009399414	0.999975204	-0.000510216	0.001785278	-0.006748199	9.248352051	-1.348876953	-0.234985352	-0.025510996	0.089264645	-0.337412728	-0.714599609	-0.481201172	-0.519287109	895.94	106.1470114	-76.98472435	-71.36231252	-67
41196	0	0.276193619	-0.035094261	0.000519753	0.999828339	0.016195297	0.008675575	0.002385139	6.904840469	-0.877356529	0.012993813	0.809811193	0.433803582	0.119263797	-0.709472656	-0.488037109	-0.524902344	895.76	104.0298334	-77.51231993	-67.33178778	-62
41197	0	0.220825195	0.01171875	0.012756348	0.999688148	0.018627167	0.012665749	0.010765076	5.520629883	0.29296875	0.318908691	0.931455114	0.633353234	0.538309714	-0.709228516	-0.496826172	-0.512695313	895.94	100.5390899	-79.03413367	-61.60607665	-63
41198	0	0.186296463	0.028089523	0.026320457	0.999753952	0.002772331	0.015387535	0.015693665	4.657411575	0.702238083	0.658011436	0.138627902	0.769439698	0.784747423	-0.70703125	-0.490478516	-0.521972656	895.86	91.90631614	-81.02406838	-52.50826848	-65
41199	0	0.17565918	0.005004883	0.038757324	0.999576569	-0.015856743	0.016860962	0.017597198	4.391479492	0.12512207	0.968933105	-0.792948895	0.843166925	0.879983942	-0.708007813	-0.461669922	-0.541503906	895.82	74.75237654	-82.82149373	-36.97339816	-71
41200	0	0.195285797	-0.034538269	0.046071053	0.999375343	-0.024495125	0.018100739	0.017916679	4.882144928	-0.863456726	1.151776314	-1.225011267	0.905225379	0.896020505	-0.704589844	-0.408935547	-0.586425781	895.8	47.968374	-83.64617279	-12.78953205	-77
41201	0	0.266174316	-0.060302734	0.046936035	0.99947834	-0.021320343	0.017746925	0.016494751	6.65435791	-1.507568359	1.173400879	-1.066202296	0.887500381	0.824880789	-0.696777344	-0.352050781	-0.629150391	895.76	21.92094387	-83.04181769	10.99759684	-74
41202	0	0.299779892	-0.055230141	0.048514366	0.999533653	-0.019714355	0.017227173	0.015668869	7.494497299	-1.380753517	1.212859154	-0.985870779	0.861492345	0.783565059	-0.684082031	-0.303955078	-0.668457031	895.82	3.386535543	-81.48006333	27.44019669	-70
41203	0	0.328491211	-0.077514648	0.078186035	0.999599457	-0.021483421	0.011726379	0.014152527	8.212280273	-1.937866211	1.954650879	-1.074314222	0.586397109	0.707720649	-0.668945313	-0.25390625	-0.702392578	895.7	-8.777385889	-80.03831218	37.27987984	-69
41204	0	0.397842407	-0.149018288	0.14120388	0.999918938	-0.003054619	0.007574081	0.009721756	9.946060181	-3.725457191	3.530097008	-0.152735046	0.378714247	0.48610086	-0.658691406	-0.207763672	-0.727050781	895.76	-14.20380641	-78.94012929	42.40227628	-73
41205	0	0.450439453	-0.139892578	0.119995117	0.999639511	0.023369789	0.010009766	0.008571625	11.26098633	-3.497314453	2.99987793	1.168629684	0.500548344	0.428632671	-0.651611328	-0.203613281	-0.733398438	895.76	-14.83713591	-77.55383899	45.70653632	-79
41206	0	0.454823494	-0.095373154	0.118708611	0.999009132	0.0396595	0.013513565	0.015002251	11.37058735	-2.384328842	2.967715263	1.983630157	0.675901489	0.750360362	-0.640625	-0.235107422	-0.737304688	895.8	-15.64115892	-75.57297903	51.11845105	-67
41207	0	0.431518555	-0.018737793	0.108886719	0.998890877	0.036727905	0.015767097	0.024860382	10.78796387	-0.468444824	2.722167969	1.837074054	0.788646275	1.243478563	-0.629638672	-0.273193359	-0.737548828	895.88	-19.2376182	-72.95401205	59.16347686	-64
41208	0	0.400003433	0.014642715	0.106826782	0.999232292	0.01734066	0.015356064	0.031592369	10.00008583	0.366067886	2.670669556	0.867254914	0.767999704	1.580022743	-0.619628906	-0.282470703	-0.749023438	895.74	-25.28900394	-69.91022867	67.60405916	-65
41209	0	0.37689209	-0.009765625	0.123291016	0.999465942	0.002839088	0.012310028	0.030132294	9.422302246	-0.244140625	3.082275391	0.141979691	0.61561097	1.506882879	-0.617919922	-0.258300781	-0.759765625	895.7	-31.00991394	-66.99821361	74.08264325	-69
41210	0	0.35995388	-0.055400848	0.143839836	0.999655724	0.005662918	0.011556625	0.022844315	8.998847008	-1.38502121	3.595995903	0.283178358	0.577897497	1.142346646	-0.612060547	-0.225341797	-0.774414063	895.76	-33.69639679	-64.44353895	77.70640566	-70
41211	0	0.342773438	-0.06427002	0.128967285	0.999806404	0.008735657	0.01095295	0.013790131	8.569335938	-1.606750488	3.224182129	0.436810974	0.547682755	0.689550948	-0.60546875	-0.209960938	-0.781738281	895.82	-33.92353092	-62.48937079	79.03975061	-69
41212	0	0.327667236	-0.081660271	0.187942505	0.999814034	0.01604557	0.009689331	0.004523277	8.191680908	-2.041506767	4.698562622	0.802328242	0.484496579	0.226177881	-0.593261719	-0.210693359	-0.796875	895.76	-31.76550128	-61.24294961	78.61141051	-67
41213	0	0.340637207	-0.081665039	0.190124512	0.999735832	0.020313263	0.010144234	-0.003437042	8.515930176	-2.041625977	4.753112793	1.015752436	0.507256275	-0.17186722	-0.575683594	-0.235595703	-0.798583984	895.86	-27.78251474	-60.39671798	76.64243848	-66
41214	0	0.361307144	-0.062870979	0.179362297	0.99982357	0.012168884	0.011421204	-0.008595467	9.032678604	-1.571774483	4.484057426	0.608479956	0.571093727	-0.429798577	-0.562255859	-0.271484375	-0.802001953	895.82	-23.85522578	-59.61581076	73.66596579	-66
41215	0	0.36907959	-0.06048584	0.175354004	0.999893188	0.0002985	0.012214661	-0.007949829	9.226989746	-1.512145996	4.383850098	0.014925532	0.610754663	-0.397505533	-0.534912109	-0.294677734	-0.810302734	895.78	-21.50489396	-58.64572204	70.93411492	-68
41216	0	0.356363297	-0.065318108	0.169548988	0.999897957	-0.005656242	0.012952805	-0.0019207	8.909082413	-1.63295269	4.238724709	-0.282821709	0.647662191	-0.09603826	-0.510742188	-0.300048828	-0.822753906	895.88	-20.96093393	-57.31436595	69.51144459	-69
41217	0	0.329467773	-0.079650879	0.167907715	0.999891281	-0.008101463	0.011528015	0.004257202	8.236694336	-1.991271973	4.197692871	-0.405087794	0.576421572	0.212867794	-0.489746094	-0.285400391	-0.842529297	895.84	-21.84493587	-55.880834	69.43747916	-72
41218	0	0.3211689	-0.091064453	0.179430962	0.999901772	-0.005548477	0.010599136	0.007183075	8.029222488	-2.276611328	4.48577404	-0.277432863	0.529974018	0.359165405	-0.473632813	-0.266113281	-0.856445313	895.74	-22.90930552	-54.42020136	69.93370138	-75
41219	0	0.316162109	-0.094787598	0.172668457	0.999915123	-0.006244659	0.009507179	0.006286621	7.904052734	-2.369689941	4.316711426	-0.312241761	0.475372346	0.314339904	-0.462158203	-0.250976563	-0.872802734	895.78	-23.93700187	-53.11196958	70.29430177	-79
41220	0	0.310516357	-0.097973824	0.172301292	0.999928474	-0.008095741	0.007061005	0.005079269	7.762908936	-2.449345589	4.30753231	-0.40479659	0.353058541	0.253969447	-0.448730469	-0.233886719	-0.880615234	895.66	-25.12051864	-52.11415984	70.59115144	-82
41221	0	0.31048584	-0.112731934	0.181640625	0.999968529	-0.005252838	0.004311562	0.003959656	7.762145996	-2.81829834	4.541015625	-0.262644615	0.215580302	0.197984829	-0.439697266	-0.214355469	-0.891601563	895.76	-25.97590684	-51.45442399	70.87434252	-83
41222	0	0.307868004	-0.112625122	0.18161869	0.999990463	-0.000166893	0.002635002	0.003273964	7.696700096	-2.815628052	4.540467262	-0.008344675	0.131750495	0.163698679	-0.433105469	-0.203613281	-0.895751953	895.76	-26.25446328	-51.00166954	71.15576036	-82
41223	0	0.307739258	-0.117858887	0.196044922	0.999990463	0.00332737	0.000564575	0.00258255	7.693481445	-2.946472168	4.901123047	0.166368985	0.028228845	0.129127891	-0.428466797	-0.201416016	-0.898925781	895.76	-26.17130283	-50.79764646	71.47539169	-81
41224	0	0.302553177	-0.109045982	0.202665329	0.999990463	0.003318787	-0.000758171	0.0026474	7.563829422	-2.726149559	5.066633224	0.165939845	-0.037908672	0.132370405	-0.432861328	-0.205810547	-0.895507813	895.82	-26.17817892	-50.72752135	71.91690845	-78
41225	0	0.300964355	-0.118164063	0.219848633	0.999984741	0.004052162	-0.001728058	0.003051758	7.524108887	-2.954101563	5.49621582	0.202609078	-0.086403307	0.152588621	-0.432861328	-0.208007813	-0.898193359	895.76	-26.21162455	-50.73670671	72.49113114	-77
41226	0	0.304469109	-0.115960121	0.230111122	0.999975204	0.005841255	-0.001736641	0.003341675	7.611727715	-2.899003029	5.752778053	0.292065111	-0.086832746	0.167085085	-0.442138672	-0.216308594	-0.888183594	895.86	-26.07679925	-50.73239588	73.12655861	-76
41227	0	0.292724609	-0.112915039	0.247741699	0.999976158	0.005558014	-0.001093864	0.00384903	7.318115234	-2.822875977	6.19354248	0.277902868	-0.05469365	0.192452982	-0.441894531	-0.223144531	-0.890625	895.78	-25.99655579	-50.63614044	73.78421985	-76
41228	0	0.292189598	-0.104317665	0.234895706	0.999979973	0.004475594	-0.00097847	0.00434494	7.304739952	-2.607941628	5.872392654	0.223781165	-0.048923818	0.217248453	-0.446289063	-0.229492188	-0.884033203	895.76	-26.09185327	-50.5026114	74.51879288	-76
41229	0	0.306213379	-0.094909668	0.216674805	0.999986649	0.001229286	-0.002063751	0.004402161	7.655334473	-2.372741699	5.416870117	0.061464567	-0.103187994	0.220108955	-0.450927734	-0.231689453	-0.886474609	895.76	-26.62938184	-50.47585147	75.34559124	-75
41230	0	0.279416084	-0.092861176	0.195055962	0.999982834	-0.002686501	-0.003783226	0.003461838	6.985402107	-2.321529388	4.87639904	-0.134325778	-0.189162357	0.173092855	-0.456054688	-0.227050781	-0.877929688	895.88	-27.60911174	-50.66716867	76.170945	-75
41231	0	0.266601563	-0.094848633	0.162597656	0.999966621	-0.005554199	-0.005667686	0.001853943	6.665039063	-2.37121582	4.064941406	-0.277713035	-0.28338746	0.09269817	-0.463623047	-0.217773438	-0.878417969	895.76	-28.856227	-51.12676806	76.91016278	-72
41232	0	0.329821587	-0.106856346	0.127906799	0.999958038	-0.003519058	-0.008164406	-0.002085686	8.245539665	-2.671408653	3.197669983	-0.175955357	-0.408225965	-0.104285736	-0.475830078	-0.208496094	-0.878417969	895.72	-29.57692964	-52.05231924	77.2560125	-71
41233	0	0.391479492	-0.114807129	0.131896973	0.999917984	0.003811836	-0.010257721	-0.006561279	9.786987305	-2.870178223	3.297424316	0.190596984	-0.512899965	-0.328072867	-0.487792969	-0.208007813	-0.866210938	895.9	-29.04179863	-53.44333328	77.05891439	-69
41234	0	0.387940407	-0.108377457	0.160237312	0.999858856	0.009661674	-0.010884285	-0.008364677	9.69851017	-2.709436417	4.005932808	0.483106415	-0.54423981	-0.418253516	-0.506347656	-0.229492188	-0.849121094	895.76	-27.59303462	-54.99790481	76.56864816	-69
41235	0	0.32989502	-0.098022461	0.18170166	0.999807358	0.015229225	-0.010299683	-0.006855011	8.247375488	-2.450561523	4.542541504	0.761510127	-0.515017182	-0.342772547	-0.519775391	-0.255371094	-0.831787109	895.76	-25.60098732	-56.40767748	76.19535618	-72
41236	0	0.317538261	-0.072870255	0.178859711	0.999825478	0.015688896	-0.009080887	-0.004443169	7.938456535	-1.821756363	4.471492767	0.784490359	-0.454070707	-0.222171332	-0.532714844	-0.290283203	-0.819335938	895.82	-23.7668517	-57.56902995	76.07801212	-72
41237	0	0.312316895	-0.057373047	0.189208984	0.999903679	0.010417938	-0.00796032	-0.004356384	7.807922363	-1.434326172	4.730224609	0.520913484	-0.398028639	-0.217826144	-0.541259766	-0.318603516	-0.799316406	895.82	-22.41451598	-58.60697015	75.83054275	-71
41238	0	0.300475121	-0.054880142	0.203918457	0.999958038	0.001666069	-0.006775856	-0.005841255	7.511878014	-1.372003555	5.097961426	0.083304601	-0.338797477	-0.29206679	-0.550048828	-0.338134766	-0.785644531	895.7	-21.67546808	-59.57963742	75.15056686	-73
41239	0	0.354309082	-0.073181152	0.186767578	0.999917984	-0.004523277	-0.007045746	-0.009635925	8.857727051	-1.829528809	4.669189453	-0.226170007	-0.352296861	-0.481809351	-0.5546875	-0.344726563	-0.773193359	895.86	-20.9124221	-60.73498437	73.64574476	-69
41240	0	0.44635582	-0.078001022	0.167010307	0.999840736	-0.008553505	-0.008701324	-0.013005257	11.15889549	-1.950025558	4.175257683	-0.427697918	-0.435089286	-0.650297303	-0.559326172	-0.351074219	-0.76953125	895.78	-19.96624187	-62.19497143	71.43090211	-64
41241	0	0.309997559	-0.08026123	0.20880127	0.999871254	-0.008842468	-0.009013176	-0.009872437	7.749938965	-2.006530762	5.220031738	-0.442142345	-0.450678096	-0.493642963	-0.561523438	-0.353271484	-0.769287109	895.82	-19.58485388	-63.55190958	69.83896774	-63
41242	0	0.341539383	-0.072989464	0.208514214	0.999955177	-0.001680374	-0.007354736	-0.005590439	8.538484573	-1.824736595	5.212855339	-0.084019942	-0.36774222	-0.27952605	-0.571289063	-0.350585938	-0.763183594	895.72	-19.10943371	-64.55907021	69.06616504	-66
41243	0	0.367858887	-0.069763184	0.180847168	0.999979973	0.001487732	-0.004435539	-0.004165649	9.196472168	-1.74407959	4.521179199	0.074387083	-0.221778413	-0.208283833	-0.575927734	-0.359375	-0.753662109	895.7	-18.3235584	-65.19243738	68.36371244	-70
41244	0	0.364552498	-0.03728199	0.194521904	0.999973297	-0.005413055	-0.002547264	-0.003986359	9.113812447	-0.932049751	4.8630476	-0.270655102	-0.127364302	-0.199319649	-0.580322266	-0.365722656	-0.75	895.74	-18.19340498	-65.61024987	67.53488262	-68
41245	0	0.361206055	-0.051940918	0.196838379	0.999820709	-0.018416405	-0.002140045	-0.003837585	9.030151367	-1.298522949	4.920959473	-0.92087526	-0.107008652	-0.191890738	-0.578369141	-0.354736328	-0.750976563	895.78	-19.55016075	-65.98031155	66.7283998	-65
41246	0	0.355388641	-0.071633339	0.197159767	0.999825478	-0.018100739	-0.001346588	-0.004229546	8.884716034	-1.790833473	4.928994179	-0.905089327	-0.067333305	-0.211489524	-0.579345703	-0.330566406	-0.764404297	895.74	-20.71138163	-66.28559393	65.74579759	-63
41247	0	0.340881348	-0.065185547	0.188598633	0.999918938	-0.011985779	-0.000243187	-0.004089355	8.522033691	-1.629638672	4.71496582	-0.599304967	-0.012159673	-0.204473241	-0.575195313	-0.30859375	-0.775146484	895.82	-21.10119828	-66.47034739	64.67348859	-63
41248	0	0.352174759	-0.064684868	0.182315826	0.99993515	-0.010314941	0.000121117	-0.004757881	8.804368973	-1.617121696	4.55789566	-0.515758164	0.006055962	-0.237899175	-0.575683594	-0.297363281	-0.776123047	895.76	-21.09258134	-66.64351461	63.38454866	-65
41249	0	0.349121094	-0.065063477	0.178039551	0.999925613	-0.010870934	-1.14441E-05	-0.005405426	8.728027344	-1.626586914	4.45098877	-0.54356003	-0.000572219	-0.270277941	-0.571289063	-0.288818359	-0.782714844	895.88	-20.98761253	-66.85543836	61.92490999	-66
41250	0	0.354818344	-0.06367588	0.167855263	0.999918938	-0.011751175	-0.000272751	-0.004776001	8.870458603	-1.591897011	4.196381569	-0.587574511	-0.013637909	-0.238806456	-0.566894531	-0.277832031	-0.786865234	895.76	-21.15379976	-67.06868234	60.65606251	-68
41251	0	0.357543945	-0.069885254	0.161865234	0.999931335	-0.011019707	-0.000190735	-0.003974915	8.938598633	-1.747131348	4.046630859	-0.550997943	-0.009536961	-0.198750275	-0.5625	-0.264892578	-0.793945313	895.88	-21.42330363	-67.24091786	59.5889736	-69
41252	0	0.368124008	-0.072402954	0.151832581	0.999958992	-0.008002281	0.000213623	-0.004090309	9.203100204	-1.810073853	3.795814514	-0.400119449	0.010681296	-0.204518212	-0.562988281	-0.253662109	-0.797851563	895.76	-21.27217111	-67.37498785	58.43974538	-71
41253	0	0.36328125	-0.065429688	0.145446777	0.999956131	-0.008288383	0.000411987	-0.004196167	9.08203125	-1.635742188	3.636169434	-0.414425147	0.020599662	-0.209811374	-0.560791016	-0.247314453	-0.807128906	895.72	-21.10074694	-67.49100238	57.23276913	-72
41254	0	0.363817215	-0.063033104	0.142192841	0.999947548	-0.009775162	0.000236511	-0.002741814	9.095430374	-1.575827599	3.554821014	-0.488766488	0.011825765	-0.137093039	-0.55859375	-0.238525391	-0.813720703	895.78	-21.48932837	-67.56629291	56.4518619	-74
41255	0	0.36541748	-0.062194824	0.130615234	0.999947548	-0.010162354	-0.000201225	-0.001087189	9.135437012	-1.554870605	3.265380859	-0.508126526	-0.010061439	-0.054360383	-0.557128906	-0.220703125	-0.812255859	895.76	-22.39569008	-67.62141235	56.18426492	-76
41256	0	0.361450195	-0.062610626	0.121461868	0.999955177	-0.00939846	-0.001070023	0.00028801	9.036254883	-1.565265656	3.036546707	-0.469930034	-0.053501928	0.014400697	-0.557617188	-0.205322266	-0.81640625	895.76	-23.66575736	-67.70953981	56.40282241	-78
41257	0	0.359436035	-0.07232666	0.124938965	0.999975204	-0.006648064	-0.00213623	0.000865936	8.985900879	-1.808166504	3.123474121	-0.332405926	-0.106812405	0.043297171	-0.558105469	-0.192138672	-0.820556641	895.76	-24.8997193	-67.88062271	56.91524001	-76
41258	0	0.353097916	-0.069725037	0.128928185	0.999993324	-0.001838684	-0.002931595	-9.25064E-05	8.827447891	-1.743125916	3.223204613	-0.091934388	-0.146580035	-0.00462533	-0.563232422	-0.182861328	-0.818115234	895.7	-25.44529484	-68.17810044	57.26966902	-74
41259	0	0.36138916	-0.069763184	0.120239258	0.999990463	-0.000632286	-0.003700256	-0.001983643	9.034729004	-1.74407959	3.005981445	-0.031614399	-0.185013373	-0.099182427	-0.568115234	-0.182861328	-0.814941406	895.82	-25.46514302	-68.64816116	57.20397424	-71
41260	0	0.363865852	-0.06652832	0.124117851	0.999987602	-6.58035E-05	-0.003582001	-0.003268242	9.096646309	-1.663208008	3.102946281	-0.003290189	-0.179100739	-0.163412735	-0.570556641	-0.184814453	-0.811767578	895.82	-25.05476963	-69.16904233	56.74294027	-69
41261	0	0.364624023	-0.061279297	0.140014648	0.99998951	5.34058E-05	-0.003275871	-0.002998352	9.115600586	-1.531982422	3.500366211	0.002670297	-0.163794102	-0.149918095	-0.577392578	-0.186767578	-0.811035156	895.76	-24.64402049	-69.64348329	56.2946793	-67
41262	0	0.374271393	-0.060488701	0.1480093	0.99998951	-0.003177643	-0.002845764	-0.001057625	9.356784821	-1.512217522	3.700232506	-0.158882653	-0.142288666	-0.052881411	-0.582275391	-0.188964844	-0.807861328	895.76	-25.08584202	-69.97899456	56.37253861	-66
41263	0	0.380126953	-0.062438965	0.146179199	0.999991417	-0.003582001	-0.001727104	0.00069809	9.503173828	-1.560974121	3.65447998	-0.179100523	-0.086355444	0.034904575	-0.587158203	-0.184326172	-0.802246094	895.78	-25.93219831	-70.11116723	56.83982961	-66
41264	0	0.373632431	-0.058713913	0.139040947	0.999993324	-0.002518654	-0.000759125	0.002297401	9.340810776	-1.467847824	3.476023674	-0.12593295	-0.037956315	0.114870305	-0.58984375	-0.1796875	-0.802490234	895.78	-26.97857049	-70.05934452	57.65301233	-66
41265	0	0.365661621	-0.052490234	0.128295898	0.999990463	-0.003249168	-0.00037384	0.002880096	9.141540527	-1.312255859	3.207397461	-0.162458934	-0.018692076	0.144005278	-0.592529297	-0.170898438	-0.802978516	895.76	-28.20641276	-69.93211854	58.57150655	-66
41266	0	0.36427784	-0.055922508	0.120222092	0.999991417	-0.003259659	-0.000389099	0.002342224	9.106945992	-1.398062706	3.005552292	-0.162983382	-0.019455009	0.117111523	-0.593017578	-0.161865234	-0.797851563	895.82	-29.27651407	-69.8302335	59.3242404	-66
41267	0	0.368530273	-0.05871582	0.113098145	0.999995232	-0.0026474	-0.000273705	0.001003265	9.213256836	-1.467895508	2.827453613	-0.132370174	-0.013685245	0.050163337	-0.595703125	-0.155273438	-0.801269531	895.76	-29.88833069	-69.7895834	59.66076483	-66
41268	0	0.373596191	-0.061526299	0.112203598	0.999995232	-0.00282383	-0.000597	-0.000317574	9.339904785	-1.538157463	2.805089951	-0.141191681	-0.029850048	-0.0158787	-0.595703125	-0.150878906	-0.807373047	895.82	-30.21318057	-69.85663914	59.66452868	-66
41269	0	0.371948242	-0.061340332	0.111694336	0.99998951	-0.004249573	-0.000792503	-0.00113678	9.298706055	-1.533508301	2.792358398	-0.212479345	-0.0396253	-0.056839179	-0.595703125	-0.1484375	-0.8046875	895.88	-30.51123353	-69.99119328	59.47259071	-65
41270	0	0.371362686	-0.062727928	0.118262291	0.999967575	-0.007849693	-0.001095772	-0.00096035	9.284067154	-1.568198204	2.956557274	-0.392488835	-0.054789172	-0.048018012	-0.598388672	-0.141845703	-0.805175781	895.78	-31.32016172	-70.14618754	59.39413922	-64
41271	0	0.369689941	-0.071655273	0.117004395	0.999962807	-0.008499146	-0.000559807	-0.000190735	9.242248535	-1.791381836	2.925109863	-0.424962416	-0.02799068	-0.009536859	-0.599121094	-0.126220703	-0.800537109	895.82	-32.3280736	-70.20309732	59.4489323	-64
41272	0	0.367528915	-0.076237679	0.115372658	0.999984741	-0.005475998	-3.52859E-05	0.000394821	9.188222885	-1.905941963	2.884316444	-0.273801272	-0.001764306	0.019741158	-0.599609375	-0.113037109	-0.807373047	895.78	-33.05918666	-70.17297556	59.56738892	-64
41273	0	0.371826172	-0.074035645	0.110839844	0.999995232	-0.002693176	8.10623E-05	0.000644684	9.295654297	-1.850891113	2.770996094	-0.134658986	0.004053121	0.032234233	-0.599853516	-0.106201172	-0.807861328	895.76	-33.51657068	-70.11590716	59.73133413	-64
41274	0	0.373119354	-0.072192192	0.112038612	0.999995232	-0.002983093	0.000175476	0.000598907	9.327983856	-1.804804802	2.800965309	-0.149154894	0.008773817	0.02994542	-0.59765625	-0.102050781	-0.811279297	895.7	-33.97650355	-70.05265555	59.86215038	-64
41275	0	0.368469238	-0.074462891	0.113464355	0.999991417	-0.004039764	0.000115395	0.000278473	9.211730957	-1.861572266	2.836608887	-0.201988773	0.005769745	0.013923683	-0.598144531	-0.095214844	-0.806152344	895.76	-34.48254362	-70.01553586	59.91773034	-64
41276	0	0.366080284	-0.078672409	0.110108376	0.999995232	-0.002797127	0.000133514	6.48499E-05	9.152007103	-1.966810226	2.752709389	-0.139856521	0.006675729	0.003242497	-0.598388672	-0.088623047	-0.806640625	895.78	-34.7871846	-69.99063967	59.90749179	-64
41277	0	0.368103027	-0.077209473	0.111022949	0.999998093	-0.001532555	0.000160217	0.000141144	9.202575684	-1.930236816	2.77557373	-0.076627762	0.008010867	0.007057193	-0.598632813	-0.084228516	-0.806884766	895.86	-34.96148755	-69.95842584	59.91026369	-64
41278	0	0.366947174	-0.07661438	0.110234261	0.999999046	-0.001134872	-1.33514E-05	0.000227928	9.173679352	-1.915359497	2.755856514	-0.056743634	-0.000667572	0.011396411	-0.596191406	-0.08203125	-0.812988281	895.86	-35.14341735	-69.93698189	59.96439338	-64
41279	0	0.370300293	-0.075195313	0.112304688	0.999999046	-0.00063324	-6.67572E-06	6.86646E-05	9.257507324	-1.879882813	2.807617188	-0.031661989	-0.000333786	0.003433228	-0.596191406	-0.08203125	-0.810058594	895.86	-35.22504369	-69.925598	59.97689405	-63
41280	0	0.372855186	-0.072644234	0.113488197	0.999998093	-0.00151062	0.000138283	8.39233E-05	9.321379662	-1.816105843	2.837204933	-0.075531035	0.006914141	0.004196169	-0.598632813	-0.077636719	-0.813232422	895.88	-35.38379752	-69.89992406	59.96126965	-63
41281	0	0.373657227	-0.074462891	0.113586426	0.999996185	-0.002596855	-7.62939E-06	0.000476837	9.341430664	-1.861572266	2.839660645	-0.129842909	-0.00038147	0.023841886	-0.598876953	-0.075439453	-0.807617188	895.82	-35.79239782	-69.8619185	60.08748682	-64
41282	0	0.373705864	-0.078637123	0.111831665	0.999996185	-0.002617836	-0.00011158	0.000494957	9.342646599	-1.965928078	2.795791626	-0.130891955	-0.005579001	0.024747878	-0.598876953	-0.073242188	-0.807861328	895.78	-36.22584903	-69.83223973	60.24178631	-63
41283	0	0.37109375	-0.081237793	0.112060547	0.999998093	-0.001387596	-0.0001297	0.000347137	9.27734375	-2.030944824	2.801513672	-0.06937983	-0.006484988	0.017356879	-0.599365234	-0.06640625	-0.808349609	895.76	-36.48381093	-69.81406552	60.35208498	-64
41284	0	0.366366386	-0.080946922	0.111069679	0.999999046	0.00024128	-5.91278E-05	0.000517845	9.15915966	-2.023673058	2.776741982	0.012063981	-0.002956391	0.025892259	-0.599365234	-0.064208984	-0.80859375	895.74	-36.58426879	-69.7776823	60.48989535	-63
41285	0	0.36907959	-0.079956055	0.109069824	0.999999046	0.001049042	-0.000411034	0.000541687	9.226989746	-1.998901367	2.726745605	0.052452101	-0.020551687	0.027084358	-0.599365234	-0.064208984	-0.814453125	895.9	-36.66293989	-69.77217048	60.6971272	-64
41286	0	0.367188454	-0.081893921	0.109792709	0.999998093	0.001749992	-0.000775337	0.000217438	9.179711342	-2.047348022	2.744817734	0.087499673	-0.038766885	0.010871894	-0.599121094	-0.06640625	-0.811279297	895.82	-36.64814943	-69.82237725	60.89028842	-64
41287	0	0.36895752	-0.079467773	0.111572266	0.999996185	0.002251625	-0.001087189	9.53674E-05	9.223937988	-1.986694336	2.789306641	0.112581371	-0.054359493	0.004768377	-0.6015625	-0.068603516	-0.811035156	895.76	-36.6034784	-69.90974282	61.11031218	-64
41288	0	0.367600441	-0.078175545	0.112773895	0.999999046	0.000916481	-0.000938416	0.000248909	9.190011024	-1.954388618	2.819347382	0.045824065	-0.04692079	0.012445454	-0.603759766	-0.072998047	-0.807617188	895.88	-36.72278471	-69.97290793	61.34929243	-64
41289	0	0.367675781	-0.079956055	0.109436035	0.999999046	-0.000175476	-0.000739098	0.00056839	9.191894531	-1.998901367	2.735900879	-0.008773805	-0.036954885	0.028419499	-0.603759766	-0.072998047	-0.8046875	895.76	-37.0108844	-69.99563687	61.6369938	-64
41290	0	0.368963242	-0.081634521	0.107762337	0.999999046	-0.000638962	-0.000839233	0.00062561	9.224081039	-2.040863037	2.694058418	-0.031948098	-0.04196168	0.031280525	-0.606201172	-0.070556641	-0.8046875	895.78	-37.38629159	-70.02309932	61.95993093	-64
41291	0	0.369262695	-0.082397461	0.106201172	0.999998093	-0.001292229	-0.001087189	0.000579834	9.231567383	-2.059936523	2.655029297	-0.064611469	-0.054359465	0.028991715	-0.608642578	-0.068359375	-0.804931641	895.78	-37.87428152	-70.07559244	62.32339398	-64
41292	0	0.369827271	-0.084571838	0.10798645	0.999998093	-0.000680923	-0.001198769	0.00039196	9.245681763	-2.114295959	2.699661255	-0.034046185	-0.059938451	0.019598014	-0.608886719	-0.066162109	-0.804931641	895.78	-38.269544	-70.15048373	62.65977557	-64
41293	0	0.369262695	-0.086608887	0.106628418	0.999999046	-0.000476837	-0.001116753	0.000225067	9.231567383	-2.165222168	2.665710449	-0.023841864	-0.055837645	0.01125336	-0.608886719	-0.066162109	-0.802246094	895.82	-38.58650952	-70.22914521	62.93928824	-64
41294	0	0.369951248	-0.086511612	0.106573105	0.999999046	0.000585556	-0.000814438	0.000123978	9.248781204	-2.162790298	2.664327621	0.029277806	-0.0407219	0.006198884	-0.611328125	-0.065917969	-0.796142578	895.78	-38.69817427	-70.28757784	63.13196233	-64
41295	0	0.372009277	-0.084899902	0.104003906	0.999998093	0.00168705	-0.000644684	0.000350952	9.300231934	-2.122497559	2.600097656	0.084352541	-0.03223421	0.017547617	-0.613769531	-0.065917969	-0.796142578	895.82	-38.70707534	-70.31460886	63.3458303	-63
41296	0	0.375258446	-0.08322525	0.104044914	0.999997139	0.001917839	-0.000535965	0.000178337	9.381461143	-2.080631256	2.601122856	0.095892016	-0.026798266	0.008916861	-0.613525391	-0.0703125	-0.795654297	895.76	-38.62470788	-70.34451787	63.49264309	-64
41297	0	0.372802734	-0.081420898	0.101806641	0.999998093	0.001854897	-0.000419617	-7.62939E-06	9.320068359	-2.035522461	2.545166016	0.092744883	-0.020980848	-0.00038147	-0.613525391	-0.072509766	-0.798583984	895.86	-38.47959583	-70.37765959	63.56116952	-63
41298	0	0.36892128	-0.078294754	0.101055145	0.999997139	0.001903534	-0.000495911	7.62939E-05	9.223031998	-1.957368851	2.526378632	0.095176758	-0.024795548	0.0038147	-0.618164063	-0.074707031	-0.798095703	895.76	-38.36491012	-70.41204626	63.668658	-63
41299	0	0.370544434	-0.076293945	0.102111816	0.999998093	0.001656532	-0.000583649	-3.8147E-05	9.26361084	-1.907348633	2.55279541	0.082826657	-0.029182449	-0.00190735	-0.615478516	-0.076904297	-0.80078125	895.88	-38.26660569	-70.46286599	63.75843991	-63
41300	0	0.373167992	-0.075997353	0.099425316	0.999998093	0.00123024	-0.00067234	-0.000377655	9.329199791	-1.899933815	2.485632896	0.061512015	-0.033617031	-0.018882758	-0.620361328	-0.078857422	-0.791748047	895.78	-38.14825153	-70.54627205	63.78193189	-63
41301	0	0.375549316	-0.077331543	0.102294922	0.999999046	0.000743866	-0.000658989	-0.000762939	9.38873291	-1.933288574	2.557373047	0.037193308	-0.032949456	-0.038146983	-0.620117188	-0.083496094	-0.797119141	895.76	-37.98340186	-70.65603775	63.69651339	-63
41302	0	0.372753143	-0.078258514	0.102834702	0.999999046	0.000425339	-0.000494003	-0.000610352	9.318828583	-1.95646286	2.570867538	0.02126694	-0.024700168	-0.030517582	-0.620117188	-0.083496094	-0.794433594	895.82	-37.85980088	-70.74025186	63.61479512	-63
41303	0	0.373901367	-0.079711914	0.100708008	0.999999046	0.000881195	-0.000357628	-0.000541687	9.34753418	-1.992797852	2.517700195	0.044059762	-0.017881397	-0.027084356	-0.619873047	-0.087890625	-0.793945313	895.78	-37.67354822	-70.80742404	63.52557373	-63
41304	0	0.374607086	-0.078641891	0.099906921	0.999999046	0.001185417	-0.000362396	-0.000580788	9.365177155	-1.966047287	2.497673035	0.059270877	-0.018119818	-0.029039392	-0.622314453	-0.08984375	-0.793701172	895.86	-37.44232266	-70.87789895	63.42533851	-64
41305	0	0.374694824	-0.077392578	0.100952148	0.999998093	0.001389503	-0.000339508	-0.000423431	9.367370605	-1.934814453	2.523803711	0.0694752	-0.016975409	-0.021171578	-0.619873047	-0.090087891	-0.793701172	895.88	-37.22343652	-70.93543606	63.35673528	-64
41306	0	0.371528625	-0.07387352	0.099074364	0.999998093	0.001580238	-0.000273705	-0.000199318	9.288215637	-1.846837997	2.476859093	0.079011952	-0.013685232	-0.009965901	-0.622070313	-0.094238281	-0.787597656	895.94	-37.02782509	-70.97169689	63.34308966	-64
41307	0	0.372131348	-0.075195313	0.101623535	0.999999046	0.001098633	-0.000281334	-0.000282288	9.303283691	-1.879882813	2.540588379	0.054931653	-0.014066699	-0.014114383	-0.621826172	-0.098876953	-0.790039063	895.76	-36.86631004	-71.01451761	63.30902497	-64
41308	0	0.371621132	-0.077022552	0.100728035	0.999999046	0.00039959	-0.000242233	-0.000366211	9.290528297	-1.925563812	2.518200874	0.019979478	-0.012111665	-0.018310548	-0.619384766	-0.098876953	-0.79296875	895.78	-36.75453422	-71.05959947	63.23716843	-64
41309	0	0.372802734	-0.078979492	0.102111816	0.999999046	0.000907898	-6.77109E-05	-0.000331879	9.320068359	-1.974487305	2.55279541	0.045394905	-0.003385544	-0.016593936	-0.624267578	-0.098632813	-0.790039063	895.76	-36.558753	-71.0862335	63.13898229	-64
41310	0	0.375979424	-0.075433731	0.101098061	0.999999046	0.001203537	-3.8147E-06	-0.000222206	9.399485588	-1.885843277	2.527451515	0.060176864	-0.000190735	-0.011110309	-0.621826172	-0.101074219	-0.789794922	895.72	-36.34558683	-71.09958962	63.05741184	-63
41311	0	0.368530273	-0.0703125	0.10144043	0.999999046	0.000999451	2.00272E-05	-8.7738E-05	9.213256836	-1.7578125	2.536010742	0.049972543	0.001001358	-0.004386903	-0.624023438	-0.10546875	-0.792236328	895.86	-36.18662862	-71.10173593	63.01246567	-64
41312	0	0.370186806	-0.070964813	0.099642754	0.999999046	0.000252724	-0.000398636	-0.000267029	9.254670143	-1.774120331	2.49106884	0.012636185	-0.019931794	-0.013351441	-0.621582031	-0.10546875	-0.789550781	895.82	-36.1472395	-71.15497747	63.00206397	-64
41313	0	0.373413086	-0.075927734	0.100158691	0.999999046	-0.000270844	-0.000536919	-0.000507355	9.335327148	-1.898193359	2.503967285	-0.013542177	-0.026845935	-0.025367739	-0.624023438	-0.107666016	-0.786376953	895.86	-36.13018934	-71.2373874	62.95787891	-64
41314	0	0.377993584	-0.076820374	0.100564003	0.999999046	0.000637054	-0.000595093	-0.000332832	9.449839592	-1.920509338	2.514100075	0.031852727	-0.029754643	-0.016641619	-0.626220703	-0.107421875	-0.7890625	895.9	-36.06846328	-71.31352195	62.97155406	-64
41315	0	0.376953125	-0.073730469	0.101806641	0.999999046	0.000999451	-0.000597954	-0.000282288	9.423828125	-1.843261719	2.545166016	0.049972546	-0.029897697	-0.014114383	-0.621582031	-0.109863281	-0.786376953	895.86	-35.97935465	-71.38664488	62.99925568	-64
41316	0	0.371132851	-0.070572853	0.101076126	0.999999046	0.000967979	-0.000524521	-0.000302315	9.278321266	-1.764321327	2.526903152	0.048398982	-0.026226049	-0.015115741	-0.623779297	-0.109863281	-0.786132813	895.82	-35.87301556	-71.45443346	63.00204551	-64
41317	0	0.368652344	-0.0703125	0.098022461	0.999998093	0.00118351	-0.000740051	-0.000385284	9.216308594	-1.7578125	2.450561523	0.059175512	-0.037002576	-0.019264228	-0.626220703	-0.111816406	-0.785888672	895.84	-35.76170252	-71.54799525	63.02503713	-63
41318	0	0.370927811	-0.071381569	0.09825325	0.999998093	0.001219749	-0.000905037	-0.000530243	9.273195267	-1.784539223	2.456331253	0.060987499	-0.045251866	-0.026512157	-0.628417969	-0.116210938	-0.785400391	895.76	-35.63848056	-71.66675919	63.04274568	-63
41319	0	0.375366211	-0.070922852	0.099182129	0.999998093	0.001145363	-0.000793457	-0.000415802	9.384155273	-1.773071289	2.479553223	0.057268163	-0.039672866	-0.020790107	-0.628417969	-0.118408203	-0.782226563	895.88	-35.53289925	-71.7676465	63.07057307	-64
41320	0	0.378574371	-0.069034576	0.100692749	0.999999046	0.000622749	-0.000728607	-0.000156403	9.464359283	-1.72586441	2.517318726	0.031137471	-0.036430365	-0.007820131	-0.630615234	-0.120605469	-0.779052734	895.76	-35.54713183	-71.84536443	63.16530154	-63
41321	0	0.37902832	-0.069091797	0.102905273	0.999999046	0.000671387	-0.00045681	-8.7738E-05	9.475708008	-1.727294922	2.572631836	0.03356934	-0.022840502	-0.004386902	-0.628173828	-0.122802734	-0.781982422	895.82	-35.519797	-71.89320139	63.21950603	-63
41322	0	0.378338814	-0.072309494	0.099664688	0.999999046	0.000558853	-0.000490189	-0.000225067	9.458470345	-1.80773735	2.491617203	0.02794266	-0.024509432	-0.011253358	-0.630615234	-0.122802734	-0.778808594	895.82	-35.47315855	-71.9533437	63.24039959	-64
41323	0	0.375305176	-0.07598877	0.100524902	0.999997139	0.002010345	-0.000544548	-0.000488281	9.382629395	-1.899719238	2.513122559	0.10051735	-0.027227423	-0.024414081	-0.6328125	-0.122802734	-0.781738281	895.84	-35.19581003	-72.03585845	63.18472507	-64
41324	0	0.371088982	-0.070156097	0.100585938	0.999994278	0.003221512	-0.000430107	-0.000424385	9.277224541	-1.753902435	2.514648438	0.16107588	-0.021505394	-0.021219292	-0.6328125	-0.129394531	-0.775390625	895.82	-34.77305102	-72.10323763	63.12742868	-64
41325	0	0.373046875	-0.063354492	0.097839355	0.999992371	0.00376606	-0.000427246	-0.000514984	9.326171875	-1.583862305	2.445983887	0.188303453	-0.021362357	-0.025749269	-0.632324219	-0.135986328	-0.777832031	895.9	-34.25823014	-72.17629536	63.03564719	-64
41326	0	0.37654686	-0.05974865	0.09522438	0.999991417	0.003887177	-0.000411987	-0.000504494	9.413671494	-1.49371624	2.380609512	0.194359329	-0.020599419	-0.025224751	-0.632324219	-0.140380859	-0.77734375	895.82	-33.72650576	-72.24742254	62.93583167	-64
41327	0	0.376281738	-0.057189941	0.095947266	0.999996185	0.002610207	-0.000331879	-0.000331879	9.407043457	-1.429748535	2.398681641	0.130510483	-0.016593953	-0.016593953	-0.634277344	-0.146972656	-0.773925781	895.82	-33.37380565	-72.30019157	62.87677397	-64
41328	0	0.378883362	-0.055716515	0.093913078	0.999998093	0.001480103	-0.000422478	-0.000164032	9.472084045	-1.392912865	2.347826958	0.074005157	-0.021123895	-0.008201602	-0.634277344	-0.149169922	-0.770751953	895.86	-33.21724809	-72.35157694	62.88868453	-64
41329	0	0.376342773	-0.056335449	0.097045898	0.999999046	0.000312805	-0.000296593	-0.000225067	9.408569336	-1.40838623	2.426147461	0.015640259	-0.014829636	-0.011253357	-0.636474609	-0.153564453	-0.770263672	895.84	-33.14991768	-72.39508048	62.861029	-65
41330	0	0.373010635	-0.062637329	0.09777832	0.999999046	-0.000448227	-0.000177383	-0.000179291	9.325265884	-1.565933228	2.444458008	-0.022411347	-0.008869172	-0.008964539	-0.634277344	-0.153564453	-0.767578125	895.82	-33.15987894	-72.42435056	62.82440974	-64
41331	0	0.375671387	-0.064819336	0.094726563	0.999999046	0.000312805	-0.000212669	-3.05176E-05	9.391784668	-1.620483398	2.368164063	0.015640259	-0.010633469	-0.001525879	-0.638916016	-0.153564453	-0.772949219	895.76	-33.13521334	-72.44785451	62.83936596	-64
41332	0	0.380293846	-0.063637733	0.096495628	0.999999046	0.000119209	0.000102997	7.9155E-05	9.507346153	-1.590943336	2.412390709	0.005960465	0.005149841	0.003957748	-0.636474609	-0.153564453	-0.770263672	895.82	-33.10370653	-72.43438914	62.82459891	-65
41333	0	0.375854492	-0.059387207	0.097045898	0.999999046	-0.000404358	0.000157356	0.000267029	9.396362305	-1.484680176	2.426147461	-0.020217896	0.007867813	0.013351441	-0.636474609	-0.151367188	-0.7734375	895.86	-33.17794735	-72.4041528	62.85336525	-65
41334	0	0.375060081	-0.058812141	0.097420692	0.999999046	-0.000741959	0.000207901	0.000502586	9.376502037	-1.470303535	2.435517311	-0.037097936	0.010395052	0.025129322	-0.63671875	-0.151367188	-0.767578125	895.82	-33.35100755	-72.35445617	62.95354511	-64
41335	0	0.373535156	-0.061767578	0.096374512	0.999999046	-0.001148224	0.000214577	0.000305176	9.338378906	-1.544189453	2.409362793	-0.057411208	0.010728839	0.015258793	-0.63671875	-0.149169922	-0.7734375	895.76	-33.50926617	-72.31665937	62.98496566	-64
41336	0	0.3763237	-0.063258171	0.096939087	0.999999046	-0.0011549	0.000261307	0.00031662	9.408092499	-1.581454277	2.423477173	-0.057744994	0.013065341	0.015830998	-0.63671875	-0.149169922	-0.7734375	895.78	-33.66200239	-72.27379931	63.01408065	-64
41337	0	0.379943848	-0.064697266	0.097106934	0.999999046	-0.000991821	0.000123024	0.000366211	9.498596191	-1.617431641	2.42767334	-0.049591074	0.006151201	0.01831055	-0.634521484	-0.146972656	-0.770996094	895.78	-33.83802872	-72.24110757	63.08780953	-64
41338	0	0.374868393	-0.063398361	0.098842621	0.999999046	-0.000291824	0.000146866	0.000530243	9.371709824	-1.58495903	2.471065521	-0.014591218	0.007343293	0.026512148	-0.634277344	-0.144775391	-0.776855469	895.76	-33.97709169	-72.1956684	63.20035106	-64
41339	0	0.372802734	-0.064331055	0.098937988	0.999999046	-0.000213623	8.10623E-05	0.000617981	9.320068359	-1.608276367	2.473449707	-0.010681153	0.004053116	0.03089905	-0.636962891	-0.142578125	-0.774169922	895.78	-34.14536021	-72.15077034	63.35460393	-64
41340	0	0.373558998	-0.066361427	0.097931862	0.999999046	3.33786E-05	6.29425E-05	0.000602722	9.338974953	-1.659035683	2.448296547	0.00166893	0.003147125	0.03013611	-0.634765625	-0.142578125	-0.768310547	895.78	-34.28381155	-72.1084784	63.51180808	-64
41341	0	0.372680664	-0.065185547	0.098510742	0.999999046	-1.90735E-05	0.000214577	0.000682831	9.317016602	-1.629638672	2.462768555	-0.000953674	0.010728837	0.034141543	-0.634521484	-0.140380859	-0.77734375	895.78	-34.42059389	-72.04658708	63.65149407	-65
41342	0	0.376761436	-0.064910889	0.098546982	0.999999046	0.000246048	-3.24249E-05	0.00056076	9.419035912	-1.622772217	2.463674545	0.012302399	-0.001621246	0.028038027	-0.634521484	-0.140380859	-0.77734375	895.82	-34.5398384	-72.01597963	63.80502775	-65
41343	0	0.37713623	-0.06451416	0.099182129	0.999999046	0.000274658	-0.000212669	0.000415802	9.428405762	-1.612854004	2.479553223	0.013732911	-0.010633469	0.020790101	-0.634521484	-0.140380859	-0.774414063	895.72	-34.64908759	-72.01184057	63.95342697	-65
41344	0	0.373584747	-0.065380096	0.101438522	0.999999046	0.000311852	-0.000322342	0.000202179	9.339618683	-1.634502411	2.535963058	0.015592576	-0.016117097	0.010108948	-0.634521484	-0.140380859	-0.774414063	895.76	-34.71364569	-72.0318516	64.05813436	-65
41345	0	0.372192383	-0.064758301	0.100646973	0.999999046	0.000778198	-0.000430107	0.000236511	9.30480957	-1.61895752	2.516174316	0.038909918	-0.021505359	0.011825563	-0.637207031	-0.140136719	-0.768554688	895.82	-34.75612227	-72.059718	64.19881102	-65
41346	0	0.37517643	-0.065453529	0.098959923	0.999999046	0.000337601	-0.000352859	9.15527E-05	9.379410744	-1.636338234	2.47399807	0.016880036	-0.017642976	0.004577637	-0.636962891	-0.140136719	-0.774169922	895.76	-34.79139043	-72.08982147	64.27260843	-65
41347	0	0.375183105	-0.06628418	0.099182129	0.999999046	6.86646E-05	-0.000414848	0.000148773	9.379577637	-1.657104492	2.479553223	0.003433228	-0.020742417	0.00743866	-0.636962891	-0.142578125	-0.774169922	895.82	-34.88674981	-72.12200166	64.38074357	-65
41348	0	0.375734329	-0.067847252	0.100831985	0.999999046	1.23978E-05	-0.000392914	0.000255585	9.393358231	-1.696181297	2.520799637	0.000619888	-0.019645692	0.012779236	-0.636962891	-0.140136719	-0.771240234	895.76	-35.01544985	-72.14495018	64.51482241	-65
41349	0	0.374206543	-0.069641113	0.101135254	0.999999046	-0.000289917	-0.000208855	8.01086E-05	9.355163574	-1.741027832	2.528381348	-0.01449585	-0.010442734	0.004005432	-0.639404297	-0.142333984	-0.770996094	895.82	-35.09028985	-72.16192022	64.56183262	-65
41350	0	0.375638962	-0.071772575	0.096907616	0.999999046	-0.000465393	-0.000196457	0.000427246	9.390974045	-1.794314384	2.422690392	-0.023269655	-0.009822846	0.021362306	-0.639404297	-0.140136719	-0.771240234	895.84	-35.28455419	-72.15471726	64.71073246	-65
41351	0	0.375061035	-0.072692871	0.099609375	0.999999046	0.000255585	-0.000384331	0.000473022	9.376525879	-1.817321777	2.490234375	0.012779237	-0.019216539	0.023651125	-0.639404297	-0.140136719	-0.768310547	895.76	-35.44859346	-72.16169755	64.91635303	-65
41352	0	0.373484612	-0.069638252	0.099844933	0.999999046	0.001219749	-0.000406265	0.00014019	9.337115288	-1.740956306	2.496123314	0.06098749	-0.020313269	0.007009508	-0.636962891	-0.140136719	-0.771240234	895.76	-35.41030549	-72.19262704	65.01756398	-65
41353	0	0.373779297	-0.065612793	0.099060059	0.999997139	0.001979828	-0.000441551	-6.48499E-05	9.344482422	-1.640319824	2.476501465	0.098991462	-0.022077576	-0.003242495	-0.639404297	-0.140136719	-0.768310547	895.76	-35.23204375	-72.24050734	65.06016255	-65
41354	0	0.375030518	-0.062991142	0.095010757	0.999998093	0.001875877	-0.000432014	-0.000205994	9.375762939	-1.574778557	2.375268936	0.093793928	-0.021600737	-0.010299689	-0.639404297	-0.14453125	-0.768066406	895.84	-35.02161993	-72.29709839	65.05776156	-66
41355	0	0.374389648	-0.063049316	0.094909668	0.999999046	0.001163483	-0.00058651	-7.62939E-05	9.359741211	-1.57623291	2.372741699	0.05817415	-0.029325494	-0.003814698	-0.639160156	-0.146728516	-0.764892578	895.76	-34.96222368	-72.35988437	65.1299237	-65
41356	0	0.374199867	-0.061988831	0.090280533	0.999999046	0.000329018	-0.000740051	0.000114441	9.354996681	-1.549720764	2.257013321	0.016450884	-0.037002568	0.005722047	-0.641357422	-0.151123047	-0.770263672	895.76	-35.08709219	-72.42491579	65.29738386	-65
41357	0	0.380004883	-0.065734863	0.091491699	0.999999046	7.24792E-05	-0.000811577	0.000133514	9.50012207	-1.643371582	2.28729248	0.003623963	-0.040578847	0.006675721	-0.643798828	-0.151123047	-0.767089844	895.82	-35.26354266	-72.49554887	65.49041371	-65
41358	0	0.377214432	-0.065455437	0.096381187	0.999999046	-0.000431061	-0.000717163	0.0001297	9.430360794	-1.636385918	2.409529686	-0.021553042	-0.035858159	0.006484986	-0.643798828	-0.151123047	-0.764404297	895.82	-35.47795511	-72.55744445	65.66499391	-65
41359	0	0.373046875	-0.064331055	0.097290039	0.999999046	-0.00025177	-0.000601768	0.000183105	9.326171875	-1.608276367	2.432250977	-0.012588502	-0.030088427	0.009155274	-0.644042969	-0.148681641	-0.761474609	895.76	-35.66390264	-72.60478092	65.829322	-66
41360	0	0.376188278	-0.065066338	0.094423294	0.999999046	-0.000109673	-0.000143051	0.000137329	9.404706955	-1.62665844	2.360582352	-0.005483627	-0.007152557	0.006866455	-0.646240234	-0.148681641	-0.761474609	895.88	-35.72244191	-72.6124477	65.87857584	-66
41361	0	0.381652832	-0.066345215	0.08984375	0.999999046	-0.000862122	-0.000128746	-0.000221252	9.541320801	-1.658630371	2.24609375	-0.043106085	-0.006437303	-0.011062624	-0.644042969	-0.146484375	-0.76171875	895.78	-35.75808305	-72.6430621	65.8097978	-65
41362	0	0.378225327	-0.064686775	0.090549469	0.999998093	-0.001589775	-9.63211E-05	3.8147E-05	9.455633163	-1.61716938	2.263736725	-0.079488788	-0.004816057	0.001907349	-0.644042969	-0.148681641	-0.764404297	895.82	-35.94739578	-72.65352989	65.82086538	-65
41363	0	0.373901367	-0.066589355	0.092346191	0.999997139	-0.002017975	-0.000174522	0.000312805	9.34753418	-1.664733887	2.308654785	-0.100898813	-0.008726126	0.01564027	-0.646484375	-0.146484375	-0.758789063	895.82	-36.28425922	-72.6527096	65.94322893	-65
41364	0	0.373461723	-0.0710392	0.09150219	0.999997139	-0.00219059	-0.000190735	0.000236511	9.336543083	-1.775979996	2.287554741	-0.109529585	-0.009536751	0.011825571	-0.644287109	-0.139892578	-0.759521484	895.9	-36.62266082	-72.65830976	66.03899623	-65
41365	0	0.375427246	-0.074951172	0.089233398	0.999998093	-0.00159359	-0.000324249	4.57764E-05	9.385681152	-1.873779297	2.230834961	-0.079679524	-0.016212471	0.002288819	-0.646972656	-0.135253906	-0.759765625	895.84	-36.86738561	-72.68903887	66.1049982	-65
41366	0	0.376822472	-0.074912071	0.091252327	0.999999046	-0.001016617	-0.000366211	-0.00017643	9.42056179	-1.872801781	2.281308174	-0.050830851	-0.018310551	-0.008821489	-0.646972656	-0.135498047	-0.762451172	895.82	-36.99133386	-72.73871568	66.11366959	-65
41367	0	0.37487793	-0.075378418	0.092834473	0.999999046	-0.000732422	-0.000342369	6.48499E-05	9.371948242	-1.884460449	2.320861816	-0.036621098	-0.017118456	0.003242493	-0.646972656	-0.133300781	-0.765625	895.78	-37.14976505	-72.76928697	66.18741366	-65
41368	0	0.37731266	-0.075137138	0.093257904	0.999999046	-0.000575066	-0.000364304	0.000273705	9.432816505	-1.878428459	2.331447601	-0.028753283	-0.018215181	0.013685228	-0.649414063	-0.133056641	-0.759765625	895.82	-37.35757605	-72.7870725	66.3388543	-65
41369	0	0.377319336	-0.07409668	0.093078613	0.999999046	-0.000202179	-0.000266075	0.000282288	9.432983398	-1.852416992	2.326965332	-0.010108948	-0.013303757	0.01411438	-0.646972656	-0.133300781	-0.765625	895.78	-37.5038963	-72.79499426	66.46550064	-65
41370	0	0.374336243	-0.072270393	0.090834618	0.999999046	-0.000125885	-0.000146866	0.000362396	9.358406067	-1.806759834	2.27086544	-0.006294251	-0.007343292	0.018119813	-0.649414063	-0.130859375	-0.760009766	895.82	-37.63851318	-72.78630872	66.59123957	-65
41371	0	0.378845215	-0.07043457	0.088012695	0.999999046	-0.000255585	-0.000193596	0.000156403	9.471130371	-1.760864258	2.200317383	-0.012779236	-0.009679795	0.00782013	-0.649658203	-0.128662109	-0.762939453	895.76	-37.73863638	-72.79636242	66.65963264	-65
