Counter	Temperature	VelInc_X	VelInc_Y	VelInc_Z	OriInc_w	OriInc_x	OriInc_y	OriInc_z	Acc_X	Acc_Y	Acc_Z	Gyr_X	Gyr_Y	Gyr_Z	Mag_X	Mag_Y	Mag_Z	Pressure	Roll	Pitch	Yaw	RSSI
44248	0	0.370117188	-0.106567383	0.065490723	0.999999046	-9.05991E-05	8.39233E-05	0.000156403	9.252929688	-2.66418457	1.637268066	-0.004529953	0.004196167	0.007820129	-0.537841797	0.815673828	-0.039550781	880.8	-58.38677888	-70.817158	-41.81722939	-66
44249	0	0.367370605	-0.107727051	0.066162109	0.999999046	-0.000419617	3.52859E-05	0.000114441	9.184265137	-2.69317627	1.654052734	-0.020980836	0.001764298	0.005722046	-0.538085938	0.815673828	-0.033691406	880.72	-58.43265854	-70.80736714	-41.82673911	-66
44250	0	0.372894287	-0.109456062	0.066522598	0.999999046	-0.000259399	0.000118256	-0.000164032	9.322357178	-2.736401558	1.663064957	-0.012969971	0.005912781	-0.008201599	-0.540527344	0.817871094	-0.039550781	880.78	-58.38887189	-70.81986319	-41.90040087	-66
44251	0	0.371520996	-0.109741211	0.066711426	0.999999046	-0.000537872	-2.19345E-05	3.8147E-06	9.288024902	-2.743530273	1.667785645	-0.026893617	-0.001096726	0.000190735	-0.537841797	0.815673828	-0.039550781	880.78	-58.4452904	-70.82442963	-41.89956239	-66
44252	0	0.370119095	-0.112136841	0.067854881	0.999999046	-0.000500679	0.000190735	-7.62939E-06	9.252977371	-2.803421021	1.696372032	-0.025033952	0.009536744	-0.00038147	-0.540527344	0.817871094	-0.036621094	880.78	-58.43581907	-70.81724659	-41.96894685	-67
44253	0	0.369689941	-0.112609863	0.068603516	0.999999046	-0.000408173	0.000126839	-0.000156403	9.242248535	-2.815246582	1.715087891	-0.020408631	0.006341934	-0.00782013	-0.540527344	0.815673828	-0.030761719	880.78	-58.4079947	-70.82826044	-42.05695574	-66
44254	0	0.371417046	-0.112548828	0.067261696	0.999999046	-0.00034523	5.53131E-05	0.000102043	9.28542614	-2.813720703	1.681542397	-0.017261506	0.002765656	0.005102158	-0.540283203	0.813476563	-0.036376953	880.82	-58.43779164	-70.81824861	-42.06522882	-66
44255	0	0.370666504	-0.113037109	0.067810059	0.999999046	-0.000377655	0.000191689	0.000148773	9.266662598	-2.825927734	1.695251465	-0.018882752	0.009584427	0.00743866	-0.540527344	0.815673828	-0.030761719	880.66	-58.44122369	-70.79536722	-42.11484782	-66
44256	0	0.370973587	-0.111795425	0.067255974	0.999999046	-0.00036335	0.000116348	0.00032711	9.274339676	-2.794885635	1.681399345	-0.018167496	0.005817414	0.016355515	-0.540527344	0.815673828	-0.030761719	880.72	-58.49489731	-70.75954258	-42.1088173	-66
44257	0	0.371459961	-0.112182617	0.066040039	0.999999046	-0.000679016	9.63211E-05	0.000328064	9.286499023	-2.80456543	1.651000977	-0.033950809	0.004816056	0.0164032	-0.540527344	0.815673828	-0.030761719	880.72	-58.59061561	-70.7248081	-42.09487636	-67
44258	0	0.369848251	-0.111114502	0.067851067	0.999999046	-0.000473022	0.000112534	0.000278473	9.246206284	-2.777862549	1.696276665	-0.023651124	0.005626679	0.013923646	-0.538085938	0.815673828	-0.030761719	880.66	-58.64947653	-70.69392445	-42.09284515	-66
44259	0	0.370788574	-0.112060547	0.06640625	0.999999046	-0.00038147	0.000107765	0.000289917	9.269714355	-2.801513672	1.66015625	-0.019073487	0.00538826	0.01449585	-0.538085938	0.817871094	-0.031005859	880.84	-58.7011752	-70.6622018	-42.08547903	-67
44260	0	0.369793892	-0.110923767	0.067865372	0.999999046	-0.000515938	7.24792E-05	0.00026226	9.244847298	-2.773094177	1.696634293	-0.025796892	0.003623963	0.013113023	-0.538330078	0.817871094	-0.025146484	880.72	-58.77317189	-70.63528651	-42.08289737	-67
44261	0	0.374938965	-0.112915039	0.069152832	0.999999046	-0.000370026	9.25064E-05	-0.000152588	9.373474121	-2.822875977	1.728820801	-0.018501282	0.004625321	-0.007629395	-0.538330078	0.8203125	-0.025390625	880.78	-58.75246545	-70.64781075	-42.15831624	-66
44262	0	0.36684227	-0.111756325	0.068831444	0.999999046	-0.000745773	0.000104904	0.000292778	9.171056747	-2.793908119	1.720786095	-0.03728867	0.005245209	0.014638902	-0.535888672	0.820068359	-0.028320313	880.76	-58.84639748	-70.61586119	-42.14928128	-67
44263	0	0.369140625	-0.113037109	0.06817627	0.999999046	-0.000350952	-4.48227E-05	0.000171661	9.228515625	-2.825927734	1.704406738	-0.017547608	-0.002241135	0.008583069	-0.538085938	0.817871094	-0.031005859	880.72	-58.9162342	-70.60457453	-42.11324591	-67
44264	0	0.374051094	-0.112786293	0.067391396	0.999999046	-3.71933E-05	1.90735E-06	0.000125885	9.351277351	-2.819657326	1.684784889	-0.001859665	9.53674E-05	0.006294251	-0.540527344	0.815917969	-0.024902344	880.86	-58.92935162	-70.59504284	-42.11254521	-66
44265	0	0.371398926	-0.111938477	0.067077637	0.999999046	-0.000461578	-1.81198E-05	0.000225067	9.284973145	-2.798461914	1.676940918	-0.023078919	-0.000905991	0.011253357	-0.538330078	0.818115234	-0.022216797	880.78	-59.01323493	-70.57698747	-42.09046955	-66
44266	0	0.370251656	-0.112717628	0.067813873	0.999999046	-0.000240326	8.01086E-05	2.67029E-05	9.256291389	-2.817940712	1.695346832	-0.012016297	0.004005432	0.001335144	-0.538330078	0.817871094	-0.025146484	880.76	-59.01105861	-70.57258739	-42.12642955	-66
44267	0	0.370239258	-0.112915039	0.068664551	0.999999046	-0.000198364	-0.000178337	4.19617E-05	9.255981445	-2.822875977	1.71661377	-0.009918213	-0.008916855	0.002098084	-0.538330078	0.818115234	-0.022216797	880.72	-59.0784445	-70.5818709	-42.08797511	-66
44268	0	0.371718407	-0.111997604	0.067936897	0.999999046	-9.53674E-07	-8.7738E-05	-7.34329E-05	9.292960167	-2.799940109	1.698422432	-4.76837E-05	-0.004386902	-0.003671646	-0.538330078	0.817871094	-0.025146484	880.72	-59.0785008	-70.59717683	-42.09090315	-66
44269	0	0.371887207	-0.112609863	0.068603516	0.999999046	-7.62939E-05	-6.38962E-05	-3.43323E-05	9.297180176	-2.815246582	1.715087891	-0.003814697	-0.003194809	-0.001716614	-0.535888672	0.817871094	-0.025390625	880.72	-59.0868462	-70.60721223	-42.09215026	-66
44270	0	0.370987892	-0.112351418	0.067500114	0.999999046	-0.000232697	-5.14984E-05	4.19617E-05	9.274697304	-2.808785439	1.687502861	-0.011634827	-0.002574921	0.002098084	-0.535888672	0.815673828	-0.025146484	880.82	-59.12231385	-70.6090134	-42.08391211	-66
44271	0	0.370422363	-0.112731934	0.066589355	0.999999046	-0.000133514	-0.000105858	-3.05176E-05	9.260559082	-2.81829834	1.664733887	-0.00667572	-0.005292892	-0.001525879	-0.538330078	0.817871094	-0.025146484	880.76	-59.14954853	-70.62113206	-42.07206124	-66
44272	0	0.370808601	-0.112421989	0.065747261	0.999999046	-0.000155449	-1.33514E-05	9.53674E-05	9.270215034	-2.810549736	1.643681526	-0.007772446	-0.000667572	0.004768372	-0.538330078	0.817871094	-0.028076172	880.78	-59.17457782	-70.61545914	-42.05913784	-66
44273	0	0.370788574	-0.112548828	0.065673828	0.999999046	-0.000267029	-2.95639E-05	0.00012207	9.269714355	-2.813720703	1.641845703	-0.013351441	-0.001478195	0.006103516	-0.536132813	0.820068359	-0.025390625	880.76	-59.22149183	-70.60813514	-42.03945094	-66
44274	0	0.371497154	-0.112674713	0.065712929	0.999999046	-0.000469208	-1.90735E-05	0.00018692	9.287428856	-2.816867828	1.642823219	-0.023460389	-0.000953674	0.009346009	-0.535888672	0.815673828	-0.025146484	880.7	-59.29950441	-70.59383943	-42.01173786	-66
44275	0	0.373168945	-0.113769531	0.067382813	0.999999046	-0.000202179	9.53674E-07	-6.86646E-05	9.329223633	-2.844238281	1.684570313	-0.010108948	4.76837E-05	-0.003433228	-0.538330078	0.8203125	-0.022460938	880.62	-59.29877143	-70.60353107	-42.03922938	-66
44276	0	0.36781311	-0.112586975	0.067886353	0.999999046	-0.000218391	1.33514E-05	0.000208855	9.195327759	-2.814674377	1.697158813	-0.010919571	0.000667572	0.010442734	-0.536132813	0.820068359	-0.022705078	880.78	-59.3422961	-70.58507544	-42.01987044	-66
44277	0	0.369689941	-0.113098145	0.067382813	0.999999046	0.000156403	5.43594E-05	0.00018692	9.242248535	-2.827453613	1.684570313	0.007820129	0.002717972	0.009346008	-0.536132813	0.820068359	-0.025390625	880.82	-59.3276311	-70.56633919	-42.01224968	-66
44278	0	0.372570038	-0.112545967	0.066114426	0.999999046	0.000207901	-7.43866E-05	5.72205E-05	9.314250946	-2.813649178	1.652860641	0.01039505	-0.00371933	0.002861023	-0.538330078	0.8203125	-0.025390625	880.86	-59.32156256	-70.56797704	-41.99076534	-66
44279	0	0.371704102	-0.111816406	0.065917969	0.999999046	-9.53674E-05	-6.67572E-06	0.0001297	9.292602539	-2.795410156	1.647949219	-0.004768372	-0.000333786	0.006484985	-0.536132813	0.820068359	-0.022705078	880.82	-59.34332077	-70.5585953	-41.9807644	-66
44280	0	0.369417191	-0.112657547	0.066195488	0.999999046	-0.000220299	8.39233E-05	-4.19617E-05	9.235429764	-2.816438675	1.654887199	-0.011014938	0.004196167	-0.002098084	-0.533447266	0.817871094	-0.025390625	880.7	-59.32567543	-70.56084323	-42.02140882	-66
44281	0	0.370849609	-0.112365723	0.067321777	0.999999046	-0.000171661	-0.000163078	0.000183105	9.271240234	-2.809143066	1.683044434	-0.008583069	-0.008153916	0.009155274	-0.535888672	0.817871094	-0.022460938	880.82	-59.40853468	-70.55534274	-41.95565589	-66
44282	0	0.371990204	-0.11240387	0.067770958	0.999999046	-0.000116348	-8.7738E-05	2.67029E-05	9.299755096	-2.810096741	1.694273949	-0.005817413	-0.004386902	0.001335144	-0.538330078	0.817871094	-0.025146484	880.76	-59.43791823	-70.56088073	-41.93516834	-66
44283	0	0.370910645	-0.112915039	0.066650391	0.999999046	0.000110626	-6.00815E-05	-1.90735E-05	9.272766113	-2.822875977	1.666259766	0.005531311	-0.003004074	-0.000953674	-0.535888672	0.817871094	-0.022460938	880.82	-59.42595029	-70.56932853	-41.93531911	-66
44284	0	0.371287346	-0.112885475	0.065226555	0.999998093	0.000125885	-2.19345E-05	0.000155449	9.282183647	-2.822136879	1.630663872	0.006294251	-0.001096725	0.007772446	-0.535888672	0.815673828	-0.025146484	880.86	-59.43052835	-70.55837904	-41.91201511	-66
44285	0	0.369567871	-0.11328125	0.066223145	0.999999046	6.48499E-05	-0.000124931	7.62939E-05	9.239196777	-2.83203125	1.655578613	0.003242493	-0.006246567	0.003814697	-0.535888672	0.815673828	-0.022216797	880.82	-59.45784911	-70.5612168	-41.8777567	-66
44286	0	0.372251511	-0.113512993	0.064923286	0.999999046	-3.8147E-06	-9.53674E-05	0.000221252	9.306287766	-2.837824821	1.623082161	-0.000190735	-0.004768372	0.011062622	-0.538330078	0.8203125	-0.022460938	880.72	-59.50886899	-70.54806152	-41.82587707	-66
44287	0	0.370422363	-0.113098145	0.067260742	0.999999046	1.14441E-05	-0.000163078	0.00019455	9.260559082	-2.827453613	1.681518555	0.000572205	-0.008153915	0.009727478	-0.536132813	0.820068359	-0.019775391	880.78	-59.57246607	-70.54143816	-41.76293496	-66
44288	0	0.371704102	-0.113098145	0.067199707	0.999999046	0.000256538	-0.000164032	0.000118256	9.292602539	-2.827453613	1.679992676	0.01282692	-0.008201599	0.005912781	-0.536132813	0.817871094	-0.01953125	880.82	-59.59552771	-70.54239675	-41.71475398	-66
44289	0	0.372632027	-0.11392498	0.069825172	0.999998093	0.000569344	-0.000120163	-0.000103951	9.315800667	-2.848124504	1.745629311	0.02846718	-0.006008149	-0.005197525	-0.536132813	0.817871094	-0.01953125	880.76	-59.53351651	-70.56268975	-41.71999455	-66
44290	0	0.367259979	-0.112469673	0.066328049	0.999999046	0.000537872	-0.000209808	0.000208855	9.181499481	-2.811741829	1.658201218	0.026893617	-0.010490418	0.010442734	-0.536132813	0.817871094	-0.01953125	880.82	-59.55158995	-70.55726128	-41.64540457	-66
44291	0	0.371398926	-0.113342285	0.065856934	0.999999046	0.000663757	-0.000197411	-1.14441E-05	9.284973145	-2.833557129	1.64642334	0.033187869	-0.00987053	-0.000572205	-0.538330078	0.818115234	-0.022216797	880.78	-59.51557067	-70.57289345	-41.61000362	-65
44292	0	0.372343063	-0.112879753	0.066408157	0.999999046	0.000847816	-0.000278473	4.19617E-05	9.308576584	-2.821993828	1.660203934	0.042390829	-0.013923647	0.002098084	-0.535888672	0.820068359	-0.028320313	880.76	-59.48994039	-70.58800707	-41.5296776	-65
44293	0	0.369384766	-0.11315918	0.063476563	0.999999046	0.000537872	-0.000285149	0.000221252	9.234619141	-2.828979492	1.586914063	0.026893618	-0.014257432	0.011062623	-0.536132813	0.820068359	-0.025390625	880.78	-59.53168047	-70.58583791	-41.42284607	-65
44294	0	0.370531082	-0.11325264	0.065583229	0.999999046	0.000713348	-0.000230789	0.000201225	9.263277054	-2.831315994	1.639580727	0.035667423	-0.01153946	0.010061265	-0.535888672	0.817871094	-0.028076172	880.86	-59.53484134	-70.58247567	-41.33280004	-64
44295	0	0.370300293	-0.112670898	0.065917969	0.999999046	0.000202179	-0.00026226	0.000431061	9.257507324	-2.816772461	1.647949219	0.010108948	-0.013113022	0.021553041	-0.535888672	0.817871094	-0.031005859	880.86	-59.6431086	-70.55821169	-41.18819103	-64
44296	0	0.370664597	-0.113085747	0.066439629	0.999999046	0.000411034	-0.000238419	0.000288963	9.266614914	-2.827143669	1.660990715	0.020551683	-0.01192093	0.014448167	-0.533447266	0.817871094	-0.025390625	880.76	-59.69716498	-70.54655744	-41.08675654	-63
44297	0	0.372009277	-0.112487793	0.06652832	0.999999046	0.000759125	-0.000235558	0.000110626	9.300231934	-2.812194824	1.663208008	0.037956242	-0.011777879	0.005531312	-0.533447266	0.820068359	-0.031494141	880.84	-59.68114215	-70.55241679	-41.00666163	-65
44298	0	0.371099472	-0.11167717	0.065972328	0.999999046	0.000408173	-0.000209808	0.000225067	9.277486801	-2.791929245	1.649308205	0.020408631	-0.010490418	0.011253357	-0.533447266	0.820068359	-0.031494141	880.76	-59.71671935	-70.5455371	-40.91564182	-66
44299	0	0.370361328	-0.112670898	0.067871094	0.999999046	0.000289917	-0.000155449	1.14441E-05	9.259033203	-2.816772461	1.696777344	0.01449585	-0.007772446	0.000572205	-0.535888672	0.817871094	-0.031005859	880.78	-59.71533813	-70.55662433	-40.88143583	-66
44300	0	0.370806694	-0.112640381	0.067697525	0.999999046	0.000397682	-0.000171661	8.67844E-05	9.270167351	-2.816009521	1.692438126	0.01988411	-0.008583069	0.004339218	-0.533691406	0.820068359	-0.028564453	880.78	-59.71820976	-70.5611804	-40.8337942	-71
44301	0	0.370605469	-0.112487793	0.066589355	0.999999046	0.000385284	-0.000311852	4.57764E-05	9.265136719	-2.812194824	1.664733887	0.019264222	-0.015592576	0.002288818	-0.533691406	0.820068359	-0.028564453	880.78	-59.75500394	-70.57790182	-40.75219242	-67
44302	0	0.371186256	-0.111982346	0.066991806	0.999999046	0.000139236	-0.00021553	-9.15527E-05	9.27965641	-2.79955864	1.674795151	0.006961823	-0.01077652	-0.004577637	-0.535888672	0.820068359	-0.028320313	880.76	-59.77029841	-70.60267895	-40.72447493	-65
44303	0	0.372680664	-0.112915039	0.066040039	0.999999046	0.00043869	-0.000197411	-0.000160217	9.317016602	-2.822875977	1.651000977	0.02193451	-0.00987053	-0.008010865	-0.535888672	0.820068359	-0.03125	880.76	-59.73489257	-70.63324005	-40.70907589	-65
44304	0	0.366027832	-0.111458778	0.066053391	0.999999046	-0.00039196	-4.3869E-05	8.39233E-05	9.150695801	-2.78646946	1.651334763	-0.019598008	-0.002193451	0.004196167	-0.533447266	0.817626953	-0.034179688	880.78	-59.79138181	-70.63073749	-40.68973509	-65
44305	0	0.369934082	-0.113098145	0.066467285	0.999999046	-0.0001297	-0.000136375	2.67029E-05	9.248352051	-2.827453613	1.661682129	-0.006484985	-0.006818771	0.001335144	-0.535888672	0.820068359	-0.03125	880.82	-59.83440732	-70.63918768	-40.65837992	-65
44306	0	0.373607635	-0.112341881	0.065480232	0.999999046	-0.000272751	-8.01086E-05	-8.7738E-05	9.340190887	-2.80854702	1.637005806	-0.013637543	-0.004005432	-0.004386902	-0.535888672	0.822265625	-0.034423828	880.82	-59.85919379	-70.65580567	-40.65578364	-64
44307	0	0.370300293	-0.112609863	0.063537598	0.999999046	-0.000320435	-1.81198E-05	6.10352E-05	9.257507324	-2.815246582	1.588439941	-0.016021729	-0.000905991	0.003051758	-0.535644531	0.817871094	-0.033935547	880.78	-59.89656851	-70.65415946	-40.6469086	-64
44308	0	0.369495392	-0.113614082	0.067050934	0.999999046	-0.000372887	3.05176E-05	2.67029E-05	9.237384796	-2.840352058	1.676273346	-0.018644333	0.001525879	0.001335144	-0.535888672	0.820068359	-0.03125	880.66	-59.92042657	-70.6530279	-40.66252786	-64
44309	0	0.370544434	-0.11328125	0.066345215	0.999999046	-0.000305176	2.76566E-05	0.000205994	9.26361084	-2.83203125	1.658630371	-0.015258789	0.001382828	0.010299683	-0.533691406	0.820068359	-0.028564453	880.76	-59.96652708	-70.63423864	-40.65002577	-64
44310	0	0.371348381	-0.11329174	0.065990448	0.999999046	-0.000221252	0.000133514	0.000106812	9.283709526	-2.83229351	1.6497612	-0.011062622	0.00667572	0.005340576	-0.533447266	0.820068359	-0.031494141	880.86	-59.95686977	-70.61920032	-40.68025305	-64
44311	0	0.372009277	-0.113342285	0.065734863	0.999999046	-0.00018692	8.4877E-05	0.000240326	9.300231934	-2.833557129	1.643371582	-0.009346008	0.004243851	0.012016297	-0.533447266	0.817871094	-0.025390625	880.78	-59.97874299	-70.59371331	-40.68543226	-63
44312	0	0.370722771	-0.11238575	0.06575489	0.999999046	-0.00032711	0.000160217	0.000335693	9.268069267	-2.809643745	1.643872261	-0.016355515	0.008010865	0.016784669	-0.533691406	0.820068359	-0.025634766	880.78	-60.01083632	-70.55447778	-40.69529973	-63
44313	0	0.369506836	-0.112792969	0.066101074	0.999999046	-0.00031662	0.0001688	0.000270844	9.237670898	-2.819824219	1.652526855	-0.015830994	0.008440018	0.013542176	-0.533691406	0.822265625	-0.025878906	880.76	-60.0286427	-70.52118825	-40.7174411	-63
44314	0	0.371070862	-0.113219261	0.065115929	0.999999046	-0.00019455	0.000188828	0.000240326	9.276771545	-2.830481529	1.627898216	-0.009727478	0.009441376	0.012016297	-0.533691406	0.822265625	-0.025878906	880.78	-60.0219638	-70.48982533	-40.75067319	-63
44315	0	0.368225098	-0.112243652	0.064941406	0.999999046	-0.000255585	0.000229836	0.00018692	9.205627441	-2.806091309	1.623535156	-0.012779236	0.011491776	0.009346009	-0.533447266	0.817871094	-0.028320313	880.9	-60.00222307	-70.46146084	-40.80133553	-63
44316	0	0.37456131	-0.113088608	0.064200401	0.999999046	-0.000380516	0.000106812	-8.10623E-05	9.364032745	-2.827215195	1.605010033	-0.019025803	0.005340576	-0.004053116	-0.533691406	0.822265625	-0.022949219	880.78	-59.98812491	-70.46688193	-40.8695431	-63
44317	0	0.370544434	-0.112365723	0.065795898	0.999999046	-0.000385284	0.000153542	-6.10352E-05	9.26361084	-2.809143066	1.644897461	-0.019264222	0.007677078	-0.003051758	-0.533691406	0.820068359	-0.025634766	880.76	-59.96460605	-70.46769525	-40.9425352	-63
44318	0	0.366692543	-0.112616539	0.065576553	0.999999046	-0.000730515	4.00543E-05	0.000155449	9.167313576	-2.815413475	1.639413834	-0.03652573	0.002002716	0.007772446	-0.533691406	0.822265625	-0.025878906	880.88	-60.04729581	-70.45353102	-40.94154325	-63
44319	0	0.370727539	-0.113769531	0.066833496	0.999999046	-0.000301361	3.91006E-05	-0.000198364	9.268188477	-2.844238281	1.670837402	-0.015068055	0.001955032	-0.009918213	-0.533691406	0.820068359	-0.025634766	880.78	-60.02381702	-70.47453596	-41.0010603	-62
44320	0	0.373391151	-0.11323452	0.065694809	0.999999046	-0.000357628	-2.47955E-05	-2.38419E-05	9.334778786	-2.830862999	1.642370224	-0.017881394	-0.001239777	-0.001192093	-0.53125	0.820068359	-0.020019531	880.82	-60.05275803	-70.48194925	-41.02053234	-62
44321	0	0.369567871	-0.113952637	0.066650391	0.999999046	-0.000293732	-2.57492E-05	8.01086E-05	9.239196777	-2.848815918	1.666259766	-0.014686585	-0.00128746	0.004005432	-0.53125	0.820068359	-0.022949219	880.86	-60.09129555	-70.47905124	-41.01522047	-61
44322	0	0.369857788	-0.113806725	0.065403938	0.999999046	-0.000310898	-8.7738E-05	-6.58035E-05	9.246444702	-2.845168114	1.635098457	-0.015544892	-0.004386902	-0.003290176	-0.533691406	0.820068359	-0.028564453	880.76	-60.12567959	-70.49418615	-41.00519784	-61
44323	0	0.369934082	-0.113647461	0.066101074	0.999999046	-0.000404358	-2.19345E-05	0.0001297	9.248352051	-2.841186523	1.652526855	-0.020217896	-0.001096725	0.006484986	-0.533691406	0.820068359	-0.019775391	880.76	-60.18371508	-70.48612194	-40.99768096	-60
44324	0	0.371311188	-0.113675117	0.065320015	0.999999046	-0.000418663	4.95911E-05	0.000114441	9.282779694	-2.841877937	1.633000374	-0.020933152	0.002479553	0.005722046	-0.533691406	0.820068359	-0.025634766	880.72	-60.22084225	-70.47552675	-41.00135541	-60
44325	0	0.371828079	-0.113081932	0.064591408	0.999999046	-0.000156403	0.00014019	7.62939E-05	9.295701981	-2.827048302	1.614785194	-0.007820129	0.007009506	0.003814697	-0.533691406	0.820068359	-0.016845703	880.82	-60.19642545	-70.46364927	-41.05570347	-60
44326	0	0.369595528	-0.113340378	0.064782143	0.999999046	-0.00028038	2.09808E-05	0.000136375	9.239888191	-2.833509445	1.619553566	-0.014019013	0.001049042	0.006818771	-0.536376953	0.822509766	-0.017089844	880.88	-60.22930976	-70.45261413	-41.0633547	-60
44327	0	0.370300293	-0.113525391	0.065307617	0.999999046	-1.90735E-05	-0.000102043	-1.52588E-05	9.257507324	-2.838134766	1.63269043	-0.000953674	-0.005102158	-0.000762939	-0.533691406	0.822265625	-0.022949219	880.86	-60.24237736	-70.46368608	-41.04717166	-60
44328	0	0.372513771	-0.113394737	0.06485939	0.999999046	-7.9155E-05	-0.000177383	3.8147E-05	9.312844276	-2.834868431	1.621484756	-0.003957748	-0.008869171	0.001907349	-0.53125	0.820068359	-0.022949219	880.72	-60.29204919	-70.4737982	-40.99853892	-60
44329	0	0.368347168	-0.112976074	0.065673828	0.999999046	-0.000171661	4.76837E-06	9.15527E-05	9.208679199	-2.824401855	1.641845703	-0.008583069	0.000238419	0.004577637	-0.531494141	0.820068359	-0.017089844	880.84	-60.30962417	-70.46824152	-41.00643425	-60
44330	0	0.374611855	-0.114837646	0.064415932	0.999999046	-0.000289917	0.000114441	-0.000213623	9.365296364	-2.870941162	1.610398293	-0.01449585	0.005722046	-0.010681153	-0.533691406	0.820068359	-0.019775391	880.78	-60.26123393	-70.48688364	-41.09335898	-60
44331	0	0.366882324	-0.113098145	0.065979004	0.999999046	-0.000324249	-2.86102E-06	8.01086E-05	9.172058105	-2.827453613	1.649475098	-0.016212464	-0.000143051	0.004005432	-0.533935547	0.822265625	-0.020019531	880.82	-60.29659127	-70.48290806	-41.09354588	-60
44332	0	0.36906147	-0.11405468	0.064803123	0.999999046	-0.000239372	1.71661E-05	6.86646E-05	9.226536751	-2.851366997	1.620078087	-0.011968613	0.000858307	0.003433228	-0.533691406	0.820068359	-0.019775391	880.78	-60.31481226	-70.4789163	-41.10199858	-60
44333	0	0.372802734	-0.114379883	0.065551758	0.999999046	-1.90735E-05	2.00272E-05	1.52588E-05	9.320068359	-2.85949707	1.638793945	-0.000953674	0.001001358	0.000762939	-0.536376953	0.824707031	-0.020019531	880.76	-60.29840439	-70.48009324	-41.11968244	-60
44334	0	0.370232582	-0.113295555	0.064950943	0.999999046	-4.76837E-05	-5.53131E-05	0.000224113	9.255814552	-2.832388878	1.623773575	-0.002384186	-0.002765656	0.011205673	-0.533691406	0.820068359	-0.022705078	880.72	-60.33982035	-70.46478336	-41.07445939	-60
44335	0	0.370178223	-0.114135742	0.063598633	0.999999046	-0.000274658	5.81741E-05	1.90735E-05	9.254455566	-2.853393555	1.58996582	-0.01373291	0.002908707	0.000953674	-0.533935547	0.824462891	-0.017333984	880.78	-60.34279794	-70.46348233	-41.10630473	-60
44336	0	0.37022686	-0.113148689	0.064982414	0.999999046	2.95639E-05	-0.00015831	7.15256E-05	9.255671501	-2.828717232	1.624560356	0.001478195	-0.007915497	0.003576279	-0.533935547	0.822265625	-0.017089844	880.82	-60.37999904	-70.46926807	-41.06576626	-60
44337	0	0.371704102	-0.11328125	0.063232422	0.999999046	-0.000164032	-0.000102043	3.8147E-05	9.292602539	-2.83203125	1.580810547	-0.008201599	-0.005102158	0.001907349	-0.533691406	0.820068359	-0.019775391	880.72	-60.41844022	-70.47528263	-41.04200588	-60
44338	0	0.371768951	-0.114003181	0.065193176	0.999999046	-0.000160217	0.000106812	0	9.294223785	-2.850079536	1.629829407	-0.008010864	0.005340576	0	-0.533691406	0.820068359	-0.019775391	880.82	-60.39162104	-70.47329501	-41.08676462	-60
44339	0	0.369628906	-0.113525391	0.065124512	0.999999046	-6.86646E-05	6.19888E-05	0.000102997	9.240722656	-2.838134766	1.628112793	-0.003433228	0.003099442	0.005149841	-0.531494141	0.822265625	-0.017333984	880.78	-60.38328565	-70.46358183	-41.10396571	-60
44340	0	0.369535446	-0.114160538	0.064970016	0.999999046	-8.67844E-05	0.0001297	0.000110626	9.238386154	-2.854013443	1.624250412	-0.004339218	0.006484985	0.005531311	-0.536132813	0.822265625	-0.019775391	880.72	-60.35926632	-70.44925222	-41.13735532	-61
44341	0	0.371887207	-0.113647461	0.06628418	0.999999046	0.000118256	5.81741E-05	0.000209808	9.297180176	-2.841186523	1.657104492	0.005912781	0.002908707	0.010490418	-0.533691406	0.820068359	-0.019775391	880.76	-60.34746794	-70.4291122	-41.13317848	-61
44342	0	0.371221542	-0.113788605	0.065010071	0.999999046	-5.91278E-05	4.57764E-05	0.000208855	9.280538559	-2.844715118	1.62525177	-0.00295639	0.002288818	0.010442734	-0.533935547	0.822265625	-0.017089844	880.7	-60.35930361	-70.40980681	-41.13032204	-60
44343	0	0.370178223	-0.114074707	0.065490723	0.999999046	7.24792E-05	-0.000102043	0.000259399	9.254455566	-2.851867676	1.637268066	0.003623962	-0.005102158	0.012969971	-0.536376953	0.822509766	-0.017089844	880.76	-60.40536819	-70.3938387	-41.07632334	-61
44344	0	0.375197411	-0.115420341	0.064453125	0.999999046	0.00032711	1.71661E-05	-5.43594E-05	9.379935265	-2.885508537	1.611328125	0.016355515	0.000858307	-0.002717972	-0.531494141	0.822265625	-0.014404297	880.76	-60.33916048	-70.40243528	-41.11464806	-61
44345	0	0.366516113	-0.113647461	0.066589355	0.999999046	0.000396729	-0.000185966	0.000171661	9.162902832	-2.841186523	1.664733887	0.019836427	-0.009298325	0.008583069	-0.533935547	0.822265625	-0.017089844	880.82	-60.35752981	-70.39996633	-41.05138151	-61
44346	0	0.370956421	-0.11421299	0.064160347	0.999999046	0.000890732	-0.000143051	1.81198E-05	9.273910522	-2.855324745	1.604008675	0.044536597	-0.007152558	0.000905991	-0.533691406	0.820068359	-0.019775391	880.9	-60.28296273	-70.4104034	-41.02444869	-60
44347	0	0.373718262	-0.114501953	0.066589355	0.999999046	0.000610352	-0.000159264	0.000114441	9.342956543	-2.862548828	1.664733887	0.03051758	-0.007963181	0.005722046	-0.533691406	0.822265625	-0.022949219	880.78	-60.26027931	-70.41220097	-40.97131826	-60
44348	0	0.369927406	-0.113472939	0.062641144	0.999999046	0.000535011	-7.43866E-05	9.44138E-05	9.248185158	-2.836823463	1.566028595	0.026750566	-0.00371933	0.004720688	-0.533691406	0.820068359	-0.022705078	880.88	-60.21960787	-70.4112595	-40.94930789	-60
44349	0	0.370727539	-0.113708496	0.063903809	0.999999046	0.000869751	-0.000113487	-0.0001297	9.268188477	-2.842712402	1.597595215	0.043487555	-0.005674363	-0.006484986	-0.533935547	0.822265625	-0.020019531	880.76	-60.11576596	-70.43489307	-40.96075383	-60
44350	0	0.369428635	-0.113744736	0.06505394	0.999999046	0.000514984	-0.000270844	0.000183105	9.235715866	-2.843618393	1.626348495	0.025749208	-0.013542176	0.009155274	-0.533691406	0.820068359	-0.019775391	880.72	-60.14681107	-70.43642032	-40.87430428	-60
44351	0	0.371582031	-0.113586426	0.065612793	0.999999046	0.000553131	-5.62668E-05	4.19617E-05	9.289550781	-2.839660645	1.640319824	0.027656557	-0.002813339	0.002098084	-0.533691406	0.820068359	-0.022705078	880.78	-60.09077243	-70.43975577	-40.87135908	-60
44352	0	0.370602608	-0.113970757	0.067465782	0.999999046	0.000552177	-4.00543E-05	-0.000123024	9.265065193	-2.849268913	1.686644554	0.027608873	-0.002002716	-0.0061512	-0.533691406	0.822265625	-0.025878906	880.78	-60.00347976	-70.45849559	-40.8962316	-60
44353	0	0.370666504	-0.112976074	0.06451416	0.999999046	0.000541687	-8.29697E-05	-3.8147E-06	9.266662598	-2.824401855	1.612854004	0.027084352	-0.004148483	-0.000190735	-0.533691406	0.820068359	-0.022705078	880.82	-59.9486728	-70.46791402	-40.89631701	-60
44354	0	0.369884491	-0.113880157	0.065063477	0.999999046	0.000274658	-4.57764E-05	4.48227E-05	9.247112274	-2.847003937	1.626586914	0.01373291	-0.002288818	0.002241135	-0.533691406	0.820068359	-0.028564453	880.76	-59.92204073	-70.47036273	-40.88813005	-60
44355	0	0.370788574	-0.113891602	0.065551758	0.999999046	0.000530243	-0.000136375	0.000114441	9.269714355	-2.847290039	1.638793945	0.026512147	-0.006818772	0.005722046	-0.533691406	0.822265625	-0.031494141	880.78	-59.90278396	-70.47110456	-40.83623759	-60
44356	0	0.37041378	-0.113236427	0.065630913	0.999999046	0.000466347	-2.47955E-05	5.24521E-05	9.260344505	-2.830910683	1.64077282	0.023317338	-0.001239777	0.002622604	-0.533691406	0.822265625	-0.025878906	880.82	-59.84962672	-70.47159239	-40.84073402	-60
44357	0	0.37097168	-0.113342285	0.064086914	0.999999046	0.000289917	1.62125E-05	-3.8147E-05	9.274291992	-2.833557129	1.602172852	0.01449585	0.000810623	-0.001907349	-0.536132813	0.822265625	-0.028564453	880.76	-59.79074791	-70.478743	-40.86936824	-60
44358	0	0.373296738	-0.115411758	0.066606522	0.999999046	0.000667572	-7.05719E-05	-0.000301361	9.332418442	-2.885293961	1.66516304	0.033378604	-0.003528595	-0.015068056	-0.536132813	0.820068359	-0.025390625	880.82	-59.66992728	-70.51688169	-40.92627191	-60
44359	0	0.367431641	-0.113830566	0.067260742	0.999999046	0.000366211	-0.000128746	-0.000148773	9.185791016	-2.84576416	1.681518555	0.018310547	-0.006437302	-0.00743866	-0.536132813	0.822265625	-0.028564453	880.84	-59.62457642	-70.54315534	-40.93340243	-60
44360	0	0.368336678	-0.11367321	0.066454887	0.999999046	0.000901222	-0.000125885	-5.81741E-05	9.208416939	-2.841830254	1.661372185	0.045061118	-0.006294251	-0.002908707	-0.535888672	0.817871094	-0.031005859	880.84	-59.53193171	-70.56022239	-40.92444613	-60
44361	0	0.372131348	-0.113342285	0.065979004	0.999999046	0.000488281	-6.67572E-06	-5.72205E-05	9.303283691	-2.833557129	1.649475098	0.024414063	-0.000333786	-0.002861023	-0.536132813	0.822265625	-0.028564453	880.72	-59.45343556	-70.57026535	-40.9557839	-60
44362	0	0.370313644	-0.112808228	0.066571236	0.999999046	0.00030899	-6.86646E-05	0.000156403	9.25784111	-2.820205688	1.664280891	0.015449524	-0.003433228	0.00782013	-0.535888672	0.820068359	-0.034179688	880.82	-59.44806485	-70.5628042	-40.92165214	-60
44363	0	0.368774414	-0.112548828	0.065307617	0.999999046	0	0.000184059	0.000221252	9.219360352	-2.813720703	1.63269043	0	0.009202957	0.011062622	-0.533447266	0.820068359	-0.034179688	880.82	-59.41832205	-70.53421268	-40.95050602	-60
44364	0	0.369433403	-0.112102509	0.065136909	0.999999046	-0.000100136	4.57764E-05	0.000342369	9.235835075	-2.802562714	1.628422737	-0.00500679	0.002288818	0.017118454	-0.535888672	0.820068359	-0.03125	880.78	-59.45876027	-70.50176505	-40.92407516	-60
44365	0	0.370605469	-0.112609863	0.066223145	0.999999046	-0.00031662	0.00011158	0.000350952	9.265136719	-2.815246582	1.655578613	-0.015830994	0.005578995	0.017547608	-0.533447266	0.820068359	-0.034179688	880.68	-59.50698544	-70.46465314	-40.90834137	-60
44366	0	0.371366501	-0.111631393	0.06696701	0.999999046	-0.000415802	0.000141144	0.000338554	9.284162521	-2.790784836	1.674175262	-0.020790101	0.00705719	0.01692772	-0.533447266	0.820068359	-0.034179688	880.76	-59.55604876	-70.42711209	-40.9031033	-60
44367	0	0.371459961	-0.111694336	0.065429688	0.999999046	-0.000679016	0.000184059	0.000293732	9.286499023	-2.792358398	1.635742188	-0.033950809	0.009202958	0.014686586	-0.533447266	0.820068359	-0.034179688	880.82	-59.61597606	-70.39162596	-40.91691661	-60
44368	0	0.368377686	-0.112430573	0.067669868	0.999999046	-0.000678062	0.000274658	8.7738E-05	9.209442139	-2.810764313	1.691746712	-0.033903125	0.013732911	0.004386902	-0.53125	0.822265625	-0.028808594	880.76	-59.6169183	-70.37124305	-41.00074923	-60
44369	0	0.371582031	-0.11315918	0.067382813	0.999999046	-0.000469208	0.000210762	-4.57764E-05	9.289550781	-2.828979492	1.684570313	-0.023460389	0.010538102	-0.002288818	-0.533691406	0.822265625	-0.031494141	880.82	-59.58985818	-70.36778048	-41.08351041	-60
44370	0	0.368695259	-0.112822533	0.06730938	0.999999046	-0.000520706	0.000185013	4.48227E-05	9.217381477	-2.820563316	1.682734489	-0.02603531	0.009250641	0.002241135	-0.533447266	0.822265625	-0.034423828	880.82	-59.59045378	-70.35684329	-41.13611079	-60
44371	0	0.373474121	-0.11505127	0.066772461	0.999999046	-0.000576019	0.000248909	-0.000148773	9.336853027	-2.876281738	1.669311523	-0.028800966	0.012445451	-0.00743866	-0.533691406	0.822265625	-0.025878906	880.82	-59.54834076	-70.36131757	-41.25637072	-61
44372	0	0.36730957	-0.113493919	0.066884041	0.999999046	-0.000771523	0.000253677	-6.58035E-05	9.182739258	-2.837347984	1.672101021	-0.03857613	0.01268387	-0.003290177	-0.53125	0.820068359	-0.025634766	880.76	-59.54078889	-70.35725579	-41.36159436	-61
44373	0	0.367553711	-0.115539551	0.06817627	0.999999046	-0.000499725	9.63211E-05	3.8147E-05	9.188842773	-2.88848877	1.704406738	-0.024986268	0.004816056	0.001907349	-0.53125	0.820068359	-0.025634766	880.76	-59.56254543	-70.35191246	-41.40116948	-60
44374	0	0.371560097	-0.115269661	0.067765236	0.999999046	-0.000165939	-5.14984E-05	0.000216484	9.289002419	-2.881741524	1.694130898	-0.008296967	-0.002574921	0.010824204	-0.533935547	0.824462891	-0.023193359	880.82	-59.61592852	-70.33746915	-41.37075255	-60
44375	0	0.370910645	-0.113952637	0.066162109	0.999999046	-0.000236511	2.38419E-05	0.000312805	9.272766113	-2.848815918	1.654052734	-0.011825562	0.001192093	0.015640259	-0.531494141	0.822265625	-0.022949219	880.78	-59.67217871	-70.30915692	-41.34537627	-60
44376	0	0.369493484	-0.114093781	0.067284584	0.999999046	-0.000533104	0.000118256	0.000232697	9.237337112	-2.852344513	1.682114601	-0.026655199	0.005912781	0.011634827	-0.533691406	0.822265625	-0.025878906	880.72	-59.72321951	-70.28328372	-41.35550139	-60
44377	0	0.368652344	-0.113891602	0.06854248	0.999999046	-0.00037384	-0.000113487	0.00019455	9.216308594	-2.847290039	1.713562012	-0.018692017	-0.005674362	0.009727478	-0.533691406	0.822265625	-0.025878906	880.82	-59.81353825	-70.27451825	-41.30323417	-60
44378	0	0.371308327	-0.113048553	0.065992355	0.999999046	-0.000370026	9.34601E-05	0.000267029	9.282708168	-2.826213837	1.649808884	-0.018501282	0.004673004	0.013351441	-0.533935547	0.822265625	-0.020019531	880.78	-59.85781956	-70.24673749	-41.31027965	-60
44379	0	0.371032715	-0.113647461	0.067504883	0.999999046	-0.000602722	0.000130653	5.34058E-05	9.275817871	-2.841186523	1.68762207	-0.03013611	0.006532669	0.002670288	-0.533935547	0.822265625	-0.020019531	880.78	-59.88406278	-70.23803112	-41.36298107	-60
44380	0	0.37008667	-0.113464355	0.068074226	0.999999046	-0.000439644	7.43866E-05	0.000117302	9.252166748	-2.836608887	1.701855659	-0.021982194	0.00371933	0.005865097	-0.533935547	0.822265625	-0.020019531	880.72	-59.91709388	-70.22625302	-41.38727178	-60
44381	0	0.369628906	-0.114318848	0.066833496	0.999999046	-0.000545502	0.000134468	-5.34058E-05	9.240722656	-2.857971191	1.670837402	-0.027275087	0.006723404	-0.002670288	-0.531494141	0.824462891	-0.023193359	880.76	-59.91834802	-70.22796391	-41.44858137	-61
44382	0	0.369501114	-0.115207672	0.066866875	0.999999046	-0.00041008	7.05719E-05	0.000117302	9.237527847	-2.880191803	1.671671867	-0.020503998	0.003528595	0.005865097	-0.531494141	0.822265625	-0.020019531	880.82	-59.94898778	-70.21639052	-41.46805371	-61
44383	0	0.369689941	-0.115600586	0.06640625	0.999999046	-0.000190735	-2.86102E-06	0.000217438	9.242248535	-2.890014648	1.66015625	-0.009536743	-0.000143051	0.010871887	-0.533935547	0.822265625	-0.017089844	880.78	-59.99077569	-70.19907196	-41.45533286	-61
44384	0	0.370554924	-0.11523819	0.067579269	0.999999046	-0.000569344	-3.8147E-05	0.000124931	9.2638731	-2.880954742	1.689481735	-0.02846718	-0.001907349	0.006246567	-0.531494141	0.822265625	-0.020019531	880.78	-60.07079955	-70.1929317	-41.43927903	-61
44385	0	0.371032715	-0.117492676	0.067749023	0.999999046	3.8147E-06	3.14713E-05	-0.000118256	9.275817871	-2.937316895	1.693725586	0.000190735	0.001573563	-0.005912781	-0.531494141	0.822265625	-0.017333984	880.76	-60.02730997	-70.20684861	-41.48987266	-61
44386	0	0.366477013	-0.114293098	0.067100525	0.999999046	-0.000133514	-7.05719E-05	0.000124931	9.161925316	-2.857327461	1.677513123	-0.00667572	-0.003528595	0.006246567	-0.531494141	0.822265625	-0.020019531	880.84	-60.06622113	-70.20242111	-41.46378277	-61
44387	0	0.369873047	-0.114807129	0.065490723	0.999999046	-0.000118256	-2.86102E-06	0.000137329	9.246826172	-2.870178223	1.637268066	-0.005912781	-0.000143051	0.006866455	-0.531738281	0.824462891	-0.014648438	880.76	-60.08677155	-70.19292927	-41.46503405	-61
44388	0	0.372282982	-0.114742279	0.065216064	0.999999046	2.57492E-05	-9.72748E-05	0.000105858	9.307074547	-2.868556976	1.630401611	0.00128746	-0.004863739	0.005292892	-0.533935547	0.822265625	-0.017089844	880.78	-60.11198667	-70.19205008	-41.44047903	-61
44389	0	0.369384766	-0.11328125	0.064575195	0.999999046	-0.000362396	-8.67844E-05	0.000141144	9.234619141	-2.83203125	1.614379883	-0.018119812	-0.004339218	0.00705719	-0.533935547	0.822265625	-0.020019531	880.76	-60.18445842	-70.18717514	-41.40592872	-61
44390	0	0.36942482	-0.115020752	0.066501617	0.999999046	-0.000461578	0	6.10352E-05	9.235620499	-2.875518799	1.662540436	-0.023078919	0	0.003051758	-0.529296875	0.824462891	-0.017578125	880.88	-60.23160767	-70.18531431	-41.41096811	-61
44391	0	0.369506836	-0.114135742	0.065856934	0.999999046	-0.000102997	-0.000231743	0.000179291	9.237670898	-2.853393555	1.64642334	-0.005149841	-0.011587143	0.008964539	-0.531494141	0.822265625	-0.014404297	880.76	-60.32025903	-70.18490924	-41.33544241	-61
44392	0	0.370716095	-0.114831924	0.065782547	0.999999046	-0.000290871	-0.000133514	0	9.267902374	-2.870798111	1.644563675	-0.014543534	-0.00667572	0	-0.531494141	0.822265625	-0.017333984	880.78	-60.3750638	-70.19680209	-41.31168571	-61
44393	0	0.370422363	-0.114929199	0.065612793	0.999999046	-0.000247955	-6.67572E-06	0.000102997	9.260559082	-2.87322998	1.640319824	-0.012397766	-0.000333786	0.005149841	-0.531738281	0.824462891	-0.014648438	880.82	-60.40607309	-70.19128254	-41.31194087	-61
44394	0	0.370582581	-0.11430645	0.065610886	0.999999046	-0.000238419	-0.000101089	0.000144005	9.264564514	-2.857661247	1.640272141	-0.011920929	-0.005054474	0.007200241	-0.531494141	0.824462891	-0.017333984	880.76	-60.46846976	-70.18707808	-41.2713965	-61
44395	0	0.368896484	-0.115661621	0.065795898	0.999999046	-0.000331879	-4.86374E-05	6.10352E-05	9.222412109	-2.891540527	1.644897461	-0.016593933	-0.00243187	0.003051758	-0.531494141	0.822265625	-0.011474609	880.82	-60.51403352	-70.18815161	-41.27118827	-61
44396	0	0.370230675	-0.115139961	0.064827919	0.999999046	-0.000126839	-7.82013E-05	8.67844E-05	9.255766869	-2.878499031	1.620697975	-0.006341934	-0.003910065	0.004339218	-0.529296875	0.824462891	-0.01171875	880.84	-60.54838212	-70.18836428	-41.25510309	-61
44397	0	0.368530273	-0.114501953	0.06628418	0.999999046	-0.000198364	-8.29697E-05	0.000144958	9.213256836	-2.862548828	1.657104492	-0.009918213	-0.004148483	0.007247925	-0.531738281	0.824462891	-0.014648438	880.68	-60.60114699	-70.18303878	-41.22271053	-61
44398	0	0.372412682	-0.116528511	0.064343452	0.999999046	-0.000169754	-0.000118256	2.19345E-05	9.310317039	-2.913212776	1.608586311	-0.008487701	-0.005912781	0.001096725	-0.531738281	0.824462891	-0.01171875	880.78	-60.64140771	-70.19200793	-41.20506668	-61
44399	0	0.369384766	-0.116027832	0.065490723	0.999999046	6.48499E-05	-4.1008E-05	-8.7738E-05	9.234619141	-2.900695801	1.637268066	0.003242493	-0.0020504	-0.004386902	-0.531494141	0.824462891	-0.017333984	880.76	-60.61624701	-70.20755867	-41.21722916	-61
44400	0	0.368372917	-0.115589142	0.065413475	0.999999046	1.62125E-05	-0.000114441	0.000213623	9.209322929	-2.889728546	1.635336876	0.000810623	-0.005722046	0.010681152	-0.531738281	0.824462891	-0.01171875	880.76	-60.66405671	-70.19710925	-41.16895716	-61
44401	0	0.370056152	-0.11706543	0.064697266	0.999999046	0.000205994	-0.000159264	4.57764E-05	9.251403809	-2.926635742	1.617431641	0.010299683	-0.007963181	0.002288818	-0.531494141	0.822265625	-0.014404297	880.76	-60.67653669	-70.20589407	-41.13074622	-61
44402	0	0.37055397	-0.115058899	0.064381599	0.999999046	0.000534058	-0.000165939	0.000121117	9.263849258	-2.876472473	1.609539986	0.026702882	-0.008296967	0.006055832	-0.531494141	0.822265625	-0.011474609	880.76	-60.66509094	-70.20758338	-41.08518337	-61
44403	0	0.369384766	-0.11529541	0.063171387	0.999999046	0.000347137	-0.000163078	-5.72205E-05	9.234619141	-2.882385254	1.579284668	0.017356873	-0.008153916	-0.002861023	-0.531494141	0.824462891	-0.017333984	880.82	-60.64668467	-70.22698281	-41.05821463	-61
44404	0	0.369174957	-0.115330696	0.064899445	0.999999046	0.000447273	-0.000232697	-4.95911E-05	9.229373932	-2.883267403	1.622486115	0.022363664	-0.011634827	-0.002479553	-0.531494141	0.822265625	-0.014404297	880.76	-60.6373677	-70.24953224	-41.01674937	-61
44405	0	0.370361328	-0.114746094	0.064086914	0.999999046	0.000370026	-0.000159264	-2.28882E-05	9.259033203	-2.868652344	1.602172852	0.018501282	-0.007963181	-0.001144409	-0.529296875	0.822265625	-0.014404297	880.82	-60.6207539	-70.26534604	-40.99221186	-61
44406	0	0.371704102	-0.114868164	0.06451416	0.999999046	0.000392914	-0.000144958	-1.52588E-05	9.292602539	-2.871704102	1.612854004	0.019645691	-0.007247925	-0.000762939	-0.531494141	0.822265625	-0.014404297	880.76	-60.59876714	-70.27965223	-40.972411	-61
44407	0	0.369578362	-0.114800453	0.063391685	0.999998093	0.000504494	-0.000177383	4.00543E-05	9.239459038	-2.87001133	1.584792137	0.025224687	-0.008869172	0.002002716	-0.529052734	0.819824219	-0.020019531	880.72	-60.58189332	-70.29030567	-40.92348948	-61
44408	0	0.370602608	-0.113432884	0.061817169	0.999999046	0.000380516	-0.000165939	-3.05176E-05	9.265065193	-2.835822105	1.54542923	0.019025803	-0.008296967	-0.001525879	-0.531494141	0.822265625	-0.020019531	880.72	-60.56524942	-70.30751111	-40.89068706	-61
44409	0	0.372131348	-0.113891602	0.062011719	0.999999046	0.000209808	-0.000182152	-0.000106812	9.303283691	-2.847290039	1.550292969	0.010490418	-0.00910759	-0.005340576	-0.531494141	0.822265625	-0.022949219	880.72	-60.56099088	-70.33338615	-40.86004509	-61
44410	0	0.372239113	-0.113786697	0.061739922	0.999999046	0.000112534	4.76837E-05	-0.00011158	9.305977821	-2.844667435	1.543498039	0.005626678	0.002384186	-0.005578995	-0.531494141	0.822265625	-0.020019531	880.76	-60.50323842	-70.34692508	-40.90431073	-60
44411	0	0.370849609	-0.114135742	0.063598633	0.999999046	0.00037384	-3.71933E-05	-0.000350952	9.271240234	-2.853393555	1.58996582	0.018692017	-0.001859665	-0.017547608	-0.533691406	0.820068359	-0.016845703	880.76	-60.40132348	-70.38914992	-40.97228721	-61
44412	0	0.375817299	-0.114498138	0.061457634	0.999999046	0.000170708	0.000154495	-0.000519753	9.395432472	-2.862453461	1.536440849	0.008535386	0.007724762	-0.025987627	-0.533935547	0.822265625	-0.020019531	880.76	-60.24215868	-70.43740866	-41.11916778	-61
44413	0	0.373840332	-0.115661621	0.061523438	0.999999046	0.000324249	0.000180244	-0.000854492	9.346008301	-2.891540527	1.538085938	0.016212466	0.009012224	-0.042724616	-0.533691406	0.817871094	-0.01953125	880.82	-60.0038854	-70.51733245	-41.33400057	-61
44414	0	0.366509438	-0.115729332	0.060935974	0.999999046	0.000520706	0.000205994	-0.000888824	9.162735939	-2.893233299	1.523399353	0.026035314	0.010299685	-0.044441231	-0.536132813	0.817871094	-0.01953125	880.72	-59.7290737	-70.59876199	-41.5658314	-61
44415	0	0.372802734	-0.116455078	0.057434082	0.999998093	0.001015663	0.000576019	-0.00120163	9.320068359	-2.911376953	1.435852051	0.050783181	0.028800978	-0.06008151	-0.538330078	0.818115234	-0.019287109	880.78	-59.24048899	-70.68907254	-41.96858393	-61
44416	0	0.382535934	-0.11456871	0.056215286	0.999997139	-0.001042366	0.001354218	-0.001101494	9.563398361	-2.864217758	1.405382156	-0.052118337	0.067710923	-0.05507473	-0.540771484	0.818115234	-0.022216797	880.72	-58.7842834	-70.72283341	-42.58042478	-61
44417	0	0.372375488	-0.115234375	0.054443359	0.999996185	-0.00159359	0.001918793	-0.000980377	9.309387207	-2.880859375	1.361083984	-0.079679585	0.095939751	-0.049018919	-0.540527344	0.815917969	-0.024902344	880.82	-58.25498079	-70.70935558	-43.3299948	-61
44418	0	0.365202904	-0.110707283	0.049448013	0.999986649	-0.003949165	0.002858162	-0.001159668	9.130072594	-2.767682076	1.236200333	-0.197459094	0.142908694	-0.057983641	-0.545410156	0.813720703	-0.018554688	880.72	-57.70817702	-70.65420984	-44.39222147	-61
44419	0	0.368713379	-0.11315918	0.049133301	0.999962807	-0.007419586	0.004174232	-0.001045227	9.217834473	-2.828979492	1.22833252	-0.370983858	0.208714183	-0.052261993	-0.545166016	0.809326172	-0.012451172	880.82	-57.22811417	-70.50409705	-45.80381153	-62
44420	0	0.36928463	-0.114748001	0.048681259	0.999955177	-0.00817585	0.004713058	-0.000392914	9.232115746	-2.868700027	1.217031479	-0.408798574	0.235656428	-0.019645983	-0.545410156	0.813964844	-0.012939453	880.82	-56.82425973	-70.25442224	-47.20983351	-62
44421	0	0.368041992	-0.109619141	0.047912598	0.999940872	-0.00952816	0.005176544	0.000415802	9.201049805	-2.740478516	1.197814941	-0.476417355	0.258832289	0.020790508	-0.550292969	0.812011719	0.001953125	880.82	-56.62144551	-69.89627994	-48.58372105	-62
44422	0	0.366739273	-0.109951973	0.047125816	0.99992466	-0.01074791	0.005743027	0.000948906	9.168481827	-2.748799324	1.178145409	-0.537408859	0.287158487	0.047446479	-0.548095703	0.809814453	0.010742188	880.82	-56.53571357	-69.45101758	-49.98215948	-61
44423	0	0.366271973	-0.106445313	0.049438477	0.999921799	-0.011008263	0.00579834	0.001068115	9.156799316	-2.661132813	1.235961914	-0.550427438	0.289924528	0.05340715	-0.545898438	0.812011719	0.021972656	880.82	-56.51985612	-68.9914715	-51.34058963	-62
44424	0	0.367647171	-0.100885391	0.04820919	0.999900818	-0.012500763	0.006363869	0.000790596	9.191179276	-2.522134781	1.205229759	-0.625058712	0.318203905	0.039531101	-0.546386719	0.814208984	0.033447266	880.78	-56.5228154	-68.52410926	-52.86291986	-63
44425	0	0.369262695	-0.101623535	0.053771973	0.999866486	-0.01482296	0.006855011	0.000415802	9.231567383	-2.540588379	1.344299316	-0.741180966	0.342765797	0.020791025	-0.544189453	0.814208984	0.050537109	880.78	-56.64725753	-68.06369729	-54.54498837	-63
44426	0	0.372253418	-0.105677605	0.061394691	0.999857903	-0.015060425	0.007474899	0.000164032	9.306335449	-2.641940117	1.534867287	-0.753056727	0.373762578	0.008201986	-0.546875	0.814453125	0.062255859	880.78	-56.64945455	-67.59033618	-56.38564122	-64
44427	0	0.367126465	-0.098083496	0.061340332	0.999846458	-0.015415192	0.008282661	-0.000236511	9.178161621	-2.452087402	1.533508301	-0.770798933	0.414154215	-0.011826165	-0.547119141	0.8125	0.076904297	880.76	-56.48765495	-67.10493076	-58.45079635	-64
44428	0	0.361979485	-0.100028992	0.068135262	0.999796867	-0.017674446	0.009607315	-0.000288963	9.049487114	-2.500724792	1.703381538	-0.883781934	0.480398165	-0.014449141	-0.549560547	0.808105469	0.09765625	880.84	-56.33179589	-66.53968907	-60.80473796	-64
44429	0	0.360839844	-0.102478027	0.071838379	0.9998312	-0.015323639	0.010045052	0.000247955	9.020996094	-2.561950684	1.795959473	-0.76622483	0.502280691	0.01239846	-0.549804688	0.803955078	0.115234375	880.78	-55.9561319	-65.89238325	-63.12165631	-64
44430	0	0.352301598	-0.093242645	0.075439453	0.999810219	-0.016016006	0.010978699	0.000994682	8.80753994	-2.331066132	1.885986328	-0.800850787	0.548969528	0.04973725	-0.554443359	0.802001953	0.124511719	880.76	-55.64704961	-65.11006493	-65.45964621	-63
44431	0	0.346984863	-0.104248047	0.083679199	0.999788284	-0.0163908	0.012371063	0.000915527	8.674621582	-2.606201172	2.09197998	-0.819597749	0.61859673	0.045779592	-0.5546875	0.799804688	0.136230469	880.76	-55.18043396	-64.23894316	-68.03098207	-61
44432	0	0.354586601	-0.109537125	0.09194088	0.999830246	-0.012863159	0.013106346	0.001020432	8.864665031	-2.738428116	2.298521996	-0.643194226	0.655354259	0.051024453	-0.557128906	0.797851563	0.147949219	880.78	-54.29497448	-63.29719764	-70.64656696	-61
44433	0	0.351135254	-0.120239258	0.09777832	0.999846458	-0.010360718	0.014088631	0.001014709	8.778381348	-3.005981445	2.444458008	-0.518062387	0.704467566	0.050738069	-0.562011719	0.795654297	0.154296875	880.76	-53.07632629	-62.268582	-73.34717411	-61
44434	0	0.348914146	-0.122469902	0.097572327	0.999872208	-0.004528999	0.015246391	0.000994682	8.722853661	-3.061747551	2.439308167	-0.226459552	0.762351834	0.049736221	-0.564208984	0.795654297	0.148681641	880.78	-51.15222196	-61.12736276	-76.1214125	-62
44435	0	0.324035645	-0.119934082	0.095458984	0.999818802	-0.00682354	0.017635345	0.001903534	8.100891113	-2.998352051	2.386474609	-0.341197528	0.881820362	0.095182427	-0.56640625	0.797851563	0.131103516	880.82	-49.42827236	-59.69023466	-78.9869357	-65
44436	0	0.293579102	-0.151367188	0.102233887	0.999826431	-0.000732422	0.018437386	0.002376556	7.339477539	-3.784179688	2.555847168	-0.036623207	0.921922466	0.118834676	-0.571044922	0.800292969	0.125488281	880.82	-47.18496706	-58.1020918	-81.71269474	-66
44437	0	0.24339962	-0.141364098	0.096627235	0.999792099	0.002383232	0.020149231	0.001493454	6.084990501	-3.53410244	2.415680885	0.119169828	1.007531059	0.074677851	-0.570800781	0.802246094	0.099365234	880.78	-44.51086944	-56.38974873	-84.57319153	-67
44438	0	0.245388031	-0.188388824	0.116927147	0.999735832	0.011169434	0.020038605	-1.43051E-05	6.134700775	-4.709720612	2.923178673	0.558520679	1.002018144	-0.000715318	-0.5703125	0.80859375	0.066894531	880.82	-40.95017586	-54.71988406	-87.34696082	-66
44439	0	0.229064941	-0.214294434	0.142333984	0.999541283	0.017009735	0.024998665	-0.001613617	5.726623535	-5.35736084	3.558349609	0.850616773	1.250124326	-0.080693181	-0.572021484	0.810546875	0.020751953	880.82	-36.368871	-52.60945173	-90.63014092	-66
44440	0	0.252260208	-0.235016823	0.204009056	0.998943329	0.032587051	0.032271385	0.00293541	6.306505203	-5.87542057	5.100226402	1.629926641	1.61413777	0.146822189	-0.573242188	0.810058594	-0.048583984	880.78	-30.46832283	-49.34293251	-93.47175321	-65
44441	0	0.293395996	-0.19329834	0.234741211	0.998400688	0.028610229	0.046757698	0.013774872	7.334899902	-4.832458496	5.868530273	1.431274218	2.339131454	0.689110827	-0.559570313	0.811035156	-0.150634766	880.82	-25.98219336	-43.8771659	-95.21425295	-67
44442	0	0.360375404	-0.099328995	0.194631577	0.99754715	0.020667076	0.060961723	0.027447701	9.009385109	-2.483224869	4.865789413	1.03419903	3.050579327	1.373507558	-0.508300781	0.822021484	-0.249755859	880.82	-23.55655378	-36.22004878	-95.41855484	-63
44443	0	0.407897949	0.005737305	0.106628418	0.996406555	-0.015669823	0.072319031	0.041191101	10.19744873	0.143432617	2.665710449	-0.784430742	3.620287992	2.062024989	-0.417724609	0.844970703	-0.328857422	880.78	-25.86971081	-26.73015923	-94.57949071	-67
44444	0	0.45500946	-0.008030891	0.059099197	0.994130135	-0.044768333	0.076248169	0.062345505	11.37523651	-0.200772285	1.477479935	-2.242806593	3.819885238	3.123388752	-0.284667969	0.900146484	-0.340820313	880.78	-31.82848517	-15.65249201	-92.55112535	-74
44445	0	0.565795898	-0.046813965	0.008666992	0.994862556	-0.038326263	0.0641222	0.068321228	14.14489746	-1.170349121	0.216674805	-1.919601534	3.211611633	3.421923307	-0.107666016	0.9609375	-0.291992188	880.82	-36.68436437	-5.223863243	-90.30578552	-74
44446	0	0.439202309	-0.065944672	0.143806458	0.998328209	-0.021755219	0.018192291	0.050356865	10.98005772	-1.648616791	3.595161438	-1.088367369	0.910121687	2.519246983	0.046386719	0.989501953	-0.221923828	880.72	-39.34763352	-0.111801806	-87.06081802	-68
44447	0	0.079223633	-0.334106445	0.719970703	0.998765945	0.02965641	-0.039756775	-0.002300262	1.98059082	-8.352661133	17.99926758	1.483430478	-1.988656454	-0.115060434	0.133544922	0.993408203	-0.200927734	880.76	-36.04651742	-3.968814534	-84.32893506	-66
44448	0	-0.07095623	-0.423890114	0.685613632	0.994665146	0.048873901	-0.037432671	-0.082761765	-1.773905754	-10.59725285	17.14034081	2.448049177	-1.874968355	-4.145461359	0.062744141	0.975097656	-0.311279297	880.78	-29.58686454	-12.81309041	-89.76083258	-68
44449	0	0.003112793	-0.439208984	0.666442871	0.994339943	0.000740051	-0.031821251	-0.101364136	0.077819824	-10.98022461	16.66107178	0.037072533	-1.594071126	-5.077790388	-0.146484375	0.948486328	-0.355224609	880.82	-26.8434944	-21.62123305	-98.45388321	-73
44450	0	-0.192944527	-0.240916252	0.510607719	0.999634743	-0.010515213	0.000688553	-0.02486515	-4.823613167	-6.022906303	12.76519299	-0.52582458	0.034431829	-1.243408694	-0.338623047	0.897460938	-0.363525391	880.78	-26.98064482	-22.88647226	-101.2517194	-69
44451	0	-0.135009766	-0.42175293	0.480834961	0.999497414	0.002826691	0.023724556	0.020828247	-3.375244141	-10.54382324	12.02087402	0.14135821	1.186426514	1.04158681	-0.33984375	0.913085938	-0.330078125	880.84	-26.99698082	-19.40563006	-100.3757688	-72
44452	0	-0.033519745	-0.204275131	0.290384293	0.99885273	-0.009720802	0.03537941	0.030744553	-0.837993622	-5.106878281	7.259607315	-0.486225928	1.769646764	1.53781531	-0.270751953	0.923828125	-0.372314453	880.78	-28.48301349	-14.19289296	-99.16363419	-69
44453	0	0.018432617	-0.240661621	0.256530762	0.99858284	-0.020152092	0.037425995	0.032012939	0.46081543	-6.016540527	6.413269043	-1.008080735	1.872184012	1.601403346	-0.189453125	0.954589844	-0.350585938	880.84	-31.01369747	-8.66069878	-98.14733243	-71
44454	0	0.001719475	-0.148198128	0.250981331	0.998843193	-0.021251678	0.030282974	0.030687332	0.04298687	-3.704953194	6.274533272	-1.062993516	1.514732369	1.534958057	-0.103027344	0.978271484	-0.328369141	880.78	-33.57943737	-3.858588647	-97.06415548	-73
44455	0	0.020568848	-0.203918457	0.357299805	0.999275208	-0.018210411	0.023456573	0.023784637	0.514221191	-5.097961426	8.932495117	-0.910740366	1.173111811	1.18951897	-0.028808594	0.998291016	-0.290771484	880.78	-35.69669953	-0.108510506	-96.3714122	-79
44456	0	-0.014215469	-0.231477737	0.425621033	0.999688148	0.006789207	0.021369934	0.010931969	-0.355386734	-5.786943436	10.64052582	0.339495589	1.068607552	0.546655139	0.025146484	1.005371094	-0.271240234	880.76	-34.92884521	2.603754147	-96.76820376	-75
44457	0	-0.059814453	-0.194152832	0.384643555	0.999633789	0.013539314	0.023395538	0.000350952	-1.495361328	-4.853820801	9.616088867	0.677048194	1.16991944	0.017549745	0.054443359	0.999755859	-0.295410156	880.76	-33.47163748	4.836156878	-98.24089134	-85
44458	0	-0.10580349	-0.183505058	0.309678078	0.999217987	-0.027890205	0.025389671	0.011863708	-2.645087242	-4.587626457	7.741951942	-1.394873852	1.269814552	0.593340083	0.073486328	0.999023438	-0.308105469	880.82	-36.7307357	7.994764487	-98.8188055	-69
44459	0	-0.191101074	-0.269592285	0.274291992	0.998958588	-0.039740562	0.013519287	0.017841339	-4.777526855	-6.739807129	6.857299805	-1.987717736	0.676198954	0.892376554	0.111816406	1.016113281	-0.224853516	880.9	-41.18829423	10.48775476	-98.20835723	-69
44460	0	-0.162194252	-0.338913918	0.257145882	0.999580383	-0.020969391	0.000678062	0.019954681	-4.0548563	-8.472847939	6.428647041	-1.048616099	0.033907861	0.997873533	0.155029297	1.026123047	-0.152832031	880.82	-43.27033969	12.08869804	-96.54433667	-72
44461	0	-0.13873291	-0.342224121	0.228393555	0.9998703	0.000294685	-0.005058289	0.015285492	-3.468322754	-8.555603027	5.709838867	0.014734905	-0.252925361	0.764307633	0.192626953	1.025146484	-0.123046875	880.82	-42.87646944	12.87034436	-94.83409324	-69
44462	0	-0.147922516	-0.269740105	0.210121155	0.999835014	0.00828743	-0.007482529	0.014249802	-3.698062897	-6.743502617	5.25302887	0.414394127	-0.374146873	0.712529005	0.221435547	1.019775391	-0.135742188	880.82	-41.52399278	13.34436682	-93.00719696	-73
44463	0	-0.114807129	-0.244384766	0.217102051	0.999742508	0.005562782	-0.008796692	0.020130157	-2.870178223	-6.109619141	5.42755127	0.278162926	-0.43987225	1.006594042	0.253173828	1.009521484	-0.154052734	880.82	-40.31372183	14.10801435	-90.5426954	-69
44464	0	-0.12920475	-0.243359566	0.246185303	0.999678612	0.005942345	-0.008068085	0.023262978	-3.230118752	-6.083989143	6.154632568	0.297149013	-0.403447384	1.16327329	0.291748047	0.997070313	-0.166748047	880.78	-38.95847426	15.11334751	-87.82260759	-68
44465	0	-0.138122559	-0.225097656	0.241821289	0.999696732	0.005848885	-0.009250641	0.022045135	-3.453063965	-5.627441406	6.045532227	0.292473763	-0.462578754	1.102368091	0.335693359	0.979980469	-0.185058594	880.84	-37.57146075	15.86481467	-85.09321413	-69
44466	0	-0.120287895	-0.233018875	0.224726677	0.99966526	0.017072678	-0.014234543	0.013192177	-3.00719738	-5.825471878	5.618166924	0.853728966	-0.711806421	0.659682314	0.372314453	0.962890625	-0.208740234	880.82	-35.01862809	15.46555887	-82.83222168	-73
44467	0	-0.155151367	-0.247497559	0.249938965	0.999334335	0.02833271	-0.021640778	0.00769043	-3.87878418	-6.187438965	6.248474121	1.416949772	-1.082278913	0.384606784	0.383789063	0.942138672	-0.265380859	880.84	-31.24044031	13.89397809	-80.67551201	-87
44468	0	-0.135219574	-0.232143402	0.275167465	0.999024391	0.036686897	-0.022428513	0.010005951	-3.380489349	-5.803585052	6.87918663	1.83494127	-1.121790241	0.50046021	0.383544922	0.921630859	-0.3359375	880.82	-26.53276008	12.22372115	-78.3799216	-79
44469	0	-0.135009766	-0.238342285	0.308532715	0.998298645	0.047383308	-0.028774261	0.018028259	-3.375244141	-5.958557129	7.713317871	2.370509275	-1.43952915	0.901924269	0.389160156	0.883056641	-0.419677734	880.76	-20.48684479	10.05312199	-75.11915085	-73
44470	0	-0.125069618	-0.132761955	0.315153122	0.998230934	0.043401718	-0.026899338	0.030447006	-3.126740456	-3.319048882	7.878828049	2.171366235	-1.345760405	1.523248482	0.398681641	0.817626953	-0.533447266	880.76	-14.84164253	8.207433952	-70.81568348	-72
44471	0	-0.038513184	-0.173522949	0.329589844	0.998520851	0.025085449	-0.032092094	0.035991669	-0.96282959	-4.33807373	8.239746094	1.254890925	-1.60539593	1.800470785	0.417236328	0.75	-0.606689453	880.84	-11.39564543	5.593746453	-65.937345	-70
44472	0	0.056959152	-0.184677124	0.641109467	0.996473312	0.066108704	-0.038355827	0.0346241	1.423978806	-4.616928101	16.02773666	3.309326095	-1.920048849	1.733242833	0.423828125	0.680419922	-0.679443359	880.84	-3.533407198	1.776787759	-61.43224995	-68
44473	0	0.138244629	0.277954102	0.516113281	0.998273849	0.057877541	0.001163483	0.009857178	3.456115723	6.948852539	12.90283203	2.895542788	0.058207619	0.493142584	0.420166016	0.537597656	-0.797363281	880.76	3.137563984	1.936237836	-60.30919018	-67
44474	0	0.144340515	0.202121735	0.269755363	0.999933243	-0.009860039	-0.003434181	0.004796028	3.608512878	5.053043365	6.743884087	-0.493012786	-0.171712839	0.239806683	0.4296875	0.490478516	-0.820068359	880.78	2.031422951	1.532503558	-59.77985565	-68
44475	0	0.058959961	0.144226074	0.135803223	0.999857903	-0.01039505	-0.011088371	0.007255554	1.473999023	3.605651855	3.395080566	-0.519777077	-0.554444778	0.362794863	0.424560547	0.495361328	-0.811279297	880.78	0.867196176	0.251636727	-58.98358793	-67
44476	0	0.000658035	-0.040058136	0.331208229	0.999649048	0.007968903	-0.023198128	0.009943008	0.016450882	-1.0014534	8.280205727	0.398491664	-1.160041853	0.497208483	0.409667969	0.511230469	-0.814697266	880.82	1.772466461	-2.422692664	-57.91110993	-66
44477	0	0.005615234	-0.237792969	0.529846191	0.991451263	0.127804756	-0.022579193	0.013381958	0.140380859	-5.944824219	13.24615479	6.408508234	-1.132187481	0.671010928	0.382568359	0.447509766	-0.865722656	880.76	16.38869386	-5.2089663	-56.81924089	-67
44478	0	0.124938965	0.481201172	0.425476074	0.998755455	0.049430847	-0.004383087	0.004837036	3.123474121	12.0300293	10.63690186	2.472567555	-0.219245263	0.241952127	0.353027344	0.181640625	-0.969238281	880.82	22.03761203	-5.857557159	-56.46510481	-68
44479	0	0.034862518	0.141386032	0.384161949	0.998970985	-0.044956207	0.005578041	-0.000702858	0.871562958	3.534650803	9.604048729	-2.248580077	0.278997558	-0.035154932	0.35546875	0.181396484	-0.969238281	880.82	16.88651677	-5.219653192	-56.32740661	-67
44480	0	0.010896683	0.085375786	0.339211464	0.999740601	0.022657394	-0.001521111	0.001150131	0.272417068	2.134394646	8.480286598	1.132967358	-0.076062082	0.057511518	0.364746094	0.234619141	-0.948242188	880.82	19.49080515	-5.417215919	-56.26442109	-68
44481	0	-0.003723145	0.24230957	0.313842773	0.999960899	0.008769989	-0.0008955	0.000530243	-0.093078613	6.057739258	7.846069336	0.438505151	-0.044775591	0.026512491	0.360107422	0.181396484	-0.966796875	880.82	20.51381857	-5.523186321	-56.24786449	-68
44482	0	0.039442062	0.150964737	0.395657539	0.999871254	-0.015964508	0.000911713	0.000795364	0.986051559	3.774118423	9.891438484	-0.798259508	0.04558758	0.039769918	0.359863281	0.185791016	-0.964111328	880.78	18.69240983	-5.444211769	-56.12961471	-68
44483	0	0.057128906	0.08203125	0.420043945	0.999990463	-0.00373745	0.001934052	-0.000350952	1.428222656	2.05078125	10.50109863	-0.186873038	0.096702863	-0.01754766	0.363525391	0.209960938	-0.963378906	880.78	18.27732356	-5.211269934	-56.10284439	-69
44484	0	0.026109695	0.091531754	0.381291389	0.999995232	-0.001196861	0.002277374	-0.000172615	0.652742386	2.288293839	9.532284737	-0.05984313	0.11386884	-0.008630762	0.365722656	0.216796875	-0.958251953	880.82	18.14860158	-4.946878441	-56.0460834	-69
44485	0	0.018859863	0.105163574	0.373718262	0.999986649	0.005002022	0.000259399	0.000102997	0.471496582	2.629089355	9.342956543	0.250102136	0.012970025	0.005149863	0.370361328	0.216552734	-0.952880859	880.78	18.73272858	-4.911478326	-56.03190922	-69
44486	0	0.029251099	0.137294769	0.374880791	0.999988556	0.00455761	-0.000638008	0.000717163	0.731277466	3.432369232	9.372019768	0.227881302	-0.031900521	0.035858284	0.370849609	0.205322266	-0.957763672	880.94	19.26311117	-4.996267776	-55.98375658	-68
44487	0	0.035888672	0.131713867	0.377258301	0.999999046	0.000190735	0.000142097	0.000171661	0.897216797	3.29284668	9.43145752	0.009536743	0.007104874	0.008583069	0.373535156	0.196533203	-0.95703125	880.88	19.29524749	-4.976462026	-55.96367942	-68
44488	0	0.032772064	0.121407509	0.373742104	0.999999046	-0.000121117	0.000127792	-0.000271797	0.819301605	3.035187721	9.343552589	-0.006055832	0.006389618	-0.013589859	0.371337891	0.198730469	-0.962890625	880.88	19.29501255	-4.941496413	-55.9934959	-67
44489	0	0.031921387	0.125183105	0.373718262	0.999998093	0.001889229	-0.000148773	0.000217438	0.798034668	3.129577637	9.342956543	0.094461498	-0.007438664	0.010871894	0.373535156	0.198730469	-0.960205078	880.78	19.52081786	-4.955022397	-55.98075774	-67
44490	0	0.0322752	0.136908531	0.377038956	0.999993324	0.003316879	-0.000530243	0.000415802	0.806879997	3.42271328	9.425973892	0.16584428	-0.026512197	0.02079014	0.369140625	0.194335938	-0.965332031	880.82	19.90943943	-5.017465828	-55.96307939	-68
44491	0	0.03527832	0.142150879	0.373657227	0.999997139	0.002067566	-0.000624657	-0.000247955	0.881958008	3.553771973	9.341430664	0.103378377	-0.031232858	-0.012397776	0.369384766	0.187744141	-0.96484375	880.82	20.16150961	-5.064255024	-56.02010743	-69
44492	0	0.038721085	0.141559601	0.368692398	0.999999046	7.9155E-05	-0.000484467	-0.000988007	0.968027115	3.538990021	9.217309952	0.003957749	-0.024223333	-0.04940034	0.369384766	0.185302734	-0.967529297	880.88	20.19225436	-5.066869296	-56.15073398	-68
44493	0	0.042724609	0.135620117	0.373535156	0.999999046	-0.000896454	-0.00014019	-0.000778198	1.068115234	3.39050293	9.338378906	-0.044822704	-0.007009508	-0.038909921	0.3671875	0.185546875	-0.964599609	880.82	20.10753045	-5.041268105	-56.24495431	-68
44494	0	0.038350105	0.132570267	0.372480392	0.999999046	-0.000764847	0.000276566	0.000198364	0.958752632	3.314256668	9.312009811	-0.038242345	0.013828279	0.009918214	0.366943359	0.187744141	-0.961914063	880.82	20.02663336	-5.009627254	-56.21762542	-68
44495	0	0.036682129	0.134338379	0.376953125	0.999999046	-0.000175476	-2.95639E-05	-0.000286102	0.917053223	3.358459473	9.423828125	-0.008773804	-0.001478195	-0.014305115	0.369140625	0.189941406	-0.962158203	880.82	20.01842649	-4.992101005	-56.25443417	-68
44496	0	0.035469055	0.13257885	0.374250412	0.999999046	-0.000267982	0.000104904	6.48499E-05	0.886726379	3.314471245	9.3562603	-0.013399124	0.005245209	0.003242493	0.366699219	0.192138672	-0.962158203	880.88	19.99535908	-4.974013082	-56.24941825	-67
44497	0	0.032287598	0.135925293	0.371154785	0.999999046	-0.000400543	0.00011158	-0.000461578	0.807189941	3.398132324	9.278869629	-0.020027162	0.005578995	-0.02307892	0.366943359	0.189941406	-0.961914063	880.82	19.96173191	-4.934571149	-56.3000463	-67
44498	0	0.032571793	0.130895615	0.372609138	0.999999046	-0.001001358	0.000555038	0.000221252	0.814294815	3.272390366	9.315228462	-0.050067913	0.027751929	0.011062625	0.366699219	0.192138672	-0.965087891	880.84	19.85091158	-4.874080123	-56.26040643	-67
44499	0	0.032775879	0.132629395	0.374206543	0.999999046	-0.000556946	0.000119209	7.62939E-06	0.819396973	3.315734863	9.355163574	-0.027847292	0.005960465	0.00038147	0.368896484	0.194335938	-0.959472656	880.82	19.79405299	-4.852252789	-56.26014413	-67
44500	0	0.032260895	0.129523277	0.376921654	0.999999046	-0.001112938	0.00018692	-0.000290871	0.806522369	3.238081932	9.423041344	-0.055646909	0.00934601	-0.014543537	0.368896484	0.196533203	-0.965576172	880.78	19.67542017	-4.811589411	-56.29011832	-67
44501	0	0.03314209	0.125488281	0.375549316	0.999999046	-0.000564575	0.000191689	1.14441E-05	0.828552246	3.137207031	9.38873291	-0.028228761	0.009584427	0.000572205	0.368896484	0.198730469	-0.962890625	880.78	19.61618055	-4.78218985	-56.28748783	-67
44502	0	0.036724091	0.127076149	0.3766222	0.999999046	5.14984E-05	-3.62396E-05	0.00020504	0.918102264	3.176903725	9.415555	0.002574921	-0.001811981	0.010251999	0.37109375	0.198730469	-0.957275391	880.82	19.62594226	-4.78510293	-56.27140314	-67
44503	0	0.034118652	0.130981445	0.375305176	0.999999046	0.000392914	7.72476E-05	0.000331879	0.852966309	3.274536133	9.382629395	0.019645692	0.003862381	0.016593934	0.37109375	0.200927734	-0.960205078	880.82	19.67296061	-4.78080493	-56.23860912	-67
44504	0	0.032562256	0.132900238	0.37306881	0.999999046	-4.673E-05	-7.62939E-06	0.000418663	0.814056396	3.322505951	9.326720238	-0.002336502	-0.00038147	0.020933152	0.368896484	0.198730469	-0.962890625	880.88	19.66885436	-4.789087469	-56.2002133	-67
44505	0	0.031494141	0.131103516	0.374572754	0.999999046	0.000530243	-5.24521E-05	0.000160217	0.787353516	3.277587891	9.364318848	0.026512147	-0.002622605	0.008010865	0.37109375	0.198730469	-0.959960938	880.84	19.73300207	-4.792233734	-56.19062834	-68
44506	0	0.03493309	0.132282257	0.37467289	0.999999046	-0.000297546	0.000167847	7.15256E-05	0.873327255	3.307056427	9.366822243	-0.01487732	0.008392334	0.003576279	0.373535156	0.196533203	-0.95703125	880.78	19.70207975	-4.768342935	-56.17995233	-68
44507	0	0.032958984	0.129333496	0.373168945	0.999999046	-0.000305176	0.00023365	0.000236511	0.823974609	3.233337402	9.329223633	-0.01525879	0.011682511	0.011825562	0.373779297	0.196289063	-0.962890625	880.82	19.66820133	-4.743798843	-56.14937659	-68
44508	0	0.034675598	0.129636765	0.375887871	0.999999046	8.4877E-05	0.000421524	0.000247955	0.866889954	3.240919113	9.39719677	0.004243851	0.021076203	0.012397767	0.373291016	0.200927734	-0.954589844	880.82	19.67793538	-4.699590348	-56.11206973	-69
44509	0	0.032470703	0.129272461	0.374389648	0.999999046	0.000312805	0.000321388	0.000457764	0.811767578	3.231811523	9.359741211	0.01564026	0.016069413	0.022888185	0.373535156	0.200927734	-0.960449219	880.82	19.71188433	-4.674378794	-56.05704286	-69
44510	0	0.03088665	0.132530212	0.374569893	0.999999046	0.000268936	7.82013E-05	0.000141144	0.772166252	3.31325531	9.364247322	0.013446808	0.003910065	0.00705719	0.375976563	0.198486328	-0.960205078	880.78	19.7441407	-4.663166974	-56.04381845	-69
44511	0	0.03112793	0.130493164	0.374450684	0.999999046	-3.43323E-05	7.72476E-05	-1.90735E-05	0.778198242	3.262329102	9.36126709	-0.001716614	0.003862381	-0.000953674	0.373535156	0.196533203	-0.959960938	880.82	19.74271909	-4.645869141	-56.0483892	-69
44512	0	0.032407761	0.129369736	0.374464035	0.999999046	0.000145912	0	-4.95911E-05	0.810194016	3.234243393	9.361600876	0.007295609	0	-0.002479553	0.375976563	0.198486328	-0.960205078	880.76	19.76207618	-4.635797628	-56.0588923	-69
44513	0	0.030090332	0.129699707	0.374633789	0.999999046	0.000110626	0.000126839	0.000183105	0.752258301	3.242492676	9.365844727	0.005531311	0.006341934	0.009155274	0.375976563	0.196289063	-0.957275391	880.82	19.77458936	-4.621023292	-56.03835975	-69
44514	0	0.032178879	0.129831314	0.374856949	0.999999046	0.000255585	5.91278E-05	7.62939E-05	0.80447197	3.245782852	9.371423721	0.012779236	0.00295639	0.003814697	0.375976563	0.198486328	-0.960205078	880.88	19.80450176	-4.609493968	-56.03353913	-69
44515	0	0.031677246	0.129577637	0.374755859	0.999999046	0.000190735	-0.000105858	-0.000144958	0.791931152	3.239440918	9.368896484	0.009536743	-0.005292893	-0.007247925	0.373535156	0.196533203	-0.95703125	880.88	19.8290506	-4.607208421	-56.05908327	-69
44516	0	0.032511711	0.131560326	0.373661041	0.999999046	0.000470161	-4.57764E-05	5.62668E-05	0.812792778	3.289008141	9.341526031	0.023508073	-0.002288818	0.002813339	0.376220703	0.194091797	-0.962890625	880.82	19.88342436	-4.606350431	-56.05897158	-69
44517	0	0.033691406	0.132995605	0.374389648	0.999999046	9.15527E-05	-0.000201225	0.000114441	0.842285156	3.324890137	9.359741211	0.004577637	-0.010061264	0.005722046	0.375976563	0.196289063	-0.963134766	880.84	19.89418427	-4.624660925	-56.05969226	-69
44518	0	0.032284737	0.131468773	0.373620033	0.999999046	0.000144958	-0.000112534	0.000121117	0.807118416	3.286719322	9.340500832	0.007247925	-0.005626679	0.006055832	0.375976563	0.194091797	-0.95703125	880.72	19.9104542	-4.633740322	-56.05456343	-69
44519	0	0.032775879	0.12902832	0.373657227	0.999999046	0.000106812	8.58307E-06	-9.15527E-05	0.819396973	3.225708008	9.341430664	0.005340576	0.000429153	-0.004577637	0.375976563	0.196289063	-0.960205078	880.78	19.92343985	-4.621568088	-56.06910254	-69
44520	0	0.03314209	0.132629395	0.374084473	0.999999046	0.000470161	-0.000141144	3.43323E-05	0.828552246	3.315734863	9.352111816	0.023508073	-0.00705719	0.001716614	0.375976563	0.194091797	-0.95703125	880.78	19.97722063	-4.630540235	-56.07473038	-70
44521	0	0.032951355	0.13034153	0.373286247	0.999998093	-0.000264168	0.0001297	0.000266075	0.823783875	3.258538246	9.332156181	-0.01320839	0.006484986	0.013303757	0.373779297	0.194335938	-0.95703125	880.78	19.94365386	-4.619506861	-56.04615763	-69
44522	0	0.032344818	0.131567955	0.374245644	0.999999046	0.000270844	8.96454E-05	0.000109673	0.808620453	3.289198875	9.35614109	0.013542176	0.004482269	0.005483627	0.375976563	0.196289063	-0.960205078	880.82	19.97262531	-4.606733963	-56.03643493	-70
44523	0	0.032165527	0.13104248	0.374755859	0.999999046	0.000339508	9.25064E-05	0.000213623	0.804138184	3.276062012	9.368896484	0.016975403	0.004625321	0.010681153	0.373779297	0.194335938	-0.95703125	880.76	20.00825755	-4.597787783	-56.01580358	-69
44524	0	0.030323029	0.134029388	0.373327255	0.999999046	0.000575066	-0.000181198	0.000171661	0.758075714	3.350734711	9.333181381	0.028753283	-0.009059907	0.008583069	0.376220703	0.194091797	-0.959960938	880.78	20.07197356	-4.616641659	-56.00956404	-69
44525	0	0.031616211	0.132019043	0.374816895	0.999999046	-0.000148773	6.19888E-05	-3.8147E-06	0.790405273	3.300476074	9.370422363	-0.00743866	0.003099442	-0.000190735	0.376220703	0.194091797	-0.959960938	880.84	20.05321867	-4.602445795	-56.01257352	-69
44526	0	0.031508446	0.131052971	0.373394012	0.999999046	0.00034523	4.3869E-05	0.000156403	0.787711143	3.276324272	9.334850311	0.017261506	0.002193451	0.00782013	0.373535156	0.196533203	-0.95703125	880.82	20.08945867	-4.596534595	-56.00193406	-69
44527	0	0.031616211	0.131530762	0.373413086	0.999999046	0.000141144	-0.000102043	7.62939E-05	0.790405273	3.288269043	9.335327148	0.00705719	-0.005102158	0.003814697	0.376220703	0.191894531	-0.956787109	880.82	20.10319794	-4.603202692	-56.00148357	-69
44528	0	0.030614853	0.131204605	0.37648201	0.999999046	-8.10623E-05	-0.000135422	-8.01086E-05	0.765371323	3.280115128	9.412050247	-0.004053116	-0.006771088	-0.004005432	0.376220703	0.194091797	-0.959960938	880.78	20.09260195	-4.607275728	-56.02047294	-69
44529	0	0.032043457	0.130310059	0.374084473	0.999999046	0.000297546	-6.67572E-06	6.48499E-05	0.801086426	3.257751465	9.352111816	0.01487732	-0.000333786	0.003242493	0.376220703	0.191894531	-0.959716797	880.88	20.12340303	-4.603251255	-56.01777926	-70
44530	0	0.032615662	0.133581161	0.375835419	0.999999046	0.000658035	-8.7738E-05	0.000175476	0.815391541	3.339529037	9.395885468	0.032901767	-0.004386902	0.008773804	0.378662109	0.191894531	-0.959960938	880.82	20.19461212	-4.612384454	-56.00537413	-70
44531	0	0.029296875	0.13494873	0.372924805	0.999999046	6.86646E-05	-5.62668E-05	5.34058E-05	0.732421875	3.373718262	9.323120117	0.003433228	-0.002813339	0.002670288	0.378662109	0.191894531	-0.959960938	880.84	20.19913967	-4.613216	-56.00491801	-69
44532	0	0.033137321	0.131577492	0.373452187	0.999999046	-4.76837E-06	-9.53674E-05	9.15527E-05	0.828433037	3.289437294	9.336304665	-0.000238419	-0.004768372	0.004577637	0.376220703	0.191894531	-0.962646484	880.84	20.19477492	-4.619868675	-56.00384789	-70
44533	0	0.032348633	0.13269043	0.373291016	0.999999046	0.000160217	3.52859E-05	0.000125885	0.80871582	3.317260742	9.332275391	0.008010864	0.001764297	0.006294251	0.378662109	0.189697266	-0.962646484	880.76	20.20839228	-4.613883787	-55.99120308	-69
44534	0	0.032051086	0.13261795	0.372578621	0.999999046	0.000104904	-0.000102997	9.91821E-05	0.801277161	3.315448761	9.314465523	0.005245209	-0.005149841	0.004959106	0.378662109	0.191894531	-0.959960938	880.88	20.21614805	-4.621761583	-55.98780336	-69
44535	0	0.031677246	0.132446289	0.373413086	0.999999046	-8.39233E-05	-2.86102E-06	0.000160217	0.791931152	3.311157227	9.335327148	-0.004196167	-0.000143051	0.008010864	0.376220703	0.189697266	-0.956787109	880.82	20.20119668	-4.621307346	-55.97382434	-70
44536	0	0.029585838	0.133533478	0.37343502	0.999999046	0.000536919	-6.29425E-05	0.000319481	0.739645958	3.338336945	9.335875511	0.026845934	-0.003147125	0.015974046	0.378662109	0.189697266	-0.959716797	880.88	20.25603891	-4.633540349	-55.94442239	-69
44537	0	0.034057617	0.133789063	0.37487793	0.999999046	-0.000167847	4.76837E-06	-2.28882E-05	0.85144043	3.344726563	9.371948242	-0.008392334	0.000238419	-0.001144409	0.376464844	0.1875	-0.959472656	880.88	20.23269981	-4.625056275	-55.94932029	-70
44538	0	0.03191185	0.131894112	0.375471115	0.999999046	-8.58307E-05	2.09808E-05	0.000137329	0.797796249	3.297352791	9.386777878	-0.004291534	0.001049042	0.006866455	0.381103516	0.191650391	-0.962890625	880.78	20.21704216	-4.621201236	-55.93589938	-70
44539	0	0.030883789	0.13079834	0.375549316	0.999999046	-4.95911E-05	0.000206947	1.52588E-05	0.772094727	3.269958496	9.38873291	-0.002479553	0.010347366	0.000762939	0.376220703	0.191894531	-0.959716797	880.78	20.2056934	-4.592487821	-55.93178655	-70
44540	0	0.030977249	0.133750916	0.37349987	0.999999046	0.000479698	-5.72205E-06	0.000259399	0.774431229	3.343772888	9.337496758	0.02398491	-0.000286102	0.012969971	0.378662109	0.189697266	-0.959716797	880.76	20.25344111	-4.596306286	-55.90721545	-70
44541	0	0.030151367	0.134887695	0.374633789	0.999999046	0.000152588	-0.000159264	-6.10352E-05	0.75378418	3.372192383	9.365844727	0.007629395	-0.007963181	-0.003051758	0.378662109	0.189697266	-0.959716797	880.76	20.26686173	-4.603870814	-55.92314778	-70
44542	0	0.031169891	0.131525993	0.374033928	0.999999046	-8.96454E-05	-6.67572E-05	-7.24792E-05	0.779247284	3.288149834	9.350848198	-0.004482269	-0.00333786	-0.003623962	0.376220703	0.189697266	-0.956787109	880.82	20.25207394	-4.601038392	-55.9377146	-70
44543	0	0.031982422	0.132995605	0.372741699	0.999999046	0.000411987	-4.48227E-05	3.05176E-05	0.799560547	3.324890137	9.31854248	0.020599366	-0.002241135	0.001525879	0.376464844	0.189697266	-0.962402344	880.82	20.29365786	-4.599980275	-55.94138855	-70
44544	0	0.032085419	0.133361816	0.373177528	0.999999046	0.000151634	-5.53131E-05	-5.72205E-05	0.802135468	3.33404541	9.32943821	0.007581711	-0.002765656	-0.002861023	0.378662109	0.1875	-0.956542969	880.82	20.30604774	-4.596606484	-55.95075369	-70
44545	0	0.031555176	0.131896973	0.373901367	0.999999046	2.28882E-05	5.81741E-05	7.24792E-05	0.788879395	3.297424316	9.34753418	0.001144409	0.002908707	0.003623962	0.381103516	0.189453125	-0.95703125	880.82	20.30196756	-4.586212877	-55.94117346	-70
44546	0	0.032874107	0.132457733	0.373715401	0.999999046	0.000108719	-4.00543E-05	0.000148773	0.821852684	3.311443329	9.342885017	0.005435944	-0.002002716	0.00743866	0.378662109	0.189697266	-0.959716797	880.76	20.30718341	-4.589499529	-55.93005583	-70
44547	0	0.030578613	0.135131836	0.374389648	0.999999046	0.000404358	-0.000182152	0.000137329	0.764465332	3.378295898	9.359741211	0.020217896	-0.00910759	0.006866455	0.37890625	0.187255859	-0.962402344	880.76	20.34675211	-4.607566939	-55.92472609	-71
44548	0	0.031179428	0.134936333	0.373475075	0.999999046	0.000191689	-6.48499E-05	0.000166893	0.779485703	3.373408318	9.336876869	0.009584427	-0.003242493	0.00834465	0.381103516	0.189453125	-0.962646484	880.82	20.3612357	-4.614203767	-55.91143821	-70
44549	0	0.032104492	0.133789063	0.372924805	0.999999046	5.34058E-05	-4.1008E-05	-7.62939E-06	0.802612305	3.344726563	9.323120117	0.002670288	-0.0020504	-0.00038147	0.381103516	0.187255859	-0.959716797	880.82	20.36117879	-4.611363049	-55.91394911	-71
44550	0	0.032255173	0.132364273	0.374250412	0.999999046	0.000118256	-0.000156403	0.000167847	0.806379318	3.309106827	9.3562603	0.005912781	-0.007820129	0.008392334	0.37890625	0.185058594	-0.962158203	880.78	20.36718475	-4.627961391	-55.90296567	-70
44551	0	0.031005859	0.132385254	0.373962402	0.999999046	0.000301361	-2.95639E-05	3.43323E-05	0.775146484	3.309631348	9.349060059	0.015068054	-0.001478195	0.001716614	0.378662109	0.1875	-0.959472656	880.82	20.39471573	-4.625584779	-55.9030195	-71
44552	0	0.031098366	0.13437748	0.373208046	0.999999046	0.000229836	-4.19617E-05	0.000270844	0.777459145	3.359436989	9.330201149	0.011491776	-0.002098084	0.013542176	0.378662109	0.1875	-0.959472656	880.78	20.41192975	-4.633969045	-55.87846208	-71
44553	0	0.030822754	0.134643555	0.373962402	0.999999046	-2.67029E-05	-8.29697E-05	-6.86646E-05	0.770568848	3.366088867	9.349060059	-0.001335144	-0.004148483	-0.003433228	0.37890625	0.187255859	-0.962402344	880.82	20.40272518	-4.633156034	-55.89196879	-70
44554	0	0.030927658	0.133467674	0.372315407	0.999999046	0	-0.000112534	0.000144005	0.773191452	3.336691856	9.30788517	0	-0.005626678	0.007200241	0.378662109	0.1875	-0.959472656	880.78	20.3946954	-4.64399269	-55.88342044	-71
44555	0	0.03326416	0.135314941	0.372497559	0.999999046	9.91821E-05	-1.43051E-05	4.57764E-05	0.831604004	3.382873535	9.312438965	0.004959106	-0.000715256	0.002288818	0.378662109	0.189697266	-0.962646484	880.88	20.39853121	-4.640443324	-55.88376549	-71
44556	0	0.031822205	0.132212639	0.375704765	0.999999046	-0.000433922	4.57764E-05	0.0001297	0.795555115	3.305315971	9.392619133	-0.021696091	0.002288818	0.006484986	0.378662109	0.189697266	-0.962646484	880.76	20.34010947	-4.633794052	-55.87214848	-71
44557	0	0.032104492	0.132141113	0.37310791	0.999999046	8.39233E-05	0.000126839	0.000198364	0.802612305	3.303527832	9.327697754	0.004196167	0.006341934	0.009918213	0.37890625	0.185058594	-0.959472656	880.78	20.33999893	-4.621198302	-55.84607882	-71
44558	0	0.032307625	0.134876251	0.373519897	0.999999046	0.000284195	-1.33514E-05	0.000144958	0.80769062	3.371906281	9.337997437	0.014209748	-0.000667572	0.007247925	0.376464844	0.185302734	-0.962158203	880.78	20.36371022	-4.621578853	-55.83475527	-71
44559	0	0.029663086	0.135253906	0.371765137	0.999999046	-0.000209808	6.19888E-05	0.0001297	0.741577148	3.381347656	9.294128418	-0.010490418	0.003099442	0.006484985	0.37890625	0.185058594	-0.962158203	880.78	20.33070008	-4.613169866	-55.8194736	-71
44560	0	0.031603813	0.134110451	0.375974655	0.999998093	-5.34058E-05	-4.1008E-05	-6.48499E-05	0.790095329	3.352761269	9.399366379	-0.002670288	-0.0020504	-0.003242493	0.381103516	0.189453125	-0.965576172	880.76	20.31750998	-4.60808187	-55.83093858	-71
44561	0	0.030334473	0.132751465	0.374938965	0.999999046	0	-0.000113487	2.67029E-05	0.758361816	3.318786621	9.373474121	0	-0.005674362	0.001335144	0.380859375	0.189453125	-0.954101563	880.84	20.30971905	-4.614375397	-55.8330629	-71
44562	0	0.031524658	0.132993698	0.373039246	1	-8.58307E-06	-4.29153E-05	-3.8147E-06	0.788116455	3.324842453	9.32598114	-0.000429153	-0.002145767	-0.000190735	0.378662109	0.1875	-0.959472656	880.76	20.30087517	-4.611883019	-55.83718252	-70
44563	0	0.030151367	0.131225586	0.374084473	0.999999046	-1.52588E-05	-7.53403E-05	0.00018692	0.75378418	3.280639648	9.352111816	-0.000762939	-0.003767014	0.009346008	0.378662109	0.189697266	-0.962646484	880.78	20.28951138	-4.620397495	-55.82427241	-70
44564	0	0.031294823	0.132117271	0.375060081	0.999999046	7.53403E-05	-7.82013E-05	0.000128746	0.782370567	3.302931786	9.376502037	0.003767014	-0.003910065	0.006437302	0.381103516	0.187255859	-0.956787109	880.82	20.28887342	-4.626903099	-55.81221589	-70
44565	0	0.03112793	0.134033203	0.373718262	0.999999046	0.000606537	-0.000224113	5.34058E-05	0.778198242	3.350830078	9.342956543	0.030326845	-0.011205674	0.002670288	0.381103516	0.189453125	-0.959960938	880.76	20.35018272	-4.646075975	-55.81693211	-71
44566	0	0.029478073	0.134846687	0.371404648	0.999999046	0.000139236	-0.000192642	-3.8147E-05	0.736951828	3.371167183	9.285116196	0.006961823	-0.009632111	-0.001907349	0.381103516	0.187255859	-0.959716797	880.78	20.35865391	-4.658119439	-55.82817146	-70
44567	0	0.031188965	0.133728027	0.374816895	0.999999046	8.7738E-05	-0.000247002	-7.62939E-05	0.779724121	3.343200684	9.370422363	0.004386902	-0.012350083	-0.003814697	0.37890625	0.187255859	-0.962402344	880.72	20.36163135	-4.674456002	-55.84793968	-71
44568	0	0.032024384	0.132760048	0.372579575	0.999999046	-0.00011158	-8.58307E-05	-3.43323E-05	0.800609589	3.319001198	9.314489365	-0.005578995	-0.004291534	-0.001716614	0.376464844	0.185302734	-0.962158203	880.82	20.34076508	-4.675176631	-55.8570882	-71
44569	0	0.031921387	0.132019043	0.374572754	0.999999046	0.00012207	-0.000182152	0.000164032	0.798034668	3.300476074	9.364318848	0.006103516	-0.00910759	0.008201599	0.378662109	0.1875	-0.959472656	880.82	20.34507088	-4.694161965	-55.84753729	-71
44570	0	0.03118515	0.134052277	0.371903419	0.999999046	0.000375748	-0.000169754	0.000121117	0.779628754	3.351306915	9.297585487	0.018787385	-0.008487702	0.006055832	0.378662109	0.1875	-0.959472656	880.78	20.3787581	-4.710078881	-55.84236267	-71
44571	0	0.03125	0.135253906	0.373291016	0.999999046	0.000175476	-0.000109673	0.000137329	0.78125	3.381347656	9.332275391	0.008773804	-0.005483627	0.006866455	0.378662109	0.1875	-0.959472656	880.78	20.38915093	-4.720153902	-55.83312216	-71
44572	0	0.03106308	0.134093285	0.370612144	0.999999046	-0.000199318	-0.000171661	7.62939E-05	0.776576996	3.352332115	9.265303612	-0.009965897	-0.008583069	0.003814697	0.378662109	0.1875	-0.959472656	880.72	20.35732563	-4.734417366	-55.83225718	-71
44573	0	0.031494141	0.132324219	0.372192383	0.999999046	7.24792E-05	-0.000144005	-8.39233E-05	0.787353516	3.308105469	9.30480957	0.003623962	-0.007200241	-0.004196167	0.37890625	0.185058594	-0.962158203	880.82	20.35786509	-4.739305945	-55.84547008	-71
44574	0	0.031456947	0.134763718	0.371857643	0.999999046	8.39233E-05	-0.000114441	8.67844E-05	0.786423683	3.369092941	9.296441078	0.004196167	-0.005722046	0.004339218	0.37890625	0.185058594	-0.962158203	880.82	20.35810756	-4.747797854	-55.83903722	-70
44575	0	0.033752441	0.132568359	0.374938965	0.999999046	-0.000213623	-1.43051E-05	0.000179291	0.843811035	3.314208984	9.373474121	-0.010681152	-0.000715256	0.008964539	0.37890625	0.185058594	-0.962158203	880.78	20.32294648	-4.749292886	-55.81840524	-71
44576	0	0.030392647	0.13312912	0.37395668	0.999999046	1.43051E-05	-2.47955E-05	7.9155E-05	0.75981617	3.328227997	9.348917007	0.000715256	-0.001239777	0.003957748	0.378662109	0.1875	-0.959472656	880.78	20.31474277	-4.747831416	-55.81075705	-71
44577	0	0.031860352	0.133544922	0.372924805	0.999999046	0.000125885	-6.77109E-05	9.91821E-05	0.796508789	3.338623047	9.323120117	0.006294251	-0.003385544	0.004959106	0.376464844	0.185302734	-0.959228516	880.82	20.31924145	-4.751767046	-55.80316058	-71
44578	0	0.030777931	0.135890007	0.370200157	0.999999046	7.43866E-05	-0.000196457	7.62939E-06	0.76944828	3.397250175	9.255003929	0.00371933	-0.009822846	0.00038147	0.376464844	0.185302734	-0.956298828	880.76	20.3191967	-4.765837486	-55.80952524	-71
44579	0	0.031738281	0.133239746	0.373352051	0.999999046	-0.000190735	-2.19345E-05	3.05176E-05	0.793457031	3.330993652	9.33380127	-0.009536743	-0.001096725	0.001525879	0.378662109	0.1875	-0.959472656	880.78	20.28791678	-4.762043396	-55.80630019	-71
44580	0	0.032617569	0.133766174	0.373583794	0.999999046	-0.000145912	6.10352E-05	-6.48499E-05	0.815439224	3.344154358	9.339594841	-0.007295609	0.003051758	-0.003242493	0.37890625	0.187255859	-0.965332031	880.78	20.26231335	-4.745566909	-55.81068071	-71
44581	0	0.032775879	0.13269043	0.371582031	0.999999046	0.000225067	-1.43051E-05	0.000114441	0.819396973	3.317260742	9.289550781	0.011253357	-0.000715256	0.005722046	0.37890625	0.187255859	-0.962402344	880.82	20.27782427	-4.74435295	-55.79843312	-71
44582	0	0.03190136	0.133155823	0.374084473	0.999999046	-0.00022316	-7.62939E-06	9.15527E-05	0.797533989	3.328895569	9.352111816	-0.01115799	-0.00038147	0.004577637	0.37890625	0.185058594	-0.959472656	880.82	20.24208461	-4.74150425	-55.78538847	-71
44583	0	0.032531738	0.133056641	0.373901367	0.999999046	6.48499E-05	-2.95639E-05	7.62939E-06	0.813293457	3.326416016	9.34753418	0.003242493	-0.001478195	0.00038147	0.378662109	0.189697266	-0.959716797	880.88	20.24011154	-4.737702536	-55.78681375	-71
44584	0	0.031334877	0.13462925	0.371378899	0.999999046	9.44138E-05	-7.82013E-05	-5.34058E-05	0.783371925	3.365731239	9.284472466	0.004720688	-0.003910065	-0.002670288	0.378662109	0.1875	-0.959472656	880.82	20.24229376	-4.736685302	-55.79451824	-71
44585	0	0.030517578	0.135009766	0.372375488	0.999999046	4.95911E-05	-8.67844E-05	-1.14441E-05	0.762939453	3.375244141	9.309387207	0.002479553	-0.004339218	-0.000572205	0.376464844	0.1875	-0.959472656	880.78	20.23905567	-4.738179382	-55.8003667	-71
44586	0	0.031067848	0.132544518	0.373943329	0.999999046	-0.000102997	-0.000139236	2.28882E-05	0.776696205	3.313612938	9.348583221	-0.005149841	-0.006961823	0.001144409	0.378662109	0.1875	-0.959472656	880.78	20.21811615	-4.74663365	-55.80145932	-71
44587	0	0.032409668	0.133728027	0.372558594	0.999999046	-6.86646E-05	-0.000124931	3.8147E-06	0.810241699	3.343200684	9.313964844	-0.003433228	-0.006246567	0.000190735	0.381103516	0.187255859	-0.962646484	880.82	20.20124242	-4.752824031	-55.80126912	-71
44588	0	0.032382011	0.131356239	0.37446022	0.999999046	2.95639E-05	-3.05176E-05	-5.43594E-05	0.809550285	3.283905983	9.361505508	0.001478195	-0.001525879	-0.002717972	0.378662109	0.189697266	-0.956787109	880.84	20.19569961	-4.746571946	-55.8072551	-71
44589	0	0.031677246	0.133789063	0.372131348	0.999999046	5.72205E-05	-2.57492E-05	9.91821E-05	0.791931152	3.344726563	9.303283691	0.002861023	-0.00128746	0.004959106	0.376464844	0.1875	-0.962402344	880.82	20.19196694	-4.745865844	-55.79844773	-71
44590	0	0.031845093	0.134801865	0.374127388	0.999999046	-3.43323E-05	-3.8147E-06	0.00014782	0.796127319	3.370046616	9.3531847	-0.001716614	-0.000190735	0.007390976	0.381103516	0.187255859	-0.956787109	880.82	20.17728085	-4.744716879	-55.77642439	-71
44591	0	0.029541016	0.132385254	0.372802734	0.999999046	0.000453949	-6.38962E-05	9.15527E-05	0.738525391	3.309631348	9.320068359	0.02269745	-0.003194809	0.004577637	0.378662109	0.1875	-0.959472656	880.78	20.21920142	-4.747678167	-55.76742746	-71
44592	0	0.030284882	0.134671211	0.372859001	0.999999046	0.000105858	-5.53131E-05	-2.28882E-05	0.75712204	3.366780281	9.321475029	0.005292892	-0.002765656	-0.001144409	0.381347656	0.185058594	-0.959472656	880.78	20.22227705	-4.745107438	-55.76485015	-71
44593	0	0.034301758	0.133239746	0.375183105	0.999999046	-7.62939E-06	-2.95639E-05	-1.52588E-05	0.857543945	3.330993652	9.379577637	-0.00038147	-0.001478195	-0.000762939	0.37890625	0.187255859	-0.962402344	880.78	20.21213166	-4.74017824	-55.76615728	-71
44594	0	0.031573296	0.131098747	0.374693871	0.999999046	-0.000192642	9.34601E-05	-1.90735E-05	0.78933239	3.277468681	9.367346764	-0.009632111	0.004673004	-0.000953674	0.378662109	0.189697266	-0.959716797	880.82	20.18026403	-4.721848941	-55.764776	-71
44595	0	0.031555176	0.133850098	0.372375488	0.999999046	0.000324249	-2.19345E-05	0.000152588	0.788879395	3.346252441	9.309387207	0.016212464	-0.001096725	0.007629395	0.37890625	0.185058594	-0.959472656	880.78	20.20651634	-4.722716881	-55.74519333	-71
44596	0	0.03149128	0.135424614	0.372896194	0.999999046	-2.57492E-05	0.000141144	0.000132561	0.78728199	3.385615349	9.322404861	-0.00128746	0.00705719	0.006628037	0.37890625	0.187255859	-0.962402344	880.82	20.19240146	-4.705233085	-55.72463747	-71
44597	0	0.029968262	0.134338379	0.370239258	0.999999046	-3.8147E-05	3.14713E-05	7.24792E-05	0.749206543	3.358459473	9.255981445	-0.001907349	0.001573563	0.003623962	0.378662109	0.1875	-0.959472656	880.78	20.1778474	-4.697090077	-55.71474983	-71
44598	0	0.032100677	0.134488106	0.374462128	0.999999046	-0.000246048	2.67029E-05	7.9155E-05	0.802516937	3.362202644	9.361553192	-0.012302399	0.001335144	0.003957748	0.381347656	0.185058594	-0.962402344	880.82	20.13945341	-4.689748863	-55.69896137	-71
44599	0	0.032104492	0.133483887	0.37310791	0.999999046	4.57764E-05	3.52859E-05	8.7738E-05	0.802612305	3.337097168	9.327697754	0.002288818	0.001764297	0.004386902	0.378662109	0.1875	-0.959472656	880.76	20.13441091	-4.681843725	-55.68727422	-71
44600	0	0.030209541	0.13259697	0.372914314	0.999999046	-0.000227928	3.8147E-05	-0.00011158	0.755238533	3.31492424	9.322857857	-0.011396408	0.001907349	-0.005578995	0.378662109	0.1875	-0.959472656	880.76	20.09972606	-4.665712779	-55.69646091	-70
44601	0	0.031799316	0.1328125	0.374511719	0.999999046	0.000106812	-2.95639E-05	-3.43323E-05	0.79498291	3.3203125	9.362792969	0.005340576	-0.001478195	-0.001716614	0.381103516	0.187255859	-0.959716797	880.78	20.10290851	-4.659939459	-55.69670513	-70
44602	0	0.030164719	0.133198738	0.374176025	0.999999046	-0.000127792	4.00543E-05	1.90735E-05	0.754117966	3.329968452	9.354400635	-0.006389618	0.002002716	0.000953674	0.378662109	0.189697266	-0.959716797	880.82	20.07850951	-4.648711009	-55.6939015	-70
44603	0	0.031494141	0.133850098	0.371826172	0.999999046	0.000175476	8.10623E-05	-3.8147E-06	0.787353516	3.346252441	9.295654297	0.008773804	0.004053116	-0.000190735	0.378662109	0.1875	-0.956542969	880.78	20.08900784	-4.632192256	-55.68932929	-70
44604	0	0.030151367	0.13373661	0.373309135	0.999999046	-0.000153542	-8.01086E-05	6.00815E-05	0.75378418	3.34341526	9.332728386	-0.007677078	-0.004005432	0.003004074	0.381103516	0.187255859	-0.956787109	880.78	20.06179996	-4.635490121	-55.68039946	-70
44605	0	0.032226563	0.132324219	0.374267578	0.999999046	3.8147E-05	8.58307E-06	9.53674E-05	0.805664063	3.308105469	9.356689453	0.001907349	0.000429153	0.004768372	0.381103516	0.189453125	-0.95703125	880.78	20.05593142	-4.630679873	-55.66669982	-70
44606	0	0.031208038	0.132590294	0.373890877	0.999999046	0.000112534	-0.000108719	0.000106812	0.780200958	3.314757347	9.347271919	0.005626679	-0.005435944	0.005340576	0.378662109	0.1875	-0.959472656	880.88	20.05884628	-4.638948374	-55.65822492	-70
44607	0	0.03137207	0.131591797	0.373596191	0.999999046	-3.8147E-06	8.58307E-06	4.95911E-05	0.784301758	3.289794922	9.339904785	-0.000190735	0.000429153	0.002479553	0.381103516	0.187255859	-0.962646484	880.72	20.04849785	-4.632356823	-55.64867904	-71
44608	0	0.030524254	0.134575844	0.372742653	0.999999046	0.000231743	-0.000169754	-2.38419E-05	0.763106346	3.364396095	9.318566322	0.011587143	-0.008487702	-0.001192093	0.383300781	0.187255859	-0.954101563	880.82	20.06645778	-4.642053191	-55.64886424	-71
44609	0	0.031494141	0.133789063	0.373046875	0.999999046	-8.7738E-05	-6.67572E-06	9.53674E-05	0.787353516	3.344726563	9.326171875	-0.004386902	-0.000333786	0.004768372	0.378662109	0.1875	-0.959472656	880.84	20.04629886	-4.63888895	-55.63761042	-71
44610	0	0.029937744	0.132740974	0.374289513	0.999999046	0.000188828	-7.05719E-05	-1.23978E-05	0.748443604	3.318524361	9.357237816	0.009441376	-0.003528595	-0.000619888	0.381103516	0.189453125	-0.959960938	880.78	20.05896499	-4.638305142	-55.63949883	-71
44611	0	0.032104492	0.133117676	0.372924805	0.999999046	0.000236511	-5.24521E-05	6.86646E-05	0.802612305	3.327941895	9.323120117	0.011825562	-0.002622604	0.003433228	0.381103516	0.187255859	-0.956787109	880.78	20.07635464	-4.639011823	-55.62910396	-71
44612	0	0.032650948	0.132252693	0.375543594	0.999999046	-2.00272E-05	-6.48499E-05	5.72205E-05	0.816273689	3.306317329	9.388589859	-0.001001358	-0.003242493	0.002861023	0.381103516	0.189453125	-0.962646484	880.78	20.06441799	-4.640667434	-55.62417536	-71
44613	0	0.031494141	0.132507324	0.373596191	0.999999046	8.7738E-05	1.23978E-05	0.00012207	0.787353516	3.312683105	9.339904785	0.004386902	0.000619888	0.006103516	0.381103516	0.189453125	-0.95703125	880.72	20.06400097	-4.636574582	-55.60796105	-71
44614	0	0.030358315	0.13476181	0.372778893	0.999999046	7.24792E-05	7.05719E-05	9.82285E-05	0.758957863	3.369045258	9.319472313	0.003623962	0.003528595	0.004911423	0.378662109	0.1875	-0.959472656	880.82	20.06196468	-4.625238368	-55.59434606	-71
44615	0	0.031005859	0.135070801	0.372802734	0.999999046	3.43323E-05	-2.57492E-05	0.000156403	0.775146484	3.37677002	9.320068359	0.001716614	-0.00128746	0.007820129	0.381103516	0.187255859	-0.959716797	880.78	20.05547681	-4.626554527	-55.5748301	-71
44616	0	0.030395508	0.13343811	0.373645782	0.999999046	6.77109E-05	-9.72748E-05	-8.01086E-05	0.759887695	3.335952759	9.341144562	0.003385544	-0.004863739	-0.004005432	0.378662109	0.1875	-0.959472656	880.82	20.05512502	-4.626236495	-55.58693604	-71
44617	0	0.032226563	0.133300781	0.374084473	0.999999046	2.28882E-05	-2.57492E-05	0.000118256	0.805664063	3.332519531	9.352111816	0.001144409	-0.00128746	0.005912781	0.381103516	0.187255859	-0.956787109	880.84	20.04769221	-4.626074975	-55.57047107	-71
44618	0	0.031728745	0.134347916	0.373770714	0.999999046	0.000164032	1.33514E-05	0.000128746	0.793218613	3.358697891	9.344267845	0.008201599	0.000667572	0.006437302	0.381103516	0.187255859	-0.962646484	880.78	20.05628604	-4.622142421	-55.55347848	-71
44619	0	0.030151367	0.131896973	0.372741699	0.999999046	-0.000144958	-8.29697E-05	0.000240326	0.75378418	3.297424316	9.31854248	-0.007247925	-0.004148483	0.012016297	0.381347656	0.185058594	-0.962402344	880.82	20.02876988	-4.632918987	-55.5251802	-72
44620	0	0.030888557	0.134397507	0.373385429	0.999999046	7.9155E-05	-0.000173569	0.000113487	0.772213936	3.359937668	9.334635735	0.003957748	-0.008678436	0.005674362	0.381103516	0.187255859	-0.959716797	880.78	20.02841063	-4.648450334	-55.51596402	-72
44621	0	0.030212402	0.131530762	0.375793457	0.999999046	-0.000106812	6.19888E-05	-9.53674E-05	0.755310059	3.288269043	9.394836426	-0.005340576	0.003099442	-0.004768372	0.381103516	0.187255859	-0.959716797	880.78	20.00771725	-4.630369563	-55.51983753	-72
44622	0	0.03136158	0.135057449	0.372346878	0.999999046	0.000286102	-6.86646E-05	6.48499E-05	0.784039497	3.376436234	9.308671951	0.014305115	-0.003433228	0.003242493	0.381103516	0.187255859	-0.956787109	880.82	20.03120439	-4.632657681	-55.51117861	-72
44623	0	0.029541016	0.133972168	0.372497559	0.999999046	2.67029E-05	-7.15256E-05	4.19617E-05	0.738525391	3.349304199	9.312438965	0.001335144	-0.003576279	0.002098083	0.381103516	0.187255859	-0.959716797	880.78	20.02524885	-4.634278385	-55.50582071	-72
44624	0	0.030826569	0.133378983	0.373766899	0.999999046	-0.000138283	-6.10352E-05	7.62939E-06	0.770664215	3.334474564	9.344172478	-0.006914139	-0.003051758	0.00038147	0.381103516	0.189453125	-0.962646484	880.78	20.00067658	-4.633407584	-55.50653207	-72
44625	0	0.031005859	0.132385254	0.373046875	0.999999046	-1.90735E-05	-0.00014782	-2.28882E-05	0.775146484	3.309631348	9.326171875	-0.000953674	-0.007390976	-0.001144409	0.381103516	0.187255859	-0.959716797	880.78	19.99030358	-4.640693293	-55.51010572	-72
44626	0	0.03178215	0.131761551	0.375239372	0.999999046	0.000354767	-0.000148773	3.33786E-05	0.794553757	3.294038773	9.380984306	0.017738343	-0.00743866	0.00166893	0.381103516	0.187255859	-0.956787109	880.78	20.02221428	-4.650315727	-55.50713325	-72
44627	0	0.030883789	0.13482666	0.373901367	0.999999046	0.000278473	-0.000304222	0.00012207	0.772094727	3.370666504	9.34753418	0.013923645	-0.015211106	0.006103516	0.383544922	0.185058594	-0.962402344	880.82	20.04519745	-4.68013565	-55.49620297	-72
44628	0	0.03028965	0.134477615	0.373441696	0.999999046	0.000338554	-0.000169754	-9.53674E-07	0.757241249	3.361940384	9.336042404	0.01692772	-0.008487702	-4.76837E-05	0.383544922	0.187255859	-0.965576172	880.76	20.07579282	-4.690583176	-55.49692192	-72
44629	0	0.031433105	0.135437012	0.372253418	0.999999046	9.15527E-05	-9.44138E-05	8.01086E-05	0.785827637	3.385925293	9.306335449	0.004577637	-0.004720688	0.004005432	0.378662109	0.1875	-0.959472656	880.78	20.07725112	-4.696105315	-55.49154343	-72
44630	0	0.030670166	0.132936478	0.373443604	0.999999046	0.00022316	-0.000196457	-0.0001688	0.76675415	3.323411942	9.336090088	0.01115799	-0.009822846	-0.008440018	0.381103516	0.187255859	-0.959716797	880.82	20.09630623	-4.702778208	-55.51288503	-72
44631	0	0.031311035	0.134399414	0.372253418	0.999999046	3.8147E-05	-0.000159264	-0.000144958	0.782775879	3.359985352	9.306335449	0.001907349	-0.007963181	-0.007247925	0.381103516	0.187255859	-0.956787109	880.72	20.09389809	-4.706380109	-55.52875733	-72
44632	0	0.03468895	0.131752014	0.376259804	0.999999046	2.00272E-05	-0.000118256	-1.52588E-05	0.86722374	3.293800354	9.406495094	0.001001358	-0.005912781	-0.000762939	0.37890625	0.185058594	-0.962158203	880.82	20.08800197	-4.710827861	-55.53093933	-72
44633	0	0.029907227	0.133972168	0.373413086	0.999999046	0.000133514	-0.000170708	1.14441E-05	0.747680664	3.349304199	9.335327148	0.00667572	-0.008535385	0.000572205	0.381103516	0.187255859	-0.962646484	880.88	20.09507694	-4.721884103	-55.53148894	-72
44634	0	0.03217411	0.133276939	0.373793602	0.999999046	0.000484467	-0.00012207	8.67844E-05	0.80435276	3.331923485	9.34484005	0.024223329	-0.006103516	0.004339218	0.37890625	0.185302734	-0.956542969	880.76	20.14152888	-4.730697299	-55.52199912	-72
44635	0	0.03125	0.137084961	0.371459961	0.999999046	0.00043869	-0.000185966	0.000118256	0.78125	3.427124023	9.286499023	0.02193451	-0.009298325	0.005912781	0.37890625	0.185058594	-0.962158203	880.78	20.18285943	-4.747601678	-55.51351982	-72
44636	0	0.03038311	0.135512352	0.372366905	0.999999046	-0.00011158	-8.96454E-05	-0.00019455	0.759577751	3.3878088	9.30917263	-0.005578995	-0.004482269	-0.009727478	0.381347656	0.185058594	-0.959472656	880.82	20.1636951	-4.741716174	-55.52981333	-72
44637	0	0.031921387	0.133361816	0.373596191	0.999999046	-7.62939E-06	-0.000117302	-0.000110626	0.798034668	3.33404541	9.339904785	-0.00038147	-0.005865097	-0.005531311	0.37890625	0.185058594	-0.962158203	880.78	20.15574583	-4.742133524	-55.54207815	-72
44638	0	0.032101631	0.134522438	0.372552872	0.999999046	0.000167847	-0.00019455	-5.43594E-05	0.802540779	3.363060951	9.313821793	0.008392334	-0.009727478	-0.002717972	0.37890625	0.185058594	-0.959472656	880.84	20.16769885	-4.753102789	-55.55023428	-72
44639	0	0.03112793	0.132202148	0.373962402	0.999999046	0	-0.000235558	-1.14441E-05	0.778198242	3.305053711	9.349060059	0	-0.011777878	-0.000572205	0.37890625	0.185058594	-0.959472656	880.76	20.16007355	-4.770142246	-55.554658	-72
44640	0	0.032217979	0.134216309	0.375961304	0.999999046	0.000184059	-0.000164032	8.67844E-05	0.805449486	3.355407715	9.399032593	0.009202957	-0.008201599	0.004339218	0.379150391	0.182861328	-0.965087891	880.84	20.17239261	-4.783370703	-55.54441542	-72
44641	0	0.032043457	0.135009766	0.373901367	0.999999046	4.57764E-05	9.53674E-07	-1.14441E-05	0.801086426	3.375244141	9.34753418	0.002288818	4.76837E-05	-0.000572205	0.376464844	0.185302734	-0.959228516	880.78	20.16924069	-4.77496328	-55.5435088	-72
44642	0	0.032100677	0.136203766	0.372911453	0.999999046	0.000202179	-7.62939E-05	7.15256E-05	0.802516937	3.405094147	9.322786331	0.010108948	-0.003814697	0.003576279	0.37890625	0.185058594	-0.962158203	880.82	20.18363393	-4.778147815	-55.5338617	-72
44643	0	0.032226563	0.133544922	0.375488281	0.999999046	2.28882E-05	-0.00014019	-1.52588E-05	0.805664063	3.338623047	9.387207031	0.001144409	-0.007009506	-0.000762939	0.376464844	0.185302734	-0.959228516	880.84	20.17840514	-4.784775538	-55.53880877	-72
44644	0	0.033913612	0.13429451	0.372664452	0.999999046	0.000161171	-0.000148773	7.53403E-05	0.847840309	3.357362747	9.31661129	0.008058548	-0.00743866	0.003767014	0.376464844	0.1875	-0.959472656	880.82	20.18825729	-4.796001583	-55.53686683	-72
44645	0	0.032958984	0.134033203	0.374450684	0.999999046	0.000183105	-9.82285E-05	-1.14441E-05	0.823974609	3.350830078	9.36126709	0.009155274	-0.004911423	-0.000572205	0.376708984	0.182861328	-0.96484375	880.78	20.20121275	-4.798395445	-55.53804565	-72
44646	0	0.030344009	0.13465786	0.372441292	0.999999046	0.000152588	-4.19617E-05	0.000178337	0.758600235	3.366446495	9.311032295	0.007629395	-0.002098084	0.008916855	0.376464844	0.185302734	-0.959228516	880.72	20.20880499	-4.802153045	-55.51850902	-72
44647	0	0.031921387	0.136169434	0.372619629	0.999999046	0.000102997	-6.67572E-06	8.39233E-05	0.798034668	3.40423584	9.315490723	0.005149841	-0.000333786	0.004196167	0.379150391	0.182861328	-0.965087891	880.72	20.21155174	-4.798365739	-55.50281664	-72
44648	0	0.031155586	0.134898186	0.37295723	1	-7.43866E-05	-1.04904E-05	-1.52588E-05	0.778889656	3.372454643	9.32393074	-0.00371933	-0.000524521	-0.000762939	0.37890625	0.182861328	-0.959228516	880.82	20.19490924	-4.791012607	-55.4964661	-72
44649	0	0.032226563	0.133483887	0.374023438	0.999999046	0.000133514	-6.77109E-05	-7.62939E-06	0.805664063	3.337097168	9.350585938	0.00667572	-0.003385544	-0.00038147	0.376708984	0.183105469	-0.961914063	880.84	20.20215858	-4.790117807	-55.49614461	-72
44650	0	0.034106255	0.136024475	0.372882843	0.999999046	0.000389099	8.01086E-05	9.05991E-05	0.852656364	3.400611877	9.322071075	0.019454957	0.004005432	0.004529953	0.379150391	0.182861328	-0.965087891	880.72	20.23741121	-4.777315433	-55.47747855	-72
44651	0	0.033081055	0.134399414	0.373046875	0.999999046	-0.000476837	0.000107765	0	0.827026367	3.359985352	9.326171875	-0.023841859	0.00538826	0	0.381347656	0.182861328	-0.959228516	880.78	20.17415359	-4.758005809	-55.46172462	-72
44652	0	0.031352997	0.132884026	0.372814178	0.999999046	-6.58035E-05	7.82013E-05	0.00012207	0.783824921	3.322100639	9.320354462	-0.003290176	0.003910065	0.006103516	0.37890625	0.185302734	-0.956542969	880.76	20.15695002	-4.746668089	-55.44025448	-72
44653	0	0.031982422	0.136169434	0.374084473	0.999999046	6.86646E-05	8.86917E-05	0.000118256	0.799560547	3.40423584	9.352111816	0.003433228	0.004434586	0.005912781	0.37890625	0.185058594	-0.959472656	880.84	20.15524786	-4.734047069	-55.41998781	-72
44654	0	0.030423164	0.136029243	0.371323586	0.999999046	9.15527E-05	5.91278E-05	1.52588E-05	0.760579109	3.400731087	9.283089638	0.004577637	0.00295639	0.000762939	0.37890625	0.182861328	-0.959228516	880.72	20.15731383	-4.720476853	-55.40974241	-72
44655	0	0.030578613	0.134338379	0.374328613	0.999999046	-0.000213623	1.23978E-05	5.34058E-05	0.764465332	3.358459473	9.358215332	-0.010681152	0.000619888	0.002670288	0.381103516	0.185058594	-0.953613281	880.72	20.12421579	-4.713381944	-55.39445549	-72
44656	0	0.032658577	0.132587433	0.374752045	0.999999046	-3.52859E-05	-8.39233E-05	-2.38419E-05	0.816464424	3.314685822	9.368801117	-0.001764297	-0.004196167	-0.001192093	0.381347656	0.185058594	-0.959472656	880.78	20.11246571	-4.713656684	-55.39241403	-72
44657	0	0.032409668	0.135253906	0.373046875	0.999999046	0.000602722	-0.000178337	8.01086E-05	0.810241699	3.381347656	9.326171875	0.03013611	-0.008916855	0.004005432	0.381347656	0.185058594	-0.965332031	880.78	20.17328825	-4.728224731	-55.38558811	-72
44658	0	0.031282425	0.134843826	0.373422623	0.999999046	-0.000101089	-0.000179291	1.90735E-05	0.782060623	3.371095657	9.335565567	-0.005054474	-0.008964539	0.000953674	0.37890625	0.182861328	-0.962158203	880.78	20.15403362	-4.740461626	-55.38487394	-72
44659	0	0.032287598	0.134033203	0.373840332	0.999999046	0.000167847	-3.71933E-05	-2.28882E-05	0.807189941	3.350830078	9.346008301	0.008392334	-0.001859665	-0.001144409	0.37890625	0.185058594	-0.959472656	880.72	20.16549296	-4.735779003	-55.38511295	-72
44660	0	0.03145504	0.135135651	0.373425484	0.999999046	9.05991E-05	4.76837E-05	-2.00272E-05	0.786375999	3.378391266	9.335637093	0.004529953	0.002384186	-0.001001358	0.381347656	0.180664063	-0.961914063	880.78	20.16784071	-4.722064538	-55.37364812	-72
44661	0	0.031433105	0.135253906	0.373901367	0.999999046	0.000106812	-4.48227E-05	-3.8147E-06	0.785827637	3.381347656	9.34753418	0.005340576	-0.002241135	-0.000190735	0.379150391	0.182861328	-0.965087891	880.78	20.17224059	-4.718921439	-55.37138859	-72
