Counter	Temperature	VelInc_X	VelInc_Y	VelInc_Z	OriInc_w	OriInc_x	OriInc_y	OriInc_z	Acc_X	Acc_Y	Acc_Z	Gyr_X	Gyr_Y	Gyr_Z	Mag_X	Mag_Y	Mag_Z	Pressure	Roll	Pitch	Yaw	RSSI
52891	0	0.391113281	-0.076721191	0.098144531	0.999992371	-0.002577782	-0.001045227	-0.002418518	9.777832031	-1.918029785	2.453613281	-0.128889376	-0.052261471	-0.120926177	-0.559814453	0.141357422	-0.794921875	878.22	-33.84148322	-73.3739659	24.80612109	-66
52892	0	0.388614655	-0.060074806	0.094454765	0.999987602	-0.004622459	0.0014534	-2.67E-05	9.715366364	-1.501870155	2.361369133	-0.231123875	0.072670267	-0.001335149	-0.562011719	0.141601563	-0.794677734	878.08	-34.00169497	-73.23608011	24.42173858	-66
52893	0	0.371887207	-0.055114746	0.091796875	0.999965668	-0.006754875	0.00295639	0.003578186	9.297180176	-1.377868652	2.294921875	-0.33774754	0.147821174	0.178911305	-0.557861328	0.15234375	-0.795898438	878.22	-35.19928428	-72.72350635	24.86619787	-65
52894	0	0.379047394	-0.070889473	0.099762917	0.999969482	-0.005322456	0.002736092	0.004851341	9.476184845	-1.772236824	2.494072914	-0.26612545	0.136805934	0.242569462	-0.553710938	0.167724609	-0.794433594	878.22	-36.6024971	-72.14286411	25.69946884	-64
52895	0	0.370727539	-0.076171875	0.104858398	0.99996376	-0.005251884	0.003314972	0.005672455	9.268188477	-1.904296875	2.621459961	-0.262597319	0.165750551	0.283626086	-0.544921875	0.182861328	-0.796142578	878.24	-38.02957122	-71.44598466	26.56926024	-64
52896	0	0.374017715	-0.084406853	0.100991249	0.999979019	-0.00243187	0.002831459	0.00524807	9.350442886	-2.110171318	2.524781227	-0.121594316	0.141573931	0.262405302	-0.538330078	0.195800781	-0.800537109	878.12	-39.04943464	-70.81692362	27.35330139	-63
52897	0	0.358947754	-0.085571289	0.100402832	0.999992371	0.00061512	0.001304626	0.003456116	8.973693848	-2.139282227	2.510070801	0.030756069	0.065231476	0.17280619	-0.533935547	0.202148438	-0.804199219	878.22	-39.5398389	-70.44983182	27.94835794	-63
52898	0	0.352164268	-0.096551895	0.101683617	0.999991417	0.003490448	-0.001331329	0.001137733	8.804106712	-2.413797379	2.542090416	0.174522843	-0.066566636	0.056886818	-0.529296875	0.204101563	-0.807373047	878.18	-39.65743096	-70.48323249	28.4974169	-63
52899	0	0.361816406	-0.10144043	0.09765625	0.999964714	0.007472992	-0.003535271	-0.000873566	9.045410156	-2.536010742	2.44140625	0.373653901	-0.176765571	-0.043678787	-0.53125	0.197753906	-0.803955078	878.22	-39.27721155	-70.85815348	29.00117699	-63
52900	0	0.374440193	-0.088721275	0.087927818	0.999941826	0.009615898	-0.004615784	-0.001430511	9.361004829	-2.218031883	2.198195457	0.480804188	-0.23079364	-0.071526954	-0.53515625	0.180175781	-0.805175781	878.22	-38.73946883	-71.3712611	29.59681922	-63
52901	0	0.385131836	-0.073669434	0.080444336	0.999979973	0.004516602	-0.004237175	-0.000896454	9.628295898	-1.84173584	2.011108398	0.225831552	-0.211860132	-0.044822985	-0.546630859	0.167480469	-0.797607422	878.28	-38.85887665	-71.81408892	30.26810558	-63
52902	0	0.379771233	-0.073980331	0.085043907	0.999987602	0.002450943	-0.004179001	0.000850677	9.494280815	-1.849508286	2.126097679	0.122547644	-0.208950885	0.042534046	-0.553466797	0.161132813	-0.799560547	878.28	-39.70450038	-72.12391702	31.45305821	-63
52903	0	0.382568359	-0.075805664	0.092712402	0.999983788	0.002498627	-0.004000664	0.002895355	9.564208984	-1.895141602	2.317810059	0.124931973	-0.200034209	0.1447685	-0.562744141	0.156982422	-0.79296875	878.3	-41.09246213	-72.25940767	33.21217627	-64
52904	0	0.379396439	-0.077373505	0.100130081	0.999973297	0.00485611	-0.003708839	0.003876686	9.484910965	-1.934337616	2.503252029	0.2428076	-0.185443589	0.193835997	-0.567382813	0.155029297	-0.789794922	878.18	-42.41930594	-72.28214476	35.18977476	-64
52905	0	0.383178711	-0.073852539	0.105041504	0.999961853	0.006871223	-0.003025055	0.004318237	9.579467773	-1.846313477	2.626037598	0.343565468	-0.151254638	0.215914565	-0.569824219	0.152832031	-0.789550781	878.14	-43.45919514	-72.20048903	37.10868724	-65
52906	0	0.384451866	-0.062040329	0.105446815	0.999950409	0.008776665	-0.001122475	0.004066467	9.611296654	-1.551008224	2.636170387	0.438840172	-0.056124621	0.203326578	-0.571777344	0.146240234	-0.785888672	878.22	-43.72667739	-71.97450688	38.44727933	-64
52907	0	0.379150391	-0.045837402	0.101928711	0.999991417	0.002933502	0.000653267	0.002521515	9.478759766	-1.145935059	2.548217773	0.146675486	0.032663429	0.126076068	-0.573974609	0.139648438	-0.791015625	878.22	-43.81847488	-71.72379908	38.89951987	-65
52908	0	0.382294655	-0.053722382	0.098465919	0.999988556	-0.003992081	0.00178051	0.001452446	9.557366371	-1.34305954	2.461647987	-0.19960474	0.089025812	0.072622556	-0.571533203	0.139648438	-0.788330078	878.14	-44.15599165	-71.46562769	38.77622937	-65
52909	0	0.380981445	-0.070861816	0.092712402	0.999966621	-0.007480621	0.002911568	0.000923157	9.524536133	-1.77154541	2.317810059	-0.374035137	0.145579969	0.046158339	-0.569580078	0.150634766	-0.794921875	878.14	-44.49313693	-71.15786584	38.23053002	-64
52910	0	0.371970177	-0.08429718	0.085515022	0.999967575	-0.007405281	0.003092766	-6.68E-06	9.299254417	-2.107429504	2.137875557	-0.370268028	0.15463995	-0.00033379	-0.560791016	0.163574219	-0.790771484	878.18	-44.56387397	-70.91088112	37.41069961	-64
52911	0	0.371398926	-0.092529297	0.084838867	0.999977112	-0.005908012	0.002605438	-0.001823425	9.284973145	-2.313232422	2.12097168	-0.295402836	0.130272889	-0.091171949	-0.556396484	0.172119141	-0.788818359	878.08	-44.15675794	-70.84866597	36.26542966	-64
52912	0	0.364313126	-0.093237877	0.090149879	0.999986649	-0.003437042	0.001957893	-0.003229141	9.10782814	-2.330946922	2.253746986	-0.171852859	0.097895094	-0.161457763	-0.549560547	0.180664063	-0.795654297	878.16	-43.28057264	-70.94701654	34.92251327	-64
52913	0	0.359924316	-0.092346191	0.08996582	0.999985695	-0.002212524	0.000683784	-0.004650116	8.99810791	-2.308654785	2.249145508	-0.110626718	0.034189378	-0.232506844	-0.552001953	0.183105469	-0.79296875	878.14	-42.18606305	-71.25531582	33.49837043	-64
52914	0	0.367973328	-0.096095085	0.08863163	0.999978065	-0.002473831	-0.000675201	-0.005950928	9.199333191	-2.402377129	2.215790749	-0.123692424	-0.033760307	-0.297548469	-0.554199219	0.176513672	-0.795166016	878.08	-41.05002678	-71.76977011	32.00280763	-64
52915	0	0.370361328	-0.097106934	0.087890625	0.999975204	-0.001521111	-0.001499176	-0.006690979	9.259033203	-2.42767334	2.197265625	-0.076056152	-0.074959418	-0.334551701	-0.556640625	0.174316406	-0.7890625	878.18	-39.71470567	-72.40039682	30.41670112	-65
52916	0	0.372478485	-0.090809822	0.086064339	0.999977112	-0.001264572	-0.001811028	-0.006334305	9.311962128	-2.270245552	2.151608467	-0.063229081	-0.090552056	-0.316717616	-0.561035156	0.16796875	-0.785400391	878.22	-38.4229637	-73.02140548	28.91246752	-65
52917	0	0.377990723	-0.083618164	0.088317871	0.999985695	-0.002155304	-0.001704216	-0.004558563	9.449768066	-2.090454102	2.207946777	-0.107765707	-0.085211203	-0.227929238	-0.567871094	0.161621094	-0.784667969	878.14	-37.65641792	-73.49899369	27.85493593	-66
52918	0	0.372443199	-0.079576492	0.088713646	0.99998951	-0.004230499	-0.000829697	-0.001105309	9.311079979	-1.989412308	2.217841148	-0.211525662	-0.04148497	-0.055265609	-0.570068359	0.161621094	-0.787353516	878.24	-37.95461482	-73.65320459	27.66165376	-66
52919	0	0.372192383	-0.08996582	0.096008301	0.999993324	-0.002796173	-0.000559807	0.002052307	9.30480957	-2.249145508	2.40020752	-0.139808942	-0.027990399	0.102615568	-0.572753906	0.168457031	-0.784912109	878.18	-38.99403738	-73.55770735	28.41188202	-66
52920	0	0.379384995	-0.089880943	0.098564148	0.999993324	0.00105381	-0.000406265	0.003465652	9.484624863	-2.247023582	2.464103699	0.052690623	-0.020313308	0.173283007	-0.570800781	0.175048828	-0.782714844	878.18	-39.96390051	-73.34102338	29.54946108	-67
52921	0	0.372619629	-0.085754395	0.097961426	0.999994278	0.001011848	-0.000164032	0.003108978	9.315490723	-2.143859863	2.449035645	0.050592513	-0.008201614	0.155449191	-0.571044922	0.177246094	-0.777099609	878.18	-40.74997991	-73.12394008	30.49124885	-67
52922	0	0.367988586	-0.08339119	0.097640038	0.999994278	0.001498222	-0.000340462	0.002735138	9.199714661	-2.084779739	2.441000938	0.07491124	-0.017023114	0.136757121	-0.571044922	0.179443359	-0.77734375	878.24	-41.39781469	-72.94620144	31.34765027	-67
52923	0	0.376586914	-0.077941895	0.092285156	0.999994278	0.002129555	-0.000156403	0.002498627	9.414672852	-1.948547363	2.307128906	0.106477929	-0.007820143	0.12493156	-0.570800781	0.177246094	-0.782714844	878.08	-41.84718836	-72.76822999	32.07333845	-67
52924	0	0.375689507	-0.076013565	0.091449738	0.999995232	0.00124073	0.000123978	0.002505302	9.392237663	-1.900339127	2.286243439	0.062036595	0.006198891	0.125265285	-0.568603516	0.177001953	-0.780029297	878.18	-42.3178051	-72.56425001	32.71546654	-66
52925	0	0.378417969	-0.074523926	0.087585449	0.999995232	0.00012207	0.000718117	0.002941132	9.460449219	-1.863098145	2.18963623	0.006103525	0.035905893	0.147056805	-0.56640625	0.181396484	-0.786376953	878.22	-42.87173313	-72.27500355	33.31133728	-66
52926	0	0.37544632	-0.079703331	0.089852333	0.999993324	-0.00151062	0.000785828	0.002943039	9.38615799	-1.992583275	2.246308327	-0.075531151	0.039291458	0.147152231	-0.56640625	0.18359375	-0.780761719	878.22	-43.57667054	-71.97814413	33.87077542	-66
52927	0	0.373718262	-0.082946777	0.092163086	0.999996185	0.000702858	0.000450134	0.002506256	9.342956543	-2.073669434	2.304077148	0.035142939	0.02250674	0.125312951	-0.564208984	0.190185547	-0.787109375	878.22	-43.98133968	-71.74207981	34.38132365	-66
52928	0	0.377026558	-0.079585075	0.09017086	0.999997139	0.00065136	0.000368118	0.002185822	9.425663948	-1.989626884	2.254271507	0.032568007	0.018405931	0.109291174	-0.562011719	0.189941406	-0.787109375	878.24	-44.32067209	-71.53766631	34.81783426	-66
52929	0	0.375732422	-0.080078125	0.088623047	0.999997139	0.001171112	0.000355721	0.001819611	9.393310547	-2.001953125	2.215576172	0.05855565	0.01778604	0.090980603	-0.562255859	0.194580078	-0.781738281	878.12	-44.50616462	-71.36344675	35.15472815	-65
52930	0	0.376120567	-0.078131676	0.087240219	0.999998093	-0.000723839	0.000609398	0.001298904	9.403014183	-1.953291893	2.181005478	-0.036191956	0.030469908	0.064945249	-0.557373047	0.192138672	-0.784667969	878.3	-44.71769396	-71.21067082	35.29114389	-65
52931	0	0.376220703	-0.084411621	0.090087891	0.999998093	-0.001421928	0.000534058	0.000507355	9.405517578	-2.110290527	2.252197266	-0.071096451	0.026702892	0.025367748	-0.557373047	0.196533203	-0.788085938	878.24	-44.83580302	-71.1281118	35.24428202	-65
52932	0	0.376716614	-0.07973671	0.088677406	0.999998093	-0.001403809	0.000756264	0.000125885	9.417915344	-1.99341774	2.216935158	-0.07019046	0.037813203	0.006294253	-0.555175781	0.196533203	-0.78515625	878.16	-44.80823633	-71.05887457	35.04598575	-65
52933	0	0.379516602	-0.076599121	0.088928223	0.99998951	-0.004196167	0.001278877	-0.000469208	9.487915039	-1.914978027	2.223205566	-0.20980903	0.06394407	-0.023460464	-0.555419922	0.200927734	-0.788574219	878.24	-44.83687534	-70.99592878	34.56916476	-65
52934	0	0.369773865	-0.08331871	0.092959404	0.999982834	-0.005560875	0.001542091	-0.00099659	9.244346619	-2.082967758	2.3239851	-0.278045336	0.077105009	-0.049829768	-0.555664063	0.209716797	-0.783447266	878.18	-44.836577	-70.95440536	33.89588379	-65
52935	0	0.369140625	-0.091064453	0.095153809	0.999994278	-0.002497673	0.001110077	-0.001838684	9.228515625	-2.276611328	2.378845215	-0.124883878	0.055503946	-0.09193437	-0.551025391	0.211669922	-0.786865234	878.12	-44.38692005	-71.01486316	33.11849916	-65
52936	0	0.374751091	-0.088202477	0.09395504	0.999990463	-0.002485275	0.000891685	-0.003270149	9.368777275	-2.205061913	2.348875999	-0.124264129	0.044584406	-0.163507943	-0.551269531	0.216064453	-0.787109375	878.18	-43.63474222	-71.20468844	32.02273906	-65
52937	0	0.37109375	-0.091796875	0.091308594	0.999987602	-0.002616882	0.000508308	-0.004150391	9.27734375	-2.294921875	2.282714844	-0.130844647	0.025415524	-0.207520373	-0.551269531	0.216064453	-0.784179688	878.2	-42.74760903	-71.49039625	30.76998774	-64
52938	0	0.372016907	-0.084047318	0.088247299	0.999987602	-0.002405167	0.000621796	-0.004104614	9.300422668	-2.101182938	2.20618248	-0.120258793	0.031089902	-0.2052315	-0.551025391	0.211669922	-0.783935547	878.28	-41.7893704	-71.75664969	29.47054125	-64
52939	0	0.372436523	-0.084106445	0.089660645	0.999982834	-0.004324913	0.000915527	-0.003707886	9.310913086	-2.102661133	2.241516113	-0.216246851	0.045776621	-0.185395316	-0.551269531	0.213867188	-0.78125	878.22	-41.05901089	-71.96155662	28.18105344	-64
52940	0	0.373739243	-0.090117455	0.090593338	0.999985695	-0.004006386	0.000875473	-0.003177643	9.343481064	-2.252936363	2.26483345	-0.200320189	0.043773847	-0.158882854	-0.551269531	0.213867188	-0.783935547	878.2	-40.4242771	-72.12525249	27.03217642	-64
52941	0	0.371826172	-0.090698242	0.092834473	0.999993324	-0.002197266	0.000618935	-0.002693176	9.295654297	-2.267456055	2.320861816	-0.109863509	0.030946796	-0.134659093	-0.553955078	0.218505859	-0.778564453	878.18	-39.75933258	-72.27125588	26.06910817	-64
52942	0	0.372925758	-0.088171959	0.090340614	0.999996185	-0.001570702	0.000401497	-0.002007484	9.323143959	-2.204298973	2.258515358	-0.078535167	0.020074867	-0.100374333	-0.553710938	0.216308594	-0.78125	878.14	-39.25271858	-72.38324261	25.3486439	-64
52943	0	0.37322998	-0.087463379	0.091064453	0.999998093	-0.0007658	0.000156403	-0.001411438	9.330749512	-2.186584473	2.276611328	-0.03829004	0.007820133	-0.07057193	-0.553710938	0.216308594	-0.784179688	878.22	-38.87215432	-72.47203599	24.85732014	-64
52944	0	0.375639915	-0.084954262	0.08976841	0.999999046	-0.000283241	0.000226974	-0.00044632	9.390997887	-2.123856544	2.244210243	-0.014162064	0.011348725	-0.02231598	-0.553710938	0.218505859	-0.784179688	878.28	-38.69221776	-72.48440719	24.63387025	-64
52945	0	0.375	-0.083435059	0.090881348	0.999999046	-0.000907898	0.000351906	0.00018692	9.375	-2.085876465	2.272033691	-0.045394905	0.017595294	0.00934601	-0.553710938	0.218505859	-0.781494141	878.18	-38.73626482	-72.44001993	24.5703626	-64
52946	0	0.370079041	-0.085882187	0.094525337	0.999999046	1.91E-06	3.62E-05	0.000629425	9.251976013	-2.147054672	2.36313343	9.54E-05	0.001811981	0.031471255	-0.551513672	0.220458984	-0.781738281	878.3	-38.87350281	-72.39168223	24.71353331	-64
52947	0	0.373046875	-0.080932617	0.091369629	0.999999046	0.000484467	-9.82E-05	0.001041412	9.326171875	-2.02331543	2.284240723	0.024223333	-0.004911424	0.052070629	-0.551513672	0.218261719	-0.781494141	878.22	-39.10122253	-72.32542801	25.01018803	-64
52948	0	0.373749733	-0.081927299	0.092839241	0.999998093	0.000457764	8.58E-06	0.001330376	9.343743324	-2.048182487	2.320981026	0.022888191	0.000429154	0.066518806	-0.553955078	0.220703125	-0.781494141	878.24	-39.38641502	-72.22823941	25.36372601	-64
52949	0	0.374206543	-0.080078125	0.093566895	0.999998093	0.000588417	-3.43E-05	0.00176239	9.355163574	-2.001953125	2.339172363	0.02942087	-0.001716615	0.088119558	-0.551513672	0.220458984	-0.781738281	878.2	-39.78120039	-72.10262463	25.84851794	-64
52950	0	0.372709274	-0.080672264	0.094183922	0.999998093	0.000800133	-5.44E-05	0.001689911	9.317731857	-2.016806602	2.354598045	0.040006661	-0.002717973	0.084495594	-0.551757813	0.22265625	-0.781982422	878.22	-40.13087146	-71.98308654	26.31138261	-64
52951	0	0.373474121	-0.079956055	0.093505859	0.999998093	0.000641823	-7.63E-05	0.001609802	9.336853027	-1.998901367	2.337646484	0.032091157	-0.003814699	0.080490153	-0.551757813	0.22265625	-0.781982422	878.18	-40.47695154	-71.87058647	26.75189919	-64
52952	0	0.374632835	-0.081163406	0.09513855	0.999999046	0.000294685	8.77E-05	0.00114727	9.365820885	-2.029085159	2.378463745	0.014734272	0.004386903	0.057363524	-0.549316406	0.22265625	-0.784912109	878.3	-40.69859125	-71.77762831	27.02004909	-65
52953	0	0.373413086	-0.080627441	0.094604492	0.999999046	0.000526428	-3.72E-05	0.000740051	9.335327148	-2.015686035	2.365112305	0.026321415	-0.001859665	0.037002569	-0.549316406	0.224853516	-0.78515625	878.22	-40.81268655	-71.7257909	27.20255097	-64
52954	0	0.374097824	-0.07803154	0.093863487	0.999999046	0.000772476	-0.000196457	0.000514984	9.352445602	-1.950788498	2.346587181	0.038623816	-0.009822847	0.02574921	-0.549316406	0.22265625	-0.779052734	878.18	-40.87455734	-71.70473246	27.35997184	-64
52955	0	0.374816895	-0.08013916	0.094360352	0.999999046	0.000801086	-0.000159264	0.00031662	9.370422363	-2.003479004	2.359008789	0.040054326	-0.007963182	0.015830996	-0.549316406	0.22265625	-0.784912109	878.14	-40.87227999	-71.69542308	27.45337212	-64
52956	0	0.371928215	-0.078271866	0.093999863	0.999998093	0.00144577	-0.000123024	0.000349998	9.298205376	-1.956796646	2.349996567	0.07228854	-0.006151202	0.01749993	-0.549316406	0.22265625	-0.784912109	878.18	-40.79613527	-71.68063862	27.54640604	-64
52957	0	0.375976563	-0.079650879	0.091369629	0.999999046	-0.000141144	0.000134468	-0.000164032	9.399414063	-1.991271973	2.284240723	-0.00705719	0.006723404	-0.008201599	-0.549072266	0.220458984	-0.781738281	878.08	-40.70892662	-71.68226355	27.43669702	-64
52958	0	0.371461868	-0.084500313	0.094739914	0.999999046	-3.43E-05	4.58E-05	-0.00056839	9.286546707	-2.11250782	2.368497849	-0.001716614	0.002288818	-0.028419496	-0.549072266	0.220458984	-0.784667969	878.18	-40.52328687	-71.72159972	27.23616617	-64
52959	0	0.370788574	-0.080383301	0.093444824	0.999999046	0.000663757	-0.000201225	-0.000453949	9.269714355	-2.00958252	2.336120605	0.03318787	-0.010061265	-0.022697451	-0.549072266	0.220458984	-0.787597656	878.22	-40.34266872	-71.77384111	27.12495085	-64
52960	0	0.373766899	-0.080778122	0.090776443	0.999999046	-0.000210762	-5.91E-05	-0.000335693	9.344172478	-2.019453049	2.269411087	-0.010538101	-0.00295639	-0.016784668	-0.551513672	0.218261719	-0.784423828	878.14	-40.26141772	-71.80500104	27.01336304	-64
52961	0	0.373474121	-0.082702637	0.090637207	0.999999046	-0.000362396	-6.68E-06	-0.00012207	9.336853027	-2.067565918	2.265930176	-0.018119812	-0.000333786	-0.006103516	-0.551269531	0.218261719	-0.787353516	878.24	-40.24302504	-71.81583292	26.94978937	-64
52962	0	0.373496056	-0.084939003	0.094597816	0.999999046	0.000534058	-0.000270844	0.000117302	9.33740139	-2.123475075	2.364945412	0.026702883	-0.013542176	0.005865097	-0.548828125	0.216064453	-0.787109375	878.24	-40.24568745	-71.8319315	27.01663226	-65
52963	0	0.372802734	-0.080444336	0.090942383	0.999999046	0.000171661	-0.000365257	0.00025177	9.320068359	-2.011108398	2.27355957	0.008583069	-0.018262864	0.012588501	-0.549072266	0.216064453	-0.781494141	878.24	-40.34743869	-71.84644118	27.14368223	-65
52964	0	0.373926163	-0.08163929	0.090940475	0.999998093	-0.001415253	-0.000201225	0.000274658	9.348154068	-2.040982246	2.273511887	-0.070762659	-0.010061268	0.013732915	-0.551269531	0.216064453	-0.787109375	878.18	-40.60052749	-71.84494641	27.23960072	-65
52965	0	0.374267578	-0.083190918	0.095825195	0.999999046	-0.00030899	-0.000304222	0.000648499	9.356689453	-2.079772949	2.395629883	-0.015449525	-0.015211107	0.03242493	-0.551513672	0.220458984	-0.781738281	878.24	-40.84918564	-71.82421044	27.46300118	-65
52966	0	0.373609543	-0.081048965	0.094753265	0.999999046	-0.000968933	-0.00030899	0.000732422	9.340238571	-2.026224136	2.368831635	-0.048446668	-0.015449528	0.036621103	-0.551513672	0.22265625	-0.784667969	878.2	-41.19577764	-71.79721263	27.71015671	-65
52967	0	0.373291016	-0.084594727	0.094909668	0.999999046	-0.00031662	-0.000185966	0.000659943	9.332275391	-2.114868164	2.372741699	-0.015830995	-0.009298325	0.032997134	-0.549316406	0.22265625	-0.784912109	878.22	-41.41963893	-71.76461031	27.90707064	-65
52968	0	0.373584747	-0.081792831	0.096243858	0.999999046	0.00083828	-0.000371933	0.000506401	9.339618683	-2.044820786	2.406096458	0.041913994	-0.018596653	0.025320058	-0.549316406	0.224853516	-0.782226563	878.22	-41.5129684	-71.75940045	28.10490241	-65
52969	0	0.377563477	-0.079711914	0.093688965	0.999999046	-0.000553131	2.38E-05	0.000392914	9.439086914	-1.992797852	2.342224121	-0.027656557	0.001192093	0.019645692	-0.551757813	0.224853516	-0.781982422	878.12	-41.64427116	-71.72894379	28.17549169	-65
52970	0	0.374380112	-0.084263802	0.096298218	0.999999046	-4.20E-05	0.000133514	-5.72E-05	9.359502792	-2.106595039	2.407455444	-0.002098084	0.00667572	-0.002861023	-0.549560547	0.227050781	-0.782470703	878.24	-41.57454968	-71.72321799	28.09535737	-65
52971	0	0.370056152	-0.079467773	0.096191406	0.999999046	0.000133514	-4.86E-05	8.01E-05	9.251403809	-1.986694336	2.404785156	0.00667572	-0.00243187	0.004005432	-0.551757813	0.222900391	-0.779052734	878.2	-41.56153074	-71.72263035	28.09743541	-65
52972	0	0.37426281	-0.08353138	0.093490601	0.999999046	-0.000288963	0.000133514	2.19E-05	9.356570244	-2.088284492	2.337265015	-0.014448166	0.00667572	0.001096725	-0.551757813	0.227294922	-0.782226563	878.18	-41.53992467	-71.71085798	28.03839552	-65
52973	0	0.373596191	-0.083312988	0.093933105	0.999999046	0.000175476	0.000256538	-4.96E-05	9.339904785	-2.082824707	2.348327637	0.008773804	0.01282692	-0.002479553	-0.549316406	0.224853516	-0.782226563	878.2	-41.41832472	-71.69392957	27.93069059	-65
52974	0	0.373922348	-0.082388878	0.093420029	0.999999046	0.000471115	8.77E-05	0.00012207	9.348058701	-2.059721947	2.335500717	0.023555757	0.004386902	0.006103516	-0.549316406	0.224853516	-0.78515625	878.18	-41.34617633	-71.67851121	27.91072293	-65
52975	0	0.373535156	-0.084960938	0.091125488	0.999999046	0.000659943	3.91E-05	4.58E-05	9.338378906	-2.124023438	2.278137207	0.032997134	0.001955032	0.002288819	-0.551757813	0.224853516	-0.781982422	878.18	-41.24424047	-71.67309638	27.88172941	-65
52976	0	0.374313354	-0.082616806	0.091567993	0.999999046	0.000891685	-8.20E-05	-0.0001297	9.357833862	-2.065420151	2.289199829	0.04458428	-0.0041008	-0.006484986	-0.549316406	0.22265625	-0.781982422	878.2	-41.09783524	-71.69147407	27.83394034	-65
52977	0	0.373474121	-0.083068848	0.092468262	0.999999046	0.000617981	-0.000197411	-0.000106812	9.336853027	-2.076721191	2.311706543	0.03089905	-0.00987053	-0.005340577	-0.551513672	0.220458984	-0.781738281	878.2	-41.01506549	-71.71812795	27.82061924	-65
52978	0	0.374871254	-0.082569122	0.093031883	0.999999046	0.000743866	-0.000307083	-0.000148773	9.371781349	-2.064228058	2.325797081	0.037193302	-0.015354158	-0.00743866	-0.551269531	0.218261719	-0.787353516	878.22	-40.93179494	-71.75748169	27.82251223	-65
52979	0	0.37286377	-0.081726074	0.092346191	0.999999046	0.00025177	-0.000239372	-7.25E-05	9.321594238	-2.043151855	2.308654785	0.012588501	-0.011968613	-0.003623962	-0.551513672	0.220458984	-0.784667969	878.18	-40.90952418	-71.785314	27.82807406	-65
52980	0	0.373164177	-0.082967758	0.093977928	0.999999046	0.00042057	-0.000286102	6.68E-06	9.329104424	-2.074193954	2.349448204	0.02102852	-0.014305115	0.000333786	-0.551513672	0.218261719	-0.784423828	878.24	-40.89949106	-71.81121864	27.86741968	-65
52981	0	0.374328613	-0.081176758	0.095275879	0.999999046	0.000740051	-0.000227928	-5.34E-05	9.358215332	-2.029418945	2.381896973	0.037002567	-0.011396409	-0.002670288	-0.551269531	0.216064453	-0.784179688	878.24	-40.82342249	-71.83657789	27.87609099	-65
52982	0	0.376637459	-0.081488609	0.09265995	0.999999046	-0.000291824	-3.24E-05	-0.000125885	9.41593647	-2.037215233	2.316498756	-0.014591217	-0.001621246	-0.006294251	-0.551269531	0.216064453	-0.784179688	878.26	-40.80180218	-71.85050912	27.81768823	-65
52983	0	0.371704102	-0.083190918	0.094665527	0.999999046	0.000259399	-1.43E-05	-0.00019455	9.292602539	-2.079772949	2.366638184	0.012969971	-0.000715256	-0.009727478	-0.551269531	0.213867188	-0.78125	878.2	-40.69467329	-71.8678685	27.73609495	-65
52984	0	0.372653961	-0.081593513	0.094207764	0.999999046	0.000355721	-2.67E-05	1.81E-05	9.31634903	-2.039837837	2.355194092	0.017786026	-0.001335144	0.000905991	-0.553710938	0.216308594	-0.78125	878.14	-40.63562749	-71.87035087	27.71564941	-65
52985	0	0.373352051	-0.082275391	0.091491699	0.999999046	0.000152588	0.000149727	7.63E-06	9.33380127	-2.056884766	2.28729248	0.007629395	0.007486343	0.00038147	-0.551269531	0.216064453	-0.78125	878.14	-40.55726237	-71.85830961	27.65020864	-64
52986	0	0.375336647	-0.082009315	0.092848778	0.999999046	0.000261307	0.000282288	0.000277519	9.383416176	-2.050232887	2.321219444	0.013065339	0.01411438	0.013875962	-0.553710938	0.216308594	-0.786865234	878.2	-40.50833999	-71.81464792	27.62927993	-65
52987	0	0.374023438	-0.082397461	0.092895508	0.999999046	0.000331879	0.000267982	0.00031662	9.350585938	-2.059936523	2.322387695	0.016593934	0.013399125	0.015830994	-0.551269531	0.213867188	-0.783935547	878.3	-40.4653395	-71.76934403	27.62359101	-65
52988	0	0.37288475	-0.081719398	0.091378212	0.999999046	0.000525475	9.73E-05	0.000377655	9.322118759	-2.042984962	2.284455299	0.026273729	0.004863739	0.018882753	-0.551269531	0.213867188	-0.783935547	878.14	-40.45520525	-71.73448249	27.67560232	-65
52989	0	0.374511719	-0.081665039	0.092529297	0.999999046	7.25E-05	0.000145912	0.000183105	9.362792969	-2.041625977	2.313232422	0.003623962	0.007295609	0.009155274	-0.551025391	0.211669922	-0.786865234	878.2	-40.43481426	-71.70994048	27.66321132	-65
52990	0	0.373538971	-0.081300735	0.094540596	0.999999046	0.000230789	0.000104904	0.000274658	9.338474274	-2.032518387	2.3635149	0.011539459	0.005245209	0.01373291	-0.551269531	0.213867188	-0.786865234	878.2	-40.42962242	-71.682192	27.68489116	-65
52991	0	0.374328613	-0.080078125	0.093811035	0.999999046	1.14E-05	3.15E-05	0.00025177	9.358215332	-2.001953125	2.345275879	0.000572205	0.001573563	0.012588501	-0.548828125	0.213867188	-0.78125	878.14	-40.45985427	-71.66265605	27.71691937	-65
52992	0	0.372143745	-0.083315849	0.096154213	0.999999046	0.000277519	-0.000108719	0.000217438	9.303593636	-2.082896233	2.403855324	0.013875962	-0.005435944	0.010871887	-0.551269531	0.213867188	-0.783935547	878.18	-40.4820003	-71.65778113	27.77283612	-65
52993	0	0.372131348	-0.080322266	0.096374512	0.999999046	0.000896454	-5.25E-05	8.77E-05	9.303283691	-2.008056641	2.409362793	0.044822699	-0.002622605	0.004386902	-0.551269531	0.213867188	-0.783935547	878.2	-40.38610675	-71.65762844	27.77854437	-65
52994	0	0.375422478	-0.081316948	0.095136642	1	2.77E-05	2.77E-05	2.96E-05	9.385561943	-2.032923698	2.378416061	0.001382828	0.001382828	0.001478195	-0.551269531	0.213867188	-0.786865234	878.2	-40.35643734	-71.65484989	27.74938851	-65
52995	0	0.373413086	-0.082336426	0.094543457	0.999999046	0.000347137	6.96E-05	-0.000160217	9.335327148	-2.058410645	2.363586426	0.017356873	0.003480911	-0.008010864	-0.551025391	0.211669922	-0.786865234	878.18	-40.2308751	-71.66246205	27.65838722	-66
52996	0	0.370862007	-0.080503464	0.096054077	0.999999046	-3.15E-05	7.44E-05	2.86E-06	9.271550179	-2.012586594	2.401351929	-0.001573563	0.00371933	0.000143051	-0.551025391	0.211669922	-0.786865234	878.24	-40.19042689	-71.65751483	27.61134962	-65
52997	0	0.374450684	-0.08203125	0.094543457	0.999999046	0.000198364	0.000161171	-0.000125885	9.36126709	-2.05078125	2.363586426	0.009918213	0.008058548	-0.006294251	-0.551025391	0.209472656	-0.786621094	878.22	-40.070471	-71.65448498	27.50899834	-65
52998	0	0.372059822	-0.07933712	0.094754219	0.999999046	-0.000291824	0.000226974	4.48E-05	9.301495552	-1.983428001	2.368855476	-0.014591217	0.011348725	0.002241135	-0.551025391	0.211669922	-0.786865234	878.2	-40.03710382	-71.63312167	27.43786271	-65
52999	0	0.373413086	-0.082397461	0.094787598	0.999999046	-0.000358582	0.000210762	0.000144958	9.335327148	-2.059936523	2.369689941	-0.017929078	0.010538102	0.007247925	-0.548828125	0.211669922	-0.786865234	878.14	-40.0417627	-71.60579573	27.39885213	-65
53000	0	0.373044014	-0.082818031	0.094883919	0.999999046	-0.000166893	0.00012207	-3.81E-06	9.326100349	-2.070450783	2.372097969	-0.00834465	0.006103516	-0.000190735	-0.551025391	0.211669922	-0.789550781	878.26	-40.00518024	-71.59720248	27.33997408	-65
53001	0	0.372375488	-0.082641602	0.094055176	0.999999046	1.53E-05	-7.53E-05	9.16E-05	9.309387207	-2.066040039	2.351379395	0.000762939	-0.003767014	0.004577637	-0.548828125	0.211669922	-0.786865234	878.26	-40.0169434	-71.59892227	27.35355933	-65
53002	0	0.374022484	-0.08276844	0.093816757	0.999999046	0.000207901	-0.00015831	0.000124931	9.350562096	-2.069211006	2.34541893	0.01039505	-0.007915497	0.006246567	-0.548828125	0.211669922	-0.783935547	878.18	-40.03417524	-71.60550805	27.39573719	-65
53003	0	0.372741699	-0.081298828	0.095214844	0.999999046	8.39E-05	-2.86E-06	0.000392914	9.31854248	-2.032470703	2.380371094	0.004196167	-0.000143051	0.019645691	-0.548583984	0.211669922	-0.789794922	878.14	-40.10177448	-71.57870163	27.47664709	-65
53004	0	0.372373581	-0.081088066	0.094737053	0.999999046	9.06E-05	-0.000244141	0.000465393	9.309339523	-2.027201653	2.368426323	0.004529953	-0.012207032	0.023269654	-0.548828125	0.211669922	-0.786865234	878.24	-40.24096828	-71.56766196	27.63373	-65
53005	0	0.374084473	-0.081237793	0.095336914	0.999999046	0.000595093	-0.000422478	0.000427246	9.352111816	-2.030944824	2.383422852	0.029754642	-0.021123889	0.021362307	-0.548828125	0.211669922	-0.783935547	878.12	-40.3518325	-71.57497363	27.8213258	-65
53006	0	0.374157906	-0.078943253	0.094381332	0.999999046	-0.000225067	-0.000205994	0.000385284	9.353947639	-1.973581314	2.35953331	-0.011253357	-0.010299683	0.019264222	-0.548583984	0.211669922	-0.789794922	878.2	-40.49716207	-71.56653686	27.9471238	-65
53007	0	0.375305176	-0.080810547	0.094604492	0.999999046	0.000141144	-0.000128746	0.000152588	9.382629395	-2.020263672	2.365112305	0.00705719	-0.006437302	0.007629395	-0.548583984	0.211669922	-0.789794922	878.24	-40.52225069	-71.56873466	27.99031946	-65
53008	0	0.37164402	-0.077357292	0.096665382	0.999999046	-0.000712395	7.63E-06	0.000190735	9.291100502	-1.933932304	2.41663456	-0.035619739	0.00038147	0.009536744	-0.548828125	0.213867188	-0.787109375	878.18	-40.62384197	-71.55627748	28.01042232	-65
53009	0	0.372924805	-0.081848145	0.096557617	0.999999046	-4.58E-05	2.00E-05	-0.000125885	9.323120117	-2.046203613	2.41394043	-0.002288818	0.001001358	-0.006294251	-0.553466797	0.216064453	-0.789794922	878.18	-40.56339687	-71.5663078	27.93969382	-66
53010	0	0.373856544	-0.079627037	0.096381187	0.999999046	0.000232697	-1.91E-05	-0.000411987	9.346413612	-1.990675926	2.409529686	0.011634827	-0.000953674	-0.020599366	-0.548828125	0.213867188	-0.787109375	878.22	-40.40428767	-71.60103658	27.79871053	-66
53011	0	0.373474121	-0.081542969	0.094665527	0.999999046	-0.00037384	0.000153542	-0.000354767	9.336853027	-2.038574219	2.366638184	-0.018692018	0.007677079	-0.017738343	-0.551025391	0.213867188	-0.789794922	878.24	-40.29078052	-71.61637158	27.63315116	-66
53012	0	0.373258591	-0.081410408	0.095206261	0.999999046	9.82E-05	0.00019455	-0.000396729	9.331464767	-2.035260201	2.380156517	0.004911423	0.009727478	-0.019836426	-0.551269531	0.213867188	-0.783935547	878.22	-40.1027262	-71.63108931	27.44511143	-66
53013	0	0.371948242	-0.08215332	0.094238281	0.999999046	-0.000247955	0.000103951	-0.000343323	9.298706055	-2.053833008	2.355957031	-0.012397767	0.005197525	-0.017166138	-0.551025391	0.211669922	-0.786865234	878.26	-39.98854876	-71.64965543	27.29468947	-65
53014	0	0.374487877	-0.082735062	0.091221809	0.999999046	0.000171661	-3.81E-06	-0.000156403	9.362196922	-2.068376541	2.280545235	0.008583069	-0.000190735	-0.007820129	-0.548828125	0.213867188	-0.787109375	878.18	-39.90015655	-71.66397226	27.22017098	-65
53015	0	0.373046875	-0.081970215	0.09185791	0.999999046	0.000404358	-5.63E-05	-8.77E-05	9.326171875	-2.049255371	2.296447754	0.020217896	-0.002813339	-0.004386902	-0.551025391	0.209472656	-0.786621094	878.18	-39.81535365	-71.67791539	27.17988469	-66
53016	0	0.372765541	-0.077860832	0.095601082	0.999999046	0.000164986	-3.05E-05	0.000141144	9.319138527	-1.946520805	2.390027046	0.008249283	-0.001525879	0.00705719	-0.551025391	0.209472656	-0.789550781	878.24	-39.81269655	-71.67285366	27.19741949	-65
53017	0	0.374450684	-0.078063965	0.098876953	0.999999046	-0.000637054	-9.82E-05	4.96E-05	9.36126709	-1.951599121	2.471923828	-0.031852724	-0.004911423	0.002479553	-0.548583984	0.211669922	-0.789794922	878.32	-39.89196726	-71.68043369	27.20348981	-66
53018	0	0.373240471	-0.078953743	0.093574524	0.999999046	-0.000404358	1.14E-05	2.29E-05	9.331011772	-1.973843575	2.339363098	-0.020217896	0.000572205	0.001144409	-0.551025391	0.211669922	-0.786865234	878.26	-39.91314572	-71.68044858	27.17678819	-66
53019	0	0.375427246	-0.080444336	0.092163086	0.999999046	-0.000484467	-2.57E-05	-0.000469208	9.385681152	-2.011108398	2.304077148	-0.024223329	-0.00128746	-0.02346039	-0.548583984	0.211669922	-0.789794922	878.18	-39.82117487	-71.72002854	27.02136539	-66
53020	0	0.371539116	-0.078907967	0.096826553	0.999999046	-0.000481606	6.87E-05	-0.000507355	9.288477898	-1.972699165	2.420663834	-0.024080278	0.003433228	-0.025367739	-0.551269531	0.213867188	-0.786865234	878.24	-39.69684264	-71.75394185	26.83084547	-66
53021	0	0.371520996	-0.080810547	0.095336914	0.999999046	-0.000347137	-6.77E-05	-0.00031662	9.288024902	-2.020263672	2.383422852	-0.017356873	-0.003385544	-0.015830994	-0.548828125	0.211669922	-0.786865234	878.24	-39.63806469	-71.78577191	26.72691296	-66
53022	0	0.373600006	-0.082532883	0.094861031	0.999999046	-0.00012207	-0.000114441	-0.000329018	9.340000153	-2.063322067	2.371525764	-0.006103516	-0.005722046	-0.016450882	-0.548828125	0.211669922	-0.786865234	878.2	-39.56062073	-71.82251615	26.6302549	-66
53023	0	0.372619629	-0.081604004	0.095336914	0.999999046	-2.29E-05	2.38E-05	-0.000125885	9.315490723	-2.040100098	2.383422852	-0.001144409	0.001192093	-0.006294251	-0.551269531	0.213867188	-0.786865234	878.2	-39.4957534	-71.83209071	26.55740124	-66
53024	0	0.373246193	-0.08243084	0.094128609	0.999999046	-0.000132561	-5.53E-05	0.000185966	9.331154823	-2.060770988	2.353215218	-0.006628037	-0.002765656	0.009298325	-0.551025391	0.211669922	-0.786865234	878.24	-39.54549753	-71.82585383	26.59371545	-66
53025	0	0.372375488	-0.082824707	0.094604492	0.999999046	-1.14E-05	6.96E-05	0.000415802	9.309387207	-2.070617676	2.365112305	-0.000572205	0.003480911	0.020790101	-0.551025391	0.209472656	-0.783691406	878.26	-39.61576634	-71.79168543	26.66765039	-66
53026	0	0.372781754	-0.082771301	0.093798637	0.999999046	0.00034523	-0.00022316	0.000549316	9.319543839	-2.069282532	2.344965935	0.017261506	-0.01115799	0.027465822	-0.551025391	0.211669922	-0.786865234	878.2	-39.74622476	-71.77347436	26.84664963	-66
53027	0	0.374511719	-0.079772949	0.093322754	0.999999046	0.000175476	-0.00014782	0.000740051	9.362792969	-1.99432373	2.333068848	0.008773805	-0.007390977	0.037002567	-0.548583984	0.211669922	-0.789794922	878.2	-39.92993041	-71.73456992	27.06166647	-66
53028	0	0.372407913	-0.079437256	0.094520569	0.999999046	8.11E-05	-9.16E-05	0.000827789	9.31019783	-1.985931396	2.363014221	0.004053116	-0.004577637	0.04138947	-0.551025391	0.211669922	-0.783935547	878.24	-40.13413743	-71.68406995	27.28699526	-66
53029	0	0.372192383	-0.078979492	0.094604492	0.999999046	0.000530243	-0.000159264	0.000862122	9.30480957	-1.974487305	2.365112305	0.026512151	-0.007963182	0.043106087	-0.551269531	0.216064453	-0.787109375	878.24	-40.3096689	-71.63677838	27.53356281	-66
53030	0	0.373063087	-0.078974724	0.094018936	0.999999046	0.000516891	-0.000268936	0.000476837	9.326577187	-1.974368095	2.350473404	0.025844576	-0.013446809	0.02384186	-0.548828125	0.213867188	-0.78125	878.26	-40.40892954	-71.62757585	27.69857544	-66
53031	0	0.376953125	-0.08001709	0.093078613	0.999999046	-0.000293732	-0.000224113	0.000133514	9.423828125	-2.000427246	2.326965332	-0.014686585	-0.011205674	0.00667572	-0.551269531	0.213867188	-0.783935547	878.24	-40.50078921	-71.64007975	27.75909525	-66
53032	0	0.373067856	-0.080539703	0.095121384	0.999999046	-8.58E-06	-0.000225067	-4.67E-05	9.326696396	-2.013492584	2.378034592	-0.000429153	-0.011253357	-0.002336502	-0.551269531	0.213867188	-0.783935547	878.2	-40.51270064	-71.66607884	27.76973224	-66
53033	0	0.372253418	-0.079650879	0.09552002	0.999999046	-0.00031662	-0.000330925	0.00019455	9.306335449	-1.991271973	2.388000488	-0.015830994	-0.01654625	0.009727478	-0.551269531	0.213867188	-0.786865234	878.2	-40.64687051	-71.68330583	27.87295097	-67
53034	0	0.372955322	-0.082054138	0.094426155	0.999999046	-8.58E-05	-0.000118256	1.43E-05	9.323883057	-2.051353455	2.360653877	-0.004291534	-0.005912781	0.000715256	-0.553466797	0.214111328	-0.783935547	878.2	-40.65940926	-71.69543305	27.87562163	-67
53035	0	0.373413086	-0.080810547	0.096801758	0.999999046	0.000160217	-0.000227928	0.000114441	9.335327148	-2.020263672	2.420043945	0.008010864	-0.011396408	0.005722046	-0.551025391	0.211669922	-0.783935547	878.18	-40.69444432	-71.70954236	27.93317567	-66
53036	0	0.37416935	-0.082331657	0.094642639	0.999999046	-0.000411034	-1.91E-05	0.000167847	9.354233742	-2.058291435	2.366065979	-0.020551682	-0.000953674	0.008392334	-0.551025391	0.213867188	-0.789794922	878.14	-40.76178036	-71.70147625	27.95542328	-66
53037	0	0.372070313	-0.08203125	0.094848633	0.999999046	0.000278473	-0.000109673	0.000164032	9.301757813	-2.05078125	2.37121582	0.013923645	-0.005483627	0.008201599	-0.553466797	0.214111328	-0.783935547	878.2	-40.76949893	-71.70149643	27.99703465	-66
53038	0	0.373650551	-0.081613541	0.094200134	0.999999046	-0.00043869	6.10E-05	0.000137329	9.341263771	-2.040338516	2.355003357	-0.02193451	0.003051758	0.006866455	-0.553710938	0.214111328	-0.778076172	878.3	-40.81368352	-71.68870571	27.99032278	-66
53039	0	0.374084473	-0.082885742	0.094482422	0.999999046	-0.000347137	8.11E-05	0.000164032	9.352111816	-2.072143555	2.362060547	-0.017356873	0.004053116	0.008201599	-0.551269531	0.216064453	-0.78125	878.26	-40.84986494	-71.67214654	27.98526909	-66
53040	0	0.373065948	-0.081547737	0.093142509	0.999999046	-0.000613213	0.000133514	0.000220299	9.326648712	-2.038693428	2.328562737	-0.030660632	0.006675721	0.011014939	-0.553710938	0.218505859	-0.781494141	878.26	-40.91934744	-71.64687315	27.9825359	-66
53041	0	0.374145508	-0.084289551	0.095092773	0.999999046	-0.00018692	7.72E-05	0.000202179	9.353637695	-2.10723877	2.377319336	-0.009346008	0.003862381	0.010108948	-0.551269531	0.216064453	-0.787109375	878.2	-40.94803567	-71.62774876	27.99138327	-66
53042	0	0.372694016	-0.08008194	0.095180511	0.999999046	-7.63E-06	6.87E-05	-2.67E-05	9.317350388	-2.002048492	2.379512787	-0.00038147	0.003433228	-0.001335144	-0.549072266	0.218261719	-0.784423828	878.18	-40.89803598	-71.62657815	27.9361795	-66
53043	0	0.372802734	-0.082763672	0.094604492	0.999999046	0.000160217	-1.05E-05	-0.000232697	9.320068359	-2.069091797	2.365112305	0.008010864	-0.000524521	-0.011634827	-0.551269531	0.216064453	-0.787109375	878.26	-40.79284742	-71.64765293	27.84530379	-65
53044	0	0.378334999	-0.081215858	0.092058182	0.999999046	0.000121117	6.29E-05	-0.000741005	9.458374977	-2.030396461	2.301454544	0.006055832	0.003147126	-0.037050251	-0.553710938	0.216308594	-0.784179688	878.26	-40.54191656	-71.70040407	27.59479957	-65
53045	0	0.370849609	-0.078491211	0.095092773	0.999999046	-0.000358582	0.000138283	-0.000759125	9.271240234	-1.962280273	2.377319336	-0.017929079	0.00691414	-0.037956242	-0.553710938	0.214111328	-0.781005859	878.24	-40.3224094	-71.7476305	27.3207635	-65
53046	0	0.371922493	-0.080924988	0.094830513	0.999999046	-0.000301361	3.43E-05	-0.000714302	9.298062325	-2.023124695	2.370762825	-0.015068056	0.001716614	-0.035715107	-0.556152344	0.216308594	-0.783935547	878.18	-40.1302972	-71.80028134	27.08097828	-65
53047	0	0.373840332	-0.080871582	0.09552002	0.999999046	-0.000385284	0.000199318	-0.001239777	9.346008301	-2.021789551	2.388000488	-0.019264227	0.009965899	-0.061988848	-0.553466797	0.213867188	-0.786865234	878.26	-39.76838921	-71.87668869	26.65400868	-64
53048	0	0.376321793	-0.080255508	0.094202995	0.999998093	0.000192642	0.000287056	-0.0014534	9.408044815	-2.006387711	2.355074883	0.009632114	0.014352804	-0.07267001	-0.553710938	0.214111328	-0.781005859	878.08	-39.25927101	-71.95992718	26.13884389	-64
53049	0	0.377990723	-0.079650879	0.089538574	0.999998093	-0.00033474	0.000286102	-0.001430511	9.449768066	-1.991271973	2.238464355	-0.016736991	0.01430512	-0.0715256	-0.553466797	0.211669922	-0.786621094	878.26	-38.81329712	-72.0404881	25.6288885	-63
53050	0	0.375044823	-0.076932907	0.093851089	0.999998093	-0.000622749	0.000266075	-0.001336098	9.376120567	-1.923322678	2.346277237	-0.031137478	0.013303762	-0.066804911	-0.553466797	0.211669922	-0.786621094	878.2	-38.42692049	-72.11500338	25.14652601	-63
53051	0	0.373413086	-0.076416016	0.095581055	0.999998093	-0.000243187	0.000350952	-0.001419067	9.335327148	-1.910400391	2.389526367	-0.012159352	0.017547614	-0.070953395	-0.55078125	0.207275391	-0.786376953	878.26	-37.9513932	-72.18659391	24.61895785	-63
53052	0	0.369348526	-0.074926376	0.09555912	0.999997139	-0.000594139	0.000314713	-0.001999855	9.23371315	-1.873159409	2.388978004	-0.029706977	0.015735638	-0.099992826	-0.553222656	0.207275391	-0.786376953	878.18	-37.35450745	-72.30052373	23.92092185	-63
53053	0	0.374938965	-0.072998047	0.096496582	0.999996185	-0.00070858	0.000518799	-0.002391815	9.373474121	-1.824951172	2.412414551	-0.035429039	0.025939969	-0.119590889	-0.55078125	0.207275391	-0.786376953	878.2	-36.60457907	-72.42026388	23.04697626	-63
53054	0	0.376290321	-0.073474884	0.098611832	0.999995232	-0.000629425	0.000572205	-0.002788544	9.407258034	-1.836872101	2.465295792	-0.031471297	0.02861027	-0.139427383	-0.553222656	0.205078125	-0.783203125	878.24	-35.70582251	-72.55793911	22.02681804	-63
53055	0	0.373596191	-0.068664551	0.096435547	0.999994278	-0.000769615	0.000751495	-0.002902985	9.339904785	-1.71661377	2.410888672	-0.03848082	0.037574828	-0.145149463	-0.555419922	0.203125	-0.785888672	878.24	-34.73602979	-72.68138396	20.91676089	-62
53056	0	0.374405861	-0.068592072	0.095730782	0.999993324	-0.001290321	0.001020432	-0.003247261	9.360146523	-1.714801788	2.393269539	-0.06451621	0.051021689	-0.162363411	-0.555419922	0.200927734	-0.785644531	878.14	-33.6506437	-72.79555597	19.6243235	-61
53057	0	0.376098633	-0.070617676	0.095031738	0.999988556	-0.002280235	0.001213074	-0.003795624	9.40246582	-1.765441895	2.375793457	-0.114012165	0.0606539	-0.189781856	-0.552734375	0.198486328	-0.791259766	878.26	-32.45368136	-72.91781747	18.09972806	-61
53058	0	0.377502441	-0.069654465	0.095867157	0.999985695	-0.002744675	0.001390457	-0.004296303	9.437561035	-1.741361618	2.396678925	-0.137234373	0.069523181	-0.21481614	-0.555175781	0.196289063	-0.791015625	878.14	-31.09696662	-73.04291394	16.35521253	-61
53059	0	0.381591797	-0.05871582	0.098632813	0.999975204	-0.005228996	0.001647949	-0.004310608	9.539794922	-1.467895508	2.465820313	-0.261451933	0.082398129	-0.215532143	-0.552978516	0.198486328	-0.782714844	878.26	-29.95090134	-73.13236129	14.53354307	-60
53060	0	0.36979866	-0.050991058	0.103395462	0.999945641	-0.009003639	0.003219604	-0.004008293	9.244966507	-1.274776459	2.584886551	-0.450190027	0.160983109	-0.200418248	-0.552978516	0.200683594	-0.785644531	878.26	-29.03878863	-73.03835097	12.51325533	-60
53061	0	0.374084473	-0.059631348	0.112365723	0.999928474	-0.010326385	0.004166603	-0.00428772	9.352111816	-1.490783691	2.809143066	-0.516331528	0.208335098	-0.214391074	-0.548828125	0.213867188	-0.784179688	878.24	-28.03931266	-72.85387899	10.23884982	-60
53062	0	0.384281158	-0.065748215	0.119817734	0.999952316	-0.006802559	0.004466057	-0.005357742	9.607028961	-1.643705368	2.995443344	-0.340133326	0.223306374	-0.267891354	-0.542236328	0.222412109	-0.78515625	878.14	-26.27329962	-72.67793636	7.577616169	-60
53063	0	0.387390137	-0.056640625	0.126647949	0.999957085	-0.003807068	0.005196571	-0.006626129	9.684753418	-1.416015625	3.16619873	-0.190356103	0.259832266	-0.331311174	-0.539794922	0.224609375	-0.791259766	878.18	-23.68475934	-72.45680967	4.408201257	-59
53064	0	0.38512516	-0.054997444	0.128020287	0.999934196	-0.005694389	0.006357193	-0.007548332	9.628129005	-1.374936104	3.200507164	-0.284725628	0.317866527	-0.377424777	-0.532470703	0.222167969	-0.791503906	878.2	-20.9354339	-72.10795057	0.840168061	-59
53065	0	0.384643555	-0.054382324	0.126525879	0.999913216	-0.006965637	0.007752419	-0.007968903	9.616088867	-1.359558105	3.163146973	-0.348291852	0.387632047	-0.398456561	-0.528076172	0.226318359	-0.794921875	878.2	-18.17451618	-71.57211386	-2.904910771	-60
53066	0	0.384435654	-0.048571587	0.131177902	0.999887466	-0.008097649	0.009352684	-0.008460999	9.610891342	-1.214289665	3.279447556	-0.404897591	0.467651711	-0.423065767	-0.518554688	0.225830078	-0.801269531	878.2	-15.43977519	-70.82116081	-6.768551557	-60
53067	0	0.379882813	-0.050720215	0.133789063	0.999864578	-0.009123802	0.01071167	-0.008491516	9.497070313	-1.268005371	3.344726563	-0.456210647	0.535607608	-0.42459492	-0.506835938	0.231933594	-0.811035156	878.2	-12.97860976	-69.86398338	-10.48634402	-62
53068	0	0.372497559	-0.04201889	0.135313034	0.999855042	-0.008710861	0.012001991	-0.008283615	9.312438965	-1.05047226	3.382825851	-0.435564009	0.600128427	-0.414200677	-0.492675781	0.235839844	-0.814941406	878.12	-10.7535359	-68.70677493	-13.92662014	-64
53069	0	0.367858887	-0.046508789	0.144714355	0.999833107	-0.008571625	0.013028145	-0.009506226	9.196472168	-1.162719727	3.617858887	-0.428605069	0.651443463	-0.475337708	-0.476318359	0.241943359	-0.824951172	878.18	-8.437124592	-67.40937674	-17.4786739	-66
53070	0	0.370969772	-0.046522141	0.154865265	0.999821663	-0.007385254	0.013881683	-0.010452271	9.274244308	-1.163053513	3.871631622	-0.369284639	0.694125413	-0.522644582	-0.462158203	0.245849609	-0.831787109	878.14	-6.049828645	-65.97512252	-20.99971874	-66
53071	0	0.364562988	-0.034423828	0.164367676	0.999799728	-0.005408287	0.014930725	-0.012107849	9.114074707	-0.860595703	4.109191895	-0.270432328	0.746585881	-0.605432699	-0.443115234	0.247314453	-0.844482422	878.24	-3.369622654	-64.37635084	-24.63936666	-64
53072	0	0.359575272	-0.032132149	0.168372154	0.999746323	-0.008865356	0.015776634	-0.013362885	8.98938179	-0.803303719	4.209303856	-0.443305218	0.788898259	-0.668200593	-0.426269531	0.2421875	-0.853515625	878.2	-1.169708994	-62.62319945	-28.22804888	-62
53073	0	0.352661133	-0.043945313	0.170288086	0.999728203	-0.009262085	0.016167641	-0.014007568	8.81652832	-1.098632813	4.257202148	-0.463146199	0.808455263	-0.700441863	-0.407470703	0.248046875	-0.863769531	878.2	0.760217107	-60.76976633	-31.62427499	-60
53074	0	0.342511177	-0.035971642	0.17185688	0.999722481	-0.008426666	0.016197205	-0.014860153	8.562779427	-0.899291039	4.296422005	-0.421372239	0.80993505	-0.743076304	-0.386474609	0.251708984	-0.865234375	878.1	2.621093215	-58.85906341	-34.89957609	-60
53075	0	0.339416504	-0.042175293	0.18170166	0.999752998	-0.007896423	0.015217781	-0.01410675	8.485412598	-1.054382324	4.542541504	-0.394853611	0.760951579	-0.705395485	-0.367431641	0.255371094	-0.877929688	878.3	4.118814227	-57.01976463	-37.73943856	-61
53076	0	0.326299667	-0.028383255	0.186201096	0.999774933	-0.007120132	0.014937401	-0.013226509	8.157491684	-0.709581375	4.65502739	-0.356033255	0.746925913	-0.661374928	-0.34375	0.256835938	-0.885009766	878.2	5.328051154	-55.18737309	-40.18147293	-64
53077	0	0.321594238	-0.031982422	0.193847656	0.999799728	-0.007632256	0.014316559	-0.011642456	8.039855957	-0.799560547	4.846191406	-0.381638144	0.715875525	-0.582161498	-0.329833984	0.260742188	-0.889160156	878.32	6.058186054	-53.42282392	-42.16350245	-65
53078	0	0.315056801	-0.027534485	0.201327324	0.999844551	-0.002534866	0.014343262	-0.009868622	7.876420021	-0.688362122	5.033183098	-0.126749856	0.71720009	-0.493456551	-0.310791016	0.262207031	-0.898925781	878.14	6.971560795	-51.66366071	-43.69189269	-64
53079	0	0.293762207	-0.017883301	0.20135498	0.999856949	-0.00190258	0.014270782	-0.008804321	7.344055176	-0.44708252	5.033874512	-0.095133529	0.713572996	-0.440236962	-0.291748047	0.261474609	-0.905517578	878.18	7.702795701	-49.9166337	-44.93440048	-63
53080	0	0.274187088	-0.040670395	0.215624809	0.999869347	0.004466057	0.013500214	-0.007679939	6.8546772	-1.016759872	5.390620232	0.223312563	0.675040068	-0.384013681	-0.270263672	0.256347656	-0.915039063	878.2	8.936076404	-48.26325536	-45.91963994	-63
53081	0	0.270446777	-0.011413574	0.219238281	0.999848366	0.009140015	0.012623787	-0.007751465	6.761169434	-0.285339355	5.480957031	0.457023813	0.631221224	-0.387592816	-0.250488281	0.240234375	-0.923339844	878.1	10.64284043	-46.69230164	-46.85594839	-62
53082	0	0.246765137	-0.028259277	0.236206055	0.999884605	0.002376556	0.013095856	-0.007255554	6.169128418	-0.706481934	5.905151367	0.118832371	0.654817866	-0.362791605	-0.230712891	0.221679688	-0.937255859	878.2	11.42979697	-45.06589451	-47.59604607	-69
53083	0	0.204139709	-0.028668404	0.204593658	0.999811172	0.006453514	0.016426086	-0.007979393	5.103492737	-0.716710091	5.114841461	0.322695883	0.82135568	-0.398994599	-0.208740234	0.209960938	-0.943115234	878.2	12.62154925	-43.04023956	-48.28968408	-70
53084	0	0.133410454	-0.056253433	0.208353043	0.999698639	0.007221222	0.020693779	-0.010988235	3.335261345	-1.406335831	5.208826065	0.361097279	1.03479264	-0.549466832	-0.1796875	0.195556641	-0.955078125	878.18	14.01673971	-40.44656145	-49.20606688	-69
53085	0	0.093322754	-0.035461426	0.205627441	0.999509811	0.003567696	0.027973175	-0.013542175	2.333068848	-0.886535645	5.140686035	0.178413889	1.398886978	-0.677219252	-0.138427734	0.174316406	-0.967041016	878.2	14.94597326	-36.95587495	-50.09815089	-66
53086	0	0.139699936	-0.120144844	0.246286392	0.999284744	0.000878334	0.034747124	-0.01484108	3.492498398	-3.003621101	6.157159805	0.043927164	1.737770056	-0.742230757	-0.084228516	0.172363281	-0.97265625	878.14	15.41326457	-32.66800082	-50.84458838	-68
53087	0	0.207641602	-0.111572266	0.219604492	0.998966217	0.00225544	0.043243408	-0.013801575	5.191040039	-2.789306641	5.490112305	0.112810847	2.162915453	-0.690316523	-0.015136719	0.161132813	-0.981445313	878.26	15.72751613	-27.47359036	-51.09557516	-69
53088	0	0.321721077	-0.118181229	0.205307007	0.998695374	-0.003278732	0.050423622	-0.007330894	8.043026924	-2.954530716	5.132675171	-0.16400793	2.522277861	-0.366704176	0.069580078	0.160644531	-0.980224609	878.1	14.95925404	-21.69198856	-50.34705093	-64
53089	0	0.316040039	-0.192687988	0.271362305	0.998100281	-0.018496513	0.058742523	0.0013237	7.901000977	-4.817199707	6.784057617	-0.925411553	2.938986854	0.066226926	0.174560547	0.179199219	-0.964599609	878.24	12.18481047	-15.20425802	-48.53038361	-75
53090	0	0.410148621	-0.24330616	0.296975136	0.998087883	-0.003141403	0.060405731	0.012674332	10.25371552	-6.082653999	7.424378395	-0.157170317	3.022212465	0.634120677	0.290771484	0.206298828	-0.932861328	878.24	11.1365307	-8.751492045	-45.81276827	-68
53091	0	0.298461914	-0.372192383	0.40814209	0.998772621	0.018108368	0.045865059	0.004463196	7.461547852	-9.30480957	10.20355225	0.905788734	2.294190941	0.223251068	0.410400391	0.202392578	-0.893066406	878.14	12.92923428	-3.76165647	-44.35568722	-75
53092	0	-0.169804573	-0.266557693	0.406720161	0.998118401	0.047068596	0.036266327	-0.015055656	-4.245114326	-6.663942337	10.16800404	2.354906077	1.81445382	-0.753255035	0.48046875	0.151855469	-0.869873047	878.24	18.21881728	0.672344287	-45.06458503	-75
53093	0	-0.120300293	0.151672363	0.146789551	0.996440887	0.026226997	0.053539276	0.059577942	-3.007507324	3.791809082	3.66973877	1.312907457	2.680143435	2.982435352	0.55859375	0.074462891	-0.836181641	878.14	21.47189494	4.113004727	-37.22108801	-75
53094	0	0.111671448	0.508319855	0.236918449	0.994011879	0.075517654	0.039793015	0.06821537	2.791786194	12.70799637	5.922961235	3.783437222	1.993631469	3.417592517	0.645751953	-0.058105469	-0.78125	878.2	30.76282736	4.751788391	-29.20208662	-81
53095	0	-0.030090332	1.002929688	-0.005126953	0.996747971	0.054772377	0.034229279	0.048171997	-0.752258301	25.07324219	-0.128173828	2.741590818	1.71332122	2.411213682	0.690185547	-0.248535156	-0.704589844	878.26	37.57080494	4.898069951	-22.66875766	-79
53096	0	0.030878067	1.062160492	0.237906456	0.992875099	0.103602409	0.00283432	0.058799744	0.771951675	26.5540123	5.9476614	5.192458134	0.142053533	2.946989448	0.704345703	-0.389404297	-0.624755859	878.24	49.70570956	0.476662761	-17.92146266	-76
53097	0	0.161315918	1.451904297	0.079345703	0.993844986	0.094796181	-0.004318237	0.05714798	4.032897949	36.29760742	1.983642578	4.749556542	-0.216355892	2.863275281	0.636474609	-0.619628906	-0.507324219	878.26	60.49140797	-5.188031203	-14.5529922	-73
53098	0	0.121807098	0.857807159	-0.097892761	0.999868393	-0.013754845	-0.00703907	-0.004774094	3.04517746	21.44517899	-2.447319031	-0.687772215	-0.35196885	-0.238715088	0.585205078	-0.720947266	-0.430175781	878.2	59.05458525	-5.128578751	-15.28728312	-73
53099	0	-0.002624512	0.317138672	-0.047607422	0.997193336	-0.070232391	-0.016470909	-0.020015717	-0.065612793	7.928466797	-1.190185547	-3.514908019	-0.824316664	-1.001723012	0.591064453	-0.659912109	-0.504394531	878.26	51.29488954	-4.328024365	-18.00155163	-79
53100	0	0.061157227	0.241047859	0.076099396	0.999505997	-0.015199661	-0.022053719	-0.016396523	1.528930664	6.02619648	1.902484894	-0.760108039	-1.102867261	-0.819960944	0.593994141	-0.583496094	-0.582763672	878.26	49.85962547	-4.486234273	-21.1265648	-84
53101	0	0.056762695	0.275512695	0.29473877	0.99888134	-0.039707184	-0.023524284	-0.010227203	1.419067383	6.887817383	7.368469238	-1.986099366	-1.17665273	-0.511550812	0.588378906	-0.546142578	-0.628417969	878.2	45.60993422	-5.434366608	-23.84656718	-79
53102	0	0.104481697	0.148309708	0.483366013	0.998631477	-0.047510147	-0.020389557	-0.007775307	2.612042427	3.707742691	12.08415031	-2.376590891	-1.019942857	-0.388942662	0.565185547	-0.464355469	-0.702880859	878.2	40.44615592	-6.537720232	-26.06386458	-73
53103	0	0.087402344	0.083984375	0.499694824	0.999880791	-0.011417389	-0.009440422	-0.004268646	2.185058594	2.099609375	12.49237061	-0.570892064	-0.472039805	-0.213440768	0.547119141	-0.406982422	-0.752685547	878.26	39.29944044	-7.058643787	-27.17232827	-73
53104	0	0.070534706	0.092612267	0.369460106	0.999978065	-0.003016472	-0.002204895	0.005363464	1.763367653	2.315306664	9.236502647	-0.150824667	-0.110245536	0.268175128	0.537109375	-0.389160156	-0.762207031	878.2	38.9380876	-7.647610564	-26.90251811	-72
53105	0	0.035095215	0.162109375	0.311706543	0.999834061	0.010621071	0.000240326	0.014797211	0.877380371	4.052734375	7.792663574	0.531082917	0.012016961	0.739901458	0.530517578	-0.399902344	-0.763916016	878.2	39.98563504	-8.70868457	-25.62876533	-73
53106	0	0.04475975	0.214683533	0.309785843	0.999469757	0.027529716	0.002648354	0.01714325	1.118993759	5.367088318	7.744646072	1.376728842	0.132441057	0.857313807	0.517822266	-0.441162109	-0.748291016	878.2	42.88708681	-9.785268108	-24.0143705	-82
53107	0	0.03692627	0.324462891	0.276794434	0.999458313	0.028870583	0.003753662	0.015342712	0.923156738	8.111572266	6.91986084	1.443789813	0.187716999	0.767274156	0.508056641	-0.5	-0.717041016	878.24	45.93500215	-10.71028858	-22.50288636	-84
53108	0	0.112335205	0.359247208	0.237574577	0.999722481	0.020230293	0.003435135	0.011510849	2.808380127	8.981180191	5.939364433	1.01160801	0.171772595	0.575595563	0.497802734	-0.552490234	-0.689208984	878.24	48.0449362	-11.40957465	-21.34557345	-81
53109	0	0.093261719	0.347045898	0.217529297	0.999883652	0.010575294	0.002319336	0.010688782	2.331542969	8.676147461	5.438232422	0.528785125	0.115971271	0.534459706	0.491943359	-0.587158203	-0.662841797	878.2	49.07259942	-12.15547865	-20.34484602	-80
53110	0	0.092143059	0.336956978	0.218595505	0.999824524	-0.012925148	0.003397942	0.013101578	2.303576469	8.423924446	5.464887619	-0.646295132	0.169906999	0.655117135	0.480712891	-0.604492188	-0.657958984	878.2	47.33156609	-13.01910321	-19.02132587	-85
53111	0	0.057067871	0.233947754	0.27746582	0.999916077	-0.006510735	0.003490448	0.010597229	1.426696777	5.848693848	6.936645508	-0.325545783	0.174527254	0.529876188	0.473388672	-0.593261719	-0.67578125	878.26	46.34484933	-13.63426645	-17.88856288	-85
53112	0	0.133472443	0.29751873	0.2876091	0.999952316	0.005060196	0.003190041	0.007637978	3.336811066	7.437968254	7.190227509	0.253013765	0.159504532	0.381904871	0.464111328	-0.597412109	-0.674804688	878.26	46.73554359	-14.02290075	-17.03086723	-85
53113	0	0.058776855	0.286010742	0.265991211	0.999967575	0.0054636	0.004203796	0.003978729	1.469421387	7.150268555	6.649780273	0.273182892	0.210192039	0.198938563	0.462402344	-0.6171875	-0.661621094	878.26	47.21965733	-14.03015807	-16.37144012	-81
53114	0	0.13667202	0.280937195	0.276716232	0.999964714	0.006952286	0.003883362	-0.002319336	3.416800499	7.023429871	6.917905807	0.347618274	0.194170317	-0.115968127	0.467285156	-0.621582031	-0.653076172	878.2	48.00193507	-13.53809151	-16.24619854	-81
53115	0	0.097229004	0.301269531	0.245056152	0.999983788	-0.002540588	0.002583504	-0.004283905	2.430725098	7.531738281	6.126403809	-0.127030085	0.129175864	-0.214196375	0.476806641	-0.630615234	-0.641357422	878.18	47.75930147	-12.97922685	-16.36085845	-84
53116	0	0.076248169	0.244626045	0.26495266	0.999975204	0.002099991	-3.15E-05	-0.006712914	1.906204224	6.115651131	6.62381649	0.105000408	-0.001573576	-0.335648443	0.480957031	-0.617675781	-0.642578125	878.2	48.13703503	-12.41349032	-16.9060154	-82
53117	0	0.096252441	0.297912598	0.239868164	0.999962807	0.006904602	-0.001708031	-0.00478363	2.406311035	7.447814941	5.996704102	0.34523433	-0.085402581	-0.239184448	0.488037109	-0.617675781	-0.634277344	878.24	49.06002707	-12.13481352	-17.44253783	-81
53118	0	0.095155716	0.271907806	0.236179352	0.999985695	0.00352478	-0.00378418	-0.001052856	2.378892899	6.79769516	5.904483795	0.176239832	-0.189209863	-0.052643067	0.492675781	-0.622314453	-0.628417969	878.2	49.57277552	-12.3292875	-17.86599046	-79
53119	0	0.074401855	0.299987793	0.230773926	0.999982834	0.003048897	-0.004283905	0.002349854	1.860046387	7.499694824	5.769348145	0.152445682	-0.214196436	0.117493325	0.485839844	-0.626464844	-0.633544922	878.24	49.98811246	-12.85428189	-18.08446255	-79
53120	0	0.076049805	0.311828613	0.240661621	0.999988556	0.000545502	-0.003623009	0.002986908	1.901245117	7.795715332	6.016540527	0.027275187	-0.181151111	0.149345954	0.479248047	-0.6328125	-0.635498047	878.24	50.09505701	-13.38453704	-18.19409546	-79
53121	0	0.094604492	0.323425293	0.253540039	0.999997139	8.01E-05	-0.001914024	0.000637054	2.365112305	8.085632324	6.338500977	0.004005435	-0.095701283	0.031852744	0.472167969	-0.634765625	-0.637695313	878.18	50.15508872	-13.5819139	-18.32821637	-80
53122	0	0.103167534	0.318145752	0.249311447	0.999995232	-0.001871109	-0.00056076	-0.00232029	2.579188347	7.953643799	6.232786179	-0.093555594	-0.028038068	-0.116014658	0.469970703	-0.634765625	-0.637695313	878.26	50.01533024	-13.4198109	-18.55756619	-78
53123	0	0.096984863	0.282043457	0.249694824	0.999979019	-0.00543499	-0.000267029	-0.003238678	2.424621582	7.051086426	6.242370605	-0.271751313	-0.01335153	-0.161934981	0.474365234	-0.626220703	-0.644287109	878.24	49.47548273	-13.15691168	-18.82891757	-82
53124	0	0.091731071	0.274777412	0.253314972	0.999991417	-0.002791405	-0.0007267	-0.002799988	2.293276787	6.86943531	6.332874298	-0.139570612	-0.036335089	-0.139999767	0.476318359	-0.617431641	-0.642333984	878.2	49.23834972	-12.96808122	-19.10566598	-82
53125	0	0.088378906	0.2734375	0.260559082	0.999995232	0.001567841	-0.000906944	-0.002189636	2.209472656	6.8359375	6.513977051	0.078392134	-0.045347275	-0.109481959	0.480957031	-0.611083984	-0.651855469	878.26	49.49164833	-12.84551398	-19.36811887	-84
53126	0	0.087483406	0.285751343	0.261458397	0.999998093	0.000899315	-0.000227928	-0.001103401	2.187085152	7.143783569	6.536459923	0.04496576	-0.011396412	-0.055170078	0.480957031	-0.61328125	-0.645751953	878.2	49.63486061	-12.76592624	-19.47854615	-82
53127	0	0.089416504	0.286560059	0.251708984	0.999998093	0.001648903	-7.63E-05	-0.000324249	2.235412598	7.164001465	6.292724609	0.082445184	-0.003814699	-0.016212471	0.483154297	-0.61328125	-0.645996094	878.3	49.84699691	-12.74277373	-19.51930515	-81
53128	0	0.093356133	0.289701462	0.249093056	0.999993324	0.003533363	-0.000400543	-0.000442505	2.333903313	7.242536545	6.227326393	0.176668545	-0.020027204	-0.022125291	0.480957031	-0.61328125	-0.645751953	878.26	50.2828325	-12.73296955	-19.607104	-80
53129	0	0.091064453	0.299133301	0.240783691	0.999999046	0.00100708	-0.000483513	0.000160217	2.276611328	7.47833252	6.019592285	0.050354015	-0.024175649	0.008010866	0.483398438	-0.619873047	-0.639648438	878.26	50.42079827	-12.78190304	-19.64387267	-80
53130	0	0.090233803	0.302762032	0.239964485	0.999999046	0.000955582	-0.000593185	0.000118256	2.25584507	7.569050789	5.999112129	0.047779093	-0.029659278	0.005912782	0.481201172	-0.622070313	-0.645019531	878.24	50.5558413	-12.83490768	-19.70031685	-80
53131	0	0.08807373	0.299560547	0.249328613	0.999998093	-0.001624107	-0.000411987	-7.25E-05	2.201843262	7.489013672	6.233215332	-0.081205406	-0.020599375	-0.003623964	0.481201172	-0.622070313	-0.639404297	878.24	50.39434167	-12.85747147	-19.74254286	-81
53132	0	0.088910103	0.291308403	0.252217293	0.999999046	-0.001011848	1.53E-05	-0.000297546	2.222752571	7.282710075	6.30543232	-0.050592432	0.00076294	-0.014877322	0.481201172	-0.617675781	-0.6484375	878.18	50.29731712	-12.82886403	-19.7752797	-81
53133	0	0.085205078	0.28894043	0.250732422	0.999999046	-0.000244141	0.000531197	-3.81E-06	2.130126953	7.223510742	6.268310547	-0.012207032	0.026559831	-0.000190735	0.480957031	-0.617675781	-0.645507813	878.2	50.27224171	-12.78802548	-19.73583743	-81
53134	0	0.087620735	0.281615257	0.252121925	0.999998093	0.001124382	0.000571251	0.000793457	2.190518379	7.040381432	6.303048134	0.056219122	0.028562556	0.039672866	0.483398438	-0.617675781	-0.645507813	878.26	50.38885296	-12.81448097	-19.63617898	-80
53135	0	0.089111328	0.288085938	0.247436523	0.999992371	0.003445625	0.000457764	0.001567841	2.227783203	7.202148438	6.185913086	0.172281683	0.022888239	0.078392219	0.481201172	-0.619873047	-0.642333984	878.14	50.76008304	-12.91811308	-19.49503657	-80
53136	0	0.090230942	0.294276237	0.247570992	0.999992371	0.003404617	0.000235558	0.001346588	2.255773544	7.356905937	6.189274788	0.170231247	0.011777904	0.067329558	0.481201172	-0.624267578	-0.636230469	878.2	51.13411032	-13.01894164	-19.38941176	-79
53137	0	0.093933105	0.307250977	0.238708496	0.999991417	0.003883362	0.000107765	0.000995636	2.348327637	7.681274414	5.967712402	0.194168611	0.005388274	0.049781933	0.479003906	-0.630615234	-0.629882813	878.18	51.57151618	-13.09827212	-19.31984647	-79
53138	0	0.091926575	0.306285858	0.236049652	0.999999046	9.92E-05	0.000219345	0.000552177	2.298164368	7.657146454	5.901241302	0.004959107	0.010967255	0.027608873	0.479003906	-0.635009766	-0.626708984	878.26	51.58030089	-13.1299835	-19.26460426	-78
53139	0	0.091491699	0.300964355	0.24029541	0.999999046	6.48E-05	-3.34E-05	0.000175476	2.28729248	7.524108887	6.007385254	0.003242493	-0.00166893	0.008773804	0.476806641	-0.637207031	-0.629150391	878.18	51.59633888	-13.14573043	-19.26185328	-78
53140	0	0.089231491	0.297790527	0.242264748	0.999999046	-0.000412941	-0.00012207	-0.000167847	2.230787277	7.444763184	6.05661869	-0.02064705	-0.006103516	-0.008392334	0.479003906	-0.635009766	-0.623779297	878.26	51.56467917	-13.13669218	-19.28549887	-78
53141	0	0.091308594	0.299743652	0.240234375	0.999999046	-0.000396729	-0.000124931	-9.92E-05	2.282714844	7.493591309	6.005859375	-0.019836426	-0.006246567	-0.004959107	0.479003906	-0.635009766	-0.626708984	878.24	51.53344517	-13.13389533	-19.30668755	-77
53142	0	0.08984375	0.295288086	0.244506836	0.999999046	0.000164032	3.05E-05	-3.81E-05	2.24609375	7.382202148	6.112670898	0.008201599	0.001525879	-0.001907349	0.481445313	-0.633056641	-0.6328125	878.26	51.56154375	-13.12532193	-19.31836178	-78
53143	0	0.091335297	0.29752636	0.239772797	0.999998093	0.000132561	0.000131607	0.000197411	2.283382416	7.438158989	5.994319916	0.006628037	0.006580353	0.009870529	0.479248047	-0.635009766	-0.629638672	878.18	51.57963308	-13.13057136	-19.29863353	-77
53144	0	0.093278885	0.296814919	0.241459846	0.999999046	-0.000329018	-5.72E-06	0.000319481	2.331972122	7.420372963	6.036496162	-0.016450883	-0.000286102	0.015974045	0.479003906	-0.635009766	-0.626708984	878.26	51.54520759	-13.15653291	-19.27801449	-78
53145	0	0.09173584	0.298522949	0.243469238	0.999999046	0.000347137	8.58E-06	0.000190735	2.293395996	7.46307373	6.086730957	0.017356873	0.000429153	0.009536743	0.479003906	-0.635009766	-0.626708984	878.26	51.5896332	-13.16979605	-19.26663062	-78
53146	0	0.092822075	0.299264908	0.241431236	0.999999046	-0.000106812	0.000135422	-8.11E-05	2.320551872	7.481622696	6.035780907	-0.005340576	0.006771088	-0.004053116	0.481445313	-0.635009766	-0.629638672	878.2	51.58353583	-13.14956731	-19.26591582	-78
53147	0	0.089294434	0.297973633	0.24395752	0.999998093	0.001481056	9.16E-05	-0.000598907	2.23236084	7.44934082	6.098937988	0.074052842	0.004577639	-0.029945386	0.481445313	-0.635009766	-0.626708984	878.26	51.76838735	-13.08566197	-19.30741546	-78
53148	0	0.093227386	0.297756195	0.239004135	0.999999046	0.000815392	0.000144958	-0.00011158	2.330684662	7.443904877	5.975103378	0.040769582	0.007247926	-0.005578995	0.479248047	-0.637207031	-0.629394531	878.36	51.86740018	-13.06179912	-19.31278336	-78
53149	0	0.087219238	0.300537109	0.236572266	0.999999046	-7.63E-05	4.67E-05	0.000106812	2.180480957	7.513427734	5.914306641	-0.003814697	0.002336502	0.005340576	0.481689453	-0.637451172	-0.629394531	878.26	51.86250851	-13.06429365	-19.30964342	-78
53150	0	0.088175774	0.297856331	0.242973328	0.999999046	0.001111984	5.72E-06	0.000198364	2.204394341	7.446408272	6.074333191	0.055599224	0.000286102	0.009918215	0.481445313	-0.637207031	-0.626708984	878.2	51.99260926	-13.0777083	-19.30381539	-78
53151	0	0.091430664	0.302307129	0.238647461	0.999999046	-0.000846863	0.000153542	0.000244141	2.285766602	7.557678223	5.966186523	-0.042343145	0.007677079	0.012207033	0.481445313	-0.637207031	-0.623779297	878.26	51.89415194	-13.08471333	-19.27472947	-78
53152	0	0.089242935	0.296908379	0.242778778	0.999999046	0.000208855	2.48E-05	0.0001297	2.23107338	7.422709465	6.069469452	0.010442734	0.001239777	0.006484985	0.483886719	-0.637451172	-0.623779297	878.26	51.92070305	-13.09030482	-19.26519212	-78
53153	0	0.09173584	0.299377441	0.24005127	0.999999046	-3.81E-05	0.000100136	7.25E-05	2.293395996	7.484436035	6.001281738	-0.001907349	0.00500679	0.003623962	0.479248047	-0.637207031	-0.626464844	878.26	51.9179609	-13.08536284	-19.25863732	-77
53154	0	0.090082169	0.297636032	0.241617203	0.999999046	0.000150681	0.000265121	0.000339508	2.252054214	7.440900803	6.040430069	0.007534027	0.013256073	0.016975403	0.481445313	-0.637207031	-0.626708984	878.24	51.92854814	-13.09272173	-19.21767018	-77
53155	0	0.090148926	0.296813965	0.240356445	0.999999046	0.00044632	0.000157356	0.000450134	2.253723145	7.420349121	6.008911133	0.022315981	0.007867814	0.022506715	0.481689453	-0.639404297	-0.626464844	878.26	51.97301863	-13.11758628	-19.17736537	-77
53156	0	0.090096474	0.296946526	0.239813805	0.999998093	0.001253128	0.000239372	0.000766754	2.252411842	7.423663139	5.995345116	0.062656426	0.011968617	0.038337722	0.481689453	-0.639404297	-0.626464844	878.24	52.10257186	-13.16523164	-19.11108879	-78
53157	0	0.088439941	0.29876709	0.240356445	0.999999046	0.000473022	8.87E-05	0.000843048	2.210998535	7.469177246	6.008911133	0.023651127	0.004434586	0.042152411	0.479248047	-0.639404297	-0.623535156	878.2	52.14420673	-13.23025394	-19.05224637	-78
53158	0	0.091591835	0.301769257	0.240330696	0.999998093	0.001431465	0.00032711	0.000731468	2.289795876	7.544231415	6.008267403	0.07157329	0.016355522	0.036573426	0.479248047	-0.643798828	-0.617431641	878.24	52.29208689	-13.26841026	-18.97139065	-78
53159	0	0.09185791	0.304992676	0.235717773	0.999999046	9.16E-05	0.000367165	0.000595093	2.296447754	7.624816895	5.892944336	0.004577637	0.018358232	0.029754641	0.481689453	-0.643798828	-0.617431641	878.26	52.28772385	-13.29138486	-18.89689685	-78
53160	0	0.091615677	0.300287247	0.234996796	0.999999046	0.000636101	7.82E-05	0.000324249	2.290391922	7.507181168	5.874919891	0.031805041	0.003910065	0.016212465	0.479492188	-0.645996094	-0.6171875	878.26	52.35623882	-13.3099948	-18.86912029	-78
53161	0	0.091064453	0.303039551	0.235412598	0.999999046	-0.000228882	-6.39E-05	0.000274658	2.276611328	7.57598877	5.885314941	-0.011444092	-0.003194809	0.01373291	0.479492188	-0.645996094	-0.622802734	878.2	52.32937169	-13.33393044	-18.86486722	-78
53162	0	0.091015816	0.300131798	0.241091728	0.999999046	-0.000185013	-0.000106812	0.000113487	2.275395393	7.503294945	6.027293205	-0.009250641	-0.005340576	0.005674362	0.481689453	-0.643798828	-0.620361328	878.32	52.310692	-13.34608716	-18.87355104	-78
53163	0	0.091064453	0.296875	0.238464355	0.999999046	0.000286102	-4.10E-05	-7.63E-06	2.276611328	7.421875	5.961608887	0.014305115	-0.0020504	-0.00038147	0.479492188	-0.645996094	-0.6171875	878.26	52.34618669	-13.34253217	-18.87952396	-78
53164	0	0.091078758	0.29872036	0.236881256	0.999999046	0.000454903	-7.63E-06	0.000422478	2.276968956	7.468008995	5.922031403	0.022745134	-0.00038147	0.021123887	0.481689453	-0.643798828	-0.617431641	878.26	52.3928648	-13.37556216	-18.85496621	-78
53165	0	0.091003418	0.298583984	0.239685059	0.999999046	0.000919342	1.24E-05	0.000759125	2.275085449	7.464599609	5.992126465	0.045967113	0.000619888	0.037956247	0.479492188	-0.648193359	-0.616943359	878.26	52.48629015	-13.43765958	-18.80270913	-78
53166	0	0.092859268	0.302054405	0.237545013	0.999999046	0.000854492	0.000228882	0.001040459	2.321481705	7.55136013	5.938625336	0.042724623	0.011444095	0.05202295	0.479492188	-0.648193359	-0.614013672	878.3	52.56257709	-13.51023727	-18.70973849	-78
53167	0	0.091247559	0.299560547	0.238952637	0.999998093	0.001473427	0.000347137	0.000663757	2.281188965	7.489013672	5.973815918	0.073671374	0.01735688	0.033187881	0.479492188	-0.648193359	-0.614013672	878.26	52.71303717	-13.54028655	-18.63818102	-78
53168	0	0.093995094	0.307264328	0.233169556	0.999999046	0.001076698	0.000368118	0.00045681	2.349877357	7.6816082	5.829238892	0.053834929	0.018405919	0.022840506	0.479736328	-0.654785156	-0.616455078	878.26	52.82105272	-13.5500906	-18.5792132	-78
53169	0	0.092651367	0.304931641	0.233276367	0.999999046	0.000988007	0.000172615	3.81E-05	2.31628418	7.623291016	5.83190918	0.049400338	0.008630754	0.001907349	0.477294922	-0.652587891	-0.613769531	878.26	52.93010888	-13.53515694	-18.57143895	-78
53170	0	0.092533112	0.30532074	0.231362343	0.999999046	0.000104904	-3.81E-05	2.67E-05	2.313327789	7.633018494	5.784058571	0.005245209	-0.001907349	0.001335144	0.474853516	-0.654541016	-0.610595703	878.2	52.94278019	-13.53363479	-18.57869962	-78
53171	0	0.091918945	0.303955078	0.233825684	0.999999046	-0.000358582	-0.000227928	4.58E-05	2.297973633	7.598876953	5.84564209	-0.017929078	-0.011396408	0.002288818	0.479736328	-0.656982422	-0.610595703	878.18	52.90603555	-13.5468278	-18.59609999	-77
53172	0	0.092359543	0.299564362	0.237232208	0.999999046	-4.48E-05	-0.000196457	6.39E-05	2.308988571	7.489109039	5.930805206	-0.002241135	-0.009822846	0.003194809	0.479492188	-0.654785156	-0.607910156	878.24	52.90382573	-13.55940575	-18.60766684	-78
53173	0	0.09362793	0.303161621	0.235412598	0.999999046	0.000305176	-0.000117302	0.000102997	2.340698242	7.579040527	5.885314941	0.015258789	-0.005865097	0.005149841	0.479492188	-0.652587891	-0.607910156	878.26	52.93909808	-13.57002309	-18.61229641	-77
53174	0	0.092340469	0.298586845	0.235940933	0.999999046	0.000576019	1.91E-06	6.77E-05	2.308511734	7.464671135	5.898523331	0.028800966	9.54E-05	0.003385544	0.477294922	-0.654785156	-0.610595703	878.2	53.002961	-13.56909052	-18.61190142	-78
53175	0	0.092346191	0.305053711	0.233947754	0.999999046	-0.000335693	2.38E-05	0.000335693	2.308654785	7.626342773	5.848693848	-0.016784669	0.001192093	0.016784669	0.477294922	-0.654541016	-0.607666016	878.2	52.95727183	-13.59102907	-18.58572433	-78
53176	0	0.092781067	0.300743103	0.235862732	0.999999046	0.001032829	-4.77E-05	0.000114441	2.319526672	7.518577576	5.896568298	0.051641474	-0.002384186	0.005722047	0.479736328	-0.654785156	-0.610839844	878.14	53.07334353	-13.59757278	-18.58816863	-78
53177	0	0.092651367	0.305236816	0.232177734	0.999999046	-0.000648499	6.96E-05	0.000400543	2.31628418	7.63092041	5.804443359	-0.03242493	0.003480912	0.020027163	0.477294922	-0.654785156	-0.610595703	878.26	52.98931555	-13.62211423	-18.55797634	-78
53178	0	0.092677116	0.301012039	0.235509872	0.999999046	0.000875473	-9.54E-06	6.48E-05	2.31692791	7.52530098	5.887746811	0.043773657	-0.000476837	0.003242493	0.477294922	-0.654785156	-0.604980469	878.3	53.08697782	-13.62127566	-18.55396749	-78
53179	0	0.092529297	0.3046875	0.232421875	0.999999046	-0.00044632	2.00E-05	0.000160217	2.313232422	7.6171875	5.810546875	-0.02231598	0.001001358	0.008010865	0.477539063	-0.656982422	-0.610595703	878.2	53.03083866	-13.6270203	-18.54408163	-78
53180	0	0.093811035	0.30255127	0.235107422	0.999999046	0.000542641	4.20E-05	2.67E-05	2.345275879	7.563781738	5.877685547	0.027132036	0.002098084	0.001335144	0.477539063	-0.656982422	-0.610595703	878.36	53.08952595	-13.61897498	-18.54319226	-78
53181	0	0.092027664	0.299818039	0.234723091	0.999998093	-0.000151634	1.91E-06	-5.34E-05	2.300691605	7.495450974	5.868077278	-0.007581711	9.54E-05	-0.002670288	0.477294922	-0.654785156	-0.610839844	878.2	53.07055376	-13.60624233	-18.55389138	-78
53182	0	0.092885017	0.304940224	0.235215187	0.999999046	0.000761032	-0.000150681	0	2.322125435	7.623505592	5.880379677	0.038051609	-0.007534028	0	0.477539063	-0.659179688	-0.610351563	878.18	53.15849199	-13.6087877	-18.57128853	-78
53183	0	0.091918945	0.30267334	0.234069824	0.999999046	-0.000431061	2.77E-05	0.000209808	2.297973633	7.566833496	5.851745605	-0.02155304	0.001382828	0.010490418	0.477294922	-0.656982422	-0.607666016	878.18	53.10215861	-13.61817634	-18.55453652	-78
53184	0	0.092093468	0.302065849	0.234945297	0.999999046	0.000887871	-0.000120163	0.000170708	2.302336693	7.551646233	5.873632431	0.044393546	-0.006008149	0.008535386	0.475097656	-0.659179688	-0.607421875	878.14	53.2006495	-13.63402552	-18.55504369	-78
53185	0	0.09375	0.303833008	0.234436035	0.999999046	-0.000267029	9.25E-05	0.000164032	2.34375	7.595825195	5.860900879	-0.013351441	0.004625321	0.008201599	0.479980469	-0.659179688	-0.610595703	878.24	53.16197611	-13.63460695	-18.53764961	-79
53186	0	0.092829704	0.3039217	0.23388195	0.999999046	0.000341415	-9.54E-06	0.000179291	2.320742607	7.598042488	5.847048759	0.017070771	-0.000476837	0.008964539	0.475097656	-0.659179688	-0.607421875	878.18	53.19488768	-13.64350208	-18.52729653	-79
53187	0	0.092895508	0.305297852	0.233520508	0.999999046	-0.000656128	5.05E-05	5.34E-05	2.322387695	7.632446289	5.838012695	-0.032806399	0.002527237	0.002670288	0.477539063	-0.659179688	-0.604736328	878.3	53.11414775	-13.63662457	-18.51340163	-80
53188	0	0.092782021	0.300280571	0.233984947	0.999999046	0.000658989	-0.00018692	-5.82E-05	2.319550514	7.507014275	5.84962368	0.03294945	-0.009346009	-0.002908707	0.477294922	-0.656982422	-0.607666016	878.26	53.1909988	-13.63577682	-18.5381344	-80
53189	0	0.092651367	0.304016113	0.233642578	0.999999046	0.000114441	-2.57E-05	1.14E-05	2.31628418	7.600402832	5.841064453	0.005722046	-0.00128746	0.000572205	0.477294922	-0.656982422	-0.604736328	878.2	53.20056497	-13.63014255	-18.53879554	-80
53190	0	0.092487335	0.302479744	0.23307991	0.999999046	-0.000106812	2.29E-05	0.000266075	2.31218338	7.561993599	5.826997757	-0.005340576	0.001144409	0.013303757	0.477539063	-0.659179688	-0.607421875	878.18	53.1792893	-13.64445243	-18.51766874	-80
53191	0	0.093078613	0.300292969	0.237548828	0.999999046	0.000324249	8.58E-06	0.000213623	2.326965332	7.507324219	5.938720703	0.016212464	0.000429153	0.010681153	0.479736328	-0.656982422	-0.607910156	878.24	53.20818957	-13.65486823	-18.50489854	-80
53192	0	0.092655182	0.30479908	0.233324051	0.999999046	0.000729561	5.53E-05	0.000185966	2.316379547	7.619976997	5.833101273	0.036478046	0.002765656	0.009298325	0.477294922	-0.659179688	-0.601806641	878.2	53.28286864	-13.65945352	-18.48195498	-80
53193	0	0.09375	0.302490234	0.232788086	0.999999046	-0.000110626	7.34E-05	0.000205994	2.34375	7.562255859	5.819702148	-0.005531311	0.003671646	0.010299683	0.479980469	-0.659179688	-0.607666016	878.24	53.2603628	-13.66462189	-18.46277964	-80
53194	0	0.09274292	0.303987503	0.230976105	0.999999046	0.000921249	-3.62E-05	0.000183105	2.318572998	7.599687576	5.774402618	0.046062476	-0.001811981	0.009155275	0.477294922	-0.659179688	-0.601806641	878.24	53.3589064	-13.6751376	-18.4513003	-80
53195	0	0.092346191	0.30456543	0.231567383	0.999999046	-0.000484467	-5.63E-05	0.000228882	2.308654785	7.614135742	5.78918457	-0.024223329	-0.002813339	0.011444092	0.477539063	-0.661376953	-0.607421875	878.3	53.29598101	-13.69113035	-18.44201761	-80
53196	0	0.093243599	0.303501129	0.235390663	0.999999046	0.000502586	-9.35E-05	0.000277519	2.331089973	7.587528229	5.884766579	0.02512932	-0.004673004	0.013875962	0.475097656	-0.661376953	-0.604248047	878.3	53.34594659	-13.71406124	-18.43072995	-80
53197	0	0.093139648	0.303405762	0.233154297	0.999999046	3.05E-05	7.72E-05	0.00025177	2.328491211	7.585144043	5.828857422	0.001525879	0.003862381	0.012588501	0.475341797	-0.663574219	-0.606933594	878.26	53.33825662	-13.72287589	-18.40641529	-80
53198	0	0.091913223	0.302885056	0.235835075	0.999999046	0.000682831	0.000165939	6.87E-05	2.297830582	7.572126389	5.895876884	0.034141543	0.008296967	0.003433228	0.477539063	-0.661376953	-0.607421875	878.26	53.40610059	-13.70864799	-18.39128287	-80
53199	0	0.09362793	0.305053711	0.231628418	0.999999046	0.000442505	4.67E-05	0.000148773	2.340698242	7.626342773	5.790710449	0.022125245	0.002336502	0.00743866	0.477539063	-0.661376953	-0.6015625	878.36	53.44769603	-13.7099057	-18.37486341	-80
53200	0	0.092292786	0.304316521	0.23277092	0.999999046	0.000247002	-0.000144958	0.000240326	2.307319641	7.607913017	5.819272995	0.012350083	-0.007247925	0.012016297	0.477783203	-0.663574219	-0.607177734	878.26	53.46953081	-13.7325631	-18.3759412	-80
53201	0	0.093383789	0.305786133	0.231262207	0.999999046	7.63E-05	-0.000216484	1.91E-05	2.334594727	7.64465332	5.781555176	0.003814697	-0.010824204	0.000953674	0.477539063	-0.661376953	-0.604492188	878.3	53.47707418	-13.73966267	-18.39778251	-80
53202	0	0.093495369	0.30636692	0.23166275	0.999999046	0.000162125	-0.000295639	-0.000100136	2.337384224	7.659173012	5.791568756	0.008106232	-0.014781952	-0.00500679	0.475341797	-0.663574219	-0.601318359	878.3	53.4981975	-13.74111321	-18.42898822	-80
53203	0	0.093261719	0.30847168	0.230163574	0.999999046	-0.000854492	-0.000124931	-9.92E-05	2.331542969	7.711791992	5.754089355	-0.042724615	-0.006246568	-0.004959107	0.475097656	-0.661376953	-0.6015625	878.26	53.39905604	-13.73094279	-18.44379231	-80
53204	0	0.092712402	0.301940918	0.234130859	0.999999046	-0.000395775	-0.000198364	-0.000106812	2.317810059	7.548522949	5.853271484	-0.019788743	-0.009918213	-0.005340576	0.477539063	-0.661376953	-0.607421875	878.24	53.35400824	-13.72504346	-18.47154386	-80
53205	0	0.092895508	0.302185059	0.233886719	0.999999046	7.25E-05	-3.72E-05	-3.05E-05	2.322387695	7.554626465	5.847167969	0.003623962	-0.001859665	-0.001525879	0.477539063	-0.661376953	-0.607421875	878.3	53.35751683	-13.71508633	-18.47854411	-80
53206	0	0.092589378	0.302163124	0.234079361	0.999999046	0.0001297	-9.92E-05	0.000174522	2.314734459	7.554078102	5.851984024	0.006484985	-0.004959106	0.00872612	0.475097656	-0.659179688	-0.604492188	878.38	53.36534018	-13.72814767	-18.47645718	-80
53207	0	0.093994141	0.304931641	0.232543945	0.999999046	0.000743866	4.67E-05	0.000476837	2.349853516	7.623291016	5.813598633	0.037193303	0.002336502	0.023841861	0.475097656	-0.661376953	-0.6015625	878.2	53.4351514	-13.7590293	-18.4350855	-80
53208	0	0.092735291	0.303052902	0.232711792	0.999999046	0.000237465	6.87E-05	0.000178337	2.318382263	7.576322556	5.8177948	0.011873245	0.003433228	0.008916855	0.475097656	-0.661376953	-0.604248047	878.24	53.45127425	-13.76087774	-18.4173395	-80
53209	0	0.092590332	0.307128906	0.231201172	0.999999046	0.001094818	-4.86E-05	0.000175476	2.314758301	7.678222656	5.780029297	0.054740917	-0.00243187	0.008773806	0.477539063	-0.663574219	-0.598632813	878.18	53.56837984	-13.7703662	-18.40263704	-80
53210	0	0.093757629	0.307112694	0.230519295	0.999999046	-0.000865936	5.34E-05	7.92E-05	2.343940735	7.677817345	5.762982368	-0.043296819	0.002670288	0.003957749	0.477539063	-0.663574219	-0.604248047	878.14	53.46012975	-13.76397268	-18.3903096	-81
53211	0	0.093200684	0.303100586	0.231689453	0.999999046	0.000274658	-0.000201225	9.92E-05	2.33001709	7.577514648	5.792236328	0.01373291	-0.010061264	0.004959107	0.477539063	-0.663574219	-0.604248047	878.2	53.48788588	-13.77674259	-18.40111379	-81
53212	0	0.092377663	0.302416801	0.233255386	0.999999046	-0.000388145	-4.58E-05	0.000278473	2.309441566	7.560420036	5.831384659	-0.019407273	-0.002288818	0.013923646	0.475341797	-0.663574219	-0.604248047	878.26	53.43297891	-13.79532648	-18.38401651	-80
53213	0	0.093078613	0.302978516	0.233337402	0.999999046	0.00113678	-0.000105858	0.000217438	2.326965332	7.574462891	5.833435059	0.056839002	-0.005292894	0.01087189	0.475341797	-0.663574219	-0.601318359	878.18	53.5550321	-13.81232288	-18.37618719	-80
53214	0	0.093871117	0.306091309	0.232743263	0.999999046	9.92E-05	1.14E-05	0.000212669	2.346777916	7.652282715	5.818581581	0.004959106	0.000572205	0.010633469	0.475341797	-0.663574219	-0.601318359	878.2	53.55552842	-13.82083609	-18.35785202	-81
53215	0	0.092529297	0.304443359	0.232910156	0.999999046	0.000564575	-2.19E-05	3.81E-05	2.313232422	7.611083984	5.822753906	0.028228761	-0.001096726	0.001907349	0.475341797	-0.665771484	-0.601074219	878.24	53.61289584	-13.8154215	-18.35357198	-81
53216	0	0.093173027	0.304145813	0.229327202	0.999999046	0.0004282	7.63E-05	0.000292778	2.329325676	7.603645325	5.733180046	0.021409989	0.003814697	0.014638901	0.475097656	-0.663330078	-0.598388672	878.3	53.64813605	-13.82677623	-18.32285445	-81
53217	0	0.093383789	0.306762695	0.231201172	0.999999046	-9.54E-05	3.15E-05	0.000320435	2.334594727	7.669067383	5.780029297	-0.004768372	0.001573563	0.016021729	0.475341797	-0.665771484	-0.598144531	878.24	53.62390813	-13.84365351	-18.29075268	-81
53218	0	0.094053268	0.305620193	0.230776787	0.999999046	0.000242233	-0.000169754	0.000227928	2.351331711	7.640504837	5.76941967	0.012111664	-0.008487702	0.011396408	0.475341797	-0.66796875	-0.603759766	878.3	53.64445578	-13.86562614	-18.29039529	-81
53219	0	0.093688965	0.303527832	0.232055664	0.999999046	0.000591278	-8.30E-05	0.000236511	2.342224121	7.588195801	5.801391602	0.029563906	-0.004148484	0.011825562	0.475097656	-0.663330078	-0.598388672	878.16	53.7027281	-13.88245045	-18.28074139	-81
53220	0	0.09362793	0.307354927	0.229234695	0.999999046	0.000369072	-0.000183105	0.000286102	2.340698242	7.683873177	5.730867386	0.018453599	-0.009155274	0.014305115	0.475341797	-0.665771484	-0.601074219	878.2	53.73705973	-13.91057562	-18.27893026	-81
53221	0	0.094299316	0.304931641	0.232543945	0.999999046	0.000495911	-7.15E-05	0.000202179	2.35748291	7.623291016	5.813598633	0.024795533	-0.003576279	0.010108948	0.477783203	-0.66796875	-0.601074219	878.16	53.7846219	-13.92333952	-18.26998376	-81
53222	0	0.093811035	0.307861328	0.229125977	0.999999046	0.000411987	1.53E-05	6.48E-05	2.345275879	7.696533203	5.728149414	0.020599366	0.000762939	0.003242493	0.475341797	-0.66796875	-0.598144531	878.24	53.82294426	-13.91745662	-18.26031426	-81
53223	0	0.093362808	0.304022789	0.229707718	0.999998093	0.000710487	-0.000192642	8.39E-05	2.334070206	7.600569725	5.742692947	0.035524372	-0.009632111	0.004196167	0.475341797	-0.669921875	-0.594970703	878.3	53.89982358	-13.92733322	-18.26389049	-81
53224	0	0.093711853	0.306648254	0.229245186	0.999999046	0.000332832	-0.000144958	0.000270844	2.342796326	7.66620636	5.731129646	0.016641617	-0.007247925	0.013542176	0.477783203	-0.672363281	-0.594970703	878.38	53.92918438	-13.9512195	-18.24678022	-81
53225	0	0.094177246	0.30291748	0.231750488	0.999999046	0.001132965	-0.000189781	0.000343323	2.354431152	7.572937012	5.793762207	0.056648268	-0.009489062	0.017166142	0.473144531	-0.669921875	-0.59765625	878.28	54.04980478	-13.9847993	-18.24178786	-81
53226	0	0.093925476	0.305147171	0.231022835	0.999999046	0.000617981	0.000175476	0.000727654	2.348136902	7.628679276	5.775570869	0.030899053	0.008773805	0.036382681	0.473144531	-0.672119141	-0.591796875	878.2	54.09633416	-14.02941453	-18.1662501	-81
53227	0	0.095397949	0.305603027	0.231018066	0.999999046	0.000514984	0.000374794	0.000728607	2.38494873	7.640075684	5.77545166	0.025749211	0.018739703	0.036430365	0.473144531	-0.674316406	-0.591552734	878.18	54.12619323	-14.06073924	-18.07128122	-81
53228	0	0.095426559	0.305823326	0.230529785	0.999999046	0.00074482	0.000490189	0.000904083	2.385663986	7.645583153	5.763244629	0.037240992	0.024509437	0.045204175	0.473144531	-0.674316406	-0.591552734	878.26	54.1765344	-14.10062961	-17.9570718	-82
53229	0	0.094665527	0.307922363	0.226501465	0.999999046	0.000320435	0.000283241	0.001296997	2.366638184	7.698059082	5.662536621	0.016021733	0.014162068	0.064849874	0.470703125	-0.674316406	-0.588623047	878.32	54.17638605	-14.19086726	-17.83433604	-83
53230	0	0.095592499	0.312397003	0.225866318	0.999998093	-0.001423836	0.000155449	0.00109005	2.389812469	7.809925079	5.646657944	-0.071191826	0.00777245	0.054502517	0.468505859	-0.676269531	-0.588378906	878.26	53.98290242	-14.27020335	-17.73186821	-84
53231	0	0.094604492	0.304199219	0.221008301	0.999990463	-0.003588676	-0.000225067	0.002090454	2.365112305	7.604980469	5.52520752	-0.17943434	-0.011253389	0.104523006	0.468505859	-0.674316406	-0.597167969	878.28	53.53289283	-14.46723737	-17.59913784	-85
53232	0	0.098350525	0.315117836	0.234219551	0.999992371	-0.003475189	-8.49E-05	0.001434326	2.458763123	7.8779459	5.855488777	-0.17375987	-0.004243861	0.071716478	0.466308594	-0.674072266	-0.599853516	878.3	53.10361201	-14.59332524	-17.49132073	-86
53233	0	0.096313477	0.304077148	0.225830078	0.999994278	-0.003176689	-0.000278473	0.000232697	2.407836914	7.601928711	5.645751953	-0.158834728	-0.013923669	0.011634846	0.466064453	-0.667724609	-0.606201172	878.2	52.7347531	-14.62221652	-17.49290756	-87
53234	0	0.097314835	0.296681404	0.235417366	0.999999046	-0.000524521	-0.000328064	-0.000134468	2.432870865	7.417035103	5.885434151	-0.026226045	-0.016403199	-0.006723404	0.463623047	-0.665283203	-0.606201172	878.26	52.67742271	-14.62107199	-17.5269487	-87
53235	0	0.097900391	0.302734375	0.235107422	0.999999046	-0.000286102	-0.000151634	-0.000179291	2.447509766	7.568359375	5.877685547	-0.014305115	-0.007581711	-0.008964539	0.466064453	-0.665527344	-0.609130859	878.24	52.64406412	-14.60352864	-17.54903829	-87
53236	0	0.098601341	0.289266586	0.238171577	0.999999046	0.000161171	-2.10E-05	0.000475883	2.465033531	7.231664658	5.954289436	0.008058548	-0.001049042	0.023794175	0.466064453	-0.667724609	-0.611816406	878.3	52.64646967	-14.6366526	-17.51348056	-87
53237	0	0.097412109	0.29901123	0.237365723	0.999997139	0.002090454	0.000245094	0.000583649	2.435302734	7.475280762	5.934143066	0.104522788	0.012254725	0.029182457	0.463623047	-0.665283203	-0.612060547	878.26	52.86150503	-14.66108993	-17.45812276	-87
53238	0	0.097099304	0.300785065	0.231822968	0.999998093	0.001456261	0.000317574	0.001070976	2.427482605	7.519626617	5.795574188	0.072813075	0.015878686	0.053548843	0.466064453	-0.671875	-0.600097656	878.26	52.99334114	-14.72516527	-17.33904417	-87
53239	0	0.098266602	0.301391602	0.231262207	0.999997139	0.00189209	0.000222206	0.000858307	2.456665039	7.534790039	5.781555176	0.094604561	0.011110314	0.042915375	0.463867188	-0.671875	-0.602783203	878.28	53.1812724	-14.77651211	-17.25733077	-87
53240	0	0.099974632	0.308869362	0.230688095	0.999998093	0.001676559	0.000117302	0.000705719	2.499365807	7.721734047	5.767202377	0.083828019	0.0058651	0.035285969	0.461425781	-0.676269531	-0.596679688	878.32	53.3500415	-14.82120352	-17.18898733	-87
53241	0	0.098876953	0.306945801	0.227783203	0.999999046	0.00043869	0.000256538	0.000305176	2.471923828	7.67364502	5.694580078	0.021934511	0.01282692	0.01525879	0.461669922	-0.678466797	-0.596435547	878.28	53.38106705	-14.81954275	-17.13466669	-87
53242	0	0.099129677	0.30629158	0.228114128	0.999999046	0.000391006	3.62E-05	0.00019455	2.47824192	7.657289505	5.702853203	0.019550324	0.001811981	0.009727478	0.461669922	-0.680664063	-0.599121094	878.26	53.41418648	-14.82270413	-17.11203421	-87
53243	0	0.099304199	0.305053711	0.229919434	0.999999046	-0.000392914	-3.72E-05	-0.000190735	2.48260498	7.626342773	5.74798584	-0.019645692	-0.001859665	-0.009536743	0.461669922	-0.678466797	-0.593505859	878.3	53.3662907	-14.79538827	-17.11594606	-86
53244	0	0.099755287	0.300881386	0.231062889	0.999999046	0.000302315	-0.000240326	-0.000100136	2.493882179	7.522034645	5.776572227	0.015115738	-0.012016297	-0.00500679	0.459228516	-0.678222656	-0.596191406	878.3	53.40125566	-14.79029802	-17.13906572	-87
53245	0	0.098999023	0.301940918	0.230041504	0.999999046	-0.000343323	-0.00014019	0.000202179	2.474975586	7.548522949	5.751037598	-0.017166138	-0.007009506	0.010108948	0.463867188	-0.678466797	-0.59375	878.28	53.35431552	-14.80614428	-17.12332269	-87
53246	0	0.098818779	0.299360275	0.232477188	0.999999046	0.000724792	-0.000162125	0.000319481	2.470469475	7.484006882	5.811929703	0.036239628	-0.008106233	0.015974047	0.459472656	-0.678466797	-0.602050781	878.32	53.42798571	-14.83422982	-17.11915521	-87
53247	0	0.099121094	0.305786133	0.229919434	0.999999046	0.000427246	6.20E-05	0.000434875	2.478027344	7.64465332	5.74798584	0.021362306	0.003099442	0.021743776	0.461425781	-0.678466797	-0.590576172	878.24	53.46010113	-14.85757566	-17.06806873	-87
53248	0	0.099723816	0.305103302	0.231074333	0.999999046	0.000340462	0.000173569	0.000285149	2.493095398	7.62758255	5.77685833	0.017023087	0.008678437	0.014257432	0.459228516	-0.678222656	-0.596191406	878.28	53.48225559	-14.85946935	-17.02907517	-86
53249	0	0.09942627	0.305114746	0.230041504	0.999999046	0.000545502	6.58E-05	-3.81E-06	2.485656738	7.627868652	5.751037598	0.027275087	0.003290177	-0.000190735	0.461669922	-0.678466797	-0.593505859	878.3	53.53580846	-14.8420439	-17.01690371	-86
53250	0	0.100309372	0.30652523	0.22941494	0.999999046	0.000164032	-7.82E-05	-0.000160217	2.507734299	7.66313076	5.735373497	0.008201599	-0.003910065	-0.008010864	0.461669922	-0.680664063	-0.596191406	878.26	53.55207342	-14.81998854	-17.03106582	-86
53251	0	0.100524902	0.305541992	0.227783203	0.999999046	-0.000320435	-6.01E-05	-8.01E-05	2.513122559	7.638549805	5.694580078	-0.016021729	-0.003004074	-0.004005432	0.461669922	-0.678466797	-0.593505859	878.26	53.51105469	-14.80411155	-17.03501235	-87
53252	0	0.098306656	0.302235603	0.230588913	0.999999046	-0.000746727	3.62E-05	0.000160217	2.457666397	7.555890083	5.764722824	-0.037336353	0.001811981	0.008010865	0.461669922	-0.678466797	-0.593505859	878.36	53.41442486	-14.80374016	-17.01007306	-87
53253	0	0.099304199	0.302124023	0.231628418	0.999999046	0.000240326	-7.15E-05	0.000175476	2.48260498	7.553100586	5.790710449	0.012016297	-0.003576279	0.008773804	0.461669922	-0.678466797	-0.593505859	878.36	53.43314931	-14.81209659	-16.99510177	-87
53254	0	0.098815918	0.302856445	0.230102539	0.999999046	0.000492096	0.0001297	0.000247955	2.470397949	7.571411133	5.752563477	0.024604799	0.006484986	0.012397767	0.461425781	-0.676269531	-0.596679688	878.26	53.47450174	-14.8133388	-16.96626349	-86
53255	0	0.100344658	0.303974152	0.228287697	0.999997139	0.000728607	6.39E-05	0.000376701	2.508616447	7.59935379	5.707192421	0.036430363	0.003194809	0.01883507	0.461669922	-0.678466797	-0.596435547	878.28	53.54231752	-14.83097638	-16.9339715	-86
53256	0	0.098633766	0.30257225	0.227960587	0.999999046	0.000239372	3.81E-05	0.000433922	2.465844154	7.564306259	5.699014664	0.011968613	0.001907349	0.021696092	0.461669922	-0.680664063	-0.599121094	878.36	53.55368581	-14.85561114	-16.90243115	-86
53257	0	0.10144043	0.308227539	0.227294922	0.999999046	0.000919342	-6.01E-05	0.000419617	2.536010742	7.705688477	5.682373047	0.04596711	-0.003004075	0.020980839	0.459472656	-0.682617188	-0.595947266	878.36	53.64585374	-14.88566522	-16.87798085	-85
53258	0	0.099404335	0.304656982	0.227760315	0.999999046	-0.000450134	3.05E-05	0.00026226	2.485108376	7.616424561	5.694007874	-0.022506715	0.001525879	0.013113022	0.461669922	-0.680664063	-0.590576172	878.28	53.58176623	-14.89500643	-16.84707722	-85
53259	0	0.100830078	0.305603027	0.22833252	0.999999046	0.00030899	-0.000136375	7.63E-05	2.520751953	7.640075684	5.708312988	0.015449524	-0.006818771	0.003814697	0.459228516	-0.680419922	-0.590332031	878.32	53.61220601	-14.89854922	-16.84727069	-85
53260	0	0.100816727	0.303653717	0.229276657	0.999999046	-0.00011158	-0.000240326	0.0001297	2.520418167	7.591342926	5.731916428	-0.005578995	-0.012016297	0.006484985	0.459228516	-0.682617188	-0.590087891	878.2	53.59600958	-14.91410806	-16.84928722	-85
53261	0	0.098937988	0.301879883	0.229125977	0.999999046	0.000724792	-0.000227928	0.000339508	2.473449707	7.54699707	5.728149414	0.036239628	-0.011396409	0.016975405	0.459228516	-0.682617188	-0.590087891	878.26	53.67148395	-14.94811626	-16.83785957	-85
53262	0	0.100532532	0.307758331	0.228694916	0.999999046	-0.00019455	-9.54E-05	0.00037384	2.513313293	7.693958282	5.717372894	-0.009727478	-0.004768372	0.018692017	0.459228516	-0.682617188	-0.590087891	878.28	53.63782421	-14.97623977	-16.81060744	-85
53263	0	0.099914551	0.302978516	0.229675293	0.999999046	0.000442505	6.20E-05	0.000289917	2.49786377	7.574462891	5.741882324	0.022125245	0.003099442	0.01449585	0.459472656	-0.684814453	-0.590087891	878.28	53.67472293	-14.98588371	-16.7730276	-84
53264	0	0.101408005	0.309161186	0.225568771	0.999999046	9.25E-05	5.72E-05	9.44E-05	2.535200119	7.729029655	5.639219284	0.00462532	0.002861023	0.004720688	0.459716797	-0.687255859	-0.595703125	878.26	53.67546221	-14.97779463	-16.75594387	-84
53265	0	0.099182129	0.301513672	0.228027344	0.999999046	-8.01E-05	-2.96E-05	-0.000137329	2.479553223	7.537841797	5.700683594	-0.004005432	-0.001478195	-0.006866455	0.461669922	-0.685058594	-0.587158203	878.26	53.66270192	-14.95415764	-16.75089159	-84
53266	0	0.101368904	0.307607651	0.227337837	0.999999046	-1.14E-05	-0.000207901	8.30E-05	2.534222603	7.690191269	5.68344593	-0.000572205	-0.01039505	0.004148483	0.45703125	-0.684814453	-0.58984375	878.32	53.65836056	-14.96297481	-16.75430589	-84
53267	0	0.100158691	0.304382324	0.229736328	0.999999046	-0.000526428	-0.000174522	-6.10E-05	2.503967285	7.609558105	5.743408203	-0.026321412	-0.00872612	-0.003051758	0.459472656	-0.682617188	-0.595947266	878.26	53.5967446	-14.95620223	-16.77392671	-84
53268	0	0.099774361	0.30274868	0.229714394	0.999999046	-0.000258446	-1.34E-05	8.39E-05	2.494359016	7.568717003	5.74285984	-0.012922287	-0.000667572	0.004196167	0.459472656	-0.684814453	-0.595703125	878.36	53.55915513	-14.95181604	-16.76331067	-83
53269	0	0.099487305	0.30255127	0.229492188	0.999999046	0.000209808	3.91E-05	3.05E-05	2.487182617	7.563781738	5.737304688	0.010490418	0.001955032	0.001525879	0.459228516	-0.680419922	-0.593261719	878.36	53.57484249	-14.93888986	-16.75446338	-83
53270	0	0.09979248	0.300138474	0.229311943	0.999999046	0.001241684	-6.87E-05	0.000312805	2.494812012	7.503461838	5.732798576	0.062084215	-0.003433228	0.015640263	0.461914063	-0.685058594	-0.593017578	878.32	53.7061766	-14.95933523	-16.73242395	-83
53271	0	0.100891113	0.307006836	0.227233887	0.999999046	0.00019455	-1.81E-05	0.00043869	2.522277832	7.675170898	5.680847168	0.009727478	-0.000905991	0.02193451	0.45703125	-0.682617188	-0.595703125	878.36	53.71411148	-14.98798156	-16.70801904	-83
53272	0	0.099884033	0.303528786	0.228393555	0.999999046	0.001067162	-0.000200272	0.000411987	2.49710083	7.588219643	5.709838867	0.05335809	-0.010013583	0.02059937	0.459472656	-0.684814453	-0.587158203	878.36	53.82700072	-15.02648348	-16.68812831	-83
53273	0	0.101501465	0.310180664	0.22644043	0.999999046	0.000534058	-0.000174522	0.000270844	2.537536621	7.754516602	5.661010742	0.026702883	-0.008726121	0.013542176	0.459472656	-0.687011719	-0.58984375	878.2	53.88095077	-15.05016032	-16.67898437	-83
53274	0	0.100891113	0.30542469	0.22687149	0.999999046	0.000295639	-0.000131607	0.000102997	2.522277832	7.635617256	5.671787262	0.014781952	-0.006580353	0.005149841	0.459472656	-0.687011719	-0.586914063	878.32	53.9095904	-15.05538159	-16.67349836	-83
53275	0	0.102416992	0.309448242	0.224914551	0.999999046	-0.000175476	-0.000105858	0.000133514	2.560424805	7.736206055	5.62286377	-0.008773804	-0.005292893	0.00667572	0.459472656	-0.687011719	-0.58984375	878.38	53.88327071	-15.06171472	-16.66747254	-83
53276	0	0.100470543	0.301711082	0.228843689	0.999999046	-0.000180244	-0.000137329	-6.20E-05	2.511763573	7.542777061	5.721092224	-0.009012222	-0.006866455	-0.003099442	0.457275391	-0.687011719	-0.589599609	878.26	53.86055823	-15.05206605	-16.67777935	-83
53277	0	0.101318359	0.307189941	0.227478027	0.999999046	0.000396729	-4.10E-05	3.43E-05	2.532958984	7.679748535	5.686950684	0.019836426	-0.0020504	0.001716614	0.459472656	-0.687011719	-0.586914063	878.28	53.8998734	-15.04480324	-16.66791288	-83
53278	0	0.100564003	0.305105209	0.228325844	0.999999046	0.000104904	-9.16E-05	3.81E-05	2.514100075	7.627630234	5.708146095	0.005245209	-0.004577637	0.001907349	0.459472656	-0.684814453	-0.587158203	878.22	53.90687804	-15.04126386	-16.66631443	-83
53279	0	0.101928711	0.307434082	0.227172852	0.999999046	8.01E-05	8.11E-05	0.000175476	2.548217773	7.685852051	5.679321289	0.004005432	0.004053116	0.008773804	0.457275391	-0.689208984	-0.586669922	878.26	53.90431958	-15.03880249	-16.63340992	-83
53280	0	0.099068642	0.304383278	0.227505684	0.999999046	-0.000855446	-7.25E-05	0.000189781	2.476716042	7.609581947	5.687642097	-0.042772299	-0.003623963	0.009489061	0.457275391	-0.687011719	-0.589599609	878.32	53.79806575	-15.0479298	-16.61876162	-83
53281	0	0.10168457	0.305847168	0.228393555	0.999999046	0.000583649	-0.000212669	3.05E-05	2.542114258	7.646179199	5.709838867	0.029182436	-0.010633469	0.001525879	0.459716797	-0.689208984	-0.592529297	878.32	53.8631035	-15.05181002	-16.63091746	-83
53282	0	0.101616859	0.307813644	0.226220131	0.999999046	-0.000148773	-0.000118256	6.87E-05	2.540421486	7.69534111	5.655503273	-0.00743866	-0.005912781	0.003433228	0.459716797	-0.689208984	-0.589599609	878.28	53.84130186	-15.05283314	-16.62565077	-83
53283	0	0.101623535	0.304138184	0.227661133	0.999999046	0.000339508	-0.000136375	0.000102997	2.540588379	7.60345459	5.69152832	0.016975403	-0.006818772	0.005149841	0.459472656	-0.687011719	-0.586914063	878.24	53.87523996	-15.0582863	-16.61959131	-84
53284	0	0.10119915	0.308054924	0.225836754	0.999999046	-1.05E-05	3.05E-05	0.000105858	2.529978752	7.7013731	5.645918846	-0.000524521	0.001525879	0.005292892	0.459472656	-0.687011719	-0.592773438	878.28	53.86501061	-15.0526992	-16.60717655	-84
53285	0	0.100830078	0.304382324	0.226379395	0.999999046	-0.000118256	-3.34E-05	5.72E-05	2.520751953	7.609558105	5.659484863	-0.005912781	-0.00166893	0.002861023	0.459472656	-0.687011719	-0.592773438	878.26	53.84491796	-15.04692495	-16.60361019	-84
53286	0	0.1015625	0.306518555	0.226257324	0.999999046	0.000404358	-0.000217438	3.43E-05	2.5390625	7.662963867	5.656433105	0.020217896	-0.010871888	0.001716614	0.457275391	-0.687011719	-0.589599609	878.28	53.88979547	-15.0514856	-16.61628273	-84
53287	0	0.101416588	0.305464745	0.227133751	0.999998093	0.000189781	-0.000225067	5.63E-05	2.535414696	7.636618614	5.678343773	0.00948906	-0.011253357	0.002813339	0.45703125	-0.687011719	-0.586914063	878.26	53.90988017	-15.0585912	-16.62405761	-83
53288	0	0.100769997	0.306459427	0.22623539	0.999999046	0.000508308	-0.000207901	0.000105858	2.519249916	7.661485672	5.655884743	0.025415422	-0.010395051	0.005292893	0.459472656	-0.687011719	-0.586914063	878.36	53.965206	-15.06908713	-16.62695876	-84
53289	0	0.099853516	0.307312012	0.227478027	0.999999046	-0.000823975	0.00011158	6.87E-05	2.496337891	7.682800293	5.686950684	-0.041198735	0.005578995	0.003433228	0.457275391	-0.689208984	-0.589599609	878.28	53.86058966	-15.05448666	-16.60150909	-84
53290	0	0.101614952	0.305459023	0.22714901	0.999999046	0.000387192	2.48E-05	9.54E-05	2.540373802	7.636475563	5.678725243	0.019359589	0.001239777	0.004768372	0.457275391	-0.689208984	-0.589599609	878.28	53.89645077	-15.04823151	-16.58416704	-84
53291	0	0.102172852	0.306396484	0.226745605	0.999999046	-0.000202179	-2.57E-05	8.01E-05	2.554321289	7.659912109	5.668640137	-0.010108948	-0.00128746	0.004005432	0.459716797	-0.689208984	-0.589599609	878.36	53.8663548	-15.04401679	-16.57051794	-84
53292	0	0.100035667	0.303420067	0.225886345	0.999999046	3.53E-05	-2.86E-05	0.000220299	2.500891685	7.585501671	5.647158623	0.001764298	-0.001430511	0.011014938	0.457275391	-0.689208984	-0.589599609	878.28	53.86098798	-15.05294679	-16.54895824	-84
53293	0	0.101257324	0.305480957	0.227294922	0.999999046	0.000629425	2.38E-05	8.39E-05	2.531433105	7.637023926	5.682373047	0.031471255	0.001192093	0.004196167	0.45703125	-0.687011719	-0.586914063	878.36	53.92487672	-15.0457135	-16.53325156	-84
53294	0	0.101237297	0.309593201	0.225627899	0.999999046	0.000144958	0.000137329	0.000239372	2.530932426	7.739830017	5.640697479	0.007247925	0.006866455	0.011968613	0.45703125	-0.689208984	-0.580810547	878.36	53.92778529	-15.04519282	-16.48358343	-84
53295	0	0.100708008	0.305114746	0.225708008	0.999999046	-0.000259399	0.000248909	0.000148773	2.517700195	7.627868652	5.642700195	-0.012969971	0.01244545	0.00743866	0.45703125	-0.687011719	-0.586914063	878.32	53.88325651	-15.02872862	-16.44265951	-83
53296	0	0.101296425	0.305882454	0.226405144	0.999999046	-8.11E-05	-6.68E-05	0.000113487	2.532410622	7.647061348	5.660128593	-0.004053116	-0.00333786	0.005674362	0.45703125	-0.689208984	-0.583740234	878.28	53.86769677	-15.03032151	-16.42565776	-83
53297	0	0.101196289	0.30682373	0.226074219	0.999999046	0.000228882	-9.06E-05	3.81E-05	2.529907227	7.670593262	5.651855469	0.011444092	-0.004529953	0.001907349	0.457275391	-0.69140625	-0.586425781	878.26	53.8896992	-15.02655014	-16.41835802	-83
53298	0	0.100894928	0.30618763	0.227379799	0.999999046	-0.000469208	-8.39E-05	0.000141144	2.522373199	7.654690742	5.684494972	-0.023460389	-0.004196167	0.00705719	0.454833984	-0.687011719	-0.589599609	878.36	53.82966651	-15.03184918	-16.41429422	-83
53299	0	0.100646973	0.30291748	0.228149414	0.999999046	0.000576019	-4.10E-05	-1.14E-05	2.516174316	7.572937012	5.703735352	0.028800966	-0.0020504	-0.000572205	0.457275391	-0.689208984	-0.586669922	878.32	53.8910022	-15.0201251	-16.40938894	-82
