Counter	Temperature	VelInc_X	VelInc_Y	VelInc_Z	OriInc_w	OriInc_x	OriInc_y	OriInc_z	Acc_X	Acc_Y	Acc_Z	Gyr_X	Gyr_Y	Gyr_Z	Mag_X	Mag_Y	Mag_Z	Pressure	Roll	Pitch	Yaw	RSSI
22954	0	0.354039192	-0.103200912	0.140951157	0.999999046	0.000255585	-0.000488281	0.000308037	8.850979805	-2.580022812	3.523778915	0.012779237	-0.024414064	0.015401841	-0.421386719	0.702880859	-0.531494141	883.24	-35.45376273	-63.99063824	-29.04882512	-65
22955	0	0.348693848	-0.099121094	0.13873291	0.999997139	0.002204895	-0.000590324	0.000141144	8.717346191	-2.478027344	3.468322754	0.110244847	-0.029516246	0.007057196	-0.416748047	0.705078125	-0.531982422	883.24	-35.28878813	-64.03274444	-28.96634643	-65
22956	0	0.351026535	-0.092573166	0.137200356	0.999998093	0.001407623	-0.00052166	0.000232697	8.775663376	-2.314329147	3.430008888	0.070381192	-0.026083003	0.011634831	-0.418701172	0.702636719	-0.540283203	883.24	-35.22307748	-64.06270696	-28.86369252	-65
22957	0	0.357543945	-0.098327637	0.137084961	0.999999046	0.000190735	-0.000468254	0.000156403	8.938598633	-2.458190918	3.427124023	0.009536744	-0.023412706	0.00782013	-0.418701172	0.700439453	-0.537353516	883.2	-35.27523392	-64.09294856	-28.7874088	-65
22958	0	0.359924316	-0.100463867	0.137451172	0.999999046	0.000354767	-0.00056839	7.62939E-06	8.99810791	-2.51159668	3.436279297	0.017738344	-0.028419497	0.00038147	-0.421142578	0.702880859	-0.540283203	883.22	-35.2941528	-64.14257536	-28.72608515	-65
22959	0	0.358997345	-0.096704483	0.139867783	0.999997139	0.00153923	-0.000742912	5.53131E-05	8.974933624	-2.417612076	3.496694565	0.076961555	-0.037145633	0.002765657	-0.421142578	0.698486328	-0.536865234	883.18	-35.21037115	-64.20555128	-28.6329666	-65
22960	0	0.358198166	-0.092697144	0.143582344	0.999998093	0.001670837	-0.00064373	0.000188828	8.954954147	-2.317428589	3.589558601	0.083541915	-0.032186526	0.009441381	-0.421142578	0.700683594	-0.540039063	883.22	-35.1231524	-64.25057092	-28.52824496	-65
22961	0	0.354675293	-0.088989258	0.143371582	0.999999046	0.000518799	-0.000376701	0.000240326	8.866882324	-2.224731445	3.584289551	0.025939943	-0.018835069	0.012016297	-0.423339844	0.696289063	-0.542480469	883.2	-35.14049827	-64.26729362	-28.44711466	-65
22962	0	0.352231979	-0.092799187	0.138379097	0.999999046	-0.000785828	-0.000141144	0.000442505	8.805799484	-2.319979668	3.459477425	-0.039291387	-0.007057191	0.022125247	-0.420898438	0.696044922	-0.542724609	883.18	-35.31405781	-64.24865802	-28.35396116	-65
22963	0	0.356323242	-0.096557617	0.13873291	0.999999046	-0.001060486	0.000115395	0.000320435	8.908081055	-2.41394043	3.468322754	-0.053024303	0.005769731	0.016021732	-0.420898438	0.698242188	-0.539794922	883.22	-35.45998171	-64.21413717	-28.33004685	-65
22964	0	0.355128288	-0.100618362	0.137929916	0.999998093	-0.001470566	-2.19345E-05	0.000151634	8.878207207	-2.515459061	3.44824791	-0.073528317	-0.001096726	0.007581714	-0.421142578	0.700439453	-0.54296875	883.28	-35.6394116	-64.20363414	-28.31332109	-65
22965	0	0.351806641	-0.10357666	0.140808105	0.999999046	-0.001022339	-0.000193596	0.000217438	8.795166016	-2.589416504	3.520202637	-0.051116953	-0.009679796	0.010871889	-0.421142578	0.700683594	-0.537109375	883.2	-35.80422239	-64.20442065	-28.26201895	-65
22966	0	0.354623795	-0.104879379	0.143323898	0.999999046	0.000255585	-0.00028801	0.000479698	8.865594864	-2.621984482	3.583097458	0.012779237	-0.014400483	0.023984911	-0.418945313	0.702880859	-0.537353516	883.12	-35.88636058	-64.19601137	-28.14127793	-65
22967	0	0.355773926	-0.10168457	0.140869141	0.999999046	0.000659943	-0.000250816	0.000209808	8.894348145	-2.542114258	3.521728516	0.032997134	-0.012540818	0.010490418	-0.421142578	0.702880859	-0.537353516	883.24	-35.86524778	-64.20214138	-28.08635134	-65
22968	0	0.354398727	-0.097988129	0.138866425	0.999999046	0.000527382	-0.000270844	0.00044632	8.859968185	-2.449703217	3.471660614	0.026369097	-0.013542177	0.022315981	-0.421386719	0.702880859	-0.534423828	883.2	-35.90742048	-64.19427894	-27.98408844	-64
22969	0	0.356750488	-0.097961426	0.137145996	0.999999046	0.000305176	-7.9155E-05	0.000320435	8.918762207	-2.449035645	3.428649902	0.01525879	-0.003957749	0.016021729	-0.421142578	0.702880859	-0.537353516	883.22	-35.9242026	-64.17722668	-27.93403902	-64
22970	0	0.354755402	-0.099327087	0.136172295	0.999999046	0.000341415	-0.000349045	0.000228882	8.86888504	-2.483177185	3.404307365	0.017070771	-0.017452241	0.011444092	-0.421142578	0.702880859	-0.537353516	883.18	-35.956969	-64.19147834	-27.86209886	-64
22971	0	0.35748291	-0.097351074	0.137329102	0.999999046	0.00069809	-0.000372887	0.000202179	8.937072754	-2.433776855	3.433227539	0.034904484	-0.018644335	0.010108949	-0.418945313	0.702880859	-0.534667969	883.14	-35.94701952	-64.2099098	-27.79752746	-64
22972	0	0.358707428	-0.094799995	0.138962746	0.999999046	0.00070858	-0.000276566	-3.52859E-05	8.967685699	-2.369999886	3.474068642	0.035429004	-0.013828279	-0.001764298	-0.418701172	0.700439453	-0.540283203	883.28	-35.87642302	-64.23559447	-27.78870224	-64
22973	0	0.358276367	-0.093688965	0.140563965	0.999999046	9.91821E-05	-0.000124931	-6.10352E-05	8.95690918	-2.342224121	3.514099121	0.004959106	-0.006246567	-0.003051758	-0.420898438	0.698242188	-0.539794922	883.3	-35.84894074	-64.24907847	-27.80889987	-64
22974	0	0.356431007	-0.096670151	0.140980721	0.999999046	-0.000654221	6.29425E-05	-0.000106812	8.910775185	-2.416753769	3.524518013	-0.032711031	0.003147125	-0.005340577	-0.421142578	0.700683594	-0.537109375	883.36	-35.87247838	-64.24818568	-27.87335749	-64
22975	0	0.354980469	-0.098693848	0.138427734	0.999999046	-0.000591278	0.000119209	-1.90735E-05	8.874511719	-2.467346191	3.460693359	-0.029563906	0.005960465	-0.000953674	-0.421142578	0.700683594	-0.534179688	883.22	-35.8978859	-64.23619325	-27.93081244	-64
22976	0	0.356050491	-0.100795746	0.136561394	0.999999046	-0.000548363	0.000125885	-5.72205E-05	8.901262283	-2.519893646	3.414034843	-0.027418138	0.006294251	-0.002861023	-0.418701172	0.700439453	-0.540283203	883.14	-35.91046702	-64.22620705	-27.98389179	-64
22977	0	0.356872559	-0.101501465	0.137512207	0.999999046	-0.000244141	8.58307E-06	-0.000225067	8.921813965	-2.537536621	3.437805176	-0.012207031	0.000429153	-0.011253357	-0.418945313	0.702880859	-0.537353516	883.24	-35.87256262	-64.23839341	-28.06143653	-64
22978	0	0.355144501	-0.099761963	0.139604568	0.999999046	0.000213623	-0.000110626	-0.000264168	8.878612518	-2.494049072	3.490114212	0.010681153	-0.005531311	-0.01320839	-0.421142578	0.700683594	-0.537109375	883.18	-35.79119109	-64.26418594	-28.12856123	-64
22979	0	0.357971191	-0.098388672	0.139587402	0.999999046	0.000179291	-4.48227E-05	-0.000301361	8.949279785	-2.459716797	3.489685059	0.008964539	-0.002241135	-0.015068055	-0.421142578	0.702880859	-0.540283203	883.28	-35.69721122	-64.28634156	-28.21165046	-64
22980	0	0.35547924	-0.098612785	0.140077591	0.999999046	7.15256E-05	5.53131E-05	-0.000336647	8.88698101	-2.465319633	3.501939774	0.003576279	0.002765656	-0.016832352	-0.421142578	0.698486328	-0.536865234	883.24	-35.59466694	-64.30141192	-28.31964603	-64
22981	0	0.356079102	-0.099121094	0.139892578	0.999999046	0.000217438	3.14713E-05	-0.000118256	8.901977539	-2.478027344	3.497314453	0.010871887	0.001573563	-0.005912781	-0.423583984	0.700683594	-0.537109375	883.3	-35.52097242	-64.30402838	-28.38083121	-64
22982	0	0.357984543	-0.095375061	0.138856888	0.999999046	5.14984E-05	0.000400543	1.81198E-05	8.949613571	-2.384376526	3.471422195	0.002574921	0.020027161	0.000905991	-0.421142578	0.700683594	-0.534179688	883.18	-35.44156533	-64.26323154	-28.47443328	-64
22983	0	0.357666016	-0.096435547	0.136047363	0.999999046	-0.000522614	0.000325203	0.000171661	8.941650391	-2.410888672	3.401184082	-0.026130678	0.016260148	0.008583069	-0.423583984	0.700683594	-0.540039063	883.2	-35.46832028	-64.21946088	-28.51265154	-64
22984	0	0.356505394	-0.09517765	0.138742447	0.999999046	-0.000237465	4.19617E-05	4.1008E-05	8.91263485	-2.379441261	3.468561172	-0.011873245	0.002098084	0.0020504	-0.421142578	0.700683594	-0.534179688	883.22	-35.47595326	-64.21094091	-28.54426215	-64
22985	0	0.356201172	-0.096923828	0.140625	0.999999046	-0.000564575	-6.77109E-05	-0.000137329	8.905029297	-2.423095703	3.515625	-0.028228761	-0.003385544	-0.006866455	-0.423583984	0.700683594	-0.537109375	883.12	-35.50155125	-64.22452703	-28.59120054	-65
22986	0	0.354293823	-0.100769043	0.14040184	0.999998093	-0.000433922	0.000113487	-0.000411034	8.857345581	-2.519226074	3.510046005	-0.021696092	0.005674363	-0.020551683	-0.421142578	0.702880859	-0.537353516	883.2	-35.43447525	-64.23925502	-28.72432524	-65
22987	0	0.356079102	-0.1015625	0.139953613	0.999999046	0.000312805	0.000164986	-0.0001297	8.901977539	-2.5390625	3.498840332	0.015640259	0.008249283	-0.006484986	-0.421142578	0.700683594	-0.540039063	883.2	-35.32948407	-64.23031657	-28.799104	-65
22988	0	0.356607437	-0.098148346	0.140070915	0.999999046	7.72476E-05	0.000146866	-0.000153542	8.915185928	-2.453708649	3.501772881	0.003862381	0.007343292	-0.007677078	-0.421142578	0.700683594	-0.537109375	883.22	-35.24943698	-64.22459443	-28.88202392	-65
22989	0	0.356506348	-0.099975586	0.137878418	0.999999046	1.90735E-05	8.4877E-05	0.00018692	8.912658691	-2.499389648	3.446960449	0.000953674	0.004243851	0.009346008	-0.421142578	0.700683594	-0.540039063	883.24	-35.25092717	-64.20216959	-28.87697315	-65
22990	0	0.355651855	-0.099554062	0.136598587	0.999999046	0.000570297	-0.000234604	0.000259399	8.891296387	-2.488851547	3.414964676	0.028514864	-0.011730195	0.012969972	-0.421142578	0.700683594	-0.537109375	883.2	-35.24742063	-64.20493025	-28.81415475	-65
22991	0	0.355773926	-0.096252441	0.136474609	0.999999046	0.000473022	-9.05991E-05	0.000278473	8.894348145	-2.406311035	3.411865234	0.023651124	-0.004529953	0.013923646	-0.421142578	0.700439453	-0.54296875	883.28	-35.23915229	-64.19313686	-28.75995809	-65
22992	0	0.355257034	-0.096137047	0.137660027	0.999999046	-2.38419E-05	-0.000183105	0.000144958	8.881425858	-2.40342617	3.441500664	-0.001192093	-0.009155274	0.007247925	-0.420898438	0.698242188	-0.542724609	883.28	-35.27463836	-64.19894983	-28.71802946	-65
22993	0	0.356384277	-0.093811035	0.138122559	0.999999046	-0.000205994	-9.82285E-05	0.000160217	8.909606934	-2.345275879	3.453063965	-0.010299683	-0.004911423	0.008010864	-0.421142578	0.700683594	-0.537109375	883.28	-35.32207581	-64.19598463	-28.69775939	-65
22994	0	0.357112885	-0.095081329	0.138683319	0.999999046	-5.91278E-05	-0.000263214	-2.00272E-05	8.927822113	-2.377033234	3.467082977	-0.00295639	-0.013160706	-0.001001358	-0.421142578	0.700683594	-0.537109375	883.22	-35.34026085	-64.22052553	-28.69052163	-65
22995	0	0.358703613	-0.096435547	0.140258789	0.999999046	-6.10352E-05	-0.000178337	-0.000152588	8.967590332	-2.410888672	3.506469727	-0.003051758	-0.008916855	-0.007629395	-0.423339844	0.698486328	-0.542724609	883.18	-35.32118538	-64.24599208	-28.71295035	-65
22996	0	0.356524467	-0.097503662	0.140179634	0.999999046	-0.000109673	-0.000127792	-3.8147E-05	8.913111687	-2.437591553	3.504490852	-0.005483627	-0.006389618	-0.001907349	-0.423339844	0.698486328	-0.539794922	883.28	-35.32284639	-64.25913216	-28.72329766	-65
22997	0	0.35345459	-0.097351074	0.138549805	0.999999046	0.00019455	-0.000105858	9.53674E-05	8.836364746	-2.433776855	3.463745117	0.009727478	-0.005292893	0.004768372	-0.421142578	0.698486328	-0.534179688	883.24	-35.31257047	-64.26135067	-28.71787124	-65
22998	0	0.355662346	-0.097426414	0.138205528	0.999999046	-0.00012207	-8.39233E-05	8.01086E-05	8.891558647	-2.435660362	3.455138206	-0.006103516	-0.004196167	0.004005432	-0.423339844	0.698486328	-0.539794922	883.18	-35.3326922	-64.26257257	-28.70922977	-65
22999	0	0.356628418	-0.098632813	0.137573242	0.999999046	-0.000110626	4.76837E-06	0.000133514	8.915710449	-2.465820313	3.439331055	-0.005531311	0.000238419	0.00667572	-0.421142578	0.700439453	-0.54296875	883.14	-35.34990031	-64.25201637	-28.69776887	-65
23000	0	0.356844902	-0.097172737	0.139751434	0.999999046	-0.0001688	-8.58307E-05	0.000323296	8.921122551	-2.429318428	3.493785858	-0.008440018	-0.004291535	0.01616478	-0.423583984	0.700683594	-0.537109375	883.22	-35.42289869	-64.2373394	-28.64269552	-65
23001	0	0.35534668	-0.095825195	0.140319824	0.999999046	-6.10352E-05	-4.48227E-05	0.000286102	8.883666992	-2.395629883	3.507995605	-0.003051758	-0.002241135	0.014305115	-0.421142578	0.700683594	-0.537109375	883.28	-35.47038809	-64.22128198	-28.60081269	-65
23002	0	0.355547905	-0.096595764	0.139603615	0.999999046	-0.000434875	3.05176E-05	0.000213623	8.888697624	-2.414894104	3.49009037	-0.021743775	0.001525879	0.010681153	-0.423583984	0.700683594	-0.537109375	883.18	-35.53613725	-64.20301878	-28.58557517	-65
23003	0	0.35748291	-0.098449707	0.137390137	0.999999046	-0.000144958	-4.86374E-05	0.000171661	8.937072754	-2.461242676	3.434753418	-0.007247925	-0.00243187	0.008583069	-0.421142578	0.700683594	-0.540039063	883.22	-35.57160585	-64.19502807	-28.56027849	-65
23004	0	0.357584953	-0.097697258	0.137387276	0.999999046	-0.000102043	1.90735E-06	0.000133514	8.939623833	-2.44243145	3.434681892	-0.005102158	9.53674E-05	0.00667572	-0.421142578	0.700683594	-0.540039063	883.18	-35.58790015	-64.18498923	-28.55060063	-65
23005	0	0.35534668	-0.096069336	0.139160156	0.999999046	-0.000110626	-0.000266075	0.000282288	8.883666992	-2.401733398	3.479003906	-0.005531311	-0.013303757	0.01411438	-0.421142578	0.700683594	-0.534179688	883.18	-35.67058222	-64.19002422	-28.47788112	-65
23006	0	0.355061531	-0.096545219	0.140291214	0.999999046	7.43866E-05	-0.000291824	9.44138E-05	8.876538277	-2.413630486	3.50728035	0.00371933	-0.014591217	0.004720688	-0.421386719	0.702880859	-0.534423828	883.14	-35.69923614	-64.20996834	-28.44332337	-65
23007	0	0.356323242	-0.099914551	0.140014648	0.999999046	-2.28882E-05	-0.000151634	-4.95911E-05	8.908081055	-2.49786377	3.500366211	-0.001144409	-0.007581711	-0.002479553	-0.421142578	0.700683594	-0.53125	883.22	-35.69199419	-64.22641682	-28.46382836	-64
23008	0	0.355948448	-0.102327347	0.138924599	0.999999046	0.000390053	-0.000148773	8.29697E-05	8.898711205	-2.55818367	3.473114967	0.01950264	-0.00743866	0.004148483	-0.423583984	0.702880859	-0.537109375	883.24	-35.66296206	-64.23363239	-28.44994088	-65
23009	0	0.355834961	-0.100097656	0.13848877	0.999999046	0.000667572	-0.000159264	0.000431061	8.895874023	-2.502441406	3.462219238	0.033378605	-0.007963181	0.021553042	-0.421386719	0.702880859	-0.531494141	883.28	-35.6708894	-64.21852954	-28.37100601	-65
23010	0	0.355957031	-0.097839355	0.138793945	0.999999046	0.000179291	-0.00019455	0.000656128	8.898925781	-2.445983887	3.469848633	0.008964539	-0.009727479	0.032806399	-0.418701172	0.700439453	-0.537353516	883.2	-35.78282961	-64.1916407	-28.22419289	-66
23011	0	0.355740547	-0.098134041	0.138051033	0.999998093	0.000445366	-0.000259399	0.000533104	8.89351368	-2.453351021	3.451275826	0.022268297	-0.012969972	0.0266552	-0.418945313	0.700683594	-0.531494141	883.22	-35.8494334	-64.17897349	-28.10582145	-66
23012	0	0.357036591	-0.09637928	0.139152527	0.999999046	0.000470161	-0.000165939	0.000464439	8.925914764	-2.409482002	3.478813171	0.023508074	-0.008296967	0.023221971	-0.418945313	0.702880859	-0.534667969	883.3	-35.88669704	-64.16227652	-28.01463885	-66
23013	0	0.356323242	-0.098449707	0.137451172	0.999999046	7.24792E-05	-0.000132561	0.000263214	8.908081055	-2.461242676	3.436279297	0.003623962	-0.006628037	0.013160706	-0.418701172	0.700439453	-0.540283203	883.24	-35.92631036	-64.15606451	-27.95832573	-66
23014	0	0.356001854	-0.100387573	0.138651848	0.999999046	0.000507355	-0.000234604	0.000510216	8.900046349	-2.509689331	3.466296196	0.025367739	-0.011730195	0.02551079	-0.421142578	0.700683594	-0.537109375	883.24	-35.97764513	-64.14265735	-27.84199934	-66
23015	0	0.355224609	-0.098754883	0.13684082	0.999999046	0.000621796	-0.000197411	0.000709534	8.880615234	-2.46887207	3.421020508	0.031089788	-0.009870531	0.03547669	-0.418701172	0.700439453	-0.537353516	883.24	-36.04874098	-64.11239737	-27.68911583	-65
23016	0	0.356663704	-0.099456787	0.137738228	0.999999046	0.00036335	-0.000114441	0.000544548	8.916592598	-2.486419678	3.443455696	0.018167497	-0.005722046	0.027227404	-0.418701172	0.700439453	-0.537353516	883.18	-36.10626625	-64.08557717	-27.58512577	-66
23017	0	0.356628418	-0.09765625	0.136657715	0.999999046	0.000110626	-0.00014019	0.000576019	8.915710449	-2.44140625	3.416442871	0.005531311	-0.007009507	0.028800966	-0.413818359	0.700439453	-0.540527344	883.2	-36.20207426	-64.05911546	-27.46297922	-65
23018	0	0.355698586	-0.098525047	0.136517525	0.999999046	-0.000205994	-0.000102997	0.000518799	8.892464638	-2.463126183	3.412938118	-0.010299683	-0.005149842	0.025939943	-0.418701172	0.702636719	-0.540283203	883.14	-36.31789196	-64.03312575	-27.36265849	-65
23019	0	0.354919434	-0.099609375	0.135986328	0.999999046	2.67029E-05	-6.77109E-05	0.000450134	8.87298584	-2.490234375	3.399658203	0.001335144	-0.003385544	0.022506715	-0.416503906	0.702636719	-0.537597656	883.24	-36.38902367	-64.00857607	-27.28624308	-65
23020	0	0.355214119	-0.09967804	0.137956619	0.999999046	-6.58035E-05	-7.24792E-05	0.000171661	8.880352974	-2.491950989	3.448915482	-0.003290176	-0.003623962	0.008583069	-0.416503906	0.702636719	-0.534667969	883.14	-36.41858796	-64.00341372	-27.27267531	-65
23021	0	0.355834961	-0.1015625	0.138671875	0.999999046	3.43323E-05	-0.000292778	0.000213623	8.895874023	-2.5390625	3.466796875	0.001716614	-0.014638901	0.010681153	-0.4140625	0.704833984	-0.537841797	883.24	-36.47542202	-64.01567649	-27.21113637	-65
23022	0	0.355628014	-0.102193832	0.138286591	0.999999046	8.01086E-05	-0.000116348	0.000212669	8.89070034	-2.55484581	3.457164764	0.004005432	-0.005817413	0.010633469	-0.416503906	0.702636719	-0.537597656	883.14	-36.50231068	-64.01169773	-27.17595225	-65
23023	0	0.35559082	-0.101623535	0.13873291	0.999999046	0.000221252	-7.9155E-05	0.000247955	8.889770508	-2.540588379	3.468322754	0.011062622	-0.003957748	0.012397766	-0.416503906	0.702636719	-0.540527344	883.18	-36.51450098	-64.00185332	-27.13437047	-64
23024	0	0.355318069	-0.101007462	0.136950493	0.999999046	-4.86374E-05	-7.24792E-05	0.000320435	8.882951736	-2.525186539	3.423762321	-0.00243187	-0.003623962	0.016021729	-0.416259766	0.700439453	-0.537353516	883.2	-36.57041148	-63.98648689	-27.08139252	-65
23025	0	0.355834961	-0.101989746	0.136169434	0.999999046	0.000118256	-0.000174522	0.000133514	8.895874023	-2.549743652	3.40423584	0.005912781	-0.00872612	0.00667572	-0.416259766	0.702636719	-0.543457031	883.2	-36.58640887	-63.99333241	-27.04304163	-65
23026	0	0.35512352	-0.100343704	0.137289047	0.999999046	0.000125885	-0.000123978	0.000121117	8.878087997	-2.508592606	3.432226181	0.006294251	-0.006198883	0.006055832	-0.416259766	0.700439453	-0.540283203	883.18	-36.59208673	-63.99642033	-27.01887742	-65
23027	0	0.352905273	-0.100036621	0.136291504	0.999999046	-0.000209808	-6.38962E-05	0.00012207	8.822631836	-2.500915527	3.407287598	-0.010490418	-0.003194809	0.006103516	-0.4140625	0.702636719	-0.540527344	883.24	-36.62799944	-63.99395693	-27.00424439	-65
23028	0	0.354545593	-0.100424767	0.135287285	0.999999046	-9.63211E-05	-0.000160217	-4.673E-05	8.863639832	-2.510619164	3.382182121	-0.004816055	-0.008010864	-0.002336502	-0.416503906	0.702636719	-0.540527344	883.2	-36.63267369	-64.01199632	-27.01031757	-65
23029	0	0.356628418	-0.101989746	0.135620117	0.999999046	8.01086E-05	-0.000163078	-0.000370026	8.915710449	-2.549743652	3.39050293	0.004005432	-0.008153916	-0.018501282	-0.416503906	0.702636719	-0.540527344	883.24	-36.5566369	-64.0524698	-27.08396381	-66
23030	0	0.356870651	-0.10255909	0.13625145	0.999999046	-0.000377655	-0.000131607	-0.000255585	8.921766281	-2.563977242	3.40628624	-0.018882752	-0.006580353	-0.012779236	-0.416503906	0.702636719	-0.537597656	883.24	-36.55037097	-64.08224701	-27.14225839	-66
23031	0	0.35369873	-0.102539063	0.139038086	0.999999046	4.19617E-05	-0.000124931	0.000133514	8.842468262	-2.563476563	3.475952148	0.002098084	-0.006246567	0.00667572	-0.416503906	0.702636719	-0.537597656	883.22	-36.5687944	-64.08470662	-27.11952374	-66
23032	0	0.355293274	-0.10018158	0.140054703	0.999999046	7.72476E-05	-6.29425E-05	0.000235558	8.882331848	-2.50453949	3.501367569	0.003862381	-0.003147125	0.011777878	-0.418945313	0.702880859	-0.537353516	883.24	-36.59352717	-64.07440828	-27.08699313	-66
23033	0	0.355163574	-0.101623535	0.137268066	0.999999046	-0.000232697	-3.33786E-05	-1.90735E-05	8.879089355	-2.540588379	3.43170166	-0.011634827	-0.00166893	-0.000953674	-0.416503906	0.702636719	-0.537597656	883.28	-36.60149027	-64.07876883	-27.10998605	-66
23034	0	0.35456562	-0.102711678	0.137195587	0.999999046	0.000419617	-0.00019455	-3.52859E-05	8.864140511	-2.567791939	3.429889679	0.020980836	-0.009727478	-0.001764298	-0.416503906	0.702636719	-0.540527344	883.24	-36.55444992	-64.09901065	-27.10695423	-67
23035	0	0.355712891	-0.101501465	0.13659668	0.999999046	0.000522614	-0.000189781	0.000167847	8.892822266	-2.537536621	3.414916992	0.026130678	-0.00948906	0.008392334	-0.416259766	0.700439453	-0.540283203	883.22	-36.53354932	-64.10497331	-27.06129905	-67
23036	0	0.355546951	-0.101295471	0.136566162	0.999999046	0.000411034	-1.33514E-05	-4.76837E-06	8.888673782	-2.53238678	3.414154053	0.020551682	-0.000667572	-0.000238419	-0.418701172	0.700439453	-0.537353516	883.22	-36.46800961	-64.10647986	-27.08750247	-68
23037	0	0.35546875	-0.100219727	0.135009766	0.999999046	0.000228882	-2.95639E-05	9.91821E-05	8.88671875	-2.505493164	3.375244141	0.011444092	-0.001478195	0.004959106	-0.413818359	0.700195313	-0.543457031	883.24	-36.44549084	-64.10250617	-27.07646172	-69
23038	0	0.356555939	-0.09833622	0.136009216	1	5.62668E-05	-3.14713E-05	1.52588E-05	8.913898468	-2.458405495	3.400230408	0.002813339	-0.001573563	0.000762939	-0.416259766	0.700439453	-0.540283203	883.22	-36.42697111	-64.10455782	-27.090373	-69
23039	0	0.356689453	-0.099975586	0.137084961	0.999999046	-0.000236511	-4.1008E-05	1.90735E-05	8.917236328	-2.499389648	3.427124023	-0.011825562	-0.0020504	0.000953674	-0.416259766	0.700439453	-0.537353516	883.18	-36.44403154	-64.10728154	-27.10649243	-69
23040	0	0.357307434	-0.099444389	0.137618065	0.999999046	-0.000227928	2.47955E-05	6.48499E-05	8.932685852	-2.486109734	3.440451622	-0.011396408	0.001239777	0.003242493	-0.418701172	0.702636719	-0.540283203	883.22	-36.45945397	-64.1008878	-27.1205081	-69
23041	0	0.354553223	-0.100708008	0.137084961	0.999999046	-0.000221252	7.34329E-05	-3.05176E-05	8.863830566	-2.517700195	3.427124023	-0.011062622	0.003671646	-0.001525879	-0.416259766	0.700439453	-0.540283203	883.24	-36.44922672	-64.09649209	-27.15808628	-69
23042	0	0.355102539	-0.100036621	0.136474609	0.999999046	-0.000141144	0.000148773	7.62939E-05	8.877563477	-2.500915527	3.411865234	-0.00705719	0.00743866	0.003814697	-0.416503906	0.702636719	-0.540527344	883.3	-36.43956545	-64.07791682	-27.18682982	-69
23043	0	0.355322838	-0.101488113	0.136259079	0.999998093	-0.000451088	0.000200272	-0.000114441	8.883070946	-2.537202835	3.406476974	-0.022554399	0.010013581	-0.005722046	-0.416503906	0.702636719	-0.537597656	883.28	-36.4222328	-64.06758622	-27.26782864	-69
23044	0	0.356404305	-0.101369858	0.136366844	0.999999046	-0.00042057	6.67572E-05	0.00014782	8.910107613	-2.534246445	3.409171104	-0.021028519	0.00333786	0.007390976	-0.416503906	0.702636719	-0.534667969	883.18	-36.46996615	-64.0517618	-27.27648706	-69
23045	0	0.356933594	-0.101074219	0.138427734	0.999999046	-0.000514984	0.00017643	6.86646E-05	8.923339844	-2.526855469	3.460693359	-0.025749208	0.008821488	0.003433228	-0.416503906	0.702636719	-0.537597656	883.14	-36.49812979	-64.03122452	-27.31178182	-69
23046	0	0.356687546	-0.101753235	0.137593269	0.999999046	-0.000606537	0.000228882	-0.000198364	8.917188644	-2.543830872	3.439831734	-0.030326846	0.011444093	-0.009918214	-0.416503906	0.704833984	-0.540771484	883.14	-36.4790333	-64.02406268	-27.40622017	-69
23047	0	0.355651855	-0.101318359	0.135375977	0.999999046	-7.24792E-05	0.000157356	-8.39233E-05	8.891296387	-2.532958984	3.384399414	-0.003623962	0.007867813	-0.004196167	-0.416503906	0.702636719	-0.537597656	883.28	-36.4306024	-64.015753	-27.46887185	-68
23048	0	0.355565071	-0.100241661	0.135655403	0.999999046	-0.000506401	0.000154495	-0.000115395	8.889126778	-2.506041527	3.391385078	-0.025320054	0.007724762	-0.00576973	-0.416503906	0.704833984	-0.537841797	883.2	-36.42644902	-64.00993394	-27.53812677	-68
23049	0	0.35534668	-0.1015625	0.135253906	0.999999046	-0.000217438	-0.000132561	-3.43323E-05	8.883666992	-2.5390625	3.381347656	-0.010871887	-0.006628037	-0.001716614	-0.416503906	0.704833984	-0.534912109	883.18	-36.44481655	-64.02513592	-27.54995329	-68
23050	0	0.355389595	-0.101659775	0.138166428	0.999999046	-0.000175476	-9.34601E-05	6.48499E-05	8.884739876	-2.54149437	3.45416069	-0.008773804	-0.004673004	0.003242493	-0.416503906	0.702636719	-0.537597656	883.3	-36.47171498	-64.0299427	-27.53859199	-67
23051	0	0.356445313	-0.101623535	0.137451172	0.999999046	-0.000137329	-1.43051E-05	8.39233E-05	8.911132813	-2.540588379	3.436279297	-0.006866455	-0.000715256	0.004196167	-0.416503906	0.704833984	-0.537841797	883.2	-36.48684953	-64.02616235	-27.53705744	-67
23052	0	0.355455399	-0.101354599	0.136496544	0.999999046	-0.000185966	3.05176E-05	-1.52588E-05	8.886384964	-2.533864975	3.412413597	-0.009298325	0.001525879	-0.000762939	-0.416503906	0.704833984	-0.534912109	883.18	-36.48262764	-64.02503605	-27.56818183	-67
23053	0	0.355957031	-0.1015625	0.137084961	0.999999046	7.62939E-05	-6.77109E-05	7.24792E-05	8.898925781	-2.5390625	3.427124023	0.003814697	-0.003385544	0.003623962	-0.418945313	0.705078125	-0.537597656	883.22	-36.47876403	-64.02699558	-27.56190582	-66
23054	0	0.355289459	-0.101166725	0.136318207	0.999999046	1.90735E-06	-0.000104904	-3.8147E-05	8.882236481	-2.529168129	3.40795517	9.53674E-05	-0.005245209	-0.001907349	-0.416503906	0.704833984	-0.537841797	883.22	-36.46779255	-64.03995469	-27.57122923	-66
23055	0	0.356445313	-0.102233887	0.137084961	0.999999046	0.00019455	-5.62668E-05	-0.000114441	8.911132813	-2.555847168	3.427124023	0.009727478	-0.002813339	-0.005722046	-0.416748047	0.705078125	-0.531982422	883.2	-36.41360764	-64.05361069	-27.61613549	-66
23056	0	0.356666565	-0.100451469	0.138364792	0.999999046	-6.38962E-05	-0.000146866	-6.10352E-05	8.916664124	-2.511286736	3.459119797	-0.003194809	-0.007343292	-0.003051758	-0.416748047	0.707275391	-0.532226563	883.14	-36.41169802	-64.07197955	-27.63717679	-66
23057	0	0.356445313	-0.100769043	0.135986328	0.999999046	0.00019455	-0.00026226	-0.000221252	8.911132813	-2.519226074	3.399658203	0.009727478	-0.013113022	-0.011062622	-0.416503906	0.704833984	-0.537841797	883.24	-36.36597105	-64.1119575	-27.66090235	-66
23058	0	0.357476234	-0.100681305	0.134982109	0.999999046	-0.00028038	-5.53131E-05	-0.000255585	8.936905861	-2.517032623	3.374552727	-0.014019013	-0.002765656	-0.012779236	-0.418945313	0.705078125	-0.537597656	883.12	-36.33923777	-64.13527378	-27.72476825	-66
23059	0	0.35760498	-0.10168457	0.13659668	0.999999046	-0.000331879	4.29153E-05	-0.000377655	8.940124512	-2.542114258	3.414916992	-0.016593934	0.002145767	-0.018882752	-0.418945313	0.702880859	-0.537353516	883.22	-36.28144427	-64.1578001	-27.82677397	-66
23060	0	0.358219147	-0.101750374	0.138084412	0.999999046	2.38419E-05	-0.000183105	-0.000611305	8.955478668	-2.543759346	3.452110291	0.001192093	-0.009155274	-0.030565264	-0.418945313	0.702880859	-0.534667969	883.18	-36.1697014	-64.21693515	-27.94849979	-66
23061	0	0.359313965	-0.102722168	0.137573242	0.999999046	0.000144958	-0.000250816	-0.000789642	8.982849121	-2.568054199	3.439331055	0.007247926	-0.012540819	-0.039482121	-0.421142578	0.702880859	-0.537353516	883.24	-36.01893795	-64.29422008	-28.09440847	-65
23062	0	0.356617928	-0.104195595	0.136446953	0.999999046	0.000629425	-0.000415802	-0.000943184	8.915448189	-2.60488987	3.41117382	0.03147126	-0.020790105	-0.047159206	-0.421142578	0.700683594	-0.53125	883.18	-35.8055213	-64.39679958	-28.25913253	-65
23063	0	0.356079102	-0.103759766	0.135437012	0.999997139	0.001594543	-0.000529289	-0.001197815	8.901977539	-2.593994141	3.385925293	0.079727229	-0.026464481	-0.05989079	-0.423583984	0.700683594	-0.537109375	883.2	-35.44652346	-64.52648577	-28.45804064	-65
23064	0	0.357204437	-0.104186058	0.134232521	0.999997139	0.001589775	-0.000589371	-0.001476288	8.930110931	-2.604651451	3.355813026	0.079488821	-0.029468561	-0.073814454	-0.42578125	0.698486328	-0.539550781	883.2	-35.03944468	-64.67953438	-28.71000883	-64
23065	0	0.358276367	-0.105041504	0.131164551	0.999996185	0.001862526	-0.000415802	-0.001899719	8.95690918	-2.626037598	3.27911377	0.09312641	-0.020790125	-0.094986077	-0.427978516	0.691894531	-0.536132813	883.24	-34.48943023	-64.84296533	-29.09205765	-64
23066	0	0.358611107	-0.107103348	0.129864693	0.999996185	0.001669884	-0.000340462	-0.002072334	8.965277672	-2.677583694	3.246617317	0.083494287	-0.017023107	-0.103616839	-0.432861328	0.692138672	-0.535888672	883.18	-33.91192696	-65.00870346	-29.53762852	-65
23067	0	0.358947754	-0.105529785	0.129760742	0.999996185	0.001820564	-0.000343323	-0.001922607	8.973693848	-2.638244629	3.244018555	0.091028322	-0.017166158	-0.096130485	-0.437255859	0.685546875	-0.540771484	883.2	-33.34366742	-65.16330384	-29.94563786	-65
23068	0	0.359446526	-0.105876923	0.129169464	0.999995232	0.002146721	-0.000141144	-0.002076149	8.986163139	-2.646923065	3.229236603	0.107336204	-0.0070572	-0.103807604	-0.439453125	0.683349609	-0.546386719	883.24	-32.67462388	-65.30612768	-30.41988077	-65
23069	0	0.35925293	-0.103393555	0.128356934	0.999994278	0.00200367	0.000301361	-0.002464294	8.981323242	-2.584838867	3.20892334	0.100183657	0.01506808	-0.123214931	-0.441650391	0.681152344	-0.546142578	883.24	-31.87635309	-65.42723707	-31.06203602	-65
23070	0	0.363048553	-0.103479385	0.126918793	0.999993324	0.001535416	0.000938416	-0.003072739	9.076213837	-2.586984634	3.172969818	0.076770945	0.046920876	-0.153637257	-0.446044922	0.672363281	-0.55078125	883.3	-30.91347325	-65.51835996	-31.93597151	-65
23071	0	0.359619141	-0.101257324	0.124389648	0.999992371	0.000332832	0.001678467	-0.003231049	8.990478516	-2.531433105	3.109741211	0.016641654	0.083923527	-0.161552789	-0.447998047	0.66796875	-0.556152344	883.28	-29.95686091	-65.53962041	-32.94647293	-64
23072	0	0.356528282	-0.102049828	0.119855881	0.999992371	-0.000143051	0.002165794	-0.003183365	8.913207054	-2.551245689	2.996397018	-0.007152575	0.108289987	-0.159168637	-0.452880859	0.665771484	-0.550048828	883.3	-29.00766713	-65.50281936	-34.02557252	-63
23073	0	0.358093262	-0.099914551	0.119018555	0.99998951	0.000221252	0.002438545	-0.003772736	8.952331543	-2.49786377	2.975463867	0.011062659	0.121927672	-0.188637416	-0.454833984	0.661376953	-0.558105469	883.14	-27.86040878	-65.46301033	-35.26577519	-64
23074	0	0.360565186	-0.101599693	0.116365433	0.999986649	-9.63211E-05	0.002875328	-0.004228592	9.014129639	-2.539992332	2.909135818	-0.004816076	0.14376703	-0.211430518	-0.454833984	0.659179688	-0.558105469	883.14	-26.60658805	-65.39238663	-36.66919856	-66
23075	0	0.364807129	-0.102416992	0.11541748	0.999983788	-0.000427246	0.003407478	-0.004329681	9.120178223	-2.560424805	2.885437012	-0.021362413	0.170374784	-0.216485172	-0.459472656	0.654785156	-0.560302734	883.28	-25.32373999	-65.25988397	-38.14878526	-67
23076	0	0.372797966	-0.095564842	0.116347313	0.999979019	-0.001859665	0.004353523	-0.004349709	9.31994915	-2.389121056	2.908682823	-0.092983886	0.217677662	-0.217486926	-0.461425781	0.650390625	-0.571533203	883.28	-24.1242745	-65.01766968	-39.69982384	-66
23077	0	0.379699707	-0.097717285	0.116699219	0.999964714	-0.005004883	0.005612373	-0.003631592	9.492492676	-2.442932129	2.917480469	-0.250247049	0.280621929	-0.1815817	-0.463867188	0.650390625	-0.571289063	883.2	-23.35611507	-64.60034121	-41.1749688	-63
23078	0	0.382689476	-0.097521782	0.119708061	0.999948502	-0.007403374	0.006367683	-0.002467155	9.5672369	-2.438044548	2.99270153	-0.370174945	0.318389554	-0.123359859	-0.461669922	0.652587891	-0.565917969	883.24	-23.08775723	-64.04663507	-42.40675794	-63
23079	0	0.382995605	-0.101501465	0.122924805	0.999920845	-0.010055542	0.007401466	-0.000965118	9.574890137	-2.537536621	3.073120117	-0.502790242	0.370082992	-0.048257182	-0.45703125	0.656982422	-0.560546875	883.2	-23.38371199	-63.31786867	-43.34838457	-67
23080	0	0.38657093	-0.102907181	0.124042511	0.999913216	-0.009799004	0.008720398	-0.000473976	9.664273262	-2.57267952	3.101062775	-0.48996425	0.436032419	-0.023699487	-0.450439453	0.66796875	-0.556152344	883.24	-23.65956458	-62.43205083	-44.28777401	-66
23081	0	0.388427734	-0.099975586	0.123352051	0.999865532	-0.012531281	0.010468483	-0.000717163	9.710693359	-2.499389648	3.08380127	-0.626591926	0.523447456	-0.035859751	-0.44140625	0.678955078	-0.551757813	883.14	-24.07640537	-61.37931173	-45.42346651	-62
23082	0	0.404245377	-0.107675552	0.126304626	0.999783516	-0.016571045	0.012411118	-0.001773834	10.10613441	-2.691888809	3.157615662	-0.828611883	0.620600544	-0.088698095	-0.435058594	0.694335938	-0.544677734	883.28	-24.62881149	-60.18130556	-46.93966595	-60
23083	0	0.395629883	-0.109008789	0.12512207	0.999689102	-0.020102501	0.014564514	-0.002311707	9.89074707	-2.725219727	3.128051758	-1.005229202	0.728301171	-0.115597305	-0.424072266	0.711914063	-0.529296875	883.2	-25.36275791	-58.79759123	-48.73342155	-59
23084	0	0.391992569	-0.112533569	0.133354187	0.999678612	-0.019474983	0.015979767	-0.002554893	9.799814224	-2.813339233	3.333854675	-0.973853245	0.799073746	-0.127758329	-0.413330078	0.729492188	-0.513916016	883.18	-25.93564735	-57.29383036	-50.66299224	-58
23085	0	0.372314453	-0.115722656	0.133178711	0.999545097	-0.024753571	0.017041206	-0.002487183	9.307861328	-2.893066406	3.329467773	-1.237866181	0.852189505	-0.124377986	-0.40234375	0.747070313	-0.498535156	883.12	-27.10542394	-55.69724592	-52.61748415	-59
23086	0	0.328928947	-0.13972187	0.145430565	0.999516487	-0.025648117	0.017541885	-0.000950813	8.223223686	-3.493046761	3.635764122	-1.282612506	0.877235608	-0.047548326	-0.394287109	0.771728516	-0.477783203	883.18	-28.61075419	-53.99603698	-54.32584463	-57
23087	0	0.277099609	-0.16192627	0.172119141	0.999685287	-0.007758141	0.02362442	0.003173828	6.927490234	-4.048156738	4.302978516	-0.387947665	1.181344752	0.158708031	-0.376220703	0.791259766	-0.459960938	883.2	-28.26330763	-51.46603016	-55.91215683	-58
23088	0	0.24080658	-0.127955437	0.130675316	0.999616623	0.007047653	0.026469231	0.003921509	6.02016449	-3.198885918	3.266882896	0.352427643	1.323630479	0.19610047	-0.349853516	0.796875	-0.473632813	883.18	-26.31034431	-48.58833268	-57.49414001	-58
23089	0	0.2109375	-0.108703613	0.172424316	0.999426842	0.013973236	0.030621529	0.003555298	5.2734375	-2.717590332	4.31060791	0.698795267	1.531368908	0.17779885	-0.3203125	0.791259766	-0.512451172	883.2	-23.55652931	-45.25729537	-59.18333147	-59
23090	0	0.15542984	-0.050537109	0.164368629	0.999055862	0.019604683	0.038748741	0.000424385	3.885746002	-1.263427734	4.109215736	0.980542526	1.938046572	0.021225929	-0.280761719	0.778320313	-0.560058594	883.24	-19.8389557	-41.13439664	-61.46605649	-60
23091	0	0.150146484	-0.042419434	0.175109863	0.999041557	0.006530762	0.042996407	-0.004779816	3.753662109	-1.06048584	4.377746582	0.326642352	2.150506779	-0.239067095	-0.235839844	0.758544922	-0.610351563	883.2	-17.42591744	-36.66027009	-64.19744742	-59
23092	0	0.128536224	-0.041318893	0.150568962	0.998677254	-0.000718117	0.051212311	-0.004496574	3.213405609	-1.032972336	3.764224052	-0.035921676	2.561745021	-0.224927891	-0.189453125	0.752197266	-0.64453125	883.12	-16.06016045	-31.20799699	-66.86794202	-58
23093	0	0.184997559	-0.056030273	0.134338379	0.998060226	-0.019095421	0.059230804	0.00163269	4.624938965	-1.400756836	3.358459473	-0.955388837	2.963456518	0.081687344	-0.125	0.756591797	-0.654296875	883.18	-17.33335613	-24.67528546	-68.89690567	-59
23094	0	0.271724701	-0.096155167	0.079342842	0.995589256	-0.053621292	0.070468903	0.030993462	6.793117523	-2.403879166	1.983571053	-2.685013255	3.528634429	1.551955426	-0.031494141	0.793701172	-0.624755859	883.14	-23.7073986	-15.89579372	-68.43103896	-62
23095	0	0.344238281	-0.217041016	0.081726074	0.992523193	-0.06730938	0.073936462	0.069999695	8.605957031	-5.426025391	2.043151855	-3.373881457	3.706063866	3.508733461	0.123535156	0.865234375	-0.511230469	883.24	-32.07154628	-4.683290157	-65.47513105	-67
23096	0	0.430261612	-0.296047211	0.166859627	0.99327755	-0.024348259	0.067300797	0.090970039	10.7565403	-7.401180267	4.171490669	-1.220147909	3.372599504	4.558720336	0.330322266	0.888183594	-0.376220703	883.12	-34.81808203	7.461292429	-61.45180916	-69
23097	0	0.339477539	-0.422851563	0.213989258	0.995866776	0.018017769	0.056610107	0.068695068	8.486938477	-10.57128906	5.349731445	0.902131537	2.834411055	3.439492876	0.532714844	0.825927734	-0.309570313	883.18	-32.15666388	17.14679144	-58.6886259	-69
23098	0	-0.249927521	-0.603315353	0.393895149	0.99839592	0.022971153	0.03567028	0.037470818	-6.248188019	-15.08288383	9.847378731	1.149171899	1.784467826	1.874542827	0.661865234	0.754638672	-0.278808594	883.18	-29.02113861	22.77776058	-57.02242987	-82
23099	0	-0.840270996	-0.636169434	0.476928711	0.997992516	0.026031494	0.000668526	0.057723999	-21.0067749	-15.90423584	11.92321777	1.302446198	0.033448666	2.888132454	0.734375	0.687255859	-0.288818359	883.18	-23.48132551	25.7358663	-50.69515599	-76
23100	0	-0.69936657	-0.448197365	0.608263016	0.994218826	0.017313004	-0.038426399	0.098752975	-17.48416424	-11.20493412	15.20657539	0.867322137	-1.925030895	4.947185595	0.821044922	0.574462891	-0.327880859	883.3	-15.77008296	25.3804794	-37.42816552	-81
23101	0	-0.191711426	-0.209716797	0.567932129	0.984864235	0.103805542	-0.062788963	0.123790741	-4.792785645	-5.242919922	14.19830322	5.216622727	-3.155383872	6.220954877	0.889648438	0.365722656	-0.447998047	883.34	2.423044725	19.84303204	-21.41598538	-72
23102	0	0.2003479	0.381561279	0.234352112	0.986562729	0.083861351	-0.064915657	0.124283791	5.00869751	9.539031982	5.858802795	4.211949672	-3.260399184	6.242173119	0.871582031	0.025390625	-0.61328125	883.3	15.5531796	10.22236192	-8.071171603	-79
23103	0	0.241943359	0.466064453	0.049560547	0.992182732	0.030277252	-0.040148735	0.114208221	6.048583984	11.65161133	1.239013672	1.517819416	-2.012683621	5.725336463	0.767578125	-0.244384766	-0.701416016	883.2	20.16590275	1.810995499	3.055949185	-76
23104	0	0.163023949	0.416185379	-0.042967796	0.995752335	0.00567627	-0.025431633	0.088302612	4.075598717	10.40463448	-1.074194908	0.284215964	-1.27338493	4.421391885	0.647216797	-0.428222656	-0.737548828	883.24	20.59402286	-4.438900396	11.55114411	-73
23105	0	0.203857422	0.336608887	0.019714355	0.998135567	0.006961823	-0.018401146	0.057769775	5.096435547	8.415222168	0.492858887	0.348307561	-0.920629369	2.89028477	0.539306641	-0.520751953	-0.758789063	883.2	20.75090622	-8.73704771	17.04382883	-72
23106	0	0.225205421	0.298546791	0.056555748	0.998923302	0.020055771	-0.014406204	0.03925705	5.630135536	7.463669777	1.4138937	1.003148373	-0.720568679	1.963556806	0.458251953	-0.582763672	-0.763671875	883.22	22.40097799	-11.92112465	20.67720531	-73
23107	0	0.261413574	0.34777832	0.14453125	0.999505997	0.011685371	-0.012180328	0.026508331	6.535339355	8.694458008	3.61328125	0.584364783	-0.609116707	1.325634826	0.396484375	-0.649902344	-0.748779297	883.24	23.22797415	-14.38966093	22.99323899	-73
23108	0	0.271858215	0.310032845	0.197892189	0.99911499	-0.027004242	-0.022542	0.023056984	6.796455383	7.750821114	4.947304726	-1.350610501	-1.127432561	1.153189366	0.344726563	-0.666015625	-0.753173828	883.18	19.72083021	-17.7750016	24.56430489	-86
23109	0	0.340270996	0.222900391	0.35333252	0.999107361	-0.008845329	-0.032196045	0.025840759	8.506774902	5.572509766	8.833312988	-0.442397965	-1.610280894	1.29242213	0.274902344	-0.639160156	-0.798095703	883.2	18.15162712	-22.25134543	26.25466211	-84
23110	0	0.432139397	0.260853767	0.422780037	0.998836517	-0.012011528	-0.035731316	0.030064583	10.80348492	6.521344185	10.56950092	-0.600809356	-1.787258765	1.503812223	0.187011719	-0.643066406	-0.819091797	883.18	15.84175785	-27.21206827	28.54470412	-85
23111	0	0.39251709	0.213562012	0.471191406	0.999181747	-0.01217556	-0.025608063	0.028827667	9.812927246	5.339050293	11.77978516	-0.608944019	-1.280752315	1.44177644	0.09375	-0.631103516	-0.838134766	883.18	13.1127025	-30.92273986	31.34287065	-89
23112	0	0.298458099	0.154403687	0.439149857	0.999436378	-0.02276516	-0.006853104	0.023636818	7.461452484	3.860092163	10.97874641	-1.138471306	-0.3427194	1.18206239	0.026123047	-0.608886719	-0.856689453	883.24	8.999363411	-32.25658303	34.27260763	-91
23113	0	0.226318359	0.111633301	0.405456543	0.999458313	-0.021689415	0.009017944	0.023021698	5.657958984	2.79083252	10.13641357	-1.084666366	0.45097855	1.151292533	-0.003662109	-0.570068359	-0.884521484	883.24	4.841357858	-31.59064466	37.49153449	-89
23114	0	0.175431252	0.084647179	0.367790222	0.999310493	-0.025918961	0.0164814	0.020849228	4.385781288	2.116179466	9.194755554	-1.296245875	0.824259372	1.042700983	-0.005371094	-0.525390625	-0.908447266	883.22	0.436314235	-29.85407468	40.3585628	-81
23115	0	0.136535645	0.070495605	0.343322754	0.999403	-0.024115562	0.015113831	0.019584656	3.413391113	1.762390137	8.583068848	-1.20601811	0.755841935	0.979427686	0.007080078	-0.474609375	-0.925048828	883.2	-3.508479922	-28.10076413	42.85480023	-75
23116	0	0.10195446	0.037976265	0.33248806	0.999653816	-0.014685631	0.009174347	0.019777298	2.548861504	0.949406624	8.3122015	-0.734366128	0.45877019	0.988978815	0.015136719	-0.430419922	-0.946777344	883.2	-6.284316609	-26.89548912	45.26897808	-74
23117	0	0.098449707	-0.020629883	0.338195801	0.999838829	-0.00125885	0.006756783	0.016582489	2.461242676	-0.51574707	8.45489502	-0.062945886	0.337857272	0.829168984	0.019287109	-0.408203125	-0.954589844	883.18	-7.28652803	-25.93491817	47.22987557	-75
23118	0	0.114953995	-0.075484276	0.347913742	0.999835014	0.00885582	0.009088516	0.012946129	2.873849869	-1.887106895	8.697843552	0.442815241	0.454450705	0.647341901	0.019287109	-0.414794922	-0.948242188	883.08	-6.878408276	-24.7484684	48.67474477	-76
23119	0	0.131530762	-0.08001709	0.325744629	0.999819756	-0.012424469	0.011284828	0.008831024	3.288269043	-2.000427246	8.143615723	-0.621260698	0.564275241	0.441577684	0.031738281	-0.426513672	-0.945068359	883.28	-8.646424037	-23.35891873	49.56781642	-78
23120	0	0.125935555	-0.141051292	0.338877678	0.999640465	-0.021861076	0.012620926	0.008996964	3.148388863	-3.52628231	8.471941948	-1.093184688	0.631121849	0.449902035	0.047119141	-0.391357422	-0.951660156	883.24	-11.45007573	-21.78163701	50.38850405	-78
23121	0	0.112915039	-0.107421875	0.334106445	0.999533653	-0.026500702	0.012196541	0.008995056	2.822875977	-2.685546875	8.352661133	-1.325240994	0.609921803	0.449822695	0.064453125	-0.347167969	-0.965087891	883.18	-14.73573991	-20.21195184	51.1234989	-79
23122	0	0.119434357	-0.164940834	0.359379768	0.999689102	-0.019675255	0.011967659	0.009475708	2.985858917	-4.123520851	8.984494209	-0.983864446	0.598444813	0.473834382	0.081787109	-0.298828125	-0.978759766	883.2	-17.21495266	-18.61834604	51.82200035	-81
23123	0	0.190979004	-0.21661377	0.372192383	0.999845505	-0.015265465	0.008255005	0.002521515	4.774475098	-5.415344238	9.30480957	-0.763312367	0.412771403	0.126082208	0.099609375	-0.263671875	-0.985595703	883.22	-18.95339711	-17.65511013	51.78954755	-85
23124	0	0.151751518	-0.243607521	0.330371857	0.999886513	-0.013079643	0.001775742	0.007099152	3.793787956	-6.090188026	8.259296417	-0.654006649	0.088790403	0.354970871	0.11328125	-0.246337891	-0.990722656	883.18	-20.67331534	-17.21431175	52.50280383	-84
23125	0	0.155090332	-0.320068359	0.39251709	0.999962807	0.006111145	-0.002245903	0.005638123	3.877258301	-8.001708984	9.812927246	0.305561029	-0.112296539	0.281909613	0.109619141	-0.219482422	-0.992919922	883.24	-20.20023697	-17.25582135	53.18734244	-85
23126	0	0.122266769	-0.248233795	0.304191589	0.999188423	0.039106369	-0.008825302	0.00382328	3.056669235	-6.205844879	7.604789734	1.955847363	-0.441384468	0.191215726	0.1015625	-0.252685547	-0.986816406	883.2	-15.96932129	-18.10621157	53.87290212	-86
23127	0	0.117004395	-0.146789551	0.284301758	0.997425079	0.068821907	-0.020130157	0.000694275	2.925109863	-3.66973877	7.107543945	3.444051308	-1.00737248	0.034743565	0.076416016	-0.34765625	-0.95703125	883.2	-8.294019882	-20.36882783	54.35090167	-85
23128	0	0.139018059	0.010165215	0.350617409	0.997936249	0.059047699	-0.025202751	-0.00026989	3.475451469	0.254130363	8.765435219	2.954416951	-1.261004857	-0.013503779	0.033203125	-0.479736328	-0.899902344	883.18	-1.628376191	-23.27153025	54.48922982	-83
23129	0	0.159240723	0.047058105	0.398010254	0.998910904	0.04131794	-0.021362305	-0.00352478	3.981018066	1.176452637	9.950256348	2.066646935	-1.068502974	-0.176302991	-0.006591797	-0.576416016	-0.848876953	883.24	3.293655175	-25.7340354	53.93781032	-83
23130	0	0.200079918	0.118588448	0.433661461	0.99971962	0.01721859	-0.012433052	-0.0104599	5.001997948	2.964711189	10.84153652	0.86100993	-0.621710687	-0.523043861	-0.035888672	-0.639648438	-0.798339844	883.28	5.90814434	-27.07698489	52.46720134	-85
23131	0	0.199645996	0.053527832	0.382446289	0.999886513	-0.007480621	-0.005618095	-0.011791229	4.991149902	1.338195801	9.561157227	-0.374045191	-0.280915378	-0.589583726	-0.035400391	-0.653076172	-0.788574219	883.28	5.772640626	-27.59813978	50.9037762	-85
23132	0	0.199988365	0.041692734	0.340313911	0.999927521	-0.002031326	-0.00688839	-0.009594917	4.999709129	1.042318344	8.507847786	-0.101568746	-0.344427725	-0.479757351	-0.030761719	-0.642089844	-0.804199219	883.24	6.157670674	-28.28747757	49.57824936	-86
23133	0	0.195129395	0.0625	0.353210449	0.999943733	-0.002792358	-0.008090019	-0.006233215	4.878234863	1.5625	8.83026123	-0.139620529	-0.404508519	-0.31166659	-0.033203125	-0.642089844	-0.801269531	883.36	6.278168973	-29.14961049	48.6625818	-86
23134	0	0.190184593	0.044993401	0.349935532	0.999945641	-0.006397247	-0.006977081	-0.004202843	4.75461483	1.124835014	8.74838829	-0.319868085	-0.348860302	-0.210145893	-0.038085938	-0.635253906	-0.807373047	883.24	5.861617411	-29.91060435	48.02541645	-85
23135	0	0.19720459	0.032165527	0.332946777	0.999979019	-0.002921104	-0.004547119	-0.003540039	4.930114746	0.804138184	8.323669434	-0.146056238	-0.227357539	-0.177003185	-0.043212891	-0.628417969	-0.81640625	883.24	5.789729691	-30.40421605	47.50394701	-85
23136	0	0.208005905	0.032022476	0.326067924	0.999991417	-0.001843452	-0.002124786	-0.002714157	5.200147629	0.800561905	8.151698112	-0.092172857	-0.106239589	-0.135708201	-0.045654297	-0.623779297	-0.813720703	883.2	5.773250985	-30.63154052	47.12646883	-85
23137	0	0.210754395	0.030334473	0.333740234	0.999997139	0.000217438	-2.86102E-06	-0.001968384	5.268859863	0.758361816	8.343505859	0.010871894	-0.000143051	-0.098419254	-0.043457031	-0.621826172	-0.813964844	883.34	5.92891451	-30.62512916	46.87331349	-85
23138	0	0.206298828	0.039306641	0.338806152	0.999998093	-0.000296593	0.00150013	-0.00120163	5.157470703	0.982666016	8.470153809	-0.014829645	0.075006532	-0.06008152	-0.041015625	-0.624023438	-0.816894531	883.24	5.963452495	-30.45564078	46.74449117	-84
23139	0	0.198359489	0.037874222	0.341219902	0.999992371	-0.002923012	0.002077103	-0.000606537	4.958987236	0.946855545	8.530497551	-0.146150911	0.103855362	-0.03032691	-0.036132813	-0.622070313	-0.817138672	883.24	5.653299255	-30.22674524	46.70584471	-84
23140	0	0.196888924	0.033524513	0.349646568	0.999997139	-0.001255989	0.001605988	-0.000305176	4.922223091	0.838112831	8.741164207	-0.062799498	0.080299434	-0.0152588	-0.031494141	-0.615478516	-0.823974609	883.2	5.517504399	-30.05415905	46.68973549	-84
23141	0	0.196105957	0.035461426	0.346923828	0.999998093	-0.001185417	0.000720978	0.000392914	4.902648926	0.886535645	8.673095703	-0.059270879	0.036048902	0.019645698	-0.029052734	-0.615722656	-0.826904297	883.24	5.349671751	-29.98929318	46.75315046	-84
23142	0	0.195628166	0.031246185	0.348319054	0.999999046	-0.000505447	-0.000230789	0.000655174	4.890704155	0.781154633	8.707976341	-0.025272372	-0.011539461	0.032758717	-0.029296875	-0.61328125	-0.82421875	883.3	5.248310613	-30.03481642	46.83904175	-84
23143	0	0.197143555	0.027404785	0.344543457	0.999999046	0.000770569	-0.00039959	0.000431061	4.928588867	0.685119629	8.613586426	0.038528448	-0.01997948	0.021553043	-0.029296875	-0.611083984	-0.827148438	883.24	5.308604427	-30.09652493	46.88582653	-84
23144	0	0.202687263	0.025619507	0.341350555	0.999999046	0.000555992	-0.000200272	0.000189781	5.067181587	0.640487671	8.533763885	0.027799608	-0.010013581	0.00948906	-0.031738281	-0.61328125	-0.826904297	883.28	5.358681022	-30.13258637	46.90666511	-84
23145	0	0.203613281	0.022705078	0.340332031	0.999999046	5.34058E-05	0.000222206	-1.52588E-05	5.090332031	0.567626953	8.508300781	0.002670288	0.011110306	-0.000762939	-0.029296875	-0.61328125	-0.821289063	883.28	5.361603565	-30.11795743	46.90782446	-84
23146	0	0.198699951	0.028118134	0.341392517	0.999999046	8.96454E-05	0.000497818	-2.38419E-05	4.967498779	0.702953339	8.534812927	0.004482269	0.024890901	-0.001192093	-0.031738281	-0.61328125	-0.823974609	883.2	5.367344253	-30.07124959	46.91289902	-84
23147	0	0.196044922	0.03125	0.343811035	0.999999046	-0.000198364	0.000584602	-0.000305176	4.901123047	0.78125	8.595275879	-0.009918214	0.02923012	-0.01525879	-0.029296875	-0.61328125	-0.830078125	883.24	5.358063934	-30.0109358	46.87663311	-85
23148	0	0.194888115	0.031658173	0.34704113	0.999999046	0.0004282	0.000236511	-0.00075531	4.872202873	0.791454315	8.676028252	0.021409991	0.011825563	-0.037765508	-0.029296875	-0.615478516	-0.823974609	883.24	5.45237799	-29.98465838	46.78436333	-84
23149	0	0.195251465	0.031494141	0.346679688	0.999999046	0.000152588	-0.000548363	-0.000759125	4.881286621	0.787353516	8.666992188	0.007629396	-0.027418141	-0.037956243	-0.026855469	-0.615722656	-0.821289063	883.28	5.520306032	-30.04701216	46.68076127	-83
23150	0	0.196375847	0.032874107	0.347002983	0.999999046	-0.000514984	-0.001176834	-0.000347137	4.909396172	0.821852684	8.675074577	-0.025749214	-0.058841723	-0.017356878	-0.026855469	-0.615722656	-0.821289063	883.24	5.488746126	-30.18485414	46.62296585	-83
23151	0	0.198059082	0.031494141	0.340332031	0.999998093	-0.000620842	-0.001319885	-0.000217438	4.951477051	0.787353516	8.508300781	-0.03104211	-0.065994287	-0.010871891	-0.029296875	-0.615478516	-0.823974609	883.24	5.437461967	-30.33999124	46.58042148	-83
23152	0	0.200834274	0.03036499	0.339352608	0.999999046	-0.000231743	-0.000909805	-5.81741E-05	5.020856857	0.759124756	8.483815193	-0.011587145	-0.045490272	-0.002908707	-0.029296875	-0.61328125	-0.827148438	883.24	5.417498321	-30.44972928	46.55814579	-83
23153	0	0.201049805	0.02935791	0.336608887	0.999999046	-1.14441E-05	-6.77109E-05	5.34058E-05	5.026245117	0.733947754	8.415222168	-0.000572205	-0.003385544	0.002670288	-0.031494141	-0.61328125	-0.829833984	883.14	5.409853846	-30.46429229	46.56171767	-83
23154	0	0.201049805	0.028625488	0.340209961	0.999999046	0.000312805	0.000537872	-0.00012207	5.026245117	0.715637207	8.505249023	0.01564026	0.026893618	-0.006103516	-0.031738281	-0.61328125	-0.823974609	883.28	5.447126736	-30.40746289	46.55527922	-83
23155	0	0.198207855	0.031758308	0.343094826	0.999998093	0.000281334	0.000490189	0.000169754	4.955196381	0.79395771	8.577370644	0.014066697	0.024509431	0.008487702	-0.029296875	-0.61328125	-0.821289063	883.2	5.461531444	-30.35866464	46.58611402	-82
23156	0	0.196671486	0.03209877	0.34403038	0.999999046	0.000266075	0.000217438	0.00019455	4.916787148	0.802469254	8.600759506	0.013303757	0.010871887	0.009727478	-0.029296875	-0.615478516	-0.823974609	883.3	5.474272896	-30.34061415	46.616581	-83
23157	0	0.197692871	0.032043457	0.342956543	0.999999046	4.95911E-05	-0.000212669	9.15527E-05	4.942321777	0.801086426	8.573913574	0.002479553	-0.010633469	0.004577637	-0.031738281	-0.61328125	-0.826904297	883.24	5.471823851	-30.36995624	46.62537144	-83
23158	0	0.198698044	0.029416084	0.341036797	0.999999046	-4.57764E-05	-0.000282288	0.000171661	4.967451096	0.735402107	8.525919914	-0.002288818	-0.01411438	0.008583069	-0.029296875	-0.61328125	-0.82421875	883.24	5.453377515	-30.40767154	46.64269681	-83
23159	0	0.198730469	0.029785156	0.342590332	0.999999046	-2.28882E-05	-0.000166893	6.86646E-05	4.968261719	0.744628906	8.564758301	-0.001144409	-0.00834465	0.003433228	-0.029052734	-0.615722656	-0.829833984	883.28	5.443571216	-30.43061744	46.64571096	-82
23160	0	0.19903183	0.030778885	0.341547966	0.999999046	-5.43594E-05	1.14441E-05	-5.34058E-05	4.975795746	0.769472122	8.53869915	-0.002717972	0.000572205	-0.002670288	-0.029296875	-0.61328125	-0.82421875	883.3	5.437162528	-30.43145421	46.63741721	-82
23161	0	0.197692871	0.029846191	0.342346191	0.999999046	0.000289917	0.000187874	-9.53674E-05	4.942321777	0.746154785	8.558654785	0.01449585	0.009393692	-0.004768372	-0.029296875	-0.61328125	-0.82421875	883.24	5.471781684	-30.41120107	46.62571584	-82
23162	0	0.197436333	0.030632019	0.343439102	0.999999046	0.000259399	0.000123978	-0.000148773	4.935908318	0.765800476	8.585977554	0.012969971	0.006198883	-0.00743866	-0.029052734	-0.615722656	-0.826904297	883.3	5.506801288	-30.39711831	46.60643867	-82
23163	0	0.197753906	0.031982422	0.344238281	0.999999046	0.000102997	-0.000159264	-8.7738E-05	4.943847656	0.799560547	8.605957031	0.005149841	-0.007963181	-0.004386902	-0.029296875	-0.615478516	-0.821044922	883.28	5.521645297	-30.41549251	46.59612491	-82
23164	0	0.197979927	0.032026291	0.343191147	0.999999046	0.000119209	-0.000160217	-2.00272E-05	4.949498177	0.800657272	8.579778671	0.005960465	-0.008010864	-0.001001358	-0.029296875	-0.615478516	-0.821044922	883.18	5.533818347	-30.43424715	46.59416468	-82
23165	0	0.19720459	0.031066895	0.342651367	0.999999046	9.15527E-05	-0.000349998	-4.95911E-05	4.930114746	0.776672363	8.56628418	0.004577637	-0.017499924	-0.002479553	-0.029296875	-0.61328125	-0.82421875	883.24	5.545967758	-30.47383155	46.57991551	-82
23166	0	0.197686195	0.031209946	0.343238831	0.999999046	0.000320435	-0.000202179	6.77109E-05	4.942154884	0.780248642	8.580970764	0.016021729	-0.010108948	0.003385544	-0.026855469	-0.615722656	-0.82421875	883.24	5.575452675	-30.49737422	46.58185957	-82
23167	0	0.198608398	0.031860352	0.342590332	0.999999046	-6.10352E-05	-0.00026989	0.000221252	4.965209961	0.796508789	8.564758301	-0.003051758	-0.013494492	0.011062622	-0.029052734	-0.615722656	-0.826904297	883.2	5.551315746	-30.52992498	46.60334186	-82
23168	0	0.200271606	0.029227257	0.342851639	0.999999046	0.000498772	-0.000421524	8.67844E-05	5.006790161	0.730681419	8.57129097	0.024938585	-0.021076204	0.004339218	-0.029296875	-0.615478516	-0.823974609	883.2	5.601187867	-30.57792843	46.60546188	-82
23169	0	0.199157715	0.031005859	0.341552734	0.999999046	0.000190735	-0.000384331	-4.19617E-05	4.978942871	0.775146484	8.538818359	0.009536743	-0.019216538	-0.002098084	-0.029052734	-0.617919922	-0.829589844	883.14	5.624125872	-30.61987082	46.58797491	-82
23170	0	0.198746681	0.031702042	0.341630936	0.999999046	0	-0.000244141	9.15527E-05	4.96866703	0.792551041	8.540773392	0	-0.012207031	0.004577637	-0.029296875	-0.615478516	-0.821044922	883.24	5.615243559	-30.64692422	46.59433564	-82
23171	0	0.200805664	0.032104492	0.339355469	0.999999046	-1.90735E-05	-0.000235558	-0.000106812	5.020141602	0.802612305	8.483886719	-0.000953674	-0.011777878	-0.005340576	-0.029052734	-0.615722656	-0.826904297	883.24	5.617513102	-30.67051746	46.56970397	-82
23172	0	0.199189186	0.031827927	0.340726852	0.999999046	-0.000103951	-8.58307E-05	-0.000289917	4.979729652	0.795698166	8.51817131	-0.005197525	-0.004291534	-0.01449585	-0.031738281	-0.615478516	-0.821044922	883.24	5.621450938	-30.67462919	46.53146456	-83
23173	0	0.198730469	0.03125	0.33984375	0.999999046	-3.8147E-06	-9.05991E-05	-0.000293732	4.968261719	0.78125	8.49609375	-0.000190735	-0.004529953	-0.014686585	-0.031738281	-0.615478516	-0.821044922	883.3	5.637106294	-30.67889037	46.49308143	-82
23174	0	0.199261665	0.03234005	0.342858315	0.999999046	0.00021553	-2.67029E-05	-0.00017643	4.981541634	0.808501244	8.571457863	0.01077652	-0.001335144	-0.008821488	-0.029296875	-0.615478516	-0.823974609	883.3	5.669511104	-30.67677248	46.46551564	-83
23175	0	0.198547363	0.032287598	0.343017578	0.999999046	-0.000267029	2.38419E-05	-8.39233E-05	4.963684082	0.807189941	8.575439453	-0.013351441	0.001192093	-0.004196167	-0.029296875	-0.615478516	-0.823974609	883.28	5.639995988	-30.66951613	46.45217326	-83
23176	0	0.197854042	0.032443047	0.342310905	0.999999046	-8.67844E-05	-0.000358582	-7.34329E-05	4.946351051	0.811076164	8.557772636	-0.004339218	-0.017929078	-0.003671646	-0.029296875	-0.615478516	-0.818115234	883.24	5.632992687	-30.705579	46.43995214	-83
23177	0	0.198913574	0.032287598	0.344848633	0.999999046	-0.000770569	-0.000479698	9.53674E-05	4.972839355	0.807189941	8.62121582	-0.038528448	-0.023984912	0.004768372	-0.029296875	-0.615478516	-0.821044922	883.24	5.536961704	-30.75691276	46.44749381	-83
23178	0	0.199613571	0.030928612	0.342019081	0.999999046	-0.000736237	-0.000814438	0.000247002	4.990339279	0.773215294	8.550477028	-0.036811836	-0.040721902	0.012350085	-0.031738281	-0.61328125	-0.821044922	883.24	5.436634605	-30.84775044	46.47175533	-82
23179	0	0.202209473	0.028015137	0.349609375	0.999998093	-0.001353264	-0.000923157	0.000217438	5.055236816	0.700378418	8.740234375	-0.067663224	-0.046157858	0.010871892	-0.031738281	-0.611083984	-0.82421875	883.34	5.267917219	-30.95020011	46.48796279	-82
23180	0	0.210469246	0.035658836	0.366164207	0.999973297	-0.007282257	0.000447273	0.00026226	5.261731148	0.891470909	9.154105186	-0.364116089	0.022363861	0.013113138	-0.034423828	-0.606445313	-0.824462891	883.26	4.408468783	-30.89597705	46.54596108	-81
23181	0	0.20135498	0.037109375	0.327514648	0.999914169	-0.012824059	0.001888275	0.001392365	5.033874512	0.927734375	8.187866211	-0.641221091	0.094416432	0.069620197	-0.034912109	-0.590820313	-0.837402344	883.24	2.832325256	-30.68462232	46.77541578	-80
23182	0	0.195527077	-0.001712799	0.317091942	0.999910355	-0.013268471	8.86917E-05	0.001433372	4.888176918	-0.042819977	7.927298546	-0.663443234	0.004434717	0.071670753	-0.030761719	-0.566650391	-0.857177734	883.24	1.209816286	-30.67514424	46.98263371	-80
23183	0	0.198608398	0.004577637	0.351745605	0.999999046	-0.000270844	0.001145363	0.000179291	4.965209961	0.114440918	8.793640137	-0.013542178	0.057268156	0.008964541	-0.03125	-0.551025391	-0.864257813	883.2	1.160568952	-30.53874201	47.00493241	-80
23184	0	0.198431015	0.007431984	0.345246315	0.999990463	-0.003650665	0.002202034	0.000236511	4.960775375	0.185799599	8.631157875	-0.182533819	0.110102034	0.011825597	-0.026367188	-0.551269531	-0.870361328	883.24	0.71955831	-30.28098724	47.04168339	-80
23185	0	0.193664551	6.10352E-05	0.335571289	0.999998093	-0.001574516	0.000759125	0.000747681	4.84161377	0.001525879	8.389282227	-0.078725862	0.037956261	0.037384056	-0.026855469	-0.542236328	-0.87109375	883.18	0.484172541	-30.18884637	47.13706807	-80
23186	0	0.192843437	0.004180908	0.344302177	0.999999046	-0.000146866	-0.00034523	0.000353813	4.82108593	0.104522705	8.607554436	-0.007343293	-0.017261506	0.017690659	-0.026611328	-0.542236328	-0.876708984	883.3	0.439592622	-30.22227556	47.17409422	-80
23187	0	0.198242188	0.005981445	0.351623535	0.999998093	-0.001723289	-3.8147E-06	0	4.956054688	0.149536133	8.790588379	-0.086164517	-0.000190735	0	-0.026611328	-0.542236328	-0.874023438	883.2	0.238081893	-30.2159196	47.17175065	-79
23188	0	0.197694778	-0.000948906	0.345822334	0.999990463	-0.004243851	0.000401497	-9.91821E-05	4.942369461	-0.023722649	8.645558357	-0.212193178	0.020074905	-0.004959121	-0.026855469	-0.537841797	-0.877197266	883.34	-0.245682723	-30.16294339	47.16245127	-79
23189	0	0.194763184	-0.008911133	0.338562012	0.999999046	-0.000881195	-0.000510216	7.24792E-05	4.86907959	-0.22277832	8.464050293	-0.044059761	-0.025510792	0.003623963	-0.024902344	-0.529052734	-0.877929688	883.24	-0.356083991	-30.21427192	47.16443674	-79
23190	0	0.19407177	-0.002335548	0.33927536	0.999999046	0.000738144	-0.000717163	-8.2016E-05	4.851794243	-0.05838871	8.481884003	0.036907203	-0.035858161	-0.0041008	-0.024658203	-0.53125	-0.877929688	883.36	-0.27061331	-30.28920817	47.14539214	-79
23191	0	0.198547363	-0.002868652	0.346191406	0.999999046	1.90735E-05	-0.000189781	-0.000171661	4.963684082	-0.071716309	8.654785156	0.000953674	-0.00948906	-0.008583069	-0.027099609	-0.53125	-0.880615234	883.24	-0.261311774	-30.3035462	47.11535856	-79
23192	0	0.19910717	-0.00278759	0.345687866	0.999999046	-0.000519753	0.000406265	7.24792E-05	4.977679253	-0.069689751	8.642196655	-0.025987627	0.020313264	0.003623963	-0.027099609	-0.53125	-0.877685547	883.18	-0.329877704	-30.2492934	47.12207787	-79
23193	0	0.196533203	-0.003234863	0.341430664	0.999999046	-0.000286102	-2.19345E-05	0.000213623	4.913330078	-0.080871582	8.535766602	-0.014305115	-0.001096725	0.010681153	-0.024902344	-0.529052734	-0.877929688	883.24	-0.38123694	-30.24385159	47.14321605	-79
23194	0	0.194350243	-0.002966881	0.345752716	0.999999046	0.000673294	-8.58307E-05	-0.000103951	4.858756065	-0.07417202	8.643817902	0.033664706	-0.004291535	-0.005197525	-0.026855469	-0.533447266	-0.880371094	883.3	-0.301417696	-30.24561252	47.126709	-79
23195	0	0.196960449	-0.002868652	0.351013184	0.999999046	0.00050354	0.000355721	-0.000240326	4.92401123	-0.071716309	8.77532959	0.025177004	0.017786027	-0.012016297	-0.027099609	-0.53125	-0.877685547	883.36	-0.231795347	-30.19646699	47.0913003	-79
23196	0	0.198119164	-0.001814842	0.346089363	0.999999046	-0.000271797	0.000230789	5.62668E-05	4.952979088	-0.045371056	8.652234077	-0.013589859	0.011539459	0.002813339	-0.022216797	-0.53125	-0.877929688	883.28	-0.270808035	-30.16131905	47.0908585	-79
23197	0	0.194396973	-0.002807617	0.343811035	0.999999046	-6.10352E-05	-6.38962E-05	0.000247955	4.859924316	-0.07019043	8.595275879	-0.003051758	-0.003194809	0.012397766	-0.024658203	-0.53125	-0.883789063	883.24	-0.298508204	-30.1595841	47.11510994	-79
23198	0	0.195966721	-0.00203228	0.347325325	0.999999046	0.000391006	-0.000192642	0.000117302	4.899168015	-0.050806999	8.683133125	0.019550324	-0.009632111	0.005865097	-0.024658203	-0.53125	-0.877929688	883.18	-0.265681198	-30.17242258	47.12500114	-79
23199	0	0.19708252	-0.002746582	0.343078613	0.999999046	-0.000358582	8.86917E-05	0.000164032	4.927062988	-0.068664551	8.576965332	-0.017929078	0.004434586	0.008201599	-0.024658203	-0.53125	-0.877929688	883.28	-0.321755767	-30.15289784	47.14236083	-79
23200	0	0.196471214	-0.004400253	0.343475342	0.999999046	0.000138283	5.53131E-05	3.43323E-05	4.911780357	-0.110006332	8.586883545	0.006914139	0.002765656	0.001716614	-0.024658203	-0.529052734	-0.880859375	883.24	-0.312335114	-30.13714212	47.13800822	-79
23201	0	0.192260742	-0.002258301	0.349182129	0.999999046	6.10352E-05	-0.000372887	0.00018692	4.806518555	-0.05645752	8.729553223	0.003051758	-0.018644333	0.009346009	-0.024658203	-0.53125	-0.877929688	883.3	-0.322020637	-30.16991537	47.15817801	-79
23202	0	0.194046974	-0.001434326	0.349525452	0.999999046	0.000247955	-0.000360489	0.000212669	4.851174355	-0.035858154	8.738136292	0.012397767	-0.018024445	0.010633469	-0.024658203	-0.53125	-0.880859375	883.2	-0.31190449	-30.20086814	47.1783703	-79
23203	0	0.198120117	-0.005554199	0.345275879	0.999999046	0.00043869	-0.000620842	-0.0001297	4.95300293	-0.13885498	8.631896973	0.021934511	-0.031042102	-0.006484986	-0.027099609	-0.533447266	-0.877441406	883.2	-0.257302829	-30.26177874	47.15946822	-79
23204	0	0.200927734	-0.003614426	0.343136787	0.999999046	-0.000182152	-0.000385284	0.000114441	5.023193359	-0.090360641	8.578419685	-0.00910759	-0.019264222	0.005722046	-0.027099609	-0.53125	-0.877685547	883.18	-0.290119333	-30.29562309	47.16992914	-79
23205	0	0.195800781	-0.005371094	0.340393066	0.999999046	-0.0001297	0.000100136	-9.53674E-05	4.895019531	-0.134277344	8.50982666	-0.006484985	0.00500679	-0.004768372	-0.027099609	-0.53125	-0.883544922	883.2	-0.302863421	-30.27386004	47.14936822	-79
23206	0	0.195121765	-0.002432823	0.34445858	0.999999046	0.000476837	0.000255585	-0.000282288	4.878044128	-0.06082058	8.6114645	0.023841859	0.012779237	-0.014114381	-0.029296875	-0.533203125	-0.880371094	883.24	-0.233526927	-30.23416434	47.11121148	-79
23207	0	0.196166992	-0.001831055	0.346618652	0.999999046	0.000225067	0.000134468	-0.000225067	4.904174805	-0.045776367	8.665466309	0.011253357	0.006723404	-0.011253357	-0.024658203	-0.53125	-0.877929688	883.2	-0.196887092	-30.20806581	47.07473182	-79
23208	0	0.196806908	-0.00189209	0.346366882	0.999999046	0.000138283	6.29425E-05	-0.000133514	4.920172691	-0.047302246	8.659172058	0.006914139	0.003147125	-0.00667572	-0.027099609	-0.533447266	-0.874511719	883.24	-0.176292716	-30.1899635	47.05886055	-79
23209	0	0.196166992	-0.001831055	0.346435547	0.999999046	0.000228882	-0.000163078	4.19617E-05	4.904174805	-0.045776367	8.660888672	0.011444092	-0.008153916	0.002098084	-0.022216797	-0.53125	-0.880859375	883.24	-0.157040101	-30.19749053	47.05250201	-79
23210	0	0.197195053	-0.001202583	0.343929291	0.999999046	-0.000228882	-0.000297546	0.000148773	4.929876328	-0.030064583	8.598232269	-0.011444092	-0.01487732	0.00743866	-0.024658203	-0.533447266	-0.877685547	883.24	-0.197330042	-30.22032958	47.0686894	-79
23211	0	0.197265625	-0.00177002	0.34161377	0.999999046	-8.7738E-05	-0.000346184	9.15527E-05	4.931640625	-0.044250488	8.540344238	-0.004386902	-0.017309189	0.004577637	-0.024658203	-0.533447266	-0.874755859	883.2	-0.217607391	-30.24874637	47.07920739	-79
23212	0	0.197259903	-0.002843857	0.344466209	0.999999046	-0.000275612	3.8147E-05	-3.8147E-05	4.931497574	-0.07109642	8.611655235	-0.013780594	0.001907349	-0.001907349	-0.026855469	-0.533447266	-0.880371094	883.28	-0.250668054	-30.23308226	47.07237262	-79
23213	0	0.196472168	-0.003479004	0.33996582	0.999999046	0.000385284	8.4877E-05	-0.000202179	4.911804199	-0.086975098	8.499145508	0.019264222	0.004243851	-0.010108948	-0.027099609	-0.53125	-0.880615234	883.34	-0.197080879	-30.21212099	47.04095216	-79
23214	0	0.195864677	-0.000632286	0.34439373	0.999999046	0.000534058	-9.91821E-05	-7.62939E-06	4.896616936	-0.015807152	8.609843254	0.026702882	-0.004959107	-0.00038147	-0.026855469	-0.533447266	-0.880371094	883.2	-0.139371073	-30.21201777	47.0366312	-79
23215	0	0.196899414	-0.000732422	0.349853516	0.999999046	-0.000152588	0.000184059	9.15527E-05	4.922485352	-0.018310547	8.746337891	-0.007629395	0.009202957	0.004577637	-0.024658203	-0.533447266	-0.877685547	883.26	-0.166828484	-30.17919264	47.04570212	-79
23216	0	0.197138786	-0.001606941	0.344737053	0.999999046	-9.63211E-05	0.000135422	0.000183105	4.928469658	-0.040173531	8.618426323	-0.004816055	0.006771088	0.009155274	-0.026855469	-0.535644531	-0.874511719	883.24	-0.193892453	-30.15184447	47.07530809	-79
23217	0	0.196899414	-0.003356934	0.348083496	0.999999046	0.000247955	-0.000220299	-1.90735E-05	4.922485352	-0.08392334	8.702087402	0.012397766	-0.011014939	-0.000953674	-0.024658203	-0.533447266	-0.877685547	883.2	-0.168175378	-30.16515921	47.06969433	-79
23218	0	0.196258545	-0.000432014	0.34549427	0.999999046	-0.000370026	-7.05719E-05	1.90735E-05	4.906463623	-0.010800362	8.637356758	-0.018501282	-0.003528595	0.000953674	-0.024658203	-0.533447266	-0.874755859	883.24	-0.215673518	-30.16118785	47.07244993	-79
23219	0	0.194824219	-0.002990723	0.342773438	0.999999046	6.86646E-05	-0.000365257	0.000102997	4.870605469	-0.074768066	8.569335938	0.003433228	-0.018262864	0.005149841	-0.024658203	-0.53125	-0.877929688	883.24	-0.218598161	-30.19083051	47.08075711	-79
23220	0	0.195321083	-0.001030922	0.346536636	0.999999046	0.000184059	-0.000770569	0.000422478	4.883027077	-0.025773048	8.663415909	0.009202958	-0.038528448	0.021123889	-0.024658203	-0.533447266	-0.880615234	883.2	-0.229659654	-30.26657889	47.13012878	-79
23221	0	0.197265625	0.000610352	0.349060059	0.999999046	-0.000469208	-0.000704765	0.00069046	4.931640625	0.015258789	8.726501465	-0.023460393	-0.035238273	0.034523017	-0.026855469	-0.533447266	-0.880371094	883.3	-0.333430774	-30.33440097	47.21744811	-79
23222	0	0.19811058	-0.002914429	0.342063904	0.999999046	-0.000391006	-0.000709534	0.000464439	4.952764511	-0.072860718	8.551597595	-0.019550326	-0.03547669	0.023221973	-0.029296875	-0.533203125	-0.880371094	883.3	-0.4132376	-30.40282601	47.27715148	-79
23223	0	0.199279785	-0.005432129	0.342956543	0.999999046	0.000370026	-0.000662804	-0.000114441	4.981994629	-0.135803223	8.573913574	0.018501284	-0.033140186	-0.005722046	-0.029541016	-0.531005859	-0.877685547	883.24	-0.36704194	-30.46633808	47.25755471	-79
23224	0	0.198573112	-0.003182411	0.340559006	0.999999046	-0.000184059	3.24249E-05	-0.000286102	4.964327812	-0.07956028	8.513975143	-0.009202957	0.001621246	-0.014305115	-0.031982422	-0.531005859	-0.874511719	883.18	-0.372438898	-30.45033367	47.22131866	-79
23225	0	0.19720459	-0.002441406	0.341125488	0.999999046	0.000717163	6.58035E-05	-0.000312805	4.930114746	-0.061035156	8.528137207	0.035858158	0.003290177	-0.01564026	-0.029541016	-0.531005859	-0.880615234	883.3	-0.272727062	-30.43042575	47.17277999	-79
23226	0	0.198259354	-0.002492905	0.346282005	0.999999046	0.000524521	4.57764E-05	-0.000118256	4.956483841	-0.062322617	8.657050133	0.026226045	0.002288818	-0.005912781	-0.029296875	-0.535644531	-0.877197266	883.24	-0.208204955	-30.41254127	47.15732552	-78
23227	0	0.198303223	-0.001525879	0.345825195	0.999999046	-0.000156403	0.000100136	-8.39233E-05	4.957580566	-0.038146973	8.645629883	-0.007820129	0.00500679	-0.004196167	-0.029296875	-0.533203125	-0.877441406	883.18	-0.223971	-30.38829453	47.14435047	-79
23228	0	0.197441101	-0.001540184	0.344459534	0.999999046	1.04904E-05	-7.05719E-05	6.77109E-05	4.936027527	-0.038504601	8.611488342	0.000524521	-0.003528595	0.003385544	-0.029296875	-0.535400391	-0.874267578	883.2	-0.230796738	-30.38345314	47.15679354	-79
23229	0	0.198364258	-0.001708984	0.344787598	0.999999046	0.000160217	7.72476E-05	-6.10352E-05	4.959106445	-0.042724609	8.619689941	0.008010864	0.003862381	-0.003051758	-0.031738281	-0.533203125	-0.874267578	883.28	-0.211736347	-30.36166819	47.15244844	-79
23230	0	0.19800663	-0.001880646	0.341339111	0.999999046	9.53674E-06	0.000102997	5.24521E-05	4.950165749	-0.047016144	8.533477783	0.000476837	0.005149841	0.002622604	-0.029541016	-0.533203125	-0.874511719	883.2	-0.217534672	-30.33689915	47.16064353	-79
23231	0	0.19708252	-0.001403809	0.344604492	0.999999046	1.14441E-05	3.91006E-05	0.000106812	4.927062988	-0.035095215	8.615112305	0.000572205	0.001955032	0.005340576	-0.026855469	-0.533447266	-0.880371094	883.34	-0.22671984	-30.31932096	47.16895042	-79
23232	0	0.196994781	-0.001743317	0.343520164	0.999999046	0.000100136	0.000104904	0.000102997	4.924869537	-0.043582916	8.588004112	0.00500679	0.005245209	0.005149841	-0.029296875	-0.533203125	-0.877441406	883.14	-0.225426628	-30.29414745	47.18196747	-79
23233	0	0.198242188	-0.002563477	0.345397949	0.999999046	0.000263214	0.00023365	-4.57764E-05	4.956054688	-0.064086914	8.63494873	0.013160706	0.011682511	-0.002288818	-0.026855469	-0.535644531	-0.877441406	883.24	-0.195474344	-30.25423936	47.17538454	-78
23234	0	0.196982384	-0.001387596	0.345306396	0.999999046	3.8147E-06	0.000112534	-3.52859E-05	4.924559593	-0.034689903	8.632659912	0.000190735	0.005626678	-0.001764297	-0.029296875	-0.535400391	-0.874267578	883.3	-0.195942516	-30.22812756	47.1760726	-79
23235	0	0.196105957	0.000976563	0.344238281	0.999999046	-4.95911E-05	-7.53403E-05	2.67029E-05	4.902648926	0.024414063	8.605957031	-0.002479553	-0.003767014	0.001335144	-0.029296875	-0.535644531	-0.880126953	883.26	-0.20653209	-30.22343099	47.18117752	-79
23236	0	0.196828842	-0.001814842	0.343780518	0.999999046	0.000498772	-0.000165939	3.33786E-05	4.920721054	-0.045371056	8.594512939	0.024938585	-0.008296967	0.00166893	-0.026855469	-0.535644531	-0.874511719	883.2	-0.154730514	-30.22907539	47.18666986	-79
23237	0	0.19720459	-0.002380371	0.345275879	0.999999046	0.000724792	-0.00026989	-3.05176E-05	4.930114746	-0.059509277	8.631896973	0.036239628	-0.013494493	-0.001525879	-0.029296875	-0.535644531	-0.880126953	883.34	-0.072802474	-30.24657951	47.18027565	-78
23238	0	0.198123932	-0.000951767	0.346085548	0.999999046	0.000299454	-0.000143051	-5.34058E-05	4.953098297	-0.023794174	8.65213871	0.014972687	-0.007152558	-0.002670288	-0.026855469	-0.537841797	-0.874267578	883.3	-0.038040003	-30.24950315	47.1741322	-78
23239	0	0.197814941	-0.000793457	0.343444824	0.999999046	4.95911E-05	-0.000212669	-7.24792E-05	4.945373535	-0.019836426	8.586120605	0.002479553	-0.010633469	-0.003623962	-0.029296875	-0.535644531	-0.877197266	883.24	-0.030616912	-30.26040858	47.16342788	-78
23240	0	0.198511124	0.000185013	0.345618248	0.999999046	-0.000109673	-0.00022316	3.05176E-05	4.962778091	0.00462532	8.6404562	-0.005483627	-0.01115799	0.001525879	-0.027099609	-0.535644531	-0.871582031	883.24	-0.048256271	-30.27249243	47.16795437	-79
23241	0	0.196899414	-0.00177002	0.343200684	0.999999046	9.15527E-05	-6.38962E-05	-8.39233E-05	4.922485352	-0.044250488	8.58001709	0.004577637	-0.003194809	-0.004196167	-0.026855469	-0.535644531	-0.874511719	883.2	-0.035214712	-30.26630073	47.15486932	-79
23242	0	0.198163986	3.52859E-05	0.345005989	0.999999046	0.000242233	-8.39233E-05	-0.000103951	4.954099655	0.000882149	8.625149727	0.012111664	-0.004196167	-0.005197525	-0.026855469	-0.535644531	-0.874511719	883.3	-0.00350619	-30.26237903	47.13875592	-80
23243	0	0.198242188	-0.000671387	0.34552002	0.999999046	0	-0.000212669	4.19617E-05	4.956054688	-0.016784668	8.638000488	0	-0.010633469	0.002098084	-0.029296875	-0.535644531	-0.877197266	883.2	-0.009303122	-30.27317894	47.14304979	-81
23244	0	0.197229385	-0.000200272	0.345129967	0.999999046	-0.000126839	-0.000255585	-8.7738E-05	4.930734634	-0.00500679	8.628249168	-0.006341934	-0.012779236	-0.004386902	-0.029296875	-0.537841797	-0.876953125	883.24	-0.020918171	-30.28884072	47.13350817	-81
23245	0	0.197937012	-0.001037598	0.344482422	0.999999046	0.000160217	-0.000311852	0.000133514	4.948425293	-0.025939941	8.612060547	0.008010864	-0.015592575	0.00667572	-0.026855469	-0.537841797	-0.874267578	883.24	-0.014455991	-30.31091897	47.15117946	-81
23246	0	0.197052956	-0.001285553	0.344054222	0.999999046	1.90735E-05	-0.000228882	9.91821E-05	4.926323891	-0.032138824	8.601355553	0.000953674	-0.011444092	0.004959106	-0.029296875	-0.537841797	-0.874023438	883.34	-0.021890985	-30.32343811	47.16736432	-80
23247	0	0.197753906	-0.001586914	0.345336914	0.999999046	0.000389099	-0.000239372	-7.62939E-05	4.943847656	-0.039672852	8.633422852	0.019454957	-0.011968613	-0.003814697	-0.029296875	-0.535644531	-0.874511719	883.3	0.024802925	-30.3370926	47.15572073	-79
23248	0	0.199811935	0.001947403	0.346520424	0.999999046	-4.86374E-05	-0.000165939	1.14441E-05	4.995298386	0.048685074	8.663010597	-0.00243187	-0.008296967	0.000572205	-0.029296875	-0.537841797	-0.874267578	883.24	0.015612346	-30.3423313	47.15891627	-81
23249	0	0.198425293	-0.000244141	0.340820313	0.999999046	-8.39233E-05	-0.000178337	0.000297546	4.960632324	-0.006103516	8.520507813	-0.004196167	-0.008916855	0.01487732	-0.029296875	-0.537841797	-0.877197266	883.3	-0.016789389	-30.34906812	47.19768391	-80
23250	0	0.198547363	-0.00219059	0.34532547	0.999999046	0.000394821	-1.90735E-06	-5.05447E-05	4.963684082	-0.054764748	8.633136749	0.019741059	-9.53674E-05	-0.002527237	-0.029296875	-0.537841797	-0.880126953	883.28	0.028940567	-30.33554675	47.18729151	-79
23251	0	0.197875977	-0.002197266	0.343933105	0.999999046	0.000144958	0.000107765	-0.000507355	4.946899414	-0.054931641	8.598327637	0.007247925	0.00538826	-0.025367738	-0.029296875	-0.537841797	-0.871337891	883.24	0.076542889	-30.30938774	47.12408178	-79
23252	0	0.199567795	0.003659248	0.34665966	0.999999046	-3.33786E-05	-0.000108719	-0.000255585	4.98919487	0.091481209	8.666491508	-0.00166893	-0.005435944	-0.012779236	-0.029296875	-0.537841797	-0.877197266	883.28	0.087071158	-30.3080309	47.09016687	-79
23253	0	0.19708252	0.000610352	0.346313477	0.999999046	1.52588E-05	-0.000224113	-1.90735E-05	4.927062988	0.015258789	8.657836914	0.000762939	-0.011205673	-0.000953674	-0.029296875	-0.537841797	-0.871337891	883.24	0.087389979	-30.31983157	47.09200583	-80
23254	0	0.197297096	-4.3869E-05	0.342378616	0.999999046	-6.67572E-05	-0.000356674	-0.000198364	4.932427406	-0.001096725	8.559465408	-0.00333786	-0.01783371	-0.009918213	-0.026855469	-0.537841797	-0.877441406	883.24	0.090354543	-30.34678099	47.0620297	-80
23255	0	0.200317383	0.001281738	0.346069336	0.999999046	8.7738E-05	-0.000235558	-7.62939E-05	5.00793457	0.032043457	8.651733398	0.004386902	-0.011777878	-0.003814697	-0.029296875	-0.537841797	-0.874267578	883.28	0.102918037	-30.35990681	47.05371181	-80
23256	0	0.199074745	-9.34601E-05	0.342251778	1	7.62939E-06	-5.62668E-05	2.28882E-05	4.976868629	-0.002336502	8.556294441	0.00038147	-0.002813339	0.001144409	-0.029296875	-0.540039063	-0.871337891	883.18	0.099625283	-30.35258062	47.06402362	-79
23257	0	0.199157715	0.00213623	0.344665527	0.999999046	0	4.29153E-05	-6.48499E-05	4.978942871	0.053405762	8.616638184	0	0.002145767	-0.003242493	-0.029296875	-0.537841797	-0.880126953	883.2	0.1014588	-30.333868	47.05331004	-79
23258	0	0.198029518	0.001672745	0.346024513	0.999999046	0.000116348	2.28882E-05	9.91821E-05	4.950737953	0.041818619	8.650612831	0.005817413	0.001144409	0.004959106	-0.029296875	-0.537841797	-0.871337891	883.2	0.105727154	-30.31742213	47.07120377	-79
23259	0	0.198486328	0.000244141	0.345703125	0.999999046	7.24792E-05	-0.000170708	4.57764E-05	4.962158203	0.006103516	8.642578125	0.003623962	-0.008535385	0.002288818	-0.029296875	-0.537841797	-0.874267578	883.34	0.108582601	-30.32311271	47.07928948	-79
23260	0	0.198360443	9.25064E-05	0.346366882	0.999999046	1.62125E-05	-8.2016E-05	3.05176E-05	4.959011078	0.00231266	8.659172058	0.000810623	-0.0041008	0.001525879	-0.029052734	-0.540039063	-0.876953125	883.24	0.106002802	-30.31858081	47.08600774	-79
23261	0	0.199584961	-0.000854492	0.344604492	0.999999046	4.57764E-05	8.58307E-06	-1.90735E-05	4.989624023	-0.021362305	8.615112305	0.002288818	0.000429153	-0.000953674	-0.026855469	-0.540283203	-0.874267578	883.3	0.110066303	-30.30370169	47.08597103	-79
23262	0	0.198297501	0.002663612	0.345277786	0.999999046	-4.19617E-05	-0.000177383	-4.57764E-05	4.957437515	0.066590309	8.631944656	-0.002098084	-0.008869171	-0.002288818	-0.026855469	-0.537841797	-0.877441406	883.36	0.106037301	-30.31009458	47.07662082	-80
23263	0	0.196655273	0.001342773	0.345397949	0.999999046	0.000488281	-0.000254631	8.7738E-05	4.916381836	0.033569336	8.63494873	0.024414064	-0.012731553	0.004386902	-0.029296875	-0.540039063	-0.874023438	883.4	0.153914788	-30.32527644	47.09208218	-80
23264	0	0.200860023	0.001338959	0.345293999	0.999999046	6.67572E-06	-0.000219345	-0.000148773	5.021500587	0.033473969	8.632349968	0.000333786	-0.010967255	-0.00743866	-0.031494141	-0.540039063	-0.874023438	883.14	0.162513206	-30.336429	47.07908257	-80
23265	0	0.200378418	0.000305176	0.343444824	0.999999046	0.000160217	-4.48227E-05	-6.48499E-05	5.009460449	0.007629395	8.586120605	0.008010864	-0.002241135	-0.003242493	-0.029296875	-0.537841797	-0.874267578	883.24	0.183031105	-30.32770209	47.07088902	-80
23266	0	0.198516846	0.001600266	0.343730927	0.999999046	0.000131607	0.000137329	0.000144005	4.962921143	0.040006638	8.593273163	0.006580353	0.006866455	0.007200241	-0.029296875	-0.540039063	-0.871337891	883.24	0.186293205	-30.29819794	47.09593828	-80
23267	0	0.199401855	0.002624512	0.345581055	0.999999046	0.000236511	0.00017643	-1.90735E-05	4.985046387	0.065612793	8.639526367	0.011825562	0.008821488	-0.000953674	-0.029296875	-0.540039063	-0.871337891	883.24	0.212599888	-30.26416628	47.09929542	-79
23268	0	0.198425293	0.000964165	0.346504211	0.999999046	-1.43051E-05	-5.14984E-05	-0.000152588	4.960632324	0.024104118	8.662605286	-0.000715256	-0.002574921	-0.007629395	-0.026855469	-0.540283203	-0.874267578	883.26	0.219141386	-30.25614878	47.07997021	-79
23269	0	0.197387695	0.003417969	0.345092773	0.999999046	3.43323E-05	-0.000273705	4.57764E-05	4.934692383	0.085449219	8.627319336	0.001716614	-0.013685227	0.002288818	-0.026855469	-0.540283203	-0.877197266	883.3	0.218196712	-30.27363143	47.08401864	-79
23270	0	0.198242188	0.001525879	0.344848633	0.999999046	0.000167847	-0.000198364	3.05176E-05	4.956054688	0.038146973	8.62121582	0.008392334	-0.009918213	0.001525879	-0.029296875	-0.540039063	-0.871337891	883.24	0.233589239	-30.28247548	47.09312872	-79
23271	0	0.200769424	0.00279808	0.342899323	0.999998093	4.29153E-05	-0.000112534	-4.19617E-05	5.019235611	0.069952011	8.572483063	0.002145767	-0.005626678	-0.002098084	-0.026855469	-0.540283203	-0.874267578	883.36	0.239593255	-30.28159652	47.0872473	-79
23272	0	0.198949814	0.000340462	0.344982147	0.999999046	-7.72476E-05	6.29425E-05	-1.90735E-05	4.973745346	0.008511543	8.62455368	-0.003862381	0.003147125	-0.000953674	-0.026855469	-0.537841797	-0.871582031	883.36	0.230194734	-30.26063503	47.08414933	-79
23273	0	0.197753906	0.002563477	0.342346191	0.999999046	8.39233E-05	0.000222206	-6.48499E-05	4.943847656	0.064086914	8.558654785	0.004196167	0.011110306	-0.003242493	-0.026855469	-0.540283203	-0.874267578	883.32	0.242362336	-30.22144191	47.07707329	-79
23274	0	0.198149681	0.001242638	0.344874382	0.999999046	0.000284195	0.000305176	3.43323E-05	4.953742027	0.031065941	8.62185955	0.014209748	0.01525879	0.001716614	-0.026855469	-0.537841797	-0.877441406	883.36	0.270817981	-30.17278298	47.07740469	-79
23275	0	0.198425293	0.001586914	0.347045898	0.999999046	0.000286102	9.63211E-05	-8.01086E-05	4.960632324	0.039672852	8.676147461	0.014305115	0.004816055	-0.004005432	-0.026855469	-0.540283203	-0.874267578	883.36	0.307181419	-30.14797287	47.06835686	-79
23276	0	0.199578285	0.004807472	0.347020149	0.999999046	-0.000138283	0.000106812	0.00026989	4.98945713	0.120186806	8.675503731	-0.006914139	0.005340576	0.013494492	-0.026855469	-0.542480469	-0.87109375	883.3	0.271814379	-30.12220725	47.11198037	-79
23277	0	0.196655273	0.001708984	0.34375	0.999999046	0.000183105	0.000115395	0.000133514	4.916381836	0.042724609	8.59375	0.009155274	0.00576973	0.00667572	-0.024414063	-0.540283203	-0.877197266	883.2	0.282363041	-30.09536403	47.12588147	-79
23278	0	0.198285103	0.000804901	0.34458828	0.999999046	0.000183105	0.000200272	5.24521E-05	4.957127571	0.020122528	8.614706993	0.009155274	0.01001358	0.002622604	-0.026855469	-0.537841797	-0.877441406	883.3	0.298222782	-30.05880938	47.12918971	-80
23279	0	0.198913574	0.002441406	0.347900391	0.999999046	2.28882E-05	0.000164986	0.00018692	4.972839355	0.061035156	8.697509766	0.001144409	0.008249283	0.009346008	-0.026855469	-0.540039063	-0.871337891	883.26	0.286877391	-30.02640089	47.15887392	-79
23280	0	0.197701454	0.001710892	0.345705986	0.999999046	-5.05447E-05	4.95911E-05	0.000178337	4.942536354	0.042772293	8.642649651	-0.002527237	0.002479553	0.008916855	-0.024414063	-0.540283203	-0.871582031	883.14	0.267745002	-30.00723196	47.18444199	-79
23281	0	0.196838379	0.00390625	0.345336914	0.999999046	-7.62939E-06	9.53674E-07	0.000102997	4.920959473	0.09765625	8.633422852	-0.00038147	4.76837E-05	0.005149841	-0.024414063	-0.542480469	-0.874267578	883.34	0.258685009	-29.9936002	47.20113591	-79
23282	0	0.197631836	0.002577782	0.343139648	0.999999046	0.000144958	8.96454E-05	0.000254631	4.940795898	0.064444542	8.578491211	0.007247925	0.004482269	0.012731552	-0.024414063	-0.540283203	-0.871582031	883.4	0.25712856	-29.96998205	47.23669325	-79
23283	0	0.198913574	0.000427246	0.344177246	0.999999046	4.19617E-05	0.000496864	0.000404358	4.972839355	0.010681152	8.604431152	0.002098084	0.024843218	0.020217897	-0.021972656	-0.538085938	-0.877685547	883.24	0.233736247	-29.89989539	47.28169497	-79
23284	0	0.198327065	0.001150131	0.345899582	0.999999046	0.000195503	0.00066185	0.000270844	4.958176613	0.028753281	8.647489548	0.009775163	0.033092502	0.013542177	-0.024414063	-0.540283203	-0.874267578	883.3	0.236757889	-29.81093296	47.31964659	-79
23285	0	0.195739746	0.001647949	0.347351074	0.999999046	0.000141144	0.000271797	0.000118256	4.893493652	0.04119873	8.683776855	0.00705719	0.013589859	0.005912781	-0.021972656	-0.542480469	-0.871337891	883.36	0.243724407	-29.76656536	47.33969679	-79
23286	0	0.195001602	0.002920151	0.348187447	0.999999046	2.47955E-05	-0.000137329	0.000164032	4.875040054	0.073003769	8.704686165	0.001239777	-0.006866455	0.008201599	-0.01953125	-0.542724609	-0.877441406	883.24	0.234559718	-29.76902225	47.35713514	-79
23287	0	0.197265625	0.000183105	0.346130371	0.999999046	0.0001297	-0.000315666	-3.8147E-05	4.931640625	0.004577637	8.653259277	0.006484985	-0.01578331	-0.001907349	-0.024169922	-0.542480469	-0.877197266	883.18	0.250653035	-29.79190608	47.35355098	-79
23288	0	0.198095322	0.000837326	0.346492767	0.999999046	5.24521E-05	-0.000268936	-0.000205994	4.952383041	0.020933151	8.662319183	0.002622604	-0.013446808	-0.010299683	-0.024414063	-0.540283203	-0.874267578	883.28	0.268866403	-29.80944366	47.32726422	-79
23289	0	0.196716309	0.001464844	0.346435547	0.999999046	6.48499E-05	-0.000216484	-0.000205994	4.917907715	0.036621094	8.660888672	0.003242493	-0.010824204	-0.010299683	-0.024414063	-0.540283203	-0.868652344	883.28	0.288493873	-29.82099676	47.30552903	-79
23290	0	0.19771862	0.003482819	0.343907356	0.999999046	-5.72205E-05	-4.00543E-05	3.8147E-05	4.942965508	0.087070465	8.597683907	-0.002861023	-0.002002716	0.001907349	-0.021972656	-0.540283203	-0.874511719	883.3	0.278147137	-29.81259641	47.30818567	-79
23291	0	0.197631836	0.002380371	0.344177246	0.999999046	-9.91821E-05	0.000103951	2.28882E-05	4.940795898	0.059509277	8.604431152	-0.004959106	0.005197525	0.001144409	-0.024414063	-0.540283203	-0.874267578	883.28	0.263996475	-29.78781494	47.31359429	-79
23292	0	0.196522713	0.002729416	0.3442173	0.999999046	-3.33786E-05	0.000234604	4.57764E-05	4.913067818	0.068235397	8.60543251	-0.00166893	0.011730194	0.002288818	-0.019775391	-0.540283203	-0.871826172	883.34	0.255913783	-29.74815014	47.31847627	-79
23293	0	0.19543457	0.000915527	0.344482422	0.999999046	0.000328064	0.000401497	0.000183105	4.885864258	0.022888184	8.612060547	0.016403199	0.020074845	0.009155274	-0.021972656	-0.542480469	-0.871337891	883.3	0.280181661	-29.68947782	47.34836348	-79
23294	0	0.196559906	0.00241375	0.347689629	0.999999046	0.000301361	0.000253677	6.10352E-05	4.91399765	0.060343742	8.692240715	0.015068055	0.012683869	0.003051758	-0.021972656	-0.540283203	-0.871582031	883.24	0.309450242	-29.64769925	47.35847788	-79
