Counter	Temperature	VelInc_X	VelInc_Y	VelInc_Z	OriInc_w	OriInc_x	OriInc_y	OriInc_z	Acc_X	Acc_Y	Acc_Z	Gyr_X	Gyr_Y	Gyr_Z	Mag_X	Mag_Y	Mag_Z	Pressure	Roll	Pitch	Yaw	RSSI
2544	0	-0.050421715	-0.388446808	0.028449059	0.999999046	6.96182E-05	-5.34058E-05	-6.19888E-05	-1.26054287	-9.711170197	0.711226463	0.003480911	-0.002670288	-0.003099442	-0.114746094	0.750488281	-0.741943359	883.34	-86.16671723	7.114851049	115.2116456	-70
2545	0	-0.051147461	-0.387695313	0.030151367	0.999999046	0.00050354	2.00272E-05	-3.8147E-05	-1.278686523	-9.692382813	0.75378418	0.025177003	0.001001358	-0.001907349	-0.114746094	0.750732422	-0.736083984	883.24	-86.10777389	7.105555216	115.2039311	-70
2546	0	-0.051119804	-0.387607574	0.031394005	0.999999046	2.86102E-05	9.72748E-05	-2.00272E-05	-1.27799511	-9.690189362	0.784850121	0.001430511	0.004863739	-0.001001358	-0.1171875	0.750732422	-0.739013672	883.24	-86.10424562	7.099011905	115.1875658	-70
2547	0	-0.050598145	-0.388793945	0.029724121	0.999999046	-3.05176E-05	8.58307E-06	-0.000179291	-1.264953613	-9.719848633	0.743103027	-0.001525879	0.000429153	-0.008964539	-0.114501953	0.748291016	-0.741943359	883.22	-86.10638405	7.073610636	115.1797031	-70
2548	0	-0.050520897	-0.388204575	0.029455185	0.999999046	0.000302315	-0.000141144	-0.000149727	-1.263022423	-9.705114365	0.736379623	0.015115738	-0.00705719	-0.007486344	-0.1171875	0.750732422	-0.741943359	883.34	-86.06824394	7.050470586	115.1896462	-70
2549	0	-0.05065918	-0.386901855	0.03112793	0.999999046	0.000106812	-0.000117302	1.14441E-05	-1.266479492	-9.672546387	0.778198242	0.005340576	-0.005865097	0.000572205	-0.114746094	0.750488281	-0.741943359	883.24	-86.05262612	7.046006767	115.1978418	-71
2550	0	-0.049928665	-0.387505531	0.030611992	0.999999046	-0.000310898	5.91278E-05	-6.86646E-05	-1.248216629	-9.687638283	0.765299797	-0.015544892	0.00295639	-0.003433228	-0.114501953	0.748291016	-0.744873047	883.34	-86.08741526	7.0338004	115.1849798	-71
2551	0	-0.050598145	-0.389038086	0.02722168	0.999999046	0.000190735	-0.000124931	7.62939E-05	-1.264953613	-9.725952148	0.680541992	0.009536743	-0.006246567	0.003814697	-0.114746094	0.748291016	-0.739013672	883.28	-86.06212134	7.03678037	115.1947461	-71
2552	0	-0.050040245	-0.388530731	0.030555725	0.999999046	0.000559807	-8.96454E-05	-5.43594E-05	-1.251006126	-9.71326828	0.763893127	0.027990343	-0.00448227	-0.002717972	-0.114501953	0.750488281	-0.744873047	883.34	-85.99513212	7.025125228	115.199242	-70
2553	0	-0.050415039	-0.387084961	0.032470703	0.999999046	0.000236511	8.58307E-06	1.14441E-05	-1.260375977	-9.677124023	0.811767578	0.011825562	0.000429153	0.000572205	-0.114501953	0.748291016	-0.744873047	883.3	-85.96640306	7.021837545	115.1929939	-70
2554	0	-0.050424576	-0.387741089	0.031981468	0.999999046	-0.00043869	-2.47955E-05	-9.91821E-05	-1.260614395	-9.693527222	0.799536705	-0.02193451	-0.001239777	-0.004959107	-0.116943359	0.748291016	-0.744628906	883.24	-86.01461809	7.005692307	115.1899401	-70
2555	0	-0.05090332	-0.38885498	0.028442383	0.999999046	-0.000366211	0.000107765	-0.000137329	-1.272583008	-9.721374512	0.71105957	-0.018310547	0.00538826	-0.006866455	-0.1171875	0.750732422	-0.739013672	883.24	-86.05652422	6.986313461	115.1714848	-70
2556	0	-0.050192833	-0.389011383	0.027474403	0.999999046	0.000214577	-8.7738E-05	-8.86917E-05	-1.254820824	-9.725284576	0.686860085	0.010728836	-0.004386902	-0.004434586	-0.116943359	0.750732422	-0.744873047	883.24	-86.02922301	6.970992688	115.1755924	-70
2557	0	-0.049438477	-0.38873291	0.02911377	0.999999046	0.000434875	-0.000102043	-5.72205E-05	-1.235961914	-9.718322754	0.727844238	0.021743775	-0.005102158	-0.002861023	-0.116943359	0.74609375	-0.741455078	883.24	-85.97650539	6.959166462	115.1816354	-70
2558	0	-0.049937248	-0.387675285	0.030620575	0.999999046	0.000419617	-9.15527E-05	0.000105858	-1.248431206	-9.691882133	0.765514374	0.020980836	-0.004577637	0.005292893	-0.116943359	0.750488281	-0.747802734	883.28	-85.92551556	6.966108857	115.1876571	-70
2559	0	-0.050231934	-0.388000488	0.031738281	0.999999046	-1.90735E-05	-3.71933E-05	0.0001297	-1.25579834	-9.700012207	0.793457031	-0.000953674	-0.001859665	0.006484985	-0.116943359	0.748291016	-0.741699219	883.34	-85.92548536	6.976274405	115.187848	-70
2560	0	-0.050880432	-0.387989044	0.029773712	0.999999046	-6.38962E-05	-2.28882E-05	0.000217438	-1.272010803	-9.699726105	0.744342804	-0.003194809	-0.001144409	0.010871887	-0.116943359	0.748291016	-0.741699219	883.3	-85.93076025	6.996670873	115.1870955	-70
2561	0	-0.050415039	-0.388305664	0.029418945	0.999999046	0.000423431	-0.000189781	-1.90735E-05	-1.260375977	-9.707641602	0.735473633	0.021171571	-0.00948906	-0.000953674	-0.114501953	0.748291016	-0.741943359	883.24	-85.87815945	6.988718469	115.2032721	-70
2562	0	-0.050205231	-0.386267662	0.031657219	0.999999046	1.71661E-05	-0.00015831	-4.19617E-05	-1.255130768	-9.656691551	0.791430473	0.000858307	-0.007915497	-0.002098084	-0.116943359	0.748291016	-0.741699219	883.34	-85.87254632	6.97845494	115.2159625	-70
2563	0	-0.050292969	-0.387329102	0.031860352	0.999999046	-0.00069809	-1.04904E-05	0.000133514	-1.257324219	-9.683227539	0.796508789	-0.034904483	-0.000524521	0.006675721	-0.114501953	0.748291016	-0.744873047	883.3	-85.95075079	6.989514885	115.2125866	-70
2564	0	-0.050580025	-0.389066696	0.029852867	0.999999046	-0.000451088	-5.72205E-06	0.000167847	-1.264500618	-9.726667404	0.746321678	-0.022554398	-0.000286102	0.008392334	-0.114746094	0.750488281	-0.741943359	883.22	-86.0007316	7.004587737	115.2092094	-70
2565	0	-0.050476074	-0.388366699	0.030334473	0.999999046	0.000171661	4.76837E-06	0.000114441	-1.261901855	-9.70916748	0.758361816	0.008583069	0.000238419	0.005722046	-0.114746094	0.750488281	-0.739013672	883.24	-85.97955181	7.013685094	115.2043792	-70
2566	0	-0.050016403	-0.387491226	0.030955315	0.999999046	0.000379562	-0.000135422	0.000228882	-1.25041008	-9.687280655	0.773882866	0.01897812	-0.006771088	0.011444092	-0.114746094	0.750488281	-0.741943359	883.22	-85.93243286	7.034756512	115.2165396	-70
2567	0	-0.05090332	-0.387390137	0.03302002	0.999999046	-1.90735E-05	-0.000136375	0.00037384	-1.272583008	-9.684753418	0.825500488	-0.000953674	-0.006818772	0.018692017	-0.114501953	0.750488281	-0.744873047	883.28	-85.93071064	7.072442307	115.2299089	-70
2568	0	-0.051185608	-0.387659073	0.030882835	0.999999046	-0.00033474	4.19617E-05	0.000152588	-1.279640198	-9.691476822	0.772070885	-0.016736985	0.002098084	0.007629395	-0.116943359	0.748291016	-0.744628906	883.28	-85.96790805	7.086344405	115.2212726	-70
2569	0	-0.051574707	-0.38848877	0.030883789	0.999999046	-0.00031662	-0.000155449	-6.48499E-05	-1.289367676	-9.712219238	0.772094727	-0.015830994	-0.007772446	-0.003242493	-0.116943359	0.748291016	-0.747558594	883.38	-86.00043098	7.073866317	115.2333445	-70
2570	0	-0.050722122	-0.38766098	0.031142235	0.999999046	0.000120163	-0.000190735	-8.86917E-05	-1.268053055	-9.691524506	0.77855587	0.006008148	-0.009536743	-0.004434586	-0.114501953	0.748291016	-0.741943359	883.22	-85.98238786	7.058410605	115.2491612	-70
2571	0	-0.050964355	-0.388366699	0.030700684	0.999999046	8.39233E-05	-0.000170708	0.000148773	-1.274108887	-9.70916748	0.76751709	0.004196167	-0.008535385	0.00743866	-0.114501953	0.748291016	-0.741943359	883.24	-85.96853746	7.070298316	115.2646351	-70
2572	0	-0.050153732	-0.387248039	0.032308578	0.999999046	-0.000184059	-8.7738E-05	-3.8147E-06	-1.253843307	-9.681200981	0.807714462	-0.009202957	-0.004386902	-0.000190735	-0.1171875	0.750732422	-0.739013672	883.24	-85.98663443	7.065415894	115.2699232	-70
2573	0	-0.050476074	-0.38671875	0.030700684	0.999999046	-0.000576019	3.14713E-05	0.000137329	-1.261901855	-9.66796875	0.76751709	-0.028800966	0.001573563	0.006866455	-0.114501953	0.750488281	-0.744873047	883.28	-86.05118394	7.077642733	115.2617781	-71
2574	0	-0.051316261	-0.3888731	0.028844833	0.999998093	-0.000403404	-3.71933E-05	6.38962E-05	-1.282906532	-9.721827507	0.721120834	-0.020170212	-0.001859665	0.003194809	-0.114746094	0.752929688	-0.739257813	883.28	-86.09512089	7.080979833	115.2613711	-71
2575	0	-0.051025391	-0.387634277	0.029418945	0.999999046	0.000282288	-0.000174522	-5.34058E-05	-1.275634766	-9.690856934	0.735473633	0.01411438	-0.00872612	-0.002670288	-0.114746094	0.750488281	-0.741943359	883.3	-86.05866534	7.069869208	115.2756213	-71
2576	0	-0.050485611	-0.386890411	0.031363487	0.999999046	-0.000163078	-0.000125885	0.000125885	-1.262140274	-9.672260284	0.784087181	-0.008153915	-0.006294251	0.006294251	-0.114746094	0.750488281	-0.741943359	883.28	-86.07368765	7.079654243	115.2857144	-70
2577	0	-0.051269531	-0.388549805	0.02935791	0.999999046	-0.000518799	-6.67572E-06	0.000255585	-1.281738281	-9.713745117	0.733947754	-0.025939943	-0.000333786	0.012779237	-0.114501953	0.750488281	-0.744873047	883.38	-86.13107214	7.105247314	115.2829203	-70
2578	0	-0.052383423	-0.388614655	0.02864933	0.999999046	-0.000104904	-7.62939E-06	-0.000161171	-1.309585571	-9.715366364	0.716233253	-0.005245209	-0.00038147	-0.008058548	-0.114746094	0.750488281	-0.741943359	883.3	-86.14146509	7.083276337	115.2771926	-70
2579	0	-0.050964355	-0.38848877	0.029785156	0.999999046	0.000389099	4.76837E-06	-0.000370026	-1.274108887	-9.712219238	0.744628906	0.019454957	0.000238419	-0.018501283	-0.114746094	0.752929688	-0.739257813	883.38	-86.09560873	7.037553074	115.2685853	-71
2580	0	-0.050189972	-0.38813591	0.03130722	0.999999046	0.000592232	-4.19617E-05	-0.000125885	-1.254749298	-9.703397751	0.782680511	0.029611589	-0.002098084	-0.006294251	-0.114746094	0.750488281	-0.739013672	883.18	-86.02550328	7.01938637	115.2672182	-71
2581	0	-0.050415039	-0.387634277	0.031677246	0.999999046	0.000267029	-2.19345E-05	0.000160217	-1.260375977	-9.690856934	0.791931152	0.013351441	-0.001096725	0.008010864	-0.114746094	0.750488281	-0.741943359	883.3	-85.99259471	7.034111257	115.2657236	-71
2582	0	-0.051575661	-0.387784004	0.032069206	0.999999046	-0.000213623	0.000110626	-4.76837E-06	-1.289391518	-9.694600105	0.801730156	-0.010681152	0.005531311	-0.000238419	-0.116943359	0.750488281	-0.747802734	883.28	-86.01671949	7.031112304	115.2477182	-71
2583	0	-0.051757813	-0.387756348	0.030761719	0.999999046	-9.53674E-05	-8.29697E-05	-0.000118256	-1.293945313	-9.693908691	0.769042969	-0.004768372	-0.004148483	-0.005912781	-0.1171875	0.752929688	-0.745117188	883.22	-86.02465758	7.01368172	115.2513106	-70
2584	0	-0.05117321	-0.388079643	0.030451775	0.999999046	7.9155E-05	-7.62939E-05	-0.000370979	-1.279330254	-9.701991081	0.761294365	0.003957749	-0.003814697	-0.018548966	-0.119384766	0.750732422	-0.741699219	883.28	-86.0129361	6.967472575	115.2525268	-70
2585	0	-0.049682617	-0.387695313	0.030273438	0.999999046	0.000278473	-0.000178337	-0.000282288	-1.24206543	-9.692382813	0.756835938	0.013923645	-0.008916855	-0.01411438	-0.114501953	0.750488281	-0.744873047	883.34	-85.97687532	6.930579536	115.2647873	-70
2586	0	-0.050308228	-0.387768745	0.030140877	0.999999046	0.000354767	-0.000125885	-0.000100136	-1.257705688	-9.694218636	0.753521919	0.017738343	-0.006294251	-0.00500679	-0.114501953	0.748291016	-0.744873047	883.48	-85.93265788	6.91496559	115.2725042	-70
2587	0	-0.049743652	-0.387145996	0.033447266	0.999999046	-0.000156403	-0.00014782	1.14441E-05	-1.243591309	-9.678649902	0.836181641	-0.007820129	-0.007390976	0.000572205	-0.119384766	0.748535156	-0.744628906	883.24	-85.94647697	6.91194964	115.2847649	-70
2588	0	-0.051269531	-0.387878418	0.032287598	0.999999046	-0.000502586	5.72205E-05	2.67029E-05	-1.281738281	-9.696960449	0.807189941	-0.025129319	0.002861023	0.001335144	-0.119384766	0.750732422	-0.747558594	883.28	-86.0027238	6.912428362	115.2733045	-70
2589	0	-0.050377846	-0.39005661	0.027830124	0.999998093	4.76837E-06	-8.96454E-05	-0.000358582	-1.259446144	-9.751415253	0.695753098	0.000238419	-0.004482269	-0.017929078	-0.119628906	0.750732422	-0.738769531	883.24	-85.99932119	6.86772267	115.2761393	-71
2590	0	-0.049912453	-0.387582779	0.029052734	0.999999046	0.000478745	-0.000137329	-0.000355721	-1.247811317	-9.689569473	0.726318359	0.023937227	-0.006866456	-0.017786027	-0.116943359	0.748291016	-0.744628906	883.3	-85.94102593	6.822996686	115.2831535	-70
2591	0	-0.049682617	-0.387939453	0.03302002	0.999999046	0.00043869	-0.000109673	-0.000171661	-1.24206543	-9.698486328	0.825500488	0.02193451	-0.005483628	-0.008583069	-0.116943359	0.748535156	-0.738769531	883.28	-85.88742168	6.799569537	115.2889777	-71
2592	0	-0.049238205	-0.387746811	0.03086853	0.999999046	-0.000166893	-0.000104904	-0.00012207	-1.230955124	-9.693670273	0.771713257	-0.00834465	-0.005245209	-0.006103516	-0.116943359	0.748291016	-0.744628906	883.28	-85.90325398	6.781873404	115.2941123	-70
2593	0	-0.048828125	-0.387817383	0.032104492	0.999999046	-0.000507355	4.673E-05	1.90735E-05	-1.220703125	-9.69543457	0.802612305	-0.025367738	0.002336502	0.000953674	-0.119384766	0.748535156	-0.747314453	883.34	-85.95997953	6.781559303	115.2833904	-70
2594	0	-0.049926758	-0.389282227	0.029785156	0.999999046	-0.000114441	-1.52588E-05	-1.52588E-05	-1.248168945	-9.732055664	0.744628906	-0.005722046	-0.000762939	-0.000762939	-0.119384766	0.748535156	-0.741699219	883.34	-85.97093078	6.776875096	115.2799668	-70
2595	0	-0.050231934	-0.388793945	0.029602051	0.999999046	0.000442505	-9.44138E-05	-8.01086E-05	-1.25579834	-9.719848633	0.74005127	0.022125245	-0.004720688	-0.004005432	-0.116943359	0.748291016	-0.744628906	883.28	-85.917109	6.764213075	115.2842548	-70
2596	0	-0.049370766	-0.386881828	0.03263855	0.999999046	0.000216484	-0.000188828	-0.000202179	-1.234269142	-9.672045708	0.815963745	0.010824204	-0.009441376	-0.010108948	-0.119384766	0.748535156	-0.741699219	883.24	-85.88794872	6.736870275	115.2992416	-70
2597	0	-0.04888916	-0.387939453	0.031738281	0.999999046	-0.000125885	9.53674E-07	-0.000156403	-1.222229004	-9.698486328	0.793457031	-0.006294251	4.76837E-05	-0.007820129	-0.119384766	0.750732422	-0.741699219	883.28	-85.90052045	6.716338497	115.2927292	-70
2598	0	-0.04919529	-0.388939857	0.030846596	0.999999046	-0.00019455	-2.86102E-05	6.67572E-06	-1.22988224	-9.723496437	0.771164894	-0.009727478	-0.001430511	0.000333786	-0.119384766	0.748535156	-0.741699219	883.28	-85.92042799	6.714243684	115.2908163	-70
2599	0	-0.049438477	-0.388000488	0.032287598	0.999999046	3.8147E-06	-0.000128746	-3.8147E-05	-1.235961914	-9.700012207	0.807189941	0.000190735	-0.006437302	-0.001907349	-0.119384766	0.746337891	-0.741455078	883.24	-85.91623991	6.706265364	115.2999388	-70
2600	0	-0.048485756	-0.388370514	0.03187561	0.999999046	1.81198E-05	2.86102E-05	-0.000214577	-1.212143898	-9.709262848	0.796890259	0.000905991	0.001430511	-0.010728836	-0.119384766	0.746337891	-0.738525391	883.3	-85.91266054	6.679414584	115.2897081	-70
2601	0	-0.048522949	-0.387695313	0.031738281	0.999999046	-0.000102997	-2.86102E-06	-7.62939E-06	-1.21307373	-9.692382813	0.793457031	-0.005149841	-0.000143051	-0.00038147	-0.119384766	0.748535156	-0.741699219	883.3	-85.92231051	6.675984938	115.2845671	-70
2602	0	-0.048578262	-0.388557434	0.031719208	0.999999046	0.000123978	-8.2016E-05	0.000105858	-1.214456558	-9.713935852	0.792980194	0.006198883	-0.0041008	0.005292892	-0.119384766	0.748535156	-0.744628906	883.3	-85.90475621	6.684902586	115.2892558	-70
2603	0	-0.049682617	-0.387756348	0.032104492	0.999999046	0.000293732	-6.67572E-06	0.000255585	-1.24206543	-9.693908691	0.802612305	0.014686585	-0.000333786	0.012779236	-0.119384766	0.746337891	-0.741455078	883.34	-85.86857253	6.711630573	115.2869401	-70
2604	0	-0.048049927	-0.388446808	0.031111717	0.999999046	0.000346184	-6.29425E-05	-4.95911E-05	-1.201248169	-9.711170197	0.777792931	0.017309189	-0.003147125	-0.002479553	-0.119384766	0.750732422	-0.741699219	883.34	-85.82594321	6.702996872	115.2887338	-70
2605	0	-0.048583984	-0.387023926	0.032470703	0.999999046	7.62939E-05	-0.000174522	8.7738E-05	-1.214599609	-9.675598145	0.811767578	0.003814697	-0.00872612	0.004386902	-0.119384766	0.746337891	-0.741455078	883.28	-85.81257037	6.709143559	115.304305	-70
2606	0	-0.049007416	-0.387742996	0.033157349	0.999999046	-0.000476837	-7.62939E-05	0.000358582	-1.225185394	-9.693574905	0.828933716	-0.023841859	-0.003814697	0.017929078	-0.121826172	0.748535156	-0.741455078	883.3	-85.8635722	6.747101413	115.3117043	-70
2607	0	-0.049865723	-0.389038086	0.030700684	0.999999046	-0.000404358	2.76566E-05	0.000175476	-1.246643066	-9.725952148	0.76751709	-0.020217896	0.001382828	0.008773804	-0.119384766	0.748535156	-0.741699219	883.36	-85.90790434	6.765044203	115.3047168	-70
2608	0	-0.048661232	-0.388497353	0.031176567	0.999999046	-0.000107765	1.33514E-05	0.000114441	-1.2165308	-9.712433815	0.779414177	-0.00538826	0.000667572	0.005722046	-0.119628906	0.750732422	-0.738769531	883.28	-85.9181266	6.775883031	115.2993875	-70
2609	0	-0.049438477	-0.388427734	0.031799316	0.999999046	0.00019455	-4.86374E-05	2.28882E-05	-1.235961914	-9.710693359	0.79498291	0.009727478	-0.00243187	0.001144409	-0.116943359	0.748291016	-0.744628906	883.14	-85.89292376	6.775773943	115.2988129	-70
2610	0	-0.049087524	-0.386704445	0.03311348	0.999999046	-3.05176E-05	-0.000114441	0.00019455	-1.22718811	-9.667611122	0.82783699	-0.001525879	-0.005722046	0.009727478	-0.119384766	0.748535156	-0.741699219	883.28	-85.89235941	6.794766282	115.3085335	-70
2611	0	-0.049133301	-0.388427734	0.033081055	0.999999046	-0.000686646	8.58307E-06	0.000217438	-1.22833252	-9.710693359	0.827026367	-0.034332278	0.000429153	0.010871888	-0.116943359	0.748291016	-0.744628906	883.38	-85.96855244	6.817380474	115.303051	-70
2612	0	-0.049547195	-0.38881588	0.030776024	0.999999046	-0.000538826	-5.14984E-05	0.000231743	-1.238679886	-9.720396996	0.769400597	-0.026941301	-0.002574921	0.011587144	-0.1171875	0.750732422	-0.741943359	883.3	-86.0269895	6.841159437	115.3051635	-71
2613	0	-0.049987793	-0.388671875	0.029541016	0.999999046	-2.67029E-05	-0.000132561	0.000190735	-1.249694824	-9.716796875	0.738525391	-0.001335144	-0.006628037	0.009536743	-0.119384766	0.750732422	-0.741699219	883.3	-86.02572408	6.859638786	115.3171388	-70
2614	0	-0.050555229	-0.387495041	0.031486511	0.999999046	7.05719E-05	-4.76837E-05	-1.23978E-05	-1.26388073	-9.687376022	0.787162781	0.003528595	-0.002384186	-0.000619888	-0.116943359	0.748291016	-0.741699219	883.24	-86.01461996	6.85562473	115.3166687	-70
2615	0	-0.050292969	-0.38861084	0.031494141	0.999999046	0.0001297	-0.000117302	3.43323E-05	-1.257324219	-9.715270996	0.787353516	0.006484985	-0.005865097	0.001716614	-0.1171875	0.750732422	-0.736083984	883.28	-85.99569955	6.856435984	115.3255463	-70
2616	0	-0.049519539	-0.387989998	0.030812263	0.999999046	-9.82285E-05	-0.000202179	0.000125885	-1.237988472	-9.699749947	0.770306587	-0.004911423	-0.010108948	0.006294251	-0.119384766	0.748535156	-0.738769531	883.22	-86.00164076	6.867033527	115.3452002	-70
2617	0	-0.050170898	-0.386779785	0.032165527	0.999999046	-0.000324249	-4.1008E-05	0.000347137	-1.254272461	-9.669494629	0.804138184	-0.016212464	-0.0020504	0.017356873	-0.119384766	0.748535156	-0.741699219	883.3	-86.03540975	6.90424718	115.3477396	-70
2618	0	-0.051110268	-0.389022827	0.029902458	0.999999046	-0.000421524	-1.90735E-05	1.90735E-05	-1.277756691	-9.725570679	0.747561455	-0.021076203	-0.000953674	0.000953674	-0.116943359	0.750732422	-0.744873047	883.3	-86.08098042	6.904184656	115.3437623	-70
2619	0	-0.050048828	-0.388427734	0.028137207	0.999999046	3.05176E-05	1.62125E-05	3.05176E-05	-1.251220703	-9.710693359	0.703430176	0.001525879	0.000810623	0.001525879	-0.1171875	0.750732422	-0.741943359	883.28	-86.07533936	6.905714992	115.3364257	-70
2620	0	-0.049768448	-0.387080193	0.030966759	0.999999046	5.24521E-05	-9.91821E-05	0.000156403	-1.244211197	-9.677004814	0.774168968	0.002622604	-0.004959106	0.007820129	-0.1171875	0.750732422	-0.739013672	883.24	-86.06542641	6.920732008	115.3438665	-70
2621	0	-0.051208496	-0.388671875	0.030822754	0.999999046	-0.000156403	-2.95639E-05	7.62939E-05	-1.280212402	-9.716796875	0.770568848	-0.007820129	-0.001478195	0.003814697	-0.1171875	0.752929688	-0.736328125	883.28	-86.08046513	6.927195304	115.3431402	-70
2622	0	-0.050961494	-0.389162064	0.030215263	0.999999046	-0.000139236	-2.67029E-05	-0.000190735	-1.274037361	-9.72905159	0.755381584	-0.006961823	-0.001335144	-0.009536743	-0.1171875	0.752929688	-0.739257813	883.3	-86.09383376	6.903189634	115.3393614	-70
2623	0	-0.049865723	-0.389526367	0.028198242	0.999999046	0.000217438	-1.43051E-05	-0.00012207	-1.246643066	-9.73815918	0.704956055	0.010871887	-0.000715256	-0.006103516	-0.119628906	0.752929688	-0.741943359	883.46	-86.06654206	6.887122776	115.3353254	-69
2624	0	-0.04983139	-0.388121605	0.030931473	0.999999046	0.000313759	-8.39233E-05	-6.10352E-05	-1.24578476	-9.703040123	0.773286819	0.015687943	-0.004196167	-0.003051758	-0.1171875	0.750732422	-0.739013672	883.3	-86.02715937	6.877484776	115.3389825	-70
2625	0	-0.049987793	-0.38684082	0.031433105	0.999999046	-6.48499E-05	-6.67572E-06	4.57764E-05	-1.249694824	-9.671020508	0.785827637	-0.003242493	-0.000333786	0.002288818	-0.119628906	0.752929688	-0.744873047	883.28	-86.03207799	6.880689807	115.3349849	-70
2626	0	-0.049962044	-0.388244629	0.030039787	0.999999046	-0.000652313	7.24792E-05	9.91821E-05	-1.249051094	-9.706115723	0.750994682	-0.032615664	0.003623963	0.004959107	-0.1171875	0.752929688	-0.739257813	883.34	-86.10538399	6.890626954	115.3219463	-70
2627	0	-0.050415039	-0.389160156	0.029296875	0.999999046	-0.000209808	-2.95639E-05	3.8147E-06	-1.260375977	-9.729003906	0.732421875	-0.010490418	-0.001478195	0.000190735	-0.1171875	0.752929688	-0.736328125	883.24	-86.12670657	6.888881541	115.3202893	-70
2628	0	-0.050233841	-0.387646675	0.02999115	0.999999046	0.00039196	3.24249E-05	-9.53674E-07	-1.255846024	-9.691166878	0.749778748	0.019598008	0.001621246	-4.76837E-05	-0.1171875	0.750732422	-0.739013672	883.24	-86.07992453	6.887096261	115.3110398	-70
2629	0	-0.049926758	-0.387695313	0.031616211	0.999999046	0.000389099	-4.1008E-05	-0.000232697	-1.248168945	-9.692382813	0.790405273	0.019454957	-0.0020504	-0.011634827	-0.1171875	0.750732422	-0.736083984	883.28	-86.03260377	6.858254478	115.3088413	-70
2630	0	-0.049073219	-0.388000488	0.030639648	0.999999046	6.86646E-05	-4.00543E-05	-0.000164032	-1.226830482	-9.700012207	0.765991211	0.003433228	-0.002002716	-0.008201599	-0.1171875	0.750732422	-0.741943359	883.3	-86.02194492	6.837240596	115.3059868	-70
2631	0	-0.04864502	-0.387878418	0.030517578	0.999999046	-3.8147E-06	3.52859E-05	7.62939E-06	-1.216125488	-9.696960449	0.762939453	-0.000190735	0.001764297	0.00038147	-0.119628906	0.750732422	-0.738769531	883.28	-86.0204687	6.836412542	115.2976613	-70
2632	0	-0.050301552	-0.388244629	0.02941227	0.999999046	-0.000159264	-2.28882E-05	-2.00272E-05	-1.257538795	-9.706115723	0.73530674	-0.007963181	-0.001144409	-0.001001358	-0.116943359	0.748291016	-0.741699219	883.28	-86.03609466	6.831997391	115.2936404	-70
2633	0	-0.050292969	-0.388305664	0.030029297	0.999999046	4.57764E-05	-4.48227E-05	-5.34058E-05	-1.257324219	-9.707641602	0.750732422	0.002288818	-0.002241135	-0.002670288	-0.1171875	0.750732422	-0.736083984	883.24	-86.02798226	6.823635969	115.2931744	-70
2634	0	-0.049943924	-0.387331963	0.032998085	0.999999046	-0.000616074	0.000127792	-0.000221252	-1.248598099	-9.683299065	0.824952126	-0.030803683	0.006389618	-0.011062623	-0.1171875	0.750732422	-0.741943359	883.24	-86.09809685	6.797472224	115.2702175	-70
2635	0	-0.049560547	-0.386352539	0.030761719	0.999998093	-0.001631737	0.000263214	-0.000305176	-1.239013672	-9.658813477	0.769042969	-0.081586876	0.013160712	-0.015258796	-0.119628906	0.750732422	-0.735839844	883.24	-86.28646164	6.762725706	115.2329292	-70
2636	0	-0.048604012	-0.390863419	0.02567482	0.999998093	-0.0014534	0.00014019	-0.000229836	-1.215100288	-9.771585464	0.641870499	-0.072670009	0.007009509	-0.01149178	-0.119873047	0.755371094	-0.736328125	883.18	-86.45280019	6.735550375	115.2101999	-70
2637	0	-0.04864502	-0.39239502	0.020263672	0.999999046	0.001003265	-0.000231743	0.00030899	-1.216125488	-9.809875488	0.506591797	0.050163279	-0.011587145	0.015449527	-0.117431641	0.757568359	-0.733642578	883.22	-86.3325192	6.767274446	115.2339326	-70
2638	0	-0.050765991	-0.389442444	0.026683807	0.999993324	0.003538132	-0.000459671	0.000182152	-1.26914978	-9.736061096	0.667095184	0.176906962	-0.0229836	0.009107609	-0.1171875	0.752929688	-0.739257813	883.3	-85.91884031	6.782702627	115.2826486	-70
2639	0	-0.049133301	-0.384765625	0.037658691	0.999996185	0.00257206	-0.00038147	-0.000411987	-1.22833252	-9.619140625	0.941467285	0.12860313	-0.019073508	-0.020599389	-0.116699219	0.748291016	-0.750488281	883.3	-85.61717031	6.730600887	115.3150341	-70
2640	0	-0.048483849	-0.385417938	0.036381721	0.999999046	2.19345E-05	7.43866E-05	-0.000245094	-1.212096214	-9.635448456	0.909543037	0.001096725	0.00371933	-0.012254715	-0.119140625	0.746337891	-0.744384766	883.28	-85.61356087	6.701470614	115.2987668	-70
2641	0	-0.049377441	-0.387451172	0.034484863	0.999999046	-0.001274109	0.000187874	2.28882E-05	-1.234436035	-9.686279297	0.862121582	-0.063705462	0.009393695	0.001144409	-0.119140625	0.74609375	-0.747314453	883.22	-85.75965316	6.703960416	115.2709115	-70
2642	0	-0.049590111	-0.389478683	0.02950573	0.999999046	-0.00075531	3.43323E-05	-0.000206947	-1.239752769	-9.736967087	0.737643242	-0.037765507	0.001716614	-0.010347367	-0.121582031	0.746337891	-0.744140625	883.28	-85.84461509	6.678885076	115.2604692	-70
2643	0	-0.048522949	-0.388977051	0.029602051	0.999999046	0.000267029	-0.00014782	-0.000171661	-1.21307373	-9.72442627	0.74005127	0.013351441	-0.007390976	-0.008583069	-0.119140625	0.746337891	-0.744384766	883.34	-85.81006192	6.656310728	115.2695732	-70
2644	0	-0.046548843	-0.386594772	0.034887314	0.999999046	0.000126839	-3.43323E-05	0.000151634	-1.163721085	-9.664869308	0.872182846	0.006341934	-0.001716614	0.007581711	-0.121826172	0.748535156	-0.741455078	883.28	-85.79262055	6.671552053	115.27101	-70
2645	0	-0.047119141	-0.385437012	0.036499023	0.999996185	-0.002367973	0.000457764	0.000946045	-1.177978516	-9.635925293	0.912475586	-0.118398799	0.022888209	0.047302299	-0.119384766	0.748535156	-0.741699219	883.3	-86.06670625	6.781545307	115.2209526	-70
2646	0	-0.051117897	-0.388963699	0.029298782	0.999991417	-0.003803253	0.000673294	0.000678062	-1.277947426	-9.724092484	0.732469559	-0.190163146	0.03366479	0.033903209	-0.1171875	0.752929688	-0.739257813	883.38	-86.50867625	6.862275698	115.1425159	-70
2647	0	-0.051513672	-0.391967773	0.020751953	0.999997139	-0.001995087	0.0002985	0.000152588	-1.287841797	-9.799194336	0.518798828	-0.099754402	0.014925013	0.0076294	-0.115234375	0.759765625	-0.730957031	883.34	-86.73918081	6.879983929	115.1039161	-70
2648	0	-0.051279068	-0.390935898	0.019771576	0.999999046	0.000840187	-0.000133514	-8.86917E-05	-1.2819767	-9.773397446	0.494289398	0.042009359	-0.006675721	-0.004434586	-0.112792969	0.759521484	-0.728271484	883.3	-86.63933034	6.867241271	115.1125946	-70
2649	0	-0.049438477	-0.388427734	0.026489258	0.999998093	0.001782417	-0.000202179	-0.000305176	-1.235961914	-9.710693359	0.662231445	0.089120914	-0.010108953	-0.015258797	-0.115234375	0.757324219	-0.733886719	883.28	-86.43073674	6.82921656	115.1281766	-70
2650	0	-0.048825264	-0.385914803	0.029348373	0.999999046	0.000667572	-0.000219345	-0.000125885	-1.220631599	-9.647870064	0.733709335	0.033378604	-0.010967256	-0.006294251	-0.114990234	0.757324219	-0.736816406	883.34	-86.34942439	6.81150694	115.1461147	-70
2651	0	-0.049255371	-0.38684082	0.02947998	0.999999046	-0.000740051	8.4877E-05	0.000102997	-1.231384277	-9.671020508	0.736999512	-0.037002567	0.004243851	0.005149842	-0.114990234	0.757324219	-0.736816406	883.22	-86.43330424	6.822166042	115.1305876	-70
2652	0	-0.049157143	-0.38918972	0.025904655	0.999999046	-0.001023293	5.53131E-05	0.000216484	-1.228928566	-9.729743004	0.647616386	-0.051164636	0.002765656	0.010824205	-0.114990234	0.757324219	-0.736816406	883.24	-86.54923789	6.84555027	115.1190963	-70
2653	0	-0.049316406	-0.388183594	0.024108887	0.999999046	-0.000705719	0.000248909	0.000320435	-1.232910156	-9.704589844	0.602722168	-0.035285954	0.012445451	0.01602173	-0.115234375	0.757324219	-0.733886719	883.3	-86.63150996	6.88211436	115.0871479	-70
2654	0	-0.050373077	-0.389896393	0.025180817	0.999999046	-0.000473022	0.000341415	0.00037384	-1.259326935	-9.747409821	0.629520416	-0.023651125	0.017070772	0.018692018	-0.115234375	0.759521484	-0.736816406	883.42	-86.68844078	6.925385199	115.0449224	-70
2655	0	-0.051879883	-0.389099121	0.024353027	0.999999046	3.43323E-05	0.000100136	0.000160217	-1.29699707	-9.727478027	0.608825684	0.001716614	0.00500679	0.008010864	-0.115234375	0.759765625	-0.730957031	883.3	-86.68415038	6.942685165	115.0307964	-70
2656	0	-0.050605774	-0.388715744	0.025162697	0.999999046	0.000304222	-0.000127792	-0.000125885	-1.265144348	-9.7178936	0.629067421	0.015211106	-0.006389618	-0.006294251	-0.112792969	0.757324219	-0.733886719	883.3	-86.64601968	6.925747524	115.0380952	-70
2657	0	-0.049560547	-0.38873291	0.025024414	0.999999046	0.000350952	-3.33786E-05	-0.000144958	-1.239013672	-9.718322754	0.625610352	0.017547608	-0.00166893	-0.007247925	-0.112792969	0.759521484	-0.731201172	883.3	-86.60391479	6.907222848	115.0353119	-69
2658	0	-0.049201965	-0.388790131	0.026398659	0.999999046	0.000408173	-8.39233E-05	0.000141144	-1.230049133	-9.719753265	0.659966469	0.020408631	-0.004196167	0.00705719	-0.112792969	0.757324219	-0.733886719	883.3	-86.55430907	6.921031724	115.0397078	-69
2659	0	-0.050292969	-0.387512207	0.025939941	0.999999046	0.000183105	-9.82285E-05	0.000148773	-1.257324219	-9.687805176	0.648498535	0.009155274	-0.004911423	0.00743866	-0.115234375	0.759521484	-0.733886719	883.28	-86.53031948	6.935625028	115.0480969	-70
2660	0	-0.050708771	-0.387854576	0.025969505	0.999999046	-1.62125E-05	-0.000110626	3.43323E-05	-1.267719269	-9.696364403	0.649237633	-0.000810623	-0.005531311	0.001716614	-0.112792969	0.757324219	-0.730957031	883.4	-86.52912658	6.937061343	115.0556043	-70
2661	0	-0.050354004	-0.389160156	0.024963379	0.999999046	0.000205994	-0.000128746	-0.000183105	-1.258850098	-9.729003906	0.624084473	0.010299683	-0.006437302	-0.009155274	-0.112548828	0.757324219	-0.736816406	883.28	-86.50249387	6.913493597	115.0617118	-70
2662	0	-0.049533844	-0.387336731	0.02702713	0.999999046	0.000305176	-0.000183105	-3.52859E-05	-1.2383461	-9.683418274	0.675678253	0.015258789	-0.009155274	-0.001764298	-0.112792969	0.757324219	-0.730957031	883.28	-86.46360852	6.906421905	115.0768656	-70
2663	0	-0.049987793	-0.388183594	0.026916504	0.999999046	-4.57764E-05	-9.44138E-05	-3.8147E-06	-1.249694824	-9.704589844	0.672912598	-0.002288818	-0.004720688	-0.000190735	-0.115234375	0.757324219	-0.733886719	883.36	-86.46615336	6.903568296	115.0830646	-70
2664	0	-0.050102234	-0.387210846	0.028354645	0.999999046	-0.000132561	-0.000131607	0.000110626	-1.252555847	-9.680271149	0.708866119	-0.006628037	-0.006580353	0.005531311	-0.112548828	0.755126953	-0.736572266	883.28	-86.47795649	6.913544671	115.0910924	-70
2665	0	-0.049560547	-0.388061523	0.026000977	0.999999046	-0.000106812	-2.19345E-05	3.8147E-05	-1.239013672	-9.701538086	0.650024414	-0.005340576	-0.001096725	0.001907349	-0.115234375	0.757324219	-0.730957031	883.28	-86.48844806	6.91598158	115.0900456	-70
2666	0	-0.049955368	-0.388673782	0.02610302	0.999999046	0.000402451	-0.000253677	-7.34329E-05	-1.248884201	-9.716844559	0.652575493	0.020122529	-0.012683869	-0.003671646	-0.112548828	0.755126953	-0.736572266	883.24	-86.43750429	6.904001581	115.1106141	-70
2667	0	-0.05065918	-0.387390137	0.028625488	0.999999046	0.000198364	-0.000166893	6.10352E-05	-1.266479492	-9.684753418	0.715637207	0.009918213	-0.00834465	0.003051758	-0.114990234	0.755126953	-0.736572266	883.22	-86.41096498	6.908042492	115.1243049	-70
2668	0	-0.050209045	-0.387495041	0.028734207	0.999999046	-0.000185966	-1.14441E-05	0.000141144	-1.255226135	-9.687376022	0.718355179	-0.009298325	-0.000572205	0.00705719	-0.115234375	0.757324219	-0.730957031	883.18	-86.43048637	6.922368051	115.1228505	-70
2669	0	-0.049987793	-0.387939453	0.02557373	0.999999046	-1.90735E-05	-1.04904E-05	0.000167847	-1.249694824	-9.698486328	0.639343262	-0.000953674	-0.000524521	0.008392334	-0.114990234	0.755126953	-0.730712891	883.24	-86.43096607	6.939745537	115.1211969	-70
2670	0	-0.050178528	-0.3881073	0.026658058	0.999999046	0.000383377	-0.000173569	0.000102043	-1.254463196	-9.702682495	0.666451454	0.019168854	-0.008678437	0.005102158	-0.114990234	0.755126953	-0.736572266	883.3	-86.38314687	6.948419899	115.1362371	-70
2671	0	-0.049560547	-0.387084961	0.029846191	0.999999046	0.000484467	-0.00026226	0.000179291	-1.239013672	-9.677124023	0.746154785	0.024223329	-0.013113023	0.008964539	-0.114990234	0.755126953	-0.733642578	883.28	-86.32231591	6.965232008	115.1631688	-70
2672	0	-0.049440384	-0.387223244	0.029026031	0.999999046	-1.04904E-05	-0.000133514	0.00012207	-1.236009598	-9.680581093	0.725650787	-0.000524521	-0.00667572	0.006103516	-0.114990234	0.757324219	-0.739746094	883.34	-86.31999479	6.976383982	115.1732613	-70
2673	0	-0.050537109	-0.389465332	0.028137207	0.999999046	-9.91821E-05	-4.48227E-05	0.000137329	-1.263427734	-9.736633301	0.703430176	-0.004959106	-0.002241135	0.006866455	-0.114990234	0.755126953	-0.736572266	883.24	-86.32906852	6.989926164	115.1740315	-70
2674	0	-0.051130295	-0.388541222	0.026599884	0.999999046	0.000329971	-0.000135422	0.000174522	-1.27825737	-9.71353054	0.664997101	0.016498566	-0.006771088	0.00872612	-0.115234375	0.757324219	-0.733886719	883.24	-86.28773726	7.007078903	115.1871354	-70
2675	0	-0.05078125	-0.387329102	0.030212402	0.999999046	0.000171661	-8.29697E-05	6.10352E-05	-1.26953125	-9.683227539	0.755310059	0.008583069	-0.004148483	0.003051758	-0.114990234	0.752929688	-0.73046875	883.3	-86.26528528	7.011644319	115.1936613	-70
2676	0	-0.050824165	-0.38780117	0.029254913	0.999999046	-1.62125E-05	-0.000110626	3.05176E-05	-1.270604134	-9.695029259	0.731372833	-0.000810623	-0.005531311	0.001525879	-0.114990234	0.757324219	-0.739746094	883.24	-86.26396098	7.012514854	115.2006315	-70
2677	0	-0.05090332	-0.388061523	0.028747559	0.999999046	-3.43323E-05	-7.15256E-05	0.000110626	-1.272583008	-9.701538086	0.718688965	-0.001716614	-0.003576279	0.005531311	-0.114990234	0.755126953	-0.739501953	883.24	-86.26517881	7.022843575	115.2035388	-70
2678	0	-0.050374985	-0.387869835	0.02799511	0.999999046	6.67572E-05	-4.00543E-05	9.05991E-05	-1.259374619	-9.696745872	0.699877739	0.00333786	-0.002002716	0.004529953	-0.112548828	0.755126953	-0.736572266	883.28	-86.25530004	7.031092935	115.2014224	-70
2679	0	-0.050720215	-0.388000488	0.028991699	0.999999046	-5.34058E-05	-6.00815E-05	0.000137329	-1.268005371	-9.700012207	0.72479248	-0.002670288	-0.003004074	0.006866455	-0.114990234	0.755126953	-0.736572266	883.24	-86.25884825	7.044530926	115.2045061	-70
2680	0	-0.051433563	-0.387562752	0.028590202	0.999999046	-0.000231743	1.52588E-05	0.000106812	-1.285839081	-9.689068794	0.714755058	-0.011587143	0.000762939	0.005340576	-0.114990234	0.755126953	-0.736572266	883.28	-86.28392446	7.055067605	115.1986932	-70
2681	0	-0.052001953	-0.388305664	0.027832031	0.999999046	-0.000179291	-4.48227E-05	-0.000244141	-1.300048828	-9.707641602	0.695800781	-0.008964539	-0.002241135	-0.012207031	-0.114990234	0.755126953	-0.733642578	883.24	-86.30249337	7.025071152	115.1976066	-70
2682	0	-0.049796104	-0.388157845	0.028184891	0.999999046	0.00019455	-0.000171661	-0.000245094	-1.244902611	-9.703946114	0.704622269	0.009727478	-0.008583069	-0.012254715	-0.114746094	0.755126953	-0.742431641	883.28	-86.27644228	6.993966469	115.2073659	-71
2683	0	-0.049926758	-0.387207031	0.029724121	0.999999046	0.000389099	-0.000144005	3.43323E-05	-1.248168945	-9.680175781	0.743103027	0.019454957	-0.007200241	0.001716614	-0.112548828	0.755126953	-0.739501953	883.32	-86.22816449	6.994979039	115.2150098	-71
2684	0	-0.051044464	-0.387730598	0.02924633	0.999999046	0.000153542	3.8147E-06	0.000166893	-1.276111603	-9.693264961	0.731158257	0.007677078	0.000190735	0.00834465	-0.114990234	0.755126953	-0.736572266	883.3	-86.20881222	7.012286827	115.2107009	-71
2685	0	-0.051391602	-0.388122559	0.028442383	0.999999046	-3.8147E-05	8.58307E-06	-9.15527E-05	-1.284790039	-9.703063965	0.71105957	-0.001907349	0.000429153	-0.004577637	-0.117431641	0.755126953	-0.739257813	883.3	-86.21176294	7.000115034	115.2053225	-71
2686	0	-0.050100327	-0.388318062	0.02822876	0.999999046	7.82013E-05	1.14441E-05	-0.000156403	-1.252508163	-9.707951546	0.705718994	0.003910065	0.000572205	-0.007820129	-0.112548828	0.752929688	-0.733642578	883.28	-86.201512	6.980514729	115.1954222	-71
2687	0	-0.050598145	-0.388305664	0.02722168	0.999999046	0.000499725	-0.000178337	-0.000167847	-1.264953613	-9.707641602	0.680541992	0.024986268	-0.008916855	-0.008392334	-0.114990234	0.752929688	-0.733398438	883.18	-86.14040821	6.958163752	115.2098788	-71
2688	0	-0.049908638	-0.387255669	0.029518127	0.999999046	0.000229836	-0.000225067	-2.67029E-05	-1.24771595	-9.681391716	0.737953186	0.011491776	-0.011253357	-0.001335144	-0.114746094	0.752929688	-0.7421875	883.28	-86.10943772	6.95155355	115.2270531	-72
2689	0	-0.050231934	-0.388366699	0.030578613	0.999999046	-0.000366211	-4.1008E-05	-5.72205E-05	-1.25579834	-9.70916748	0.764465332	-0.018310547	-0.0020504	-0.002861023	-0.1171875	0.752929688	-0.7421875	883.2	-86.14931572	6.942873894	115.2251257	-72
2690	0	-0.050185204	-0.388637543	0.028283119	0.999999046	-0.000289917	-7.43866E-05	2.95639E-05	-1.254630089	-9.715938568	0.70707798	-0.01449585	-0.00371933	0.001478195	-0.1171875	0.752929688	-0.739257813	883.3	-86.17995942	6.943852745	115.2285463	-72
2691	0	-0.050537109	-0.388793945	0.028808594	0.999999046	0.000110626	-0.000113487	8.39233E-05	-1.263427734	-9.719848633	0.720214844	0.005531311	-0.005674362	0.004196167	-0.119628906	0.750732422	-0.738769531	883.24	-86.16412685	6.950759209	115.2394943	-72
2692	0	-0.047422409	-0.391648293	0.032567978	0.999999046	-0.000189781	0.000118256	0.00044632	-1.185560226	-9.791207314	0.814199448	-0.00948906	0.005912781	0.02231598	-0.1171875	0.752929688	-0.736328125	883.24	-86.18545531	7.000701798	115.2258545	-72
2693	0	-0.034301758	-0.403625488	0.034179688	0.999984741	-0.003535271	0.000911713	0.004058838	-0.857543945	-10.09063721	0.854492188	-0.176764413	0.045585859	0.202942903	-0.114990234	0.752929688	-0.736328125	883.34	-86.59825907	7.468539174	115.1498394	-72
2694	0	-0.034767151	-0.506857872	0.03865242	0.99985981	0.000213623	0.003141403	0.016441345	-0.869178772	-12.6714468	0.966310501	0.010681651	0.157077497	0.82210566	-0.103515625	0.763671875	-0.729248047	883.28	-86.60847345	9.366060328	114.9244215	-72
2695	0	-0.091552734	-0.641723633	0.000732422	0.999452591	0.006810188	-0.001052856	0.032333374	-2.288818359	-16.04309082	0.018310547	0.340571471	-0.052652416	1.616963332	-0.064941406	0.764648438	-0.734375	883.3	-85.75529502	13.05023714	115.3375672	-71
2696	0	-0.103784561	-0.654353142	-0.028474808	0.998446465	0.022759438	-0.007526398	0.050283432	-2.594614029	-16.35882854	-0.711870193	1.138561234	-0.376514782	2.515473691	-0.013916016	0.753662109	-0.747802734	883.22	-82.74005035	18.69206006	116.9030574	-72
2697	0	-0.083374023	-0.705688477	-0.063842773	0.996793747	0.021840096	-0.015403748	0.075408936	-2.084350586	-17.64221191	-1.596069336	1.09317309	-0.771011386	3.774480703	0.055175781	0.724121094	-0.775634766	883.22	-78.92844106	26.93827453	120.3962921	-79
2698	0	-0.148859024	-0.790866852	-0.107577324	0.994728088	0.017777443	-0.025122643	0.097813606	-3.721475601	-19.7716713	-2.689433098	0.890437265	-1.258343913	4.899291783	0.146240234	0.687255859	-0.809570313	883.24	-73.47341812	37.14350042	126.992717	-72
2699	0	-0.178100586	-0.871398926	-0.133483887	0.990769386	0.026058197	-0.042014122	0.126216888	-4.452514648	-21.78497314	-3.337097168	1.306933354	-2.10719327	6.330332876	0.240478516	0.632080078	-0.833740234	883.28	-61.11710119	48.69682824	140.9754238	-70
2700	0	-0.080330849	-0.808506012	-0.134157181	0.984862328	0.035891533	-0.060228348	0.158525467	-2.008271217	-20.2126503	-3.35392952	1.803687004	-3.02670517	7.966511917	0.327636719	0.525390625	-0.887939453	883.3	-33.36370956	57.61899834	170.763676	-66
2701	0	0.017944336	-0.663391113	-0.087097168	0.980413437	0.038514137	-0.074440002	0.178226471	0.448608398	-16.58477783	-2.177429199	1.938378804	-3.746492409	8.969963711	0.374755859	0.357177734	-0.958251953	883.28	4.425885796	54.28885963	-148.6384879	-64
2702	0	0.21067524	-0.465560913	-0.063426971	0.978222847	0.059812546	-0.074541092	0.184241295	5.266880989	-11.63902283	-1.585674286	3.012526622	-3.754346533	9.27952152	0.341064453	0.16015625	-1.021728516	883.24	30.50141093	39.47738542	-121.5568142	-64
2703	0	0.380249023	-0.227111816	-0.029724121	0.979683876	0.055458069	-0.060740471	0.18290329	9.506225586	-5.67779541	-0.743103027	2.791835175	-3.057758531	9.207602223	0.227050781	-0.069580078	-1.060302734	883.18	44.28801221	21.10350384	-106.0136389	-66
2704	0	0.436052322	-0.084383011	0.008246422	0.984266281	0.014894485	-0.036160469	0.172307968	10.90130806	-2.109575272	0.206160545	0.748654728	-1.817565713	8.660868158	0.079345703	-0.212646484	-1.060546875	883.3	48.36120053	3.918909562	-94.38070554	-67
2705	0	0.5078125	-0.039428711	0.046875	0.988080978	-0.021437645	-0.015415192	0.151649475	12.6953125	-0.985717773	1.171875	-1.076161029	-0.773836331	7.61274177	-0.040527344	-0.215332031	-1.059326172	883.28	45.26643557	-9.974295937	-83.3268152	-71
2706	0	0.57331562	0.033622742	0.065999985	0.991364479	-0.03585434	0.002037048	0.126119614	14.33289051	0.840568542	1.649999619	-1.797895028	0.102146606	6.324194753	-0.108886719	-0.134277344	-1.059570313	883.24	38.20188297	-19.42153905	-71.82154731	-76
2707	0	0.550292969	0.02331543	0.149963379	0.992508888	-0.057167053	0.001645088	0.107952118	13.75732422	0.582885742	3.749084473	-2.865510724	0.082460396	5.411122914	-0.111328125	-0.015380859	-1.072265625	883.24	27.16433768	-25.94435051	-60.16546926	-87
2708	0	0.674808502	-0.018615723	0.28728199	0.994256973	-0.054101944	-0.008984566	0.091891289	16.87021255	-0.465393066	7.182049751	-2.710287005	-0.450090144	4.603379241	-0.094482422	0.141357422	-1.060058594	883.24	15.80016374	-30.770161	-49.21457082	-91
2709	0	0.682983398	-0.038635254	0.374694824	0.996234894	-0.037718773	-0.027462006	0.073062897	17.07458496	-0.965881348	9.367370605	-1.888308824	-1.374825944	3.657735977	-0.088134766	0.264648438	-1.038574219	883.28	6.44740241	-35.49641387	-39.90843542	-85
2710	0	0.580055237	0.001540184	0.40657711	0.997382164	-0.022188187	-0.044591904	0.052415848	14.50138092	0.038504601	10.16442776	-1.110378311	-2.231542555	2.623081438	-0.118896484	0.353515625	-1.012207031	883.28	-0.672124196	-40.93097687	-32.44362043	-79
2711	0	0.517333984	0.011291504	0.388122559	0.998212814	0.013588905	-0.046394348	0.035118103	12.93334961	0.282287598	9.703063965	0.67985023	-2.321100007	1.756951707	-0.169433594	0.400390625	-0.987060547	883.28	-3.150982383	-46.13747863	-26.70410989	-77
2712	0	0.498177528	0.054944038	0.328666687	0.99887085	0.029483795	-0.033190727	0.016860008	12.45443821	1.37360096	8.216667175	1.474744415	-1.660160754	0.843317587	-0.238037109	0.375732422	-0.987060547	883.24	-2.149925024	-49.87079277	-23.7088903	-79
2713	0	0.427246094	0.063110352	0.309570313	0.999764442	0.012241364	-0.017764091	0.002315521	10.68115234	1.577758789	7.739257813	0.612116211	-0.88827428	0.115785148	-0.284179688	0.334716797	-0.989746094	883.28	-1.181201099	-51.91934322	-23.27955007	-81
2714	0	0.391235352	0.054170609	0.303583145	0.999976158	0.002281189	-0.002828598	-0.005821228	9.780883789	1.354265213	7.589578629	0.114060343	-0.141431011	-0.291063686	-0.310058594	0.317626953	-0.987060547	883.3	-0.097318704	-52.27155868	-24.42506482	-81
2715	0	0.34387207	0.003723145	0.262451172	0.999954224	0.000184059	0.001304626	-0.00944519	8.596801758	0.093078613	6.561279297	0.009203097	0.065232312	-0.47226668	-0.317138672	0.315673828	-0.986328125	883.34	1.289718319	-52.13120875	-26.25512657	-79
2716	0	0.298314095	0.026005745	0.263648987	0.999934196	0.000487328	0.000463486	-0.011418343	7.457852364	0.650143623	6.59122467	0.02436691	0.023174791	-0.570929579	-0.321533203	0.3046875	-0.985107422	883.24	2.998350042	-52.04799554	-28.42931969	-75
2717	0	0.252807617	0.043762207	0.240783691	0.999976158	0.00163269	-0.000430107	-0.006641388	6.32019043	1.094055176	6.019592285	0.08163516	-0.021505524	-0.332071996	-0.325927734	0.295654297	-0.987060547	883.24	4.144007421	-52.06636973	-29.70672994	-74
2718	0	0.257646561	0.074379921	0.214507103	0.999988556	-0.00398922	0.002112389	0.001501083	6.441164017	1.859498024	5.362677574	-0.199461736	0.105619829	0.075054452	-0.327880859	0.286865234	-0.986328125	883.22	3.433218823	-51.85144726	-29.40885511	-73
2719	0	0.233947754	0.082092285	0.189819336	0.999691963	-0.021591187	0.003857613	0.011562347	5.848693848	2.052307129	4.745483398	-1.079669966	0.192900398	0.57817662	-0.319335938	0.311279297	-0.985839844	883.24	-0.736969753	-51.45490288	-27.21792728	-73
2720	0	0.253137589	0.039776802	0.236868858	0.999511719	-0.020923615	0.00698185	0.022130966	6.328439713	0.994420052	5.921721458	-1.046351035	0.349149313	1.106728447	-0.305175781	0.366943359	-0.970947266	883.22	-6.206398984	-50.51472747	-23.25670354	-75
2721	0	0.277099609	0.035339355	0.220031738	0.999317169	-0.023432732	0.010391235	0.02658844	6.927490234	0.883483887	5.500793457	-1.1719031	0.519679955	1.329724408	-0.266845703	0.417480469	-0.956787109	883.28	-12.21688382	-48.86325874	-18.8782171	-78
2722	0	0.302221298	-0.002548218	0.222708702	0.999336243	-0.020524025	0.01066494	0.028126717	7.555532455	-0.063705444	5.567717552	-1.026428189	0.53336492	1.406646837	-0.223876953	0.4765625	-0.946777344	883.3	-17.66565494	-46.86468418	-14.6943416	-79
2723	0	0.306335449	-0.043273926	0.230957031	0.999033928	-0.033164978	0.008286476	0.027599335	7.65838623	-1.081848145	5.773925781	-1.658782853	0.414457218	1.380411081	-0.173828125	0.53125	-0.930664063	883.24	-24.1648132	-44.86431142	-10.88760083	-75
2724	0	0.305473328	-0.126791	0.268345833	0.998828888	-0.038984299	0.004992485	0.028203011	7.636833191	-3.169775009	6.708645821	-1.949975967	0.249721713	1.410701093	-0.129638672	0.606201172	-0.895507813	883.24	-31.13486695	-42.87417557	-7.223027715	-72
2725	0	0.281799316	-0.179016113	0.256103516	0.99861145	-0.042132378	0.00428772	0.031311035	7.04498291	-4.475402832	6.402587891	-2.107594025	0.214485225	1.566276444	-0.0859375	0.681396484	-0.840087891	883.3	-38.34703038	-40.44190498	-3.591372118	-70
2726	0	0.240120888	-0.212426186	0.224568367	0.998717308	-0.039211273	0.003845215	0.031797409	6.003022194	-5.31065464	5.614209175	-1.961402241	0.192342977	1.590550479	-0.034667969	0.751953125	-0.781738281	883.3	-44.82853077	-37.70933467	-0.407484992	-69
2727	0	0.229003906	-0.222351074	0.222045898	0.998717308	-0.040138245	0.002800941	0.030735016	5.725097656	-5.558776855	5.551147461	-2.007770697	0.140106979	1.537408146	0.021484375	0.815673828	-0.722900391	883.22	-51.00084933	-34.89576383	2.275462548	-69
2728	0	0.219726563	-0.277404785	0.194519043	0.998355865	-0.047901154	0.00067997	0.031448364	5.493164063	-6.935119629	4.862976074	-2.396370507	0.034017125	1.57328012	0.075683594	0.868164063	-0.66015625	883.3	-57.84856325	-31.9343019	4.791445948	-70
2729	0	0.196289063	-0.31262207	0.188903809	0.998679161	-0.041194916	-0.002509117	0.030578613	4.907226563	-7.815551758	4.722595215	-2.060652594	-0.125511088	1.529603777	0.131835938	0.920654297	-0.568359375	883.18	-63.74024903	-29.02982775	7.110636575	-70
2730	0	0.178992271	-0.305961609	0.139540672	0.999042511	-0.029860497	-0.003834724	0.031729698	4.474806786	-7.649040222	3.488516808	-1.493501294	-0.19179741	1.586991203	0.186767578	0.953125	-0.501220703	883.34	-68.15754465	-25.90204213	9.250492449	-72
2731	0	0.153198242	-0.305114746	0.083251953	0.998874664	-0.035738945	-0.005306244	0.030693054	3.829956055	-7.627868652	2.081298828	-1.787617287	-0.265411677	1.535228145	0.242675781	0.969482422	-0.450195313	883.24	-73.06053417	-22.79979965	11.20404551	-73
2732	0	0.132918358	-0.366533279	0.05947876	0.99869442	-0.041766167	-0.006498337	0.028675079	3.322958946	-9.163331985	1.486968994	-2.089217434	-0.325058285	1.434378121	0.295898438	0.986083984	-0.372802734	883.18	-78.46614849	-19.81060642	12.88947137	-75
2733	0	0.120788574	-0.371826172	0.086853027	0.99909687	-0.031581879	-0.007266045	0.027477264	3.019714355	-9.295654297	2.171325684	-1.579569419	-0.363411626	1.374276908	0.349365234	0.99609375	-0.300537109	883.28	-82.55019264	-16.85421507	14.31882817	-75
2734	0	0.110643387	-0.388596535	0.076973915	0.999397278	-0.020699501	-0.007143974	0.026907921	2.766084671	-9.714913368	1.924347878	-1.03518277	-0.357270405	1.345666062	0.399169922	0.994628906	-0.256347656	883.34	-85.25436675	-13.88649107	15.50462311	-75
2735	0	0.077270508	-0.351623535	0.040283203	0.999354362	-0.022087097	-0.007948875	0.027191162	1.931762695	-8.790588379	1.007080078	-1.104592503	-0.397529297	1.359850667	0.44921875	0.986572266	-0.220458984	883.3	-88.04245686	-10.83983087	16.62476432	-75
2736	0	0.088858604	-0.409263611	-0.012178421	0.99917984	-0.027347565	-0.009837151	0.028184891	2.221465111	-10.23159027	-0.304460526	-1.367752043	-0.491991991	1.409629791	0.499511719	0.971679688	-0.178222656	883.34	-91.38184012	-7.626811868	17.78918655	-75
2737	0	0.059020996	-0.428039551	-0.032409668	0.999054909	-0.023586273	-0.013701439	0.03383255	1.475524902	-10.70098877	-0.810241699	-1.179685201	-0.685287776	1.692160447	0.552490234	0.949951172	-0.138427734	883.36	-94.24219172	-3.688008758	19.16868272	-75
2738	0	0.033759117	-0.38120079	-0.036211014	0.999120712	-0.017491341	-0.0197649	0.032567024	0.843977928	-9.53001976	-0.905275345	-0.874823368	-0.988534665	1.628828481	0.613525391	0.920898438	-0.115966797	883.38	-96.32520167	0.226269285	21.0561177	-75
2739	0	0.003723145	-0.381652832	-0.029296875	0.99898243	-0.019050598	-0.020178795	0.035526276	0.093078613	-9.541320801	-0.732421875	-0.952852829	-1.009281788	1.776915978	0.66796875	0.883056641	-0.115966797	883.36	-98.45497132	4.550929785	22.81766623	-75
2740	0	-0.024928093	-0.362835884	-0.040521622	0.99871254	-0.029928207	-0.017458916	0.037028313	-0.623202324	-9.070897102	-1.013040543	-1.497052477	-0.873320365	1.852210073	0.724853516	0.840820313	-0.106689453	883.3	-101.7595114	9.06928115	24.06893098	-74
2741	0	-0.049865723	-0.329223633	-0.070983887	0.99828434	-0.036720276	-0.016337395	0.042575836	-1.246643066	-8.23059082	-1.774597168	-1.837064389	-0.817337161	2.130009936	0.788818359	0.791748047	-0.073974609	883.34	-105.8559499	14.2441896	24.76034246	-72
2742	0	-0.112490654	-0.369165421	-0.144234657	0.998084068	-0.037128448	-0.015481949	0.046995163	-2.81226635	-9.229135513	-3.605866432	-1.857608481	-0.774592009	2.351259394	0.853515625	0.729003906	-0.046142578	883.28	-110.1298395	19.90530078	24.81785161	-72
2743	0	-0.138366699	-0.334289551	-0.177490234	0.998628616	-0.020319939	-0.014839172	0.045894623	-3.45916748	-8.35723877	-4.437255859	-1.016461379	-0.742297792	2.295780138	0.918701172	0.652832031	-0.020019531	883.22	-112.6240628	25.4134732	24.45654169	-73
2744	0	-0.178334236	-0.293574333	-0.114747047	0.998888016	-0.011714935	-0.009976387	0.04456234	-4.458355904	-7.33935833	-2.868676186	-0.58596396	-0.499004313	2.228943173	0.975341797	0.574462891	-0.036865234	883.28	-114.5201214	30.54293298	23.34549745	-76
2745	0	-0.147094727	-0.26776123	-0.088867188	0.997602463	-0.040492058	-3.43323E-05	0.056114197	-3.677368164	-6.694030762	-2.221679688	-2.026222153	-0.001717987	2.807953826	1.024658203	0.485351563	-0.029296875	883.28	-121.1707309	36.22399982	19.81682687	-79
2746	0	-0.170776367	-0.262573242	-0.137634277	0.995172501	-0.070242882	0.010098457	0.067783356	-4.26940918	-6.564331055	-3.440856934	-3.517806018	0.505736853	3.394631464	1.079345703	0.366943359	0.021484375	883.24	-133.8425453	41.67953294	12.64570655	-82
2747	0	-0.215201378	-0.179596901	-0.197751999	0.993228912	-0.091282845	0.013225555	0.070618629	-5.380034447	-4.489922523	-4.943799973	-4.574470176	0.66277414	3.538921425	1.120849609	0.211181641	0.090576172	883.38	-151.3677645	45.38836566	2.578059413	-85
2748	0	-0.196585655	-0.102787018	-0.251420975	0.992437363	-0.102575302	0.00798893	0.066949844	-4.91464138	-2.569675446	-6.285524368	-5.141733095	0.400456481	3.355956291	1.139648438	0.035888672	0.142333984	883.3	-171.0857827	46.97775692	-8.305850937	-82
2749	0	-0.17779541	0.062255859	-0.370666504	0.992062569	-0.109550476	0.005642891	0.061466217	-4.444885254	1.556396484	-9.266662598	-5.492061894	0.282893396	3.081467836	1.139648438	-0.134765625	0.150878906	883.3	168.8498367	46.16361258	-18.52095227	-79
2750	0	-0.244954109	0.183641434	-0.252291679	0.991575241	-0.113511086	0.020308495	0.058989525	-6.12385273	4.591035843	-6.307291985	-5.69154506	1.018285671	2.957786345	1.118408203	-0.300292969	0.122070313	883.3	150.4423503	41.59141924	-26.18859493	-75
2751	0	-0.508056641	0.213684082	-0.309753418	0.993549347	-0.100234032	0.02911377	0.044319153	-12.70141602	5.342102051	-7.743835449	-5.022504841	1.458826368	2.220734375	1.081787109	-0.440673828	0.094970703	883.24	137.1932395	35.87718488	-28.92062483	-74
2752	0	-0.650939941	0.108825684	-0.242858887	0.992380142	-0.111274719	0.044301033	0.028915405	-16.27349854	2.72064209	-6.071472168	-5.577909947	2.220694642	1.449453459	1.037109375	-0.560546875	0.063720703	883.24	125.4415101	30.03589665	-26.98444951	-78
2753	0	-0.373474121	-0.098815918	-0.308105469	0.998336792	-0.009356499	0.056255341	0.008388519	-9.336853027	-2.470397949	-7.702636719	-0.468084388	2.814326967	0.419658575	1.017578125	-0.598388672	0.047607422	883.3	126.8198461	25.4698604	-21.73433142	-79
2754	0	0.020922661	0.356681824	-0.271835327	0.998224258	0.058718681	0.002810478	0.009551048	0.523066521	8.917045593	-6.795883179	2.937672472	0.140607117	0.477835179	0.995849609	-0.594238281	0.179931641	883.28	133.3465575	24.43045368	-22.2274711	-80
2755	0	-0.143615723	0.310546875	-0.206970215	0.996992111	-0.043780327	-0.032989502	0.054771423	-3.590393066	7.763671875	-5.174255371	-2.1912131	-1.651130406	2.741319423	0.968261719	-0.633544922	0.205322266	883.3	125.3554909	21.97311872	-29.72538645	-85
2756	0	-0.137991905	0.132133484	-0.067932129	0.996993065	0.028130531	-0.056221008	0.04528904	-3.44979763	3.303337097	-1.698303223	1.407937664	-2.813870602	2.266723793	0.907714844	-0.735595703	0.079833984	883.34	125.2898374	21.47111817	-38.61232939	-83
2757	0	-0.301330566	0.452087402	-0.085266113	0.993033409	0.110271454	-0.026774406	0.031730652	-7.53326416	11.30218506	-2.131652832	5.526411009	-1.341837523	1.590226823	0.859375	-0.787841797	0.086914063	883.3	136.1375289	20.72947816	-43.64579037	-80
2758	0	-0.340406418	0.404175758	-0.258263588	0.997653961	0.065201759	0.020134926	0.005399704	-8.510160446	10.10439396	-6.456589699	3.262639393	1.007534197	0.270196496	0.822753906	-0.787597656	0.246826172	883.34	143.958655	18.5826529	-42.5740852	-77
2759	0	-0.157409668	0.165039063	-0.317687988	0.999420166	0.023243904	0.02104187	-0.013248444	-3.935241699	4.125976563	-7.942199707	1.162419735	1.052296764	-0.662550156	0.809570313	-0.74609375	0.346435547	883.36	147.460295	17.46588262	-39.8211437	-76
2760	0	-0.018815994	0.226165771	-0.208922386	0.999173164	-0.024682045	0.0252285	-0.020153046	-0.470399857	5.654144287	-5.223059654	-1.234442256	1.261772552	-1.0079299	0.816162109	-0.700927734	0.403564453	883.3	145.6842013	16.34149492	-36.13399337	-80
2761	0	0.002868652	0.245605469	-0.185424805	0.996131897	-0.081835747	0.03081131	-0.008544922	0.071716309	6.140136719	-4.635620117	-4.097070096	1.542554459	-0.427797696	0.819091797	-0.701171875	0.3828125	883.28	137.082091	14.20675329	-33.04593558	-92
2762	0	0.008912086	0.237810135	-0.266771317	0.997758865	-0.057160378	0.033694267	0.008635521	0.222802162	5.945253372	-6.669282913	-2.86015583	1.685973032	0.432098888	0.798339844	-0.750244141	0.312255859	883.28	130.9692977	10.82125995	-30.89918036	-87
2763	0	0.038024902	0.520385742	-0.623474121	0.99919796	-0.030673981	0.020867348	0.015018463	0.950622559	13.00964355	-15.58685303	-1.534108802	1.043646147	0.751123785	0.757324219	-0.793945313	0.303466797	883.24	127.5668343	7.976977942	-30.11871782	-84
2764	0	0.140444756	0.313332558	-0.301395416	0.999862671	0.005409241	-0.011963844	-0.010071754	3.511118889	7.833313942	-7.534885406	0.270474381	-0.598219519	-0.503610709	0.741943359	-0.816162109	0.271240234	883.3	128.1192907	9.721786669	-30.49249862	-85
2765	0	0.046569824	0.200805664	-0.099914551	0.998502731	0.052144051	-0.014705658	0.007469177	1.164245605	5.020141602	-2.49786377	2.608503993	-0.735649936	0.373645286	0.757568359	-0.791748047	0.282958984	883.28	133.7657081	10.16722865	-32.34879987	-88
2766	0	-0.014259338	0.397943497	-0.180959702	0.998601913	0.047980309	-0.012576103	0.01821804	-0.356483459	9.948587418	-4.523992538	2.40013324	-0.62909815	0.911326455	0.75	-0.76171875	0.362548828	883.3	138.8100748	9.749778283	-34.884141	-90
2767	0	-0.053100586	0.29284668	-0.33416748	0.999880791	-0.008415222	-0.010642052	0.007347107	-1.327514648	7.321166992	-8.354187012	-0.420777804	-0.532123698	0.367369923	0.735595703	-0.767822266	0.375732422	883.34	137.577577	10.07971164	-36.33739638	-88
2768	0	-0.030678749	0.290428162	-0.280899048	0.999960899	-0.005656242	-0.005859375	0.003234863	-0.766968727	7.260704041	-7.022476196	-0.282815738	-0.2929725	0.161745234	0.734130859	-0.781494141	0.356445313	883.28	136.7817132	10.30072437	-37.0698932	-87
2769	0	-0.102050781	0.260498047	-0.221740723	0.999934196	0.011196136	0.001149178	-0.001930237	-2.551269531	6.512451172	-5.543518066	0.559818991	0.057460126	-0.096513938	0.732177734	-0.790527344	0.345703125	883.3	138.0923242	10.33626698	-36.80921521	-85
2770	0	-0.086129189	0.261358261	-0.285056114	0.999480247	0.030654907	0.005893707	-0.007993698	-2.153229713	6.533956528	-7.126402855	1.533010742	0.294736386	-0.399754108	0.735595703	-0.770019531	0.378662109	883.3	141.7952942	10.39279883	-35.65054281	-84
2771	0	-0.070556641	0.240844727	-0.341430664	0.999526024	0.028434753	0.00615406	-0.010028839	-1.763916016	6.021118164	-8.535766602	1.421962161	0.307751604	-0.501521132	0.745117188	-0.734130859	0.430664063	883.24	145.284871	10.49245735	-34.27888887	-84
2772	0	-0.060564041	0.205369949	-0.305120468	0.999920845	0.004916191	0.007448196	-0.008766174	-1.514101028	5.134248734	-7.628011703	0.245815967	0.372419534	-0.438320148	0.754882813	-0.698242188	0.473876953	883.24	146.0724264	10.33787993	-32.93783365	-84
2773	0	-0.075378418	0.184326172	-0.30291748	0.999930382	-0.007850647	0.005139351	-0.007053375	-1.884460449	4.608154297	-7.572937012	-0.392541364	0.256973446	-0.352676862	0.758789063	-0.687011719	0.487304688	883.38	145.3387706	10.29193849	-31.91340974	-84
2774	0	-0.084594727	0.218688965	-0.323547363	0.99998951	-0.004253387	0.000152588	-0.001464844	-2.114868164	5.467224121	-8.088684082	-0.212670091	0.00762942	-0.073242435	0.761230469	-0.684814453	0.481201172	883.28	144.8627683	10.36014401	-31.75543661	-83
2775	0	-0.078369141	0.22668457	-0.310241699	0.999982834	-0.003207207	-0.001731873	0.004390717	-1.959228516	5.667114258	-7.75604248	-0.160361207	-0.086594098	0.219537019	0.761474609	-0.689453125	0.478759766	883.3	144.3844403	10.21797254	-32.28122449	-83
2776	0	-0.065180779	0.229397774	-0.294207573	0.999969482	-0.004188538	-0.002064705	0.006259918	-1.629519463	5.734944344	-7.355189323	-0.209429009	-0.103236294	0.312999093	0.754882813	-0.700439453	0.474121094	883.3	143.7605067	9.976134049	-33.00455363	-83
2777	0	-0.057373047	0.231872559	-0.297973633	0.999973297	-0.00290966	-0.002372742	0.006164551	-1.434326172	5.796813965	-7.44934082	-0.14548428	-0.118638115	0.308230215	0.748535156	-0.713867188	0.463867188	883.3	143.2842778	9.762082297	-33.73790853	-83
2778	0	-0.054588318	0.234881401	-0.315150261	0.99998951	0.000558853	-0.002178192	0.003925323	-1.364707947	5.872035027	-7.878756523	0.027942753	-0.108909978	0.196266844	0.741943359	-0.724853516	0.456542969	883.24	143.2456229	9.679963559	-34.24828414	-82
2779	0	-0.054138184	0.23034668	-0.309020996	0.999994278	0.002732277	-0.001396179	0.00094223	-1.35345459	5.758666992	-7.725524902	0.13661408	-0.06980908	0.047111592	0.741943359	-0.724853516	0.453613281	883.34	143.5126569	9.730535576	-34.42605672	-83
2780	0	-0.056945801	0.224121094	-0.308837891	0.999996185	0.001987457	-0.000372887	-0.001739502	-1.42364502	5.603027344	-7.720947266	0.099372982	-0.018644355	-0.086975201	0.741943359	-0.724853516	0.453613281	883.34	143.7493593	9.869612677	-34.28200294	-84
2781	0	-0.060988426	0.223926544	-0.316035271	0.999992371	-0.002856255	-0.000192642	-0.002086639	-1.524710655	5.598163605	-7.900881767	-0.142813028	-0.009632131	-0.104332188	0.746337891	-0.720458984	0.455810547	883.38	143.4397274	10.01585005	-34.0922871	-83
2782	0	-0.066843033	0.2264328	-0.309066772	0.999967575	-0.00792408	-0.000315666	-0.001087189	-1.671075821	5.660820007	-7.726669312	-0.396208226	-0.015783478	-0.054360017	0.749023438	-0.722900391	0.452880859	883.3	142.5321058	10.10674106	-34.00539505	-84
2783	0	-0.070373535	0.231384277	-0.299438477	0.999934196	-0.011459351	6.19888E-05	2.67029E-05	-1.759338379	5.784606934	-7.485961914	-0.572980071	0.003099509	0.001335173	0.747070313	-0.729736328	0.438964844	883.4	141.2061259	10.08696106	-33.99550049	-85
2784	0	-0.070631027	0.245222092	-0.289265633	0.999938965	-0.010953903	-0.000224113	0.000553131	-1.765775681	6.130552292	-7.231640816	-0.547706146	-0.011205898	0.02765711	0.750488281	-0.739013672	0.416259766	883.3	139.9259	10.05493442	-34.05417945	-85
2785	0	-0.068115234	0.25604248	-0.279968262	0.99998188	-0.00579834	-0.000422478	0.00094223	-1.702880859	6.401062012	-6.999206543	-0.289918668	-0.021124008	0.047111784	0.748535156	-0.747802734	0.405273438	883.34	139.2274714	10.0106858	-34.16226567	-85
2786	0	-0.063903809	0.260253906	-0.276916504	0.999999046	0.000282288	0.000118256	0.000816345	-1.597595215	6.506347656	-6.922912598	0.014114382	0.005912782	0.040817266	0.746337891	-0.752441406	0.400146484	883.3	139.2345126	9.928440202	-34.21829456	-85
2787	0	-0.061157227	0.25579834	-0.280639648	0.999992371	0.003838539	0.000411987	-6.48499E-05	-1.528930664	6.394958496	-7.015991211	0.191927433	0.020599416	-0.003242501	0.746582031	-0.752441406	0.397216797	883.28	139.6660916	9.886513797	-34.17467038	-85
2788	0	-0.062173843	0.250893593	-0.28903389	0.999985695	0.005269051	0.000268936	-0.000540733	-1.554346085	6.272339821	-7.225847244	0.263453765	0.013446871	-0.027036794	0.74609375	-0.747802734	0.405517578	883.28	140.267077	9.891904002	-34.099351	-84
2789	0	-0.06463623	0.246582031	-0.292297363	0.999985695	0.005313873	0.000149727	-0.000545502	-1.615905762	6.164550781	-7.307434082	0.265694929	0.007486379	-0.027275215	0.748046875	-0.743408203	0.416748047	883.34	140.8719695	9.907608175	-34.03194565	-84
2790	0	-0.065364838	0.242631912	-0.297354698	0.999992371	0.003684044	0.000267982	-0.000336647	-1.634120941	6.065797806	-7.433867455	0.184202617	0.013399155	-0.01683239	0.747802734	-0.738769531	0.425048828	883.28	141.288654	9.897356564	-33.97439715	-84
2791	0	-0.06463623	0.238647461	-0.296203613	0.999998093	0.0017519	0.00019455	3.8147E-05	-1.615905762	5.966186523	-7.405090332	0.087595031	0.009727483	0.00190735	0.747558594	-0.736572266	0.430664063	883.24	141.477404	9.866785084	-33.95613779	-84
2792	0	-0.064025879	0.238464355	-0.298034668	0.999999046	-0.000197411	0.00018692	0.000255585	-1.600646973	5.961608887	-7.450866699	-0.009870529	0.009346009	0.012779236	0.747314453	-0.731933594	0.433349609	883.24	141.4395424	9.821522029	-33.95797193	-84
2793	0	-0.063095093	0.24209404	-0.297439575	0.999998093	-0.001006126	0.000137329	0.000207901	-1.577377319	6.052350998	-7.43598938	-0.050306329	0.006866456	0.010395052	0.747558594	-0.736328125	0.43359375	883.38	141.3092414	9.784231552	-33.95928295	-84
2794	0	-0.062930107	0.240829468	-0.293299675	0.999999046	-0.000961304	4.57764E-05	-0.000134468	-1.573252678	6.020736694	-7.332491875	-0.048065193	0.002288819	-0.006723405	0.747558594	-0.736572266	0.430664063	883.28	141.1882861	9.779841237	-33.93621347	-84
2795	0	-0.063293457	0.242858887	-0.293701172	0.999999046	-0.001075745	0.000126839	-0.000137329	-1.582336426	6.071472168	-7.342529297	-0.053787242	0.006341935	-0.006866456	0.747802734	-0.736572266	0.422119141	883.2	141.0552838	9.768644253	-33.90713922	-84
2796	0	-0.063836098	0.244022369	-0.293621063	0.999999046	-0.001070976	-0.000261307	2.86102E-06	-1.595902443	6.100559235	-7.340526581	-0.053548824	-0.013065341	0.000143051	0.747558594	-0.736572266	0.427978516	883.34	140.915879	9.782146837	-33.91880326	-84
2797	0	-0.064086914	0.24407959	-0.290771484	0.999999046	-0.000911713	-0.000479698	0.000377655	-1.602172852	6.101989746	-7.269287109	-0.045585641	-0.023984914	0.018882755	0.75	-0.736572266	0.424804688	883.28	140.7862276	9.788113314	-33.98035787	-84
2798	0	-0.06427002	0.246276855	-0.290161133	0.999999046	-0.000396729	-0.000240326	8.39233E-05	-1.606750488	6.156921387	-7.25402832	-0.019836427	-0.012016297	0.004196167	0.747802734	-0.738769531	0.422119141	883.3	140.7229919	9.794219413	-33.99817157	-85
2799	0	-0.064208984	0.24609375	-0.290527344	0.999999046	0.000198364	0.000134468	-8.7738E-05	-1.605224609	6.15234375	-7.263183594	0.009918213	0.006723404	-0.004386902	0.745361328	-0.738769531	0.422363281	883.28	140.7352222	9.779705291	-33.97297915	-85
2800	0	-0.063380241	0.244012833	-0.293876648	0.999999046	0.000308037	6.48499E-05	-1.52588E-05	-1.584506035	6.100320816	-7.346916199	0.01540184	0.003242493	-0.000762939	0.750244141	-0.738769531	0.425048828	883.24	140.7581802	9.766240841	-33.95914786	-84
2801	0	-0.063232422	0.244262695	-0.294006348	0.999999046	-0.000366211	-0.000159264	9.91821E-05	-1.580810547	6.106567383	-7.350158691	-0.018310547	-0.007963181	0.004959107	0.747802734	-0.738769531	0.422119141	883.28	140.6994572	9.7644857	-33.97227228	-84
2802	0	-0.063949585	0.245649338	-0.292769432	0.999999046	-0.00062561	-0.000211716	0.000244141	-1.598739624	6.141233444	-7.319235802	-0.03128052	-0.010585786	0.012207032	0.747802734	-0.738769531	0.419189453	883.3	140.608197	9.75698553	-34.00227013	-84
2803	0	-0.063964844	0.246582031	-0.290527344	0.999999046	-3.05176E-05	-0.000124931	0.000160217	-1.599121094	6.164550781	-7.263183594	-0.001525879	-0.006246567	0.008010864	0.748046875	-0.740966797	0.416503906	883.34	140.5874692	9.748039614	-34.01844421	-84
2804	0	-0.063593864	0.245886803	-0.292877197	0.999999046	0.000409126	-4.76837E-05	9.82285E-05	-1.589846611	6.147170067	-7.321929932	0.020456315	-0.002384186	0.004911423	0.748046875	-0.740966797	0.422363281	883.34	140.6191153	9.73689507	-34.02310517	-84
2805	0	-0.063720703	0.246032715	-0.293823242	0.999999046	0.000263214	-1.04904E-05	5.34058E-05	-1.593017578	6.150817871	-7.345581055	0.013160706	-0.000524521	0.002670288	0.747802734	-0.738769531	0.422119141	883.28	140.6352809	9.725849235	-34.02096031	-84
2806	0	-0.063537598	0.243652344	-0.291870117	0.999999046	3.8147E-05	-0.000133514	8.01086E-05	-1.588439941	6.091308594	-7.29675293	0.001907349	-0.00667572	0.004005432	0.747802734	-0.738769531	0.422119141	883.3	140.6238348	9.723911136	-34.030315	-84
2807	0	-0.063598633	0.245544434	-0.29309082	0.999999046	-0.000236511	-0.000178337	2.67029E-05	-1.58996582	6.13861084	-7.327270508	-0.011825562	-0.008916855	0.001335144	0.745605469	-0.738769531	0.419433594	883.24	140.5812497	9.729953922	-34.03830648	-85
2808	0	-0.064789772	0.24678421	-0.292158127	0.999999046	3.33786E-05	-8.7738E-05	-9.25064E-05	-1.619744301	6.169605255	-7.303953171	0.00166893	-0.004386902	-0.00462532	0.750244141	-0.741210938	0.422363281	883.28	140.5725457	9.736834424	-34.02875492	-84
2809	0	-0.063659668	0.24420166	-0.29284668	0.999999046	0.000137329	8.10623E-05	4.57764E-05	-1.591491699	6.105041504	-7.321166992	0.006866455	0.004053116	0.002288818	0.750488281	-0.741210938	0.416503906	883.34	140.575901	9.718844279	-34.01932908	-84
2810	0	-0.064208984	0.24407959	-0.293701172	0.999999046	-0.000549316	-8.7738E-05	3.8147E-05	-1.605224609	6.101989746	-7.342529297	-0.027465822	-0.004386902	0.001907349	0.750244141	-0.741210938	0.422363281	883.28	140.4987529	9.716507592	-34.02138149	-84
2811	0	-0.063232422	0.246459961	-0.292663574	0.999999046	-0.000900269	-0.000308037	0.000339508	-1.580810547	6.161499023	-7.316589355	-0.045013435	-0.015401843	0.016975406	0.750488281	-0.741210938	0.419433594	883.24	140.3741445	9.711729956	-34.06680277	-83
2812	0	-0.063305855	0.247331619	-0.290654182	0.999999046	-0.000489235	-0.000226974	0.000212669	-1.58264637	6.183290482	-7.266354561	-0.024461748	-0.011348725	0.010633469	0.748046875	-0.740966797	0.419433594	883.36	140.2995783	9.7091062	-34.09490727	-84
2813	0	-0.06439209	0.248474121	-0.290100098	0.999999046	0.000602722	-6.00815E-05	-5.34058E-05	-1.609802246	6.211853027	-7.252502441	0.03013611	-0.003004074	-0.002670288	0.748046875	-0.740966797	0.416503906	883.3	140.3562137	9.711379859	-34.08697115	-83
2814	0	-0.063904762	0.245245934	-0.292525291	0.999999046	0.000768661	0.000114441	-5.43594E-05	-1.597619057	6.131148338	-7.313132286	0.038433079	0.005722046	-0.002717972	0.748046875	-0.740966797	0.416503906	883.28	140.4342139	9.698438136	-34.06597888	-84
2815	0	-0.062866211	0.24432373	-0.292724609	0.999999046	-4.19617E-05	-4.1008E-05	6.48499E-05	-1.571655273	6.108093262	-7.318115234	-0.002098083	-0.0020504	0.003242493	0.748046875	-0.740966797	0.416503906	883.28	140.4157483	9.690598401	-34.06708444	-84
2816	0	-0.063408852	0.245454788	-0.293492317	0.999999046	-0.000756264	-0.000190735	0.000160217	-1.585221291	6.136369705	-7.33730793	-0.037813191	-0.009536744	0.008010865	0.745605469	-0.743164063	0.419677734	883.4	140.3122756	9.68910011	-34.08777881	-83
2817	0	-0.063903809	0.246704102	-0.289978027	0.999999046	-0.000778198	-0.000277519	0.000164032	-1.597595215	6.167602539	-7.249450684	-0.038909917	-0.013875963	0.0082016	0.748291016	-0.743408203	0.413818359	883.28	140.2051629	9.695069926	-34.11528196	-84
2818	0	-0.063679695	0.247849464	-0.290961266	0.999999046	-0.000473022	-8.39233E-05	7.24792E-05	-1.591992378	6.19623661	-7.274031639	-0.023651124	-0.004196167	0.003623963	0.748291016	-0.743408203	0.413818359	883.24	140.1368621	9.690790322	-34.1201548	-84
2819	0	-0.063964844	0.247314453	-0.291015625	0.999999046	-0.00030899	-9.44138E-05	0.000144958	-1.599121094	6.182861328	-7.275390625	-0.015449524	-0.004720688	0.007247925	0.748291016	-0.745605469	0.4140625	883.34	140.0862247	9.682227309	-34.13232238	-84
2820	0	-0.063644409	0.247390747	-0.29152298	0.999999046	-0.000416756	-0.00018692	2.95639E-05	-1.591110229	6.184768677	-7.288074493	-0.020837785	-0.009346009	0.001478195	0.750732422	-0.745605469	0.416748047	883.3	140.0239228	9.690374239	-34.14090161	-83
2821	0	-0.062988281	0.248168945	-0.289306641	0.999999046	-0.000217438	-0.000121117	1.90735E-05	-1.574707031	6.204223633	-7.232666016	-0.010871887	-0.006055832	0.000953674	0.748291016	-0.743408203	0.413818359	883.24	139.9854718	9.693586772	-34.14376984	-84
2822	0	-0.063903809	0.248779297	-0.287963867	0.999999046	0.00038147	8.01086E-05	-0.000102997	-1.597595215	6.219482422	-7.19909668	0.019073487	0.004005432	-0.005149841	0.748291016	-0.745605469	0.4140625	883.22	140.0199823	9.688251927	-34.12086852	-84
2823	0	-0.064208984	0.248291016	-0.291931152	0.999998093	0.001545906	0.000331879	-0.000118256	-1.605224609	6.207275391	-7.298278809	0.077295336	0.01659394	-0.005912783	0.748046875	-0.740966797	0.416503906	883.24	140.1914129	9.66198058	-34.07764266	-84
2824	0	-0.06321907	0.243831635	-0.292850494	0.999999046	0.000805855	-1.90735E-06	-7.62939E-05	-1.580476761	6.095790863	-7.32126236	0.040292744	-9.53674E-05	-0.003814698	0.748046875	-0.738769531	0.416259766	883.24	140.2734805	9.662031478	-34.06301574	-84
2825	0	-0.06439209	0.24432373	-0.295043945	0.999999046	-0.000808716	-0.000250816	0.000236511	-1.609802246	6.108093262	-7.376098633	-0.040435796	-0.012540819	0.011825563	0.748046875	-0.740966797	0.419433594	883.28	140.1630101	9.661198407	-34.09474568	-84
2826	0	-0.063415527	0.247802734	-0.292297363	0.999998093	-0.001318932	-0.000330925	0.000312805	-1.585388184	6.195068359	-7.307434082	-0.0659466	-0.016546255	0.015640264	0.748046875	-0.743408203	0.416748047	883.3	139.9920075	9.661791924	-34.13934649	-84
2827	0	-0.063570976	0.248811722	-0.288659096	0.999998093	-0.000662804	-0.000205994	0.000102043	-1.589274406	6.220293045	-7.216477394	-0.033140185	-0.010299683	0.005102158	0.750732422	-0.745605469	0.413818359	883.28	139.9008803	9.666966799	-34.15590282	-84
2828	0	-0.064100266	0.24834156	-0.288863182	1	-3.8147E-06	5.81741E-05	-2.67029E-05	-1.602506638	6.208539009	-7.221579552	-0.000190735	0.002908707	-0.001335144	0.748291016	-0.745605469	0.416992188	883.34	139.8905388	9.658601406	-34.14120106	-84
2829	0	-0.063842773	0.247802734	-0.290161133	0.999999046	5.34058E-05	5.81741E-05	-6.10352E-05	-1.596069336	6.195068359	-7.25402832	0.002670288	0.002908707	-0.003051758	0.745849609	-0.743164063	0.410888672	883.34	139.8873601	9.652879891	-34.12357449	-84
2830	0	-0.063290596	0.247885704	-0.2902565	0.999999046	-0.000265121	-5.91278E-05	9.44138E-05	-1.5822649	6.197142601	-7.256412506	-0.013256073	-0.00295639	0.004720688	0.748291016	-0.743408203	0.410888672	883.3	139.8439856	9.646036668	-34.12837367	-85
2831	0	-0.063781738	0.24786377	-0.290466309	0.999999046	-0.000392914	-0.00014782	6.10352E-05	-1.594543457	6.196594238	-7.261657715	-0.019645692	-0.007390976	0.003051758	0.748291016	-0.745605469	0.4140625	883.28	139.7854662	9.649520664	-34.13681853	-84
2832	0	-0.063227654	0.249013901	-0.289276123	0.999999046	-6.58035E-05	-0.000257492	7.53403E-05	-1.580691338	6.225347519	-7.231903076	-0.003290176	-0.012874603	0.003767014	0.745849609	-0.745605469	0.4140625	883.24	139.7628845	9.66160312	-34.15483798	-84
2833	0	-0.06427002	0.248596191	-0.28918457	0.999999046	0.000335693	-1.04904E-05	-2.28882E-05	-1.606750488	6.214904785	-7.229614258	0.016784668	-0.000524521	-0.001144409	0.748291016	-0.745605469	0.4140625	883.3	139.7909523	9.659460868	-34.14553393	-84
2834	0	-0.064453125	0.248046875	-0.290649414	0.999999046	0.000190735	7.62939E-05	-8.01086E-05	-1.611328125	6.201171875	-7.266235352	0.009536743	0.003814697	-0.004005432	0.748291016	-0.745605469	0.411132813	883.3	139.8044785	9.654072131	-34.12472947	-85
2835	0	-0.063842773	0.24810791	-0.292602539	0.999999046	-0.000209808	-0.000159264	0.000106812	-1.596069336	6.202697754	-7.315063477	-0.010490418	-0.007963181	0.005340576	0.748291016	-0.745605469	0.411132813	883.28	139.7665389	9.655545001	-34.13809031	-85
2836	0	-0.06284523	0.247937202	-0.29009819	0.999999046	-0.00039959	-0.000196457	0.000267029	-1.571130753	6.198430061	-7.252454758	-0.019979478	-0.009822846	0.013351441	0.750732422	-0.745605469	0.410888672	883.4	139.7041159	9.64842851	-34.16832856	-85
2837	0	-0.063964844	0.249328613	-0.289428711	0.999999046	-0.00025177	-0.000296593	0.000137329	-1.599121094	6.233215332	-7.235717773	-0.012588501	-0.014829636	0.006866455	0.748535156	-0.745605469	0.408203125	883.28	139.6593528	9.659739161	-34.19474269	-85
2838	0	-0.064861298	0.249124527	-0.286641121	0.999999046	0.000379562	-7.82013E-05	-8.4877E-05	-1.62153244	6.228113174	-7.166028023	0.018978119	-0.003910065	-0.004243851	0.74609375	-0.745605469	0.408203125	883.3	139.6929778	9.668593567	-34.18510748	-85
2839	0	-0.06451416	0.24810791	-0.290283203	0.999999046	0.000377655	4.29153E-05	-4.57764E-05	-1.612854004	6.202697754	-7.257080078	0.018882752	0.002145767	-0.002288818	0.748291016	-0.743408203	0.413818359	883.3	139.7274655	9.664066443	-34.16949052	-85
2840	0	-0.063719749	0.247759819	-0.290353775	0.999999046	-4.673E-05	-5.34058E-05	0.000114441	-1.592993736	6.193995476	-7.258844376	-0.002336502	-0.002670288	0.005722046	0.748291016	-0.745605469	0.411132813	883.3	139.7098556	9.65615606	-34.17555167	-85
2841	0	-0.062927246	0.248535156	-0.289001465	0.999999046	-0.000675201	-0.000197411	6.86646E-05	-1.573181152	6.213378906	-7.225036621	-0.033760074	-0.00987053	0.003433228	0.748291016	-0.743408203	0.410888672	883.3	139.6191535	9.664247456	-34.18822003	-85
2842	0	-0.063923836	0.24942112	-0.288334846	0.999999046	-0.000511169	-0.000110626	4.95911E-05	-1.598095894	6.235527992	-7.208371162	-0.025558473	-0.005531311	0.002479553	0.748535156	-0.745605469	0.408203125	883.38	139.5486597	9.666246616	-34.19283816	-85
2843	0	-0.064941406	0.250366211	-0.287597656	0.999999046	5.34058E-05	-0.000132561	-5.72205E-05	-1.623535156	6.259155273	-7.189941406	0.002670288	-0.006628037	-0.002861023	0.748291016	-0.745605469	0.411132813	883.28	139.5441651	9.678224231	-34.18957015	-85
2844	0	-0.064681053	0.249899864	-0.287973404	0.999999046	0.000809669	0.000118256	7.9155E-05	-1.617026329	6.247496605	-7.199335098	0.040483479	0.005912781	0.003957749	0.748535156	-0.747802734	0.405273438	883.24	139.6275081	9.658292029	-34.17974983	-84
2845	0	-0.063537598	0.248352051	-0.29107666	0.999999046	0.000637054	0.000161171	2.28882E-05	-1.588439941	6.20880127	-7.276916504	0.031852724	0.008058549	0.001144409	0.745849609	-0.745605469	0.411132813	883.3	139.6926029	9.638814195	-34.16144118	-85
2846	0	-0.063293457	0.24786377	-0.291381836	0.999999046	3.8147E-05	-1.52588E-05	7.62939E-05	-1.582336426	6.196594238	-7.284545898	0.001907349	-0.000762939	0.003814697	0.748291016	-0.745605469	0.4140625	883.4	139.6862144	9.630821252	-34.1609824	-85
2847	0	-0.063171387	0.248413086	-0.290039063	0.999999046	-0.000408173	-0.000227928	8.7738E-05	-1.579284668	6.210327148	-7.250976563	-0.020408631	-0.011396409	0.004386902	0.748291016	-0.745605469	0.411132813	883.28	139.6259312	9.640590804	-34.17764195	-84
2848	0	-0.063566208	0.249087334	-0.289258003	0.999999046	-0.000166893	-0.000135422	9.82285E-05	-1.589155197	6.227183342	-7.231450081	-0.00834465	-0.006771088	0.004911423	0.74609375	-0.747802734	0.408447266	883.28	139.594368	9.641547697	-34.18846033	-84
2849	0	-0.064758301	0.249023438	-0.287902832	0.999999046	0.000114441	2.76566E-05	7.24792E-05	-1.61895752	6.225585938	-7.197570801	0.005722046	0.001382828	0.003623962	0.748291016	-0.745605469	0.411132813	883.34	139.5975115	9.630304634	-34.18440872	-85
2850	0	-0.064524651	0.248722076	-0.289001465	0.999999046	0.000133514	9.15527E-05	0.000159264	-1.613116264	6.21805191	-7.225036621	0.00667572	0.004577637	0.007963181	0.748535156	-0.747802734	0.411132813	883.3	139.6024356	9.607144785	-34.18335496	-85
2851	0	-0.063476563	0.249084473	-0.288574219	0.999999046	0.000549316	0.000100136	4.95911E-05	-1.586914063	6.227111816	-7.214355469	0.027465822	0.00500679	0.002479553	0.748535156	-0.745605469	0.408203125	883.3	139.6567752	9.591433507	-34.17196514	-85
2852	0	-0.062662125	0.24773407	-0.289896965	0.999999046	0.00067997	2.47955E-05	-0.000110626	-1.566553116	6.193351746	-7.247424126	0.033998492	0.001239777	-0.005531311	0.748535156	-0.745605469	0.408203125	883.3	139.7276253	9.594190923	-34.15207226	-85
2853	0	-0.064331055	0.24822998	-0.290039063	0.999999046	0.000659943	-0.00020504	-1.14441E-05	-1.608276367	6.205749512	-7.250976563	0.032997134	-0.010252	-0.000572205	0.748046875	-0.743408203	0.416748047	883.3	139.7919174	9.609784925	-34.15792894	-85
2854	0	-0.065128326	0.24808979	-0.289791107	0.999999046	0.001029968	3.43323E-05	6.77109E-05	-1.62820816	6.202244759	-7.244777679	0.051498422	0.001716614	0.003385544	0.745849609	-0.745605469	0.411132813	883.38	139.9004875	9.598705072	-34.15329811	-85
2855	0	-0.06427002	0.245300293	-0.289428711	0.999999046	0.000610352	0.000252724	7.62939E-06	-1.606750488	6.132507324	-7.235717773	0.03051758	0.012636186	0.00038147	0.748046875	-0.743408203	0.416748047	883.4	139.9646901	9.573005138	-34.12660422	-84
2856	0	-0.063140869	0.246284485	-0.293972015	0.999998093	-0.000160217	9.05991E-05	0.000193596	-1.578521729	6.157112122	-7.349300385	-0.008010864	0.004529953	0.009679794	0.748046875	-0.743408203	0.416748047	883.3	139.9360153	9.547829759	-34.12859969	-85
2857	0	-0.063110352	0.247558594	-0.290771484	0.999999046	-0.000343323	-0.00026989	9.15527E-05	-1.577758789	6.188964844	-7.269287109	-0.017166138	-0.013494492	0.004577637	0.748291016	-0.745605469	0.4140625	883.34	139.8834357	9.561828069	-34.14862768	-84
2858	0	-0.064025879	0.24822998	-0.288574219	0.999999046	-0.000228882	-0.000167847	4.57764E-05	-1.600646973	6.205749512	-7.214355469	-0.011444092	-0.008392334	0.002288818	0.745849609	-0.743164063	0.413818359	883.38	139.8458745	9.570344183	-34.15687664	-84
2859	0	-0.06439209	0.248718262	-0.290710449	0.999999046	0.000537872	-0.000132561	-2.67029E-05	-1.609802246	6.217956543	-7.26776123	0.026893617	-0.006628037	-0.001335144	0.748291016	-0.741210938	0.410644531	883.24	139.8977161	9.581211434	-34.15603037	-84
2860	0	-0.064361572	0.246447563	-0.29169178	0.999999046	0.000632286	0.000202179	2.86102E-06	-1.609039307	6.161189079	-7.292294502	0.031614306	0.010108948	0.000143051	0.750732422	-0.745605469	0.413818359	883.34	139.9642372	9.560630832	-34.13281437	-84
2861	0	-0.063903809	0.246337891	-0.293823242	0.999999046	0.000125885	8.10623E-05	-1.52588E-05	-1.597595215	6.158447266	-7.345581055	0.006294251	0.004053116	-0.000762939	0.745849609	-0.743164063	0.413818359	883.38	139.9716663	9.552055747	-34.11703186	-84
2862	0	-0.063560486	0.246628761	-0.290660858	0.999999046	-0.000196457	-7.62939E-05	0.000113487	-1.589012146	6.165719032	-7.266521454	-0.009822846	-0.003814697	0.005674362	0.745849609	-0.743164063	0.416748047	883.24	139.9383615	9.547856082	-34.12432127	-84
2863	0	-0.063171387	0.247619629	-0.289916992	0.999999046	-0.000255585	-7.53403E-05	4.57764E-05	-1.579284668	6.190490723	-7.247924805	-0.012779236	-0.003767014	0.002288818	0.745849609	-0.745605469	0.4140625	883.28	139.899296	9.548603567	-34.12568885	-84
2864	0	-0.064880371	0.247009277	-0.290527344	0.999999046	0.000248909	6.10352E-05	-2.28882E-05	-1.622009277	6.175231934	-7.263183594	0.01244545	0.003051758	-0.001144409	0.748046875	-0.743408203	0.416748047	883.28	139.9208069	9.542585962	-34.11049832	-85
2865	0	-0.063983917	0.247779846	-0.291423798	0.999998093	0.000344276	7.24792E-05	-0.00025177	-1.599597931	6.194496155	-7.28559494	0.017213822	0.003623963	-0.012588501	0.748046875	-0.743408203	0.416748047	883.28	139.956815	9.552506661	-34.07421323	-84
2866	0	-0.064228058	0.246537209	-0.291618347	0.999999046	0.00047493	2.28882E-05	-7.62939E-06	-1.605701447	6.163430214	-7.290458679	0.023746491	0.001144409	-0.00038147	0.745849609	-0.743164063	0.416748047	883.34	140.0036712	9.54884411	-34.06341772	-85
2867	0	-0.063598633	0.246887207	-0.29284668	0.999999046	0.000331879	4.76837E-06	1.52588E-05	-1.58996582	6.172180176	-7.321166992	0.016593933	0.000238419	0.000762939	0.748046875	-0.743408203	0.416748047	883.34	140.0336731	9.545117559	-34.05593502	-85
2868	0	-0.063344955	0.246329308	-0.290326118	0.999999046	0.000136375	-0.000116348	-0.000152588	-1.583623886	6.158232689	-7.258152962	0.006818771	-0.005817413	-0.007629395	0.748046875	-0.743408203	0.419677734	883.3	140.0422808	9.564424335	-34.04248116	-85
2869	0	-0.064453125	0.247436523	-0.292419434	0.999999046	0.000225067	-0.000163078	-8.01086E-05	-1.611328125	6.185913086	-7.31048584	0.011253357	-0.008153916	-0.004005432	0.750488281	-0.743408203	0.416503906	883.34	140.0594522	9.582572986	-34.03902731	-85
2870	0	-0.06427002	0.24597168	-0.290588379	0.999999046	0.000354767	-5.72205E-05	0	-1.606750488	6.149291992	-7.264709473	0.017738343	-0.002861023	0	0.748046875	-0.740966797	0.419433594	883.28	140.0916533	9.585600448	-34.03470765	-84
2871	0	-0.063598633	0.244628906	-0.292175293	0.999999046	-0.000164032	-5.24521E-05	0.000179291	-1.58996582	6.115722656	-7.304382324	-0.008201599	-0.002622604	0.008964539	0.748046875	-0.743164063	0.422607422	883.28	140.0619371	9.575058324	-34.04600417	-85
2872	0	-0.063419342	0.246822357	-0.291417122	0.999999046	-0.000607491	-0.000289917	0.000212669	-1.585483551	6.170558929	-7.285428047	-0.03037453	-0.014495851	0.01063347	0.748046875	-0.743408203	0.419677734	883.24	139.9779893	9.582919344	-34.07804428	-85
2873	0	-0.063659668	0.246643066	-0.289123535	0.999999046	-0.000289917	-0.000151634	6.86646E-05	-1.591491699	6.16607666	-7.228088379	-0.01449585	-0.007581711	0.003433228	0.748291016	-0.745605469	0.416992188	883.3	139.93427	9.589276341	-34.08707768	-85
2874	0	-0.063837051	0.248041153	-0.291462898	0.999999046	7.43866E-05	-9.34601E-05	6.67572E-06	-1.595926285	6.201028824	-7.286572456	0.00371933	-0.004673004	0.000333786	0.748291016	-0.743408203	0.413818359	883.3	139.9339639	9.595129358	-34.08618717	-85
2875	0	-0.064758301	0.246826172	-0.291748047	0.999999046	0.000289917	-6.67572E-06	-3.05176E-05	-1.61895752	6.170654297	-7.293701172	0.01449585	-0.000333786	-0.001525879	0.748046875	-0.740966797	0.419433594	883.34	139.9600709	9.596189819	-34.07521307	-85
2876	0	-0.063862801	0.246347427	-0.291157722	0.999999046	-8.29697E-05	-2.28882E-05	7.24792E-05	-1.596570015	6.158685684	-7.278943062	-0.004148483	-0.001144409	0.003623962	0.748046875	-0.740966797	0.416503906	883.3	139.941788	9.591114311	-34.07478462	-85
2877	0	-0.063720703	0.246520996	-0.290588379	0.999999046	-0.000339508	-0.000197411	9.91821E-05	-1.593017578	6.163024902	-7.264709473	-0.016975403	-0.009870529	0.004959107	0.745605469	-0.740966797	0.413818359	883.28	139.8915843	9.59940258	-34.08990661	-85
2878	0	-0.064092636	0.247524261	-0.291006088	0.999999046	-0.000434875	-0.000196457	0.000144958	-1.602315903	6.188106537	-7.275152206	-0.021743775	-0.009822846	0.007247925	0.748046875	-0.740966797	0.416503906	883.28	139.8298215	9.604249853	-34.1087642	-85
2879	0	-0.063537598	0.248046875	-0.289978027	0.999999046	-0.000118256	-0.000220299	0	-1.588439941	6.201171875	-7.249450684	-0.005912781	-0.011014938	0	0.748046875	-0.743408203	0.416748047	883.28	139.8061915	9.621900432	-34.11671723	-85
2880	0	-0.064276695	0.247199059	-0.289830208	0.999999046	0.000113487	-0.000104904	-9.53674E-07	-1.606917381	6.179976463	-7.245755196	0.005674362	-0.005245209	-4.76837E-05	0.748291016	-0.743408203	0.410888672	883.34	139.8106169	9.629568055	-34.1161182	-85
2881	0	-0.064453125	0.246765137	-0.292114258	0.999999046	-0.00025177	-6.67572E-06	-0.000106812	-1.611328125	6.169128418	-7.302856445	-0.012588501	-0.000333786	-0.005340576	0.748046875	-0.743408203	0.416748047	883.3	139.7761229	9.636512291	-34.09844058	-84
2882	0	-0.063964844	0.24822998	-0.291870117	0.999999046	-0.000389099	-0.000141144	0.000148773	-1.599121094	6.205749512	-7.29675293	-0.019454957	-0.00705719	0.00743866	0.750488281	-0.743408203	0.416503906	883.34	139.7204797	9.636313922	-34.11345321	-85
2883	0	-0.063781738	0.247924805	-0.288574219	0.999999046	-0.000209808	-0.000201225	0.000102997	-1.594543457	6.198120117	-7.214355469	-0.010490418	-0.010061264	0.005149841	0.750732422	-0.745605469	0.413818359	883.28	139.685297	9.644767591	-34.12916973	-85
2884	0	-0.06427002	0.249023438	-0.289306641	0.999999046	0.000180244	-0.000125885	4.19617E-05	-1.606750488	6.225585938	-7.232666016	0.009012222	-0.006294251	0.002098084	0.750488281	-0.743408203	0.416503906	883.42	139.6966516	9.651189252	-34.13359935	-85
2885	0	-0.065429688	0.248046875	-0.290771484	0.999999046	0.000839233	-6.38962E-05	-3.8147E-06	-1.635742188	6.201171875	-7.269287109	0.041961675	-0.003194809	-0.000190735	0.748291016	-0.743408203	0.410888672	883.28	139.7850535	9.655665529	-34.12971423	-85
2886	0	-0.064920425	0.246399879	-0.289712906	0.999999046	0.000478745	9.72748E-05	-8.4877E-05	-1.623010635	6.159996986	-7.242822647	0.023937226	0.004863739	-0.004243851	0.750732422	-0.745605469	0.416748047	883.3	139.835449	9.652091518	-34.10627347	-85
2887	0	-0.06427002	0.246887207	-0.292175293	0.999999046	-0.000217438	3.52859E-05	7.62939E-05	-1.606750488	6.172180176	-7.304382324	-0.010871887	0.001764298	0.003814697	0.750732422	-0.743408203	0.413574219	883.28	139.8029981	9.642042648	-34.1017389	-85
2888	0	-0.063236237	0.247206688	-0.292499542	0.999999046	-0.000813484	-0.00019455	0.000258446	-1.580905914	6.180167198	-7.312488556	-0.040674215	-0.009727479	0.012922289	0.750732422	-0.743408203	0.410644531	883.3	139.6967679	9.638578034	-34.13059642	-85
2889	0	-0.063476563	0.248779297	-0.289245605	0.999999046	-0.000484467	-0.000292778	0.000148773	-1.586914063	6.219482422	-7.231140137	-0.024223329	-0.014638902	0.00743866	0.748291016	-0.745605469	0.411132813	883.3	139.6286097	9.651774601	-34.15725747	-85
2890	0	-0.0641222	0.249015808	-0.288234711	0.999999046	5.53131E-05	-0.000101089	-1.62125E-05	-1.603055	6.225395203	-7.205867767	0.002765656	-0.005054474	-0.000810623	0.750732422	-0.743408203	0.410644531	883.34	139.6271323	9.660490352	-34.15464394	-85
2891	0	-0.065368652	0.247680664	-0.289733887	0.999999046	0.000175476	5.81741E-05	7.62939E-06	-1.634216309	6.192016602	-7.243347168	0.008773804	0.002908707	0.00038147	0.748291016	-0.745605469	0.411132813	883.34	139.6411473	9.653612224	-34.14243198	-85
2892	0	-0.06423378	0.247700691	-0.291537285	0.999999046	-2.00272E-05	3.8147E-06	0.000155449	-1.605844498	6.192517281	-7.288432121	-0.001001358	0.000190735	0.007772446	0.748291016	-0.745605469	0.4140625	883.38	139.6299958	9.640521928	-34.14716736	-85
2893	0	-0.064208984	0.24810791	-0.290466309	0.999999046	-0.000289917	-0.000117302	0.000137329	-1.605224609	6.202697754	-7.261657715	-0.01449585	-0.005865097	0.006866455	0.748291016	-0.743408203	0.413818359	883.44	139.5867272	9.639364978	-34.1592431	-85
2894	0	-0.064147949	0.248291016	-0.289855957	0.999999046	7.62939E-06	-0.000125885	4.57764E-05	-1.60369873	6.207275391	-7.246398926	0.00038147	-0.006294251	0.002288818	0.748291016	-0.745605469	0.411132813	883.34	139.5788563	9.645772807	-34.16420604	-85
2895	0	-0.064380646	0.248353004	-0.290819168	0.999998093	0.00026989	-0.000118256	-1.52588E-05	-1.609516144	6.208825111	-7.270479202	0.013494492	-0.005912781	-0.000762939	0.745849609	-0.743164063	0.413818359	883.28	139.6021237	9.656071037	-34.16298406	-85
2896	0	-0.065063477	0.247619629	-0.290161133	0.999999046	-6.77109E-05	-6.86646E-05	4.19617E-05	-1.626586914	6.190490723	-7.25402832	-0.003385544	-0.003433228	0.002098083	0.750732422	-0.745605469	0.413818359	883.28	139.5865627	9.657852174	-34.16303563	-85
2897	0	-0.064819336	0.24810791	-0.289611816	0.999999046	-0.000164032	-6.77109E-05	0.000102997	-1.620483398	6.202697754	-7.24029541	-0.008201599	-0.003385544	0.005149841	0.748291016	-0.745605469	0.4140625	883.38	139.5591163	9.655061254	-34.16851437	-85
2898	0	-0.064746857	0.249069214	-0.287935257	0.999999046	-9.91821E-05	-5.72205E-06	9.15527E-05	-1.618671417	6.226730347	-7.198381424	-0.004959106	-0.000286102	0.004577637	0.748291016	-0.745605469	0.4140625	883.3	139.5400156	9.647761933	-34.16828531	-85
2899	0	-0.064086914	0.24822998	-0.289733887	0.999999046	-3.43323E-05	-4.1008E-05	0.00012207	-1.602172852	6.205749512	-7.243347168	-0.001716614	-0.0020504	0.006103516	0.748291016	-0.745605469	0.411132813	883.28	139.5275097	9.641278907	-34.17353693	-85
2900	0	-0.06435585	0.248448372	-0.290383339	0.999999046	-0.000470161	-0.000133514	0.000202179	-1.608896255	6.211209297	-7.259583473	-0.023508073	-0.006675721	0.010108948	0.74609375	-0.745605469	0.405273438	883.48	139.4627851	9.636909394	-34.19310462	-85
2901	0	-0.064147949	0.249511719	-0.290893555	0.999999046	-1.14441E-05	-0.00020504	0.000259399	-1.60369873	6.237792969	-7.272338867	-0.000572205	-0.010251999	0.012969971	0.748291016	-0.745605469	0.411132813	883.22	139.4489501	9.63449255	-34.22250829	-85
2902	0	-0.064321518	0.248574257	-0.288847923	0.999999046	0.000297546	1.90735E-06	6.38962E-05	-1.608037949	6.214356422	-7.221198082	0.01487732	9.53674E-05	0.003194809	0.748535156	-0.747802734	0.408203125	883.3	139.4760742	9.628645545	-34.21943901	-85
2903	0	-0.063598633	0.248413086	-0.29119873	0.999999046	-6.86646E-05	-1.81198E-05	9.91821E-05	-1.58996582	6.210327148	-7.279968262	-0.003433228	-0.000905991	0.004959106	0.748291016	-0.743408203	0.407958984	883.34	139.4605772	9.621894213	-34.22056298	-85
2904	0	-0.063621521	0.24864769	-0.290063858	0.999999046	-0.000386238	-0.000133514	9.05991E-05	-1.590538025	6.216192245	-7.251596451	-0.019311905	-0.00667572	0.004529953	0.748535156	-0.745605469	0.408203125	883.28	139.4074316	9.625816604	-34.22978791	-85
2905	0	-0.063903809	0.249267578	-0.287780762	0.999999046	-0.000564575	-0.000132561	0.000141144	-1.597595215	6.231689453	-7.194519043	-0.028228761	-0.006628037	0.00705719	0.750976563	-0.745849609	0.405029297	883.34	139.3331041	9.625888309	-34.2433838	-85
2906	0	-0.064880371	0.250244141	-0.288024902	0.999999046	9.53674E-05	-0.000133514	3.8147E-06	-1.622009277	6.256103516	-7.200622559	0.004768372	-0.00667572	0.000190735	0.750976563	-0.748046875	0.408203125	883.34	139.3363972	9.636344672	-34.24498633	-85
2907	0	-0.065015793	0.2492733	-0.287810326	0.999998093	0.000479698	0.000156403	-8.39233E-05	-1.625394821	6.231832504	-7.195258141	0.02398491	0.00782013	-0.004196167	0.74609375	-0.745605469	0.408203125	883.28	139.3887135	9.628203876	-34.21708932	-85
2908	0	-0.063809395	0.249594688	-0.289963722	0.999999046	0.00026226	6.86646E-05	7.53403E-05	-1.595234871	6.23986721	-7.249093056	0.013113022	0.003433228	0.003767014	0.748535156	-0.745605469	0.408203125	883.24	139.4127043	9.615791672	-34.20972425	-85
2909	0	-0.064086914	0.249145508	-0.289306641	0.999999046	-0.000370026	-4.48227E-05	0.00018692	-1.602172852	6.228637695	-7.232666016	-0.018501282	-0.002241135	0.009346009	0.748535156	-0.745605469	0.408203125	883.24	139.3612042	9.604944479	-34.22068416	-85
2910	0	-0.064264297	0.250175476	-0.287834167	0.999999046	-0.000234604	-0.000167847	6.77109E-05	-1.606607437	6.254386902	-7.195854187	-0.011730194	-0.008392334	0.003385544	0.748535156	-0.747802734	0.411132813	883.24	139.3253919	9.613713811	-34.23043357	-85
2911	0	-0.063964844	0.250427246	-0.288391113	0.999999046	0.00018692	-3.71933E-05	-7.62939E-06	-1.599121094	6.260681152	-7.209777832	0.009346008	-0.001859665	-0.00038147	0.748535156	-0.745605469	0.40234375	883.28	139.3406341	9.616757834	-34.22409787	-85
2912	0	-0.064235687	0.249402046	-0.289090157	0.999999046	0.000475883	6.48499E-05	2.19345E-05	-1.605892181	6.235051155	-7.227253914	0.023794175	0.003242493	0.001096726	0.750976563	-0.748046875	0.405273438	883.34	139.3898925	9.608738365	-34.21250138	-86
2913	0	-0.064697266	0.249084473	-0.289978027	0.999999046	0.000232697	-9.44138E-05	0.000110626	-1.617431641	6.227111816	-7.249450684	0.011634827	-0.004720688	0.005531311	0.750732422	-0.745605469	0.407958984	883.28	139.4080382	9.607995547	-34.22031975	-85
2914	0	-0.063416481	0.249390602	-0.289411545	0.999999046	0.000106812	-1.33514E-05	4.1008E-05	-1.585412025	6.234765053	-7.23528862	0.005340576	-0.000667572	0.0020504	0.748291016	-0.745605469	0.4140625	883.36	139.4138412	9.605368714	-34.21568993	-85
2915	0	-0.063964844	0.248718262	-0.288635254	0.999999046	0.000118256	-2.57492E-05	1.52588E-05	-1.599121094	6.217956543	-7.215881348	0.005912781	-0.00128746	0.000762939	0.748535156	-0.747802734	0.411132813	883.3	139.4212095	9.605756307	-34.21028161	-86
2916	0	-0.064583778	0.249444962	-0.288386345	0.999999046	0.000113487	-0.0001297	7.24792E-05	-1.61459446	6.236124039	-7.209658623	0.005674362	-0.006484985	0.003623962	0.748291016	-0.745605469	0.411132813	883.34	139.425868	9.610969592	-34.21753812	-86
2917	0	-0.065124512	0.249572754	-0.288391113	0.999999046	0.000732422	-1.43051E-05	2.28882E-05	-1.628112793	6.239318848	-7.209777832	0.036621097	-0.000715256	0.001144409	0.750732422	-0.745605469	0.410888672	883.3	139.5036231	9.609898762	-34.21171622	-86
2918	0	-0.063415527	0.247619629	-0.288208008	0.999999046	0.000682831	0.000164032	-1.90735E-05	-1.585388184	6.190490723	-7.205200195	0.034141543	0.0082016	-0.000953674	0.748291016	-0.745605469	0.411132813	883.3	139.5785863	9.596383951	-34.18905418	-86
2919	0	-0.063293457	0.247680664	-0.29119873	0.999999046	-1.14441E-05	8.86917E-05	0.000171661	-1.582336426	6.192016602	-7.279968262	-0.000572205	0.004434586	0.008583069	0.748291016	-0.743408203	0.410888672	883.3	139.5703279	9.575226645	-34.18861801	-86
2920	0	-0.062973976	0.248806953	-0.290655136	0.999999046	-0.000332832	-0.000179291	0.00020504	-1.574349403	6.220173836	-7.266378403	-0.016641617	-0.008964539	0.010251999	0.748291016	-0.743408203	0.413818359	883.3	139.5214291	9.574914904	-34.21100466	-86
2921	0	-0.064575195	0.248779297	-0.288452148	0.999999046	2.67029E-05	-0.000105858	-4.57764E-05	-1.614379883	6.219482422	-7.211303711	0.001335144	-0.005292892	-0.002288818	0.748291016	-0.745605469	0.411132813	883.34	139.5183211	9.586907297	-34.20625665	-86
2922	0	-0.064110756	0.249245644	-0.288452148	0.999999046	0.000497818	-2.28882E-05	-8.86917E-05	-1.602768898	6.23114109	-7.211303711	0.024890901	-0.001144409	-0.004434586	0.748291016	-0.745605469	0.411132813	883.4	139.5708397	9.594879392	-34.19153861	-87
2923	0	-0.064575195	0.247680664	-0.291992188	0.999999046	0.000457764	3.52859E-05	9.91821E-05	-1.614379883	6.192016602	-7.299804688	0.022888184	0.001764298	0.004959107	0.748291016	-0.743408203	0.407958984	883.3	139.6168569	9.583838396	-34.18904746	-87
2924	0	-0.063285828	0.247793198	-0.290392876	0.999999046	3.91006E-05	4.57764E-05	0.000109673	-1.582145691	6.194829941	-7.259821892	0.001955032	0.002288818	0.005483627	0.748291016	-0.745605469	0.411132813	883.3	139.6149247	9.571080397	-34.18660301	-87
2925	0	-0.063964844	0.247741699	-0.291687012	0.999999046	-0.000267029	-8.29697E-05	0.0001297	-1.599121094	6.19354248	-7.292175293	-0.013351441	-0.004148483	0.006484985	0.748291016	-0.743408203	0.410888672	883.24	139.576101	9.56807969	-34.1952196	-87
2926	0	-0.063400269	0.248278618	-0.2895298	0.999999046	-0.000198364	-8.58307E-05	0.000266075	-1.585006714	6.206965446	-7.23824501	-0.009918213	-0.004291535	0.013303757	0.748291016	-0.743408203	0.407958984	883.28	139.5431206	9.5551788	-34.21628921	-87
2927	0	-0.063354492	0.248352051	-0.288757324	0.999999046	4.19617E-05	-0.000124931	0.000102997	-1.583862305	6.20880127	-7.218933105	0.002098084	-0.006246567	0.005149841	0.745849609	-0.743164063	0.416748047	883.28	139.5395814	9.557805699	-34.22525177	-87
2928	0	-0.063559532	0.248523712	-0.289739609	0.999999046	0.000273705	3.24249E-05	-3.14713E-05	-1.588988304	6.213092804	-7.243490219	0.013685227	0.001621246	-0.001573563	0.74609375	-0.747802734	0.414306641	883.3	139.5665641	9.556711095	-34.21150987	-87
2929	0	-0.063537598	0.24822998	-0.292480469	0.999999046	0.000312805	2.00272E-05	-6.48499E-05	-1.588439941	6.205749512	-7.312011719	0.015640259	0.001001358	-0.003242493	0.745849609	-0.743164063	0.410888672	883.3	139.5984779	9.559156582	-34.19546907	-88
2930	0	-0.063842773	0.247070313	-0.291015625	0.999999046	-6.48499E-05	-0.000137329	3.8147E-05	-1.596069336	6.176757813	-7.275390625	-0.003242493	-0.006866455	0.001907349	0.748291016	-0.745605469	0.416992188	883.34	139.5837318	9.567694827	-34.1998471	-88
2931	0	-0.063293457	0.247192383	-0.289367676	0.999999046	-0.000270844	-0.000124931	0.0001297	-1.582336426	6.17980957	-7.234191895	-0.013542176	-0.006246567	0.006484985	0.748291016	-0.745605469	0.411132813	883.4	139.5442293	9.568339802	-34.21193311	-87
2932	0	-0.064278603	0.248524666	-0.288546562	0.999999046	-2.38419E-05	-7.05719E-05	2.19345E-05	-1.606965065	6.213116646	-7.213664055	-0.001192093	-0.003528595	0.001096725	0.748535156	-0.745605469	0.408203125	883.24	139.5352696	9.572296006	-34.2106161	-87
2933	0	-0.063964844	0.249023438	-0.290649414	0.999999046	0.000892639	0.000172615	-9.15527E-05	-1.599121094	6.225585938	-7.266235352	0.044631964	0.008630754	-0.004577637	0.748291016	-0.745605469	0.411132813	883.3	139.6360733	9.563472594	-34.18086549	-88
