Counter	Temperature	VelInc_X	VelInc_Y	VelInc_Z	OriInc_w	OriInc_x	OriInc_y	OriInc_z	Acc_X	Acc_Y	Acc_Z	Gyr_X	Gyr_Y	Gyr_Z	Mag_X	Mag_Y	Mag_Z	Pressure	Roll	Pitch	Yaw	RSSI
60374	0	0.351853371	-0.096661568	0.135134697	0.999999046	-0.001268387	5.53E-05	-4.67E-05	8.796334267	-2.416539192	3.378367424	-0.063419359	0.002765656	-0.002336503	-0.579589844	-0.146240234	-0.786376953	884.04	-35.26573469	-65.6785595	60.43007548	-76
60375	0	0.355651855	-0.097900391	0.136779785	0.999999046	-0.000370026	-4.48E-05	-0.000141144	8.891296387	-2.447509766	3.419494629	-0.018501282	-0.002241135	-0.00705719	-0.579589844	-0.146240234	-0.783447266	884.04	-35.26032477	-65.70152051	60.37582552	-76
60376	0	0.358071327	-0.097838402	0.135087013	0.999999046	-0.000222206	0.000177383	-5.34E-05	8.95178318	-2.445960045	3.377175331	-0.011110306	0.008869171	-0.002670288	-0.577148438	-0.146240234	-0.783447266	884.18	-35.22402747	-65.69746487	60.30579909	-76
60377	0	0.357727051	-0.096130371	0.134765625	0.999999046	-0.000583649	0.000535011	-0.000297546	8.94317627	-2.403259277	3.369140625	-0.029182438	0.026750568	-0.014877321	-0.577148438	-0.146240234	-0.786376953	884.1	-35.12662167	-65.67564514	60.12311488	-76
60378	0	0.358983994	-0.09570694	0.13363266	0.999999046	-0.000837326	0.000589371	0.000178337	8.974599838	-2.392673492	3.340816498	-0.04186631	0.029468542	0.008916856	-0.577148438	-0.144042969	-0.792236328	884.06	-35.14958452	-65.61704606	60.038725	-76
60379	0	0.358215332	-0.096191406	0.13482666	0.999999046	-0.001094818	0.000138283	0.00038147	8.955383301	-2.404785156	3.370666504	-0.054740918	0.00691414	0.019073491	-0.577148438	-0.144042969	-0.792236328	884.1	-35.30994755	-65.58699171	60.0743611	-76
60380	0	0.356088638	-0.099013329	0.132876396	0.999999046	-0.000370979	-2.10E-05	0.00032711	8.902215958	-2.475333214	3.321909904	-0.018548966	-0.001049042	0.016355515	-0.577392578	-0.139648438	-0.786865234	884.06	-35.39991636	-65.57506607	60.12316669	-76
60381	0	0.358398438	-0.096252441	0.133056641	0.999999046	2.67E-05	-8.68E-05	0.000274658	8.959960938	-2.406311035	3.326416016	0.001335144	-0.004339218	0.01373291	-0.577392578	-0.139648438	-0.789794922	883.98	-35.44344358	-65.57254946	60.1700545	-76
60382	0	0.359955788	-0.095466614	0.131960869	0.999999046	0.000282288	-0.00015831	0.000868797	8.998894691	-2.386665344	3.299021721	0.014114382	-0.007915498	0.043439871	-0.577392578	-0.139648438	-0.786865234	884	-35.59032945	-65.53702083	60.36374744	-75
60383	0	0.359436035	-0.093444824	0.132385254	0.999999046	0.000434875	-0.000117302	0.00082016	8.985900879	-2.336120605	3.309631348	0.021743778	-0.005865098	0.041008002	-0.579833984	-0.139648438	-0.789550781	884.06	-35.70332923	-65.50068858	60.53924812	-75
60384	0	0.361448288	-0.094229698	0.131282806	0.999998093	0.001394272	-7.72E-05	0.000491142	9.036207199	-2.355742455	3.28207016	0.069713618	-0.003862382	0.024557123	-0.577392578	-0.139648438	-0.784179688	884.04	-35.63325985	-65.48261195	60.63408835	-75
60385	0	0.361022949	-0.090026855	0.130554199	0.999999046	0.000705719	6.58E-05	-0.000350952	9.02557373	-2.250671387	3.26385498	0.035285953	0.003290177	-0.017547609	-0.579589844	-0.139648438	-0.792480469	884.1	-35.4488564	-65.50754805	60.51327966	-75
60386	0	0.360643387	-0.09209156	0.131340981	0.999999046	-0.00122261	0.000116348	-0.000451088	9.016084671	-2.302289009	3.283524513	-0.061130541	0.005817415	-0.022554404	-0.577148438	-0.144042969	-0.786621094	884	-35.45728006	-65.53438879	60.36743858	-75
60387	0	0.358886719	-0.096984863	0.131774902	0.999999046	-0.000797272	-0.000166893	-4.96E-05	8.972167969	-2.424621582	3.294372559	-0.039863591	-0.008344651	-0.002479553	-0.577392578	-0.141845703	-0.786865234	884.06	-35.54110776	-65.5608416	60.35703251	-75
60388	0	0.359008789	-0.095397949	0.133972168	0.999999046	-0.000491142	-0.000274658	7.63E-05	8.975219727	-2.38494873	3.349304199	-0.024557115	-0.013732911	0.003814697	-0.577392578	-0.139648438	-0.784179688	884.06	-35.63168084	-65.58876307	60.39227001	-75
60389	0	0.360229492	-0.098510742	0.133422852	0.999999046	0.001121521	-0.000472069	0.000347137	9.005737305	-2.462768555	3.335571289	0.056076065	-0.023603446	0.017356877	-0.579589844	-0.141845703	-0.786621094	884.1	-35.62264557	-65.61675791	60.52076319	-75
60390	0	0.359679222	-0.093886375	0.132498741	0.999998093	0.001471519	-0.000374794	0.00014782	8.991980553	-2.347159386	3.312468529	0.073576002	-0.018739708	0.007390979	-0.579589844	-0.141845703	-0.786621094	884.12	-35.51832355	-65.64895061	60.58643653	-75
60391	0	0.359680176	-0.094726563	0.131652832	0.999999046	0.001255035	-0.000380516	0.000202179	8.992004395	-2.368164063	3.291320801	0.062751788	-0.019025808	0.010108951	-0.577392578	-0.144042969	-0.783691406	884.1	-35.45107088	-65.67802516	60.66573223	-76
60392	0	0.358825684	-0.094664574	0.131372452	0.999998093	0.001403809	-0.000330925	0.000300407	8.97064209	-2.366614342	3.284311295	0.070190455	-0.016546255	0.015020376	-0.581787109	-0.143798828	-0.789306641	884.16	-35.38005326	-65.69589878	60.75672022	-75
60393	0	0.360229492	-0.094116211	0.129211426	0.999999046	0.001312256	-0.000208855	0.000305176	9.005737305	-2.352905273	3.230285645	0.065612813	-0.010442737	0.015258794	-0.584228516	-0.148193359	-0.785888672	884	-35.3029541	-65.70212023	60.83347856	-75
60394	0	0.359800339	-0.09252739	0.131256104	0.999999046	0.000570297	-0.000125885	0.000167847	8.995008469	-2.313184738	3.281402588	0.028514864	-0.006294251	0.008392335	-0.581787109	-0.148193359	-0.783203125	884.06	-35.27034032	-65.70968477	60.86518716	-75
60395	0	0.357666016	-0.093688965	0.132507324	0.999999046	4.96E-05	-0.000353813	0.000465393	8.941650391	-2.342224121	3.312683105	0.002479553	-0.01769066	0.023269655	-0.583984375	-0.150390625	-0.785644531	884.06	-35.39264261	-65.71868169	61.00284144	-76
60396	0	0.360111237	-0.096025467	0.131894112	0.999999046	0.000880241	-0.000391006	0.000361443	9.002780914	-2.400636673	3.297352791	0.044012077	-0.019550327	0.018072131	-0.584228516	-0.148193359	-0.782958984	884.04	-35.40415142	-65.7378571	61.12136445	-76
60397	0	0.359741211	-0.094055176	0.133605957	0.999999046	0.001167297	-0.000510216	0.00037384	8.993530273	-2.351379395	3.340148926	0.058364885	-0.025510795	0.018692022	-0.583984375	-0.150390625	-0.782714844	884.06	-35.40305088	-65.76718605	61.26204751	-76
60398	0	0.35999012	-0.092002869	0.131865501	0.999999046	0.000450134	-0.000192642	0.00014019	8.999752998	-2.300071716	3.296637535	0.022506715	-0.009632111	0.007009507	-0.583984375	-0.152587891	-0.782714844	884	-35.38882948	-65.78233011	61.29930386	-76
60399	0	0.35736084	-0.09375	0.129394531	0.999999046	-0.000286102	-0.000105858	0.000423431	8.934020996	-2.34375	3.234863281	-0.014305115	-0.005292893	0.021171571	-0.583984375	-0.152587891	-0.779785156	884	-35.5052295	-65.77048319	61.38916499	-76
60400	0	0.362496376	-0.094009399	0.129079819	0.999999046	0.000666618	-0.000284195	0.000208855	9.062409401	-2.350234985	3.226995468	0.033330921	-0.014209749	0.010442735	-0.586425781	-0.150390625	-0.779785156	884.04	-35.49460964	-65.78958917	61.45732429	-77
60401	0	0.361328125	-0.093261719	0.132263184	0.999999046	0.001045227	-0.000792503	7.63E-06	9.033203125	-2.331542969	3.30657959	0.052261368	-0.039625179	0.00038147	-0.586425781	-0.15234375	-0.773925781	884.1	-35.47421928	-65.86945226	61.56419255	-77
60402	0	0.363245964	-0.092867851	0.132674217	0.999998093	0.001498222	-0.000668526	-0.000226021	9.081149101	-2.321696281	3.316855431	0.074911152	-0.0334263	-0.011301046	-0.586425781	-0.154541016	-0.779541016	884.1	-35.33475494	-65.95325909	61.59348881	-77
60403	0	0.362365723	-0.092956543	0.135009766	0.999997139	0.002040863	-0.000605583	-0.0001297	9.059143066	-2.323913574	3.375244141	0.102043229	-0.030279183	-0.00648499	-0.588623047	-0.156738281	-0.776367188	884.18	-35.14339171	-66.02465425	61.63447438	-78
60404	0	0.361023903	-0.090183258	0.133171082	0.999998093	0.0014534	-8.30E-05	4.48E-05	9.025597572	-2.254581451	3.329277039	0.072670009	-0.004148485	0.002241135	-0.588623047	-0.158935547	-0.773193359	884.06	-34.97810857	-66.03550095	61.63158196	-79
60405	0	0.35748291	-0.090942383	0.132263184	0.999999046	-0.000293732	0.000222206	0.000183105	8.937072754	-2.27355957	3.30657959	-0.014686585	0.011110306	0.009155274	-0.590820313	-0.158935547	-0.773193359	884.16	-34.99703729	-66.00845153	61.61296479	-79
60406	0	0.359037399	-0.095179558	0.130778313	0.999999046	0.000343323	0.000326157	0.0001297	8.975934982	-2.379488945	3.269457817	0.017166138	0.016307831	0.006484986	-0.588378906	-0.161132813	-0.778808594	884.1	-34.91690218	-65.97497491	61.56389438	-79
60407	0	0.35736084	-0.092102051	0.128479004	0.999999046	0.000263214	0.000527382	-3.81E-06	8.934020996	-2.30255127	3.211975098	0.013160706	0.026369096	-0.000190735	-0.5859375	-0.163330078	-0.775878906	883.94	-34.788816	-65.93126353	61.45487119	-79
60408	0	0.357653618	-0.09282589	0.128232956	0.999999046	-0.000439644	0.00043869	0.000170708	8.941340446	-2.32064724	3.205823898	-0.021982195	0.021934511	0.008535386	-0.588378906	-0.161132813	-0.775878906	884.1	-34.79173896	-65.88443234	61.40136994	-79
60409	0	0.358459473	-0.094665527	0.126708984	0.999999046	0.000148773	-6.01E-05	0.00025177	8.961486816	-2.366638184	3.167724609	0.00743866	-0.003004074	0.012588501	-0.586181641	-0.161132813	-0.776123047	884.04	-34.8179087	-65.87927216	61.44589177	-79
60410	0	0.359891891	-0.094748497	0.127913475	0.999999046	0.000696182	-0.000574112	0.000431061	8.997297287	-2.368712425	3.197836876	0.034809118	-0.028705602	0.021553043	-0.5859375	-0.161132813	-0.779052734	884.1	-34.89492838	-65.91071136	61.61165152	-80
60411	0	0.359436035	-0.09161377	0.129394531	0.999999046	0.000225067	-0.000880241	0.00031662	8.985900879	-2.290344238	3.234863281	0.011253359	-0.044012076	0.015830996	-0.588378906	-0.161132813	-0.778808594	884.12	-35.04757318	-65.97829953	61.80103774	-80
60412	0	0.361568451	-0.089707375	0.133863449	0.999998093	-0.001192093	-0.000998497	0.000306129	9.039211273	-2.242684364	3.346586227	-0.05960467	-0.049924871	0.015306479	-0.588378906	-0.161132813	-0.773193359	883.94	-35.37879552	-66.05724272	62.01203748	-80
60413	0	0.360656738	-0.095092773	0.136413574	0.999999046	-0.000972748	-0.00070858	6.10E-05	9.016418457	-2.377319336	3.410339355	-0.048637402	-0.035429009	0.003051759	-0.590820313	-0.158935547	-0.776123047	884.1	-35.59113872	-66.12467399	62.118506	-80
60414	0	0.360406876	-0.094725609	0.133460045	0.999998093	0.000937462	-9.06E-05	-0.000347137	9.01017189	-2.368140221	3.336501122	0.046873101	-0.004529954	-0.017356875	-0.595703125	-0.158691406	-0.772949219	884.1	-35.40572413	-66.16134406	62.03091658	-80
60415	0	0.360656738	-0.094299316	0.131225586	0.999999046	0.000896454	-2.86E-06	-0.000324249	9.016418457	-2.35748291	3.280639648	0.0448227	-0.000143051	-0.016212466	-0.590820313	-0.161132813	-0.772949219	884.04	-35.21645199	-66.18801731	61.93230468	-80
60416	0	0.36438179	-0.095665932	0.127793312	0.999999046	0.000117302	0.000139236	-0.000199318	9.109544754	-2.391648293	3.194832802	0.005865097	0.006961823	-0.009965897	-0.593017578	-0.163085938	-0.775634766	884.06	-35.1221075	-66.1930389	61.84102115	-80
60417	0	0.358398438	-0.092224121	0.126708984	0.999999046	-0.000328064	-2.57E-05	0.000278473	8.959960938	-2.305603027	3.167724609	-0.016403199	-0.00128746	0.013923645	-0.590820313	-0.163330078	-0.775634766	884.16	-35.20523684	-66.18199315	61.8879329	-80
60418	0	0.360123634	-0.091960907	0.129436493	0.999999046	-0.000631332	-0.000480652	0.000525475	9.003090858	-2.299022675	3.235912323	-0.031566625	-0.024032596	0.026273731	-0.593017578	-0.160888672	-0.775634766	884.1	-35.44375823	-66.1970146	62.06620242	-80
60419	0	0.358581543	-0.090759277	0.130126953	0.999999046	-0.000423431	-0.00058651	5.72E-05	8.964538574	-2.268981934	3.253173828	-0.021171572	-0.029325488	0.002861023	-0.593261719	-0.160888672	-0.770019531	884.16	-35.57548804	-66.25276713	62.15701854	-80
60420	0	0.362018585	-0.092864037	0.129012108	0.999999046	-0.000504494	-0.00044632	-0.000160217	9.05046463	-2.321600914	3.225302696	-0.025224688	-0.022315981	-0.008010865	-0.593261719	-0.158691406	-0.772949219	884.06	-35.64962342	-66.30987112	62.17083488	-81
60421	0	0.363708496	-0.095825195	0.130310059	0.999999046	-0.000331879	-0.000430107	-0.000606537	9.092712402	-2.395629883	3.257751465	-0.016593935	-0.021505358	-0.030326847	-0.593261719	-0.160888672	-0.772949219	884.04	-35.60689474	-66.39510486	62.0802466	-80
60422	0	0.360516548	-0.095108032	0.128470421	0.999999046	1.91E-05	-0.000385284	-0.000264168	9.012913704	-2.377700806	3.211760521	0.000953674	-0.019264222	-0.01320839	-0.595458984	-0.160888672	-0.775634766	884.1	-35.59013402	-66.45315449	62.06047071	-80
60423	0	0.36151123	-0.094543457	0.131591797	0.999999046	0.000534058	-0.000151634	1.14E-05	9.037780762	-2.363586426	3.289794922	0.026702882	-0.007581711	0.000572205	-0.597900391	-0.160888672	-0.772705078	883.98	-35.53750815	-66.47079819	62.06760539	-80
60424	0	0.359777451	-0.091547012	0.127673149	0.999999046	-0.000189781	-3.81E-05	0.000209808	8.994436264	-2.288675308	3.191828728	-0.00948906	-0.001907349	0.010490418	-0.595703125	-0.160888672	-0.770019531	884.1	-35.59294898	-66.4645852	62.10314795	-81
60425	0	0.364013672	-0.092712402	0.127380371	0.999999046	-0.000663757	-8.68E-05	-0.000175476	9.100341797	-2.317810059	3.184509277	-0.033187869	-0.004339218	-0.008773804	-0.595703125	-0.160888672	-0.770019531	884.04	-35.62784849	-66.48861275	62.05788387	-81
60426	0	0.36199379	-0.093245506	0.129023552	0.999999046	-0.000442505	-0.000152588	-0.000264168	9.049844742	-2.331137657	3.225588799	-0.022125245	-0.007629395	-0.01320839	-0.593261719	-0.160888672	-0.770019531	884.06	-35.62851305	-66.52458295	62.00199254	-80
60427	0	0.362670898	-0.09362793	0.13104248	0.999999046	-0.000289917	-9.06E-05	-0.000362396	9.066772461	-2.340698242	3.276062012	-0.01449585	-0.004529953	-0.018119813	-0.595703125	-0.158691406	-0.772949219	884.04	-35.58089982	-66.56112704	61.90953894	-80
60428	0	0.360046387	-0.093261719	0.128295898	0.999999046	2.77E-05	0.0001297	-0.00030899	9.001159668	-2.331542969	3.207397461	0.001382828	0.006484985	-0.015449524	-0.593261719	-0.160888672	-0.772949219	884.16	-35.47446698	-66.57337775	61.79367776	-80
60429	0	0.362568855	-0.091860771	0.126566887	0.999998093	0.000203133	6.48E-05	-0.000182152	9.064221382	-2.296519279	3.164172173	0.010156632	0.003242493	-0.00910759	-0.595703125	-0.160888672	-0.767089844	883.98	-35.38525784	-66.58318794	61.72271232	-80
60430	0	0.36310482	-0.090519905	0.126467705	0.999999046	-0.000204086	8.58E-05	-0.000275612	9.077620506	-2.262997627	3.161692619	-0.010204315	0.004291535	-0.013780594	-0.595458984	-0.158691406	-0.775878906	884	-35.31930962	-66.59725569	61.61841435	-80
60431	0	0.361572266	-0.087158203	0.125854492	0.999999046	-0.000968933	0.000519753	-0.000476837	9.039306641	-2.178955078	3.146362305	-0.048446667	0.025987631	-0.023841864	-0.595458984	-0.160888672	-0.772705078	884.06	-35.23090822	-66.58412384	61.40080651	-80
60432	0	0.362929344	-0.088705063	0.126241684	0.999995232	-0.002812386	0.00071907	-0.000481606	9.073233604	-2.217626572	3.156042099	-0.140619481	0.035953574	-0.024080311	-0.595703125	-0.156494141	-0.775878906	884.04	-35.32242638	-66.55277186	61.14815641	-80
60433	0	0.361633301	-0.094787598	0.12878418	0.999996185	-0.002398491	0.00030899	-0.000610352	9.04083252	-2.369689941	3.219604492	-0.11992467	0.01544954	-0.03051761	-0.591064453	-0.154541016	-0.7734375	884.04	-35.40181096	-66.56826063	60.935212	-80
60434	0	0.361816406	-0.094543457	0.131286621	0.999999046	-0.000778198	0.000144958	-0.000476837	9.045410156	-2.363586426	3.282165527	-0.038909918	0.007247926	-0.023841861	-0.591064453	-0.154541016	-0.776367188	884.06	-35.34937424	-66.58998237	60.78031904	-80
60435	0	0.36108017	-0.093922615	0.130542755	0.999998093	0.00077343	0.000209808	-0.000266075	9.027004242	-2.348065376	3.263568878	0.038671498	0.010490419	-0.013303758	-0.591308594	-0.150146484	-0.773925781	884.1	-35.15470771	-66.59133458	60.65892255	-80
60436	0	0.361755371	-0.092163086	0.129333496	0.999999046	0.000691414	0.000133514	-0.000144958	9.043884277	-2.304077148	3.233337402	0.034570697	0.006675721	-0.007247925	-0.591064453	-0.154541016	-0.776367188	884.1	-35.00735386	-66.59160647	60.58112859	-80
60437	0	0.358337402	-0.091918945	0.127685547	0.999999046	0.000217438	5.82E-05	0.000152588	8.958435059	-2.297973633	3.192138672	0.010871887	0.002908707	0.007629395	-0.593261719	-0.156494141	-0.779052734	884.12	-34.99049659	-66.57923686	60.5879913	-80
60438	0	0.362261772	-0.090936661	0.127094269	0.999999046	-0.000219345	-0.0001297	0.000244141	9.056544304	-2.273416519	3.17735672	-0.010967255	-0.006484985	0.012207032	-0.588623047	-0.154541016	-0.776611328	884	-35.07220387	-66.5784965	60.64496256	-80
60439	0	0.362121582	-0.092285156	0.13092041	0.999999046	3.81E-05	1.62E-05	0.000133514	9.053039551	-2.307128906	3.273010254	0.001907349	0.000810623	0.00667572	-0.590820313	-0.156738281	-0.779052734	884.1	-35.07826677	-66.57117636	60.65411828	-80
60440	0	0.36136055	-0.089808464	0.12861824	0.999999046	-0.00014782	0.000141144	7.15E-05	9.034013748	-2.245211601	3.215456009	-0.007390976	0.00705719	0.003576279	-0.591064453	-0.154541016	-0.776367188	884.1	-35.07315109	-66.55620559	60.6276193	-80
60441	0	0.361022949	-0.091491699	0.129516602	0.999999046	-7.63E-06	0.000172615	-0.00012207	9.02557373	-2.28729248	3.237915039	-0.00038147	0.008630753	-0.006103516	-0.591064453	-0.154541016	-0.776367188	884.12	-35.00536906	-66.5509152	60.55044405	-79
60442	0	0.361428261	-0.091650009	0.127075195	0.999999046	-0.000303268	0.000196457	-3.91E-05	9.03570652	-2.291250229	3.176879883	-0.015163422	0.009822846	-0.001955032	-0.588623047	-0.154541016	-0.779296875	884.1	-34.98608359	-66.53791592	60.48687232	-80
60443	0	0.359863281	-0.091003418	0.129638672	0.999999046	-0.000343323	-2.57E-05	-4.58E-05	8.996582031	-2.275085449	3.240966797	-0.017166138	-0.00128746	-0.002288818	-0.588623047	-0.154541016	-0.776611328	884.06	-35.0035851	-66.5461108	60.46080873	-80
60444	0	0.361953735	-0.09179306	0.13083744	0.999999046	0.000348091	-7.82E-05	0.000102043	9.048843384	-2.294826508	3.270936012	0.017404557	-0.003910065	0.005102158	-0.588623047	-0.154541016	-0.779296875	884.12	-34.98175434	-66.54938804	60.47574527	-79
60445	0	0.362243652	-0.09197998	0.130065918	0.999999046	0.000919342	-1.05E-05	-0.000106812	9.056091309	-2.299499512	3.251647949	0.045967109	-0.000524521	-0.005340577	-0.591064453	-0.154541016	-0.7734375	884.1	-34.83901703	-66.55991134	60.43328847	-79
60446	0	0.362243652	-0.089477539	0.129699707	0.999999046	0.001155853	0.000152588	-0.000225067	9.056091309	-2.236938477	3.242492676	0.057792677	0.007629396	-0.01125336	-0.586181641	-0.154785156	-0.782470703	884.18	-34.6187151	-66.56272621	60.32488258	-79
60447	0	0.36045742	-0.090276718	0.129722595	0.999998093	0.000311852	-5.53E-05	-0.000217438	9.011435509	-2.256917953	3.24306488	0.015592575	-0.002765656	-0.010871887	-0.588623047	-0.156738281	-0.779296875	884.1	-34.52795167	-66.58447758	60.25736293	-79
60448	0	0.362014771	-0.090296745	0.128914833	0.999999046	0.000144005	4.01E-05	-0.000271797	9.050369263	-2.257418633	3.222870827	0.007200241	0.002002716	-0.013589859	-0.588378906	-0.158935547	-0.779052734	884.1	-34.43025843	-66.60068624	60.16368161	-79
60449	0	0.363708496	-0.090576172	0.130004883	0.999999046	-0.000301361	1.24E-05	-0.000366211	9.092712402	-2.264404297	3.25012207	-0.015068055	0.000619888	-0.018310548	-0.590820313	-0.161132813	-0.775878906	884.1	-34.36706925	-66.62553109	60.05863584	-79
60450	0	0.36059761	-0.090147018	0.130324364	0.999999046	0.000106812	-3.43E-05	-0.000199318	9.014940262	-2.253675461	3.258109093	0.005340576	-0.001716614	-0.009965897	-0.590820313	-0.158935547	-0.778808594	883.96	-34.30054213	-66.64385352	59.99538872	-79
60451	0	0.358337402	-0.091247559	0.130065918	0.999999046	0.000293732	-0.000144005	-1.53E-05	8.958435059	-2.281188965	3.251647949	0.014686585	-0.007200241	-0.000762939	-0.586181641	-0.158935547	-0.776367188	884.12	-34.26949824	-66.66047982	59.99224412	-79
60452	0	0.359231949	-0.091649055	0.129466057	0.999999046	-7.53E-05	-0.000114441	2.29E-05	8.980798721	-2.291226387	3.236651421	-0.003767014	-0.005722046	0.001144409	-0.588623047	-0.158935547	-0.773193359	884.06	-34.28499732	-66.67169555	59.99734908	-78
60453	0	0.362487793	-0.092102051	0.13079834	0.999999046	0.000431061	-0.000300407	7.63E-05	9.062194824	-2.30255127	3.269958496	0.021553041	-0.015020371	0.003814697	-0.588623047	-0.158935547	-0.776123047	884.04	-34.28230137	-66.6969258	60.04236999	-78
60454	0	0.362185478	-0.089970589	0.13022995	0.999999046	0.000904083	-0.000169754	9.44E-05	9.054636955	-2.249264717	3.255748749	0.045204169	-0.008487703	0.004720689	-0.590576172	-0.163330078	-0.778564453	884.1	-34.20987283	-66.70854257	60.07363269	-77
60455	0	0.362487793	-0.08795166	0.12902832	0.999999046	0.000431061	-9.82E-05	0.00012207	9.062194824	-2.198791504	3.225708008	0.02155304	-0.004911423	0.006103516	-0.588378906	-0.161132813	-0.778808594	884.04	-34.1869707	-66.71163275	60.09441	-77
60456	0	0.360721588	-0.087440491	0.129031181	0.999999046	-5.44E-05	-7.63E-05	2.29E-05	9.018039703	-2.186012268	3.225779533	-0.002717972	-0.003814697	0.001144409	-0.590820313	-0.161132813	-0.775878906	884	-34.19447585	-66.71903139	60.09140081	-77
60457	0	0.364501953	-0.090270996	0.129699707	0.999999046	0.000110626	-0.00020504	-0.000102997	9.112548828	-2.256774902	3.242492676	0.005531311	-0.010251999	-0.005149841	-0.590820313	-0.163330078	-0.775634766	884.06	-34.17475605	-66.74671268	60.0817845	-76
60458	0	0.362375259	-0.087177277	0.128592491	0.999999046	9.54E-05	-4.58E-05	0.000124931	9.059381485	-2.179431915	3.214812279	0.004768372	-0.002288818	0.006246567	-0.590820313	-0.163330078	-0.775634766	884.04	-34.18310765	-66.7446681	60.10071942	-76
60459	0	0.363098145	-0.088562012	0.130249023	0.999999046	-0.00043869	-1.43E-05	0.000225067	9.077453613	-2.214050293	3.256225586	-0.02193451	-0.000715256	0.011253357	-0.590820313	-0.163330078	-0.775634766	884.1	-34.26994093	-66.73314162	60.13983574	-75
60460	0	0.361657143	-0.089875221	0.12832737	0.999999046	0.000170708	-7.44E-05	0.000201225	9.041428566	-2.246880531	3.208184242	0.008535385	-0.00371933	0.010061264	-0.590820313	-0.163330078	-0.775634766	884.04	-34.29086163	-66.72880505	60.18293196	-75
60461	0	0.360839844	-0.091430664	0.132995605	0.999999046	0.001060486	-0.000365257	7.63E-05	9.020996094	-2.285766602	3.324890137	0.053024303	-0.018262867	0.003814698	-0.590820313	-0.161132813	-0.778808594	884.1	-34.22597501	-66.75982194	60.23511928	-75
60462	0	0.361714363	-0.089012146	0.130599976	0.999999046	0.001302719	-0.000265121	4.10E-05	9.042859077	-2.22530365	3.26499939	0.065135975	-0.013256077	0.0020504	-0.593017578	-0.165283203	-0.778320313	884.1	-34.11041221	-66.78355851	60.26644344	-75
60463	0	0.362915039	-0.087402344	0.128723145	0.999999046	0.000377655	0.000123024	0.000198364	9.072875977	-2.185058594	3.218078613	0.018882752	0.0061512	0.009918213	-0.590576172	-0.165527344	-0.772705078	884.1	-34.07742616	-66.76041168	60.27500576	-75
60464	0	0.361016273	-0.090134621	0.128085136	0.999999046	1.24E-05	0.000236511	0.000235558	9.025406837	-2.253365517	3.20212841	0.000619888	0.011825562	0.011777878	-0.590576172	-0.165527344	-0.772705078	884.06	-34.07785909	-66.72407052	60.27512025	-75
60465	0	0.367431641	-0.089782715	0.128356934	0.999999046	0.000492096	0.000119209	0.000301361	9.185791016	-2.244567871	3.20892334	0.024604799	0.005960465	0.015068055	-0.590576172	-0.167724609	-0.775390625	884.04	-34.05557638	-66.69474573	60.3108987	-75
60466	0	0.362282753	-0.086700439	0.129015923	0.999999046	0.000154495	3.05E-05	0.000209808	9.057068825	-2.167510986	3.225398064	0.007724762	0.001525879	0.010490418	-0.590576172	-0.167724609	-0.772460938	884.06	-34.06485327	-66.67978212	60.34115322	-74
60467	0	0.359307289	-0.087295532	0.130712509	0.999999046	0.000165939	-1.05E-05	0.000595093	8.982682228	-2.182388306	3.267812729	0.008296967	-0.000524521	0.029754641	-0.590576172	-0.165527344	-0.772705078	884.1	-34.16338562	-66.64386544	60.46716652	-74
60468	0	0.360246658	-0.086585045	0.129694939	0.999999046	0.000937462	-6.29E-05	0.000331879	9.006166458	-2.164626122	3.242373466	0.0468731	-0.003147126	0.016593936	-0.588134766	-0.167724609	-0.775390625	884.04	-34.12311711	-66.62984506	60.53601945	-74
60469	0	0.361022949	-0.084716797	0.129760742	0.999999046	0.000858307	-9.44E-05	0.000133514	9.02557373	-2.117919922	3.244018555	0.04291535	-0.004720688	0.006675721	-0.590576172	-0.167724609	-0.778320313	884	-34.0526256	-66.63166161	60.55935487	-74
60470	0	0.360108376	-0.086056709	0.129228592	0.999999046	-0.000370026	3.81E-05	-1.14E-05	9.002709389	-2.151417732	3.230714798	-0.018501282	0.001907349	-0.000572205	-0.590576172	-0.167724609	-0.775390625	884.04	-34.07115549	-66.63025134	60.52972042	-74
60471	0	0.358947754	-0.089538574	0.128601074	0.999999046	-0.000450134	-1.81E-05	-0.000118256	8.973693848	-2.238464355	3.215026855	-0.022506715	-0.000905991	-0.005912781	-0.590576172	-0.167724609	-0.772460938	884	-34.08397436	-66.64100203	60.48706762	-74
60472	0	0.360011101	-0.091708183	0.13064003	0.999999046	0.00024128	-0.000396729	-0.000203133	9.000277519	-2.292704582	3.266000748	0.012063981	-0.019836427	-0.010156632	-0.593017578	-0.165283203	-0.775390625	884.04	-34.05545495	-66.69297991	60.47965445	-74
60473	0	0.361938477	-0.092651367	0.131530762	0.999999046	0.001018524	-0.000540733	-0.000164032	9.048461914	-2.31628418	3.288269043	0.05092622	-0.027036673	-0.008201601	-0.590576172	-0.167724609	-0.775390625	884	-33.96815532	-66.75593484	60.50344425	-74
60474	0	0.360339165	-0.091047287	0.130349159	0.999999046	0.000736237	-0.000450134	0.000305176	9.008479118	-2.276182175	3.258728981	0.036811834	-0.022506717	0.015258791	-0.592773438	-0.171875	-0.769042969	884.06	-34.0037929	-66.78007473	60.63617036	-73
60475	0	0.360656738	-0.092102051	0.131958008	0.999999046	0.000911713	-0.000357628	0.000335693	9.016418457	-2.30255127	3.298950195	0.04558564	-0.017881397	0.016784671	-0.592773438	-0.171875	-0.771972656	884	-34.0126199	-66.79320828	60.75667185	-73
60476	0	0.359589577	-0.090826035	0.12936306	0.999999046	0.001105309	-0.000368118	0.000288963	8.989739418	-2.270650864	3.2340765	0.05526544	-0.018405919	0.014448169	-0.592773438	-0.171875	-0.774902344	884.04	-33.99082425	-66.81020839	60.86253746	-73
60477	0	0.360595703	-0.090759277	0.12890625	0.999999046	0.001247406	-0.000418663	0.000331879	9.014892578	-2.268981934	3.22265625	0.062370319	-0.020933158	0.016593938	-0.594970703	-0.174072266	-0.771728516	884.06	-33.97020298	-66.82918502	60.99120946	-73
60478	0	0.364976883	-0.089705467	0.128334999	0.999998093	0.001749992	-0.00055027	0.000361443	9.124422073	-2.242636681	3.208374977	0.08749967	-0.02751352	0.018072139	-0.594970703	-0.174072266	-0.768798828	884.06	-33.91858509	-66.85885121	61.14619431	-73
60479	0	0.362731934	-0.084716797	0.129150391	0.999998093	0.001332283	-0.000553131	0.000434875	9.06829834	-2.117919922	3.228759766	0.066614176	-0.027656566	0.021743783	-0.594970703	-0.178466797	-0.768554688	884	-33.93142196	-66.88419416	61.32227617	-73
60480	0	0.363839149	-0.083774567	0.129153252	0.999999046	0.000704765	-0.000511169	0.000240326	9.095978737	-2.094364166	3.228831291	0.035238271	-0.025558475	0.012016298	-0.597167969	-0.180419922	-0.768310547	884.04	-33.96632016	-66.91808705	61.44635524	-73
60481	0	0.36517334	-0.084228516	0.128540039	0.999999046	0.000530243	-0.000185966	-0.000244141	9.129333496	-2.105712891	3.213500977	0.026512148	-0.009298325	-0.012207032	-0.597167969	-0.178222656	-0.765625	884.06	-33.86397695	-66.95220144	61.3964082	-73
60482	0	0.361599922	-0.083733559	0.127943993	0.999999046	-0.000379562	-8.20E-05	-0.000259399	9.039998055	-2.093338966	3.198599815	-0.01897812	-0.0041008	-0.012969971	-0.599609375	-0.180419922	-0.765136719	883.94	-33.84641002	-66.97747096	61.33117601	-73
60483	0	0.364318848	-0.088195801	0.128295898	0.999999046	-0.000343323	-1.81E-05	-0.000442505	9.107971191	-2.20489502	3.207397461	-0.017166139	-0.000905991	-0.022125245	-0.599365234	-0.180419922	-0.768066406	883.96	-33.77406668	-67.00831815	61.20845267	-73
60484	0	0.36525631	-0.088328362	0.130234718	0.999999046	-0.000512123	0.000268936	-0.000530243	9.131407738	-2.208209038	3.255867958	-0.025606158	0.013446809	-0.026512149	-0.597167969	-0.180419922	-0.765380859	884.04	-33.65814048	-67.01724095	61.01928065	-72
60485	0	0.365539551	-0.083374023	0.12890625	0.999998093	-0.001227379	0.000888824	-0.000278473	9.13848877	-2.084350586	3.22265625	-0.061368967	0.044441241	-0.013923651	-0.599609375	-0.178222656	-0.768310547	884.04	-33.58801428	-66.9510373	60.79119309	-72
60486	0	0.358399391	-0.082573891	0.128302574	0.999995232	-0.002876282	0.001001358	-0.000375748	8.959984779	-2.064347267	3.207564354	-0.143814313	0.05006798	-0.018787414	-0.594970703	-0.176269531	-0.771484375	884.04	-33.66866552	-66.88032357	60.5218843	-73
60487	0	0.360900879	-0.088256836	0.128234863	0.999998093	-0.001410484	0.000358582	-0.000534058	9.022521973	-2.206420898	3.205871582	-0.070524244	0.017929084	-0.026702892	-0.592529297	-0.174072266	-0.771728516	883.96	-33.64220254	-66.88099999	60.31702141	-72
60488	0	0.362182617	-0.086242676	0.128234863	0.999999046	-0.000563622	-4.20E-05	-0.000324249	9.05456543	-2.156066895	3.205871582	-0.028181078	-0.002098084	-0.016212465	-0.592529297	-0.174072266	-0.771728516	884.04	-33.62511303	-66.9065947	60.22878186	-73
60489	0	0.3633461	-0.086229324	0.129603386	0.999998093	-0.000636101	-5.15E-05	2.86E-05	9.083652496	-2.155733109	3.240084648	-0.031805041	-0.002574921	0.001430512	-0.590332031	-0.172119141	-0.774902344	884.04	-33.69659283	-66.9107139	60.2223272	-73
60490	0	0.362686157	-0.088954926	0.13144207	0.999999046	-0.000120163	5.34E-05	-0.000102997	9.067153931	-2.223873138	3.28605175	-0.006008148	0.002670288	-0.005149841	-0.590332031	-0.174072266	-0.769042969	884	-33.66395188	-66.91304591	60.17521594	-73
60491	0	0.361877441	-0.087097168	0.127380371	0.999999046	-7.63E-06	0.000248909	2.29E-05	9.046936035	-2.177429199	3.184509277	-0.00038147	0.01244545	0.001144409	-0.592773438	-0.171875	-0.771972656	884	-33.61767105	-66.88876566	60.12348845	-73
60492	0	0.358696938	-0.086750031	0.128167152	0.999999046	-0.000645638	0.000148773	0.000220299	8.967423439	-2.168750763	3.20417881	-0.032281878	0.00743866	0.011014939	-0.592773438	-0.171875	-0.771972656	884	-33.70362151	-66.86147268	60.13844964	-73
60493	0	0.361206055	-0.087402344	0.129394531	0.999999046	-0.000782013	-3.72E-05	0.000347137	9.030151367	-2.185058594	3.234863281	-0.039100652	-0.001859665	0.017356875	-0.592773438	-0.169677734	-0.769287109	884.04	-33.86107438	-66.84376611	60.21551093	-73
60494	0	0.36274147	-0.088165283	0.131425858	0.999999046	-0.000518799	5.91E-05	0.000442505	9.068536758	-2.20413208	3.285646439	-0.025939943	0.002956391	0.022125246	-0.590332031	-0.169921875	-0.775146484	884.12	-33.99489712	-66.81063431	60.29578736	-73
60495	0	0.362182617	-0.087890625	0.13079834	0.999999046	8.01E-05	1.62E-05	0.000495911	9.05456543	-2.197265625	3.269958496	0.004005432	0.000810623	0.024795533	-0.593017578	-0.167480469	-0.772460938	884.06	-34.07797154	-66.77803135	60.39635415	-73
60496	0	0.364409447	-0.088781357	0.129968643	0.999999046	0.000704765	-9.35E-05	0.000301361	9.110236168	-2.21953392	3.24921608	0.035238269	-0.004673005	0.015068056	-0.590576172	-0.167724609	-0.778320313	884.04	-34.06271946	-66.76830721	60.46003837	-73
60497	0	0.361572266	-0.086242676	0.128112793	0.999999046	0.001087189	0.000115395	3.81E-05	9.039306641	-2.156066895	3.202819824	0.054359447	0.005769731	0.001907349	-0.592773438	-0.169677734	-0.775146484	884.02	-33.91412042	-66.75572429	60.43104052	-74
60498	0	0.361718178	-0.087150574	0.128446579	0.999998093	0.00036335	-2.19E-05	0.000190735	9.042954445	-2.178764343	3.211164474	0.018167496	-0.001096725	0.009536743	-0.592773438	-0.171875	-0.774902344	884.06	-33.90274473	-66.74648545	60.46416562	-74
60499	0	0.359436035	-0.088562012	0.127197266	0.999999046	0.000507355	-0.000166893	0.000152588	8.985900879	-2.214050293	3.179931641	0.025367738	-0.008344651	0.007629395	-0.594970703	-0.171875	-0.771972656	884.06	-33.88824131	-66.75349778	60.51428626	-74
60500	0	0.362991333	-0.088481903	0.128202438	0.999999046	0.0002985	-0.000320435	0.00063324	9.074783325	-2.212047577	3.205060959	0.014925005	-0.01602173	0.03166199	-0.595214844	-0.171875	-0.769042969	884.06	-34.02706157	-66.74437302	60.70738544	-74
60501	0	0.363647461	-0.086486816	0.130126953	0.999999046	0.000125885	-0.000174522	0.000667572	9.091186523	-2.16217041	3.253173828	0.006294251	-0.008726121	0.033378604	-0.594970703	-0.174072266	-0.774658203	884.04	-34.17101542	-66.71906351	60.88352466	-74
60502	0	0.362784386	-0.085719109	0.128189087	0.999999046	6.87E-05	8.20E-05	0.00032711	9.069609642	-2.142977715	3.204727173	0.003433228	0.0041008	0.016355515	-0.592773438	-0.169677734	-0.775146484	884.1	-34.20770074	-66.69138772	60.92719808	-74
60503	0	0.361938477	-0.08581543	0.127746582	0.999999046	-0.000648499	0.000210762	0.000190735	9.048461914	-2.145385742	3.193664551	-0.032424929	0.010538102	0.009536744	-0.592773438	-0.169677734	-0.769287109	883.96	-34.27705686	-66.66043026	60.92464225	-74
60504	0	0.360595703	-0.088195801	0.127929688	0.999999046	-0.000769615	1.14E-05	0.000183105	9.014892578	-2.20489502	3.198242188	-0.038480763	0.000572205	0.009155274	-0.593017578	-0.167480469	-0.772460938	884.12	-34.38840785	-66.6488809	60.94901122	-75
60505	0	0.363862991	-0.089381218	0.128728867	0.999999046	-0.000511169	-3.91E-05	-8.87E-05	9.096574783	-2.234530449	3.218221664	-0.025558473	-0.001955032	-0.004434586	-0.595214844	-0.167480469	-0.772216797	884.1	-34.41822711	-66.65975263	60.91978265	-75
60506	0	0.362205505	-0.090248108	0.130214691	0.999999046	-0.000301361	4.20E-05	-0.00025177	9.055137634	-2.256202698	3.255367279	-0.015068055	0.002098084	-0.012588501	-0.592773438	-0.167480469	-0.775146484	884.06	-34.37611575	-66.67345109	60.83464301	-75
60507	0	0.363098145	-0.090576172	0.128540039	0.999999046	0.000335693	-1.81E-05	1.91E-05	9.077453613	-2.264404297	3.213500977	0.016784668	-0.000905991	0.000953674	-0.592773438	-0.167480469	-0.775146484	884.06	-34.32959337	-66.67529943	60.82323191	-75
60508	0	0.361755371	-0.089477539	0.12890625	0.999999046	0.000294685	-0.000106812	-3.43E-05	9.043884277	-2.236938477	3.22265625	0.014734268	-0.005340576	-0.001716614	-0.593017578	-0.165283203	-0.772460938	884.02	-34.28940274	-66.68898102	60.81134173	-75
60509	0	0.361450195	-0.087524414	0.12890625	0.999999046	0.000213623	-2.96E-05	-0.000190735	9.036254883	-2.188110352	3.22265625	0.010681152	-0.001478195	-0.009536743	-0.593017578	-0.167480469	-0.772460938	884.02	-34.21238403	-66.70546154	60.75197825	-75
60510	0	0.361675262	-0.090811729	0.127579689	0.999999046	0.000123978	0	-2.38E-05	9.041881561	-2.270293236	3.189492226	0.006198883	0	-0.001192093	-0.592773438	-0.169677734	-0.777832031	884.04	-34.17825427	-66.70836446	60.72656524	-76
60511	0	0.364562988	-0.088745117	0.128417969	0.999999046	0.000289917	-5.63E-05	-3.43E-05	9.114074707	-2.21862793	3.210449219	0.01449585	-0.002813339	-0.001716614	-0.592773438	-0.169677734	-0.769287109	884.06	-34.13127522	-66.71734591	60.71426303	-76
60512	0	0.363484383	-0.08602047	0.129890442	0.999999046	-0.000103951	0.000143051	-9.25E-05	9.087109566	-2.150511742	3.247261047	-0.005197525	0.007152557	-0.00462532	-0.592773438	-0.169677734	-0.772216797	884.06	-34.08652692	-66.71121129	60.65314525	-76
60513	0	0.360412598	-0.087646484	0.128234863	0.999999046	-7.25E-05	-0.000117302	-6.48E-05	9.010314941	-2.191162109	3.205871582	-0.003623962	-0.005865097	-0.003242493	-0.592773438	-0.167480469	-0.775146484	884.1	-34.08314029	-66.72802225	60.63460033	-77
60514	0	0.361064911	-0.090182304	0.128013611	0.999999046	0.000391006	-0.000125885	-0.000203133	9.026622772	-2.25455761	3.200340271	0.019550324	-0.006294251	-0.010156632	-0.593017578	-0.167480469	-0.76953125	883.94	-33.99762783	-66.75448554	60.5878146	-77
60515	0	0.360595703	-0.088317871	0.128601074	0.999999046	-0.000118256	-0.00014782	6.87E-05	9.014892578	-2.207946777	3.215026855	-0.005912781	-0.007390976	0.003433228	-0.592773438	-0.169677734	-0.775146484	884	-34.0338825	-66.76558034	60.60884614	-77
60516	0	0.361597061	-0.091388702	0.130851746	0.999998093	-0.000343323	-0.000281334	-9.82E-05	9.039926529	-2.28471756	3.27129364	-0.017166138	-0.014066697	-0.004911423	-0.592773438	-0.169677734	-0.769287109	884	-34.07923815	-66.799885	60.61705666	-77
60517	0	0.363769531	-0.091247559	0.130249023	0.999999046	8.39E-05	-0.000136375	0.000164032	9.094238281	-2.281188965	3.256225586	0.004196167	-0.006818771	0.008201599	-0.592773438	-0.169677734	-0.769287109	884.1	-34.1122752	-66.80347901	60.66480385	-77
60518	0	0.360900879	-0.088378906	0.129089355	0.999999046	6.48E-05	-5.72E-05	0.000457764	9.022521973	-2.209472656	3.227233887	0.003242493	-0.002861023	0.022888184	-0.595214844	-0.169677734	-0.769287109	884	-34.20057049	-66.78060726	60.77251796	-77
60519	0	0.362372398	-0.088277817	0.129255295	0.999998093	0.000348091	-5.72E-06	0.000150681	9.059309959	-2.206945419	3.23138237	0.017404557	-0.000286102	0.007534027	-0.595214844	-0.169677734	-0.771972656	884.02	-34.18068826	-66.77259554	60.79466533	-77
60520	0	0.363619804	-0.089974403	0.128605843	0.999999046	0.000872612	-5.15E-05	-8.58E-06	9.09049511	-2.249360085	3.215146065	0.043630606	-0.002574921	-0.000429153	-0.595214844	-0.169677734	-0.774902344	884.04	-34.07255095	-66.77917141	60.78088377	-77
60521	0	0.362487793	-0.087463379	0.128601074	0.999999046	0.001049042	-0.00014019	-1.91E-05	9.062194824	-2.186584473	3.215026855	0.052452097	-0.007009508	-0.000953674	-0.594970703	-0.174072266	-0.768798828	884.06	-33.95503121	-66.79487276	60.78827302	-77
60522	0	0.362282753	-0.08626461	0.128679276	0.999999046	0.000770569	-0.000190735	4.58E-05	9.057068825	-2.156615257	3.216981888	0.038528446	-0.009536744	0.002288819	-0.594970703	-0.171875	-0.774658203	884	-33.89114945	-66.81128853	60.80769348	-77
60523	0	0.362121582	-0.084594727	0.128479004	0.999999046	0.00088501	-0.000231743	-0.00025177	9.053039551	-2.114868164	3.211975098	0.044250495	-0.011587145	-0.012588503	-0.594970703	-0.174072266	-0.771728516	884.04	-33.75374949	-66.85069996	60.76438387	-78
60524	0	0.363342285	-0.083618164	0.128356934	0.999999046	0.000401497	-8.77E-05	-0.000507355	9.083557129	-2.090454102	3.20892334	0.020074846	-0.004386902	-0.025367739	-0.592529297	-0.174072266	-0.771728516	884.1	-33.59262558	-66.89270914	60.63112903	-78
60525	0	0.364876747	-0.086107254	0.12869072	0.999998093	-0.000220299	9.73E-05	-0.000355721	9.121918678	-2.152681351	3.21726799	-0.011014939	0.004863739	-0.017786027	-0.594726563	-0.178466797	-0.771484375	884.04	-33.5088441	-66.90741016	60.51421465	-78
60526	0	0.364263535	-0.085948944	0.129356384	0.999999046	5.72E-05	-0.000108719	-0.000461578	9.106588364	-2.148723602	3.233909607	0.002861023	-0.005435944	-0.023078919	-0.594970703	-0.178466797	-0.765625	884.06	-33.39979006	-66.94844354	60.40859952	-78
60527	0	0.360168457	-0.084899902	0.127929688	0.999999046	0.000461578	-4.86E-05	-0.000152588	9.004211426	-2.122497559	3.198242188	0.023078919	-0.00243187	-0.007629395	-0.594970703	-0.178466797	-0.765625	884.1	-33.30469115	-66.96419537	60.36665927	-78
60528	0	0.361672401	-0.086686134	0.127790451	0.999999046	9.25E-05	-5.91E-05	-0.000102997	9.041810036	-2.167153358	3.194761276	0.00462532	-0.00295639	-0.005149841	-0.594970703	-0.176269531	-0.771484375	884.06	-33.26475406	-66.97781061	60.32891015	-79
60529	0	0.363891602	-0.088256836	0.128234863	0.999999046	8.77E-05	-0.000109673	-0.000175476	9.097290039	-2.206420898	3.205871582	0.004386902	-0.005483627	-0.008773804	-0.592529297	-0.178466797	-0.765869141	884.06	-33.2167887	-67.00079457	60.28818576	-78
60530	0	0.364743233	-0.085725784	0.13018322	0.999999046	0.000152588	2.67E-05	0.000151634	9.118580818	-2.143144608	3.254580498	0.007629395	0.001335144	0.007581711	-0.597412109	-0.176025391	-0.768554688	883.96	-33.21501189	-66.9901431	60.30244785	-78
60531	0	0.362976074	-0.083496094	0.129333496	0.999999046	-0.000278473	0.000508308	0.000175476	9.074401855	-2.087402344	3.233337402	-0.013923646	0.025415422	0.008773804	-0.594726563	-0.178466797	-0.771484375	884.04	-33.19669866	-66.93185973	60.24703388	-78
60532	0	0.360194206	-0.081313133	0.126357079	0.999999046	-0.001132011	0.000686646	0.000220299	9.004855156	-2.032828331	3.158926964	-0.056600588	0.034332286	0.011014942	-0.592529297	-0.178466797	-0.768554688	884	-33.25990525	-66.85385391	60.18027466	-78
60533	0	0.36126709	-0.085754395	0.126708984	0.999998093	-0.001410484	0.000526428	9.16E-05	9.031677246	-2.143859863	3.167724609	-0.070524242	0.026321421	0.004577638	-0.592773438	-0.174072266	-0.769042969	884.04	-33.34995722	-66.79942863	60.10542437	-77
60534	0	0.361725807	-0.087769508	0.128002167	0.999999046	-0.000843048	0.000263214	-0.000161171	9.04314518	-2.194237709	3.200054169	-0.04215241	0.013160707	-0.008058549	-0.592529297	-0.174072266	-0.771728516	884	-33.3575549	-66.78616592	60.01168523	-76
60535	0	0.362121582	-0.089050293	0.130493164	0.999999046	-0.000484467	-4.86E-05	0	9.053039551	-2.226257324	3.262329102	-0.024223329	-0.00243187	0	-0.594970703	-0.174072266	-0.768798828	884.1	-33.40612057	-66.79250023	60.01288824	-75
60536	0	0.360302925	-0.090155602	0.132078171	0.999999046	-5.63E-05	-0.000120163	0.000224113	9.007573128	-2.253890038	3.301954269	-0.002813339	-0.006008148	0.011205673	-0.590332031	-0.172119141	-0.772216797	883.96	-33.46637791	-66.7912998	60.07034968	-75
60537	0	0.360900879	-0.086730957	0.131164551	0.999999046	0.000347137	-0.000121117	0.000282288	9.022521973	-2.168273926	3.27911377	0.017356873	-0.006055832	0.01411438	-0.592773438	-0.171875	-0.771972656	884.06	-33.4933984	-66.78640938	60.14275865	-75
60538	0	0.356430054	-0.082509041	0.130157471	0.999999046	-0.000385284	0.000125885	0.000236511	8.910751343	-2.062726021	3.253936768	-0.019264222	0.006294251	0.011825562	-0.592773438	-0.171875	-0.771972656	884.12	-33.55718062	-66.76077443	60.16580473	-74
60539	0	0.35748291	-0.082275391	0.128479004	0.999999046	-0.000492096	-0.000102043	-0.000133514	8.937072754	-2.056884766	3.211975098	-0.024604798	-0.005102158	-0.006675721	-0.592773438	-0.171875	-0.771972656	883.96	-33.58408302	-66.78042172	60.13644219	-75
60540	0	0.356379509	-0.083738327	0.128071785	0.999998093	-0.001218796	-0.000658989	-0.000245094	8.909487724	-2.093458176	3.201794624	-0.060939809	-0.032949459	-0.012254719	-0.592773438	-0.169677734	-0.772216797	884.1	-33.75182152	-66.86032451	60.16735728	-75
60541	0	0.356994629	-0.087463379	0.133300781	0.999998093	-0.001185417	-0.000938416	-0.000614166	8.924865723	-2.186584473	3.332519531	-0.059270885	-0.046920797	-0.030708327	-0.593017578	-0.167480469	-0.772460938	884	-33.87544103	-66.99005151	60.15092282	-75
60542	0	0.357176781	-0.090215683	0.135162354	0.999994278	-0.003014565	-0.00042057	-0.001348495	8.929419518	-2.255392075	3.379058838	-0.150728504	-0.021028558	-0.067424899	-0.595214844	-0.167480469	-0.772216797	884	-33.96588385	-67.11704367	59.87854134	-76
60543	0	0.358032227	-0.097351074	0.139282227	0.999979973	-0.006141663	-0.000231743	-0.001228333	8.950805664	-2.433776855	3.482055664	-0.30708514	-0.011587219	-0.061417028	-0.595458984	-0.165283203	-0.772460938	884.02	-34.41318463	-67.21809064	59.61667772	-77
60544	0	0.356477737	-0.108752251	0.153960228	0.999979973	-0.006209373	-0.000516891	-0.000940323	8.911943436	-2.718806267	3.849005699	-0.310470728	-0.025844745	-0.047016455	-0.597900391	-0.156494141	-0.775878906	883.94	-34.97861043	-67.32644894	59.47345609	-80
60545	0	0.356201172	-0.112365723	0.159240723	0.999998093	-0.000662804	-0.0014534	-0.000514984	8.905029297	-2.809143066	3.981018066	-0.033140198	-0.072670017	-0.025749219	-0.596191406	-0.147705078	-0.773925781	883.94	-35.15328619	-67.49301072	59.57765548	-71
60546	0	0.356423378	-0.099891663	0.166861534	0.999992371	0.00301075	-0.001282692	-0.001473427	8.91058445	-2.497291565	4.171538353	0.150537814	-0.064134735	-0.073671499	-0.598388672	-0.147705078	-0.773681641	884.1	-34.65907799	-67.70448536	59.40090399	-79
60547	0	0.355102539	-0.076416016	0.17565918	0.999984741	0.004746437	0.001682281	-0.002204895	8.877563477	-1.910400391	4.391479492	0.237323049	0.084114498	-0.110245306	-0.598144531	-0.158691406	-0.770019531	884.02	-33.31964253	-67.67828991	58.5344819	-71
60548	0	0.356552124	-0.067577362	0.168481827	0.99998951	8.68E-05	0.003156662	-0.003307343	8.913803101	-1.689434052	4.21204567	0.004339233	0.157833649	-0.165367703	-0.593017578	-0.167480469	-0.772460938	884.02	-32.03387378	-67.56935673	57.15965522	-67
60549	0	0.36529541	-0.066650391	0.192504883	0.999969482	-0.002432823	0.005062103	-0.005306244	9.132385254	-1.666259766	4.81262207	-0.121642369	0.253107682	-0.265314835	-0.583251953	-0.172363281	-0.775390625	884	-30.30302703	-67.37631096	54.99768695	-65
60550	0	0.35707283	-0.062748909	0.205823898	0.99993515	0.000777245	0.008997917	-0.006917953	8.926820755	-1.568722725	5.145597458	0.038863067	0.449905564	-0.345905136	-0.571289063	-0.175048828	-0.787109375	884.1	-27.35593644	-66.84059396	51.89938808	-65
60551	0	0.346069336	-0.054260254	0.204956055	0.999871254	0.002933502	0.010804176	-0.011489868	8.651733398	-1.356506348	5.123901367	0.146681402	0.54023199	-0.574518052	-0.554199219	-0.186523438	-0.798583984	884	-23.01965937	-66.26231219	47.53502065	-70
60552	0	0.338977814	-0.051038742	0.227293968	0.99977684	0.000947952	0.012890816	-0.016672134	8.474445343	-1.275968552	5.682349205	0.04740113	0.644588603	-0.833668563	-0.532226563	-0.204833984	-0.803955078	884.04	-17.72067331	-65.51907833	41.85385629	-72
60553	0	0.341491699	-0.046875	0.228637695	0.999629974	-0.006911278	0.015579224	-0.021183014	8.53729248	-1.171875	5.715942383	-0.345606476	0.779057181	-1.059281226	-0.502929688	-0.223632813	-0.818359375	884.02	-12.46538922	-64.39851627	35.20983273	-65
60554	0	0.335693359	-0.060852051	0.252319336	0.99943924	-0.014109612	0.018715858	-0.023910522	8.392333984	-1.52130127	6.307983398	-0.705612459	0.935967861	-1.195749615	-0.46484375	-0.227050781	-0.837402344	884	-7.869930732	-62.73596111	28.31781389	-71
60555	0	0.339018822	-0.075382233	0.261909485	0.999378204	-0.010579109	0.023286819	-0.024220467	8.475470543	-1.884555817	6.547737122	-0.529064911	1.164581898	-1.211273915	-0.419921875	-0.2265625	-0.865478516	883.96	-3.492110839	-60.31518603	21.99488001	-66
60556	0	0.32989502	-0.062438965	0.258178711	0.999316216	-0.009902	0.025871277	-0.024463654	8.247375488	-1.560974121	6.454467773	-0.495212796	1.293858491	-1.223461295	-0.368164063	-0.226318359	-0.882568359	884	0.150083164	-57.39123693	16.45070031	-71
60557	0	0.317626953	-0.054748535	0.266662598	0.999194145	-0.014438629	0.028130531	-0.024711609	7.940673828	-1.368713379	6.666564941	-0.722125372	1.406904366	-1.235912328	-0.311279297	-0.226318359	-0.911621094	884	2.524410278	-54.05936051	11.63539474	-71
60558	0	0.290193558	-0.05520916	0.252734184	0.999098778	-0.019126892	0.02914238	-0.02421093	7.254838943	-1.380228996	6.318354607	-0.956631946	1.457556791	-1.210910212	-0.248291016	-0.208740234	-0.930664063	884	3.658570738	-50.53300759	7.504924544	-70
60559	0	0.286621094	-0.095336914	0.266540527	0.99917984	-0.015437126	0.029026031	-0.023635864	7.165527344	-2.383422852	6.663513184	-0.77206737	1.451698428	-1.18211637	-0.185791016	-0.182617188	-0.950439453	884	4.659910407	-46.97912578	3.865159279	-70
60560	0	0.278616905	-0.073364258	0.25627327	0.999222755	-0.011157036	0.029699326	-0.023360252	6.96542263	-1.834106445	6.406831741	-0.557996211	1.485350715	-1.168315001	-0.125244141	-0.165039063	-0.963867188	883.96	5.709415018	-43.31110656	0.60896861	-69
60561	0	0.253234863	-0.083068848	0.245178223	0.999250412	-0.014639854	0.028408051	-0.021842957	6.330871582	-2.076721191	6.129455566	-0.732175655	1.420757502	-1.092420767	-0.062744141	-0.145263672	-0.971679688	884	5.897631557	-39.78696803	-2.166870952	-73
60562	0	0.22697258	-0.087691307	0.222556114	0.999369621	-0.009681702	0.026901245	-0.021002769	5.674314499	-2.192282677	5.563902855	-0.48418668	1.345344549	-1.05035887	-0.002929688	-0.118896484	-0.974365234	883.96	6.352700704	-36.43768809	-4.706313455	-68
60563	0	0.179138184	-0.084350586	0.213317871	0.999458313	-0.007922173	0.024753571	-0.020172119	4.47845459	-2.108764648	5.332946777	-0.396180121	1.237901917	-1.008788001	0.048095703	-0.100830078	-0.981445313	884.06	6.760909718	-33.33241239	-7.030125501	-66
60564	0	0.155526161	-0.097559929	0.183680534	0.999451637	-0.005263329	0.025033951	-0.021012306	3.88815403	-2.438998222	4.592013359	-0.263214519	1.251926279	-1.050807303	0.099121094	-0.087158203	-0.973876953	884	7.35460304	-30.17069327	-9.339857426	-68
60565	0	0.091186523	-0.078796387	0.148925781	0.999383926	-0.007872581	0.026203156	-0.021972656	2.279663086	-1.969909668	3.723144531	-0.393709903	1.310426809	-1.09885841	0.149902344	-0.073486328	-0.972167969	884.06	7.530393101	-26.85123971	-11.61588402	-75
60566	0	0.05847168	-0.11517334	0.097961426	0.999277115	-0.018691063	0.028126717	-0.017406464	1.461791992	-2.879333496	2.449035645	-0.934778123	1.406674381	-0.870532696	0.207519531	-0.046875	-0.96875	884	6.066325573	-23.40204701	-13.16700714	-75
60567	0	0.007807732	-0.126225471	0.072206497	0.99946022	-0.00924015	0.029640198	-0.010510445	0.195193291	-3.155636787	1.80516243	-0.462090292	1.482275392	-0.52561638	0.263916016	-0.004882813	-0.952392578	884	5.273950887	-19.89194011	-13.96949069	-75
60568	0	-0.026202202	-0.149207115	0.063177109	0.999519348	-0.001255035	0.030934334	-0.00097847	-0.655055046	-3.730177879	1.579427719	-0.062761809	1.546964134	-0.048931319	0.321777344	0.008544922	-0.936767578	883.96	4.982027781	-16.33879178	-13.67317468	-75
60569	0	-0.086791992	-0.10736084	0.089538574	0.999350548	0.008766174	0.034924507	0.001277924	-2.169799805	-2.684020996	2.238464355	0.438403607	1.746603403	0.063910012	0.386962891	0.008789063	-0.914550781	884.06	5.76996778	-12.34995715	-13.15588849	-68
60570	0	0.007026672	-0.088611603	0.083320618	0.998805046	0.024501801	0.041664124	-0.007138252	0.175666809	-2.21529007	2.083015442	1.225577972	2.084035904	-0.357054769	0.453369141	-0.021728516	-0.884277344	883.9	8.532300469	-7.492010125	-13.45841826	-82
60571	0	0.043273926	-0.20690918	-0.18157959	0.999097824	0.018933296	0.035507202	-0.013526917	1.081848145	-5.172729492	-4.539489746	0.946949389	1.775893802	-0.676549143	0.533691406	-0.0546875	-0.834472656	883.94	10.69062387	-3.206100253	-14.18398814	-69
60572	0	-0.0333004	-0.552656174	-0.604016304	0.999217033	0.032973289	-0.002069473	0.021738052	-0.832509995	-13.81640434	-15.1004076	1.649094547	-0.103500656	1.087186149	0.595214844	-0.084960938	-0.795166016	883.94	14.20930645	-3.960251503	-11.845367	-87
60573	0	1.591674805	-0.37878418	0.459106445	0.963208199	0.161533356	-0.130919456	0.170280457	39.79187012	-9.469604492	11.47766113	8.177198281	-6.627450719	8.619997092	0.552734375	-0.193359375	-0.804199219	883.9	29.90059554	-25.44345547	-9.398352408	-75
60574	0	2.103791237	4.203666687	1.59851265	0.898561478	0.399695396	-0.023861885	0.179615021	52.59478092	105.0916672	39.96281624	20.68917882	-1.235147594	9.297298185	0.110351563	-0.827148438	-0.510742188	884	70.14736398	-43.1553567	-7.574507985	-74
60575	0	0.557312012	0.699890137	-0.956359863	0.918745995	-0.393104553	0.013333321	-0.034576416	13.93280029	17.49725342	-23.90899658	-20.20550555	0.685330357	-1.777221759	-0.047851563	-0.956054688	-0.265625	884.12	25.31999882	-39.21396758	1.04658554	-69
60576	0	0.177264214	-0.215792656	-0.029244423	0.99365139	-0.059163094	0.057149887	-0.076743126	4.431605339	-5.394816399	-0.731110573	-2.964430164	2.863556297	-3.845296512	0.038818359	-0.633789063	-0.762695313	884.06	22.34442455	-29.70916935	-5.702255492	-73
60577	0	0.130187988	0.111572266	-0.013183594	0.993429184	-0.092585564	0.046749115	-0.048362732	3.254699707	2.789306641	-0.329589844	-4.639442775	2.342588144	-2.423446144	0.233398438	-0.568115234	-0.784423828	884.1	13.65262403	-22.95847263	-9.338886589	-78
60578	0	0.075100899	-0.170373917	-0.120628357	0.993189812	-0.110773087	0.019254684	-0.030518532	1.877522469	-4.259347916	-3.015708923	-5.551260652	0.964925466	-1.529399694	0.321533203	-0.34375	-0.873535156	883.96	2.275895925	-20.4172479	-12.64329836	-70
60579	0	0.083190918	-0.133789063	-0.009399414	0.999429703	-0.030356407	0.002132416	-0.014591217	2.079772949	-3.344726563	-0.234985352	-1.518108629	0.106641038	-0.729699413	0.361328125	-0.161376953	-0.916259766	884.04	-0.590585455	-20.36225815	-14.55306217	-69
60580	0	0.094433784	-0.04326725	0.154653549	0.998644829	0.048066139	-0.018857956	-0.006521225	2.360844612	-1.081681252	3.86633873	2.404393179	-0.943323956	-0.326208618	0.358642578	-0.15234375	-0.908447266	884.16	5.183193666	-22.70916223	-15.59423685	-71
60581	0	0.197509766	0.014709473	0.313903809	0.999019623	0.033528328	-0.028755188	0.002681732	4.937744141	0.367736816	7.847595215	1.676964007	-1.43822905	0.134130409	0.320068359	-0.243164063	-0.904541016	884.1	9.060934923	-26.24871223	-15.70071602	-74
60582	0	0.210124969	0.033396721	0.431554794	0.997407913	0.063242912	-0.03142643	0.013766289	5.253124237	0.834918022	10.78886986	3.164880288	-1.572680391	0.688909703	0.266601563	-0.309326172	-0.898925781	884.12	15.82619827	-30.32445073	-14.86055779	-88
60583	0	0.287475586	0.180358887	0.380249023	0.996433258	0.078454018	-0.02658844	0.016036987	7.186889648	4.508972168	9.506225586	3.927370248	-1.331004467	0.802803842	0.206054688	-0.449462891	-0.85546875	884.12	24.41762046	-34.05465425	-14.0897173	-76
60584	0	0.298719406	0.28645134	0.320720673	0.998846054	0.041002274	-0.017064095	0.018276215	7.467985153	7.161283493	8.018016815	2.050902557	-0.853533038	0.914162362	0.153808594	-0.569824219	-0.788574219	884.12	28.62545197	-36.98107209	-12.90895201	-72
60585	0	0.27355957	0.204956055	0.323913574	0.999566078	0.021472931	-0.011481285	0.016544342	6.838989258	5.123901367	8.097839355	1.07380168	-0.574147203	0.827336629	0.110839844	-0.623046875	-0.756103516	884.02	30.53627168	-39.26005451	-11.71607615	-70
60586	0	0.269690514	0.198859215	0.311881065	0.999708176	0.01778698	-0.007334709	0.01458931	6.74226284	4.97148037	7.797026634	0.889435425	-0.366771104	0.729536386	0.076660156	-0.658935547	-0.728515625	884.04	31.95579334	-41.003415	-10.51078718	-69
60587	0	0.238647461	0.191711426	0.27355957	0.999833107	0.0079422	-0.003752708	0.015964508	5.966186523	4.792785645	6.838989258	0.397131964	-0.187645807	0.798269581	0.049072266	-0.675292969	-0.714111328	884.1	31.89565584	-42.44468377	-8.843210172	-69
60588	0	0.193352699	0.191336632	0.243445396	0.99995327	-0.00347805	0.000125885	0.008928299	4.833817482	4.783415794	6.086134911	-0.173905173	0.006294347	0.44642178	0.025878906	-0.687744141	-0.700439453	884.1	30.92953729	-42.99105797	-7.765105348	-69
60589	0	0.239074707	0.171386719	0.268127441	0.99988842	-0.014022827	-0.001189232	0.004970551	5.976867676	4.284667969	6.703186035	-0.701167391	-0.059463801	0.248536755	0.016357422	-0.676513672	-0.718017578	884.04	29.14339335	-43.37669993	-7.299146133	-70
60590	0	0.273925781	0.107421875	0.280090332	0.999969482	0.006520271	-0.002882957	0.003116608	6.848144531	2.685546875	7.002258301	0.326016855	-0.144149327	0.155831956	0.006347656	-0.658691406	-0.733154297	884.06	29.86625676	-43.83822077	-7.192823395	-71
60591	0	0.272644043	0.168945313	0.257568359	0.999857903	0.016647339	-0.001162529	0.00214386	6.816101074	4.223632813	6.439208984	0.83240622	-0.058129192	0.107198051	0.004394531	-0.680419922	-0.705566406	884.06	31.76971741	-44.05325763	-7.089216955	-72
60592	0	0.27454567	0.18727684	0.212159157	0.999914169	0.012002945	-0.002783775	0.004331589	6.863641739	4.681921005	5.30397892	0.600164311	-0.139192724	0.216585595	-0.004150391	-0.699707031	-0.694824219	884.06	33.08982197	-44.56866848	-6.869999666	-75
60593	0	0.288085938	0.192077637	0.19152832	0.999943733	0.009075165	-0.002017021	0.004920959	7.202148438	4.801940918	4.788208008	0.453766608	-0.100852919	0.246052511	-0.015869141	-0.714599609	-0.670166016	884.16	34.03512645	-45.07117675	-6.547910091	-77
60594	0	0.286482811	0.217891693	0.188808441	0.999945641	0.009357452	-0.00239563	0.003870964	7.162070274	5.447292328	4.720211029	0.467881064	-0.119783656	0.193551696	-0.024658203	-0.729492188	-0.659912109	884.18	35.21601379	-45.55266583	-6.467660936	-77
60595	0	0.297485352	0.235046387	0.195800781	0.999927521	0.011914253	-0.000919342	0.00094986	7.437133789	5.876159668	4.895019531	0.59572693	-0.045968203	0.047494118	-0.031494141	-0.742431641	-0.646972656	884.1	36.9407756	-45.70213296	-6.702082381	-77
60596	0	0.292012215	0.239851952	0.193687439	0.999994278	0.003070831	0.001194954	0.000310898	7.300305367	5.99629879	4.842185974	0.153541845	0.059747805	0.01554492	-0.033447266	-0.753173828	-0.634521484	884.1	37.61274663	-45.59882262	-6.838434838	-76
60597	0	0.271606445	0.198913574	0.208557129	0.999985695	-0.005039215	0.001484871	-0.00025177	6.790161133	4.972839355	5.213928223	-0.251961916	0.074243888	-0.012588559	-0.03125	-0.753173828	-0.631835938	884.12	37.36356888	-45.41436833	-6.997190316	-76
60598	0	0.250055313	0.168747902	0.220959663	0.999979019	-0.006186485	0.000973701	-0.001152992	6.251382828	4.218697548	5.523991585	-0.309326355	0.048685403	-0.057650002	-0.026611328	-0.746826172	-0.638427734	884.06	37.04215412	-45.19889401	-7.286570665	-74
60599	0	0.262756348	0.150878906	0.241271973	0.999998093	-0.001254082	-0.000865936	-0.000778198	6.568908691	3.771972656	6.031799316	-0.062704117	-0.043296835	-0.038909931	-0.024658203	-0.736083984	-0.650878906	884.12	37.29800325	-45.17513309	-7.666146092	-76
60600	0	0.268417358	0.155584335	0.236985207	0.999980927	0.005788803	-0.000573158	-0.000703812	6.71043396	3.889608383	5.924630165	0.289441811	-0.028658077	-0.035190784	-0.026855469	-0.740234375	-0.650390625	884	38.27177286	-45.12484794	-7.965388873	-75
60601	0	0.26953125	0.186462402	0.220458984	0.999996185	0.002171516	-0.000961304	0.000297546	6.73828125	4.661560059	5.511474609	0.108575925	-0.048065231	0.014877334	-0.024169922	-0.746826172	-0.641357422	884.1	38.74965941	-45.17139324	-8.15344921	-76
60602	0	0.289961815	0.20181179	0.214571953	0.999999046	0.000967026	0.000341415	-0.000238419	7.249045372	5.045294762	5.36429882	0.048351297	0.017070773	-0.011920931	-0.026611328	-0.746826172	-0.641113281	884.02	39.04164813	-45.06776091	-8.278102069	-76
60603	0	0.283752441	0.202514648	0.192993164	0.999999046	-3.81E-06	0.000691414	-0.000198364	7.093811035	5.062866211	4.824829102	-0.000190735	0.034570697	-0.009918214	-0.024414063	-0.749023438	-0.635498047	884.1	39.20307278	-44.94464096	-8.364720368	-77
60604	0	0.281941414	0.187731743	0.196313858	0.999988556	0.004707336	0.000164986	-0.000599861	7.048535347	4.693293571	4.907846451	0.235367706	0.008249314	-0.02999317	-0.026611328	-0.749023438	-0.635253906	884.1	39.97087911	-44.851431	-8.558315408	-76
60605	0	0.268920898	0.193481445	0.202392578	0.999997139	0.002063751	-0.000277519	-0.000144958	6.723022461	4.837036133	5.059814453	0.103187636	-0.013875971	-0.00724793	-0.021728516	-0.755615234	-0.629394531	884.06	40.41866306	-44.82838873	-8.728339779	-76
60606	0	0.274971962	0.181469917	0.220046997	0.999993324	0.003479004	-0.000923157	-9.54E-05	6.874299049	4.536747932	5.501174927	0.173950571	-0.046157937	-0.004768382	-0.023925781	-0.7578125	-0.62890625	884.06	41.04385122	-44.86523881	-8.944712122	-75
60607	0	0.264465332	0.197265625	0.222229004	0.999996185	0.002411842	-0.000499725	-0.000343323	6.611633301	4.931640625	5.555725098	0.120592242	-0.024986293	-0.017166155	-0.023925781	-0.762207031	-0.620117188	884.18	41.5187564	-44.83558847	-9.130615918	-75
60608	0	0.272672653	0.18598938	0.21703434	0.999999046	0.001173973	-0.000310898	-0.000236511	6.81681633	4.649734497	5.425858498	0.058698669	-0.015544895	-0.011825565	-0.023925781	-0.764404297	-0.616943359	884.16	41.80682609	-44.79781295	-9.268681765	-75
60609	0	0.267028809	0.18737793	0.20526123	0.999996185	0.002701759	-0.000297546	1.14E-05	6.675720215	4.684448242	5.131530762	0.135088133	-0.014877338	0.000572205	-0.023925781	-0.766357422	-0.614013672	884.1	42.23562696	-44.77935116	-9.368945954	-75
60610	0	0.276857376	0.186998367	0.201647758	0.999980927	0.006058693	-0.0007658	0.000602722	6.921434402	4.674959183	5.041193962	0.302936548	-0.038290264	0.030136298	-0.023925781	-0.770751953	-0.607910156	884.12	43.02551604	-44.85246589	-9.445544609	-76
60611	0	0.283325195	0.212341309	0.202026367	0.999986649	0.005021095	8.01E-05	0.000595093	7.083129883	5.308532715	5.05065918	0.251055834	0.004005449	0.029754765	-0.026123047	-0.779541016	-0.598632813	884.1	43.63372472	-44.85511592	-9.429406831	-75
60612	0	0.274209023	0.215019226	0.200957298	0.999996185	-0.002410889	0.000365257	0.000252724	6.855225563	5.375480652	5.023932457	-0.120544554	0.018262881	0.012636197	-0.025878906	-0.783935547	-0.598144531	884.12	43.39696399	-44.80438206	-9.418558965	-75
60613	0	0.271484375	0.190795898	0.203125	0.999999046	-0.000980377	9.54E-07	4.58E-05	6.787109375	4.769897461	5.078125	-0.049018868	4.77E-05	0.002288819	-0.028320313	-0.779296875	-0.601318359	884.12	43.35812754	-44.77017002	-9.469033211	-76
60614	0	0.273271561	0.188421249	0.201968193	0.999995232	0.002923965	-0.000202179	-0.000321388	6.831789017	4.710531235	5.049204826	0.146198485	-0.010108962	-0.016069436	-0.0234375	-0.781738281	-0.601318359	884.1	43.80229017	-44.72734609	-9.579294658	-76
60615	0	0.275268555	0.196472168	0.200012207	0.999995232	0.002902985	-0.000803947	0.000450134	6.881713867	4.911804199	5.000305176	0.145149455	-0.040197435	0.022506749	-0.025878906	-0.781494141	-0.595458984	884.1	44.22242638	-44.79753333	-9.663470042	-75
60616	0	0.278164864	0.206754684	0.204897881	0.999995232	0.00303936	-0.000200272	-1.91E-06	6.95412159	5.168867111	5.122447014	0.151968237	-0.010013596	-9.54E-05	-0.028320313	-0.785888672	-0.592285156	884.1	44.64350864	-44.78138236	-9.729198886	-75
60617	0	0.277648926	0.211364746	0.200012207	0.999999046	1.91E-05	-0.000113487	3.43E-05	6.941223145	5.284118652	5.000305176	0.000953674	-0.005674362	0.001716614	-0.025878906	-0.790283203	-0.583496094	884.1	44.70761966	-44.76048145	-9.776116897	-75
60618	0	0.279110909	0.193530083	0.199086189	0.999999046	-0.000425339	0.000217438	-0.000133514	6.977772713	4.838252068	4.977154732	-0.021266938	0.010871888	-0.00667572	-0.025878906	-0.785888672	-0.589355469	884.12	44.70020026	-44.70320262	-9.804027112	-76
60619	0	0.266784668	0.196777344	0.196350098	0.999999046	-0.000595093	0.000424385	0.000514984	6.669616699	4.919433594	4.908752441	-0.029754643	0.021219256	0.02574921	-0.028320313	-0.788085938	-0.586181641	884.14	44.60012447	-44.68133961	-9.728764416	-76
60620	0	0.272130966	0.197360992	0.197242737	0.999996185	0.002485275	-0.00023365	-3.05E-05	6.803274155	4.934024811	4.93106842	0.124263892	-0.011682523	-0.00152588	-0.025878906	-0.785888672	-0.589355469	884.06	44.94576551	-44.67062743	-9.791927207	-75
60621	0	0.277099609	0.195617676	0.196228027	0.999978065	0.006454468	-0.000372887	0.000404358	6.927490234	4.890441895	4.905700684	0.322725646	-0.018644463	0.020218037	-0.028076172	-0.792480469	-0.583007813	884.12	45.7185476	-44.70920004	-9.818784781	-76
60622	0	0.270986557	0.188673973	0.191712379	0.999932289	0.011482239	-0.001419067	0.000229836	6.774663925	4.716849327	4.792809486	0.574124752	-0.070954953	0.011492032	-0.030273438	-0.798828125	-0.573974609	884.12	47.16205969	-44.81878766	-9.98729684	-75
60623	0	0.281677246	0.202026367	0.193115234	0.999837875	0.017914772	-0.001354218	-0.000171661	7.041931152	5.05065918	4.827880859	0.8957868	-0.06771452	-0.008583531	-0.027587891	-0.816162109	-0.549804688	884.12	49.36693795	-44.8879891	-10.19243315	-75
60624	0	0.275396347	0.219758987	0.18309021	0.999868393	0.016139984	-0.0010252	-5.72E-05	6.884908676	5.493974686	4.577255249	0.80703439	-0.051262229	-0.002861148	-0.029785156	-0.833496094	-0.516601563	884.06	51.33360708	-44.93727839	-10.34507287	-76
60625	0	0.273742676	0.237365723	0.174987793	0.999950409	0.009850502	-0.000648499	1.91E-05	6.843566895	5.934143066	4.374694824	0.492533101	-0.032425453	0.00095369	-0.031982422	-0.850830078	-0.492431641	884.06	52.54461634	-44.96092639	-10.44321161	-75
60626	0	0.280700684	0.238586426	0.174743652	0.999999046	0.001335144	0.000167847	-8.77E-05	7.01751709	5.964660645	4.368591309	0.066757222	0.008392337	-0.004386903	-0.029541016	-0.857421875	-0.48046875	884.02	52.71354105	-44.91585505	-10.44623358	-75
60627	0	0.273446083	0.22282505	0.169697762	0.999997139	-0.001848221	0.000441551	7.72E-05	6.836152077	5.570626259	4.242444038	-0.092411097	0.022077574	0.003862383	-0.029296875	-0.857421875	-0.486083984	884.06	52.47890811	-44.86732352	-10.39898041	-75
60628	0	0.276569366	0.211195946	0.165924072	0.999999046	0.000969887	0.000118256	0.000440598	6.914234161	5.279898643	4.148101807	0.048494348	0.005912782	0.022029881	-0.029541016	-0.855224609	-0.483398438	884.18	52.5679635	-44.87774989	-10.35667438	-75
60629	0	0.277526855	0.218017578	0.167602539	0.999991417	0.004020691	-0.000273705	0.000278473	6.938171387	5.450439453	4.190063477	0.201035093	-0.013685264	0.013923683	-0.031738281	-0.855224609	-0.486328125	884.02	53.05148082	-44.90269492	-10.38233458	-75
60630	0	0.277198792	0.227977753	0.171481133	0.999986649	0.005013466	-0.000325203	0.000193596	6.929969788	5.699443817	4.287028313	0.25067435	-0.016260216	0.009679835	-0.029541016	-0.859619141	-0.474609375	884.14	53.65797277	-44.92298879	-10.42023103	-75
60631	0	0.277099609	0.232055664	0.164855957	0.999997139	0.002338409	6.20E-05	-1.14E-05	6.927490234	5.801391602	4.121398926	0.116920578	0.003099444	-0.000572205	-0.031738281	-0.865966797	-0.468261719	884.1	53.93650364	-44.8978071	-10.42640533	-75
60632	0	0.275731087	0.227590561	0.165841103	0.999999046	0.000470161	-8.96E-05	-9.16E-05	6.893277168	5.689764023	4.146027565	0.023508073	-0.004482269	-0.004577637	-0.031738281	-0.865966797	-0.465332031	884.12	54.01879065	-44.87563976	-10.45919344	-75
60633	0	0.274658203	0.226928711	0.164855957	0.999999046	-3.81E-06	0.000229836	0.000125885	6.866455078	5.673217773	4.121398926	-0.000190735	0.011491776	0.006294251	-0.031738281	-0.870361328	-0.456542969	884.02	54.00136683	-44.85234462	-10.42687454	-75
60634	0	0.278484344	0.225697517	0.163764	0.999999046	0.000427246	0.000253677	6.10E-05	6.962108612	5.642437935	4.094099998	0.021362306	0.012683869	0.003051758	-0.029541016	-0.865966797	-0.462646484	884.06	54.03441049	-44.82260779	-10.40008803	-76
60635	0	0.27734375	0.22668457	0.162231445	0.999999046	-8.01E-05	0.000248909	4.96E-05	6.93359375	5.667114258	4.055786133	-0.004005432	0.01244545	0.002479553	-0.029296875	-0.865966797	-0.465576172	884.1	54.01007457	-44.79304014	-10.37472545	-75
60636	0	0.275392532	0.225836754	0.164113045	0.999999046	0.000927925	-0.000104904	-0.000217438	6.884813309	5.645918846	4.102826118	0.046396263	-0.00524521	-0.010871889	-0.029541016	-0.865966797	-0.462646484	884.1	54.15063527	-44.76299101	-10.419719	-75
60637	0	0.277832031	0.224853516	0.166870117	0.999998093	0.001572609	-0.000209808	-0.000106812	6.945800781	5.621337891	4.17175293	0.078630481	-0.010490422	-0.005340578	-0.029296875	-0.868164063	-0.459472656	884.1	54.36538122	-44.75089512	-10.46631788	-75
60638	0	0.275288582	0.229703903	0.164995193	0.999999046	0.000919342	-1.53E-05	7.92E-05	6.882214546	5.74259758	4.124879837	0.045967109	-0.00076294	0.003957749	-0.029296875	-0.870361328	-0.456542969	884.1	54.47420073	-44.7429804	-10.46907061	-75
60639	0	0.273925781	0.22833252	0.162963867	0.999999046	0.000347137	-2.86E-06	3.81E-06	6.848144531	5.708312988	4.07409668	0.017356873	-0.000143051	0.000190735	-0.029296875	-0.870361328	-0.456542969	884.08	54.52065862	-44.72727913	-10.47720863	-75
60640	0	0.27899456	0.229236603	0.162740707	0.999999046	8.49E-05	0.00018692	0.00014019	6.974864006	5.73091507	4.068517685	0.004243851	0.009346008	0.007009506	-0.029296875	-0.870361328	-0.453613281	884.22	54.51011952	-44.71237165	-10.4470537	-75
60641	0	0.278259277	0.226013184	0.162719727	0.999999046	0.000205994	-4.10E-05	1.14E-05	6.956481934	5.65032959	4.067993164	0.010299683	-0.0020504	0.000572205	-0.029296875	-0.870361328	-0.453613281	884.14	54.5421427	-44.701506	-10.45861821	-75
60642	0	0.276568413	0.230102539	0.164493561	0.999999046	0.000419617	0.00019455	0.000102043	6.91421032	5.752563477	4.11233902	0.020980836	0.009727478	0.005102158	-0.029296875	-0.868164063	-0.459472656	884.1	54.57035278	-44.68348704	-10.43155613	-75
60643	0	0.277282715	0.228759766	0.162414551	0.999999046	-6.48E-05	0.000157356	-6.10E-05	6.932067871	5.718994141	4.06036377	-0.003242493	0.007867813	-0.003051758	-0.029296875	-0.872558594	-0.459228516	884.06	54.55688591	-44.65315836	-10.4233084	-76
60644	0	0.274579048	0.225781441	0.16191864	0.999999046	0.001149178	-8.39E-05	-0.000133514	6.864476204	5.644536018	4.047966003	0.05745889	-0.004196168	-0.006675722	-0.029052734	-0.872558594	-0.462158203	884.06	54.70892397	-44.63250366	-10.45380025	-75
60645	0	0.274841309	0.229187012	0.162231445	0.999998093	0.001523018	-8.77E-05	3.81E-05	6.871032715	5.729675293	4.055786133	0.076150924	-0.004386904	0.001907349	-0.029296875	-0.872558594	-0.453613281	884.08	54.89259256	-44.62821721	-10.46765577	-75
60646	0	0.275009155	0.227525711	0.162833214	0.999999046	0.000293732	-3.05E-05	0.000160217	6.875228882	5.688142776	4.070830345	0.014686585	-0.001525879	0.008010864	-0.029296875	-0.872558594	-0.450683594	884.06	54.92133766	-44.63182708	-10.46203526	-75
60647	0	0.274475098	0.231872559	0.161193848	0.999999046	0.000682831	-0.000121117	-3.81E-06	6.861877441	5.796813965	4.029846191	0.034141543	-0.006055832	-0.000190735	-0.029296875	-0.874755859	-0.456298828	884.12	55.01380653	-44.62586843	-10.48441949	-76
60648	0	0.277014732	0.230384827	0.160750389	0.999999046	0.00039959	-0.00028801	-3.81E-06	6.925368309	5.759620667	4.018759727	0.019979478	-0.014400483	-0.000190735	-0.027099609	-0.872558594	-0.450683594	884.06	55.08915636	-44.63116886	-10.52816975	-76
60649	0	0.278808594	0.228820801	0.160644531	0.999999046	0.000385284	-9.06E-05	0.000221252	6.970214844	5.72052002	4.016113281	0.019264222	-0.004529953	0.011062622	-0.029296875	-0.872558594	-0.450683594	884.06	55.12962243	-44.64528339	-10.52508601	-76
60650	0	0.277597427	0.231629372	0.160719872	0.999999046	0.000699997	-8.58E-05	0.000117302	6.939935684	5.790734291	4.017996788	0.03499985	-0.004291535	0.005865098	-0.026855469	-0.874755859	-0.450683594	884.08	55.21239114	-44.64949651	-10.53088034	-75
60651	0	0.276672363	0.230895996	0.16015625	0.999999046	-0.000526428	3.15E-05	0.000125885	6.916809082	5.772399902	4.00390625	-0.026321412	0.001573563	0.006294251	-0.029296875	-0.874755859	-0.450439453	884.12	55.1430405	-44.64700546	-10.52017159	-76
60652	0	0.27592659	0.229619026	0.160597801	0.999999046	-0.000189781	0.00021553	0.000164032	6.898164749	5.740475655	4.01494503	-0.00948906	0.01077652	0.008201599	-0.027099609	-0.874755859	-0.447753906	883.94	55.09244711	-44.6361885	-10.48122576	-75
60653	0	0.276794434	0.227844238	0.161010742	0.999999046	0.000141144	-1.05E-05	3.81E-05	6.91986084	5.696105957	4.025268555	0.00705719	-0.000524521	0.001907349	-0.026855469	-0.874755859	-0.450683594	884	55.10844516	-44.62871117	-10.48394632	-76
60654	0	0.273945808	0.231163979	0.160634041	0.999998093	0.000378609	9.06E-05	0.000254631	6.84864521	5.779099464	4.015851021	0.018930436	0.004529953	0.012731553	-0.029296875	-0.872558594	-0.453613281	884.12	55.12825305	-44.63478015	-10.45379708	-76
60655	0	0.278076172	0.229431152	0.161376953	0.999999046	0.000411987	-6.39E-05	0.000137329	6.951904297	5.735778809	4.034423828	0.020599366	-0.003194809	0.006866455	-0.027099609	-0.874755859	-0.447753906	884	55.17349098	-44.64026752	-10.45373926	-76
60656	0	0.274925232	0.232600212	0.159989357	0.999999046	0.00024128	7.06E-05	-7.34E-05	6.873130798	5.815005302	3.999733925	0.01206398	0.003528595	-0.003671646	-0.031738281	-0.874511719	-0.447509766	884.12	55.20049122	-44.6169579	-10.4557047	-75
60657	0	0.276123047	0.228881836	0.159790039	0.999999046	0.000267029	-4.48E-05	0.000118256	6.903076172	5.722045898	3.994750977	0.013351441	-0.002241135	0.005912781	-0.027099609	-0.872558594	-0.447998047	884.06	55.22858741	-44.61949115	-10.45541659	-76
60658	0	0.276802063	0.229207993	0.162205696	0.999999046	0.000909805	-0.000185013	0.000148773	6.920051575	5.730199814	4.055142403	0.045490272	-0.009250642	0.007438661	-0.029296875	-0.876953125	-0.447509766	884.12	55.34089624	-44.63420118	-10.47032965	-76
60659	0	0.276123047	0.232971191	0.159240723	0.999999046	-0.000354767	0.000115395	1.91E-05	6.903076172	5.824279785	3.981018066	-0.017738343	0.00576973	0.000953674	-0.026855469	-0.876953125	-0.444824219	884.1	55.28893181	-44.6170433	-10.45727166	-75
60660	0	0.27731514	0.22838974	0.161235809	0.999999046	0.000517845	-5.91E-05	5.72E-05	6.932878494	5.7097435	4.030895233	0.025892259	-0.002956391	0.002861023	-0.026855469	-0.876953125	-0.447509766	884.1	55.35026123	-44.61515111	-10.4639809	-76
60661	0	0.274597168	0.231201172	0.160095215	0.999999046	0.000331879	6.20E-05	-7.63E-05	6.864929199	5.780029297	4.002380371	0.016593933	0.003099442	-0.003814697	-0.029296875	-0.874755859	-0.450439453	884.06	55.38752491	-44.59268295	-10.46712582	-76
60662	0	0.274419785	0.228785515	0.159731865	0.999999046	0.000440598	-3.43E-05	8.39E-05	6.860494614	5.719637871	3.993296623	0.022029877	-0.001716614	0.004196167	-0.029296875	-0.874755859	-0.447509766	884.12	55.43565236	-44.59168971	-10.46778714	-76
60663	0	0.275268555	0.232727051	0.159545898	0.999999046	0.000507355	-0.000151634	0.000125885	6.881713867	5.81817627	3.988647461	0.025367738	-0.007581711	0.006294251	-0.029296875	-0.876953125	-0.447509766	884	55.49976301	-44.60218518	-10.4801855	-76
60664	0	0.277511597	0.228914261	0.161547661	0.999999046	0.000853539	-0.000230789	8.68E-05	6.937789917	5.722856522	4.038691521	0.042676931	-0.011539461	0.004339219	-0.029296875	-0.876708984	-0.441650391	884.1	55.61289294	-44.61434545	-10.5060621	-76
60665	0	0.276000977	0.233154297	0.16015625	0.999999046	0.000144958	-2.96E-05	0.000228882	6.900024414	5.828857422	4.00390625	0.007247925	-0.001478195	0.011444092	-0.029296875	-0.876708984	-0.444580078	884.06	55.61694392	-44.62679156	-10.49264107	-76
60666	0	0.277276039	0.231303215	0.160376549	0.999999046	-0.000743866	1.53E-05	0.000118256	6.931900978	5.782580376	4.009413719	-0.037193302	0.00076294	0.005912781	-0.029296875	-0.876708984	-0.441650391	884.1	55.52179106	-44.62596448	-10.48279706	-76
60667	0	0.27746582	0.229736328	0.16027832	0.999999046	0.000579834	-4.86E-05	0.000118256	6.936645508	5.743408203	4.006958008	0.028991701	-0.00243187	0.005912781	-0.029296875	-0.876708984	-0.438964844	884.1	55.584018	-44.62947859	-10.48132711	-76
60668	0	0.275032997	0.231807709	0.158699989	0.999999046	-0.000544548	5.72E-05	6.68E-06	6.875824928	5.795192719	3.967499733	-0.027227403	0.002861023	0.000333786	-0.029296875	-0.876953125	-0.447509766	884.06	55.51473697	-44.61553173	-10.4765606	-76
60669	0	0.277282715	0.23223877	0.159912109	0.999999046	-0.000110626	0.000161171	0.000133514	6.932067871	5.805969238	3.997802734	-0.005531311	0.008058548	0.00667572	-0.029296875	-0.876953125	-0.447509766	884	55.47739357	-44.60686139	-10.44624204	-76
60670	0	0.277109146	0.229992867	0.160966873	0.999999046	-0.000328064	3.05E-05	-5.05E-05	6.927728653	5.749821663	4.024171829	-0.016403199	0.001525879	-0.002527237	-0.029296875	-0.874755859	-0.447509766	884.12	55.43883289	-44.58942027	-10.4498394	-76
60671	0	0.274169922	0.231384277	0.159790039	0.999999046	-1.14E-05	6.20E-05	0.000133514	6.854248047	5.784606934	3.994750977	-0.000572205	0.003099442	0.00667572	-0.029296875	-0.876708984	-0.444580078	884.06	55.42185809	-44.58719414	-10.43218782	-76
60672	0	0.275675774	0.229169846	0.160621643	0.999999046	-0.000195503	-9.16E-05	-7.34E-05	6.891894341	5.72924614	4.015541077	-0.009775162	-0.004577637	-0.003671646	-0.029296875	-0.876708984	-0.441650391	884.12	55.4111021	-44.57552518	-10.45355027	-76
60673	0	0.278259277	0.22857666	0.159423828	0.999999046	0.000740051	-0.000155449	0.000167847	6.956481934	5.714416504	3.985595703	0.037002567	-0.007772446	0.008392335	-0.029296875	-0.876953125	-0.447509766	884.08	55.49791606	-44.59112185	-10.46184019	-76
60674	0	0.27606678	0.232258797	0.15862751	0.999999046	0.000448227	-0.000164032	0.000141144	6.901669502	5.806469917	3.965687752	0.022411347	-0.008201599	0.00705719	-0.029296875	-0.876708984	-0.444580078	884.1	55.55401289	-44.60474609	-10.47360693	-76
60675	0	0.276611328	0.231384277	0.159301758	0.999999046	0.00012207	-4.48E-05	0.000175476	6.915283203	5.784606934	3.982543945	0.006103516	-0.002241135	0.008773804	-0.029296875	-0.876708984	-0.441650391	884.02	55.55944562	-44.61393434	-10.46628832	-76
60676	0	0.276950836	0.230349541	0.16037941	0.999999046	0.000197411	-2.86E-05	2.19E-05	6.923770905	5.758738518	4.009485245	0.009870529	-0.001430511	0.001096725	-0.029296875	-0.876708984	-0.444580078	884.06	55.58163109	-44.60763928	-10.47091792	-76
60677	0	0.275939941	0.231933594	0.159667969	0.999999046	-0.000244141	0.000103951	0.000240326	6.898498535	5.798339844	3.991699219	-0.012207032	0.005197525	0.012016297	-0.029296875	-0.876708984	-0.438964844	884.02	55.52690006	-44.61334797	-10.43768982	-76
60678	0	0.275528908	0.230501175	0.160447121	0.999999046	0.000398636	-0.000135422	3.81E-06	6.888222694	5.762529373	4.011178017	0.019931794	-0.006771088	0.000190735	-0.029296875	-0.87890625	-0.441650391	884.12	55.58311924	-44.61219704	-10.45793403	-76
60679	0	0.276550293	0.232055664	0.15814209	0.999999046	0.000205994	-6.77E-05	0.000225067	6.913757324	5.801391602	3.953552246	0.010299683	-0.003385544	0.011253357	-0.029296875	-0.87890625	-0.441650391	884.1	55.59698171	-44.62761261	-10.44920204	-76
60680	0	0.277041435	0.22998333	0.161487579	0.999999046	0.00051403	-0.000230789	-5.34E-05	6.926035881	5.749583244	4.037189484	0.025701524	-0.01153946	-0.002670288	-0.029296875	-0.87890625	-0.444335938	884.08	55.6788371	-44.62728934	-10.48742364	-76
60681	0	0.276916504	0.232788086	0.161010742	0.999999046	-0.000217438	-3.34E-05	0.000297546	6.922912598	5.819702148	4.025268555	-0.010871887	-0.00166893	0.01487732	-0.031738281	-0.876708984	-0.441650391	884.14	55.63592235	-44.64731984	-10.46724334	-76
60682	0	0.27761364	0.230599403	0.160115242	0.999999046	9.35E-05	-0.000192642	-3.91E-05	6.940340996	5.764985085	4.00288105	0.004673004	-0.009632111	-0.001955032	-0.029296875	-0.876953125	-0.447509766	884.06	55.66486961	-44.64588626	-10.49901178	-75
60683	0	0.27545166	0.23449707	0.159179688	0.999999046	0.000354767	-6.01E-05	-3.43E-05	6.886291504	5.862426758	3.979492188	0.017738343	-0.003004074	-0.001716614	-0.029296875	-0.876708984	-0.441650391	884.14	55.71125764	-44.63612965	-10.51247213	-76
60684	0	0.273745537	0.227669716	0.159350395	0.999998093	-0.000211716	-0.00017643	-4.86E-05	6.84363842	5.691742897	3.98375988	-0.010585785	-0.008821488	-0.00243187	-0.031738281	-0.87890625	-0.438476563	884.12	55.70421613	-44.63256639	-10.54233707	-76
60685	0	0.277587891	0.231750488	0.160217285	0.999999046	0.000274658	-0.000166893	8.39E-05	6.939697266	5.793762207	4.005432129	0.01373291	-0.00834465	0.004196167	-0.029296875	-0.87890625	-0.438720703	884.08	55.74347495	-44.6409741	-10.55904685	-76
60686	0	0.277893066	0.232116699	0.160766602	0.999999046	-0.000205994	-2.67E-05	-4.96E-05	6.94732666	5.80291748	4.019165039	-0.010299683	-0.001335144	-0.002479553	-0.029296875	-0.87890625	-0.444335938	884.08	55.72291388	-44.62770695	-10.56937143	-76
60687	0	0.275560379	0.230390549	0.159733772	0.999997139	0.000400543	1.81E-05	-0.000142097	6.889009476	5.759763718	3.993344307	0.020027161	0.000905991	-0.007104874	-0.029296875	-0.87890625	-0.444335938	884.08	55.77341482	-44.60278833	-10.58194507	-75
60688	0	0.277105331	0.229699135	0.156667709	0.999999046	-0.00014019	0.000102997	0.000102043	6.927633286	5.742478371	3.916692734	-0.007009506	0.005149841	0.005102158	-0.026855469	-0.876953125	-0.447509766	884.06	55.73857435	-44.59574793	-10.56126927	-76
60689	0	0.276000977	0.229614258	0.158813477	0.999999046	0.000576019	-0.000220299	0.000106812	6.900024414	5.740356445	3.970336914	0.028800966	-0.011014939	0.005340577	-0.031494141	-0.87890625	-0.444335938	884.02	55.81560994	-44.6100961	-10.58285117	-75
60690	0	0.277952194	0.234071732	0.159152985	0.999999046	0.000183105	1.91E-05	9.06E-05	6.948804855	5.851793289	3.978824615	0.009155274	0.000953674	0.004529953	-0.029296875	-0.87890625	-0.441650391	884.14	55.82638316	-44.60746711	-10.57405307	-75
60691	0	0.275695801	0.230407715	0.158874512	0.999999046	-0.000141144	2.00E-05	3.05E-05	6.89239502	5.760192871	3.971862793	-0.00705719	0.001001358	0.001525879	-0.029052734	-0.881103516	-0.44140625	883.96	55.80362734	-44.59911232	-10.57048028	-75
60692	0	0.276008606	0.232481956	0.158888817	0.999999046	0.000216484	4.39E-05	-2.67E-05	6.900215149	5.812048912	3.972220421	0.010824204	0.002193451	-0.001335144	-0.031738281	-0.87890625	-0.438476563	884.06	55.82329478	-44.58375931	-10.56895301	-75
60693	0	0.27557373	0.229553223	0.159179688	0.999999046	-0.00012207	-0.000128746	-0.000118256	6.889343262	5.738830566	3.979492188	-0.006103516	-0.006437302	-0.005912781	-0.029296875	-0.87890625	-0.438720703	884.14	55.82592752	-44.57090257	-10.59861859	-76
60694	0	0.27794075	0.230555534	0.159895897	0.999999046	0.000701904	-7.25E-05	0.000330925	6.948518753	5.763888359	3.997397423	0.035095218	-0.003623963	0.016546251	-0.029296875	-0.876708984	-0.444580078	884.02	55.88908354	-44.59714113	-10.58046589	-76
60695	0	0.274780273	0.234313965	0.157897949	0.999999046	-2.29E-05	-9.06E-05	-4.20E-05	6.869506836	5.857849121	3.94744873	-0.001144409	-0.004529953	-0.002098083	-0.029296875	-0.876708984	-0.444580078	884.02	55.89470688	-44.58901785	-10.59834333	-76
60696	0	0.276497841	0.232437134	0.156576157	0.999999046	8.49E-05	-2.10E-05	0.000182152	6.912446022	5.810928345	3.914403915	0.004243851	-0.001049042	0.00910759	-0.029296875	-0.87890625	-0.441650391	884.18	55.89215289	-44.59774442	-10.5866232	-76
60697	0	0.278381348	0.229797363	0.158691406	0.999999046	0.000377655	-7.15E-05	-0.000118256	6.959533691	5.744934082	3.967285156	0.018882752	-0.003576279	-0.005912781	-0.029296875	-0.87890625	-0.444335938	884	55.94675562	-44.58140268	-10.60881725	-76
60698	0	0.27548027	0.23346138	0.158963203	0.999999046	-0.000427246	2.67E-05	0.00019455	6.88700676	5.8365345	3.974080086	-0.021362305	0.001335144	0.009727478	-0.031738281	-0.881103516	-0.435546875	884.06	55.88015096	-44.58833493	-10.5892685	-76
60699	0	0.277770996	0.23034668	0.158996582	0.999999046	7.25E-05	-1.43E-05	2.67E-05	6.944274902	5.758666992	3.974914551	0.003623962	-0.000715256	0.001335144	-0.026855469	-0.879150391	-0.441650391	884.06	55.88515021	-44.58210338	-10.59073472	-75
60700	0	0.276872635	0.232429504	0.159197807	0.999999046	0.000468254	-0.000101089	0.000174522	6.921815872	5.81073761	3.979945183	0.023412705	-0.005054474	0.00872612	-0.029296875	-0.87890625	-0.441650391	884.06	55.93423507	-44.59546913	-10.59037765	-75
60701	0	0.274902344	0.233276367	0.161437988	0.999999046	0.000106812	0.000103951	-1.14E-05	6.872558594	5.83190918	4.035949707	0.005340576	0.005197525	-0.000572205	-0.029296875	-0.87890625	-0.438720703	884.06	55.93431197	-44.57782302	-10.57919572	-75
60702	0	0.276451111	0.231728554	0.157538414	0.999999046	-0.000741959	0.000213623	0.000189781	6.911277771	5.793213844	3.93846035	-0.037097935	0.010681153	0.00948906	-0.031738281	-0.876708984	-0.435791016	884.02	55.81420623	-44.57226451	-10.53521881	-75
60703	0	0.276977539	0.230285645	0.156555176	0.999999046	0.000102997	8.58E-06	0.000183105	6.924438477	5.757141113	3.913879395	0.005149841	0.000429153	0.009155274	-0.031494141	-0.876708984	-0.447265625	884.14	55.81061037	-44.57940508	-10.51971259	-75
60704	0	0.27510643	0.233207703	0.159012794	0.999999046	0.00039196	-5.91E-05	7.25E-05	6.877660751	5.830192566	3.975319862	0.019598008	-0.00295639	0.003623963	-0.026855469	-0.879150391	-0.438720703	884.08	55.85353749	-44.58030763	-10.52275869	-75
60705	0	0.278503418	0.231628418	0.159912109	0.999999046	4.20E-05	0.000134468	0.000267029	6.962585449	5.790710449	3.997802734	0.002098084	0.006723404	0.013351441	-0.029296875	-0.87890625	-0.438720703	884.02	55.82582345	-44.58728819	-10.48247162	-76
60706	0	0.278338432	0.228074074	0.157402992	0.999999046	0.000228882	6.29E-05	0.000110626	6.958460808	5.701851845	3.935074806	0.011444092	0.003147125	0.005531311	-0.029296875	-0.87890625	-0.444335938	884.08	55.83605108	-44.58430897	-10.46603223	-76
60707	0	0.274169922	0.234436035	0.158996582	0.999999046	0.00019455	6.20E-05	0.000110626	6.854248047	5.860900879	3.974914551	0.009727478	0.003099442	0.005531311	-0.029296875	-0.881103516	-0.438476563	884.02	55.84255641	-44.58118405	-10.449462	-76
60708	0	0.275360107	0.231324196	0.161502838	0.999999046	-0.000264168	-1.53E-05	5.63E-05	6.884002686	5.783104897	4.037570953	-0.013208389	-0.000762939	0.002813339	-0.029296875	-0.876708984	-0.438964844	884	55.80693459	-44.57778379	-10.44810871	-76
60709	0	0.277832031	0.228820801	0.159912109	0.999999046	0.000518799	8.58E-06	1.91E-05	6.945800781	5.72052002	3.997802734	0.025939943	0.000429153	0.000953674	-0.029296875	-0.87890625	-0.441650391	884.14	55.86095455	-44.56947987	-10.4468769	-77
60710	0	0.277227402	0.231352806	0.156562805	0.999999046	-0.000219345	-8.01E-05	0.000263214	6.930685043	5.783820152	3.914070129	-0.010967255	-0.004005432	0.013160706	-0.029296875	-0.87890625	-0.441650391	884.12	55.8233416	-44.59014971	-10.43541994	-76
60711	0	0.276672363	0.226501465	0.15423584	0.999999046	0.000720978	-0.000468254	0.000774384	6.916809082	5.662536621	3.855895996	0.036048897	-0.02341271	0.038719186	-0.031494141	-0.87890625	-0.44140625	884.08	55.89744729	-44.68457546	-10.42957976	-76
60712	0	0.276879311	0.233811378	0.160108566	0.999998093	0.001768112	-0.000344276	0.00052166	6.921982765	5.845284462	4.002714157	0.088405661	-0.017213832	0.026083008	-0.033935547	-0.881103516	-0.441162109	884.12	56.09611507	-44.74691422	-10.43030632	-76
60713	0	0.279296875	0.239257813	0.161987305	0.999998093	-0.001357079	0.000160217	0.000244141	6.982421875	5.981445313	4.049682617	-0.067853949	0.008010867	0.012207035	-0.031494141	-0.881103516	-0.438476563	884.14	55.90681231	-44.75026601	-10.38835759	-76
60714	0	0.275938034	0.226237297	0.160004616	0.999999046	0.000553131	-6.48E-05	-0.000164986	6.898450851	5.655932426	4.000115395	0.027656557	-0.003242493	-0.008249283	-0.031738281	-0.87890625	-0.435791016	884.08	55.9832211	-44.72927169	-10.41326972	-76
60715	0	0.273986816	0.230712891	0.155334473	0.999999046	0.000183105	7.34E-05	0.000286102	6.84967041	5.767822266	3.883361816	0.009155274	0.003671646	0.014305115	-0.031738281	-0.881103516	-0.435546875	884.12	55.97569568	-44.7421994	-10.37906992	-76
60716	0	0.279467583	0.232807159	0.157974243	0.999999046	-0.00020504	0.000106812	0.000144005	6.986689568	5.820178986	3.949356079	-0.010251999	0.005340576	0.007200241	-0.033935547	-0.87890625	-0.44140625	884.12	55.92963616	-44.73953271	-10.3535403	-77
60717	0	0.278076172	0.233093262	0.156555176	0.999999046	-0.000255585	5.44E-05	0.000389099	6.951904297	5.827331543	3.913879395	-0.012779236	0.002717972	0.019454957	-0.031494141	-0.881103516	-0.438476563	884.08	55.86729327	-44.76348975	-10.31269843	-77
60718	0	0.276831627	0.22724247	0.158470154	0.999999046	-0.000175476	6.10E-05	3.81E-06	6.920790672	5.681061745	3.961753845	-0.008773804	0.003051758	0.000190735	-0.036376953	-0.878662109	-0.438232422	884.08	55.83784981	-44.75056495	-10.3057455	-77
60719	0	0.276672363	0.231994629	0.15826416	0.999999046	0.000152588	5.05E-05	6.48E-05	6.916809082	5.799865723	3.956604004	0.007629395	0.002527237	0.003242493	-0.031738281	-0.87890625	-0.438476563	884.06	55.84315284	-44.7440456	-10.29475297	-77
60720	0	0.277418137	0.229626656	0.158587456	0.999999046	0.000344276	9.54E-06	-0.000152588	6.935453415	5.740666389	3.964686394	0.017213822	0.000476837	-0.007629395	-0.033935547	-0.87890625	-0.438476563	884.06	55.88804646	-44.71959581	-10.30886583	-77
60721	0	0.276855469	0.230163574	0.158081055	0.999999046	0.0001297	2.00E-05	0.000213623	6.921386719	5.754089355	3.952026367	0.006484985	0.001001358	0.010681152	-0.033935547	-0.880859375	-0.435302734	884.08	55.88400742	-44.72924283	-10.28825507	-77
60722	0	0.277923584	0.22898674	0.156749725	0.999999046	-0.000135422	-3.05E-05	0.000235558	6.9480896	5.724668503	3.918743134	-0.006771088	-0.001525879	0.011777878	-0.033935547	-0.881103516	-0.438232422	884.12	55.85293359	-44.74435634	-10.27256144	-77
60723	0	0.278564453	0.229187012	0.157348633	0.999999046	0.000911713	-0.000460625	0.000473022	6.964111328	5.729675293	3.93371582	0.045585642	-0.02303124	0.023651128	-0.031738281	-0.87890625	-0.435791016	884.08	55.96719795	-44.80977233	-10.29289305	-77
60724	0	0.277954102	0.232971191	0.160827637	0.999998093	0.001792908	-0.000452995	0.000137329	6.948852539	5.824279785	4.020690918	0.089645437	-0.022649778	0.006866459	-0.033935547	-0.881103516	-0.441162109	884.08	56.20315143	-44.84260216	-10.3429492	-77
60725	0	0.275634766	0.234191895	0.160400391	0.999999046	-0.000873566	6.20E-05	3.81E-06	6.890869141	5.854797363	4.010009766	-0.043678289	0.003099442	0.000190735	-0.033935547	-0.883056641	-0.432373047	884.08	56.09321221	-44.82955354	-10.33525266	-77
60726	0	0.277997017	0.227993011	0.157902718	0.999999046	0.000322342	4.39E-05	6.48E-05	6.949925423	5.699825287	3.94756794	0.016117096	0.002193451	0.003242493	-0.033935547	-0.881103516	-0.438232422	884.14	56.11796834	-44.82357799	-10.32483855	-77
60727	0	0.277770996	0.232543945	0.156677246	0.999999046	0.000331879	-0.000124931	-0.000102997	6.944274902	5.813598633	3.916931152	0.016593933	-0.006246567	-0.005149841	-0.034179688	-0.878662109	-0.432617188	884.12	56.17051417	-44.81238862	-10.35199933	-77
60728	0	0.277945518	0.228981018	0.156394005	0.999999046	0.000195503	1.14E-05	0.000235558	6.948637962	5.724525452	3.909850121	0.009775162	0.000572205	0.011777878	-0.033935547	-0.883056641	-0.435302734	884.02	56.17299227	-44.8248316	-10.33041612	-77
60729	0	0.279541016	0.229431152	0.160888672	0.999999046	0.000480652	8.58E-06	6.87E-05	6.988525391	5.735778809	4.022216797	0.024032594	0.000429153	0.003433228	-0.031494141	-0.883300781	-0.438232422	884.06	56.21864518	-44.82162532	-10.32416578	-77
60730	0	0.275237083	0.233633041	0.15688324	0.999999046	-0.000411987	0.00019455	7.92E-05	6.880927086	5.840826035	3.922080994	-0.020599366	0.009727478	0.003957749	-0.033935547	-0.880859375	-0.432617188	884.12	56.14385032	-44.80738913	-10.2917442	-77
60731	0	0.27935791	0.225402832	0.15435791	0.999999046	0.000785828	-0.000124931	0.000164032	6.983947754	5.635070801	3.858947754	0.039291386	-0.006246567	0.0082016	-0.033935547	-0.881103516	-0.438232422	884.12	56.23108077	-44.82193996	-10.29493655	-77
60732	0	0.27764225	0.233551979	0.155995369	0.999999046	0.000927925	6.48E-05	0.000243187	6.941056252	5.838799477	3.899884224	0.046396263	0.003242493	0.012159349	-0.036376953	-0.883056641	-0.432373047	884.08	56.31177435	-44.83189883	-10.26527272	-77
60733	0	0.276245117	0.235473633	0.156738281	0.999999046	-0.000293732	4.67E-05	6.87E-05	6.90612793	5.88684082	3.918457031	-0.014686585	0.002336502	0.003433228	-0.036376953	-0.883056641	-0.429443359	884.02	56.26536835	-44.82618962	-10.25367049	-78
60734	0	0.277282715	0.228271484	0.156677246	0.999999046	-6.48E-05	-1.91E-05	2.29E-05	6.932067871	5.706787109	3.916931152	-0.003242493	-0.000953674	0.001144409	-0.033935547	-0.880859375	-0.432617188	884.12	56.25416708	-44.82039735	-10.25525747	-77
60735	0	0.278124809	0.230966568	0.158114433	0.999997139	0.00028038	-5.44E-05	0.000150681	6.953120232	5.7741642	3.952860832	0.014019013	-0.002717972	0.007534027	-0.033935547	-0.883056641	-0.432373047	884.02	56.27766325	-44.8290369	-10.24994113	-77
60736	0	0.279663086	0.232993126	0.159016609	0.999999046	-0.000174522	2.67E-05	7.63E-05	6.991577148	5.824828148	3.97541523	-0.00872612	0.001335144	0.003814697	-0.033935547	-0.883056641	-0.429443359	884.12	56.24596016	-44.8254086	-10.24015651	-77
60737	0	0.278442383	0.228759766	0.157348633	0.999999046	1.14E-05	7.72E-05	-0.000152588	6.96105957	5.718994141	3.93371582	0.000572205	0.003862381	-0.007629395	-0.036376953	-0.880859375	-0.438232422	884.12	56.24510816	-44.7968592	-10.24464238	-78
60738	0	0.274990082	0.231226921	0.156042099	0.999999046	0.000253677	-7.63E-06	4.96E-05	6.874752045	5.780673027	3.901052475	0.012683869	-0.00038147	0.002479553	-0.033935547	-0.883056641	-0.435302734	884.02	56.26729681	-44.79290575	-10.24201802	-77
60739	0	0.278808594	0.23046875	0.156433105	0.999999046	0.00025177	0.000115395	7.63E-05	6.970214844	5.76171875	3.910827637	0.012588501	0.00576973	0.003814697	-0.033935547	-0.885253906	-0.429443359	884.08	56.27591181	-44.78376492	-10.22003752	-77
60740	0	0.278684616	0.231604576	0.158699036	0.999999046	0.000466347	-7.44E-05	-0.000175476	6.967115402	5.790114403	3.967475891	0.023317338	-0.00371933	-0.008773804	-0.033935547	-0.883056641	-0.429443359	884.02	56.3428191	-44.76269789	-10.24629102	-77
60741	0	0.278198242	0.231933594	0.156860352	0.999999046	0.000488281	1.24E-05	0.000156403	6.954956055	5.798339844	3.921508789	0.024414064	0.000619888	0.00782013	-0.033935547	-0.883056641	-0.429443359	884.08	56.38309014	-44.76779007	-10.23126107	-78
60742	0	0.27558136	0.231937408	0.155236244	0.999999046	-0.000164032	0.000144958	6.68E-06	6.889533997	5.798435211	3.880906105	-0.008201599	0.007247925	0.000333786	-0.033691406	-0.885253906	-0.435058594	884.08	56.34556613	-44.75013792	-10.212089	-77
60743	0	0.277893066	0.231506348	0.15435791	0.999999046	0.000156403	4.29E-05	0.000167847	6.94732666	5.787658691	3.858947754	0.007820129	0.002145767	0.008392334	-0.031738281	-0.881103516	-0.432617188	884.14	56.34439046	-44.75441823	-10.19221558	-77
60744	0	0.27728653	0.233475685	0.156626701	0.999999046	0.000166893	-0.000127792	-0.000102997	6.932163239	5.836892128	3.915667534	0.00834465	-0.006389618	-0.005149841	-0.031738281	-0.883300781	-0.4296875	884.12	56.37766035	-44.74364687	-10.21919497	-77
60745	0	0.278442383	0.231018066	0.156677246	0.999999046	-0.000354767	-1.81E-05	1.14E-05	6.96105957	5.77545166	3.916931152	-0.017738343	-0.000905991	0.000572205	-0.031494141	-0.883300781	-0.432617188	884	56.3335132	-44.73690493	-10.22136971	-77
60746	0	0.275817871	0.230285645	0.156311035	0.999999046	0.000183105	-6.87E-05	-1.91E-05	6.895446777	5.757141113	3.907775879	0.009155273	-0.003433228	-0.000953674	-0.033935547	-0.883056641	-0.429443359	884.02	56.35764354	-44.73046686	-10.23279287	-77
60747	0	0.278869629	0.231079102	0.156311035	0.999999046	0.000167847	-6.77E-05	0.000244141	6.971740723	5.776977539	3.907775879	0.008392334	-0.003385544	0.012207031	-0.031738281	-0.881103516	-0.429931641	884.08	56.36334727	-44.74917289	-10.22076194	-77
