Counter	Temperature	VelInc_X	VelInc_Y	VelInc_Z	OriInc_w	OriInc_x	OriInc_y	OriInc_z	Acc_X	Acc_Y	Acc_Z	Gyr_X	Gyr_Y	Gyr_Z	Mag_X	Mag_Y	Mag_Z	Pressure	Roll	Pitch	Yaw	RSSI
10690	0	0.348515511	-0.133678436	0.049921989	0.999986649	-0.004883766	-0.000197411	0.001469612	8.712887764	-3.341960907	1.248049736	-0.244189369	-0.009870572	0.073480925	-0.643798828	0.281738281	-0.745849609	891.02	-70.20026643	-65.67597503	77.82331725	-85
10691	0	0.360107422	-0.155029297	0.06060791	0.999976158	-0.006877899	0.000340462	0.000476837	9.002685547	-3.875732422	1.515197754	-0.34389769	0.017023222	0.023842047	-0.644287109	0.290771484	-0.738037109	890.92	-70.94107871	-65.619821	77.76552999	-85
10692	0	0.369133949	-0.154643059	0.060691833	0.999991417	-0.00395298	0.000108719	0.000475883	9.228348732	-3.866076469	1.517295837	-0.197649525	0.005435958	0.023794237	-0.645019531	0.303710938	-0.733398438	890.9	-71.39974051	-65.57251293	77.75398562	-84
10693	0	0.360351563	-0.156677246	0.063110352	0.999997139	-0.001758575	-0.00108242	0.000785828	9.008789063	-3.916931152	1.577758789	-0.087928844	-0.054121061	0.039291414	-0.645263672	0.308105469	-0.730712891	890.92	-71.91426831	-65.53408655	78.07809758	-82
10694	0	0.361292839	-0.150943756	0.064421654	0.999996185	0.001446724	-0.001351357	0.00165081	9.032320976	-3.773593903	1.610541344	0.072336277	-0.0675679	0.082540603	-0.647460938	0.308349609	-0.730712891	890.96	-72.18912131	-65.40981775	78.54389428	-81
10695	0	0.357727051	-0.142150879	0.061096191	0.999998093	0.000515938	-0.000530243	0.001220703	8.94317627	-3.553771973	1.527404785	0.025796899	-0.026512155	0.061035177	-0.647705078	0.310546875	-0.728027344	890.84	-72.33744002	-65.30342194	78.75165353	-81
10696	0	0.361454964	-0.149868011	0.061110497	0.999999046	-0.000342369	0.000118256	-0.000190735	9.036374092	-3.746700287	1.527762413	-0.017118454	0.005912781	-0.009536743	-0.647705078	0.310546875	-0.730957031	891.02	-72.3210696	-65.32857048	78.67098229	-80
10697	0	0.360290527	-0.157409668	0.057800293	0.999997139	0.001392365	-0.000113487	-0.0014534	9.007263184	-3.935241699	1.445007324	0.069618272	-0.005674366	-0.072670032	-0.645263672	0.3125	-0.734130859	890.96	-72.06320348	-65.4992889	78.52899639	-79
10698	0	0.360462189	-0.159318924	0.056453705	0.999987602	0.00447464	-0.00034523	-0.002110481	9.011554718	-3.982973099	1.411342621	0.223732912	-0.017261576	-0.105524496	-0.647460938	0.303955078	-0.73046875	890.92	-71.45152525	-65.74914596	78.38640755	-79
10699	0	0.360717773	-0.154907227	0.053894043	0.99998188	0.005592346	-0.000395775	-0.00176239	9.017944336	-3.872680664	1.347351074	0.279618919	-0.019788856	-0.088120014	-0.649169922	0.29296875	-0.735107422	890.96	-70.74530089	-65.96243508	78.28235018	-79
10700	0	0.359760284	-0.149165154	0.051564217	0.999992371	0.003610611	0.000109673	-0.000739098	8.994007111	-3.729128838	1.289105415	0.180530957	0.00548364	-0.036954963	-0.653320313	0.282226563	-0.739746094	890.96	-70.22623961	-66.04556661	78.14710309	-79
10701	0	0.363586426	-0.147460938	0.049926758	0.999999046	0.000450134	0.000542641	0.000679016	9.089660645	-3.686523438	1.248168945	0.022506717	0.027132039	0.033950811	-0.653076172	0.280029297	-0.745117188	890.98	-70.08788594	-65.95890639	78.03743587	-80
10702	0	0.359791756	-0.149250031	0.04837513	0.999996185	-0.001868248	0.001389503	0.001401901	8.994793892	-3.731250763	1.209378242	-0.093412514	0.069475259	0.070095149	-0.650878906	0.282226563	-0.739746094	890.96	-70.07621124	-65.76131905	77.78129857	-81
10703	0	0.359313965	-0.153198242	0.051513672	0.999997139	-0.001262665	0.000798225	0.001701355	8.982849121	-3.829956055	1.287841797	-0.063133294	0.039911304	0.085067822	-0.646484375	0.286376953	-0.737548828	890.92	-70.16414257	-65.55445757	77.70831641	-81
10704	0	0.359710693	-0.148199081	0.048846245	0.999997139	-0.000329018	7.82E-05	0.001948357	8.992767334	-3.704977036	1.22115612	-0.016450893	0.003910067	0.097417895	-0.644287109	0.290527344	-0.743652344	891.02	-70.33615117	-65.34913022	77.84154577	-81
10705	0	0.358215332	-0.147521973	0.052185059	0.999997139	-0.000789642	-0.000124931	0.001937866	8.955383301	-3.688049316	1.304626465	-0.039482146	-0.006246571	0.096893382	-0.644287109	0.292724609	-0.743896484	890.9	-70.60485515	-65.15274228	78.02706426	-81
10706	0	0.356923103	-0.148440361	0.052166939	0.999998093	-0.00067997	-0.000121117	0.001635551	8.923077583	-3.711009026	1.30417347	-0.033998507	-0.006055835	0.081777616	-0.64453125	0.297119141	-0.741455078	890.96	-70.83226902	-64.98880168	78.17975856	-81
10707	0	0.357177734	-0.148132324	0.05279541	0.999999046	-0.000640869	-0.000102043	0.000972748	8.929443359	-3.703308105	1.319885254	-0.032043464	-0.005102159	0.048637401	-0.642333984	0.299316406	-0.738769531	890.92	-70.9954985	-64.89599216	78.26541665	-81
10708	0	0.358182907	-0.148166656	0.053935051	0.999999046	-0.000950813	-0.000232697	0.000533104	8.954572678	-3.704166412	1.348376274	-0.047540675	-0.011634829	0.026655203	-0.642578125	0.301513672	-0.739013672	890.86	-71.18845902	-64.8558994	78.34473061	-82
10709	0	0.355834961	-0.149475098	0.052307129	0.999999046	-0.000770569	-0.000197411	0.00018692	8.895874023	-3.736877441	1.307678223	-0.038528447	-0.00987053	0.009346009	-0.642578125	0.303710938	-0.744873047	890.92	-71.32498799	-64.85221233	78.38232505	-82
10710	0	0.3577528	-0.150974274	0.053824425	0.999999046	-0.000246048	-0.000591278	-2.77E-05	8.94382	-3.774356842	1.345610619	-0.0123024	-0.029563906	-0.001382828	-0.642578125	0.303710938	-0.741943359	890.86	-71.47562823	-64.88637245	78.50204609	-83
10711	0	0.360961914	-0.150817871	0.05291748	0.999999046	-4.20E-05	-0.000678062	-0.000534058	9.024047852	-3.770446777	1.322937012	-0.002098084	-0.033903126	-0.026702884	-0.642578125	0.303710938	-0.741943359	890.98	-71.58403809	-64.97886668	78.59856994	-84
10712	0	0.35710907	-0.150930405	0.055105209	0.999999046	-0.000721931	-0.000486374	-0.000835419	8.927726746	-3.773260117	1.377630234	-0.036096582	-0.024318701	-0.041770945	-0.645019531	0.301513672	-0.733154297	890.98	-71.70263019	-65.09724812	78.62641343	-85
10713	0	0.357116699	-0.153808594	0.056945801	0.999998093	-0.001151085	-0.000198364	-0.000743866	8.92791748	-3.845214844	1.42364502	-0.057554263	-0.009918216	-0.03719331	-0.645019531	0.301513672	-0.733154297	890.98	-71.80984219	-65.195219	78.58825737	-84
10714	0	0.357006073	-0.157011032	0.05741787	0.999997139	-0.001091003	4.20E-05	-0.000819206	8.925151825	-3.925275803	1.435446739	-0.054550188	0.002098084	-0.040960325	-0.645019531	0.305908203	-0.736328125	891.04	-71.84709412	-65.29253967	78.47261097	-85
10715	0	0.359619141	-0.158813477	0.058410645	0.999999046	-0.000675201	0.000195503	-0.001029968	8.990478516	-3.970336914	1.460266113	-0.03376008	0.009775164	-0.051498426	-0.647460938	0.303955078	-0.733154297	890.96	-71.78272383	-65.40697914	78.30306553	-84
10716	0	0.359434128	-0.157782555	0.055528641	0.999998093	-0.000947952	0.000552177	-0.000892639	8.985853195	-3.944563866	1.388216019	-0.047397629	0.027608881	-0.044631973	-0.647460938	0.303955078	-0.733154297	890.92	-71.67408176	-65.4932797	78.05138957	-83
10717	0	0.359375	-0.160217285	0.055236816	0.999998093	-0.001151085	0.000717163	-0.000541687	8.984375	-4.005432129	1.38092041	-0.057554265	0.035858167	-0.02708436	-0.649658203	0.303955078	-0.733154297	890.98	-71.57603182	-65.53486855	77.79034393	-83
10718	0	0.3578825	-0.160384178	0.055074692	0.999999046	-0.000455856	0.000577927	-7.63E-06	8.947062492	-4.009604454	1.376867294	-0.022792818	0.028896334	-0.00038147	-0.647460938	0.306152344	-0.733398438	890.98	-71.47377579	-65.52282681	77.6080583	-83
10719	0	0.359069824	-0.157165527	0.054870605	0.999999046	-0.000328064	0.000653267	0.000537872	8.976745605	-3.929138184	1.371765137	-0.0164032	0.03266335	0.026893619	-0.645019531	0.303710938	-0.73046875	890.92	-71.38284277	-65.44840676	77.46056853	-83
10720	0	0.359197617	-0.155940056	0.053833008	0.999998093	-0.000772476	0.000775337	0.000857353	8.979940414	-3.898501396	1.345825195	-0.038623822	0.038766873	0.042867674	-0.645263672	0.308105469	-0.733642578	890.92	-71.34017106	-65.33459438	77.30722777	-83
10721	0	0.358337402	-0.156677246	0.052734375	0.999998093	-0.001097679	0.000991821	0.000724792	8.958435059	-3.916931152	1.318359375	-0.054883982	0.049591087	0.03623964	-0.642822266	0.310302734	-0.736816406	890.98	-71.27420021	-65.22701235	77.08712312	-82
10722	0	0.356665611	-0.157428741	0.050899506	0.999999046	-0.000396729	0.000749588	0.000507355	8.916640282	-3.935718536	1.27248764	-0.019836429	0.037479407	0.025367741	-0.638427734	0.312255859	-0.734375	890.98	-71.16897241	-65.1516682	76.90820627	-82
10723	0	0.356750488	-0.15411377	0.052246094	0.999999046	0.000118256	0.000336647	0.000694275	8.918762207	-3.852844238	1.306152344	0.005912781	0.016832353	0.034713749	-0.640625	0.312255859	-0.739990234	890.98	-71.11710715	-65.07126898	76.8569465	-81
10724	0	0.360163689	-0.154297829	0.050875664	0.999999046	-0.00011158	0.000152588	0.000582695	9.004092216	-3.857445717	1.271891594	-0.005578995	0.007629395	0.029134752	-0.638183594	0.312255859	-0.737304688	890.96	-71.1261174	-65.00991224	76.84396867	-82
10725	0	0.355773926	-0.15447998	0.051818848	0.999999046	-0.000148773	9.63E-05	0.00031662	8.894348145	-3.861999512	1.295471191	-0.00743866	0.004816055	0.015830994	-0.638183594	0.312255859	-0.737304688	890.98	-71.13155906	-64.97952209	76.82377672	-82
10726	0	0.356702805	-0.154662132	0.05477047	0.999999046	6.29E-05	-7.06E-05	0.000510216	8.917570114	-3.866553307	1.369261742	0.003147125	-0.003528595	0.025510789	-0.638427734	0.314453125	-0.737304688	890.9	-71.16670946	-64.93432097	76.86032077	-83
10727	0	0.357299805	-0.153137207	0.053100586	0.999999046	-5.34E-05	-0.000254631	0.000576019	8.932495117	-3.828430176	1.327514648	-0.002670288	-0.012731553	0.028800966	-0.635986328	0.314453125	-0.740478516	890.96	-71.26284831	-64.88887733	76.94879602	-83
10728	0	0.359165192	-0.153435707	0.054304123	0.999999046	-0.000292778	-0.000225067	0.000610352	8.979129791	-3.835892677	1.357603073	-0.014638902	-0.011253358	0.030517581	-0.635986328	0.314453125	-0.734619141	890.92	-71.38176548	-64.83869675	77.03481752	-84
10729	0	0.358154297	-0.154296875	0.05480957	0.999999046	-0.000408173	4.67E-05	0.000377655	8.953857422	-3.857421875	1.370239258	-0.020408631	0.002336502	0.018882752	-0.638427734	0.316650391	-0.737548828	891.02	-71.43249692	-64.80389575	77.03099746	-84
10730	0	0.3589468	-0.155528069	0.05428791	0.999999046	-0.000150681	-6.29E-05	0.000281334	8.973670006	-3.888201714	1.357197762	-0.007534027	-0.003147125	0.014066696	-0.636230469	0.318847656	-0.735107422	890.92	-71.47139655	-64.78362423	77.04179348	-85
10731	0	0.35723877	-0.152832031	0.054504395	0.999999046	-8.39E-05	-0.000132561	0.000255585	8.930969238	-3.820800781	1.362609863	-0.004196167	-0.006628037	0.012779236	-0.636230469	0.316650391	-0.734863281	890.98	-71.51643485	-64.76884213	77.0730257	-85
10732	0	0.35717392	-0.154123306	0.054199219	0.999999046	-0.000338554	6.87E-05	0.000110626	8.929347992	-3.853082657	1.354980469	-0.016927719	0.003433228	0.005531311	-0.638427734	0.316650391	-0.734619141	890.92	-71.53287819	-64.76260943	77.04365992	-85
10733	0	0.357788086	-0.15447998	0.054138184	0.999999046	-0.000442505	0.000191689	-0.00018692	8.944702148	-3.861999512	1.35345459	-0.022125245	0.009584427	-0.009346009	-0.638671875	0.321044922	-0.735107422	890.86	-71.50973039	-64.78433845	76.94985112	-85
10734	0	0.356970787	-0.154332161	0.052062035	0.999999046	-0.000534058	0.00018692	-0.000294685	8.924269676	-3.858304024	1.301550865	-0.026702883	0.009346009	-0.014734269	-0.638671875	0.318847656	-0.737792969	890.86	-71.48981799	-64.81805569	76.85308575	-85
10735	0	0.358337402	-0.157470703	0.054504395	0.999999046	-0.000545502	-1.43E-05	-0.000370026	8.958435059	-3.936767578	1.362609863	-0.027275087	-0.000715256	-0.018501283	-0.636474609	0.321044922	-0.735107422	890.96	-71.51170543	-64.86722155	76.79530629	-85
10736	0	0.357233047	-0.155554771	0.052248001	0.999999046	-0.000535011	3.81E-06	-0.00043869	8.930826187	-3.888869286	1.306200027	-0.026750567	0.000190735	-0.021934511	-0.636230469	0.320800781	-0.740966797	890.86	-71.52288418	-64.92322723	76.72735162	-86
10737	0	0.356018066	-0.156311035	0.053710938	0.999999046	-0.000602722	-0.000182152	-0.000518799	8.90045166	-3.907775879	1.342773438	-0.030136112	-0.009107591	-0.025939944	-0.636230469	0.318847656	-0.735107422	890.88	-71.5787673	-64.99463232	76.70409212	-86
10738	0	0.358155251	-0.159360886	0.052776337	0.999999046	4.39E-05	-0.000274658	-0.001023293	8.953881264	-3.984022141	1.319408417	0.002193451	-0.013732913	-0.051164637	-0.636230469	0.320800781	-0.738037109	890.92	-71.54296704	-65.12405636	76.65389594	-86
10739	0	0.354919434	-0.158874512	0.053649902	0.999999046	0.000137329	-0.000349998	-0.000938416	8.87298584	-3.971862793	1.341247559	0.006866456	-0.017499927	-0.046920784	-0.638427734	0.314453125	-0.734619141	890.86	-71.52059015	-65.24672797	76.6410588	-85
10740	0	0.356905937	-0.159960747	0.054724693	0.999999046	0.000138283	-0.000335693	-0.00067234	8.92264843	-3.999018669	1.368117332	0.006914139	-0.01678467	-0.033617023	-0.640869141	0.314453125	-0.731689453	890.86	-71.51562086	-65.33963553	76.6466929	-85
10741	0	0.358398438	-0.159301758	0.051879883	0.999999046	-2.67E-05	-0.00014782	-6.48E-05	8.959960938	-3.982543945	1.29699707	-0.001335144	-0.007390976	-0.003242493	-0.640869141	0.314453125	-0.734375	890.98	-71.53347018	-65.35944727	76.6560828	-85
10742	0	0.358799934	-0.158770561	0.05261898	0.999999046	7.63E-06	-0.000207901	0.000239372	8.96999836	-3.96926403	1.31547451	0.00038147	-0.01039505	0.011968613	-0.640869141	0.314453125	-0.734375	890.92	-71.58585998	-65.34813608	76.70812754	-84
10743	0	0.358093262	-0.157592773	0.052490234	0.999999046	0.00012207	-0.000144005	0.000461578	8.952331543	-3.939819336	1.312255859	0.006103516	-0.007200241	0.023078919	-0.640625	0.314453125	-0.737304688	890.82	-71.62754205	-65.31015657	76.76330012	-83
10744	0	0.358267784	-0.156629562	0.050837517	0.999999046	3.91E-05	-1.14E-05	0.000582695	8.956694603	-3.915739059	1.27093792	0.001955032	-0.000572205	0.029134752	-0.640869141	0.314453125	-0.731689453	890.92	-71.65701598	-65.25411848	76.79647602	-83
10745	0	0.357055664	-0.156555176	0.05255127	0.999999046	4.96E-05	-0.00020504	0.000663757	8.926391602	-3.913879395	1.313781738	0.002479553	-0.010252	0.033187869	-0.643310547	0.316894531	-0.734375	890.98	-71.73707843	-65.19609806	76.88544919	-82
10746	0	0.358397484	-0.154035568	0.050526619	0.999999046	0.000127792	-0.000303268	0.000815392	8.959937096	-3.850889206	1.263165474	0.006389619	-0.015163424	0.040769582	-0.640869141	0.316650391	-0.731689453	890.88	-71.84271565	-65.12510538	77.0125865	-82
10747	0	0.359436035	-0.154724121	0.049743652	0.999999046	1.53E-05	-0.000235558	0.000732422	8.985900879	-3.868103027	1.243591309	0.00076294	-0.011777879	0.036621097	-0.640869141	0.318847656	-0.734863281	890.9	-71.93858438	-65.06074251	77.11217488	-81
10748	0	0.358686447	-0.153356552	0.050798416	0.999999046	0.000250816	-0.000341415	0.000674248	8.967161179	-3.833913803	1.269960403	0.012540819	-0.017070772	0.033712391	-0.638671875	0.318847656	-0.734863281	890.92	-72.02734117	-65.0065516	77.23268623	-81
10749	0	0.359619141	-0.152282715	0.049865723	0.999999046	9.92E-05	-0.000285149	0.000621796	8.990478516	-3.807067871	1.246643066	0.004959107	-0.014257432	0.031089785	-0.641113281	0.318847656	-0.731933594	890.9	-72.1159767	-64.95626498	77.3373612	-80
10750	0	0.359825134	-0.151621819	0.049994469	0.999999046	-0.000377655	-7.63E-05	0.000549316	8.995628357	-3.790545464	1.249861717	-0.018882753	-0.003814698	0.027465822	-0.641113281	0.321044922	-0.732177734	890.96	-72.20469499	-64.90677061	77.38010666	-80
10751	0	0.357727051	-0.152099609	0.050415039	0.999999046	-0.00056076	-0.000124931	0.000331879	8.94317627	-3.802490234	1.260375977	-0.028038027	-0.006246567	0.016593934	-0.641113281	0.321044922	-0.734863281	890.96	-72.3091768	-64.88290205	77.41940923	-81
10752	0	0.360689163	-0.153617859	0.050823212	0.999999046	-0.000103951	-0.000226974	0.000182152	9.01722908	-3.840446472	1.270580292	-0.005197525	-0.011348725	0.00910759	-0.638916016	0.323242188	-0.732421875	890.86	-72.37375976	-64.87911764	77.46676974	-82
10753	0	0.358825684	-0.151855469	0.050598145	0.999999046	2.29E-05	-0.000254631	-0.000190735	8.97064209	-3.796386719	1.264953613	0.001144409	-0.012731552	-0.009536743	-0.638671875	0.321044922	-0.732177734	890.86	-72.40253112	-64.91726185	77.49373253	-83
10754	0	0.359154701	-0.154096603	0.052618027	0.999999046	-0.000200272	-0.000112534	-0.000133514	8.978867531	-3.852415085	1.315450668	-0.01001358	-0.005626679	-0.00667572	-0.641113281	0.321044922	-0.732177734	890.96	-72.42768783	-64.94435012	77.49057471	-83
10755	0	0.359008789	-0.153930664	0.050537109	0.999999046	-0.000160217	-5.25E-05	-0.000137329	8.975219727	-3.848266602	1.263427734	-0.008010864	-0.002622604	-0.006866455	-0.641113281	0.321044922	-0.729248047	890.86	-72.43385126	-64.96991472	77.47143547	-83
10756	0	0.360765457	-0.155557632	0.051791191	0.999999046	-9.25E-05	5.34E-05	-0.00025177	9.019136429	-3.888940811	1.294779778	-0.00462532	0.002670288	-0.012588501	-0.643554688	0.323486328	-0.729248047	890.96	-72.39876414	-65.00438437	77.41215244	-82
10757	0	0.358337402	-0.155090332	0.051879883	0.999999046	-0.000198364	0.000287056	-0.000423431	8.958435059	-3.877258301	1.29699707	-0.009918213	0.014352799	-0.021171571	-0.641113281	0.321044922	-0.729248047	890.96	-72.30786308	-65.04948736	77.28017489	-81
10758	0	0.358501434	-0.157432556	0.051655769	0.999999046	-0.000230789	0.000425339	-0.000415802	8.962535858	-3.935813904	1.291394234	-0.01153946	0.021266939	-0.020790102	-0.641113281	0.318847656	-0.731933594	890.94	-72.1883387	-65.08874468	77.11664047	-81
10759	0	0.357971191	-0.157470703	0.053222656	0.999999046	0.000125885	0.000138283	-0.000259399	8.949279785	-3.936767578	1.330566406	0.006294251	0.006914139	-0.012969971	-0.643554688	0.319091797	-0.726074219	891.02	-72.10669402	-65.12077314	77.04058308	-81
10760	0	0.358710289	-0.15763855	0.049453735	0.999999046	7.53E-05	0.000305176	-1.24E-05	8.967757225	-3.940963745	1.236343384	0.003767014	0.015258789	-0.000619888	-0.643310547	0.319091797	-0.731933594	890.88	-72.01054393	-65.11985341	76.94170416	-81
10761	0	0.358093262	-0.157653809	0.049865723	0.999999046	1.14E-05	0.000390053	0.000202179	8.952331543	-3.941345215	1.246643066	0.000572205	0.01950264	0.010108948	-0.640869141	0.321044922	-0.737792969	890.92	-71.91851467	-65.09237115	76.83406636	-82
10762	0	0.357501984	-0.156699181	0.050757408	0.999999046	1.91E-06	0.00025177	0.000300407	8.937549591	-3.917479515	1.268935204	9.54E-05	0.012588501	0.015020371	-0.641113281	0.318847656	-0.731933594	890.88	-71.86790535	-65.05900124	76.7766179	-83
10763	0	0.357421875	-0.155761719	0.048706055	0.999999046	-3.81E-05	5.05E-05	0.000507355	8.935546875	-3.894042969	1.217651367	-0.001907349	0.002527237	0.025367738	-0.641113281	0.321044922	-0.734863281	890.88	-71.88529265	-65.01027123	76.78618498	-83
10764	0	0.356770515	-0.155578613	0.04964447	0.999999046	0.000231743	-0.000150681	0.000347137	8.919262886	-3.889465332	1.241111755	0.011587143	-0.007534027	0.017356873	-0.638671875	0.318847656	-0.732177734	890.96	-71.90672531	-64.98617177	76.83657534	-84
10765	0	0.356506348	-0.152954102	0.048034668	0.999999046	3.43E-05	-0.000201225	0.000335693	8.912658691	-3.823852539	1.200866699	0.001716614	-0.010061264	0.016784668	-0.638671875	0.321044922	-0.735107422	890.96	-71.96194023	-64.96525081	76.89534178	-85
10766	0	0.360510826	-0.156245232	0.04936409	0.999999046	-4.39E-05	-0.000492096	0.000160217	9.012770653	-3.906130791	1.234102249	-0.002193451	-0.024604798	0.008010865	-0.638671875	0.318847656	-0.732177734	890.92	-72.08091445	-64.97378914	77.01875128	-85
10767	0	0.356567383	-0.154907227	0.050292969	0.999999046	0.000465393	-0.000483513	-8.01E-05	8.91418457	-3.872680664	1.257324219	0.023269655	-0.024175646	-0.004005432	-0.638671875	0.321044922	-0.732177734	890.98	-72.12157599	-65.00818712	77.11337126	-85
10768	0	0.35755825	-0.155900002	0.052288055	0.999999046	0.000388145	-0.000497818	-9.92E-05	8.938956261	-3.897500038	1.307201385	0.019407274	-0.024890901	-0.004959107	-0.641113281	0.318847656	-0.731933594	890.92	-72.1730786	-65.04511189	77.2144968	-85
10769	0	0.357666016	-0.157592773	0.054748535	0.999999046	-1.91E-05	-0.000216484	6.87E-05	8.941650391	-3.939819336	1.368713379	-0.000953674	-0.010824204	0.003433228	-0.641113281	0.318847656	-0.731933594	890.94	-72.21769703	-65.05368277	77.25642962	-85
10770	0	0.359682083	-0.158621788	0.054524422	0.999999046	0.000144958	-0.000143051	0.000166893	8.992052078	-3.965544701	1.363110542	0.007247925	-0.007152557	0.00834465	-0.643310547	0.321289063	-0.731933594	890.98	-72.23336558	-65.04880735	77.28410039	-84
10771	0	0.35925293	-0.156188965	0.053588867	0.999999046	-3.05E-05	0.000123024	0.000274658	8.981323242	-3.904724121	1.33972168	-0.001525879	0.006151199	0.01373291	-0.643310547	0.319091797	-0.734619141	890.92	-72.21455118	-65.02284222	77.25688506	-85
10772	0	0.358725548	-0.158038139	0.052933693	0.999999046	-0.00039196	0.000305176	0.000426292	8.968138695	-3.950953484	1.323342323	-0.019598009	0.01525879	0.021314622	-0.641113281	0.321044922	-0.729248047	891.04	-72.2058295	-64.9738449	77.19210307	-85
10773	0	0.35760498	-0.156860352	0.052246094	0.999999046	8.77E-05	0.000367165	0.000492096	8.940124512	-3.921508789	1.306152344	0.004386902	0.018358232	0.024604799	-0.641113281	0.321044922	-0.734863281	890.92	-72.13270778	-64.91543137	77.11842493	-84
10774	0	0.356986046	-0.156044006	0.052228928	0.999999046	-0.000137329	0.000339508	0.00039959	8.924651146	-3.901100159	1.30572319	-0.006866455	0.016975404	0.019979478	-0.638916016	0.321044922	-0.729492188	890.98	-72.08505633	-64.86804617	77.04444495	-84
10775	0	0.35736084	-0.156433105	0.050720215	0.999999046	-0.000286102	0.000393867	0.000320435	8.934020996	-3.910827637	1.268005371	-0.014305116	0.019693376	0.016021729	-0.638671875	0.321044922	-0.735107422	890.88	-72.03618763	-64.82737537	76.95211023	-85
10776	0	0.357158661	-0.157362938	0.050299644	0.999999046	9.44E-05	0.000131607	0.000213623	8.928966522	-3.934073448	1.257491112	0.004720688	0.006580353	0.010681152	-0.641113281	0.323242188	-0.732177734	890.98	-71.99685475	-64.80759457	76.91666221	-85
10777	0	0.357910156	-0.155151367	0.049255371	0.999999046	0.000141144	-0.000105858	0.000270844	8.947753906	-3.87878418	1.231384277	0.00705719	-0.005292893	0.013542176	-0.638671875	0.321044922	-0.735107422	891.02	-72.01174813	-64.79012243	76.94926835	-86
10778	0	0.357652664	-0.156979561	0.050504684	0.999999046	-9.54E-06	-0.000167847	0.00030899	8.941316605	-3.924489021	1.262617111	-0.000476837	-0.008392334	0.015449524	-0.638671875	0.323242188	-0.738037109	891	-72.06122562	-64.77070794	76.99717689	-85
10779	0	0.35748291	-0.156982422	0.051086426	0.999999046	8.39E-05	-0.000266075	0.000205994	8.937072754	-3.924560547	1.277160645	0.004196167	-0.013303757	0.010299683	-0.641113281	0.323242188	-0.735107422	890.88	-72.11503906	-64.7659997	77.06380145	-86
10780	0	0.35677433	-0.157059669	0.052447319	0.999999046	-3.72E-05	-0.000202179	0.000183105	8.919358253	-3.926491737	1.311182976	-0.001859665	-0.010108948	0.009155274	-0.638671875	0.323242188	-0.735351563	890.98	-72.16611437	-64.76150745	77.11014	-85
10781	0	0.359741211	-0.157897949	0.052124023	0.999999046	4.96E-05	-0.000216484	3.81E-05	8.993530273	-3.94744873	1.303100586	0.002479553	-0.010824204	0.001907349	-0.638916016	0.323242188	-0.726806641	890.92	-72.19973895	-64.77334319	77.14805937	-85
10782	0	0.356028557	-0.15712738	0.052227974	0.999999046	0.000165939	-0.000276566	1.43E-05	8.900713921	-3.928184509	1.305699348	0.008296967	-0.013828278	0.000715256	-0.636474609	0.322998047	-0.735351563	890.92	-72.23210156	-64.78984479	77.19661974	-84
10783	0	0.358032227	-0.157531738	0.053527832	0.999999046	1.53E-05	-9.82E-05	0.000278473	8.950805664	-3.938293457	1.338195801	0.000762939	-0.004911423	0.013923645	-0.638916016	0.323242188	-0.732421875	890.92	-72.25979056	-64.77125281	77.22329052	-83
10784	0	0.359069824	-0.157287598	0.054077148	0.999999046	-0.000323296	4.20E-05	0.000518799	8.976745605	-3.932189941	1.351928711	-0.016164781	0.002098084	0.025939943	-0.638916016	0.323242188	-0.729492188	890.98	-72.31121652	-64.72154241	77.23586741	-83
10785	0	0.358520508	-0.157531738	0.052612305	0.999999046	-5.72E-05	0.000115395	0.000343323	8.963012695	-3.938293457	1.315307617	-0.002861023	0.00576973	0.017166138	-0.638671875	0.323242188	-0.735351563	890.88	-72.30203235	-64.68845436	77.21607122	-84
10786	0	0.357728958	-0.157905579	0.051210403	0.999999046	-1.14E-05	0.000120163	0.000118256	8.943223953	-3.947639465	1.280260086	-0.000572205	0.006008148	0.005912781	-0.636474609	0.323242188	-0.732421875	890.94	-72.26998726	-64.67978449	77.17521071	-84
10787	0	0.356506348	-0.158203125	0.052368164	0.999999046	0.00019455	0.000203133	8.01E-05	8.912658691	-3.955078125	1.309204102	0.009727478	0.010156632	0.004005432	-0.638916016	0.323242188	-0.729492188	890.88	-72.19234321	-64.67233014	77.11201281	-85
10788	0	0.35736084	-0.15814209	0.051879883	0.999999046	0.000531197	0.000110626	0.000137329	8.934020996	-3.953552246	1.29699707	0.026559831	0.005531311	0.006866455	-0.636474609	0.325195313	-0.735595703	890.92	-72.101719	-64.66183679	77.06988968	-86
10789	0	0.357762337	-0.157589912	0.051073074	0.999998093	0.000252724	0.000173569	6.77E-05	8.944058418	-3.93974781	1.276826859	0.012636185	0.008678436	0.003385544	-0.63671875	0.323242188	-0.726806641	890.88	-72.02350226	-64.6567431	77.00997835	-87
10790	0	0.357466698	-0.158373833	0.048937798	0.999999046	0.000150681	0.000171661	0.000151634	8.936667442	-3.959345818	1.223444939	0.007534027	0.008583069	0.007581711	-0.636474609	0.323242188	-0.732421875	890.94	-71.96412121	-64.6425798	76.95773528	-86
10791	0	0.35748291	-0.157653809	0.050537109	0.999999046	0.000152588	3.15E-05	0.000247955	8.937072754	-3.941345215	1.263427734	0.007629395	0.001573563	0.012397766	-0.634277344	0.322998047	-0.729736328	890.92	-71.94421112	-64.62293389	76.94815865	-85
10792	0	0.356669426	-0.157144547	0.050484657	0.999999046	-1.43E-05	8.01E-05	0.000338554	8.916735649	-3.928613663	1.262116432	-0.000715256	0.004005432	0.016927719	-0.636474609	0.322998047	-0.735351563	890.94	-71.93924285	-64.59175478	76.93689699	-85
10793	0	0.355224609	-0.157470703	0.051208496	0.999999046	-0.000167847	6.58E-05	0.00025177	8.880615234	-3.936767578	1.280212402	-0.008392334	0.003290176	0.012588501	-0.636474609	0.323242188	-0.729736328	890.88	-71.94879703	-64.57055457	76.92296048	-84
10794	0	0.354345322	-0.156446457	0.051934242	0.999999046	-0.000185013	-0.000146866	0.000304222	8.858633041	-3.911161423	1.298356056	-0.009250641	-0.007343292	0.015211106	-0.634521484	0.327636719	-0.733154297	890.98	-72.01290197	-64.55120709	76.95788145	-84
10795	0	0.35736084	-0.158447266	0.051635742	0.999999046	0.000114441	-0.000304222	-0.000247955	8.934020996	-3.961181641	1.290893555	0.005722046	-0.015211106	-0.012397766	-0.63671875	0.325439453	-0.735595703	890.94	-72.03776693	-64.59762701	76.99212162	-84
10796	0	0.353685379	-0.157100677	0.050845146	0.999999046	5.82E-05	-0.000413895	-0.000209808	8.842134476	-3.927516937	1.271128654	0.002908707	-0.020694733	-0.010490418	-0.63671875	0.323242188	-0.732666016	890.94	-72.09738501	-64.64374732	77.06056091	-83
10797	0	0.356323242	-0.159606934	0.052978516	0.999999046	-0.000198364	-0.00033474	-0.00012207	8.908081055	-3.99017334	1.324462891	-0.009918213	-0.016736985	-0.006103516	-0.63671875	0.323242188	-0.732666016	890.94	-72.17484469	-64.67737917	77.11579417	-83
10798	0	0.357678413	-0.158746719	0.052675247	0.999998093	-0.00014019	-0.000267982	-3.81E-05	8.941960335	-3.968667984	1.31688118	-0.007009506	-0.013399124	-0.001907349	-0.634277344	0.323242188	-0.735595703	891	-72.23650217	-64.69944588	77.15850318	-83
10799	0	0.35723877	-0.159240723	0.05267334	0.999999046	-0.000785828	-2.86E-06	-1.14E-05	8.930969238	-3.981018066	1.316833496	-0.039291386	-0.000143051	-0.000572205	-0.63671875	0.323242188	-0.732666016	890.98	-72.31287888	-64.70925192	77.14000975	-83
10800	0	0.357791901	-0.162064552	0.054185867	0.999999046	-0.000414848	-0.00019455	-0.0001688	8.944797516	-4.051613808	1.354646683	-0.020742417	-0.009727478	-0.008440018	-0.639160156	0.325439453	-0.732666016	890.82	-72.37930458	-64.74269736	77.15562382	-83
10801	0	0.35534668	-0.161621094	0.053100586	0.999999046	8.01E-05	-0.000239372	-0.000225067	8.883666992	-4.040527344	1.327514648	0.004005432	-0.011968613	-0.011253357	-0.63671875	0.323242188	-0.735595703	890.94	-72.39523211	-64.78360226	77.17889375	-83
10802	0	0.35440731	-0.161880493	0.053321838	0.999999046	-4.96E-05	-0.000230789	0	8.860182762	-4.047012329	1.333045959	-0.002479553	-0.011539459	0	-0.63671875	0.323242188	-0.735595703	890.94	-72.44053892	-64.79934017	77.2179076	-83
10803	0	0.356323242	-0.162902832	0.054626465	0.999999046	-5.34E-05	-7.92E-05	-0.000148773	8.908081055	-4.072570801	1.365661621	-0.002670288	-0.003957748	-0.00743866	-0.638916016	0.323242188	-0.735351563	890.92	-72.43992835	-64.82578643	77.20712774	-83
10804	0	0.357295036	-0.162009239	0.052659035	0.999999046	-0.000157356	9.54E-06	1.14E-05	8.932375908	-4.05023098	1.316475868	-0.007867813	0.000476837	0.000572205	-0.639160156	0.325439453	-0.732666016	890.92	-72.44234802	-64.83144662	77.18278447	-82
10805	0	0.356323242	-0.162841797	0.052246094	0.999999046	-0.000102997	3.15E-05	0.000213623	8.908081055	-4.071044922	1.306152344	-0.005149841	0.001573563	0.010681152	-0.63671875	0.323242188	-0.735595703	890.86	-72.44834031	-64.81400334	77.17234548	-83
10806	0	0.355335236	-0.160319328	0.050830841	0.999999046	-4.77E-05	-7.44E-05	0.000441551	8.88338089	-4.007983208	1.270771027	-0.002384186	-0.00371933	0.022077561	-0.639160156	0.323242188	-0.729736328	890.94	-72.48939539	-64.77517651	77.21109521	-82
10807	0	0.355224609	-0.15802002	0.049987793	0.999999046	-9.92E-05	-0.000189781	0.000667572	8.880615234	-3.950500488	1.249694824	-0.004959107	-0.00948906	0.033378604	-0.63671875	0.325439453	-0.729980469	890.94	-72.57949556	-64.71558008	77.29295556	-82
10808	0	0.359181404	-0.159059525	0.050368309	0.999999046	2.86E-06	-0.000349045	0.000353813	8.979535103	-3.976488113	1.259207726	0.000143051	-0.017452241	0.017690659	-0.63671875	0.323242188	-0.729736328	891	-72.67176616	-64.69574251	77.39501927	-83
10809	0	0.354797363	-0.158447266	0.049621582	0.999999046	0.0001297	-0.000426292	2.29E-05	8.869934082	-3.961181641	1.240539551	0.006484986	-0.021314622	0.001144409	-0.639160156	0.327636719	-0.729980469	890.88	-72.74355697	-64.71466894	77.48294679	-83
10810	0	0.357031822	-0.158694267	0.052714348	0.999999046	0.000144958	-0.000576019	6.10E-05	8.925795555	-3.967356682	1.317858696	0.007247925	-0.028800966	0.003051758	-0.641601563	0.327880859	-0.729980469	890.88	-72.85090475	-64.73441689	77.61283217	-84
10811	0	0.357177734	-0.157775879	0.053161621	0.999999046	0.000110626	-0.000472069	1.91E-05	8.929443359	-3.944396973	1.329040527	0.005531311	-0.02360344	0.000953674	-0.641357422	0.323486328	-0.729492188	890.94	-72.9348476	-64.75518488	77.72004006	-84
10812	0	0.358886719	-0.15826416	0.053039551	0.999999046	0.000184059	-0.00043869	-2.29E-05	8.972167969	-3.956604004	1.32598877	0.009202958	-0.02193451	-0.001144409	-0.641357422	0.325683594	-0.732666016	890.88	-72.9993862	-64.77939185	77.80940389	-81
10813	0	0.359333992	-0.1577425	0.053636551	0.999998093	0.000100136	-0.00034523	-7.63E-05	8.9833498	-3.943562508	1.340913773	0.00500679	-0.017261506	-0.003814697	-0.641601563	0.325683594	-0.729736328	890.88	-73.04765314	-64.80632681	77.86938376	-83
10814	0	0.35904026	-0.15786171	0.050859451	0.999999046	-0.000112534	-7.82E-05	-1.91E-05	8.976006508	-3.94654274	1.271486282	-0.005626678	-0.003910065	-0.000953674	-0.641357422	0.323486328	-0.729492188	890.88	-73.06203371	-64.81811651	77.86918713	-81
10815	0	0.356933594	-0.157531738	0.051696777	0.999999046	-8.39E-05	-9.44E-05	-0.000118256	8.923339844	-3.938293457	1.292419434	-0.004196167	-0.004720688	-0.005912781	-0.643798828	0.325683594	-0.729736328	890.86	-73.06959732	-64.84132422	77.86254097	-82
10816	0	0.357421875	-0.157470703	0.052856445	0.999999046	3.53E-05	5.72E-05	-0.000240326	8.935546875	-3.936767578	1.321411133	0.001764298	0.002861023	-0.012016297	-0.643798828	0.321289063	-0.723632813	890.98	-73.01898117	-64.87284906	77.81459282	-83
10817	0	0.358255386	-0.15763092	0.050154686	0.999998093	-6.01E-05	0.000232697	-0.000537872	8.956384659	-3.94077301	1.253867149	-0.003004074	0.011634827	-0.026893617	-0.641357422	0.323486328	-0.729492188	891	-72.91665378	-64.93107829	77.68949398	-83
10818	0	0.356994629	-0.159606934	0.049621582	0.999999046	6.87E-05	0.000232697	-0.000576019	8.924865723	-3.99017334	1.240539551	0.003433228	0.011634827	-0.028800966	-0.641357422	0.321289063	-0.723632813	890.98	-72.79638443	-64.9932895	77.56348038	-83
10819	0	0.35736084	-0.159484863	0.048583984	0.999999046	0.000286102	-1.05E-05	-0.000514984	8.934020996	-3.987121582	1.214599609	0.014305116	-0.000524521	-0.025749208	-0.643554688	0.321289063	-0.732177734	890.98	-72.71247291	-65.05689931	77.50435935	-83
10820	0	0.357523918	-0.15780735	0.048727036	0.999999046	-0.000103951	0.000135422	-0.000275612	8.938097954	-3.945183754	1.218175888	-0.005197525	0.006771088	-0.013780594	-0.643554688	0.319091797	-0.734863281	891.04	-72.65640243	-65.08928781	77.43041575	-83
10821	0	0.35723877	-0.158752441	0.048522949	0.999999046	-0.000297546	4.77E-06	-9.54E-05	8.930969238	-3.968811035	1.21307373	-0.01487732	0.000238419	-0.004768372	-0.641113281	0.319091797	-0.729248047	890.94	-72.66673903	-65.10631892	77.40341012	-84
10822	0	0.358428001	-0.159323692	0.048430443	0.999999046	0.000198364	-0.000190735	-0.000332832	8.960700035	-3.983092308	1.21076107	0.009918213	-0.009536743	-0.016641617	-0.643554688	0.321289063	-0.729248047	890.94	-72.64914096	-65.15590753	77.4039615	-85
10823	0	0.356994629	-0.157409668	0.049377441	0.999999046	-0.0001297	-0.000193596	-2.29E-05	8.924865723	-3.935241699	1.234436035	-0.006484985	-0.009679794	-0.001144409	-0.643554688	0.319091797	-0.729003906	890.88	-72.69282336	-65.17162995	77.4348856	-85
10824	0	0.358119965	-0.159359932	0.051332474	0.999999046	-0.00020504	-0.000116348	0.000385284	8.952999115	-3.983998299	1.283311844	-0.010251999	-0.005817414	0.019264222	-0.643554688	0.319091797	-0.731933594	891	-72.75684452	-65.13989353	77.48015414	-85
10825	0	0.358886719	-0.156555176	0.051208496	0.999999046	0.00012207	-4.86E-05	0.00043869	8.972167969	-3.913879395	1.280212402	0.006103516	-0.00243187	0.02193451	-0.641357422	0.321289063	-0.732177734	891	-72.77103589	-65.09999649	77.50632757	-85
10826	0	0.358998299	-0.155942917	0.050600052	0.999999046	-6.48E-05	-3.81E-06	0.000572205	8.974957466	-3.898572922	1.265001297	-0.003242493	-0.000190735	0.028610231	-0.643554688	0.319091797	-0.729003906	890.86	-72.80563612	-65.04402227	77.53953045	-83
10827	0	0.357910156	-0.156433105	0.051147461	0.999999046	0.000305176	-6.39E-05	0.000324249	8.947753906	-3.910827637	1.278686523	0.01525879	-0.003194809	0.016212464	-0.643554688	0.321289063	-0.732177734	890.94	-72.79366844	-65.01723939	77.56361289	-82
10828	0	0.355984688	-0.155228615	0.051866531	0.999999046	0.000597954	-0.000192642	0.000293732	8.899617195	-3.88071537	1.296663284	0.029897692	-0.009632111	0.014686586	-0.643554688	0.321289063	-0.729248047	890.92	-72.77587912	-64.9981967	77.61712134	-82
10829	0	0.356262207	-0.155212402	0.051452637	0.999999046	0.000549316	-0.00014782	-8.39E-05	8.906555176	-3.880310059	1.286315918	0.027465822	-0.007390976	-0.004196167	-0.645996094	0.319335938	-0.726074219	890.98	-72.72542623	-65.01902915	77.63232045	-82
10830	0	0.357768059	-0.157235146	0.049321175	0.999999046	0.000562668	0.000226974	-0.000199318	8.944201469	-3.930878639	1.233029366	0.028133394	0.011348725	-0.009965897	-0.645751953	0.319091797	-0.731933594	890.92	-72.57699118	-65.03969688	77.53914647	-82
10831	0	0.357727051	-0.158203125	0.048095703	0.999999046	0.000499725	-6.01E-05	-5.34E-05	8.94317627	-3.955078125	1.202392578	0.024986268	-0.003004074	-0.002670288	-0.643554688	0.319091797	-0.731933594	890.92	-72.51417987	-65.05418227	77.52860595	-82
10832	0	0.358847618	-0.157812119	0.047904015	0.999999046	0.000397682	-0.000148773	0.000347137	8.971190453	-3.945302963	1.197600365	0.01988411	-0.00743866	0.017356873	-0.643310547	0.316894531	-0.731689453	890.98	-72.51387753	-65.02796456	77.57779303	-82
10833	0	0.357727051	-0.15637207	0.046875	0.999999046	0.000179291	-0.000372887	0.000656128	8.94317627	-3.909301758	1.171875	0.008964539	-0.018644335	0.0328064	-0.643310547	0.316894531	-0.731689453	890.98	-72.6142027	-64.97572567	77.7111714	-83
10834	0	0.356154442	-0.155784607	0.048495293	0.999999046	-6.87E-05	-0.000465393	0.000892639	8.903861046	-3.894615173	1.212382317	-0.003433228	-0.023269657	0.044631966	-0.643554688	0.316894531	-0.729003906	890.92	-72.7813916	-64.90070326	77.88942258	-83
10835	0	0.360717773	-0.156433105	0.049316406	0.999999046	0.000270844	-0.000834465	0.000617981	9.017944336	-3.910827637	1.232910156	0.013542178	-0.041723259	0.030899054	-0.645751953	0.316894531	-0.731689453	890.94	-72.975277	-64.86813123	78.14187954	-83
10836	0	0.356890678	-0.154100418	0.051671028	0.999999046	0.000220299	-0.000812531	0.00056076	8.92226696	-3.852510452	1.291775703	0.01101494	-0.040626533	0.02803803	-0.645751953	0.319091797	-0.731933594	890.98	-73.16484251	-64.8408931	78.37870437	-84
10837	0	0.358093262	-0.155517578	0.053466797	0.999999046	8.39E-05	-0.000750542	0.000598907	8.952331543	-3.887939453	1.336669922	0.004196168	-0.03752709	0.029945378	-0.648193359	0.319335938	-0.729003906	891.06	-73.35716461	-64.80718515	78.60362289	-84
10838	0	0.36128521	-0.153378487	0.052948952	0.999999046	9.92E-05	-0.000513077	0.000483513	9.032130241	-3.834462166	1.323723793	0.004959107	-0.025653841	0.024175646	-0.648193359	0.319335938	-0.731689453	891.04	-73.48316955	-64.77839844	78.7575842	-85
10839	0	0.359741211	-0.153503418	0.052978516	0.999999046	-0.00062561	-6.77E-05	0.00043869	8.993530273	-3.837585449	1.324462891	-0.031280521	-0.003385544	0.021934511	-0.648193359	0.319335938	-0.726074219	890.98	-73.5843163	-64.74018287	78.79527887	-85
10840	0	0.359367371	-0.155779839	0.054320335	0.999999046	-0.000321388	-1.14E-05	2.29E-05	8.984184265	-3.894495964	1.358008385	-0.016069413	-0.000572205	0.001144409	-0.6484375	0.323730469	-0.723632813	890.94	-73.60806716	-64.74594584	78.77835485	-85
10841	0	0.359558105	-0.155761719	0.052307129	0.999999046	5.34E-05	5.82E-05	-9.92E-05	8.988952637	-3.894042969	1.307678223	0.002670288	0.002908707	-0.004959106	-0.645996094	0.323486328	-0.729248047	890.98	-73.56369328	-64.76301008	78.73137119	-86
10842	0	0.357323647	-0.154281616	0.053096771	0.999999046	-0.000120163	0.000177383	-4.67E-05	8.933091164	-3.857040405	1.327419281	-0.006008148	0.008869171	-0.002336502	-0.6484375	0.321533203	-0.726318359	890.92	-73.51432673	-64.7705687	78.66332616	-87
10843	0	0.358642578	-0.157592773	0.052246094	0.999999046	-0.000175476	0.000294685	-0.000526428	8.966064453	-3.939819336	1.306152344	-0.008773804	0.014734269	-0.026321413	-0.6484375	0.321533203	-0.729003906	890.92	-73.41013338	-64.82697808	78.52670847	-87
10844	0	0.359267235	-0.157354355	0.049838066	0.999999046	-0.000123024	0.000484467	-0.000679016	8.98168087	-3.933858871	1.245951653	-0.0061512	0.024223331	-0.03395081	-0.645996094	0.319091797	-0.729003906	890.94	-73.24411181	-64.89381773	78.32976161	-86
10845	0	0.358520508	-0.158630371	0.049499512	0.999999046	-0.000484467	0.000523567	-0.000564575	8.963012695	-3.965759277	1.237487793	-0.024223331	0.026178364	-0.028228764	-0.645996094	0.321289063	-0.729248047	890.94	-73.11763328	-64.94654883	78.12653957	-85
10846	0	0.357063293	-0.16059494	0.04941082	0.999999046	-0.000268936	0.000511169	-0.000419617	8.926582336	-4.014873505	1.2352705	-0.013446809	0.025558474	-0.020980837	-0.645751953	0.317138672	-0.726074219	890.98	-72.97927443	-64.98344232	77.94538852	-85
10847	0	0.356689453	-0.160339355	0.048583984	0.999999046	-0.000320435	0.000527382	-0.000354767	8.917236328	-4.008483887	1.214599609	-0.01602173	0.026369097	-0.017738344	-0.648193359	0.319335938	-0.729003906	890.92	-72.84754296	-65.01233159	77.76298174	-85
10848	0	0.357421875	-0.161521912	0.050503731	0.999999046	-0.000370979	0.000394821	-0.000164986	8.935546875	-4.038047791	1.262593269	-0.018548966	0.019741059	-0.008249283	-0.643554688	0.319091797	-0.729003906	890.94	-72.76642859	-65.0245519	77.62719246	-85
10849	0	0.356201172	-0.161743164	0.048706055	0.999999046	6.10E-05	0.000309944	-0.000144958	8.905029297	-4.043579102	1.217651367	0.003051758	0.015497208	-0.007247925	-0.645996094	0.319335938	-0.726074219	890.92	-72.65751244	-65.03713499	77.51646039	-87
10850	0	0.355360985	-0.159864426	0.050958633	0.999999046	2.48E-05	0.000110626	7.63E-06	8.88402462	-3.996610641	1.273965836	0.001239777	0.005531311	0.00038147	-0.641113281	0.316894531	-0.729003906	890.92	-72.61082136	-65.03957857	77.47015865	-88
10851	0	0.356567383	-0.161437988	0.052124023	0.999999046	-0.000350952	0.000164986	0.000328064	8.91418457	-4.035949707	1.303100586	-0.017547608	0.008249283	0.016403199	-0.643554688	0.319091797	-0.726318359	890.92	-72.61805706	-65.00485264	77.43559683	-88
10852	0	0.357542992	-0.160611153	0.05273819	0.999999046	0.000113487	9.73E-05	0.000499725	8.938574791	-4.015278816	1.318454742	0.005674362	0.004863739	0.024986268	-0.643554688	0.321289063	-0.732177734	890.9	-72.60053498	-64.95347855	77.42925143	-89
10853	0	0.358276367	-0.15814209	0.052124023	0.999999046	0.000297546	0.000100136	0.000598907	8.95690918	-3.953552246	1.303100586	0.01487732	0.005006791	0.029945376	-0.643554688	0.319091797	-0.729003906	890.94	-72.56852488	-64.89113459	77.43547112	-90
10854	0	0.357954025	-0.157684326	0.054485321	0.999999046	0.000261307	-8.20E-05	0.000476837	8.948850632	-3.942108154	1.362133026	0.013065339	-0.0041008	0.023841859	-0.645996094	0.321289063	-0.729248047	890.86	-72.57387874	-64.84835935	77.47660121	-90
10855	0	0.356384277	-0.156982422	0.053161621	0.999999046	0.000545502	0.000222206	0.000236511	8.909606934	-3.924560547	1.329040527	0.027275087	0.011110307	0.011825562	-0.643554688	0.321289063	-0.732177734	890.94	-72.4581053	-64.82139366	77.41699413	-90
10856	0	0.357201576	-0.155628204	0.053732872	0.999999046	0.000405312	0.000234604	0.000102043	8.930039406	-3.890705109	1.3433218	0.02026558	0.011730195	0.005102158	-0.641113281	0.319091797	-0.729248047	890.94	-72.34550328	-64.80871926	77.3446124	-89
10857	0	0.356872559	-0.156616211	0.053039551	0.999999046	0.000389099	0.000344276	-6.10E-05	8.921813965	-3.915405273	1.32598877	0.019454957	0.017213822	-0.003051758	-0.641113281	0.319091797	-0.734863281	890.94	-72.19716849	-64.80998715	77.2296436	-89
10858	0	0.357222557	-0.156533241	0.051452637	0.999999046	0.00056839	0.000341415	-0.000228882	8.930563927	-3.913331032	1.286315918	0.028419497	0.017070772	-0.011444093	-0.641113281	0.316894531	-0.734863281	890.86	-72.01644722	-64.82959504	77.10379997	-88
10859	0	0.356933594	-0.157348633	0.050354004	0.999999046	0.000339508	0.000340462	-0.000232697	8.923339844	-3.93371582	1.258850098	0.016975404	0.017023087	-0.011634827	-0.638671875	0.316650391	-0.731933594	890.98	-71.86199814	-64.8495286	76.97478298	-88
10860	0	0.357278824	-0.158615112	0.048628807	0.999999046	0.000554085	-4.58E-05	-0.000152588	8.931970596	-3.965377808	1.215720177	0.02770424	-0.002288818	-0.007629395	-0.638671875	0.314453125	-0.734619141	890.94	-71.77909454	-64.8744469	76.9538995	-88
10861	0	0.355773926	-0.157531738	0.049560547	0.999999046	0.000831604	-0.000243187	5.72E-05	8.894348145	-3.938293457	1.239013672	0.041580205	-0.012159349	0.002861023	-0.640869141	0.314697266	-0.737548828	891	-71.72667911	-64.88360655	77.00039365	-87
10862	0	0.359564781	-0.15504837	0.05043602	0.999999046	3.43E-05	-0.000331879	0.000301361	8.98911953	-3.876209259	1.260900497	0.001716614	-0.016593934	0.015068055	-0.640869141	0.314697266	-0.731689453	890.98	-71.80519058	-64.86954955	77.0907649	-86
10863	0	0.356262207	-0.157287598	0.053833008	0.999999046	6.87E-05	-0.000208855	-1.53E-05	8.906555176	-3.932189941	1.345825195	0.003433228	-0.010442734	-0.000762939	-0.640869141	0.314697266	-0.731689453	890.92	-71.82699657	-64.88548658	77.122146	-85
10864	0	0.356777191	-0.155133247	0.054558754	0.999999046	0.000174522	-0.00022316	-6.96E-05	8.919429779	-3.878331184	1.363968849	0.00872612	-0.01115799	-0.003480911	-0.640869141	0.314697266	-0.734619141	890.82	-71.83567009	-64.90789672	77.15125145	-85
10865	0	0.356567383	-0.155883789	0.054992676	0.999999046	-0.000137329	1.62E-05	3.05E-05	8.91418457	-3.897094727	1.374816895	-0.006866455	0.000810623	0.001525879	-0.640869141	0.314697266	-0.734619141	890.98	-71.83184497	-64.91084632	77.12749154	-85
10866	0	0.357105255	-0.154700279	0.053312302	0.999999046	2.67E-05	0.0001297	-0.000148773	8.927631378	-3.867506981	1.332807541	0.001335144	0.006484985	-0.00743866	-0.643310547	0.314697266	-0.731689453	890.92	-71.76902903	-64.9293284	77.06099561	-85
10867	0	0.356689453	-0.155151367	0.051025391	0.999999046	-0.000331879	0.000226021	-0.000236511	8.917236328	-3.87878418	1.275634766	-0.016593934	0.011301041	-0.011825562	-0.643066406	0.3125	-0.737060547	890.94	-71.71826749	-64.95395188	76.96685572	-85
10868	0	0.35826683	-0.156785011	0.049738884	0.999999046	-0.000296593	4.58E-05	-0.000317574	8.956670761	-3.919625282	1.243472099	-0.014829636	0.002288818	-0.015878678	-0.643310547	0.3125	-0.728515625	890.9	-71.69951358	-64.99389747	76.91230856	-85
10869	0	0.356201172	-0.154907227	0.050598145	0.999999046	-0.000423431	-9.06E-05	-0.000232697	8.905029297	-3.872680664	1.264953613	-0.021171571	-0.004529953	-0.011634827	-0.640869141	0.314697266	-0.731689453	890.98	-71.73385817	-65.02956269	76.89387516	-86
10870	0	0.35725975	-0.157226563	0.051680565	0.999999046	-0.000278473	-0.000240326	-0.00017643	8.931493759	-3.930664063	1.292014122	-0.013923645	-0.012016297	-0.008821488	-0.643310547	0.3125	-0.731445313	890.88	-71.79120264	-65.06443309	76.92539364	-85
10871	0	0.35748291	-0.155273438	0.049682617	0.999999046	-0.000450134	-0.000178337	-0.000499725	8.937072754	-3.881835938	1.24206543	-0.022506716	-0.008916856	-0.024986269	-0.643310547	0.314697266	-0.728759766	890.94	-71.82923234	-65.13232346	76.90871016	-85
10872	0	0.357535362	-0.156367302	0.051671028	0.999998093	-0.001356125	-9.54E-07	-0.000511169	8.938384056	-3.909182549	1.291775703	-0.067806268	-4.77E-05	-0.025558481	-0.645507813	0.314697266	-0.734375	890.92	-71.92871013	-65.19510213	76.84946494	-87
10873	0	0.35748291	-0.159912109	0.053161621	0.999999046	-0.001293182	-2.19E-05	-0.000423431	8.937072754	-3.997802734	1.329040527	-0.064659139	-0.001096726	-0.021171576	-0.643310547	0.314697266	-0.734375	891	-72.03279475	-65.24886103	76.80350182	-88
10874	0	0.356399536	-0.160056114	0.053829193	0.999999046	-0.000711441	3.81E-06	-0.000286102	8.909988403	-4.001402855	1.345729828	-0.035572055	0.000190735	-0.014305116	-0.643310547	0.316894531	-0.734619141	890.98	-72.07463736	-65.28646318	76.75898878	-89
10875	0	0.357543945	-0.158691406	0.053039551	0.999999046	-0.000587463	-7.53E-05	-0.000385284	8.938598633	-3.967285156	1.32598877	-0.029373171	-0.003767014	-0.019264223	-0.643310547	0.316894531	-0.737548828	890.82	-72.1133867	-65.33747517	76.72702398	-89
10876	0	0.357735634	-0.160064697	0.052430153	0.999999046	-0.000809669	0.000232697	-0.000728607	8.943390846	-4.001617432	1.310753822	-0.040483483	0.011634829	-0.036430366	-0.643310547	0.316894531	-0.731689453	890.82	-72.07792721	-65.41480462	76.58547782	-90
10877	0	0.356445313	-0.161499023	0.0546875	0.999999046	-0.000961304	0.000351906	-0.000839233	8.911132813	-4.037475586	1.3671875	-0.0480652	0.017595296	-0.041961682	-0.645751953	0.317138672	-0.728759766	890.94	-72.02209068	-65.49952547	76.40451101	-90
10878	0	0.355705261	-0.164183617	0.055841446	0.999999046	-0.000989914	0.000341415	-0.000546455	8.892631531	-4.104590416	1.396036148	-0.049495709	0.017070774	-0.027322776	-0.645996094	0.321289063	-0.731933594	890.94	-71.99400631	-65.55206112	76.24400203	-88
10879	0	0.354492188	-0.1640625	0.055908203	0.999999046	-0.000282288	0.000214577	-0.000431061	8.862304688	-4.1015625	1.397705078	-0.014114381	0.010728837	-0.021553041	-0.645751953	0.317138672	-0.726074219	890.9	-71.92374908	-65.59587113	76.13382961	-86
10880	0	0.355828285	-0.162322998	0.055480003	0.999999046	-0.000481606	0.000436783	-0.000610352	8.89570713	-4.058074951	1.387000084	-0.02408028	0.021839145	-0.030517582	-0.643310547	0.316894531	-0.734619141	890.9	-71.80830503	-65.65070868	75.9475997	-83
10881	0	0.356506348	-0.165222168	0.05480957	0.999998093	-0.000906944	0.000713348	-0.000778198	8.912658691	-4.130554199	1.370239258	-0.045347228	0.035667431	-0.038909925	-0.645751953	0.317138672	-0.728759766	890.94	-71.66105894	-65.71309614	75.67531501	-81
10882	0	0.359554291	-0.164638519	0.053679466	0.999999046	-0.000465393	0.000514984	-0.00082016	8.988857269	-4.115962982	1.341986656	-0.023269658	0.025749211	-0.041008003	-0.643554688	0.316894531	-0.729003906	890.98	-71.50685276	-65.78641848	75.44885403	-79
10883	0	0.361022949	-0.164428711	0.052001953	0.999999046	-0.00043869	0.000416756	-0.000701904	9.02557373	-4.110717773	1.300048828	-0.021934512	0.020837787	-0.03509522	-0.643310547	0.316894531	-0.734619141	890.94	-71.38242324	-65.84979483	75.25796341	-78
10884	0	0.359009743	-0.162078857	0.052035332	0.999999046	-0.000287056	0.00043869	-0.000724792	8.975243568	-4.051971436	1.300883293	-0.0143528	0.021934512	-0.036239629	-0.643554688	0.316894531	-0.729003906	890.98	-71.23304001	-65.91426084	75.05768871	-75
10885	0	0.355957031	-0.158325195	0.050964355	0.999999046	-0.000156403	0.000340462	-0.000743866	8.898925781	-3.958129883	1.274108887	-0.00782013	0.017023089	-0.037193303	-0.640869141	0.316894531	-0.737548828	890.88	-71.09051178	-65.98392366	74.87803909	-75
10886	0	0.350351334	-0.152571678	0.050848961	0.999999046	0.000209808	0.000205994	-0.000778198	8.75878334	-3.814291954	1.271224022	0.010490419	0.010299684	-0.038909917	-0.645751953	0.316894531	-0.731689453	890.88	-70.93525275	-66.0619653	74.73137974	-75
10887	0	0.346252441	-0.14666748	0.051391602	0.999999046	-0.000164032	0.000340462	-0.000907898	8.656311035	-3.666687012	1.284790039	-0.0082016	0.017023089	-0.045394905	-0.643310547	0.314697266	-0.728759766	890.9	-70.77803066	-66.14881059	74.5360632	-76
10888	0	0.34446907	-0.146853447	0.053285599	0.999997139	-0.001854897	0.000902176	-0.001206398	8.611726761	-3.671336174	1.332139969	-0.092744916	0.045108838	-0.060319958	-0.645751953	0.314941406	-0.731445313	890.98	-70.64985099	-66.24636043	74.16533995	-79
10889	0	0.352172852	-0.157409668	0.054931641	0.999994278	-0.001742363	0.001178741	-0.002296448	8.804321289	-3.935241699	1.373291016	-0.08711829	0.058937168	-0.114822573	-0.643310547	0.314697266	-0.734375	890.88	-70.3422476	-66.45000023	73.61118305	-82
10890	0	0.356934547	-0.159864426	0.053380966	0.999993324	-0.001468658	0.001235962	-0.002925873	8.923363686	-3.996610641	1.334524155	-0.073433072	0.061798222	-0.146293939	-0.645507813	0.312744141	-0.731445313	890.98	-69.92435074	-66.71729586	72.97399831	-80
10891	0	0.360046387	-0.165588379	0.053344727	0.999991417	-0.002311707	0.001389503	-0.002929688	9.001159668	-4.139709473	1.333618164	-0.115585633	0.069475358	-0.146484762	-0.643310547	0.3125	-0.731445313	890.94	-69.55337358	-66.97634231	72.28185622	-76
10892	0	0.361249924	-0.167816162	0.054603577	0.999993324	-0.001980782	0.001522064	-0.00258255	9.031248093	-4.195404053	1.365089417	-0.099039291	0.076103374	-0.12912778	-0.643066406	0.3125	-0.737060547	890.94	-69.1336171	-67.18995182	71.57889666	-73
10893	0	0.356323242	-0.16394043	0.055419922	0.999995232	-0.00189209	0.00111866	-0.001838684	8.908081055	-4.098510742	1.385498047	-0.094604622	0.055933075	-0.09193433	-0.645507813	0.314697266	-0.734375	890.94	-68.87181125	-67.33795249	71.05733337	-72
10894	0	0.351408005	-0.15779686	0.056520462	0.999995232	-0.002466202	0.001476288	-0.000961304	8.785200119	-3.944921494	1.413011551	-0.123310278	0.073814505	-0.048065259	-0.645507813	0.312744141	-0.731445313	890.94	-68.66854185	-67.37576536	70.53787276	-74
10895	0	0.347900391	-0.154724121	0.055664063	0.999995232	-0.002578735	0.001473427	-0.000469208	8.697509766	-3.868103027	1.391601563	-0.128936962	0.073671452	-0.023460424	-0.640869141	0.316894531	-0.737548828	890.94	-68.52842233	-67.35985048	70.06938499	-80
10896	0	0.353759766	-0.1484375	0.056152344	0.999995232	-0.00259304	0.001483917	-0.000747681	8.843994141	-3.7109375	1.403808594	-0.129652228	0.074195979	-0.037384092	-0.641113281	0.318847656	-0.740722656	890.96	-68.35966658	-67.37236412	69.57184588	-74
10897	0	0.357971191	-0.147066116	0.056410789	0.999988556	-0.004015923	0.002023697	-0.001355171	8.949279785	-3.676652908	1.410269737	-0.200796866	0.101185217	-0.067758809	-0.638916016	0.321044922	-0.732421875	890.94	-68.15351924	-67.42581387	68.8597858	-79
10898	0	0.361603737	-0.152578354	0.057793617	0.999988556	-0.003472328	0.002041817	-0.002310753	9.040093422	-3.814458847	1.444840431	-0.173617033	0.102091203	-0.115538059	-0.63671875	0.327636719	-0.738769531	890.9	-67.77775517	-67.57818371	68.02342211	-74
10899	0	0.358642578	-0.149353027	0.062438965	0.999992371	-0.001723289	0.001502991	-0.003108978	8.966064453	-3.733825684	1.560974121	-0.086164688	0.075149723	-0.155449299	-0.63671875	0.327636719	-0.735839844	890.88	-67.2444497	-67.83570144	67.23119494	-75
10900	0	0.358816147	-0.144464493	0.060694695	0.999985695	-0.003228188	0.001964569	-0.003717422	8.970403671	-3.61161232	1.517367363	-0.161410134	0.098228915	-0.185871995	-0.63671875	0.327636719	-0.741455078	890.94	-66.67948804	-68.13353782	66.22202655	-84
10901	0	0.351257324	-0.153320313	0.064575195	0.999979973	-0.002925873	0.002514839	-0.004932404	8.781433105	-3.833007813	1.614379883	-0.146294596	0.12574278	-0.24662179	-0.63671875	0.325439453	-0.735595703	890.94	-65.767601	-68.52751321	64.87849809	-79
10902	0	0.347039223	-0.153999329	0.064064026	0.99998188	0.000587463	0.001403809	-0.005820274	8.675980568	-3.849983215	1.601600647	0.029373346	0.070190853	-0.291015473	-0.638916016	0.323242188	-0.743896484	890.88	-64.59335521	-69.05699428	63.67883451	-71
10903	0	0.345092773	-0.148010254	0.065734863	0.999979019	0.001477242	0.001194	-0.00604248	8.627319336	-3.700256348	1.643371582	0.07386257	0.059700411	-0.302126044	-0.640869141	0.316894531	-0.740478516	890.9	-63.28324852	-69.60931806	62.4385247	-70
10904	0	0.33647728	-0.152052879	0.069066048	0.999976158	0.000962257	0.001689911	-0.006544113	8.411931992	-3.801321983	1.726651192	0.048113243	0.084496201	-0.3272082	-0.645019531	0.305908203	-0.7421875	890.94	-61.75116139	-70.17388999	60.90756276	-76
10905	0	0.332092285	-0.149658203	0.074707031	0.999973297	0.001770973	0.00220871	-0.006671906	8.302307129	-3.741455078	1.867675781	0.088549436	0.110436453	-0.333598197	-0.64453125	0.294921875	-0.749755859	890.94	-59.87086552	-70.70456833	59.11046837	-73
10906	0	0.312150955	-0.137857437	0.07456398	0.999972343	-0.001234055	0.003772736	-0.006140709	7.80377388	-3.446435928	1.864099503	-0.061703278	0.188638461	-0.307038182	-0.643798828	0.283935547	-0.757568359	890.94	-57.89048798	-71.06825248	56.86037655	-73
10907	0	0.312011719	-0.137817383	0.073669434	0.999960899	-0.003894806	0.004605293	-0.006454468	7.800292969	-3.44543457	1.84173584	-0.194742828	0.230267659	-0.322727586	-0.643798828	0.283935547	-0.757568359	890.96	-55.84655702	-71.3819698	54.221299	-80
10908	0	0.314321518	-0.116242409	0.094379425	0.999954224	-0.003854752	0.006159782	-0.0061903	7.858037949	-2.906060219	2.359485626	-0.192740507	0.307993798	-0.3095197	-0.643554688	0.27734375	-0.759765625	890.98	-53.34701152	-71.53240685	51.12233151	-73
10909	0	0.279541016	-0.090698242	0.061462402	0.999675751	-0.020598412	0.01360321	-0.006221771	6.988525391	-2.267456055	1.536560059	-1.030031851	0.680234007	-0.311122172	-0.631835938	0.28125	-0.772216797	890.94	-50.77599749	-71.11697264	45.96888181	-84
10910	0	0.292324066	-0.195783615	0.068465233	0.999344826	-0.028610229	0.019031525	-0.011331558	7.308101654	-4.894590378	1.711630821	-1.430823784	0.951783981	-0.566701607	-0.614501953	0.313476563	-0.775878906	890.94	-46.87190619	-70.63522618	38.41319561	-71
10911	0	0.302856445	-0.345947266	0.072753906	0.999639511	-0.011023521	0.024429321	-0.000862122	7.571411133	-8.648681641	1.818847656	-0.551242147	1.221612495	-0.043111247	-0.589599609	0.338623047	-0.784912109	890.96	-42.67943865	-68.68552043	32.61490165	-71
10912	0	0.272896767	-0.231031418	0.12326622	0.999342918	-0.012610435	0.026262283	0.021484375	6.822419167	-5.775785446	3.081655502	-0.630659552	1.3134011	1.074453482	-0.545410156	0.354492188	-0.814208984	890.84	-43.58201754	-64.77127413	32.12244136	-73
10913	0	0.136474609	-0.29284668	0.116455078	0.999106407	-0.020584106	0.028748512	0.023139954	3.411865234	-7.321166992	2.911376953	-1.029511867	1.437853745	1.157342288	-0.485107422	0.417724609	-0.825439453	890.9	-45.21800243	-60.51840743	31.39143674	-71
10914	0	0.021513939	-0.144916534	0.134924889	0.999053001	0.015266418	0.039869308	0.008368492	0.537848473	-3.622913361	3.373122215	0.763561912	1.994094784	0.418556708	-0.418457031	0.456787109	-0.852294922	890.96	-39.65484499	-56.44681083	26.83023386	-69
10915	0	-0.001220703	-0.254394531	0.180541992	0.998986244	-0.012504578	0.042279243	0.008995056	-0.030517578	-6.359863281	4.513549805	-0.625440069	2.11467622	0.449904723	-0.340332031	0.449462891	-0.8984375	890.9	-38.05431412	-51.96616646	23.1299648	-79
10916	0	0.011901855	-0.335205078	0.063110352	0.999101639	0.020835876	0.030976295	0.020027161	0.297546387	-8.380126953	1.577758789	1.042105702	1.549278438	1.001657806	-0.261474609	0.472900391	-0.921875	890.9	-35.41260975	-47.68298906	22.62454838	-75
10917	0	0.155228615	-0.113363266	-0.074978828	0.997507095	0.063565254	0.014692307	0.026845932	3.88071537	-2.83408165	-1.874470711	3.18090506	0.735226072	1.343412561	-0.195556641	0.422363281	-0.975341797	890.96	-29.95372776	-44.5438813	24.69885832	-79
10918	0	0.276355743	0.074864388	-0.302772522	0.999650955	0.013970375	0.003540993	0.022134781	6.908893585	1.871609688	-7.569313049	0.6986	0.17707023	1.106867772	-0.156494141	0.348632813	-1.022705078	890.98	-30.3386774	-42.87850941	27.32802426	-80
10919	0	2.081176758	1.604736328	1.316040039	0.992698669	0.1017313	0.031929016	-0.056396484	52.02941895	40.1184082	32.90100098	5.098980791	1.600347575	-2.826707115	-0.161132813	0.311279297	-1.064941406	890.94	-11.8587991	-41.80770811	16.33297733	-75
10920	0	0.876467705	-1.068296432	0.940587997	0.997450829	-0.016415596	0.024347305	-0.065032959	21.91169262	-26.70741081	23.51469994	-0.821477908	1.218400685	-3.254413611	-0.095458984	0.158203125	-1.118408203	890.9	-6.918855159	-40.2732248	5.820291981	-82
10921	0	0.194396973	-0.088317871	0.406616211	0.986104012	0.063877106	-0.023356438	-0.151565552	4.859924316	-2.207946777	10.16540527	3.208731413	-1.173261288	-7.613575188	-0.096435547	0.072998047	-1.128417969	890.94	15.93104653	-41.60409803	-17.81528076	-90
10922	0	0.149940491	0.145827293	0.316371918	0.98925972	0.082085609	-0.047036171	-0.111418724	3.748512268	3.645682335	7.909297943	4.11903716	-2.360264331	-5.590966162	-0.165283203	-0.118652344	-1.123291016	891.06	37.61184688	-40.64256989	-36.35045282	-82
10923	0	0.078430176	0.406555176	0.178833008	0.99553299	0.04206562	-0.044326782	-0.071960449	1.960754395	10.16387939	4.470825195	2.106417933	-2.219644642	-3.603388686	-0.234619141	-0.327392578	-1.0625	890.94	50.32845758	-38.53723683	-48.64550997	-77
10924	0	0.090237617	0.153656006	-0.023518562	0.999830246	0.002790451	-0.00613308	-0.017144203	2.255940437	3.841400146	-0.587964058	0.139530444	-0.306671322	-0.857258646	-0.269042969	-0.413330078	-1.025146484	890.96	52.0591234	-37.42160588	-50.90197312	-79
10925	0	0.254272461	0.445068359	0.021179199	0.999106407	-0.039505005	0.013985634	0.005374908	6.356811523	11.12670898	0.52947998	-1.975838397	0.699489912	0.268825444	-0.260009766	-0.402832031	-1.03515625	890.96	46.34507678	-36.81556752	-48.88741008	-76
10926	0	0.200195313	0.199890137	0.324768066	0.999346733	-0.029529572	0.019767761	-0.006515503	5.004882813	4.997253418	8.11920166	-1.476799952	0.988603197	-0.325846056	-0.228027344	-0.3125	-1.078369141	890.96	42.23713693	-34.64564127	-47.61748823	-75
10927	0	0.20489502	0.171081543	0.113342285	0.99932766	-0.032390594	0.015240669	-0.007843018	5.122375488	4.277038574	2.833557129	-1.619892432	0.762204127	-0.392238705	-0.183349609	-0.259765625	-1.096435547	891.02	38.26212732	-32.70887841	-47.10490123	-73
10928	0	0.260685921	0.26268959	0.414304733	0.999731064	-0.017522812	0.013834953	-0.006169319	6.517148018	6.567239761	10.35761833	-0.876218957	0.691809536	-0.308493547	-0.1484375	-0.191162109	-1.118164063	890.88	36.0375627	-30.99366454	-46.66035953	-73
10929	0	0.223083496	0.168395996	0.25579834	0.999951363	-0.004276276	0.008519173	-0.00245285	5.577087402	4.209899902	6.394958496	-0.213817234	0.425965511	-0.122644497	-0.116699219	-0.166259766	-1.125	890.94	35.37288455	-30.01469064	-46.28123475	-73
10930	0	0.153128624	0.262353897	0.296112061	0.999987602	-0.002134323	0.004161835	0.001086235	3.828215599	6.558847427	7.402801514	-0.106716566	0.208092535	0.054311961	-0.102783203	-0.157958984	-1.132080078	890.96	34.94067242	-29.67158757	-45.86462758	-73
10931	0	0.143859863	0.230529785	0.255249023	0.999932289	-0.009399414	0.003308296	0.005882263	3.596496582	5.763244629	6.381225586	-0.469981192	0.165418502	0.294119723	-0.096191406	-0.149414063	-1.133056641	891.02	33.45442939	-29.71059876	-44.99470444	-72
10932	0	0.18118	0.231864929	0.260257721	0.99982357	-0.013648033	0.006706238	0.010959625	4.529500008	5.79662323	6.506443024	-0.682441624	0.335331528	0.548013357	-0.087890625	-0.125732422	-1.135498047	890.96	31.08320985	-29.70558423	-43.31833174	-74
10933	0	0.159118652	0.191162109	0.305053711	0.999673843	-0.021029472	0.004570007	0.013736725	3.977966309	4.779052734	7.626342773	-1.05158788	0.228525197	0.68691088	-0.072998047	-0.086914063	-1.142333984	890.96	27.77176396	-29.99664298	-41.45931388	-77
10934	0	0.192694664	0.1693964	0.377731323	0.999810219	-0.010824203	-0.000312805	0.016156197	4.8173666	4.234910011	9.443283081	-0.541244302	-0.015641245	0.807860769	-0.065673828	-0.041503906	-1.137939453	890.96	25.60153131	-30.83355344	-39.5799726	-76
10935	0	0.184265137	0.140808105	0.32244873	0.999783516	-0.009685516	-0.003386497	0.018051147	4.606628418	3.520202637	8.061218262	-0.484310622	-0.169337044	0.902622238	-0.069091797	-0.017333984	-1.139648438	890.94	23.47171631	-32.0195228	-37.58392583	-75
10936	0	0.227168083	0.133482933	0.305283546	0.999864578	-0.002813339	-0.005160332	0.015311241	5.67920208	3.337073326	7.632088661	-0.140673268	-0.258028155	0.765596382	-0.077148438	0.004882813	-1.132568359	890.94	22.29399177	-33.22276032	-35.96009629	-75
10937	0	0.27520752	0.075622559	0.276184082	0.999949455	-0.001235962	-0.002276421	0.009632111	6.880187988	1.890563965	6.904602051	-0.06179912	-0.113822917	0.481613516	-0.086669922	0.01171875	-1.135498047	890.9	21.56828044	-33.85800142	-34.87019879	-76
10938	0	0.234478951	0.101458549	0.225818634	0.999979019	0.006058693	-0.001631737	-0.001046181	5.861973763	2.536463737	5.645465851	0.30293669	-0.081587388	-0.052309389	-0.086669922	0.01171875	-1.135498047	890.94	22.4145877	-33.97089855	-35.11074514	-79
10939	0	0.24810791	0.150024414	0.268859863	0.999915123	0.007637024	0.00124073	-0.010448456	6.202697754	3.750610352	6.721496582	0.381861955	0.062038262	-0.522437509	-0.090576172	-0.003417969	-1.13671875	891.02	24.01656717	-33.3542552	-36.38791001	-79
10940	0	0.263987541	0.0773592	0.27023983	0.999837875	0.004966736	0.007019997	-0.015767097	6.59968853	1.933979988	6.75599575	0.248350144	0.351018704	-0.78839726	-0.087402344	-0.025390625	-1.135253906	891	25.44759868	-31.8564657	-37.95554778	-80
10941	0	0.23828125	0.10534668	0.297241211	0.999706268	-0.002463341	0.015403748	-0.018508911	5.95703125	2.633666992	7.431030273	-0.123179069	0.77026261	-0.925535954	-0.063720703	-0.037109375	-1.132568359	890.94	25.867619	-29.33694211	-39.30442424	-79
10942	0	0.162940979	0.167615891	0.34587574	0.999643326	-0.001021385	0.016755104	-0.020766258	4.073524475	4.190397263	8.646893501	-0.05107533	0.83785479	-1.03843634	-0.026123047	-0.034179688	-1.143554688	890.96	26.45672059	-26.55141869	-40.77813357	-77
10943	0	0.136474609	0.150390625	0.384643555	0.999843597	0.006184578	0.009662628	-0.013450623	3.411865234	3.759765625	9.616088867	0.309245007	0.483156578	-0.672566164	0.008544922	-0.032958984	-1.139648438	891.02	27.60270622	-24.8485241	-41.75542341	-75
10944	0	0.143456459	0.215816498	0.326135635	0.999956131	0.007287979	0.001791954	-0.005493164	3.586411476	5.395412445	8.153390884	0.36440421	0.089598994	-0.274662163	0.028320313	-0.051269531	-1.147949219	890.9	28.66749871	-24.35287514	-42.27063471	-75
10945	0	0.156188965	0.204467773	0.292175293	0.999995232	-0.002807617	0.000470161	0.000423431	3.904724121	5.111694336	7.304382324	-0.140381053	0.023508104	0.021171599	0.028564453	-0.062011719	-1.138427734	890.94	28.33616219	-24.31096286	-42.20669005	-74
10946	0	0.165802956	0.167778015	0.313785553	0.999980927	-0.004889488	0.0035429	0.001270294	4.145073891	4.194450378	7.844638824	-0.244475962	0.177146128	0.063515113	0.032958984	-0.051269531	-1.145263672	891.06	27.65337481	-24.0037068	-41.86858451	-74
10947	0	0.16595459	0.178039551	0.323547363	0.999990463	-0.002020836	0.003700256	0.001033783	4.148864746	4.45098877	8.088684082	-0.101042111	0.185013398	0.05168931	0.041748047	-0.04296875	-1.143554688	890.94	27.30940389	-23.66558672	-41.55162259	-74
10948	0	0.148816109	0.172555923	0.344522476	0.999975204	-0.005775452	0.0034132	0.001739502	3.720402718	4.313898087	8.613061905	-0.288774895	0.170661385	0.086975794	0.048583984	-0.036621094	-1.141601563	890.96	26.51275784	-23.38988787	-41.17581607	-74
10949	0	0.163146973	0.149841309	0.315551758	0.999990463	-0.000716209	0.004241943	2.29E-05	4.078674316	3.746032715	7.888793945	-0.035810581	0.212097822	0.001144413	0.054931641	-0.023681641	-1.140136719	891.06	26.35578715	-22.93960356	-40.94948392	-74
10950	0	0.175718307	0.169610023	0.340064049	0.999949455	-0.002019882	0.009708405	-0.001375198	4.392957687	4.240250587	8.501601219	-0.100995797	0.485428336	-0.068761067	0.066650391	-0.024169922	-1.137939453	890.96	25.99842937	-21.8565425	-40.58258565	-74
10951	0	0.034729004	0.178771973	0.337890625	0.998962402	-0.014178276	0.032859802	-0.028133392	0.868225098	4.469299316	8.447265625	-0.709158876	1.643558097	-1.407155905	0.1015625	-0.020751953	-1.137207031	891.02	24.84766022	-17.04933807	-41.966072	-73
10952	0	0.149065971	0.14839077	0.267699242	0.998717308	-0.032731056	0.025335312	-0.029141426	3.726649284	3.709769249	6.692481041	-1.637252541	1.267307217	-1.457694295	0.175537109	0.046386719	-1.132568359	890.9	21.62807603	-13.04469349	-43.96432318	-74
10953	0	0.182189941	0.140686035	0.393249512	0.999789238	-0.00573349	0.019593239	-0.001811981	4.554748535	3.517150879	9.831237793	-0.286694573	0.979730539	-0.090605404	0.226318359	0.108154297	-1.117675781	890.96	20.855088	-10.86306806	-43.33884022	-73
10954	0	0.040850639	0.168623924	0.385885239	0.999950409	-0.000210762	0.009842873	0.000917435	1.021265984	4.215598106	9.647130966	-0.010538273	0.492151651	0.045872482	0.268066406	0.111083984	-1.108642578	890.96	20.75573698	-9.8308609	-42.83807345	-73
10955	0	0.051391602	0.132995605	0.390686035	0.99998188	-0.005512238	-0.001654625	-0.001502991	1.284790039	3.324890137	9.767150879	-0.275613503	-0.082731735	-0.075149979	0.279296875	0.119628906	-1.104248047	890.94	20.17838326	-9.9323877	-43.07448281	-73
10956	0	0.095472336	0.150050163	0.345291138	0.999995232	-0.003022194	5.15E-05	-0.000544548	2.386808395	3.751254082	8.632278442	-0.151109933	0.002574925	-0.027227445	0.276855469	0.126220703	-1.107666016	890.94	19.85725336	-9.891332493	-43.13813594	-73
10957	0	0.099365234	0.12890625	0.35534668	0.999980927	-0.005946159	-0.001144409	-0.000801086	2.484130859	3.22265625	8.883666992	-0.297309817	-0.057220815	-0.04005457	0.273925781	0.137207031	-1.102539063	891	19.21353284	-9.971966863	-43.27668239	-74
10958	0	0.06532383	0.126558304	0.391519547	0.999996185	-0.002263069	0.001049995	-0.000563622	1.633095741	3.163957596	9.787988663	-0.113153581	0.052499828	-0.028181107	0.2734375	0.148193359	-1.103515625	890.9	18.97187971	-9.824684921	-43.3053004	-74
10959	0	0.06072998	0.127319336	0.373779297	0.999998093	-3.34E-05	-0.001441956	0.000492096	1.518249512	3.182983398	9.344482422	-0.001668931	-0.072097806	0.024604807	0.275634766	0.150146484	-1.100830078	890.9	18.98152813	-9.986603353	-43.31195564	-74
10960	0	0.070893288	0.131374359	0.368213654	0.999998093	0.000400543	-0.001736641	0.000700951	1.772332191	3.284358978	9.205341339	0.020027173	-0.0868321	0.035047553	0.270996094	0.150390625	-1.103515625	890.84	19.03867876	-10.18851632	-43.3070653	-74
10961	0	0.075805664	0.132141113	0.366333008	0.999998093	-0.000662804	-0.001304626	0.000621796	1.895141602	3.303527832	9.158325195	-0.033140196	-0.065231351	0.031089796	0.268798828	0.150390625	-1.106201172	891	18.97245432	-10.34112707	-43.29439454	-74
10962	0	0.07675457	0.130454063	0.371739388	0.999999046	-0.000692368	-0.000835419	0.000217438	1.91886425	3.261351585	9.293484688	-0.034618385	-0.041770944	0.010871889	0.266357422	0.152832031	-1.106445313	891.02	18.90732992	-10.42821991	-43.30840848	-74
10963	0	0.073181152	0.125976563	0.372924805	0.999999046	-8.39E-05	-0.000884056	0.000171661	1.829528809	3.149414063	9.323120117	-0.004196168	-0.044202811	0.00858307	0.266357422	0.152587891	-1.109130859	891.06	18.91269756	-10.51906267	-43.32907988	-73
10964	0	0.077845573	0.126619339	0.369695663	0.999998093	0.001070023	-0.000962257	3.62E-05	1.946139336	3.165483475	9.242391586	0.053501148	-0.048112886	0.001811982	0.263916016	0.152832031	-1.106201172	890.96	19.0532362	-10.61370205	-43.36785564	-73
10965	0	0.077453613	0.133483887	0.367980957	0.999999046	0.000957489	-0.000308037	3.43E-05	1.936340332	3.337097168	9.199523926	0.047874459	-0.015401843	0.001716614	0.26171875	0.150634766	-1.105957031	891.02	19.17632306	-10.63767942	-43.38211375	-73
10966	0	0.075982094	0.133637428	0.369631767	0.999999046	0.000171661	-0.000144958	0.000244141	1.899552345	3.340935707	9.240794182	0.008583069	-0.007247925	0.012207031	0.26171875	0.1484375	-1.102783203	890.94	19.20381732	-10.65212162	-43.36688507	-74
10967	0	0.076782227	0.1328125	0.368225098	0.999999046	-0.000305176	-0.000487328	0.000286102	1.919555664	3.3203125	9.205627441	-0.01525879	-0.02436638	0.014305116	0.259521484	0.148681641	-1.108398438	891	19.17808226	-10.70546993	-43.36024046	-73
10968	0	0.079230309	0.128268242	0.369690895	0.999999046	-0.00017643	-0.000217438	0.000114441	1.980757713	3.206706047	9.242272377	-0.008821488	-0.010871887	0.005722046	0.26171875	0.150634766	-1.103027344	890.96	19.16829641	-10.72351037	-43.36198415	-73
10969	0	0.076477051	0.131713867	0.369628906	0.999999046	0.000259399	-0.000128746	0.000133514	1.91192627	3.29284668	9.240722656	0.012969971	-0.006437302	0.00667572	0.26171875	0.148681641	-1.103027344	890.96	19.20722511	-10.73287382	-43.35816578	-74
10970	0	0.077644348	0.129565239	0.369602203	0.999999046	0.000574112	-0.000295639	-3.91E-05	1.941108704	3.239130974	9.240055084	0.028705599	-0.014781953	-0.001955032	0.259521484	0.148681641	-1.103027344	890.96	19.28663935	-10.75403603	-43.37989046	-74
10971	0	0.078125	0.133972168	0.367980957	0.999999046	0.000190735	-0.000193596	6.87E-05	1.953125	3.349304199	9.199523926	0.009536743	-0.009679794	0.003433228	0.259521484	0.148681641	-1.105957031	890.96	19.31908756	-10.76849358	-43.38580053	-75
10972	0	0.077187538	0.131599426	0.368876457	0.999999046	-0.000121117	-8.39E-05	4.58E-05	1.929688454	3.289985657	9.22191143	-0.006055832	-0.004196167	0.002288818	0.259521484	0.148681641	-1.105957031	890.96	19.31524663	-10.77043171	-43.38991521	-75
10973	0	0.077453613	0.132080078	0.369506836	0.999999046	-8.77E-05	-0.00014019	0.000160217	1.936340332	3.302001953	9.237670898	-0.004386902	-0.007009506	0.008010864	0.261962891	0.1484375	-1.111572266	891.02	19.31306663	-10.78300253	-43.38346548	-75
10974	0	0.077172279	0.131257057	0.370301247	0.999999046	-0.000234604	-0.000335693	9.54E-05	1.929306984	3.28142643	9.257531166	-0.011730194	-0.016784668	0.004768372	0.261962891	0.146484375	-1.103027344	891.02	19.29654261	-10.81443974	-43.39151839	-75
10975	0	0.07824707	0.130310059	0.368530273	0.999999046	0.000301361	-0.000308037	0.000152588	1.956176758	3.257751465	9.213256836	0.015068055	-0.015401841	0.007629395	0.259521484	0.148681641	-1.105957031	890.9	19.33979281	-10.84529136	-43.39251125	-75
10976	0	0.078637123	0.134291649	0.368217468	0.999999046	-0.00014782	-0.000183105	0.000179291	1.965928078	3.357291222	9.205436707	-0.007390976	-0.009155274	0.008964539	0.259521484	0.148681641	-1.108642578	890.8	19.33003719	-10.8638799	-43.38566128	-74
10977	0	0.078796387	0.130554199	0.371154785	0.999999046	-0.000476837	-0.000144005	0.00025177	1.969909668	3.26385498	9.278869629	-0.023841859	-0.007200241	0.012588502	0.259521484	0.148681641	-1.103027344	890.96	19.28048398	-10.88119426	-43.36914487	-75
10978	0	0.078907013	0.130711555	0.368448257	0.999999046	-3.62E-05	-9.35E-05	0.000121117	1.972675323	3.267788887	9.211206436	-0.001811981	-0.004673004	0.006055832	0.257080078	0.150878906	-1.105957031	890.96	19.28354363	-10.88832144	-43.36529248	-74
10979	0	0.079650879	0.131469727	0.368591309	0.999999046	-0.000247955	-0.000136375	1.14E-05	1.991271973	3.286743164	9.214782715	-0.012397766	-0.006818771	0.000572205	0.257080078	0.148681641	-1.108642578	891	19.26475464	-10.89619508	-43.37490554	-74
10980	0	0.078167915	0.131772041	0.370100021	0.999999046	-0.000208855	-9.73E-05	0.000171661	1.954197884	3.294301033	9.252500534	-0.010442734	-0.004863739	0.008583069	0.254882813	0.148681641	-1.111328125	890.96	19.24664391	-10.90605161	-43.36543898	-74
10981	0	0.078918457	0.130615234	0.36932373	0.999999046	-0.000293732	-0.000144005	0.000144958	1.972961426	3.265380859	9.233093262	-0.014686585	-0.007200241	0.007247925	0.257080078	0.148681641	-1.105712891	891	19.21948808	-10.92014924	-43.36043733	-74
10982	0	0.078208923	0.130313873	0.370353699	0.999999046	-0.000141144	-0.000127792	0.000208855	1.955223083	3.257846832	9.258842468	-0.00705719	-0.006389618	0.010442734	0.259521484	0.148681641	-1.111572266	890.96	19.20813262	-10.93504337	-43.34769969	-74
10983	0	0.078735352	0.130432129	0.369812012	0.999999046	-0.000110626	-0.000159264	0.000133514	1.968383789	3.260803223	9.245300293	-0.005531311	-0.007963181	0.00667572	0.257080078	0.150878906	-1.105957031	891.02	19.20187174	-10.95066646	-43.34468446	-75
10984	0	0.079376221	0.130512238	0.368227959	0.999999046	-0.000214577	-0.000205994	0.000164032	1.984405518	3.262805939	9.205698967	-0.010728836	-0.010299683	0.008201599	0.257080078	0.150878906	-1.105957031	891	19.18323232	-10.97269655	-43.33998262	-75
10985	0	0.079528809	0.129638672	0.371154785	0.999999046	0.000102997	-0.000178337	4.20E-05	1.988220215	3.240966797	9.278869629	0.005149841	-0.008916855	0.002098084	0.257080078	0.150878906	-1.105957031	890.94	19.20309598	-10.98730527	-43.34762382	-75
10986	0	0.079000473	0.13117218	0.368351936	0.999999046	0.000282288	-0.000104904	7.53E-05	1.975011826	3.279304504	9.208798409	0.01411438	-0.005245209	0.003767014	0.256835938	0.153076172	-1.103271484	890.9	19.24214323	-10.99537963	-43.34889186	-75
10987	0	0.079345703	0.131958008	0.369995117	0.999999046	-0.000247955	-0.000105858	0.000141144	1.983642578	3.298950195	9.24987793	-0.012397766	-0.005292893	0.00705719	0.254638672	0.150878906	-1.105712891	891	19.21892725	-11.00618975	-43.34284767	-75
10988	0	0.079155922	0.129920006	0.370469093	0.999999046	-0.000340462	-0.00030899	0.000155449	1.978898048	3.248000145	9.261727333	-0.017023087	-0.015449525	0.007772446	0.254638672	0.150878906	-1.105712891	890.94	19.18607578	-11.03965084	-43.342875	-76
10989	0	0.079223633	0.129516602	0.369934082	0.999999046	0.000148773	-0.000212669	0.000167847	1.98059082	3.237915039	9.248352051	0.00743866	-0.010633469	0.008392334	0.254638672	0.150878906	-1.105712891	890.94	19.20810067	-11.06328255	-43.33781553	-76
10990	0	0.080340385	0.131124496	0.368029594	0.999999046	-0.000154495	-0.000297546	0.000137329	2.008509636	3.278112411	9.200739861	-0.007724762	-0.01487732	0.006866455	0.256835938	0.153076172	-1.103271484	890.96	19.19653907	-11.09513407	-43.33928813	-76
10991	0	0.078796387	0.129516602	0.369506836	0.999999046	-0.000137329	-0.000144005	0.000198364	1.969909668	3.237915039	9.237670898	-0.006866455	-0.007200241	0.009918213	0.254638672	0.150878906	-1.105712891	891	19.18431042	-11.11275019	-43.32813203	-75
10992	0	0.080480576	0.129993439	0.369457245	0.999999046	-0.000237465	-0.00025177	0.000197411	2.012014389	3.249835968	9.236431122	-0.011873246	-0.012588501	0.009870529	0.254638672	0.153076172	-1.105957031	890.88	19.16125079	-11.14214856	-43.32129627	-76
10993	0	0.080383301	0.129089355	0.36895752	0.999999046	-0.000190735	-0.000189781	0.000156403	2.00958252	3.227233887	9.223937988	-0.009536743	-0.00948906	0.00782013	0.254882813	0.150878906	-1.111572266	890.94	19.14376504	-11.16343759	-43.31636985	-75
10994	0	0.079831123	0.129228592	0.369036674	0.999999046	3.81E-06	-6.29E-05	7.15E-05	1.995778084	3.230714798	9.225916862	0.000190735	-0.003147125	0.003576279	0.256835938	0.153076172	-1.103271484	891	19.14926956	-11.16791012	-43.31590027	-75
10995	0	0.079528809	0.130432129	0.369567871	0.999999046	-0.00012207	-0.00039196	0.000133514	1.988220215	3.260803223	9.239196777	-0.006103516	-0.019598008	0.00667572	0.256835938	0.153076172	-1.103271484	891	19.14134541	-11.21040549	-43.32115251	-75
10996	0	0.080463409	0.128427505	0.369962692	0.999999046	-0.000214577	-0.000297546	9.54E-05	2.011585236	3.210687637	9.249067307	-0.010728836	-0.01487732	0.004768372	0.256835938	0.155273438	-1.109130859	890.96	19.12271754	-11.24135499	-43.32716593	-75
10997	0	0.07989502	0.130859375	0.36907959	0.999999046	-0.0001297	-0.000315666	0.000293732	1.997375488	3.271484375	9.226989746	-0.006484986	-0.01578331	0.014686585	0.252441406	0.151123047	-1.108398438	890.92	19.10960299	-11.28177944	-43.31190317	-75
10998	0	0.080993652	0.127929688	0.36920166	0.999999046	-9.16E-05	-0.000301361	0.000278473	2.024841309	3.198242188	9.230041504	-0.004577637	-0.015068055	0.013923645	0.254638672	0.153076172	-1.105957031	890.9	19.1008569	-11.32019514	-43.2976341	-75
10999	0	0.081420898	0.129577637	0.369628906	0.999999046	-0.000171661	-0.000189781	9.92E-05	2.035522461	3.239440918	9.240722656	-0.008583069	-0.00948906	0.004959107	0.254638672	0.153076172	-1.105957031	890.92	19.08584327	-11.33991452	-43.2988485	-75
11000	0	0.081403732	0.128641129	0.369275093	0.999999046	-1.81E-05	-1.34E-05	0.000167847	2.035093307	3.216028214	9.231877327	-0.000905991	-0.000667572	0.008392334	0.252197266	0.157470703	-1.111816406	890.96	19.08544396	-11.34320561	-43.2863972	-75
11001	0	0.080444336	0.129211426	0.36920166	0.999999046	-0.000110626	-7.15E-05	0.000133514	2.011108398	3.230285645	9.230041504	-0.005531311	-0.003576279	0.00667572	0.252197266	0.155517578	-1.108886719	890.94	19.07549813	-11.35156267	-43.27950994	-75
11002	0	0.080103874	0.128069878	0.369523048	0.999999046	0.000146866	-0.000181198	7.92E-05	2.002596855	3.201746941	9.23807621	0.007343292	-0.009059906	0.003957748	0.254638672	0.155273438	-1.106201172	890.96	19.0968832	-11.36979154	-43.28246873	-75
11003	0	0.081665039	0.129394531	0.369140625	0.999999046	-0.000209808	-8.68E-05	0.000106812	2.041625977	3.234863281	9.228515625	-0.010490418	-0.004339218	0.005340576	0.254638672	0.155273438	-1.108886719	891	19.07596895	-11.37893357	-43.27878403	-75
11004	0	0.080657959	0.128489494	0.369240761	0.999999046	-0.000144005	-5.53E-05	0.00012207	2.016448975	3.212237358	9.23101902	-0.007200241	-0.002765656	0.006103516	0.254638672	0.155273438	-1.106201172	890.96	19.06187479	-11.38528435	-43.27216687	-75
11005	0	0.080749512	0.127746582	0.369140625	0.999999046	-0.000198364	-2.19E-05	0.0001297	2.018737793	3.193664551	9.228515625	-0.009918213	-0.001096725	0.006484985	0.252197266	0.155517578	-1.105957031	891	19.04095696	-11.38835462	-43.26367131	-74
11006	0	0.079517365	0.127761841	0.370285988	0.999999046	1.34E-05	-5.15E-05	8.30E-05	1.987934113	3.194046021	9.257149696	0.000667572	-0.002574921	0.004148483	0.252197266	0.155517578	-1.105957031	890.96	19.04535994	-11.39285523	-43.26139964	-74
11007	0	0.082702637	0.127563477	0.370544434	0.999999046	-0.000225067	-5.25E-05	0.000118256	2.067565918	3.189086914	9.26361084	-0.011253357	-0.002622604	0.005912781	0.252197266	0.155517578	-1.103271484	891.02	19.02148546	-11.39891044	-43.25511832	-74
11008	0	0.080452919	0.128293037	0.370165825	1	-5.53E-05	-1.81E-05	-2.00E-05	2.011322975	3.207325935	9.254145622	-0.002765656	-0.000905991	-0.001001358	0.254638672	0.155273438	-1.106201172	890.96	19.01968796	-11.39609598	-43.26252393	-74
11009	0	0.080749512	0.127929688	0.369995117	0.999999046	-2.67E-05	-0.000136375	0.000133514	2.018737793	3.198242188	9.24987793	-0.001335144	-0.006818771	0.00667572	0.252197266	0.155517578	-1.103271484	891.06	19.01855764	-11.41186039	-43.25775537	-74
11010	0	0.080335617	0.127948761	0.369064331	0.999999046	-9.54E-05	-6.10E-05	0.000125885	2.008390427	3.198719025	9.226608276	-0.004768372	-0.003051758	0.006294251	0.256835938	0.155273438	-1.106201172	890.86	19.00903051	-11.41919364	-43.25037333	-74
11011	0	0.080627441	0.127990723	0.371704102	0.999999046	-0.000270844	-7.92E-05	0.000144958	2.015686035	3.199768066	9.292602539	-0.013542176	-0.003957748	0.007247925	0.254394531	0.157470703	-1.103515625	891	18.97894959	-11.42920085	-43.24212673	-73
11012	0	0.080966949	0.126362801	0.370233536	0.999999046	-4.67E-05	-8.58E-05	0.000124931	2.024173737	3.159070015	9.255838394	-0.002336502	-0.004291534	0.006246567	0.254394531	0.157470703	-1.103515625	890.96	18.97483471	-11.43921751	-43.23627858	-73
11013	0	0.08190918	0.127319336	0.369689941	0.999999046	-6.48E-05	-4.86E-05	5.72E-05	2.047729492	3.182983398	9.242248535	-0.003242493	-0.00243187	0.002861023	0.251953125	0.159912109	-1.106445313	890.9	18.96970665	-11.4427593	-43.23713145	-73
11014	0	0.080739021	0.126894951	0.3695755	0.999999046	-3.81E-06	-4.01E-05	0.000163078	2.018475533	3.172373772	9.239387512	-0.000190735	-0.002002716	0.008153915	0.251953125	0.159912109	-1.103515625	890.96	18.96903243	-11.44933458	-43.22573112	-72
11015	0	0.081420898	0.127075195	0.370727539	0.999999046	-5.72E-05	-0.000239372	0.000263214	2.035522461	3.176879883	9.268188477	-0.002861023	-0.011968613	0.013160706	0.251953125	0.159667969	-1.109130859	891	18.96137905	-11.48127906	-43.21069477	-73
11016	0	0.081786156	0.12729454	0.367895126	1	3.24E-05	-5.05E-05	2.19E-05	2.044653893	3.18236351	9.197378159	0.001621246	-0.002527237	0.001096725	0.252197266	0.157470703	-1.111816406	890.96	18.96778323	-11.48384733	-43.21476406	-73
11017	0	0.080505371	0.127746582	0.370422363	0.999999046	-0.00019455	-0.000102043	6.10E-05	2.012634277	3.193664551	9.260559082	-0.009727478	-0.005102158	0.003051758	0.254394531	0.157470703	-1.109130859	890.96	18.94759384	-11.49343217	-43.21601825	-72
11018	0	0.082061768	0.126554489	0.370820045	0.999999046	-4.58E-05	-8.96E-05	0.000136375	2.051544189	3.163862228	9.270501137	-0.002288818	-0.004482269	0.006818771	0.254394531	0.159667969	-1.106445313	891	18.94252793	-11.50453031	-43.20878261	-73
11019	0	0.080932617	0.126647949	0.370117188	0.999999046	1.91E-05	-0.00014019	-4.20E-05	2.02331543	3.16619873	9.252929688	0.000953674	-0.007009506	-0.002098084	0.254394531	0.157470703	-1.106201172	891.06	18.94906518	-11.51447071	-43.22284186	-73
11020	0	0.080171585	0.127522469	0.370394707	0.999999046	-0.000113487	-3.24E-05	0.000133514	2.004289627	3.188061714	9.259867668	-0.005674362	-0.001621246	0.00667572	0.251953125	0.159912109	-1.106445313	890.84	18.93561461	-11.5192095	-43.21415695	-73
11021	0	0.081787109	0.126037598	0.371337891	0.999999046	-2.29E-05	-3.34E-05	0.000125885	2.044677734	3.150939941	9.283447266	-0.001144409	-0.00166893	0.006294251	0.254150391	0.161865234	-1.106689453	891	18.93253283	-11.52379496	-43.20619656	-74
11022	0	0.081050873	0.127037048	0.370056152	0.999999046	-1.34E-05	-7.06E-05	0.000124931	2.02627182	3.175926208	9.251403809	-0.000667572	-0.003528595	0.006246567	0.254394531	0.159667969	-1.106445313	890.96	18.93073555	-11.53237507	-43.19930803	-74
11023	0	0.080627441	0.126281738	0.369384766	0.999999046	5.34E-05	3.53E-05	4.20E-05	2.015686035	3.157043457	9.234619141	0.002670288	0.001764297	0.002098083	0.251953125	0.159912109	-1.103515625	890.9	18.93748575	-11.52637865	-43.19800333	-75
11024	0	0.080978394	0.128267288	0.369071007	0.999999046	-8.87E-05	-3.43E-05	0.000227928	2.024459839	3.206682205	9.226775169	-0.004434586	-0.001716614	0.011396408	0.254394531	0.159667969	-1.109375	890.92	18.92433971	-11.53484229	-43.17838521	-75
11025	0	0.081542969	0.12512207	0.371582031	0.999999046	-8.77E-05	-0.000105858	0.000190735	2.038574219	3.128051758	9.289550781	-0.004386902	-0.005292893	0.009536743	0.251953125	0.159667969	-1.109130859	890.92	18.9124427	-11.54968421	-43.16593469	-76
11026	0	0.081852913	0.126795769	0.370365143	0.999999046	-6.29E-05	-6.48E-05	7.15E-05	2.046322823	3.169894218	9.259128571	-0.003147125	-0.003242493	0.003576279	0.251953125	0.159912109	-1.106445313	890.92	18.90560683	-11.55567887	-43.16499946	-75
11027	0	0.080383301	0.126342773	0.370239258	0.999999046	-0.00012207	-0.00014019	0.000110626	2.00958252	3.158569336	9.255981445	-0.006103516	-0.007009506	0.005531311	0.249511719	0.162109375	-1.103515625	890.86	18.8915764	-11.57124464	-43.16318592	-75
11028	0	0.081857681	0.126111984	0.368904114	0.999999046	1.24E-05	-0.000162125	0.000136375	2.046442032	3.152799606	9.222602844	0.000619888	-0.008106232	0.006818771	0.251708984	0.162109375	-1.100830078	890.92	18.89244606	-11.59018086	-43.15871219	-76
11029	0	0.082275391	0.12701416	0.36907959	0.999999046	-7.63E-05	-0.000155449	-2.29E-05	2.056884766	3.175354004	9.226989746	-0.003814697	-0.007772446	-0.001144409	0.254150391	0.161865234	-1.106689453	890.92	18.88658505	-11.60252977	-43.17112168	-76
11030	0	0.081652641	0.125556946	0.370110512	0.999999046	3.43E-05	-5.91E-05	4.86E-05	2.041316032	3.138923645	9.252762794	0.001716614	-0.00295639	0.00243187	0.251953125	0.162109375	-1.103759766	891.02	18.89093129	-11.60709084	-43.17239543	-76
11031	0	0.081970215	0.12689209	0.368652344	0.999999046	-8.01E-05	-0.000132561	0.000179291	2.049255371	3.172302246	9.216308594	-0.004005432	-0.006628037	0.008964539	0.254394531	0.159667969	-1.106445313	890.96	18.87976089	-11.62448839	-43.16102494	-76
11032	0	0.082174301	0.125032425	0.371030807	0.999999046	2.86E-06	-0.000101089	2.96E-05	2.054357529	3.125810623	9.275770187	0.000143051	-0.005054474	0.001478195	0.249511719	0.162109375	-1.103515625	890.98	18.8810151	-11.63293164	-43.16649612	-75
11033	0	0.081420898	0.12713623	0.368164063	0.999999046	-0.000152588	-8.30E-05	3.05E-05	2.035522461	3.178405762	9.204101563	-0.007629395	-0.004148483	0.001525879	0.251953125	0.159912109	-1.106445313	890.92	18.8642768	-11.63944063	-43.17009958	-75
11034	0	0.081551552	0.125247955	0.370812416	0.999999046	-0.000164032	5.91E-05	0.000144958	2.038788795	3.131198883	9.270310402	-0.008201599	0.00295639	0.007247925	0.254150391	0.161865234	-1.103759766	890.9	18.84243377	-11.63475702	-43.15555604	-76
11035	0	0.081542969	0.125732422	0.369689941	0.999999046	-6.48E-05	-0.000144005	0.000202179	2.038574219	3.143310547	9.242248535	-0.003242493	-0.007200241	0.010108948	0.251953125	0.161865234	-1.109375	890.86	18.83212427	-11.65420578	-43.14297134	-76
11036	0	0.082432747	0.126321793	0.369987488	0.999999046	-8.68E-05	-7.25E-05	0.000152588	2.060818672	3.158044815	9.249687195	-0.004339218	-0.003623962	0.007629395	0.251953125	0.1640625	-1.109619141	890.92	18.81979167	-11.66408238	-43.13357643	-76
11037	0	0.081359863	0.125427246	0.369506836	0.999999046	-0.000289917	-1.43E-05	0.0001297	2.033996582	3.135681152	9.237670898	-0.01449585	-0.000715256	0.006484985	0.254150391	0.1640625	-1.106933594	891.02	18.78415163	-11.66677253	-43.12373958	-76
11038	0	0.082196236	0.124213219	0.371528625	0.999999046	-2.48E-05	-4.77E-05	6.77E-05	2.054905891	3.105330467	9.288215637	-0.001239777	-0.002384186	0.003385544	0.251953125	0.162109375	-1.103759766	890.92	18.78035783	-11.67079168	-43.12199656	-76
11039	0	0.081420898	0.12689209	0.369140625	0.999999046	-1.14E-05	-0.000113487	5.72E-05	2.035522461	3.172302246	9.228515625	-0.000572205	-0.005674362	0.002861023	0.251953125	0.1640625	-1.106689453	890.96	18.7788313	-11.68153415	-43.12439969	-75
11040	0	0.083350182	0.125348091	0.368575096	0.999999046	-0.000224113	7.63E-05	0.000114441	2.083754539	3.133702278	9.214377403	-0.011205673	0.003814697	0.005722046	0.251953125	0.1640625	-1.109619141	891.02	18.75014007	-11.67387142	-43.11329339	-76
11041	0	0.081604004	0.12487793	0.370788574	0.999999046	-0.00018692	5.82E-05	0.000144958	2.040100098	3.121948242	9.269714355	-0.009346008	0.002908707	0.007247925	0.251953125	0.1640625	-1.106689453	890.96	18.72505332	-11.66926333	-43.09932264	-75
11042	0	0.081109047	0.125020981	0.36980629	0.999999046	-0.000120163	-7.44E-05	0.00014019	2.027726173	3.125524521	9.245157242	-0.006008148	-0.00371933	0.007009506	0.251708984	0.166259766	-1.106933594	890.9	18.70865131	-11.67881764	-43.0913445	-75
11043	0	0.082458496	0.125610352	0.370178223	0.999999046	-0.0001297	-8.30E-05	0.000114441	2.061462402	3.140258789	9.254455566	-0.006484985	-0.004148483	0.005722046	0.251953125	0.161865234	-1.106445313	890.92	18.6917528	-11.6883738	-43.08522968	-76
11044	0	0.081632614	0.123541832	0.369158745	0.999999046	-0.00026989	3.81E-06	8.77E-05	2.040815353	3.088545799	9.22896862	-0.013494492	0.000190735	0.004386902	0.251708984	0.166259766	-1.104003906	891.02	18.65860259	-11.68751248	-43.07984254	-75
11045	0	0.082214355	0.123474121	0.372253418	0.999999046	-0.000133514	1.62E-05	0.000125885	2.055358887	3.086853027	9.306335449	-0.00667572	0.000810623	0.006294251	0.251708984	0.166503906	-1.101074219	890.92	18.63996453	-11.68668791	-43.06963416	-75
11046	0	0.081176758	0.123474121	0.369873047	0.999999046	9.92E-05	-6.48E-05	8.77E-05	2.029418945	3.086853027	9.246826172	0.004959106	-0.003242493	0.004386902	0.251708984	0.166259766	-1.106933594	890.98	18.64934788	-11.69322569	-43.06678727	-75
11047	0	0.082336426	0.124267578	0.368713379	0.999999046	1.91E-05	-5.25E-05	9.54E-05	2.058410645	3.106689453	9.217834473	0.000953674	-0.002622604	0.004768372	0.251708984	0.166259766	-1.104003906	891.14	18.64922987	-11.69872264	-43.06249375	-75
11048	0	0.080812454	0.124509811	0.370102882	0.999999046	-7.15E-05	1.53E-05	8.77E-05	2.020311356	3.112745285	9.25257206	-0.003576279	0.000762939	0.004386902	0.254150391	0.1640625	-1.104003906	890.96	18.63832426	-11.69652169	-43.05522082	-75
11049	0	0.081665039	0.123535156	0.370910645	0.999999046	-7.25E-05	-6.39E-05	0.000110626	2.041625977	3.088378906	9.272766113	-0.003623962	-0.003194809	0.005531311	0.251708984	0.168457031	-1.107177734	890.98	18.62726929	-11.70372112	-43.05039607	-75
11050	0	0.081618309	0.124195099	0.370429039	0.999999046	-4.77E-05	-9.73E-05	0.000174522	2.040457726	3.104877472	9.260725975	-0.002384186	-0.004863739	0.00872612	0.251708984	0.166259766	-1.106933594	890.98	18.61779672	-11.71685454	-43.03894317	-75
11051	0	0.082397461	0.123718262	0.370361328	0.999999046	-0.000152588	-9.06E-05	9.54E-05	2.059936523	3.092956543	9.259033203	-0.007629395	-0.004529953	0.004768372	0.251708984	0.166503906	-1.101074219	890.96	18.59794233	-11.72637438	-43.03573336	-75
11052	0	0.081084251	0.123650551	0.370749474	0.999999046	7.92E-05	-2.86E-05	3.34E-05	2.027106285	3.091263771	9.268736839	0.003957748	-0.001430511	0.00166893	0.251708984	0.166259766	-1.106933594	890.96	18.60547883	-11.72683011	-43.03724503	-75
11053	0	0.082702637	0.124145508	0.369689941	0.999999046	-0.000156403	-0.000121117	0.000114441	2.067565918	3.103637695	9.242248535	-0.007820129	-0.006055832	0.005722046	0.251708984	0.166259766	-1.106933594	890.98	18.58484692	-11.74032186	-43.03304616	-76
11054	0	0.081905365	0.122545242	0.37135601	0.999999046	-9.35E-05	-4.20E-05	2.67E-05	2.047634125	3.063631058	9.283900261	-0.004673004	-0.002098084	0.001335144	0.251464844	0.170654297	-1.1015625	890.96	18.57265685	-11.74197894	-43.03675239	-77
11055	0	0.081298828	0.122924805	0.372619629	0.999999046	-7.63E-06	4.77E-06	4.58E-05	2.032470703	3.073120117	9.315490723	-0.00038147	0.000238419	0.002288818	0.251464844	0.168457031	-1.101318359	890.98	18.56937702	-11.73918371	-43.03579767	-77
11056	0	0.080696106	0.124132156	0.371644974	0.999999046	2.96E-05	-0.000181198	0.000102043	2.017402649	3.103303909	9.291124344	0.001478195	-0.009059906	0.005102158	0.251708984	0.168457031	-1.107177734	890.98	18.57043852	-11.75854663	-43.03554866	-77
11057	0	0.083190918	0.124328613	0.372131348	0.999999046	-0.00012207	-9.06E-05	0.000183105	2.079772949	3.108215332	9.303283691	-0.006103516	-0.004529953	0.009155274	0.25390625	0.168457031	-1.107177734	890.96	18.55154423	-11.77104531	-43.02206283	-77
11058	0	0.081838608	0.123047829	0.370009422	0.999999046	-0.00018692	-5.72E-05	0.000175476	2.045965195	3.076195717	9.250235558	-0.009346008	-0.002861023	0.008773804	0.25390625	0.168457031	-1.1015625	890.96	18.52505696	-11.77960736	-43.00788535	-77
11059	0	0.082641602	0.122253418	0.370178223	0.999999046	-0.000152588	-7.15E-05	0.000137329	2.066040039	3.056335449	9.254455566	-0.007629395	-0.003576279	0.006866455	0.251464844	0.168457031	-1.101318359	890.92	18.50336439	-11.78833985	-42.9992385	-76
11060	0	0.081568718	0.122361183	0.372217178	1	2.48E-05	-3.91E-05	6.77E-05	2.039217949	3.059029579	9.305429459	0.001239777	-0.001955032	0.003385544	0.251464844	0.170654297	-1.104492188	890.9	18.50320214	-11.79094663	-42.99799859	-76
11061	0	0.083496094	0.123046875	0.368652344	0.999999046	-7.63E-05	-2.19E-05	0.000144958	2.087402344	3.076171875	9.216308594	-0.003814697	-0.001096725	0.007247925	0.251708984	0.168457031	-1.107177734	891.02	18.48954415	-11.79456114	-42.98667484	-76
11062	0	0.081411362	0.122172356	0.371474266	0.999999046	-8.39E-05	2.29E-05	1.91E-05	2.035284042	3.054308891	9.286856651	-0.004196167	0.001144409	0.000953674	0.25390625	0.168457031	-1.104248047	890.84	18.47741529	-11.78866133	-42.98668345	-76
11063	0	0.081970215	0.122375488	0.371704102	0.999999046	0.00012207	-0.00014782	0.0001297	2.049255371	3.059387207	9.292602539	0.006103516	-0.007390976	0.006484985	0.251708984	0.166259766	-1.109619141	890.98	18.48757447	-11.80529252	-42.98106376	-76
11064	0	0.082478523	0.123420715	0.371526718	0.999999046	-8.87E-05	-0.000179291	0.000102997	2.061963081	3.085517883	9.288167953	-0.004434586	-0.008964539	0.005149841	0.251708984	0.168457031	-1.104248047	890.98	18.47437877	-11.82435218	-42.98003939	-76
11065	0	0.081726074	0.121887207	0.371826172	0.999999046	-4.96E-05	-7.53E-05	0.000137329	2.043151855	3.047180176	9.295654297	-0.002479553	-0.003767014	0.006866455	0.251708984	0.168457031	-1.104248047	890.92	18.46396879	-11.83329684	-42.97128273	-75
11066	0	0.082426071	0.122376442	0.370848656	0.999999046	-3.62E-05	-8.58E-05	9.44E-05	2.060651779	3.059411049	9.271216393	-0.001811981	-0.004291534	0.004720688	0.251708984	0.168457031	-1.104248047	890.92	18.45606994	-11.84180212	-42.96761549	-76
11067	0	0.08215332	0.121582031	0.37109375	0.999999046	-0.000225067	5.82E-05	7.63E-05	2.053833008	3.039550781	9.27734375	-0.011253357	0.002908707	0.003814697	0.251708984	0.168457031	-1.104248047	890.96	18.425738	-11.83395806	-42.96052073	-76
11068	0	0.081762314	0.122256279	0.371523857	0.999999046	-1.43E-05	0.000101089	3.81E-06	2.044057846	3.056406975	9.288096428	-0.000715256	0.005054474	0.000190735	0.251464844	0.170654297	-1.1015625	891.02	18.42080936	-11.81876017	-42.96086533	-75
11069	0	0.081298828	0.122314453	0.371643066	0.999999046	-3.81E-05	-0.000132561	0.000240326	2.032470703	3.057861328	9.29107666	-0.001907349	-0.006628037	0.012016297	0.25390625	0.170654297	-1.104492188	890.92	18.40946801	-11.83745164	-42.94257184	-75
11070	0	0.082798958	0.121940613	0.370653152	0.999999046	-0.000116348	-0.000217438	0.000125885	2.069973946	3.04851532	9.266328812	-0.005817413	-0.010871887	0.006294251	0.25390625	0.172851563	-1.107421875	890.9	18.39234609	-11.86123081	-42.94092671	-75
11071	0	0.08215332	0.121948242	0.370605469	0.999999046	-0.000225067	-3.72E-05	7.63E-05	2.053833008	3.048706055	9.265136719	-0.011253357	-0.001859665	0.003814697	0.25390625	0.170654297	-1.104492188	890.98	18.36247467	-11.86358319	-42.93681541	-75
11072	0	0.081650734	0.120547295	0.372117996	0.999999046	0.000164986	-1.34E-05	0.000121117	2.041268349	3.013682365	9.302949905	0.008249283	-0.000667572	0.006055832	0.251464844	0.170654297	-1.107177734	890.98	18.37595426	-11.86488675	-42.92827276	-75
11073	0	0.081848145	0.122924805	0.371398926	0.999999046	7.63E-06	-6.01E-05	0.000110626	2.046203613	3.073120117	9.284973145	0.00038147	-0.003004074	0.005531311	0.251464844	0.172851563	-1.101806641	890.92	18.37198525	-11.87083208	-42.923288	-75
11074	0	0.08204174	0.121324539	0.369982719	0.999999046	-0.000183105	3.05E-05	9.16E-05	2.05104351	3.03311348	9.249567986	-0.009155274	0.001525879	0.004577637	0.251464844	0.170654297	-1.104492188	891.02	18.3458456	-11.86620372	-42.91602847	-76
11075	0	0.081542969	0.121520996	0.371398926	0.999999046	-6.48E-05	-1.43E-05	7.25E-05	2.038574219	3.038024902	9.284973145	-0.003242493	-0.000715256	0.003623962	0.251708984	0.168457031	-1.107177734	891.02	18.33396826	-11.86569311	-42.91149865	-77
11076	0	0.082120895	0.121277809	0.370556831	1	-4.77E-05	-2.96E-05	2.96E-05	2.053022385	3.031945229	9.263920784	-0.002384186	-0.001478195	0.001478195	0.251464844	0.172851563	-1.107421875	890.98	18.32509226	-11.86526162	-42.91444403	-77
11077	0	0.08203125	0.121643066	0.370300293	0.999999046	3.81E-06	-0.00014019	2.29E-05	2.05078125	3.04107666	9.257507324	0.000190735	-0.007009506	0.001144409	0.251464844	0.170654297	-1.104492188	890.96	18.32307881	-11.87659531	-42.9208059	-78
11078	0	0.081469536	0.122373581	0.371191025	0.999999046	-3.43E-05	-0.00012207	0.0001297	2.036738396	3.059339523	9.27977562	-0.001716614	-0.006103516	0.006484985	0.25390625	0.172851563	-1.107421875	891.02	18.31410433	-11.88973109	-42.91454647	-78
11079	0	0.083312988	0.119812012	0.371582031	0.999999046	-0.000171661	-8.68E-05	0.000102997	2.082824707	2.995300293	9.289550781	-0.008583069	-0.004339218	0.005149841	0.251464844	0.170654297	-1.104492188	890.98	18.28959718	-11.89808607	-42.90969785	-78
11080	0	0.081449509	0.120826721	0.370571136	0.999999046	-6.01E-05	2.10E-05	5.72E-05	2.036237717	3.02066803	9.264278412	-0.003004074	0.001049042	0.002861023	0.251464844	0.172851563	-1.101806641	890.96	18.27804779	-11.89299669	-42.90692197	-78
11081	0	0.082275391	0.120849609	0.371520996	0.999999046	-7.25E-05	-7.15E-05	-0.000118256	2.056884766	3.021240234	9.288024902	-0.003623962	-0.003576279	-0.005912781	0.251464844	0.170654297	-1.1015625	890.9	18.26973329	-11.8916357	-42.92571182	-79
11082	0	0.082422256	0.122218132	0.371159554	0.999999046	-2.29E-05	-0.000131607	5.63E-05	2.060556412	3.0554533	9.278988838	-0.001144409	-0.006580353	0.002813339	0.253662109	0.175048828	-1.102050781	890.96	18.26356599	-11.90305463	-42.92832703	-79
11083	0	0.082336426	0.120300293	0.371520996	0.999999046	-0.000110626	-7.92E-05	3.81E-06	2.058410645	3.007507324	9.288024902	-0.005531311	-0.003957748	0.000190735	0.251464844	0.175048828	-1.107666016	890.98	18.2480605	-11.90684928	-42.93605551	-79
