Counter	Temperature	VelInc_X	VelInc_Y	VelInc_Z	OriInc_w	OriInc_x	OriInc_y	OriInc_z	Acc_X	Acc_Y	Acc_Z	Gyr_X	Gyr_Y	Gyr_Z	Mag_X	Mag_Y	Mag_Z	Pressure	Roll	Pitch	Yaw	RSSI
51892	0	-0.032409668	-0.274353027	0.290588379	0.999999046	0.000248909	-0.000213623	-0.000114441	-0.810241699	-6.858825684	7.264709473	0.01244545	-0.010681153	-0.005722046	-0.337890625	0.169433594	-0.962890625	888.96	-43.20514141	4.20399109	130.9877692	-76
51893	0	-0.031921387	-0.274597168	0.291503906	0.999999046	0.000541687	-0.000174522	0.0001297	-0.798034668	-6.864929199	7.287597656	0.027084352	-0.00872612	0.006484986	-0.338134766	0.171630859	-0.966064453	888.96	-43.14290323	4.202161756	130.9915096	-76
51894	0	-0.032194138	-0.269999504	0.292783737	0.999999046	0.000318527	-0.00018692	8.39233E-05	-0.804853439	-6.749987602	7.31959343	0.015926361	-0.009346009	0.004196167	-0.338134766	0.169433594	-0.960205078	888.96	-43.10634043	4.195740847	130.9967561	-76
51895	0	-0.031921387	-0.270324707	0.292663574	0.999999046	-0.00018692	-0.000220299	-5.72205E-05	-0.798034668	-6.758117676	7.316589355	-0.009346008	-0.011014939	-0.002861023	-0.335449219	0.169433594	-0.966064453	888.96	-43.12831449	4.175510059	130.978507	-76
51896	0	-0.030479431	-0.273306847	0.292880058	0.999999046	-0.000315666	-4.3869E-05	0.000125885	-0.761985779	-6.832671165	7.322001457	-0.01578331	-0.002193451	0.006294251	-0.337890625	0.169433594	-0.962890625	889.02	-43.16495273	4.184330731	130.970278	-76
51897	0	-0.032104492	-0.273254395	0.291015625	0.999999046	-0.000133514	-0.000174522	4.19617E-05	-0.802612305	-6.831359863	7.275390625	-0.00667572	-0.00872612	0.002098084	-0.335693359	0.169433594	-0.963134766	888.96	-43.18056225	4.175696792	130.9594611	-76
51898	0	-0.030315399	-0.272964478	0.294248581	0.999999046	0.000135422	-0.000177383	1.04904E-05	-0.757884979	-6.824111938	7.356214523	0.006771088	-0.008869171	0.000524521	-0.337890625	0.169433594	-0.965820313	888.96	-43.16547547	4.164301088	130.9478901	-76
51899	0	-0.031555176	-0.272094727	0.292297363	0.999999046	0.000106812	1.62125E-05	0.000205994	-0.788879395	-6.802368164	7.307434082	0.005340576	0.000810623	0.010299683	-0.337890625	0.169433594	-0.962890625	888.96	-43.15356525	4.184430074	130.9420405	-77
51900	0	-0.031920433	-0.271225929	0.2924757	0.999999046	4.1008E-05	-0.000123978	-6.10352E-05	-0.798010826	-6.780648232	7.311892509	0.0020504	-0.006198883	-0.003051758	-0.335693359	0.171630859	-0.960449219	888.96	-43.149974	4.17194238	130.9265028	-77
51901	0	-0.032365799	-0.273403168	0.291591644	0.999999046	8.01086E-05	5.24521E-05	4.1008E-05	-0.809144974	-6.835079193	7.289791107	0.004005432	0.002622604	0.0020504	-0.337890625	0.169433594	-0.962890625	889.06	-43.14235985	4.182261158	130.9049719	-76
51902	0	-0.032785416	-0.271521568	0.292912483	0.999999046	0	3.8147E-05	0.000136375	-0.819635391	-6.788039207	7.32281208	0	0.001907349	0.006818771	-0.335693359	0.171630859	-0.966308594	888.96	-43.14322006	4.19893333	130.8877025	-76
51903	0	-0.03137207	-0.273193359	0.291809082	0.999999046	-0.000141144	2.00272E-05	3.8147E-06	-0.784301758	-6.829833984	7.295227051	-0.00705719	0.001001358	0.000190735	-0.335449219	0.169433594	-0.966064453	889.08	-43.16102383	4.203695705	130.8574136	-76
51904	0	-0.031873703	-0.273337364	0.29295063	0.999999046	0.000155449	-1.90735E-06	0.000190735	-0.796842575	-6.833434105	7.323765755	0.007772446	-9.53674E-05	0.009536743	-0.335693359	0.171630859	-0.963378906	889.02	-43.14357016	4.221283271	130.8527521	-76
51905	0	-0.032043457	-0.27142334	0.291503906	0.999999046	-0.000152588	-2.57492E-05	9.15527E-05	-0.801086426	-6.785583496	7.287597656	-0.007629395	-0.00128746	0.004577637	-0.335693359	0.169433594	-0.963134766	888.9	-43.16188984	4.229130081	130.838421	-76
51906	0	-0.030797005	-0.273887634	0.292276382	0.999999046	5.72205E-06	-5.14984E-05	0.000113487	-0.769925117	-6.847190857	7.306909561	0.000286102	-0.002574921	0.005674362	-0.335693359	0.171630859	-0.966308594	889	-43.16184042	4.23649305	130.82774	-76
51907	0	-0.032836914	-0.272583008	0.291503906	0.999999046	0.000110626	-7.53403E-05	0.000144958	-0.820922852	-6.814575195	7.287597656	0.005531311	-0.003767014	0.007247925	-0.335693359	0.169433594	-0.963134766	888.96	-43.14946727	4.244385532	130.8225792	-76
51908	0	-0.032200813	-0.27269268	0.291873932	0.999999046	2.57492E-05	-9.53674E-05	8.39233E-05	-0.805020332	-6.817317009	7.296848297	0.00128746	-0.004768372	0.004196167	-0.335693359	0.169433594	-0.963134766	888.96	-43.14710914	4.245838541	130.8140012	-76
51909	0	-0.033081055	-0.272644043	0.29309082	0.999999046	3.43323E-05	-1.04904E-05	2.67029E-05	-0.827026367	-6.816101074	7.327270508	0.001716614	-0.000524521	0.001335144	-0.335693359	0.169433594	-0.963134766	888.96	-43.14459983	4.249962749	130.7945383	-76
51910	0	-0.032235146	-0.272317886	0.291950226	0.999999046	-0.0001297	-3.8147E-06	-1.52588E-05	-0.805878639	-6.807947159	7.298755646	-0.006484985	-0.000190735	-0.000762939	-0.338134766	0.171630859	-0.963134766	889	-43.16119289	4.251369419	130.779548	-76
51911	0	-0.031799316	-0.271789551	0.294616699	0.999999046	0.000125885	-5.62668E-05	4.19617E-05	-0.79498291	-6.79473877	7.36541748	0.006294251	-0.002813339	0.002098084	-0.335693359	0.169433594	-0.960205078	889.06	-43.14773429	4.252865207	130.7689435	-76
51912	0	-0.030446053	-0.271408081	0.296214104	0.999999046	-5.81741E-05	-5.53131E-05	-3.8147E-05	-0.761151314	-6.785202026	7.405352592	-0.002908707	-0.002765656	-0.001907349	-0.335693359	0.167236328	-0.959960938	889.02	-43.15570623	4.248080263	130.7485131	-76
51913	0	-0.034912109	-0.271240234	0.293029785	0.999999046	-0.000534058	0.000180244	-9.91821E-05	-0.872802734	-6.781005859	7.325744629	-0.026702882	0.009012223	-0.004959107	-0.335449219	0.169433594	-0.966064453	888.96	-43.21990888	4.258340026	130.6996069	-78
51914	0	-0.029957771	-0.27662468	0.292357445	0.999999046	-0.000408173	-1.14441E-05	-0.000145912	-0.748944283	-6.915616989	7.308936119	-0.020408631	-0.000572205	-0.007295609	-0.335693359	0.171630859	-0.960449219	889.02	-43.26898856	4.248776554	130.6716011	-76
51915	0	-0.032409668	-0.273254395	0.293457031	0.999999046	0.000343323	-1.04904E-05	0.00018692	-0.810241699	-6.831359863	7.336425781	0.017166138	-0.000524521	0.009346009	-0.335693359	0.169433594	-0.963134766	888.96	-43.22985394	4.265446589	130.6662851	-76
51916	0	-0.033054352	-0.270722389	0.293093681	0.999999046	-9.82285E-05	1.90735E-05	7.15256E-05	-0.826358795	-6.768059731	7.327342033	-0.004911423	0.000953674	0.003576279	-0.335693359	0.171630859	-0.960449219	889	-43.24209064	4.275577397	130.6556863	-76
51917	0	-0.033203125	-0.274780273	0.293151855	0.999999046	0.000102997	-0.00014782	6.86646E-05	-0.830078125	-6.869506836	7.328796387	0.005149841	-0.007390976	0.003433228	-0.338134766	0.171630859	-0.963134766	888.94	-43.2303434	4.271597107	130.6598343	-76
51918	0	-0.03168869	-0.273373604	0.293704987	0.999999046	0.000263214	-4.57764E-05	0.000208855	-0.792217255	-6.834340096	7.342624664	0.013160706	-0.002288818	0.010442734	-0.333251953	0.171630859	-0.966308594	889	-43.19993829	4.287113617	130.6545422	-76
51919	0	-0.030944824	-0.271240234	0.293029785	0.999999046	0.000232697	-8.29697E-05	0.000198364	-0.773620605	-6.781005859	7.325744629	0.011634827	-0.004148483	0.009918213	-0.337890625	0.169433594	-0.965820313	889	-43.17279279	4.298630773	130.6592693	-76
51920	0	-0.032957077	-0.271579742	0.293832779	0.999999046	0.000151634	-0.000120163	3.8147E-06	-0.823926926	-6.789493561	7.345819473	0.007581711	-0.006008148	0.000190735	-0.333251953	0.171630859	-0.966308594	889.06	-43.15586207	4.291819024	130.64391	-76
51921	0	-0.032348633	-0.27331543	0.293151855	0.999999046	-1.52588E-05	-0.000136375	0.000106812	-0.80871582	-6.832885742	7.328796387	-0.000762939	-0.006818771	0.005340576	-0.335693359	0.171630859	-0.963378906	889.1	-43.15732245	4.291724035	130.6468544	-76
51922	0	-0.03281498	-0.272219658	0.293334961	0.999999046	-5.91278E-05	-0.000102997	7.62939E-05	-0.820374489	-6.805491447	7.333374023	-0.00295639	-0.005149841	0.003814697	-0.333251953	0.169433594	-0.960449219	888.96	-43.16416956	4.292055842	130.639344	-76
51923	0	-0.032287598	-0.274230957	0.290588379	0.999999046	-9.15527E-05	-0.000136375	7.24792E-05	-0.807189941	-6.855773926	7.264709473	-0.004577637	-0.006818771	0.003623962	-0.335693359	0.171630859	-0.966308594	889.12	-43.17469762	4.289302104	130.6351438	-76
51924	0	-0.032064438	-0.272815704	0.29164505	0.999999046	9.63211E-05	-3.62396E-05	0.000113487	-0.801610947	-6.820392609	7.291126251	0.004816055	-0.001811981	0.005674362	-0.335449219	0.169433594	-0.966064453	888.94	-43.1640723	4.298126131	130.6236195	-76
51925	0	-0.03302002	-0.272277832	0.293945313	0.999999046	0.000102997	6.58035E-05	0.000106812	-0.825500488	-6.806945801	7.348632813	0.005149841	0.003290176	0.005340576	-0.333251953	0.171630859	-0.963378906	889	-43.15326494	4.314988286	130.6064846	-76
51926	0	-0.032505989	-0.272760391	0.292348862	0.999999046	-5.91278E-05	-8.7738E-05	4.19617E-05	-0.812649727	-6.819009781	7.308721542	-0.00295639	-0.004386902	0.002098084	-0.335693359	0.169433594	-0.960205078	888.94	-43.16055554	4.313934992	130.6013861	-76
51927	0	-0.031311035	-0.272460938	0.293701172	0.999999046	-4.19617E-05	-2.19345E-05	7.62939E-06	-0.782775879	-6.811523438	7.342529297	-0.002098083	-0.001096725	0.00038147	-0.333251953	0.169189453	-0.963134766	889.06	-43.16645458	4.315633552	130.579456	-76
51928	0	-0.032889366	-0.273035049	0.291054726	0.999999046	0.000128746	-8.2016E-05	4.86374E-05	-0.822234154	-6.825876236	7.276368141	0.006437302	-0.0041008	0.00243187	-0.338134766	0.171630859	-0.966064453	889	-43.15224223	4.315549724	130.5766087	-76
51929	0	-0.03112793	-0.270996094	0.293823242	0.999999046	6.86646E-05	-7.9155E-05	3.8147E-05	-0.778198242	-6.774902344	7.345581055	0.003433228	-0.003957748	0.001907349	-0.333007813	0.169189453	-0.968994141	888.96	-43.14491926	4.314823827	130.5551101	-76
51930	0	-0.032505989	-0.273395538	0.293376923	0.999999046	0.000116348	-0.000120163	1.04904E-05	-0.812649727	-6.834888458	7.334423065	0.005817413	-0.006008148	0.000524521	-0.335693359	0.171630859	-0.966308594	888.96	-43.13206469	4.308500082	130.547329	-76
51931	0	-0.032531738	-0.272155762	0.293029785	0.999999046	0.000118256	-0.000170708	-1.14441E-05	-0.813293457	-6.803894043	7.325744629	0.005912781	-0.008535385	-0.000572205	-0.335449219	0.167236328	-0.962890625	888.96	-43.11881825	4.296241656	130.5386531	-76
51932	0	-0.032731056	-0.272393227	0.291762352	0.999999046	0.000130653	-0.000141144	0.000144005	-0.818276405	-6.809830666	7.2940588	0.006532669	-0.00705719	0.007200241	-0.335449219	0.166992188	-0.96875	889	-43.10339836	4.298659517	130.5337526	-76
51933	0	-0.03314209	-0.27154541	0.293762207	0.999999046	-1.14441E-05	-4.86374E-05	0.000106812	-0.828552246	-6.788635254	7.344055176	-0.000572205	-0.00243187	0.005340576	-0.335449219	0.169433594	-0.966064453	889.02	-43.10497636	4.305942458	130.5255015	-76
51934	0	-0.030852318	-0.273072243	0.29302597	0.999999046	1.71661E-05	-0.000162125	5.24521E-05	-0.771307945	-6.826806068	7.325649261	0.000858307	-0.008106232	0.002622604	-0.333251953	0.169189453	-0.963134766	889.02	-43.10297808	4.299394672	130.5198167	-76
51935	0	-0.03326416	-0.271606445	0.291259766	0.999999046	0.000152588	-0.000285149	0.000114441	-0.831604004	-6.790161133	7.281494141	0.007629395	-0.014257431	0.005722046	-0.337890625	0.167236328	-0.962890625	888.96	-43.08437938	4.287458826	130.5356392	-76
51936	0	-0.031084061	-0.272730827	0.292946815	0.999999046	7.53403E-05	-0.000314713	-0.000102997	-0.777101517	-6.818270683	7.323670387	0.003767014	-0.015735627	-0.005149841	-0.335449219	0.167236328	-0.962890625	889	-43.07585466	4.255967461	130.5295998	-76
51937	0	-0.032836914	-0.272277832	0.292663574	0.999999046	0.000278473	-0.000277519	-3.8147E-05	-0.820922852	-6.806945801	7.316589355	0.013923645	-0.013875962	-0.001907349	-0.335449219	0.169433594	-0.966064453	889	-43.04388735	4.232707203	130.5257062	-76
51938	0	-0.031616211	-0.271934509	0.293259621	0.999999046	-1.52588E-05	-0.00021553	3.8147E-06	-0.790405273	-6.798362732	7.331490517	-0.000762939	-0.01077652	0.000190735	-0.337890625	0.167236328	-0.962890625	889	-43.04567207	4.217906343	130.5253977	-77
51939	0	-0.031799316	-0.275756836	0.292724609	0.999999046	0.000469208	-0.000151634	3.8147E-06	-0.79498291	-6.893920898	7.318115234	0.023460389	-0.007581711	0.000190735	-0.335693359	0.167236328	-0.959960938	889	-42.99246498	4.208452055	130.52003	-76
51940	0	-0.032627106	-0.269803047	0.295734406	0.999999046	0.000641823	-0.000171661	0.000132561	-0.815677643	-6.74507618	7.393360138	0.032091143	-0.00858307	0.006628037	-0.337646484	0.165039063	-0.965576172	888.94	-42.91842152	4.207422257	130.52304	-76
51941	0	-0.032043457	-0.268188477	0.295837402	0.999999046	-0.000164032	-0.000189781	8.01086E-05	-0.801086426	-6.704711914	7.395935059	-0.008201599	-0.00948906	0.004005432	-0.337890625	0.167236328	-0.959960938	889.08	-42.93674317	4.200789721	130.5322058	-76
51942	0	-0.031304359	-0.271697998	0.293440819	0.999999046	-0.000246048	-0.000213623	-7.62939E-06	-0.782608986	-6.792449951	7.33602047	-0.012302399	-0.010681153	-0.00038147	-0.337890625	0.167236328	-0.965820313	888.96	-42.96490207	4.185295943	130.5276391	-77
51943	0	-0.030517578	-0.274108887	0.293884277	0.999999046	-6.48499E-05	-0.000132561	0.000118256	-0.762939453	-6.852722168	7.347106934	-0.003242493	-0.006628037	0.005912781	-0.337890625	0.167236328	-0.959960938	889.1	-42.97206783	4.186371682	130.5335825	-77
51944	0	-0.032518387	-0.27255249	0.29336834	0.999999046	0.000609398	-0.000173569	0.000132561	-0.812959671	-6.813812256	7.334208488	0.030469897	-0.008678437	0.006628037	-0.337646484	0.165039063	-0.965576172	889.02	-42.90170206	4.185172584	130.5352368	-77
51945	0	-0.030456543	-0.270019531	0.295654297	0.999999046	0.000259399	-0.000155449	3.8147E-05	-0.761413574	-6.750488281	7.391357422	0.012969971	-0.007772446	0.001907349	-0.335449219	0.167236328	-0.962890625	889.02	-42.87201622	4.178065064	130.5298373	-77
51946	0	-0.031971931	-0.270230293	0.296048164	0.999999046	6.10352E-05	-0.000232697	9.15527E-05	-0.799298286	-6.755757332	7.401204109	0.003051758	-0.011634827	0.004577637	-0.337646484	0.165039063	-0.965576172	889.1	-42.86420068	4.168657204	130.5328207	-77
51947	0	-0.031677246	-0.271850586	0.292480469	0.999999046	-7.62939E-05	-1.81198E-05	9.15527E-05	-0.791931152	-6.796264648	7.312011719	-0.003814697	-0.000905991	0.004577637	-0.335449219	0.167236328	-0.962890625	888.96	-42.87342888	4.17728671	130.5209008	-77
51948	0	-0.032876015	-0.273049355	0.293171883	0.999999046	0.000258446	-0.000123978	0.000113487	-0.821900368	-6.826233864	7.329297066	0.012922287	-0.006198883	0.005674362	-0.335449219	0.164794922	-0.965576172	888.96	-42.84367499	4.178806402	130.513224	-77
51949	0	-0.032104492	-0.270141602	0.295715332	0.999999046	0.000198364	-0.000124931	0.000152588	-0.802612305	-6.753540039	7.392883301	0.009918213	-0.006246567	0.007629395	-0.335449219	0.164794922	-0.962646484	888.96	-42.82047193	4.183316016	130.5128662	-78
51950	0	-0.031258583	-0.269710541	0.294792175	0.999999046	-4.3869E-05	-0.000137329	9.53674E-05	-0.781464577	-6.742763519	7.369804382	-0.002193451	-0.006866455	0.004768372	-0.340087891	0.162841797	-0.962402344	889.02	-42.82524589	4.182310461	130.5153529	-77
51951	0	-0.034179688	-0.270935059	0.293395996	0.999999046	-0.000450134	-0.000163078	0.00018692	-0.854492188	-6.773376465	7.334899902	-0.022506715	-0.008153916	0.009346009	-0.337646484	0.162841797	-0.962402344	889.02	-42.87590744	4.186416138	130.520687	-79
51952	0	-0.030462265	-0.271860123	0.293953896	0.999999046	-5.81741E-05	-0.000165939	0.000185966	-0.761556625	-6.796503067	7.348847389	-0.002908707	-0.008296967	0.009298325	-0.337890625	0.167236328	-0.962890625	888.96	-42.88166757	4.19015096	130.5319412	-79
51953	0	-0.029418945	-0.270507813	0.296264648	0.999999046	-0.000240326	-9.44138E-05	0.000171661	-0.735473633	-6.762695313	7.406616211	-0.012016297	-0.004720688	0.008583069	-0.337890625	0.167236328	-0.962890625	889.02	-42.90869718	4.198662144	130.5355441	-78
51954	0	-0.031288147	-0.271737099	0.293942451	0.999999046	0.000400543	-7.05719E-05	0.000189781	-0.782203674	-6.793427467	7.348561287	0.020027161	-0.003528595	0.00948906	-0.337646484	0.165039063	-0.968505859	889	-42.86234209	4.210571289	130.5301318	-78
51955	0	-0.032348633	-0.27142334	0.295715332	0.999999046	-9.15527E-05	-6.00815E-05	-6.48499E-05	-0.80871582	-6.785583496	7.392883301	-0.004577637	-0.003004074	-0.003242493	-0.337890625	0.165039063	-0.962646484	888.9	-42.87396341	4.203533557	130.5096303	-76
51956	0	-0.031850815	-0.270627022	0.29335022	0.999999046	0.000166893	1.52588E-05	6.00815E-05	-0.79627037	-6.765675545	7.333755493	0.00834465	0.000762939	0.003004074	-0.335449219	0.164794922	-0.962646484	888.9	-42.85564548	4.212577424	130.4894576	-78
51957	0	-0.032348633	-0.270141602	0.294250488	0.999999046	-9.91821E-05	8.58307E-06	-3.8147E-06	-0.80871582	-6.753540039	7.356262207	-0.004959106	0.000429153	-0.000190735	-0.340087891	0.165039063	-0.965332031	889	-42.86814	4.216112771	130.4715214	-78
51958	0	-0.031924248	-0.269651413	0.295233727	0.999999046	-0.000356674	-1.90735E-06	0.000185966	-0.798106194	-6.741285324	7.380843163	-0.01783371	-9.53674E-05	0.009298325	-0.337646484	0.165039063	-0.965576172	889.06	-42.90882503	4.233570534	130.4643494	-77
51959	0	-0.032226563	-0.270996094	0.294128418	0.999999046	-0.000213623	-6.77109E-05	0.00012207	-0.805664063	-6.774902344	7.353210449	-0.010681152	-0.003385544	0.006103516	-0.337890625	0.167236328	-0.962890625	889.1	-42.93311524	4.240535441	130.463089	-77
51960	0	-0.030604362	-0.270381927	0.293772697	0.999999046	-0.00020504	-3.8147E-06	1.52588E-05	-0.765109062	-6.759548187	7.344317436	-0.010251999	-0.000190735	0.000762939	-0.337890625	0.167236328	-0.959960938	889.06	-42.95742277	4.24445494	130.4508282	-77
51961	0	-0.032348633	-0.271484375	0.294006348	0.999999046	0.00012207	-6.77109E-05	0.000133514	-0.80871582	-6.787109375	7.350158691	0.006103516	-0.003385544	0.00667572	-0.337890625	0.165039063	-0.962646484	888.96	-42.94314274	4.252268591	130.4477239	-77
51962	0	-0.032258987	-0.270366669	0.294930458	0.999999046	-8.58307E-05	-7.62939E-05	-2.67029E-05	-0.806474686	-6.759166718	7.373261452	-0.004291534	-0.003814697	-0.001335144	-0.335449219	0.164794922	-0.965576172	889.06	-42.95357153	4.246867216	130.4231054	-77
51963	0	-0.032226563	-0.271972656	0.29296875	0.999999046	2.28882E-05	-3.71933E-05	8.01086E-05	-0.805664063	-6.799316406	7.32421875	0.001144409	-0.001859665	0.004005432	-0.337890625	0.165039063	-0.962646484	889.06	-42.95114646	4.253095532	130.4135256	-77
51964	0	-0.032430649	-0.271039009	0.294325829	0.999999046	2.95639E-05	-0.000162125	7.24792E-05	-0.81076622	-6.775975227	7.358145714	0.001478195	-0.008106232	0.003623962	-0.337890625	0.167236328	-0.965820313	889.06	-42.94725009	4.248269015	130.4124291	-77
51965	0	-0.03112793	-0.270446777	0.293579102	0.999999046	0.000232697	9.53674E-07	3.8147E-05	-0.778198242	-6.761169434	7.339477539	0.011634827	4.76837E-05	0.001907349	-0.335449219	0.164794922	-0.962646484	889.02	-42.92121614	4.254402006	130.3919841	-77
51966	0	-0.031515121	-0.270551682	0.294315338	0.999999046	-5.14984E-05	-4.57764E-05	3.8147E-05	-0.787878036	-6.763792038	7.357883453	-0.002574921	-0.002288818	0.001907349	-0.340087891	0.165039063	-0.968261719	889.02	-42.9274425	4.256590737	130.3789058	-77
51967	0	-0.032836914	-0.270690918	0.293640137	0.999999046	-8.7738E-05	-7.9155E-05	7.62939E-05	-0.820922852	-6.767272949	7.341003418	-0.004386902	-0.003957748	0.003814697	-0.335449219	0.167236328	-0.962890625	889.02	-42.93737826	4.258997016	130.3710977	-77
51968	0	-0.031855583	-0.272019386	0.293353081	0.999999046	8.10623E-05	-1.90735E-06	0.000105858	-0.79638958	-6.800484657	7.333827019	0.004053116	-9.53674E-05	0.005292892	-0.335205078	0.164794922	-0.968505859	888.96	-42.92829627	4.270183934	130.3503212	-77
51969	0	-0.031799316	-0.271728516	0.293395996	0.999999046	3.43323E-05	-9.82285E-05	9.91821E-05	-0.79498291	-6.793212891	7.334899902	0.001716614	-0.004911423	0.004959106	-0.335449219	0.164794922	-0.962646484	888.96	-42.92407821	4.272748607	130.343817	-77
51970	0	-0.032588959	-0.270237923	0.293909073	0.999999046	0.000179291	-2.09808E-05	3.33786E-05	-0.814723969	-6.755948067	7.347726822	0.008964539	-0.001049042	0.00166893	-0.335449219	0.162597656	-0.962646484	889.12	-42.90408014	4.276686724	130.3236346	-77
51971	0	-0.032409668	-0.272399902	0.294006348	0.999999046	-1.52588E-05	-1.43051E-05	2.67029E-05	-0.810241699	-6.809997559	7.350158691	-0.000762939	-0.000715256	0.001335144	-0.337890625	0.165039063	-0.962646484	889	-42.9064986	4.280671654	130.3111696	-77
51972	0	-0.03040123	-0.26966095	0.293998718	0.999999046	1.43051E-05	-0.000112534	5.24521E-05	-0.760030746	-6.741523743	7.349967957	0.000715256	-0.005626678	0.002622604	-0.337646484	0.162597656	-0.968261719	889	-42.90475399	4.278335527	130.298381	-77
51973	0	-0.032684326	-0.270075798	0.294563293	0.999999046	-0.000370026	4.673E-05	7.24792E-05	-0.817108154	-6.751894951	7.364082336	-0.018501282	0.002336502	0.003623962	-0.335449219	0.167236328	-0.962890625	888.94	-42.9477883	4.290949846	130.2824454	-77
51974	0	-0.032445908	-0.271020889	0.293078423	0.999999046	-0.000610352	8.01086E-05	-9.53674E-05	-0.81114769	-6.775522232	7.326960564	-0.03051758	0.004005432	-0.004768372	-0.337890625	0.165039063	-0.959960938	889.1	-43.01963047	4.293249506	130.2537738	-76
51975	0	-0.032043457	-0.2734375	0.291992188	0.999999046	-6.10352E-05	-2.95639E-05	-2.28882E-05	-0.801086426	-6.8359375	7.299804688	-0.003051758	-0.001478195	-0.001144409	-0.335449219	0.165039063	-0.965820313	888.96	-43.02755906	4.292000381	130.2284968	-76
51976	0	-0.029755592	-0.271034241	0.293181419	0.999999046	-0.000208855	2.09808E-05	3.05176E-05	-0.743889809	-6.775856018	7.329535484	-0.010442734	0.001049042	0.001525879	-0.335693359	0.167236328	-0.963134766	889.06	-43.05236281	4.299031194	130.2102814	-76
51977	0	-0.032226563	-0.270690918	0.293457031	0.999999046	-0.000377655	-1.04904E-05	1.52588E-05	-0.805664063	-6.767272949	7.336425781	-0.018882752	-0.000524521	0.000762939	-0.335449219	0.167236328	-0.968994141	888.96	-43.09638386	4.302229979	130.1856459	-76
51978	0	-0.03247261	-0.271948814	0.291726112	0.999999046	-0.000459671	-3.05176E-05	-0.000107765	-0.811815262	-6.79872036	7.293152809	-0.022983552	-0.001525879	-0.00538826	-0.335693359	0.169433594	-0.966308594	889	-43.15049576	4.294119878	130.1578431	-76
51979	0	-0.033813477	-0.274230957	0.290222168	0.999999046	-0.000274658	-7.53403E-05	5.72205E-05	-0.845336914	-6.855773926	7.255554199	-0.01373291	-0.003767014	0.002861023	-0.335693359	0.169433594	-0.966308594	889.06	-43.18226698	4.295265558	130.146695	-76
51980	0	-0.030749321	-0.272984505	0.29190731	0.999999046	0.000187874	-0.000150681	0.000151634	-0.768733025	-6.824612617	7.297682762	0.009393692	-0.007534027	0.007581711	-0.338134766	0.169433594	-0.966064453	889	-43.16003373	4.297438725	130.1548656	-77
51981	0	-0.030517578	-0.271179199	0.293029785	0.999999046	0.000339508	-8.29697E-05	0.000240326	-0.762939453	-6.77947998	7.325744629	0.016975403	-0.004148483	0.012016297	-0.335693359	0.167236328	-0.963134766	889.02	-43.12020664	4.312131529	130.1613935	-76
51982	0	-0.03224659	-0.269622803	0.293278694	0.999999046	-0.000120163	-5.34058E-05	6.48499E-05	-0.806164742	-6.740570068	7.331967354	-0.006008148	-0.002670288	0.003242493	-0.335449219	0.165039063	-0.965820313	889.06	-43.13423162	4.31555178	130.1443533	-77
51983	0	-0.032348633	-0.274230957	0.291564941	0.999999046	-0.00038147	-8.67844E-05	1.14441E-05	-0.80871582	-6.855773926	7.289123535	-0.019073487	-0.004339218	0.000572205	-0.335449219	0.167236328	-0.966064453	889.02	-43.17845607	4.311992707	130.1273012	-77
51984	0	-0.031266212	-0.273538589	0.292765617	0.999999046	0.000161171	-0.000181198	0.00014019	-0.781655312	-6.838464737	7.319140434	0.008058548	-0.009059906	0.007009506	-0.335693359	0.169433594	-0.963378906	888.96	-43.15915233	4.310576628	130.1350533	-77
51985	0	-0.030822754	-0.272460938	0.291442871	0.999999046	0.000232697	-5.24521E-05	0.000102997	-0.770568848	-6.811523438	7.286071777	0.011634827	-0.002622604	0.005149841	-0.335693359	0.169433594	-0.963378906	889.02	-43.13269035	4.316934807	130.1304068	-78
51986	0	-0.032862663	-0.271952629	0.292488098	0.999999046	0.000217438	1.71661E-05	7.15256E-05	-0.821566582	-6.798815727	7.312202454	0.010871887	0.000858307	0.003576279	-0.335693359	0.167236328	-0.963134766	889.1	-43.10858754	4.326683336	130.1160148	-78
51987	0	-0.032653809	-0.272338867	0.291809082	0.999999046	-6.48499E-05	3.14713E-05	6.10352E-05	-0.816345215	-6.80847168	7.295227051	-0.003242493	0.001573563	0.003051758	-0.335693359	0.169433594	-0.963378906	889.06	-43.11702586	4.336824926	130.1027094	-78
51988	0	-0.03178978	-0.272190094	0.294273376	0.999999046	-5.81741E-05	-0.000196457	0.000102043	-0.794744492	-6.80475235	7.356834412	-0.002908707	-0.009822846	0.005102158	-0.337890625	0.165039063	-0.965820313	889	-43.12304309	4.331077624	130.1057766	-77
51989	0	-0.031555176	-0.272216797	0.293457031	0.999999046	0.000217438	-0.00014782	-7.62939E-06	-0.788879395	-6.805419922	7.336425781	0.010871887	-0.007390976	-0.00038147	-0.333251953	0.169433594	-0.963378906	889.06	-43.09843441	4.320763478	130.0956929	-77
51990	0	-0.031005859	-0.270385742	0.293334961	0.999999046	4.57764E-05	-0.000114441	3.43323E-05	-0.775146484	-6.759643555	7.333374023	0.002288818	-0.005722046	0.001716614	-0.335693359	0.167236328	-0.963134766	889.02	-43.09335073	4.31646671	130.0887077	-77
51991	0	-0.033033371	-0.272115707	0.292827606	0.999998093	5.81741E-05	-0.000196457	0.000141144	-0.825834274	-6.802892685	7.320690155	0.002908707	-0.009822846	0.00705719	-0.338134766	0.167236328	-0.960205078	889.02	-43.0856869	4.313706675	130.1047161	-77
51992	0	-0.029727936	-0.272751808	0.29365921	0.999999046	9.25064E-05	-9.53674E-05	0.000124931	-0.743198395	-6.818795204	7.341480255	0.00462532	-0.004768372	0.006246567	-0.335693359	0.167236328	-0.963134766	888.96	-43.07480156	4.31800803	130.1035465	-77
51993	0	-0.031860352	-0.271972656	0.294128418	0.999999046	0.000366211	-0.000151634	0.000190735	-0.796508789	-6.799316406	7.353210449	0.018310547	-0.007581711	0.009536743	-0.337890625	0.165039063	-0.962890625	889.02	-43.03176469	4.322723263	130.1147122	-77
51994	0	-0.031996727	-0.271440506	0.293848038	0.999999046	0.000455856	-0.000238419	4.57764E-05	-0.799918175	-6.78601265	7.346200943	0.022792817	-0.011920929	0.002288818	-0.335693359	0.167236328	-0.963134766	889.06	-42.97882996	4.30881164	130.1195159	-77
51995	0	-0.032592773	-0.272033691	0.293884277	0.999999046	0.000411987	-0.000105858	9.53674E-05	-0.814819336	-6.800842285	7.347106934	0.020599366	-0.005292893	0.004768372	-0.337890625	0.165039063	-0.96875	889	-42.93140743	4.30990608	130.1146436	-77
51996	0	-0.030812263	-0.269893646	0.294723511	0.999999046	0.00032711	-0.000192642	3.8147E-05	-0.770306587	-6.747341156	7.368087769	0.016355515	-0.009632111	0.001907349	-0.335449219	0.165039063	-0.962890625	889	-42.8934769	4.299183074	130.1136949	-77
51997	0	-0.031066895	-0.270874023	0.293151855	0.999999046	0.000289917	-0.000227928	7.24792E-05	-0.776672363	-6.771850586	7.328796387	0.01449585	-0.011396408	0.003623962	-0.335449219	0.165039063	-0.96875	889.02	-42.85941916	4.288127458	130.1124947	-76
51998	0	-0.031921387	-0.270874023	0.295837402	0.999999046	0.00018692	-0.000202179	0.000102997	-0.798034668	-6.771850586	7.395935059	0.009346008	-0.010108948	0.005149841	-0.335449219	0.165039063	-0.96875	889	-42.83706698	4.281603135	130.1120659	-77
51999	0	-0.031860352	-0.269897461	0.295715332	0.999999046	0.000118256	-0.000231743	-1.14441E-05	-0.796508789	-6.747436523	7.392883301	0.005912781	-0.011587143	-0.000572205	-0.337646484	0.162597656	-0.968261719	889.06	-42.82305227	4.263672927	130.1057353	-76
52000	0	-0.031657219	-0.271050453	0.293718338	0.999999046	0.000161171	-0.0001297	0.00014019	-0.791430473	-6.77626133	7.34295845	0.008058548	-0.006484985	0.007009506	-0.337646484	0.162841797	-0.962402344	889.1	-42.80379337	4.266122202	130.1110574	-76
52001	0	-0.032287598	-0.270019531	0.293395996	0.999999046	-5.34058E-05	-0.000201225	-1.52588E-05	-0.807189941	-6.750488281	7.334899902	-0.002670288	-0.010061264	-0.000762939	-0.337890625	0.165039063	-0.962646484	889.06	-42.80969733	4.250482658	130.1113353	-76
52002	0	-0.031184196	-0.271395683	0.294660568	0.999999046	8.2016E-05	-0.000160217	-1.23978E-05	-0.779604912	-6.784892082	7.366514206	0.0041008	-0.008010864	-0.000619888	-0.337890625	0.165039063	-0.962646484	889	-42.80032586	4.238486438	130.1084719	-77
52003	0	-0.031799316	-0.270874023	0.294189453	0.999999046	0.000526428	-5.24521E-05	0.000160217	-0.79498291	-6.771850586	7.354736328	0.026321412	-0.002622605	0.008010865	-0.337890625	0.165039063	-0.962646484	889.02	-42.73959473	4.24899977	130.1133063	-76
52004	0	-0.03209877	-0.269454956	0.295514107	0.999999046	0.000582695	-0.000261307	3.8147E-05	-0.802469254	-6.736373901	7.387852669	0.029134752	-0.013065339	0.001907349	-0.33984375	0.160644531	-0.968017578	889.06	-42.67192858	4.2324596	130.1172681	-76
52005	0	-0.032531738	-0.26965332	0.296813965	0.999999046	0.000301361	-0.000254631	0.000202179	-0.813293457	-6.741333008	7.420349121	0.015068055	-0.012731553	0.010108948	-0.337646484	0.160400391	-0.968017578	889.04	-42.63545559	4.229254885	130.1300953	-76
52006	0	-0.029987335	-0.268731117	0.295342445	0.999999046	9.53674E-06	-0.000164032	9.91821E-05	-0.74968338	-6.718277931	7.383561134	0.000476837	-0.008201599	0.004959106	-0.340087891	0.160644531	-0.962158203	889.1	-42.63353765	4.225605508	130.138126	-76
52007	0	-0.032714844	-0.268981934	0.296630859	0.999999046	1.14441E-05	-4.1008E-05	6.48499E-05	-0.817871094	-6.72454834	7.415771484	0.000572205	-0.0020504	0.003242493	-0.337646484	0.160400391	-0.965087891	889.06	-42.6322598	4.229725424	130.125703	-77
52008	0	-0.030039787	-0.26952076	0.295113564	0.999999046	-0.000330925	6.10352E-05	4.95911E-05	-0.750994682	-6.73801899	7.377839088	-0.01654625	0.003051758	0.002479553	-0.337646484	0.160400391	-0.962158203	888.96	-42.67090018	4.241183942	130.1068565	-76
52009	0	-0.031066895	-0.270141602	0.296386719	0.999999046	-2.28882E-05	-0.000166893	0.000179291	-0.776672363	-6.753540039	7.409667969	-0.001144409	-0.00834465	0.008964539	-0.337646484	0.160400391	-0.965087891	889.02	-42.67209564	4.243478422	130.1132626	-76
52010	0	-0.031309128	-0.269595146	0.296262741	0.999999046	-0.000179291	2.28882E-05	5.72205E-05	-0.782728195	-6.739878654	7.406568527	-0.008964539	0.001144409	0.002861023	-0.33984375	0.160644531	-0.968017578	889.06	-42.69302596	4.252263277	130.0962218	-77
52011	0	-0.03326416	-0.269226074	0.29473877	0.999999046	-0.000312805	5.43594E-05	4.95911E-05	-0.831604004	-6.730651855	7.368469238	-0.015640259	0.002717972	0.002479553	-0.340087891	0.160644531	-0.965087891	889	-42.72947235	4.263184172	130.0793466	-76
52012	0	-0.029600143	-0.272886276	0.293343544	0.999999046	0.000222206	2.28882E-05	-7.24792E-05	-0.740003586	-6.822156906	7.3335886	0.011110306	0.001144409	-0.003623962	-0.337646484	0.162841797	-0.965332031	888.9	-42.70535639	4.261853823	130.0536747	-76
52013	0	-0.029663086	-0.272399902	0.295959473	0.999999046	0.000801086	-0.00014019	0.000175476	-0.741577148	-6.809997559	7.398986816	0.040054326	-0.007009507	0.008773805	-0.337646484	0.162841797	-0.965332031	889	-42.61245822	4.265945337	130.0636822	-76
52014	0	-0.032775879	-0.265625	0.297607422	0.999999046	0.000278473	2.67029E-05	0.000110626	-0.819396973	-6.640625	7.440185547	0.013923645	0.001335144	0.005531311	-0.337646484	0.160400391	-0.962158203	889.06	-42.58059654	4.279131736	130.0564755	-76
52015	0	-0.031677246	-0.267944336	0.296447754	0.999999046	-0.000442505	-7.53403E-05	4.57764E-05	-0.791931152	-6.698608398	7.411193848	-0.022125245	-0.003767014	0.002288818	-0.340087891	0.162841797	-0.965332031	889.06	-42.63108987	4.278675288	130.0551238	-76
52016	0	-0.031474113	-0.270768166	0.296273232	0.999999046	-0.000380516	-6.67572E-05	5.62668E-05	-0.786852837	-6.76920414	7.406830788	-0.019025803	-0.00333786	0.002813339	-0.337646484	0.162841797	-0.965332031	889.1	-42.67448577	4.279733995	130.0480867	-76
52017	0	-0.031433105	-0.270751953	0.29510498	0.999999046	5.34058E-05	-5.24521E-05	1.52588E-05	-0.785827637	-6.768798828	7.377624512	0.002670288	-0.002622604	0.000762939	-0.337646484	0.162841797	-0.965332031	889.1	-42.66854019	4.278792441	130.0367601	-76
52018	0	-0.031898499	-0.269498825	0.295929909	0.999999046	0.000152588	3.8147E-06	0.000132561	-0.797462463	-6.737470627	7.398247719	0.007629395	0.000190735	0.006628037	-0.340087891	0.160644531	-0.962158203	889.06	-42.65077809	4.291707478	130.036794	-76
52019	0	-0.031799316	-0.268371582	0.296081543	0.999999046	-9.91821E-05	2.00272E-05	3.8147E-06	-0.79498291	-6.709289551	7.402038574	-0.004959106	0.001001358	0.000190735	-0.337646484	0.162841797	-0.962402344	889.1	-42.66270393	4.295990926	130.0226274	-76
52020	0	-0.031568527	-0.27056694	0.294805527	0.999999046	-0.0002985	-4.00543E-05	2.95639E-05	-0.789213181	-6.764173508	7.370138168	-0.014925003	-0.002002716	0.001478195	-0.337646484	0.160400391	-0.962158203	889.04	-42.69701204	4.297192419	130.0115876	-76
52021	0	-0.030090332	-0.272399902	0.294616699	0.999999046	8.39233E-05	1.23978E-05	5.34058E-05	-0.752258301	-6.809997559	7.36541748	0.004196167	0.000619888	0.002670288	-0.335205078	0.162597656	-0.965576172	889.06	-42.68776999	4.304568721	129.9938215	-76
52022	0	-0.032873154	-0.269417763	0.294355392	0.999999046	0.000333786	-7.82013E-05	6.10352E-05	-0.821828842	-6.735444069	7.358884811	0.016689301	-0.003910065	0.003051758	-0.335205078	0.160400391	-0.962402344	889	-42.6493262	4.304961371	129.9851642	-76
52023	0	-0.032104492	-0.268615723	0.296447754	0.999999046	7.62939E-05	-5.62668E-05	3.8147E-06	-0.802612305	-6.715393066	7.411193848	0.003814697	-0.002813339	0.000190735	-0.335205078	0.160400391	-0.965332031	889.02	-42.64080431	4.302772314	129.9674379	-76
52024	0	-0.030791283	-0.27070713	0.295331955	0.999999046	-0.000113487	-4.95911E-05	4.19617E-05	-0.769782066	-6.767678261	7.383298874	-0.005674362	-0.002479553	0.002098084	-0.337646484	0.162841797	-0.962402344	889.1	-42.65385853	4.304045398	129.9632324	-76
52025	0	-0.031311035	-0.269104004	0.295532227	0.999999046	-0.000133514	-9.82285E-05	1.52588E-05	-0.782775879	-6.727600098	7.388305664	-0.00667572	-0.004911423	0.000762939	-0.337646484	0.162841797	-0.965332031	889.06	-42.66906689	4.299118179	129.9570207	-77
52026	0	-0.032115936	-0.268510818	0.294795036	0.999999046	-0.000268936	-9.15527E-05	0	-0.802898407	-6.712770462	7.369875908	-0.013446808	-0.004577637	0	-0.337646484	0.160400391	-0.962158203	889.08	-42.69989771	4.293585014	129.9481702	-76
52027	0	-0.031860352	-0.26776123	0.296936035	0.999999046	-0.001091003	9.53674E-07	-1.14441E-05	-0.796508789	-6.694030762	7.423400879	-0.054550182	4.76837E-05	-0.000572205	-0.337646484	0.162841797	-0.965332031	889.02	-42.82540272	4.294939623	129.9284095	-76
52028	0	-0.0319767	-0.272127151	0.293718338	0.999999046	-0.001275063	6.48499E-05	-0.00025177	-0.799417496	-6.803178787	7.34295845	-0.063753146	0.003242494	-0.012588505	-0.337890625	0.167236328	-0.965820313	889.04	-42.97397273	4.282883057	129.8862418	-76
52029	0	-0.031555176	-0.277709961	0.290649414	0.999999046	0.000301361	-2.57492E-05	4.95911E-05	-0.788879395	-6.942749023	7.266235352	0.015068054	-0.00128746	0.002479553	-0.335449219	0.167236328	-0.965820313	889.02	-42.93982256	4.286706856	129.8728696	-76
52030	0	-0.032604218	-0.270755768	0.293132782	0.999999046	0.000667572	-2.28882E-05	0.000235558	-0.815105438	-6.768894196	7.32831955	0.033378604	-0.001144409	0.011777879	-0.335449219	0.164794922	-0.965576172	889.1	-42.86256076	4.305331481	129.8741894	-76
52031	0	-0.031982422	-0.268188477	0.296508789	0.999999046	0.000377655	-0.000128746	0.000106812	-0.799560547	-6.704711914	7.412719727	0.018882752	-0.006437302	0.005340576	-0.335449219	0.164794922	-0.962646484	889.04	-42.81852854	4.305023809	129.8768317	-76
52032	0	-0.030743599	-0.269119263	0.295437813	0.999999046	-0.000512123	-3.43323E-05	-1.14441E-05	-0.768589973	-6.727981567	7.38594532	-0.025606157	-0.001716614	-0.000572205	-0.337646484	0.162841797	-0.965332031	889.02	-42.87767681	4.303377166	129.8599228	-77
52033	0	-0.03125	-0.272399902	0.292724609	0.999999046	-0.000457764	-8.67844E-05	-7.62939E-06	-0.78125	-6.809997559	7.318115234	-0.022888184	-0.004339218	-0.00038147	-0.337890625	0.167236328	-0.965820313	889.06	-42.93036964	4.297581777	129.8518206	-77
52034	0	-0.031805038	-0.272058487	0.292297363	0.999999046	3.05176E-05	-9.72748E-05	9.44138E-05	-0.795125961	-6.801462173	7.307434082	0.001525879	-0.004863739	0.004720688	-0.337890625	0.167236328	-0.959960938	889	-42.92648834	4.298866864	129.8589087	-77
52035	0	-0.032470703	-0.269165039	0.295471191	0.999999046	-0.000411987	-9.44138E-05	0.000137329	-0.811767578	-6.729125977	7.386779785	-0.020599366	-0.004720688	0.006866455	-0.337890625	0.167236328	-0.965820313	888.96	-42.97294106	4.303779316	129.8620735	-79
52036	0	-0.031758308	-0.274830818	0.292930603	0.999999046	5.62668E-05	-3.8147E-06	-0.000103951	-0.79395771	-6.870770454	7.323265076	0.002813339	-0.000190735	-0.005197525	-0.335693359	0.167236328	-0.959960938	888.96	-42.96794424	4.297430866	129.8399672	-79
52037	0	-0.030212402	-0.273498535	0.293457031	0.999999046	0.00043869	-0.000159264	9.91821E-05	-0.755310059	-6.837463379	7.336425781	0.02193451	-0.007963181	0.004959107	-0.335449219	0.166992188	-0.96875	889.02	-42.91703036	4.293829251	129.8383615	-81
52038	0	-0.032308578	-0.269328117	0.294862747	0.999999046	0.00038147	-0.000118256	9.82285E-05	-0.807714462	-6.733202934	7.37156868	0.019073487	-0.005912781	0.004911423	-0.335449219	0.167236328	-0.962890625	889.02	-42.87281179	4.293617262	129.8406494	-79
52039	0	-0.033081055	-0.270874023	0.294067383	0.999999046	0.0001297	-0.000113487	0	-0.827026367	-6.771850586	7.35168457	0.006484985	-0.005674362	0	-0.335449219	0.167236328	-0.965820313	889.1	-42.85809755	4.286214492	129.8315647	-78
52040	0	-0.029657364	-0.271225929	0.293045044	0.999999046	0.00020504	-0.000141144	2.86102E-06	-0.741434097	-6.780648232	7.326126099	0.010251999	-0.00705719	0.000143051	-0.335449219	0.164794922	-0.965576172	889.06	-42.83463015	4.276610635	129.8223452	-77
52041	0	-0.031921387	-0.27166748	0.293334961	0.999999046	0.000225067	-0.000109673	0.000164032	-0.798034668	-6.791687012	7.333374023	0.011253357	-0.005483627	0.008201599	-0.335205078	0.164794922	-0.968505859	888.9	-42.80811102	4.282222984	129.8214504	-75
52042	0	-0.031090736	-0.269755363	0.293828964	0.999999046	-1.90735E-06	-0.0001297	0.000144958	-0.77726841	-6.743884087	7.345724106	-9.53674E-05	-0.006484985	0.007247925	-0.337890625	0.167236328	-0.965820313	888.96	-42.80758247	4.284634988	129.8313583	-76
52043	0	-0.032104492	-0.271240234	0.293640137	0.999999046	0.000217438	-0.000105858	0.000118256	-0.802612305	-6.781005859	7.341003418	0.010871887	-0.005292893	0.005912781	-0.337890625	0.165039063	-0.962646484	889.06	-42.7822761	4.286992429	129.837833	-75
52044	0	-0.033327103	-0.271959305	0.295168877	0.999999046	0.000401497	-5.72205E-05	0.000273705	-0.833177567	-6.79898262	7.379221916	0.020074845	-0.002861023	0.013685227	-0.335449219	0.164794922	-0.962646484	889.1	-42.73521466	4.305609604	129.849672	-75
52045	0	-0.036499023	-0.273742676	0.294799805	0.999999046	8.01086E-05	0.000123024	0.000301361	-0.912475586	-6.843566895	7.369995117	0.004005432	0.006151199	0.015068054	-0.335205078	0.162597656	-0.965576172	888.96	-42.72599163	4.341768699	129.8446484	-76
52046	0	-0.027456284	-0.269041061	0.295873642	0.999999046	0.00113678	0.000371933	0.000278473	-0.686407089	-6.726026535	7.396841049	0.056839004	0.018596654	0.013923649	-0.335449219	0.164794922	-0.965576172	889.1	-42.59721084	4.39687826	129.8268238	-79
52047	0	-0.024414063	-0.270751953	0.296325684	0.999999046	0.000850677	-0.000220299	0.000217438	-0.610351563	-6.768798828	7.40814209	0.04253388	-0.01101494	0.010871889	-0.335205078	0.162597656	-0.968505859	889.1	-42.49810122	4.396886494	129.8454306	-80
52048	0	-0.038989067	-0.27053833	0.295765877	0.999997139	0.001950264	-0.000164032	0.00077343	-0.974726677	-6.763458252	7.394146919	0.097513271	-0.008201605	0.038671522	-0.335205078	0.158203125	-0.962158203	889.02	-42.26972671	4.444873979	129.9122784	-81
52049	0	-0.035217285	-0.267822266	0.295410156	0.999999046	0.000431061	0.000107765	0.000427246	-0.880432129	-6.695556641	7.385253906	0.021553041	0.00538826	0.021362306	-0.334960938	0.156005859	-0.96484375	889.16	-42.21935991	4.489218017	129.9246474	-82
52050	0	-0.021057129	-0.26751709	0.298339844	0.999997139	0.002185822	-0.000114441	0.000637054	-0.526428223	-6.687927246	7.458496094	0.109291171	-0.005722051	0.03185275	-0.337402344	0.158203125	-0.970703125	889.1	-41.96508529	4.530126102	129.979769	-83
52051	0	-0.033447266	-0.269897461	0.298522949	0.999997139	0.001922607	-0.000266075	0.001064301	-0.836181641	-6.747436523	7.46307373	0.09613045	-0.013303768	0.05321507	-0.334716797	0.153564453	-0.970703125	889.04	-41.73721336	4.590553114	130.0762076	-82
52052	0	-0.0350914	-0.27234745	0.296661377	0.999991417	0.003186226	-1.52588E-05	0.002306938	-0.877285004	-6.808686256	7.416534424	0.159311705	-0.000762941	0.115347206	-0.334716797	0.149169922	-0.970214844	889.02	-41.35750356	4.766475273	130.2639888	-80
52053	0	-0.02923584	-0.278381348	0.297912598	0.999987602	0.003883362	-6.77109E-05	0.003002167	-0.730895996	-6.959533691	7.447814941	0.194168871	-0.003385557	0.15010894	-0.334472656	0.146972656	-0.972900391	889.1	-40.89235489	4.988574759	130.5213304	-79
52054	0	-0.018909454	-0.308651924	0.302030563	0.999937057	0.008223534	-0.000720024	0.007509232	-0.472736359	-7.716298103	7.550764084	0.411185216	-0.036001953	0.375469372	-0.331787109	0.140136719	-0.972412109	889	-39.88933171	5.484187841	131.2293381	-75
52055	0	-0.050109863	-0.314697266	0.31427002	0.999797821	0.01372242	-0.000823975	0.014640808	-1.252746582	-7.867431641	7.856750488	0.686167118	-0.0412015	0.732089624	-0.333496094	0.126708984	-0.977050781	889.1	-38.18046594	6.469081323	132.6063757	-74
52056	0	-0.033530235	-0.273409843	0.300035477	0.99977684	0.012865067	-0.00244236	0.016534805	-0.838255882	-6.835246086	7.500886917	0.643301031	-0.122127053	0.826801576	-0.330566406	0.111083984	-0.970214844	889.1	-36.51029144	7.397438116	134.2991235	-75
52057	0	-0.024047852	-0.263244629	0.305908203	0.999607086	0.020970345	-0.002559662	0.018398285	-0.601196289	-6.581115723	7.647705078	1.048654422	-0.127999839	0.920034614	-0.329833984	0.099853516	-0.978027344	889.02	-33.8543361	8.373155826	136.2334511	-75
52058	0	-0.058383942	-0.231451988	0.309006691	0.9995718	0.021377563	-0.003623962	0.019636154	-1.459598541	-5.786299706	7.725167274	1.069030675	-0.181223972	0.981947787	-0.333496094	0.072998047	-0.984375	889.06	-31.08629949	9.232451314	138.4025142	-79
52059	0	-0.071105957	-0.154296875	0.328735352	0.999643326	0.016972542	-0.004711151	0.020053864	-1.777648926	-3.857421875	8.218383789	0.848727886	-0.235585534	1.002812271	-0.336914063	0.041992188	-0.981445313	889.12	-28.76847701	9.914093337	140.6926507	-87
52060	0	-0.058326721	-0.255719185	0.327230453	0.999743462	-0.004767418	-0.009832382	0.019797325	-1.45816803	-6.392979622	8.180761337	-0.238391215	-0.491661017	0.989950636	-0.346923828	0.046630859	-0.975585938	889.1	-28.88241754	10.02353266	143.2119112	-82
52061	0	-0.059936523	-0.229309082	0.337280273	0.999278069	0.029098511	-0.008009911	0.023071289	-1.498413086	-5.732727051	8.432006836	1.455275715	-0.400591922	1.153842098	-0.364013672	0.056396484	-0.972412109	889.02	-25.06086595	10.40755924	146.0836098	-79
52062	0	-0.063246727	-0.1241045	0.365012169	0.999476433	0.020383835	-0.008087158	0.02378273	-1.581168175	-3.102612495	9.125304222	1.019369593	-0.404428472	1.189344012	-0.372070313	0.018554688	-0.96875	889.06	-22.20257221	10.65476822	149.0129152	-77
52063	0	-0.087219238	-0.089599609	0.345153809	0.999675751	-0.00020504	-0.009803772	0.023479462	-2.180480957	-2.239990234	8.628845215	-0.010253105	-0.490241509	1.1740998	-0.388427734	0.012451172	-0.970214844	889	-21.68740832	10.62362537	151.9310442	-77
52064	0	-0.098065376	-0.080674171	0.337486267	0.999726295	-0.0102911	-0.013605118	0.015985489	-2.451634407	-2.016854286	8.437156677	-0.51460186	-0.68031787	0.799347269	-0.406494141	0.040039063	-0.959960938	889.04	-22.46033391	9.874231995	154.1844147	-81
52065	0	-0.077941895	-0.069519043	0.367614746	0.999814034	0.012947083	-0.014063835	-0.002231598	-1.948547363	-1.737976074	9.190368652	0.647394096	-0.703235175	-0.111586784	-0.434326172	0.070068359	-0.946533203	889	-20.92120846	8.289917728	154.6097722	-79
52066	0	-0.08669281	0.139377594	0.438711166	0.999558449	-0.019176483	-0.004480362	-0.022218704	-2.167320251	3.48443985	10.96777916	-0.958965078	-0.224051021	-1.111098488	-0.451904297	0.028320313	-0.938964844	889	-23.39454302	6.863520359	152.3719724	-72
52067	0	-0.008056641	-0.502746582	0.30480957	0.999131203	-0.028266907	-0.015486717	-0.026397705	-0.201416016	-12.56866455	7.620239258	-1.413754513	-0.774560038	-1.320267372	-0.472900391	0.067138672	-0.923583984	888.94	-26.82893224	3.978740213	150.3297535	-75
52068	0	-0.109978676	-0.365517616	0.359210014	0.998775482	0.043386459	-0.017783165	-0.015769958	-2.749466896	-9.137940407	8.980250359	2.17020878	-0.889521324	-0.788819897	-0.503662109	0.054931641	-0.912109375	889.1	-21.90435861	1.386989955	149.6414082	-75
52069	0	-0.01348877	-0.209777832	0.491027832	0.99819088	0.046394348	-0.033522606	-0.018371582	-0.337219238	-5.244445801	12.2756958	2.321116817	-1.67714145	-0.91913325	-0.54296875	-0.044189453	-0.890136719	889.06	-16.58448189	-2.923442421	149.0051227	-72
52070	0	-0.018404961	-0.244224548	0.42780304	0.997598648	0.055462837	-0.038348198	-0.015816689	-0.460124016	-6.105613708	10.69507599	2.775363731	-1.918946146	-0.791468052	-0.601318359	-0.151367188	-0.840087891	888.96	-10.16791718	-7.604863535	148.3457273	-69
52071	0	0.057495117	-0.270324707	0.211975098	0.995082855	0.088982582	-0.040622711	-0.015544891	1.43737793	-6.758117676	5.299377441	4.456435544	-2.034471126	-0.778520973	-0.659912109	-0.264892578	-0.763183594	889.02	0.26681408	-12.38361421	147.1496274	-69
52072	0	0.13771534	-0.029882431	0.247605324	0.989988327	0.133138657	-0.044651985	-0.014223099	3.442883492	-0.747060776	6.190133095	6.6792366	-2.240079487	-0.713537632	-0.709960938	-0.432128906	-0.638916016	888.96	16.17748256	-17.20555618	145.0062534	-71
52073	0	0.10760498	0.277709961	0.338562012	0.991048813	0.12775135	-0.037906647	-0.007965088	2.690124512	6.942749023	8.464050293	6.406693185	-1.901007343	-0.399446848	-0.747070313	-0.596923828	-0.436767578	889	31.74387911	-20.79216967	142.5022482	-69
52074	0	0.165769577	0.460460663	0.506868362	0.997335434	0.061890602	-0.035761833	-0.014554024	4.144239426	11.51151657	12.67170906	3.097281121	-1.78968126	-0.728348108	-0.763671875	-0.688720703	-0.233154297	889.06	40.34894951	-23.10733333	138.6033508	-69
52075	0	0.216308594	0.419494629	0.473144531	0.99942112	-0.020797729	-0.021529198	-0.016120911	5.407714844	10.48736572	11.82861328	-1.040086919	-1.076667379	-0.806200903	-0.756591797	-0.726318359	-0.137207031	889	39.25287265	-23.80006053	135.4031126	-70
52076	0	0.250600815	0.314101219	0.522047997	0.998740196	-0.047194481	-0.010231018	-0.013595581	6.26502037	7.852530479	13.05119991	-2.360715006	-0.511765728	-0.680064525	-0.741210938	-0.73828125	-0.160400391	889.06	34.68387559	-23.77966609	133.3188895	-72
52077	0	0.266113281	0.25604248	0.519470215	0.997739792	-0.065283775	0.014476776	-0.006504059	6.652832031	6.401062012	12.98675537	-3.266649445	0.724384465	-0.325448093	-0.726074219	-0.725830078	-0.235107422	889.06	27.08570681	-21.95468514	133.5758246	-91
52078	0	0.184948921	0.080944061	0.514364243	0.995258331	-0.090075493	0.036028862	-0.00689888	4.62372303	2.023601532	12.85910606	-4.51090544	1.804295313	-0.345490148	-0.703613281	-0.689697266	-0.373046875	889.02	16.4258772	-17.80776476	134.4460688	-79
52079	0	0.20892334	-0.286865234	0.410400391	0.996273994	-0.07233429	0.046563148	0.006080627	5.223083496	-7.171630859	10.26000977	-3.621212677	2.331053013	0.304409504	-0.663574219	-0.598632813	-0.5546875	889.02	7.583239452	-12.71894479	136.3405868	-74
52080	0	0.220495224	-0.418632507	0.205907822	0.998040199	0.001208305	0.049760818	0.0379076	5.5123806	-10.46581268	5.147695541	0.060454754	2.489667065	1.896618808	-0.619873047	-0.504882813	-0.681396484	889.02	6.751448345	-7.590688092	141.5110456	-78
52081	0	0.198303223	-0.258483887	0.08392334	0.9949646	0.061039925	0.04662323	0.064388275	4.957580566	-6.462097168	2.098083496	3.057129247	2.335082175	3.224828345	-0.596923828	-0.463623047	-0.726806641	889	12.88907947	-3.568294986	149.8542164	-68
52082	0	0.148812294	-0.093617439	0.044194221	0.993936539	0.059380531	0.042716026	0.082091331	3.72030735	-2.340435982	1.104855537	2.975041785	2.140128428	4.112882387	-0.594726563	-0.461425781	-0.732910156	889.02	19.18466257	-1.441732713	160.3153668	-70
52083	0	0.102355957	-0.057067871	0.066345215	0.994135857	0.033279419	0.030407906	0.098293304	2.558898926	-1.426696777	1.658630371	1.667231138	1.523374164	4.924294444	-0.610595703	-0.418457031	-0.747314453	888.9	22.55897805	-2.179383089	172.0843341	-72
52084	0	0.123215675	-0.057804108	0.079066277	0.993302345	0.024445534	0.011547089	0.112332344	3.080391884	-1.445102692	1.976656914	1.225012614	0.578646773	5.629189356	-0.640869141	-0.319335938	-0.762695313	889.06	24.39713436	-6.083200422	-175.5340496	-63
52085	0	0.224914551	-0.015686035	0.080749512	0.992110252	0.027824402	-0.008135796	0.121967316	5.62286377	-0.392150879	2.018737793	1.394890275	-0.407862933	6.114453901	-0.684814453	-0.188232422	-0.765380859	889.06	25.46973615	-12.82456853	-163.041847	-61
52086	0	0.294581413	0.044546127	0.086294174	0.990271568	0.032253265	-0.021631241	0.133618355	7.364535332	1.113653183	2.157354355	1.617913219	-1.085083017	6.702667154	-0.724853516	-0.0390625	-0.752441406	888.94	25.12586486	-21.63599485	-149.5983769	-56
52087	0	0.407836914	0.074951172	0.096801758	0.988927841	0.032055855	-0.027481079	0.14225769	10.19592285	1.873779297	2.420043945	1.608734062	-1.379147376	7.139250963	-0.737548828	0.129150391	-0.722167969	888.96	21.91389514	-31.08496917	-134.2430671	-66
52088	0	0.448172569	0.085082054	0.171230316	0.988965988	0.026618958	-0.025464058	0.143486023	11.20431423	2.127051353	4.280757904	1.335864579	-1.277906281	7.200803992	-0.699951172	0.302246094	-0.703857422	888.96	14.48917854	-39.05982772	-116.1670115	-70
52089	0	0.434082031	0.137512207	0.154785156	0.989603043	-0.009634972	-0.020355225	0.142047882	10.85205078	3.437805176	3.869628906	-0.483425043	-1.02130299	7.127110092	-0.609375	0.471435547	-0.690917969	889.06	-0.752278094	-43.35889946	-94.91529146	-58
52090	0	0.319812775	0.012052536	0.185255051	0.988121033	-0.069062233	-0.032021523	0.133498192	7.995319366	0.3013134	4.631376266	-3.466850032	-1.60744609	6.701466065	-0.465576172	0.665771484	-0.642578125	889	-23.87949489	-43.6485255	-73.08634716	-57
52091	0	0.329589844	-0.238342285	0.042053223	0.987883568	-0.092689514	-0.045424461	0.115886688	8.239746094	-5.958557129	1.051330566	-4.653283402	-2.280440178	5.817849061	-0.295166016	0.860107422	-0.484863281	889.1	-47.13590406	-40.09525792	-54.41834281	-56
52092	0	0.305912018	-0.379388809	-0.017209053	0.990263939	-0.07515049	-0.058223724	0.101683617	7.647800446	-9.48472023	-0.430226326	-3.769766564	-2.920670909	5.100745173	-0.119384766	0.976074219	-0.297607422	889	-65.00870846	-34.06905609	-39.27780312	-56
52093	0	0.270019531	-0.352294922	-0.187561035	0.990164757	-0.081882477	-0.067099571	0.091461182	6.750488281	-8.807373047	-4.689025879	-4.107598051	-3.366020164	4.588109521	0.055419922	1.015869141	-0.153564453	888.88	-80.60631166	-26.25637374	-27.16470213	-60
52094	0	0.316994667	-0.380550385	-0.22713089	0.991021156	-0.075695038	-0.073829651	0.081824303	7.924866676	-9.513759613	-5.678272247	-3.796119468	-3.702569983	4.103503177	0.227783203	1.008789063	-0.011230469	889.06	-92.98967312	-17.30676438	-17.48365872	-68
52095	0	0.431640625	-0.253662109	-0.239807129	0.991877556	-0.093837738	-0.055182457	0.065788269	10.79101563	-6.341552734	-5.995178223	-4.704631362	-2.766617388	3.298348407	0.385742188	0.959472656	0.100585938	889.02	-105.0272714	-8.84930929	-12.2698592	-75
52096	0	0.976261139	-1.371631622	-0.30045414	0.992794991	0.0900774	-0.00438118	0.078881264	24.40652847	-34.29079056	-7.511353493	4.514716021	-0.219586518	3.953561097	0.516113281	0.879882813	0.222167969	888.96	-94.62019751	0.121191454	-13.35510043	-65
52097	0	0.211242676	-0.475158691	0.040649414	0.993880272	0.091358185	0.019192696	0.059047699	5.281066895	-11.87896729	1.016235352	4.577249695	0.961597041	2.958421981	0.661621094	0.821533203	-0.016601563	889.04	-84.28395032	6.872016693	-15.50419232	-75
52098	0	-0.128040314	-0.053828239	0.232243538	0.997368813	0.05704689	-0.004995346	0.044446945	-3.201007843	-1.345705986	5.806088448	2.854848537	-0.24998657	2.22429822	0.750732422	0.743896484	-0.131591797	888.94	-77.53722831	11.77921501	-14.12751235	-85
52099	0	-0.260681152	-0.311340332	0.267211914	0.99895668	-0.039328575	0.007266998	0.022022247	-6.517028809	-7.783508301	6.680297852	-1.967112577	0.363476268	1.101495274	0.807617188	0.674316406	-0.201660156	889	-82.14967802	14.38699795	-14.51601912	-72
52100	0	-0.178307533	-0.609985352	0.209068298	0.996034622	-0.088365555	0.009160042	0.004647255	-4.457688332	-15.24963379	5.226707458	-4.424126283	0.458608355	0.232670329	0.824951172	0.672363281	-0.103515625	888.96	-92.56676583	14.94397283	-15.5789883	-74
52101	0	-0.134460449	-0.584716797	0.05871582	0.991703033	-0.127776146	-0.004360199	0.01335144	-3.36151123	-14.61791992	1.467895508	-6.406534222	-0.218614858	0.669424323	0.829833984	0.664306641	0.039550781	889.04	-107.1899267	16.5112939	-15.34247613	-74
52102	0	-0.03841114	-0.470538139	-0.296081543	0.994413376	-0.10519886	0.007266045	0.004592896	-0.960278511	-11.76345348	-7.402038574	-5.269758864	0.363980208	0.230073328	0.843994141	0.604736328	0.195068359	889.12	-119.5680547	16.63149643	-16.3621324	-73
52103	0	-0.003051758	-0.307373047	-0.378662109	0.998790741	-0.043269157	0.022903442	-0.004341125	-0.076293945	-7.684326172	-9.466552734	-2.164329839	1.145633674	-0.217143758	0.836914063	0.554443359	0.318847656	889.1	-125.0966016	14.76792848	-18.39862963	-76
52104	0	0.100891113	-0.20443821	-0.294820786	0.997862816	-0.060980797	0.020664215	0.011097908	2.522277832	-5.110955238	-7.370519638	-3.051213324	1.03394727	0.555290954	0.822021484	0.531005859	0.397460938	889	-132.7964552	14.21973382	-21.12846013	-85
52105	0	-0.276611328	-0.297119141	-0.196289063	0.992284775	-0.123568535	0.007793427	0.006381989	-6.915283203	-7.427978516	-4.907226563	-6.194364971	0.390676544	0.319922594	0.822509766	0.417724609	0.51171875	889.06	-147.295614	13.96603929	-22.29490522	-78
52106	0	0.001342773	-0.325012207	-0.240399361	0.997430801	-0.068228722	0.018372536	-0.01169014	0.033569336	-8.125305176	-6.009984016	-3.414359252	0.919413933	-0.585007837	0.807128906	0.287109375	0.616455078	889.12	-155.0949418	11.43356657	-22.13294367	-80
52107	0	-0.015991211	-0.083984375	-0.263671875	0.999451637	0.007938385	0.031971931	-0.003261566	-0.399780273	-2.099609375	-6.591796875	0.396991781	1.59888869	-0.163108108	0.774169922	0.248535156	0.674072266	888.94	-154.4039914	7.916842032	-23.37718012	-78
52108	0	0.000207901	-0.170313835	-0.311411858	0.998086929	-0.037746429	0.045025826	-0.01924324	0.005197525	-4.257845879	-7.78529644	-1.888525901	2.252727978	-0.962776039	0.72265625	0.259521484	0.722412109	889.1	-158.7472287	2.259151746	-23.39661792	-81
52109	0	0.020568848	-0.214538574	-0.325927734	0.997425079	-0.045084953	0.04775238	-0.028812408	0.514221191	-5.363464355	-8.148193359	-2.256184454	2.389670396	-1.441858164	0.639404297	0.211669922	0.815429688	889.1	-163.9506231	-4.029681241	-22.01083414	-76
52110	0	0.114394188	-0.12110424	-0.364303589	0.998650551	-0.02781868	0.03635025	-0.024530411	2.859854698	-3.02760601	-9.107589722	-1.391559966	1.818330465	-1.227072521	0.548583984	0.186279297	0.877929688	889	-167.3390968	-8.811461605	-20.30203289	-72
52111	0	0.046142578	-0.138305664	-0.350646973	0.999323845	-0.021354675	0.014809608	-0.025978088	1.153564453	-3.457641602	-8.766174316	-1.067974188	0.740647158	-1.299196895	0.489501953	0.155029297	0.912841797	889.06	-170.2481133	-11.10092475	-17.66534012	-73
52112	0	0.067320824	-0.053507805	-0.437399864	0.999212265	-0.032188416	-0.00508213	-0.022628784	1.683020592	-1.337695122	-10.9349966	-1.609843276	-0.254173229	-1.131736231	0.465820313	0.142578125	0.927001953	888.96	-174.4620408	-10.911557	-14.95649598	-77
52113	0	0.018737793	-0.070739746	-0.50189209	0.998786926	-0.032942772	-0.02715683	-0.024520874	0.468444824	-1.768493652	-12.54730225	-1.647804765	-1.358390657	-1.226539562	0.480224609	0.088378906	0.927734375	889	-178.7474835	-8.007303047	-11.91583872	-79
52114	0	-0.022470474	0.066973686	-0.414517403	0.997792244	-0.0098629	-0.064239502	-0.013653755	-0.561761856	1.674342155	-10.36293507	-0.493508206	-3.21434082	-0.683190581	0.541503906	0.068115234	0.891113281	889.1	179.9818237	-0.689115057	-10.25788621	-75
52115	0	-0.040893555	0.098754883	-0.301574707	0.9945364	-0.023868561	-0.101302147	-0.00806427	-1.022338867	2.46887207	-7.539367676	-1.195606175	-5.074351714	-0.403949409	0.675048828	0.053955078	0.809326172	889.06	177.2741575	10.93007454	-9.598953744	-70
52116	0	-0.042253494	0.083902359	-0.099021912	0.993924141	0.003424644	-0.109134674	-0.013860703	-1.056337357	2.097558975	-2.475547791	0.171579846	-5.46781155	-0.694442073	0.83203125	0.029541016	0.651367188	889	177.9838275	23.49076392	-8.475927929	-67
52117	0	-0.083007813	0.091491699	-0.084716797	0.994412422	0.061748505	-0.082480431	-0.022949219	-2.075195313	2.28729248	-2.117919922	3.093187813	-4.131718886	-1.149602637	0.952636719	0.077636719	0.471679688	888.96	-173.3145672	32.81825579	-5.063368946	-67
52118	0	-0.129144669	0.162003517	-0.121346474	0.993677139	0.091475487	-0.051922798	-0.039268494	-3.228616714	4.050087929	-3.033661842	4.583438574	-2.601625467	-1.967573335	1.003417969	0.193115234	0.302246094	889.1	-158.7343379	37.49568357	2.023661159	-69
52119	0	-0.507629395	0.15423584	-0.312866211	0.996101379	0.046368599	0.028526306	-0.069412231	-12.69073486	3.855895996	-7.821655273	2.321447473	1.428171712	-3.475128708	1.001708984	0.328857422	0.194824219	889.06	-149.5377305	31.06582324	8.941283092	-70
52120	0	-0.249938965	-0.159423828	-0.44342041	0.995324135	-0.007464409	0.005535126	-0.096141815	-6.248474121	-3.985595703	-11.08551025	-0.373803227	0.277188441	-4.814597024	0.924560547	0.492675781	0.243652344	889	-145.6932579	24.60189906	19.06927017	-69
52121	0	-0.029907227	-0.159667969	-0.189025879	0.994080544	0.077220917	0.013508797	-0.075214386	-0.747680664	-3.991699219	-4.725646973	3.86868163	0.676775617	-3.768156681	0.821777344	0.657226563	0.247070313	889.1	-134.661141	17.88263272	25.0930219	-68
52122	0	-0.068921089	-0.084412575	-0.105294228	0.993854523	0.071780205	0.000163078	-0.084263802	-1.723027229	-2.110314369	-2.63235569	3.596380193	0.008170659	-4.221841772	0.712158203	0.807617188	0.127197266	889.02	-124.8816271	10.43967437	31.44058385	-78
52123	0	0.151916504	-1.013916016	-0.50769043	0.98698616	0.145466805	-0.012348175	-0.067409515	3.797912598	-25.34790039	-12.69226074	7.30505525	-0.620100931	-3.385172555	0.552490234	0.941894531	0.034423828	889.1	-107.5454578	4.118474027	36.14608902	-79
52124	0	-0.063307762	-0.465660095	-0.055887222	0.997832298	0.055943489	-0.034635544	0.000170708	-1.582694054	-11.64150238	-1.397180557	2.799196708	-1.733029203	0.008541556	0.465332031	0.947021484	-0.304443359	889.02	-100.8432705	5.10766265	40.00696813	-72
52125	0	0.149658203	-0.18927002	0.047241211	0.995117188	-0.092284203	-0.027957916	0.0210495	3.741455078	-4.731750488	1.181030273	-4.621734406	-1.400175327	1.05419122	0.470703125	0.939941406	-0.324462891	889.02	-111.1768778	8.299746588	42.44128985	-72
52126	0	-0.018837929	-0.441913605	-0.09629631	0.999018669	-0.034147263	-0.02771759	-0.005189896	-0.470948219	-11.04784012	-2.407407761	-1.707921712	-1.386332923	-0.259579678	0.495361328	0.969238281	-0.177001953	889.1	-114.6292691	8.974988871	45.6286968	-73
52127	0	-0.00012207	-0.270690918	-0.132263184	0.999251366	0.032096863	-0.009707451	-0.019256592	-0.003051758	-6.767272949	-3.30657959	1.605243352	-0.485493584	-0.963069698	0.463867188	0.983642578	-0.188232422	889.1	-110.6973332	7.352018585	47.51731217	-75
52128	0	-0.094899178	-0.429893494	-0.153930664	0.998871803	0.040598869	-0.009366989	-0.022746086	-2.372479439	-10.74733734	-3.848266602	2.030706617	-0.468525531	-1.137731872	0.414794922	0.989257813	-0.258544922	889	-105.8563623	5.200737141	49.35807477	-75
52129	0	-0.007568359	-0.482543945	-0.065917969	0.999271393	0.037964821	-0.001663208	0.003417969	-0.189208984	-12.06359863	-1.647949219	1.898701914	-0.083180591	0.17093993	0.386230469	0.973876953	-0.366210938	889.1	-101.5083306	5.612665286	49.44601746	-79
52130	0	-0.033555031	-0.280946732	0.025473595	0.999059677	-0.043292046	-0.001612663	0.001449585	-0.838875771	-7.023668289	0.636839867	-2.1652807	-0.080658435	0.072501964	0.385009766	0.960205078	-0.397216797	889.18	-106.4648128	5.805180673	49.58214868	-78
52131	0	-0.046813965	-0.397277832	-0.076416016	0.999984741	-0.00404644	0.003082275	0.001895905	-1.170349121	-9.931945801	-1.910400391	-0.202323	0.154114526	0.094795693	0.394287109	0.987304688	-0.303955078	889.02	-106.9753468	5.898374412	49.17375042	-77
52132	0	-0.057278633	-0.35855484	-0.129053116	0.999958992	-0.006682396	0.004871368	-0.003537178	-1.431965828	-8.963871002	-3.226327896	-0.334124302	0.243571704	-0.176861287	0.396728516	0.985107422	-0.309570313	889.16	-107.7882107	5.332357038	48.75496177	-75
52133	0	-0.030761719	-0.396911621	-0.129821777	0.99998188	-0.004371643	0.003911018	-0.000133514	-0.769042969	-9.922790527	-3.245544434	-0.218583407	0.195552041	-0.006675759	0.391357422	0.9921875	-0.286621094	889.06	-108.3344913	5.165923989	48.32696285	-79
52134	0	-0.03125	-0.359375	-0.11151123	0.999995232	-0.001487732	0.001731873	0.001594543	-0.78125	-8.984375	-2.787780762	-0.074386693	0.08659374	0.079727276	0.393554688	0.994384766	-0.281005859	889.18	-108.5335776	5.26338892	48.07515104	-75
52135	0	-0.03314209	-0.364807129	-0.137023926	0.999999046	0.000102997	-0.000731468	-0.00019455	-0.828552246	-9.120178223	-3.425598145	0.005149842	-0.036573414	-0.009727479	0.395751953	0.994140625	-0.278320313	889.06	-108.5205906	5.255609856	48.157107	-77
52136	0	-0.034694672	-0.3723526	-0.116511345	0.999990463	0.004043579	-0.001326561	0.000416756	-0.867366791	-9.308815002	-2.912783623	0.202179571	-0.066328251	0.020837847	0.3984375	0.991943359	-0.284179688	889.06	-108.0515439	5.335347964	48.28196507	-76
52137	0	-0.038818359	-0.367431641	-0.105834961	0.999998093	0.001450539	-0.000709534	-0.000301361	-0.970458984	-9.185791016	-2.645874023	0.072526964	-0.035476701	-0.015068061	0.395996094	0.991943359	-0.289794922	889.1	-107.8826858	5.314473219	48.36546279	-77
52138	0	-0.034047127	-0.365374565	-0.103752136	0.999999046	-0.000619888	0.000219345	-0.000679016	-0.851178169	-9.134364128	-2.593803406	-0.03099442	0.010967256	-0.033950811	0.393798828	0.989746094	-0.286621094	889.06	-107.9585341	5.219544503	48.3606383	-76
52139	0	-0.034667969	-0.37097168	-0.111938477	0.999998093	-0.001891136	0.00038147	-1.14441E-05	-0.866699219	-9.274291992	-2.798461914	-0.094556867	0.019073498	-0.000572205	0.396240234	0.989746094	-0.286621094	889.1	-108.1833594	5.191533802	48.31453675	-76
52140	0	-0.034509659	-0.369250298	-0.117330551	0.999999046	-0.001259804	-0.000146866	8.29697E-05	-0.86274147	-9.231257439	-2.933263779	-0.062990206	-0.007343294	0.004148484	0.395996094	0.991943359	-0.281005859	889.1	-108.3306851	5.192585632	48.32285826	-77
52141	0	-0.03503418	-0.368896484	-0.116516113	0.999999046	0.000461578	-0.000403404	0.0001297	-0.875854492	-9.222412109	-2.912902832	0.02307892	-0.020170213	0.006484986	0.393554688	0.991943359	-0.286865234	889.1	-108.2780697	5.207961219	48.35770948	-76
52142	0	-0.035342216	-0.368440628	-0.110837936	0.999999046	0.000284195	-0.00022316	1.43051E-05	-0.883555412	-9.211015701	-2.77094841	0.014209748	-0.01115799	0.000715256	0.393554688	0.991943359	-0.283935547	889.12	-108.2466487	5.204302865	48.3769486	-77
52143	0	-0.03515625	-0.366882324	-0.111999512	0.999999046	-0.000377655	-0.000170708	3.8147E-06	-0.87890625	-9.172058105	-2.799987793	-0.018882752	-0.008535385	0.000190735	0.393798828	0.991943359	-0.289794922	889.1	-108.2911254	5.197638142	48.39096077	-77
52144	0	-0.035259247	-0.368871689	-0.113670349	0.999999046	-0.000414848	-1.90735E-06	6.48499E-05	-0.881481171	-9.221792221	-2.841758728	-0.020742417	-9.53674E-05	0.003242493	0.393554688	0.991943359	-0.286865234	889.1	-108.3413479	5.191558758	48.38429181	-77
52145	0	-0.034973145	-0.36932373	-0.116638184	0.999999046	-0.000267029	-0.000170708	-0.000213623	-0.874328613	-9.233093262	-2.91595459	-0.013351441	-0.008535385	-0.010681153	0.393554688	0.991943359	-0.283935547	889.12	-108.3717979	5.161273008	48.40610774	-77
52146	0	-0.035099983	-0.368423462	-0.114809036	0.999999046	3.24249E-05	3.8147E-06	-0.000161171	-0.87749958	-9.210586548	-2.870225906	0.001621246	0.000190735	-0.008058548	0.395751953	0.994140625	-0.28125	889.02	-108.369489	5.130411065	48.40692715	-79
52147	0	-0.034606934	-0.367736816	-0.113464355	0.999999046	-0.00012207	-7.15256E-05	-3.05176E-05	-0.86517334	-9.19342041	-2.836608887	-0.006103516	-0.003576279	-0.001525879	0.395996094	0.994140625	-0.287109375	889.12	-108.3841932	5.116487041	48.41142136	-78
52148	0	-0.034052849	-0.367711067	-0.115564346	0.999999046	-0.000250816	-0.000177383	-4.673E-05	-0.85132122	-9.19277668	-2.889108658	-0.012540817	-0.008869171	-0.002336502	0.393554688	0.989746094	-0.280761719	889.18	-108.412297	5.104611013	48.428009	-79
52149	0	-0.034851074	-0.36932373	-0.114135742	0.999999046	7.62939E-05	-0.000266075	1.90735E-05	-0.871276855	-9.233093262	-2.853393555	0.003814697	-0.013303757	0.000953674	0.391113281	0.994384766	-0.283935547	889.1	-108.4019	5.103122284	48.45209991	-79
52150	0	-0.034804344	-0.367936134	-0.113634109	0.999999046	-0.000240326	-5.34058E-05	9.91821E-05	-0.870108604	-9.198403358	-2.840852737	-0.012016297	-0.002670288	0.004959107	0.393554688	0.9921875	-0.278076172	889.12	-108.4297513	5.102672599	48.44984956	-79
52151	0	-0.034606934	-0.368164063	-0.115600586	0.999999046	-4.95911E-05	-3.71933E-05	5.34058E-05	-0.86517334	-9.204101563	-2.890014648	-0.002479553	-0.001859665	0.002670288	0.393554688	0.991943359	-0.281005859	889.1	-108.4354878	5.096669733	48.44763095	-79
52152	0	-0.034716606	-0.368027687	-0.114841461	0.999999046	3.33786E-05	-0.00015831	3.71933E-05	-0.867915154	-9.200692177	-2.87103653	0.00166893	-0.007915497	0.001859665	0.391113281	0.994384766	-0.278076172	889.1	-108.4301937	5.093312657	48.45929178	-79
52153	0	-0.034667969	-0.368469238	-0.11517334	0.999999046	-0.000389099	-6.67572E-06	3.8147E-06	-0.866699219	-9.211730957	-2.879333496	-0.019454957	-0.000333786	0.000190735	0.393310547	0.994384766	-0.278320313	889.1	-108.4743954	5.08084681	48.45556692	-80
52154	0	-0.034916878	-0.368439674	-0.116864204	0.999999046	-0.000335693	2.09808E-05	7.24792E-05	-0.872921944	-9.210991859	-2.92160511	-0.016784668	0.001049042	0.003623962	0.393554688	0.991943359	-0.281005859	889.1	-108.5127609	5.074865235	48.4463932	-80
52155	0	-0.034240723	-0.367614746	-0.116394043	0.999999046	6.48499E-05	-7.15256E-05	9.91821E-05	-0.856018066	-9.190368652	-2.909851074	0.003242493	-0.003576279	0.004959106	0.391113281	0.994384766	-0.281005859	889.06	-108.5041996	5.075149667	48.44644349	-81
52156	0	-0.034941673	-0.368416786	-0.116219521	0.999999046	-2.76566E-05	-0.000148773	0.000152588	-0.873541832	-9.210419655	-2.905488014	-0.001382828	-0.00743866	0.007629395	0.393554688	0.994384766	-0.281005859	889.06	-108.505432	5.084079662	48.45286587	-81
52157	0	-0.03503418	-0.368286133	-0.113891602	0.999999046	-0.000255585	-9.05991E-05	2.28882E-05	-0.875854492	-9.20715332	-2.847290039	-0.012779236	-0.004529953	0.001144409	0.393554688	0.991943359	-0.283935547	889.06	-108.5325879	5.076838643	48.45775348	-81
52158	0	-0.034645081	-0.367493629	-0.115538597	0.999999046	-0.000387192	8.01086E-05	-6.86646E-05	-0.866127014	-9.187340736	-2.888464928	-0.019359589	0.004005432	-0.003433228	0.393554688	0.994384766	-0.281005859	889	-108.5759277	5.053450828	48.4473691	-81
52159	0	-0.034729004	-0.368041992	-0.116455078	0.999999046	-7.24792E-05	7.72476E-05	3.43323E-05	-0.868225098	-9.201049805	-2.911376953	-0.003623962	0.003862381	0.001716614	0.393554688	0.994384766	-0.281005859	889.06	-108.5832858	5.041380015	48.43356123	-81
52160	0	-0.034492493	-0.368877411	-0.116819382	0.999999046	-8.86917E-05	-0.000123978	7.9155E-05	-0.862312317	-9.221935272	-2.920484543	-0.004434586	-0.006198883	0.003957748	0.391113281	0.994384766	-0.281005859	889.06	-108.5905048	5.041542301	48.44014655	-81
52161	0	-0.034912109	-0.367126465	-0.116455078	0.999999046	-5.72205E-05	-6.77109E-05	0.000221252	-0.872802734	-9.178161621	-2.911376953	-0.002861023	-0.003385544	0.011062622	0.393554688	0.9921875	-0.275146484	889.1	-108.5949176	5.055126597	48.43518919	-80
52162	0	-0.035274506	-0.368379593	-0.115455627	0.999999046	-0.000289917	0	2.28882E-05	-0.88186264	-9.209489822	-2.886390686	-0.01449585	0	0.001144409	0.393554688	0.994384766	-0.281005859	889.12	-108.6257423	5.04474531	48.43034701	-80
52163	0	-0.034667969	-0.368591309	-0.116333008	0.999999046	-0.000335693	3.14713E-05	-1.14441E-05	-0.866699219	-9.214782715	-2.908325195	-0.016784668	0.001573563	-0.000572205	0.395751953	0.994140625	-0.278320313	889.06	-108.6617742	5.029503069	48.42322576	-80
52164	0	-0.034729004	-0.367736816	-0.115539551	0.999999046	-0.000330925	5.34058E-05	9.91821E-05	-0.868225098	-9.19342041	-2.88848877	-0.01654625	0.002670288	0.004959107	0.393310547	0.996582031	-0.275390625	889.02	-108.6975665	5.025496866	48.40977802	-79
52165	0	-0.034697533	-0.367743492	-0.115796089	0.999998093	-0.00032711	-3.05176E-05	6.29425E-05	-0.867438316	-9.193587303	-2.894902229	-0.016355515	-0.001525879	0.003147125	0.390869141	0.994384766	-0.275146484	889.02	-108.7317518	5.020669273	48.4068809	-80
52166	0	-0.034523964	-0.367739677	-0.116762161	0.999999046	-8.2016E-05	9.53674E-06	9.15527E-05	-0.863099098	-9.193491936	-2.919054031	-0.0041008	0.000476837	0.004577637	0.393310547	0.994384766	-0.275390625	889.1	-108.7381157	5.017495383	48.39847658	-79
52167	0	-0.034240723	-0.36730957	-0.1171875	0.999999046	8.01086E-05	-4.48227E-05	0.000133514	-0.856018066	-9.182739258	-2.9296875	0.004005432	-0.002241135	0.00667572	0.393554688	0.9921875	-0.275146484	889.02	-108.7253404	5.020888354	48.39445237	-79
52168	0	-0.034960747	-0.368173599	-0.116148949	0.999999046	-7.72476E-05	-0.000110626	6.86646E-05	-0.874018669	-9.204339981	-2.903723717	-0.003862381	-0.005531311	0.003433228	0.393310547	0.994384766	-0.278320313	889.1	-108.7295262	5.019709399	48.40011172	-79
52169	0	-0.034790039	-0.368103027	-0.116088867	0.999999046	-0.000358582	-0.000109673	0.000133514	-0.869750977	-9.202575684	-2.90222168	-0.017929078	-0.005483627	0.00667572	0.393310547	0.994384766	-0.26953125	888.96	-108.7659387	5.025568038	48.4031327	-79
52170	0	-0.034791946	-0.366728783	-0.117198944	0.999999046	3.43323E-05	5.14984E-05	0.000217438	-0.86979866	-9.168219566	-2.929973602	0.001716614	0.002574921	0.010871887	0.393554688	0.9921875	-0.278076172	888.96	-108.7589765	5.034631051	48.38568606	-79
52171	0	-0.034912109	-0.367980957	-0.117004395	0.999999046	3.8147E-05	-0.000132561	7.62939E-06	-0.872802734	-9.199523926	-2.925109863	0.001907349	-0.006628037	0.00038147	0.393310547	0.994384766	-0.278320313	889.04	-108.7489544	5.027745817	48.39604352	-79
52172	0	-0.034827232	-0.36798954	-0.116967201	1	-3.43323E-05	-4.673E-05	1.52588E-05	-0.870680809	-9.199738503	-2.924180031	-0.001716614	-0.002336502	0.000762939	0.393310547	0.996582031	-0.275390625	888.94	-108.7479045	5.018555953	48.39672126	-79
52173	0	-0.03503418	-0.367736816	-0.116943359	0.999999046	-0.00030899	0.000126839	-7.24792E-05	-0.875854492	-9.19342041	-2.923583984	-0.015449524	0.006341934	-0.003623962	0.393310547	0.994384766	-0.275390625	889.12	-108.7795247	4.993494114	48.38174707	-78
52174	0	-0.034769058	-0.367120743	-0.116874695	0.999999046	-0.000242233	0.000116348	0.000141144	-0.869226456	-9.17801857	-2.921867371	-0.012111664	0.005817413	0.00705719	0.395751953	0.994140625	-0.278320313	888.96	-108.8039107	4.992030252	48.36002269	-78
52175	0	-0.034118652	-0.367553711	-0.117736816	0.999999046	-4.57764E-05	-2.95639E-05	0.000167847	-0.852966309	-9.188842773	-2.94342041	-0.002288818	-0.001478195	0.008392334	0.393310547	0.996582031	-0.272460938	888.94	-108.8043491	4.998854586	48.35323149	-78
52176	0	-0.034676552	-0.367531776	-0.116731644	0.999999046	1.81198E-05	-0.000249863	0.000132561	-0.866913795	-9.188294411	-2.918291092	0.000905991	-0.012493134	0.006628037	0.393310547	0.994384766	-0.278320313	889.1	-108.7950764	5.01001842	48.37183111	-78
52177	0	-0.034973145	-0.367614746	-0.116699219	0.999999046	-1.90735E-05	-7.15256E-05	0.000114441	-0.874328613	-9.190368652	-2.917480469	-0.000953674	-0.003576279	0.005722046	0.393310547	0.994384766	-0.278320313	889.12	-108.7915226	5.012671438	48.37166011	-78
52178	0	-0.034892082	-0.367786407	-0.117013931	0.999999046	-6.48499E-05	2.67029E-05	5.34058E-05	-0.872302055	-9.194660187	-2.925348282	-0.003242493	0.001335144	0.002670288	0.393310547	0.994384766	-0.26953125	888.96	-108.7937909	5.005111606	48.36290393	-77
52179	0	-0.034179688	-0.367614746	-0.116027832	0.999999046	-0.000137329	6.58035E-05	-3.05176E-05	-0.854492188	-9.190368652	-2.900695801	-0.006866455	0.003290176	-0.001525879	0.393310547	0.994384766	-0.275390625	889	-108.8042614	4.987007857	48.3531914	-77
52180	0	-0.034264565	-0.368134499	-0.116744041	0.999999046	-9.63211E-05	-0.000127792	4.48227E-05	-0.856614113	-9.203362465	-2.918601036	-0.004816055	-0.006389618	0.002241135	0.393310547	0.994384766	-0.26953125	889.06	-108.8082679	4.984235985	48.36165476	-76
52181	0	-0.034423828	-0.366638184	-0.118225098	0.999999046	1.90735E-05	-8.67844E-05	4.19617E-05	-0.860595703	-9.16595459	-2.955627441	0.000953674	-0.004339218	0.002098083	0.393066406	0.996582031	-0.269775391	889	-108.7993555	4.979660607	48.3658407	-77
52182	0	-0.034719467	-0.367799759	-0.117045403	0.999999046	-7.24792E-05	1.52588E-05	0.000148773	-0.867986679	-9.194993973	-2.926135063	-0.003623962	0.000762939	0.00743866	0.390869141	0.996582031	-0.272460938	889	-108.8020976	4.982939761	48.3551006	-76
52183	0	-0.035095215	-0.368713379	-0.116394043	0.999999046	-2.67029E-05	-6.00815E-05	-1.52588E-05	-0.877380371	-9.217834473	-2.909851074	-0.001335144	-0.003004074	-0.000762939	0.393066406	0.996582031	-0.269775391	889.02	-108.7981652	4.971256251	48.35846658	-76
52184	0	-0.034488678	-0.367182732	-0.116837502	0.999999046	2.38419E-05	-0.000192642	6.67572E-06	-0.862216949	-9.179568291	-2.920937538	0.001192093	-0.009632111	0.000333786	0.395751953	0.996582031	-0.275634766	889	-108.7871253	4.966870983	48.37551113	-76
52185	0	-0.034362793	-0.367736816	-0.116699219	0.999999046	-0.000209808	-0.000105858	3.8147E-05	-0.859069824	-9.19342041	-2.917480469	-0.010490418	-0.005292893	0.001907349	0.393310547	0.994384766	-0.275390625	889	-108.8036352	4.962714355	48.38202457	-76
52186	0	-0.034966469	-0.367624283	-0.118738174	0.999999046	-0.000114441	3.24249E-05	3.43323E-05	-0.87416172	-9.190607071	-2.968454361	-0.005722046	0.001621246	0.001716614	0.393310547	0.994384766	-0.272460938	889.02	-108.81046	4.953084725	48.37355165	-76
52187	0	-0.034484863	-0.367919922	-0.118225098	0.999999046	0.000175476	-0.000109673	-3.43323E-05	-0.862121582	-9.197998047	-2.955627441	0.008773804	-0.005483627	-0.001716614	0.395751953	0.996582031	-0.275634766	889.06	-108.7824306	4.94128007	48.38309808	-76
52188	0	-0.03381443	-0.367170334	-0.116136551	0.999999046	-0.000144005	-0.00019455	4.57764E-05	-0.845360756	-9.179258347	-2.903413773	-0.007200241	-0.009727478	0.002288818	0.393310547	0.994384766	-0.272460938	889.02	-108.7903178	4.941296077	48.39894883	-76
52189	0	-0.034484863	-0.368225098	-0.117858887	0.999999046	-0.000160217	-9.44138E-05	2.67029E-05	-0.862121582	-9.205627441	-2.946472168	-0.008010864	-0.004720688	0.001335144	0.393310547	0.994384766	-0.275390625	889.02	-108.8008546	4.935575003	48.4046726	-76
52190	0	-0.034526825	-0.366354942	-0.116749763	0.999999046	0.000118256	-0.000165939	6.00815E-05	-0.863170624	-9.158873558	-2.918744087	0.005912781	-0.008296967	0.003004074	0.393066406	0.996582031	-0.269775391	889.1	-108.7788064	4.936153259	48.41684544	-75
52191	0	-0.034179688	-0.367797852	-0.115905762	0.999999046	3.43323E-05	-0.000220299	3.8147E-05	-0.854492188	-9.194946289	-2.897644043	0.001716614	-0.011014938	0.001907349	0.393310547	0.996582031	-0.272460938	889.06	-108.765631	4.936367817	48.43583392	-75
52192	0	-0.034748077	-0.366888046	-0.117330551	0.999999046	-0.000235558	-0.000164032	9.53674E-05	-0.868701935	-9.172201157	-2.933263779	-0.011777878	-0.008201599	0.004768372	0.393066406	0.996582031	-0.269775391	889.06	-108.7840194	4.940760535	48.44654474	-76
52193	0	-0.034667969	-0.367370605	-0.117553711	0.999999046	-0.000171661	-0.000136375	1.90735E-05	-0.866699219	-9.184265137	-2.938842773	-0.008583069	-0.006818771	0.000953674	0.390869141	0.996582031	-0.26953125	889.1	-108.7950279	4.93589512	48.45716653	-75
52194	0	-0.034959793	-0.367328644	-0.119502068	1	-2.00272E-05	-2.95639E-05	-2.00272E-05	-0.873994827	-9.183216095	-2.987551689	-0.001001358	-0.001478195	-0.001001358	0.395751953	0.994384766	-0.272460938	888.96	-108.7895555	4.922894633	48.45743486	-75
52195	0	-0.034545898	-0.36706543	-0.117736816	0.999999046	9.53674E-05	-0.000117302	-5.72205E-05	-0.863647461	-9.176635742	-2.94342041	0.004768372	-0.005865097	-0.002861023	0.393310547	0.994384766	-0.272460938	889.04	-108.7698629	4.909132518	48.46877066	-75
52196	0	-0.034837723	-0.368251801	-0.117780685	0.999999046	6.58035E-05	-0.000141144	2.67029E-05	-0.870943069	-9.206295013	-2.944517136	0.003290176	-0.00705719	0.001335144	0.393310547	0.994384766	-0.272460938	889.06	-108.7535341	4.905400153	48.47957898	-76
52197	0	-0.034301758	-0.36730957	-0.116638184	0.999999046	-4.95911E-05	-0.000117302	6.10352E-05	-0.857543945	-9.182739258	-2.91595459	-0.002479553	-0.005865097	0.003051758	0.393310547	0.994384766	-0.266601563	889.02	-108.7506579	4.904539943	48.48641343	-76
52198	0	-0.034863472	-0.366500854	-0.118497849	0.999999046	-5.34058E-05	-3.24249E-05	8.7738E-05	-0.8715868	-9.162521362	-2.962446213	-0.002670288	-0.001621246	0.004386902	0.390625	0.999023438	-0.269775391	888.96	-108.7490984	4.903509295	48.48329081	-76
52199	0	-0.034912109	-0.367431641	-0.117919922	0.999999046	0.000102997	-6.38962E-05	-3.05176E-05	-0.872802734	-9.185791016	-2.947998047	0.005149841	-0.003194809	-0.001525879	0.393066406	0.996582031	-0.269775391	888.96	-108.7289126	4.890859736	48.48775632	-76
52200	0	-0.034356117	-0.366909027	-0.117413521	0.999999046	0.000126839	-0.00028038	-6.48499E-05	-0.858902931	-9.172725677	-2.93533802	0.006341934	-0.014019013	-0.003242493	0.390869141	0.996582031	-0.272460938	889	-108.7038331	4.882473873	48.51720743	-77
52201	0	-0.034545898	-0.367248535	-0.117492676	0.999999046	-0.000205994	-0.000128746	4.57764E-05	-0.863647461	-9.181213379	-2.937316895	-0.010299683	-0.006437302	0.002288818	0.393310547	0.996582031	-0.272460938	889.02	-108.7186109	4.880557388	48.52592906	-76
52202	0	-0.034854889	-0.366769791	-0.117817879	0.999999046	-0.00028801	-1.14441E-05	7.62939E-06	-0.871372223	-9.169244766	-2.945446968	-0.014400482	-0.000572205	0.00038147	0.393310547	0.994384766	-0.26953125	888.94	-108.7437355	4.870246784	48.52323901	-76
52203	0	-0.034545898	-0.368225098	-0.118286133	0.999999046	0.000152588	-6.00815E-05	6.48499E-05	-0.863647461	-9.205627441	-2.95715332	0.007629395	-0.003004074	0.003242493	0.393310547	0.996582031	-0.272460938	889.06	-108.7180732	4.867976612	48.52386582	-76
52204	0	-0.034303665	-0.367464066	-0.117742538	0.999999046	-1.62125E-05	-0.000156403	1.52588E-05	-0.857591629	-9.186601639	-2.943563461	-0.000810623	-0.007820129	0.000762939	0.393066406	0.998779297	-0.269775391	889.04	-108.7106769	4.863895577	48.53676483	-77
52205	0	-0.034973145	-0.367126465	-0.118286133	0.999999046	-0.000278473	4.673E-05	2.67029E-05	-0.874328613	-9.178161621	-2.95715332	-0.013923645	0.002336502	0.001335144	0.393310547	0.996582031	-0.272460938	888.9	-108.7352478	4.853652782	48.52716015	-77
52206	0	-0.034555435	-0.367670059	-0.11757946	0.999999046	-8.96454E-05	-4.95911E-05	-1.62125E-05	-0.86388588	-9.19175148	-2.939486504	-0.004482269	-0.002479553	-0.000810623	0.390625	0.996826172	-0.266601563	888.96	-108.73711	4.842342269	48.52959629	-77
52207	0	-0.034545898	-0.367431641	-0.118530273	0.999999046	4.95911E-05	-0.000144005	8.01086E-05	-0.863647461	-9.185791016	-2.963256836	0.002479553	-0.007200241	0.004005432	0.393310547	0.996582031	-0.272460938	888.96	-108.7224511	4.845005283	48.53878234	-77
52208	0	-0.034761429	-0.367499352	-0.118484497	0.999999046	4.76837E-06	6.10352E-05	0.000113487	-0.869035721	-9.187483788	-2.962112427	0.000238419	0.003051758	0.005674362	0.390869141	0.996582031	-0.272460938	889.1	-108.7149222	4.8438062	48.52449439	-77
52209	0	-0.034729004	-0.3671875	-0.117614746	0.999999046	-6.86646E-05	-8.29697E-05	2.67029E-05	-0.868225098	-9.1796875	-2.940368652	-0.003433228	-0.004148483	0.001335144	0.390869141	0.994384766	-0.275146484	888.96	-108.7141829	4.838540585	48.52907015	-77
52210	0	-0.034952164	-0.368452072	-0.117476463	0.999999046	-8.96454E-05	-3.8147E-06	-0.000125885	-0.873804092	-9.211301804	-2.936911583	-0.004482269	-0.000190735	-0.006294251	0.390625	0.996826172	-0.266601563	889.04	-108.7160436	4.813864974	48.53045846	-77
52211	0	-0.034484863	-0.366821289	-0.117858887	0.999999046	-9.91821E-05	-6.67572E-06	2.28882E-05	-0.862121582	-9.170532227	-2.946472168	-0.004959106	-0.000333786	0.001144409	0.393066406	0.998779297	-0.269775391	889.02	-108.7194207	4.805493436	48.52673888	-77
52212	0	-0.034503937	-0.366796494	-0.118297577	1	-1.90735E-06	-4.673E-05	4.48227E-05	-0.862598419	-9.169912338	-2.957439423	-9.53674E-05	-0.002336502	0.002241135	0.390869141	0.994384766	-0.266357422	889.02	-108.7113628	4.801029679	48.52656241	-76
52213	0	-0.034301758	-0.367370605	-0.118408203	0.999999046	-0.00012207	-4.86374E-05	0.00012207	-0.857543945	-9.184265137	-2.960205078	-0.006103516	-0.00243187	0.006103516	0.393066406	0.996582031	-0.269775391	889.1	-108.7173039	4.805061724	48.52380327	-77
52214	0	-0.034708977	-0.366784096	-0.118800163	0.999999046	8.01086E-05	2.86102E-05	-3.14713E-05	-0.867724419	-9.169602394	-2.970004082	0.004005432	0.001430511	-0.001573563	0.393066406	0.996582031	-0.269775391	889	-108.7003412	4.789651813	48.51828433	-76
52215	0	-0.034667969	-0.36730957	-0.117919922	0.999999046	0.000244141	-7.15256E-05	0.000110626	-0.866699219	-9.182739258	-2.947998047	0.012207031	-0.003576279	0.005531311	0.390869141	0.996582031	-0.272460938	889	-108.6640963	4.793408662	48.51857076	-77
52216	0	-0.034706116	-0.367543221	-0.117796898	0.999999046	-8.10623E-05	-0.000190735	0.000152588	-0.867652893	-9.188580513	-2.944922447	-0.004053116	-0.009536743	0.007629395	0.395507813	0.996582031	-0.266845703	889	-108.6641501	4.806150069	48.52993131	-77
52217	0	-0.034790039	-0.3671875	-0.11730957	0.999999046	-0.000305176	-6.00815E-05	5.34058E-05	-0.869750977	-9.1796875	-2.932739258	-0.015258789	-0.003004074	0.002670288	0.393310547	0.994384766	-0.266601563	888.96	-108.6907445	4.803392692	48.53091229	-76
52218	0	-0.034539223	-0.367477417	-0.119360924	1	-2.00272E-05	-1.23978E-05	2.95639E-05	-0.863480568	-9.186935425	-2.984023094	-0.001001358	-0.000619888	0.001478195	0.393066406	0.996582031	-0.269775391	889.04	-108.6850839	4.796340462	48.52771167	-77
52219	0	-0.034667969	-0.366699219	-0.118774414	0.999999046	0.000331879	2.00272E-05	0.000106812	-0.866699219	-9.167480469	-2.969360352	0.016593933	0.001001358	0.005340576	0.393310547	0.996582031	-0.272460938	888.96	-108.6396754	4.796543745	48.51812856	-76
52220	0	-0.034864426	-0.366526604	-0.117678642	0.999999046	-0.000107765	-9.53674E-05	0.000102997	-0.871610641	-9.163165092	-2.941966057	-0.00538826	-0.004768372	0.005149841	0.393310547	0.994384766	-0.266601563	889	-108.6435918	4.800628582	48.52103247	-76
52221	0	-0.034301758	-0.36706543	-0.119689941	0.999999046	-0.000217438	-7.53403E-05	0.000114441	-0.857543945	-9.176635742	-2.992248535	-0.010871887	-0.003767014	0.005722046	0.393066406	0.998779297	-0.269775391	889.1	-108.6603886	4.805251932	48.52156433	-77
52222	0	-0.03470993	-0.366762161	-0.118806839	0.999999046	-1.14441E-05	8.2016E-05	9.53674E-05	-0.86774826	-9.169054031	-2.970170975	-0.000572205	0.0041008	0.004768372	0.393310547	0.994384766	-0.275390625	889	-108.6550067	4.80208707	48.50568949	-77
52223	0	-0.034362793	-0.367370605	-0.118774414	0.999999046	-7.24792E-05	-7.53403E-05	5.34058E-05	-0.859069824	-9.184265137	-2.969360352	-0.003623962	-0.003767014	0.002670288	0.395507813	0.996582031	-0.272705078	889	-108.6550924	4.800164746	48.50827584	-77
52224	0	-0.034297943	-0.366557121	-0.117358208	0.999999046	-3.33786E-05	-6.67572E-05	0.000277519	-0.857448578	-9.163928032	-2.933955193	-0.00166893	-0.00333786	0.013875961	0.393310547	0.994384766	-0.275390625	889.02	-108.6514494	4.822292903	48.50190353	-76
52225	0	-0.034667969	-0.3671875	-0.118652344	0.999999046	-0.000106812	1.62125E-05	7.62939E-05	-0.866699219	-9.1796875	-2.966308594	-0.005340576	0.000810623	0.003814697	0.395507813	0.996582031	-0.269775391	889.06	-108.656396	4.819569918	48.49358974	-76
52226	0	-0.034659386	-0.367218018	-0.118610382	0.999999046	-2.47955E-05	-0.000131607	3.71933E-05	-0.866484642	-9.180450439	-2.965259552	-0.001239777	-0.006580353	0.001859665	0.395507813	0.996582031	-0.269775391	888.96	-108.6505011	4.818056366	48.50289064	-76
52227	0	-0.034362793	-0.366943359	-0.118469238	0.999999046	8.01086E-05	-1.43051E-05	0.000110626	-0.859069824	-9.173583984	-2.961730957	0.004005432	-0.000715256	0.005531311	0.395751953	0.994384766	-0.26953125	889.12	-108.6339152	4.820239909	48.49669729	-76
52228	0	-0.034630775	-0.366832733	-0.118349075	0.999999046	2.57492E-05	-0.00018692	0.000102997	-0.865769386	-9.170818329	-2.958726883	0.00128746	-0.009346008	0.005149841	0.390869141	0.994384766	-0.269287109	888.96	-108.6219841	4.827950978	48.50990418	-77
52229	0	-0.034606934	-0.36730957	-0.119018555	0.999999046	-4.57764E-05	-5.24521E-05	-1.90735E-05	-0.86517334	-9.182739258	-2.975463867	-0.002288818	-0.002622604	-0.000953674	0.393066406	0.996582031	-0.266845703	889.1	-108.6191624	4.817509484	48.51265683	-76
52230	0	-0.034972191	-0.367117882	-0.119659424	0.999999046	7.82013E-05	1.90735E-06	4.1008E-05	-0.874304771	-9.177947044	-2.991485596	0.003910065	9.53674E-05	0.0020504	0.395507813	0.996582031	-0.266845703	888.96	-108.6029085	4.811653125	48.50714652	-76
52231	0	-0.034484863	-0.3671875	-0.117675781	0.999999046	0.000225067	-2.19345E-05	0.000106812	-0.862121582	-9.1796875	-2.941894531	0.011253357	-0.001096725	0.005340576	0.393310547	0.994384766	-0.266601563	889.1	-108.569808	4.81384671	48.50198491	-76
52232	0	-0.035118103	-0.366867065	-0.117876053	0.999999046	1.81198E-05	-3.05176E-05	0.000110626	-0.877952576	-9.171676636	-2.946901321	0.000905991	-0.001525879	0.005531311	0.393066406	0.996582031	-0.269775391	889.06	-108.5603801	4.816830501	48.49781786	-76
52233	0	-0.034301758	-0.366943359	-0.116943359	0.999999046	-0.000183105	-2.86102E-06	3.43323E-05	-0.857543945	-9.173583984	-2.923583984	-0.009155273	-0.000143051	0.001716614	0.393310547	0.994384766	-0.26953125	889.02	-108.5740103	4.810533799	48.49330256	-77
52234	0	-0.034572601	-0.367446899	-0.118969917	0.999999046	-0.000173569	-3.05176E-05	2.19345E-05	-0.864315033	-9.186172485	-2.974247932	-0.008678436	-0.001525879	0.001096725	0.393066406	0.998779297	-0.266845703	888.96	-108.5863224	4.803926224	48.49223572	-76
52235	0	-0.034423828	-0.366149902	-0.11932373	0.999999046	0.00019455	-1.04904E-05	8.39233E-05	-0.860595703	-9.153747559	-2.983093262	0.009727478	-0.000524521	0.004196167	0.395507813	0.996582031	-0.266845703	889.06	-108.5569224	4.803346692	48.48646758	-76
52236	0	-0.034671783	-0.366862297	-0.118387222	0.999999046	0.000189781	-8.96454E-05	3.43323E-05	-0.866794586	-9.171557426	-2.959680557	0.00948906	-0.004482269	0.001716614	0.395507813	0.996582031	-0.266845703	889.1	-108.5272435	4.800303402	48.49119758	-76
52237	0	-0.034729004	-0.366760254	-0.117919922	0.999999046	-0.000202179	-4.1008E-05	-4.19617E-05	-0.868225098	-9.169006348	-2.947998047	-0.010108948	-0.0020504	-0.002098084	0.393066406	0.996582031	-0.269775391	889	-108.5427279	4.787239319	48.49378426	-76
52238	0	-0.034586906	-0.367386818	-0.119835854	0.999999046	-2.28882E-05	-1.71661E-05	0.000128746	-0.864672661	-9.184670448	-2.995896339	-0.001144409	-0.000858307	0.006437302	0.393310547	0.994384766	-0.266601563	889.02	-108.538518	4.791883582	48.48723475	-76
52239	0	-0.034790039	-0.366821289	-0.118041992	0.999999046	0.000156403	-9.44138E-05	9.15527E-05	-0.869750977	-9.170532227	-2.951049805	0.007820129	-0.004720688	0.004577637	0.393310547	0.994384766	-0.26953125	889.02	-108.5129801	4.795345386	48.49061888	-76
52240	0	-0.034452438	-0.367767334	-0.116639137	0.999999046	-5.05447E-05	-0.000232697	0.000167847	-0.861310959	-9.19418335	-2.915978432	-0.002527237	-0.011634827	0.008392334	0.395507813	0.994384766	-0.266601563	889.04	-108.5100846	4.812147432	48.50594732	-76
52241	0	-0.034790039	-0.366088867	-0.118347168	0.999999046	-0.000282288	-0.000144005	6.48499E-05	-0.869750977	-9.15222168	-2.958679199	-0.01411438	-0.007200241	0.003242493	0.395507813	0.994384766	-0.266601563	889.04	-108.5343081	4.814568032	48.51547015	-76
52242	0	-0.034628868	-0.366871834	-0.11915493	0.999999046	3.43323E-05	0.000120163	2.28882E-05	-0.865721703	-9.171795845	-2.978873253	0.001716614	0.006008148	0.001144409	0.393066406	0.996582031	-0.266845703	889.1	-108.5246235	4.802835826	48.49806609	-77
52243	0	-0.034912109	-0.367126465	-0.117980957	0.999999046	0.000202179	-8.67844E-05	-3.05176E-05	-0.872802734	-9.178161621	-2.949523926	0.010108948	-0.004339218	-0.001525879	0.395507813	0.996582031	-0.272705078	889.1	-108.4936787	4.792877289	48.50516193	-76
52244	0	-0.034789085	-0.367053986	-0.117033958	0.999999046	0.000245094	-0.00012207	1.52588E-05	-0.869727135	-9.17634964	-2.925848961	0.012254715	-0.006103516	0.000762939	0.395507813	0.996582031	-0.266845703	889.1	-108.4576271	4.789208639	48.51399211	-77
52245	0	-0.034851074	-0.367919922	-0.116943359	0.999999046	-9.53674E-05	-2.57492E-05	3.43323E-05	-0.871276855	-9.197998047	-2.923583984	-0.004768372	-0.00128746	0.001716614	0.395751953	0.996582031	-0.275634766	889.12	-108.4615117	4.784156115	48.51219928	-77
52246	0	-0.034273148	-0.366675377	-0.117866516	0.999999046	-0.000236511	0	8.01086E-05	-0.85682869	-9.166884422	-2.946662903	-0.011825562	0	0.004005432	0.395507813	0.994384766	-0.266601563	889.08	-108.4819931	4.783157191	48.50527506	-76
52247	0	-0.034301758	-0.366760254	-0.11907959	0.999999046	0.00012207	-8.67844E-05	-6.86646E-05	-0.857543945	-9.169006348	-2.976989746	0.006103516	-0.004339218	-0.003433228	0.393066406	0.996582031	-0.266845703	889	-108.4602429	4.769154253	48.51361552	-77
52248	0	-0.034760475	-0.367343903	-0.117519379	0.999999046	0.000206947	-0.00019455	5.72205E-05	-0.869011879	-9.183597565	-2.937984467	0.010347366	-0.009727478	0.002861023	0.393066406	0.996582031	-0.269775391	888.96	-108.4281895	4.772778674	48.5292484	-77
52249	0	-0.034912109	-0.366577148	-0.118041992	0.999999046	3.8147E-05	-0.000231743	7.62939E-06	-0.872802734	-9.164428711	-2.951049805	0.001907349	-0.011587143	0.00038147	0.393066406	0.996582031	-0.266845703	889.06	-108.415057	4.772397842	48.5504526	-77
52250	0	-0.034361839	-0.367012978	-0.11665535	0.999999046	-0.000125885	-0.000183105	4.95911E-05	-0.859045982	-9.17532444	-2.916383743	-0.006294251	-0.009155274	0.002479553	0.393310547	0.994384766	-0.26953125	889.1	-108.4212841	4.774834419	48.56493507	-76
52251	0	-0.034729004	-0.367492676	-0.119140625	0.999999046	-0.000347137	-0.000128746	4.95911E-05	-0.868225098	-9.187316895	-2.978515625	-0.017356873	-0.006437302	0.002479553	0.393066406	0.998779297	-0.269775391	889	-108.4534637	4.775336329	48.57369186	-76
52252	0	-0.034552574	-0.366553307	-0.118593216	0.999999046	0.000136375	-9.15527E-05	-9.63211E-05	-0.863814354	-9.163832664	-2.964830399	0.006818771	-0.004577637	-0.004816055	0.393310547	0.994384766	-0.26953125	889	-108.430214	4.75865347	48.58337431	-76
52253	0	-0.034179688	-0.367492676	-0.116455078	0.999999046	0.000156403	-0.000273705	2.67029E-05	-0.854492188	-9.187316895	-2.911376953	0.00782013	-0.013685227	0.001335144	0.390869141	0.994384766	-0.266357422	889.04	-108.4033607	4.761946293	48.60849013	-76
52254	0	-0.034752846	-0.367101669	-0.1186409	0.999999046	2.67029E-05	-0.000102997	0.000183105	-0.868821144	-9.177541733	-2.966022491	0.001335144	-0.005149841	0.009155274	0.393066406	0.996582031	-0.266845703	889.1	-108.3934758	4.776099316	48.60918383	-76
52255	0	-0.035217285	-0.367370605	-0.118591309	0.999999046	0.000164032	-0.000113487	-2.28882E-05	-0.880432129	-9.184265137	-2.964782715	0.008201599	-0.005674362	-0.001144409	0.393066406	0.996582031	-0.269775391	888.94	-108.3672216	4.768285107	48.61870382	-76
52256	0	-0.034983635	-0.3676548	-0.116449356	0.999999046	3.71933E-05	-0.000150681	-0.000179291	-0.874590874	-9.19137001	-2.911233902	0.001859665	-0.007534027	-0.008964539	0.393066406	0.996582031	-0.269775391	889.06	-108.3546811	4.744844134	48.63784752	-76
52257	0	-0.033569336	-0.36706543	-0.1171875	0.999999046	-0.000518799	-0.000124931	-0.000102997	-0.839233398	-9.176635742	-2.9296875	-0.025939943	-0.006246567	-0.005149842	0.393310547	0.996582031	-0.275390625	889.02	-108.4063515	4.728756744	48.65185728	-76
52258	0	-0.034193993	-0.367740631	-0.120061874	0.999998093	-0.000208855	-2.00272E-05	0.000137329	-0.854849815	-9.193515778	-3.00154686	-0.010442734	-0.001001358	0.006866455	0.393066406	0.996582031	-0.269775391	889.04	-108.4243112	4.73502151	48.64523028	-76
52259	0	-0.034484863	-0.366821289	-0.118652344	0.999999046	0.000339508	-0.000113487	8.01086E-05	-0.862121582	-9.170532227	-2.966308594	0.016975403	-0.005674362	0.004005432	0.393310547	0.996582031	-0.272460938	889.04	-108.3784996	4.738479299	48.65102976	-76
52260	0	-0.034631729	-0.367322922	-0.116137505	0.999999046	2.57492E-05	-3.8147E-05	1.14441E-05	-0.865793228	-9.183073044	-2.903437614	0.00128746	-0.001907349	0.000572205	0.393310547	0.994384766	-0.26953125	889	-108.3690787	4.731783575	48.65073107	-76
52261	0	-0.034484863	-0.366943359	-0.117248535	0.999999046	-0.000148773	-1.04904E-05	4.19617E-05	-0.862121582	-9.173583984	-2.931213379	-0.00743866	-0.000524521	0.002098084	0.390869141	0.998779297	-0.275634766	889.02	-108.3800252	4.727442832	48.64744884	-76
52262	0	-0.034763336	-0.366722107	-0.11967659	0.999999046	-0.000204086	-6.86646E-05	-5.81741E-05	-0.869083405	-9.168052673	-2.991914749	-0.010204315	-0.003433228	-0.002908707	0.393310547	0.996582031	-0.272460938	889.1	-108.3966306	4.714357443	48.65319229	-75
52263	0	-0.034729004	-0.367248535	-0.11920166	0.999999046	4.95911E-05	5.05447E-05	5.72205E-05	-0.868225098	-9.181213379	-2.980041504	0.002479553	0.002527237	0.002861023	0.390869141	0.996582031	-0.26953125	889	-108.3856832	4.709556365	48.641864	-75
52264	0	-0.034698486	-0.367135048	-0.118131638	0.999999046	0.000300407	-3.62396E-05	-1.14441E-05	-0.867462158	-9.178376198	-2.953290939	0.015020371	-0.001811981	-0.000572205	0.390869141	0.996582031	-0.26953125	889.06	-108.3450667	4.700472815	48.64240863	-75
52265	0	-0.034362793	-0.366699219	-0.116333008	0.999999046	5.34058E-05	-6.77109E-05	7.62939E-06	-0.859069824	-9.167480469	-2.908325195	0.002670288	-0.003385544	0.00038147	0.390869141	0.996582031	-0.272460938	889.12	-108.332517	4.694633434	48.64594269	-75
52266	0	-0.034079552	-0.366467476	-0.118243217	0.999999046	-0.000371933	-5.34058E-05	-2.67029E-05	-0.851988792	-9.161686897	-2.956080437	-0.01859665	-0.002670288	-0.001335144	0.390869141	0.994384766	-0.269287109	889.04	-108.3688206	4.684563047	48.64874167	-75
52267	0	-0.034362793	-0.367431641	-0.118652344	0.999999046	-6.10352E-05	-2.95639E-05	0.000141144	-0.859069824	-9.185791016	-2.966308594	-0.003051758	-0.001478195	0.00705719	0.395507813	0.996582031	-0.266845703	889.1	-108.3702833	4.691917329	48.6420699	-75
52268	0	-0.034596443	-0.366370201	-0.118695259	0.999999046	0.000166893	-6.29425E-05	9.44138E-05	-0.864911079	-9.159255028	-2.967381477	0.00834465	-0.003147125	0.004720688	0.395507813	0.996582031	-0.269775391	889.06	-108.3452853	4.69544204	48.64120822	-75
52269	0	-0.034484863	-0.3671875	-0.117492676	0.999999046	2.67029E-05	-6.77109E-05	0.000106812	-0.862121582	-9.1796875	-2.937316895	0.001335144	-0.003385544	0.005340576	0.390869141	0.996582031	-0.272460938	889.06	-108.3363755	4.700525922	48.64160345	-75
52270	0	-0.034396172	-0.366820335	-0.116919518	0.999999046	-0.00037384	5.34058E-05	0.00012207	-0.859904289	-9.170508385	-2.922987938	-0.018692017	0.002670288	0.006103516	0.393066406	0.996582031	-0.266845703	889.06	-108.3745018	4.702928364	48.62722844	-75
52271	0	-0.034545898	-0.36730957	-0.118835449	0.999999046	-0.000347137	-4.1008E-05	8.7738E-05	-0.863647461	-9.182739258	-2.97088623	-0.017356873	-0.0020504	0.004386902	0.393310547	0.996582031	-0.272460938	889.02	-108.4087028	4.705036087	48.6251133	-74
52272	0	-0.033766747	-0.366427422	-0.120002747	0.999999046	5.24521E-05	-7.05719E-05	6.38962E-05	-0.844168663	-9.160685539	-3.000068665	0.002622604	-0.003528595	0.003194809	0.390869141	0.994384766	-0.269287109	889	-108.3969155	4.705613836	48.62697737	-74
52273	0	-0.034179688	-0.366516113	-0.117004395	0.999999046	0.000171661	-9.44138E-05	8.01086E-05	-0.854492188	-9.162902832	-2.925109863	0.008583069	-0.004720688	0.004005432	0.393066406	0.996582031	-0.269775391	889.16	-108.371293	4.708832282	48.63053083	-74
52274	0	-0.034749985	-0.367161751	-0.118092537	0.999999046	-4.19617E-05	3.43323E-05	0.000197411	-0.868749619	-9.17904377	-2.952313423	-0.002098084	0.001716614	0.009870529	0.393066406	0.996582031	-0.269775391	889.04	-108.3716963	4.720198868	48.61588074	-74
52275	0	-0.034301758	-0.366760254	-0.118164063	0.999999046	-0.000106812	-1.04904E-05	-5.72205E-05	-0.857543945	-9.169006348	-2.954101563	-0.005340576	-0.000524521	-0.002861023	0.390625	0.996826172	-0.266601563	889.12	-108.3784218	4.705509176	48.61543905	-74
52276	0	-0.034079552	-0.366983414	-0.118364334	1	-7.62939E-06	-2.38419E-05	7.9155E-05	-0.851988792	-9.174585342	-2.959108353	-0.00038147	-0.001192093	0.003957748	0.393310547	0.996582031	-0.272460938	889.06	-108.374121	4.706139174	48.61166255	-74
52277	0	-0.033935547	-0.366455078	-0.117980957	0.999999046	-0.000160217	-9.82285E-05	0.000114441	-0.848388672	-9.161376953	-2.949523926	-0.008010864	-0.004911423	0.005722046	0.393066406	0.998779297	-0.272705078	888.96	-108.3867879	4.713296192	48.61493336	-74
52278	0	-0.034714699	-0.367202759	-0.118641853	0.999999046	-0.000314713	-0.000125885	0.000102997	-0.86786747	-9.18006897	-2.966046333	-0.015735627	-0.006294251	0.005149841	0.393310547	0.996582031	-0.272460938	889.06	-108.4169332	4.720243949	48.62140191	-74
52279	0	-0.03469944	-0.367302895	-0.120816231	1	9.53674E-07	-1.71661E-05	9.05991E-05	-0.867486	-9.182572365	-3.020405769	4.76837E-05	-0.000858307	0.004529953	0.393066406	0.996582031	-0.269775391	889.12	-108.4119934	4.721936809	48.61612989	-75
52280	0	-0.034280777	-0.366566658	-0.118922234	0.999999046	0.000349998	-0.000123978	0.000144005	-0.857019424	-9.164166451	-2.97305584	0.017499924	-0.006198883	0.007200241	0.393066406	0.996582031	-0.266845703	889.12	-108.3663229	4.733311175	48.62014534	-75
52281	0	-0.034423828	-0.367248535	-0.117248535	0.999999046	6.48499E-05	-5.24521E-05	0.0001297	-0.860595703	-9.181213379	-2.931213379	0.003242493	-0.002622604	0.006484985	0.390625	0.996826172	-0.266601563	889	-108.3539189	4.740560387	48.6175071	-75
52282	0	-0.033982277	-0.366400719	-0.117808342	0.999999046	-0.000299454	-0.000102997	3.8147E-06	-0.849556923	-9.160017967	-2.945208549	-0.014972687	-0.005149841	0.000190735	0.393066406	0.996582031	-0.266845703	889.04	-108.3824624	4.735932972	48.62442523	-75
52283	0	-0.034729004	-0.366577148	-0.118713379	0.999999046	-0.000106812	5.05447E-05	1.90735E-05	-0.868225098	-9.164428711	-2.967834473	-0.005340576	0.002527237	0.000953674	0.395507813	0.996582031	-0.272705078	889.1	-108.3904238	4.727445401	48.61438232	-74
52284	0	-0.034426689	-0.367343903	-0.119344711	0.999999046	0.000441551	3.62396E-05	0.00012207	-0.860667229	-9.183597565	-2.983617783	0.022077561	0.001811981	0.006103516	0.393066406	0.996582031	-0.266845703	889.04	-108.3358057	4.730693546	48.60185407	-75
52285	0	-0.034240723	-0.366821289	-0.117980957	0.999999046	0.000301361	-0.000105858	0.000202179	-0.856018066	-9.170532227	-2.949523926	0.015068055	-0.005292893	0.010108948	0.395507813	0.994384766	-0.266601563	889.16	-108.2962494	4.747788105	48.60120877	-75
52286	0	-0.034719467	-0.36669445	-0.11622715	0.999999046	-0.00021553	-4.19617E-05	4.57764E-05	-0.867986679	-9.167361259	-2.905678749	-0.01077652	-0.002098084	0.002288818	0.393310547	0.996582031	-0.272460938	889.1	-108.316003	4.745595108	48.60103367	-75
52287	0	-0.034301758	-0.367614746	-0.119018555	0.999999046	-0.000259399	4.76837E-06	-3.8147E-05	-0.857543945	-9.190368652	-2.975463867	-0.012969971	0.000238419	-0.001907349	0.393066406	0.996582031	-0.266845703	889.02	-108.3410353	4.732584986	48.59792501	-75
52288	0	-0.034273148	-0.367006302	-0.119271278	0.999999046	0.000260353	-1.14441E-05	1.43051E-05	-0.85682869	-9.175157547	-2.98178196	0.013017655	-0.000572205	0.000715256	0.390625	0.996826172	-0.266601563	889	-108.3066118	4.725868651	48.59523609	-75
52289	0	-0.033752441	-0.366882324	-0.117126465	0.999999046	0.00012207	-6.77109E-05	3.8147E-05	-0.843811035	-9.172058105	-2.928161621	0.006103516	-0.003385544	0.001907349	0.393066406	0.996582031	-0.266845703	888.96	-108.2875992	4.723752393	48.59710182	-75
52290	0	-0.034651756	-0.36623764	-0.117521286	0.999999046	-0.000167847	-3.43323E-05	9.15527E-05	-0.866293907	-9.15594101	-2.93803215	-0.008392334	-0.001716614	0.004577637	0.393066406	0.996582031	-0.266845703	888.96	-108.3023043	4.726276217	48.5935194	-75
52291	0	-0.034116745	-0.366985321	-0.119838715	0.999999046	-5.14984E-05	-9.82285E-05	-3.8147E-06	-0.852918625	-9.174633026	-2.995967865	-0.002574921	-0.004911423	-0.000190735	0.393310547	0.994384766	-0.26953125	889.06	-108.3029489	4.720718533	48.60055494	-75
52292	0	-0.033893585	-0.367584229	-0.11901474	0.999999046	0.000477791	4.3869E-05	0.000151634	-0.84733963	-9.189605713	-2.9753685	0.023889543	0.002193451	0.007581711	0.393066406	0.996582031	-0.269775391	889.06	-108.2447588	4.726952498	48.58670444	-76
52293	0	-0.034790039	-0.366699219	-0.116088867	0.999999046	0.000431061	-0.000117302	0.000297546	-0.869750977	-9.167480469	-2.90222168	0.021553041	-0.005865097	0.01487732	0.393066406	0.996582031	-0.269775391	889	-108.1908749	4.754893896	48.58520242	-75
52294	0	-0.035220146	-0.367694855	-0.116863251	0.999999046	-0.000188828	-0.000118256	2.67029E-05	-0.880503654	-9.192371368	-2.921581268	-0.009441376	-0.005912781	0.001335144	0.393310547	0.996582031	-0.275390625	889	-108.207219	4.753428254	48.5944748	-75
52295	0	-0.034301758	-0.366638184	-0.118408203	0.999999046	-0.00056076	5.81741E-05	5.72205E-05	-0.857543945	-9.16595459	-2.960205078	-0.028038026	0.002908707	0.002861023	0.393310547	0.9921875	-0.266357422	889.06	-108.2679641	4.748957816	48.58142645	-75
52296	0	-0.034391403	-0.368027687	-0.118886948	0.999999046	-0.000103951	-2.86102E-05	9.44138E-05	-0.85978508	-9.200692177	-2.972173691	-0.005197525	-0.001430511	0.004720688	0.393310547	0.996582031	-0.272460938	889.06	-108.2757618	4.751644013	48.5782107	-75
52297	0	-0.034729004	-0.36706543	-0.117797852	0.999999046	0.000247955	-6.00815E-05	0.000114441	-0.868225098	-9.176635742	-2.944946289	0.012397766	-0.003004074	0.005722046	0.393066406	0.996582031	-0.266845703	888.96	-108.2430393	4.757658929	48.57658065	-75
52298	0	-0.035011292	-0.367115974	-0.116574287	0.999999046	0.000131607	9.53674E-06	-0.000134468	-0.875282288	-9.177899361	-2.914357185	0.006580353	0.000476837	-0.006723404	0.393310547	0.996582031	-0.272460938	889.02	-108.2235183	4.734119955	48.57719232	-75
52299	0	-0.033813477	-0.367126465	-0.118591309	0.999999046	1.90735E-05	5.43594E-05	-5.72205E-05	-0.845336914	-9.178161621	-2.964782715	0.000953674	0.002717972	-0.002861023	0.395507813	0.996582031	-0.272705078	889.1	-108.2176099	4.717358276	48.56934287	-75
52300	0	-0.034186363	-0.367196083	-0.120534897	0.999999046	0.000113487	0.000167847	9.05991E-05	-0.854659081	-9.179902077	-3.013372421	0.005674362	0.008392334	0.004529953	0.393310547	0.994384766	-0.266601563	889.04	-108.202516	4.712625381	48.54314556	-75
52301	0	-0.034606934	-0.36706543	-0.116882324	0.999999046	0.000282288	-2.86102E-06	0.000179291	-0.86517334	-9.176635742	-2.922058105	0.01411438	-0.000143051	0.008964539	0.395751953	0.994384766	-0.26953125	889.16	-108.1668134	4.723692323	48.53229928	-76
