Counter	Temperature	VelInc_X	VelInc_Y	VelInc_Z	OriInc_w	OriInc_x	OriInc_y	OriInc_z	Acc_X	Acc_Y	Acc_Z	Gyr_X	Gyr_Y	Gyr_Z	Mag_X	Mag_Y	Mag_Z	Pressure	Roll	Pitch	Yaw	RSSI
7981	0	0.376586914	-0.084106445	-0.020385742	0.999992371	0.00314045	0.001232147	-0.001728058	9.414672852	-2.102661133	-0.509643555	0.157022852	0.061607508	-0.0864031	-0.828613281	0.037841797	0.6875	890.56	-91.19534299	-80.08107637	-101.5592332	-57
7982	0	0.371368408	-0.089816093	-0.033858299	0.999980927	0.005776405	-0.00146389	0.000923157	9.284210205	-2.245402336	-0.846457481	0.288822017	-0.073194947	0.046158117	-0.828613281	0.037841797	0.684570313	890.66	-91.45629615	-79.97950416	-100.6583516	-58
7983	0	0.364746094	-0.103088379	-0.049987793	0.999897957	0.013629913	-0.003603935	0.00189209	9.118652344	-2.577209473	-1.249694824	0.681518651	-0.18020284	0.094607683	-0.826904297	0.055664063	0.686035156	890.5	-92.16343377	-79.75571121	-98.39919552	-57
7984	0	0.363622665	-0.083583832	-0.053607941	0.99971199	0.022914886	-0.006409645	0.002949715	9.090566635	-2.089595795	-1.340198517	1.145854129	-0.320512968	0.147499868	-0.818603516	0.080078125	0.692138672	890.62	-93.44629157	-79.38680983	-94.4946766	-57
7985	0	0.397033691	-0.114135742	-0.026184082	0.9991045	0.041702271	-0.006854057	0.001743317	9.925842285	-2.853393555	-0.654602051	2.085735771	-0.342805136	0.087191845	-0.80859375	0.122314453	0.702636719	890.62	-92.76346207	-79.14713994	-90.42966513	-56
7986	0	0.443306923	0.013412476	0.087968826	0.999323845	0.03663826	-0.001361847	0.002532005	11.08267307	0.33531189	2.199220657	1.832325617	-0.068107683	0.126628781	-0.799072266	0.186767578	0.690917969	890.52	-89.32957679	-78.8617386	-89.72988392	-55
7987	0	0.395324707	-0.024230957	0.049682617	0.999876022	0.015263557	0.003692627	-0.000396729	9.883117676	-0.605773926	1.24206543	0.763209263	0.184638942	-0.019837242	-0.798583984	0.231201172	0.681396484	890.66	-85.39355821	-78.89769617	-91.98526159	-55
7988	0	0.380055428	-0.068357468	-0.00535965	0.999955177	0.008482933	0.001802444	-0.003540993	9.501385689	-1.708936691	-0.133991241	0.424152855	0.090123541	-0.177052226	-0.803710938	0.242675781	0.668945313	890.68	-83.11882652	-79.290799	-93.32554825	-56
7989	0	0.388183594	-0.08984375	-0.00201416	0.999893188	0.014355659	0.001049042	-0.00233078	9.704589844	-2.24609375	-0.050354004	0.717808412	0.052453946	-0.116543132	-0.811035156	0.251708984	0.656982422	890.6	-80.61040747	-79.54711355	-94.23051122	-56
7990	0	0.387591362	-0.068225861	0.000538826	0.999874115	0.015770912	0.001246452	-0.000188828	9.68978405	-1.705646515	0.01347065	0.788578509	0.062325217	-0.00944177	-0.811523438	0.267333984	0.652832031	890.56	-77.9977838	-79.55070261	-95.08592753	-55
7991	0	0.382324219	-0.052490234	0.015075684	0.999958038	0.008999825	0.000976563	0.00063324	9.558105469	-1.312255859	0.37689209	0.449997403	0.048828795	0.031662422	-0.814453125	0.28515625	0.642822266	890.66	-76.43907658	-79.46458953	-95.6469565	-55
7992	0	0.385878563	-0.054953575	0.020051956	0.999995232	0.002774239	0.00028801	-0.000324249	9.646964073	-1.373839378	0.501298904	0.138712112	0.014400501	-0.016212485	-0.8125	0.298583984	0.629882813	890.66	-75.87351002	-79.50270824	-95.89712677	-55
7993	0	0.388977051	-0.066223145	0.017211914	0.999999046	-0.000171661	0.000630379	-0.000789642	9.72442627	-1.655578613	0.430297852	-0.00858307	0.031518942	-0.039482124	-0.817382813	0.298583984	0.633056641	890.56	-75.36463375	-79.5823682	-96.43241933	-55
7994	0	0.389975548	-0.067017555	0.018411636	0.999998093	0.000861168	0.00142765	-0.00056076	9.749388695	-1.675438881	0.460290909	0.043058418	0.071382559	-0.028038039	-0.814941406	0.296386719	0.633056641	890.52	-74.28571236	-79.61141272	-97.43056911	-56
7995	0	0.388244629	-0.072814941	0.020446777	0.999997139	0.001659393	0.001294136	0.000175476	9.706115723	-1.820373535	0.511169434	0.082969727	0.06470685	0.00877381	-0.819580078	0.296386719	0.627441406	890.52	-73.32205066	-79.56012929	-98.22306688	-55
7996	0	0.387490273	-0.062437057	0.023914337	0.999997139	0.001946449	0.000829697	5.43594E-05	9.687256813	-1.560926437	0.597858429	0.097322537	0.041484864	0.002717974	-0.819580078	0.298583984	0.624511719	890.6	-72.58527491	-79.535733	-98.75108549	-55
7997	0	0.387390137	-0.06842041	0.019592285	0.999997139	0.002311707	0.000531197	-5.72205E-05	9.684753418	-1.710510254	0.489807129	0.115585436	0.026559855	-0.002861026	-0.819580078	0.301025391	0.624267578	890.52	-71.96514581	-79.53271205	-99.11867629	-55
7998	0	0.387012482	-0.067927361	0.018362999	0.999995232	0.00276947	0.00071907	-0.000115395	9.675312042	-1.698184013	0.459074974	0.1384737	0.035953571	-0.005769737	-0.822021484	0.305419922	0.615234375	890.44	-71.17235549	-79.52835478	-99.60392359	-55
7999	0	0.38470459	-0.064208984	0.022583008	0.999996185	0.002522469	0.000648499	0.000171661	9.617614746	-1.605224609	0.564575195	0.126123572	0.032424964	0.008583079	-0.822021484	0.307617188	0.609375	890.58	-70.50884664	-79.49450411	-99.98687271	-55
8000	0	0.386726379	-0.062023163	0.024617195	0.999999046	0.001246452	0.000240326	0.000370026	9.668159485	-1.550579071	0.615429878	0.062322635	0.0120163	0.018501287	-0.824707031	0.309814453	0.612060547	890.52	-70.2721956	-79.4545345	-100.0864277	-55
8001	0	0.389099121	-0.062255859	0.024414063	0.999999046	-7.62939E-06	0.000340462	0.000343323	9.727478027	-1.556396484	0.610351563	-0.00038147	0.017023087	0.017166138	-0.822265625	0.312011719	0.608886719	890.52	-70.11665214	-79.41366872	-100.2439352	-55
8002	0	0.38494873	-0.06404686	0.025283813	0.999999046	-0.000318527	0.000263214	0.000441551	9.623718262	-1.601171494	0.632095337	-0.015926362	0.013160706	0.022077562	-0.822265625	0.312011719	0.611816406	890.6	-70.06242917	-79.36521429	-100.3362413	-55
8003	0	0.388549805	-0.063354492	0.022644043	0.999999046	-0.000667572	-2.86102E-06	0.000247955	9.713745117	-1.583862305	0.566101074	-0.033378604	-0.000143051	0.012397767	-0.822265625	0.312011719	0.611816406	890.56	-70.16114814	-79.34816567	-100.3123694	-55
8004	0	0.386501312	-0.068036079	0.025418282	0.999999046	-0.000370979	-0.000144958	0.000124931	9.662532806	-1.700901985	0.635457039	-0.018548966	-0.007247925	0.006246567	-0.822509766	0.314208984	0.611572266	890.6	-70.28180421	-79.34976871	-100.2263434	-55
8005	0	0.386962891	-0.069641113	0.025024414	0.999999046	0.000808716	-0.00032711	8.39233E-05	9.674072266	-1.741027832	0.625610352	0.040435796	-0.016355517	0.004196168	-0.822265625	0.312011719	0.608886719	890.58	-70.36376632	-79.36261225	-100.047454	-55
8006	0	0.387089729	-0.067224503	0.025244713	0.999998093	0.001441002	-0.000283241	2.19345E-05	9.677243233	-1.680612564	0.631117821	0.072050121	-0.014162069	0.001096726	-0.822265625	0.312011719	0.614746094	890.62	-70.3356051	-79.38036624	-99.91283855	-55
8007	0	0.38873291	-0.066467285	0.02520752	0.999999046	0.001243591	-0.000376701	0.000167847	9.718322754	-1.661682129	0.630187988	0.062179583	-0.018835073	0.008392336	-0.822509766	0.316650391	0.611328125	890.56	-70.41394926	-79.38594599	-99.68578424	-55
8008	0	0.388118744	-0.064585686	0.023792267	0.999999046	0.001084328	-0.000274658	0.000250816	9.702968597	-1.614642143	0.594806671	0.054216397	-0.013732913	0.01254082	-0.822509766	0.316650391	0.608642578	890.62	-70.46886301	-79.37868957	-99.50341006	-55
8009	0	0.38861084	-0.062316895	0.023132324	0.999999046	0.000118256	-0.000151634	0.000507355	9.715270996	-1.557922363	0.578308105	0.005912781	-0.007581711	0.025367738	-0.822509766	0.318847656	0.608398438	890.66	-70.61540362	-79.3391725	-99.33769471	-55
8010	0	0.388368607	-0.064598083	0.023028374	0.999999046	-0.000286102	-4.19617E-05	0.00037384	9.709215164	-1.614952087	0.575709343	-0.014305115	-0.002098084	0.018692017	-0.820068359	0.31640625	0.614257813	890.56	-70.71772676	-79.30996673	-99.27071483	-55
8011	0	0.386108398	-0.063415527	0.026123047	0.999999046	-0.000225067	4.76837E-06	4.57764E-05	9.652709961	-1.585388184	0.653076172	-0.011253357	0.000238419	0.002288818	-0.820068359	0.31640625	0.614257813	890.62	-70.7194839	-79.3145629	-99.29803463	-55
8012	0	0.388543129	-0.065050125	0.024753571	0.999999046	0.000266075	-0.000268936	2.86102E-06	9.713578224	-1.626253128	0.618839264	0.013303757	-0.013446808	0.000143051	-0.8203125	0.318603516	0.611083984	890.52	-70.8131749	-79.33420504	-99.16917452	-55
8013	0	0.389770508	-0.064697266	0.024475098	0.999999046	0.000457764	-0.000178337	-0.000171661	9.744262695	-1.617431641	0.611877441	0.022888185	-0.008916855	-0.008583069	-0.820068359	0.31640625	0.614257813	890.6	-70.7979636	-79.36938622	-99.13463838	-55
8014	0	0.388030052	-0.064177513	0.022990227	0.999999046	0.000997543	-0.000110626	-0.000359535	9.700751305	-1.604437828	0.574755669	0.049877176	-0.005531312	-0.017976764	-0.817871094	0.318603516	0.611083984	890.52	-70.64380609	-79.42244769	-99.17299802	-55
8015	0	0.386352539	-0.060791016	0.02355957	0.999999046	0.000549316	-7.53403E-05	-0.000259399	9.658813477	-1.519775391	0.588989258	0.027465822	-0.003767014	-0.012969972	-0.820068359	0.318603516	0.608154297	890.56	-70.53989634	-79.46354516	-99.21226482	-55
8016	0	0.387730598	-0.061786652	0.022042274	0.999999046	-0.000452995	-7.43866E-05	0	9.693264961	-1.54466629	0.551056862	-0.022649766	-0.00371933	0	-0.8203125	0.318603516	0.611083984	890.6	-70.60352402	-79.4767594	-99.19774694	-55
8017	0	0.386901855	-0.064819336	0.022644043	0.999999046	-0.000705719	2.38419E-05	5.34058E-05	9.672546387	-1.620483398	0.566101074	-0.035285953	0.001192093	0.002670288	-0.8203125	0.318603516	0.611083984	890.62	-70.65023179	-79.48048143	-99.2278758	-55
8018	0	0.3878088	-0.065688133	0.023545265	0.999999046	-0.000179291	8.2016E-05	6.86646E-05	9.695219994	-1.642203331	0.58863163	-0.008964539	0.0041008	0.003433228	-0.820068359	0.31640625	0.611328125	890.52	-70.60599351	-79.48030482	-99.29299966	-55
8019	0	0.388427734	-0.063781738	0.023620605	0.999999046	0.000385284	8.58307E-06	0.000106812	9.710693359	-1.594543457	0.590515137	0.019264222	0.000429153	0.005340576	-0.820068359	0.31640625	0.611328125	890.6	-70.54759507	-79.47885518	-99.30776202	-55
8020	0	0.387375832	-0.062930107	0.024589539	0.999999046	9.63211E-05	0.000198364	0.000124931	9.68439579	-1.573252678	0.614738464	0.004816055	0.009918213	0.006246567	-0.820068359	0.31640625	0.608398438	890.68	-70.41540522	-79.46825507	-99.43034434	-55
8021	0	0.386962891	-0.062988281	0.025024414	0.999999046	-0.000114441	-6.67572E-06	0.000221252	9.674072266	-1.574707031	0.625610352	-0.005722046	-0.000333786	0.011062622	-0.8203125	0.318603516	0.611083984	890.62	-70.44603062	-79.45517063	-99.40885926	-55
8022	0	0.389680862	-0.063288689	0.022317886	0.999999046	-0.000511169	0.000167847	-7.62939E-06	9.742021561	-1.582217216	0.557947159	-0.025558473	0.008392334	-0.00038147	-0.820068359	0.318603516	0.608154297	890.58	-70.37394574	-79.46021719	-99.53509551	-55
8023	0	0.386047363	-0.066711426	0.025268555	0.999999046	-0.000740051	0.000332832	-4.95911E-05	9.651184082	-1.667785645	0.631713867	-0.037002568	0.016641619	-0.002479553	-0.822509766	0.318847656	0.608398438	890.66	-70.22344407	-79.46323978	-99.76597828	-55
8024	0	0.385670662	-0.065123558	0.024939537	0.999999046	-0.000443459	0.000181198	0.000243187	9.641766548	-1.628088951	0.623488426	-0.022172929	0.009059906	0.012159348	-0.822509766	0.316650391	0.608642578	890.62	-70.18783699	-79.44045313	-99.84938082	-55
8025	0	0.387878418	-0.064758301	0.027526855	0.999999046	-0.00094223	0.000435829	0.000102997	9.696960449	-1.61895752	0.688171387	-0.04711152	0.021791462	0.005149842	-0.822509766	0.314208984	0.611572266	890.66	-70.03257238	-79.42276658	-100.1163289	-55
8026	0	0.388206482	-0.06751442	0.027187347	0.999999046	-0.000593185	0.000375748	0.000152588	9.705162048	-1.687860489	0.679683685	-0.029659274	0.018787386	0.007629395	-0.822265625	0.314208984	0.608642578	890.58	-69.88264613	-79.40180782	-100.33451	-55
8027	0	0.385681152	-0.064819336	0.02746582	0.999999046	-0.000850677	0.000599861	0.0001297	9.642028809	-1.620483398	0.686645508	-0.042533882	0.029993063	0.006484987	-0.824707031	0.312255859	0.611816406	890.56	-69.62902586	-79.37422111	-100.6922906	-55
8028	0	0.386666298	-0.064176559	0.029406548	0.999998093	-0.001615524	0.000782967	0.000212669	9.666657448	-1.604413986	0.735163689	-0.080776259	0.039148352	0.010633474	-0.819824219	0.312011719	0.608886719	890.58	-69.37690104	-79.33005371	-101.1313792	-55
8029	0	0.386047363	-0.069152832	0.030639648	0.999997139	-0.002132416	0.000741005	0.000488281	9.651184082	-1.728820801	0.765991211	-0.106620883	0.03705028	0.024414084	-0.824462891	0.309814453	0.606201172	890.56	-69.26907136	-79.25748477	-101.4849263	-56
8030	0	0.388256073	-0.070445061	0.028045654	0.999998093	-0.001278877	0.000502586	0.000473022	9.706401825	-1.761126518	0.701141357	-0.063943885	0.025129327	0.023651131	-0.824462891	0.307617188	0.609375	890.56	-69.19728059	-79.19587985	-101.7059859	-55
8031	0	0.389770508	-0.074951172	0.023132324	0.999999046	0.000297546	0.000397682	0.000293732	9.744262695	-1.873779297	0.578308105	0.01487732	0.019884111	0.014686585	-0.826904297	0.307861328	0.609619141	890.56	-68.96886813	-79.15732237	-101.904763	-55
8032	0	0.386659622	-0.069611549	0.022563934	0.999998093	0.00176239	0.000235558	-6.48499E-05	9.666490555	-1.740288734	0.564098358	0.088119553	0.011777884	-0.003242494	-0.826904297	0.307617188	0.606689453	890.62	-68.58821961	-79.16352967	-102.0911423	-55
8033	0	0.384887695	-0.063354492	0.02734375	0.999998093	0.00181675	-0.000247955	-1.52588E-05	9.622192383	-1.583862305	0.68359375	0.09083753	-0.012397773	-0.00076294	-0.826904297	0.312255859	0.606201172	890.5	-68.48124543	-79.18471042	-101.987381	-55
8034	0	0.387345314	-0.062137604	0.029391289	0.999999046	0.001337051	-0.000162125	-0.00023365	9.683632851	-1.553440094	0.734782219	0.06685259	-0.008106234	-0.011682514	-0.826904297	0.312255859	0.603271484	890.5	-68.33216714	-79.2257448	-101.9835882	-55
8035	0	0.385925293	-0.065490723	0.030273438	0.999999046	0.000694275	-0.000304222	-2.67029E-05	9.648132324	-1.637268066	0.756835938	0.034713748	-0.015211107	-0.001335144	-0.824707031	0.312255859	0.609130859	890.66	-68.38154814	-79.25069446	-101.8556013	-55
8036	0	0.387227058	-0.068788528	0.027751923	0.999999046	0.000477791	-0.000286102	0.000366211	9.68067646	-1.719713211	0.693798065	0.023889543	-0.014305116	0.018310548	-0.824707031	0.314453125	0.605957031	890.6	-68.53312115	-79.23281351	-101.6452522	-55
8037	0	0.38848877	-0.065490723	0.028381348	0.999999046	0.000366211	-9.44138E-05	0.000499725	9.712219238	-1.637268066	0.709533691	0.018310548	-0.004720688	0.024986269	-0.827148438	0.314453125	0.603027344	890.6	-68.61845321	-79.1926005	-101.5174021	-55
8038	0	0.38769722	-0.063661575	0.027804375	0.999999046	3.05176E-05	-5.34058E-05	0.000450134	9.692430496	-1.591539383	0.695109367	0.001525879	-0.002670288	0.022506715	-0.824707031	0.316650391	0.602783203	890.56	-68.70742431	-79.15605444	-101.420837	-55
8039	0	0.385375977	-0.066833496	0.027099609	0.999999046	0.00019455	8.58307E-06	0.000434875	9.634399414	-1.670837402	0.677490234	0.009727478	0.000429153	0.021743775	-0.822265625	0.31640625	0.602783203	890.52	-68.73941034	-79.11850861	-101.3644317	-55
8040	0	0.386112213	-0.064657211	0.025177002	0.999999046	0.000330925	-0.000398636	0.00050354	9.652805328	-1.616430283	0.629425049	0.016546251	-0.019931795	0.025177004	-0.824707031	0.316650391	0.605712891	890.52	-68.99638123	-79.09054598	-101.0669028	-56
8041	0	0.390441895	-0.062316895	0.024719238	0.999999046	0.000110626	-9.82285E-05	8.7738E-05	9.761047363	-1.557922363	0.617980957	0.005531311	-0.004911423	0.004386902	-0.822753906	0.321044922	0.608154297	890.52	-69.02271905	-79.09489817	-101.0216367	-55
8042	0	0.386956215	-0.065919876	0.026304245	0.999999046	-0.000490189	-3.05176E-05	-5.72205E-05	9.673905373	-1.647996902	0.657606125	-0.024509431	-0.001525879	-0.002861023	-0.824951172	0.321044922	0.602539063	890.62	-69.04950798	-79.112035	-101.0427741	-56
8043	0	0.386535645	-0.065551758	0.023681641	0.999999046	-3.8147E-06	-0.00026226	0.00012207	9.663391113	-1.638793945	0.592041016	-0.000190735	-0.013113022	0.006103516	-0.822509766	0.31640625	0.605712891	890.62	-69.18850018	-79.11954591	-100.9026997	-55
8044	0	0.387266159	-0.063022614	0.026040077	0.999999046	-0.000990868	-0.00018692	0.000354767	9.681653976	-1.575565338	0.65100193	-0.04954339	-0.00934601	0.017738346	-0.824707031	0.316650391	0.602783203	890.52	-69.44738743	-79.09915316	-100.753026	-55
8045	0	0.386901855	-0.067565918	0.027099609	0.999998093	-0.001517296	-0.00018692	0.000255585	9.672546387	-1.689147949	0.677490234	-0.075864822	-0.009346012	0.012779241	-0.822509766	0.318847656	0.608398438	890.58	-69.7451399	-79.08922765	-100.6187223	-55
8046	0	0.386510849	-0.06840229	0.029250145	0.999998093	-0.001555443	8.58307E-06	0.000221252	9.662771225	-1.710057259	0.731253624	-0.077772172	0.000429154	0.011062627	-0.822509766	0.31640625	0.605712891	890.56	-69.93008653	-79.07504174	-100.6039356	-55
8047	0	0.388000488	-0.070800781	0.026794434	0.999998093	-0.001513481	3.05176E-05	0.000286102	9.700012207	-1.770019531	0.66986084	-0.075674087	0.00152588	0.01430512	-0.824707031	0.312011719	0.606201172	890.62	-70.11095327	-79.05282437	-100.5950056	-55
8048	0	0.388260841	-0.074162483	0.028607368	0.999999046	-0.000897408	4.3869E-05	0.000331879	9.706521034	-1.85406208	0.715184212	-0.044870383	0.002193451	0.016593936	-0.822265625	0.312011719	0.611816406	890.68	-70.22253525	-79.02479573	-100.5844048	-55
8049	0	0.385925293	-0.070983887	0.028747559	0.999999046	-0.00012207	4.76837E-06	0.000232697	9.648132324	-1.774597168	0.718688965	-0.006103516	0.000238419	0.011634827	-0.824707031	0.312255859	0.611816406	890.58	-70.24652761	-79.00876882	-100.5731356	-55
8050	0	0.386442184	-0.068668365	0.02751255	0.999999046	-0.000356674	-1.52588E-05	0.000224113	9.661054611	-1.716709137	0.687813759	-0.01783371	-0.000762939	0.011205674	-0.824707031	0.312255859	0.614746094	890.56	-70.3063823	-78.99438126	-100.5533283	-55
8051	0	0.387695313	-0.073120117	0.026306152	0.999999046	-0.000183105	8.4877E-05	6.10352E-05	9.692382813	-1.82800293	0.657653809	-0.009155274	0.004243851	0.003051758	-0.822265625	0.309814453	0.612060547	890.58	-70.25869738	-78.99348115	-100.6250889	-55
8052	0	0.386827469	-0.071529388	0.026954651	0.999999046	0.000491142	-9.34601E-05	0.000190735	9.670686722	-1.788234711	0.673866272	0.024557115	-0.004673004	0.009536744	-0.822265625	0.312011719	0.608886719	890.6	-70.25847246	-78.9853251	-100.5657571	-55
8053	0	0.388244629	-0.07043457	0.027038574	0.999999046	0.000404358	-6.00815E-05	0.000247955	9.706115723	-1.760864258	0.675964355	0.020217896	-0.003004074	0.012397767	-0.822265625	0.309814453	0.609130859	890.62	-70.26096842	-78.96960768	-100.5199063	-55
8054	0	0.386259079	-0.07103157	0.028146744	0.999999046	0.000497818	-4.00543E-05	-9.53674E-07	9.656476974	-1.775789261	0.703668594	0.024890901	-0.002002716	-4.76837E-05	-0.822265625	0.312011719	0.611816406	890.56	-70.19189555	-78.97980925	-100.5335931	-55
8055	0	0.385864258	-0.071228027	0.024963379	0.999999046	0.000938416	-3.33786E-05	0.000137329	9.646606445	-1.780700684	0.624084473	0.046920783	-0.00166893	0.006866456	-0.822509766	0.314208984	0.611572266	890.52	-70.09676369	-78.97473452	-100.5206475	-55
8056	0	0.387800217	-0.068659782	0.027140617	0.999999046	0.000975609	-8.39233E-05	0.000209808	9.695005417	-1.71649456	0.678515434	0.048780449	-0.004196168	0.010490419	-0.824707031	0.314453125	0.611816406	890.58	-70.03967914	-78.96382613	-100.4680695	-55
8057	0	0.387939453	-0.06829834	0.027770996	0.999999046	0.00094986	-7.53403E-05	4.95911E-05	9.698486328	-1.707458496	0.694274902	0.047492988	-0.003767014	0.002479554	-0.822509766	0.316650391	0.611328125	890.66	-69.94829671	-78.96985936	-100.4502977	-55
8058	0	0.38842392	-0.069325447	0.026011467	0.999999046	0.000753403	-7.82013E-05	0	9.710597992	-1.733136177	0.650286674	0.037670139	-0.003910065	0	-0.822509766	0.318847656	0.611328125	890.52	-69.87117518	-78.98134296	-100.4382395	-55
8059	0	0.385925293	-0.066772461	0.026672363	0.999999046	0.000854492	5.05447E-05	3.05176E-05	9.648132324	-1.669311523	0.666809082	0.042724615	0.002527237	0.001525879	-0.822509766	0.318847656	0.60546875	890.58	-69.71727143	-78.9845273	-100.4923502	-55
8060	0	0.385552406	-0.064003944	0.026819229	0.999999046	0.000300407	-7.62939E-05	4.95911E-05	9.638810158	-1.60009861	0.670480728	0.015020371	-0.003814697	0.002479553	-0.822509766	0.318847656	0.608398438	890.5	-69.70036488	-78.99087919	-100.4734444	-55
8061	0	0.389831543	-0.068603516	0.026062012	0.999999046	-0.000267029	9.63211E-05	4.95911E-05	9.745788574	-1.715087891	0.651550293	-0.013351441	0.004816055	0.002479553	-0.822509766	0.318847656	0.60546875	890.62	-69.65332593	-78.99038766	-100.5494489	-55
8062	0	0.386889458	-0.068778038	0.025182724	0.999999046	0.000331879	0.000131607	3.43323E-05	9.672236443	-1.719450951	0.6295681	0.016593933	0.006580353	0.001716614	-0.822753906	0.321044922	0.608154297	890.6	-69.51551806	-78.99010178	-100.6456005	-55
8063	0	0.384460449	-0.066589355	0.028137207	0.999999046	5.72205E-05	0.000103951	2.28882E-05	9.61151123	-1.664733887	0.703430176	0.002861023	0.005197525	0.001144409	-0.824951172	0.318847656	0.60546875	890.6	-69.42162348	-78.99214202	-100.733226	-55
8064	0	0.386526108	-0.065261841	0.027674675	0.999999046	-0.000380516	7.24792E-05	1.04904E-05	9.663152695	-1.631546021	0.691866875	-0.019025803	0.003623962	0.000524521	-0.824951172	0.318847656	0.60546875	890.66	-69.39221104	-78.99687969	-100.8049637	-55
8065	0	0.387084961	-0.06842041	0.027893066	0.999999046	-0.000549316	0.000145912	0.000297546	9.677124023	-1.710510254	0.69732666	-0.027465822	0.007295609	0.01487732	-0.824951172	0.318847656	0.60546875	890.56	-69.40105008	-78.96782747	-100.8567556	-55
8066	0	0.384716988	-0.067093849	0.028357506	0.999999046	-0.00050354	0.000267029	0.000190735	9.61792469	-1.67734623	0.708937645	-0.025177003	0.013351441	0.009536744	-0.822509766	0.318603516	0.602539063	890.56	-69.31580169	-78.94533637	-100.9965109	-55
8067	0	0.385986328	-0.06640625	0.028137207	0.999999046	-0.001255035	0.000252724	0.000156403	9.649658203	-1.66015625	0.703430176	-0.062751787	0.012636188	0.007820132	-0.824951172	0.316650391	0.608642578	890.52	-69.31738923	-78.92714068	-101.1398448	-55
8068	0	0.387901306	-0.068681717	0.031394958	0.999996185	-0.002435684	0.000433922	0.000430107	9.697532654	-1.717042923	0.784873962	-0.121784338	0.021696114	0.021505378	-0.824707031	0.314208984	0.603027344	890.58	-69.41094333	-78.87221321	-101.3246763	-55
8069	0	0.389282227	-0.079650879	0.029418945	0.999997139	-0.002059937	0.000714302	0.000617981	9.732055664	-1.991271973	0.735473633	-0.102996914	0.035715134	0.030899074	-0.824462891	0.312011719	0.603271484	890.56	-69.3492053	-78.78529444	-101.6249373	-55
8070	0	0.386036873	-0.075238228	0.027890205	0.999999046	0.000135422	0.000459671	0.000565529	9.650921822	-1.880955696	0.697255135	0.006771088	0.022983553	0.028276446	-0.824707031	0.314208984	0.603027344	890.56	-69.16599501	-78.71392477	-101.7904219	-55
8071	0	0.387695313	-0.067138672	0.030517578	0.999999046	0.00019455	0.000512123	0.000461578	9.692382813	-1.678466797	0.762939453	0.009727479	0.025606158	0.02307892	-0.827148438	0.314453125	0.605957031	890.56	-68.92824149	-78.65151167	-102.0082516	-55
8072	0	0.385586739	-0.069925308	0.028985023	0.999999046	-0.000388145	0.000476837	0.000243187	9.639668465	-1.748132706	0.724625587	-0.019407274	0.02384186	0.012159348	-0.824707031	0.314453125	0.605957031	890.52	-68.7331566	-78.6137333	-102.2493182	-55
8073	0	0.386352539	-0.073120117	0.028015137	0.999999046	9.15527E-05	0.000332832	0.000244141	9.658813477	-1.82800293	0.700378418	0.004577637	0.016641617	0.012207032	-0.827148438	0.314453125	0.603027344	890.62	-68.56140302	-78.58159585	-102.4113303	-55
8074	0	0.386787415	-0.070374489	0.027612686	0.999999046	0.000383377	0.000234604	0.000297546	9.669685364	-1.759362221	0.690317154	0.019168855	0.011730195	0.01487732	-0.826904297	0.314453125	0.600341797	890.62	-68.42042025	-78.54784905	-102.5085813	-55
8075	0	0.386230469	-0.067443848	0.028808594	0.999999046	-0.000377655	0.000309944	0.000213623	9.655761719	-1.686096191	0.720214844	-0.018882752	0.015497208	0.010681153	-0.829345703	0.314453125	0.603271484	890.52	-68.31014376	-78.51997964	-102.6650934	-55
8076	0	0.386548042	-0.072452545	0.02777195	0.999999046	-0.000662804	0.000392914	0.000155449	9.663701057	-1.811313629	0.694298744	-0.033140186	0.019645693	0.007772446	-0.826904297	0.312255859	0.600341797	890.56	-68.17825757	-78.49466767	-102.8778663	-55
8077	0	0.385437012	-0.072570801	0.028259277	0.999999046	-0.00012207	0.000504494	0.000328064	9.635925293	-1.81427002	0.706481934	-0.006103516	0.025224687	0.016403199	-0.826904297	0.312255859	0.606201172	890.58	-67.96413565	-78.44604277	-103.1141079	-55
8078	0	0.383345604	-0.070755005	0.030702591	0.999999046	-0.000139236	0.000385284	0.00026989	9.583640099	-1.768875122	0.767564774	-0.006961823	0.019264222	0.013494492	-0.826904297	0.314453125	0.597412109	890.62	-67.8030448	-78.40856685	-103.2908164	-55
8079	0	0.387817383	-0.070739746	0.030212402	0.999999046	-0.000362396	0.000245094	0.000286102	9.69543457	-1.768493652	0.755310059	-0.018119813	0.012254716	0.014305115	-0.829345703	0.314453125	0.600341797	890.52	-67.74431974	-78.3754253	-103.3910929	-55
8080	0	0.386356354	-0.07232666	0.031141281	0.999999046	-0.000655174	0.000450134	0.000232697	9.658908844	-1.808166504	0.778532028	-0.032758717	0.022506716	0.011634828	-0.826904297	0.314453125	0.600341797	890.56	-67.60297775	-78.33893511	-103.6078506	-55
8081	0	0.385192871	-0.074829102	0.030517578	0.999999046	-6.86646E-05	0.000355721	0.000297546	9.629821777	-1.870727539	0.762939453	-0.003433228	0.017786027	0.01487732	-0.829345703	0.314453125	0.597412109	890.74	-67.45813913	-78.29945011	-103.7602116	-55
8082	0	0.385737419	-0.072317123	0.031513214	0.999999046	-3.62396E-05	0.000188828	0.000362396	9.643435478	-1.807928085	0.787830353	-0.001811981	0.009441376	0.018119813	-0.826904297	0.312255859	0.606201172	890.66	-67.40936322	-78.26035623	-103.818267	-55
8083	0	0.386047363	-0.071716309	0.030761719	0.999999046	-0.000141144	0.000126839	0.000339508	9.651184082	-1.792907715	0.769042969	-0.00705719	0.006341934	0.016975403	-0.829345703	0.314453125	0.603271484	890.58	-67.3996902	-78.22644308	-103.8446414	-55
8084	0	0.384526253	-0.072352409	0.027908325	0.999999046	-8.29697E-05	0.000116348	0.000209808	9.613156319	-1.808810234	0.69770813	-0.004148483	0.005817413	0.010490418	-0.829345703	0.314453125	0.603271484	890.62	-67.36227267	-78.20676341	-103.8927926	-55
8085	0	0.385192871	-0.0703125	0.028320313	0.999999046	-0.00056076	9.63211E-05	0.000385284	9.629821777	-1.7578125	0.708007813	-0.028038027	0.004816056	0.019264223	-0.829345703	0.312255859	0.600585938	890.5	-67.42735066	-78.16955592	-103.8951887	-55
8086	0	0.387083054	-0.073330879	0.03044796	0.999999046	-0.001106262	0.000156403	0.000193596	9.67707634	-1.83327198	0.761198997	-0.055313122	0.007820131	0.009679796	-0.831787109	0.314453125	0.59765625	890.62	-67.48454375	-78.14999914	-103.962492	-55
8087	0	0.385070801	-0.07434082	0.031066895	0.999999046	-0.001220703	0.000199318	0.000476837	9.62677002	-1.858520508	0.776672363	-0.061035174	0.0099659	0.023841865	-0.831787109	0.312255859	0.600585938	890.56	-67.59252884	-78.09851236	-103.99503	-55
8088	0	0.384559631	-0.074479103	0.031159401	0.999998093	-0.001302719	8.29697E-05	0.00057888	9.613990784	-1.861977577	0.778985023	-0.065135978	0.004148485	0.028944025	-0.829345703	0.312255859	0.603515625	890.58	-67.78898938	-78.0412196	-103.9450819	-55
8089	0	0.387695313	-0.075134277	0.031005859	0.999998093	-0.001296043	0.000141144	0.000576019	9.692382813	-1.878356934	0.775146484	-0.064802192	0.007057192	0.028800974	-0.829345703	0.312255859	0.600585938	890.52	-67.9541293	-77.98165021	-103.9237452	-55
8090	0	0.385704994	-0.077065468	0.031769753	0.999999046	-0.001037598	0.000295639	0.000473022	9.642624855	-1.926636696	0.794243813	-0.051879895	0.014781955	0.023651129	-0.831542969	0.310058594	0.603759766	890.56	-67.99159001	-77.92622924	-104.0078463	-55
8091	0	0.387756348	-0.077209473	0.031799316	0.999999046	-0.000827789	0.000290871	0.000453949	9.693908691	-1.930236816	0.79498291	-0.041389472	0.014543536	0.022697452	-0.829345703	0.310058594	0.603515625	890.62	-68.00395756	-77.8729425	-104.0911523	-55
8092	0	0.384370804	-0.078098297	0.031099319	0.999999046	-0.001076698	0.000141144	0.000247002	9.609270096	-1.952457428	0.777482986	-0.053834926	0.007057191	0.012350085	-0.829101563	0.307861328	0.600830078	890.62	-68.07805062	-77.84793014	-104.1417135	-55
8093	0	0.38293457	-0.079956055	0.034179688	0.999999046	-0.000511169	7.72476E-05	0.000289917	9.573364258	-1.998901367	0.854492188	-0.025558473	0.003862381	0.01449585	-0.831542969	0.307861328	0.601074219	890.62	-68.12715438	-77.82080245	-104.1520544	-55
8094	0	0.382454872	-0.08131218	0.034643173	0.999999046	-0.000257492	-1.71661E-05	0.00020504	9.561371803	-2.032804489	0.86607933	-0.012874604	-0.000858307	0.010251999	-0.829345703	0.310058594	0.603515625	890.62	-68.17666138	-77.80638117	-104.1274235	-55
8095	0	0.381530762	-0.085327148	0.035583496	0.999999046	0.000946045	-0.000128746	0.000274658	9.538269043	-2.133178711	0.889587402	0.047302254	-0.006437303	0.013732912	-0.829101563	0.307617188	0.597900391	890.5	-68.1567801	-77.7887555	-104.0388918	-55
8096	0	0.387778282	-0.085118294	0.029723167	0.999998093	0.001752853	-0.000275612	-7.24792E-05	9.694457054	-2.127957344	0.743079185	0.087642716	-0.013780601	-0.003623964	-0.829101563	0.307861328	0.600830078	890.58	-68.049471	-77.81399513	-103.9497305	-55
8097	0	0.381408691	-0.077819824	0.03717041	0.999996185	0.002614021	-0.00037384	0.000202179	9.535217285	-1.945495605	0.929260254	0.130701218	-0.018692038	0.01010896	-0.829345703	0.314453125	0.597412109	890.56	-67.94523593	-77.8141069	-103.7492732	-55
8098	0	0.385004997	-0.080831528	0.037549019	0.999996185	0.002385139	-0.000761986	0.000454903	9.625124931	-2.020788193	0.938725471	0.119257102	-0.03809933	0.022745157	-0.829589844	0.314453125	0.606201172	890.58	-68.10745677	-77.80367312	-103.3138068	-55
8099	0	0.384399414	-0.083129883	0.032470703	0.999990463	0.004208565	-0.000495911	5.72205E-05	9.609985352	-2.07824707	0.811767578	0.210428868	-0.024795606	0.002861032	-0.827148438	0.318847656	0.596923828	890.56	-67.85143767	-77.82382539	-103.0900352	-55
8100	0	0.38057518	-0.08199501	0.03150177	0.999986649	0.005119324	-0.00064373	8.39233E-05	9.514379501	-2.049875259	0.78754425	0.255967323	-0.032186651	0.004196186	-0.824951172	0.323242188	0.599365234	890.62	-67.56983919	-77.84752216	-102.7902222	-55
8101	0	0.385314941	-0.073791504	0.031066895	0.999985695	0.00522995	-0.000723839	5.34058E-05	9.632873535	-1.844787598	0.776672363	0.261498713	-0.036192108	0.0026703	-0.827636719	0.332275391	0.595947266	890.52	-67.30903325	-77.87844966	-102.451383	-55
8102	0	0.387122154	-0.068685532	0.03128624	0.999987602	0.004796982	-0.000757217	-0.000175476	9.678053856	-1.71713829	0.782155991	0.239850035	-0.037861019	-0.008773838	-0.825439453	0.334472656	0.595458984	890.62	-67.06714468	-77.93575298	-102.1499992	-55
8103	0	0.389221191	-0.070678711	0.029724121	0.999990463	0.004281044	-0.000526428	-0.000267029	9.730529785	-1.766967773	0.743103027	0.214052867	-0.026321493	-0.013351482	-0.823242188	0.341064453	0.589111328	890.56	-66.751471	-77.99298855	-101.9774776	-55
8104	0	0.387761116	-0.06643486	0.029642105	0.999990463	0.004261017	-0.000483513	-0.000157356	9.694027901	-1.660871506	0.741052628	0.213051496	-0.024175718	-0.007867837	-0.823242188	0.345458984	0.585693359	890.62	-66.43965517	-78.03742033	-101.8032939	-55
8105	0	0.386047363	-0.061889648	0.028320313	0.999995232	0.002971649	-0.000441551	-8.01086E-05	9.651184082	-1.547241211	0.708007813	0.148582682	-0.022077594	-0.004005438	-0.823486328	0.349853516	0.588378906	890.62	-66.27127076	-78.07263852	-101.6333078	-55
8106	0	0.385289192	-0.063486099	0.029272079	0.999998093	0.001503944	-0.000439644	-8.01086E-05	9.632229805	-1.587152481	0.731801987	0.075197251	-0.021982202	-0.004005434	-0.821289063	0.352050781	0.585205078	890.62	-66.27037905	-78.10835836	-101.4603954	-55
8107	0	0.387145996	-0.067810059	0.030883789	0.999999046	0.00025177	-0.000212669	0.00019455	9.678649902	-1.695251465	0.772094727	0.012588501	-0.010633469	0.009727478	-0.823730469	0.354492188	0.58203125	890.58	-66.36031163	-78.1050742	-101.3368992	-55
8108	0	0.387804031	-0.068555832	0.031118393	0.999999046	4.48227E-05	-0.000204086	3.8147E-06	9.695100784	-1.713895798	0.777959824	0.002241135	-0.010204315	0.000190735	-0.821289063	0.356445313	0.584716797	890.62	-66.42815695	-78.12164266	-101.2564437	-55
8109	0	0.387084961	-0.06842041	0.029907227	0.999999046	0.000213623	-9.44138E-05	3.8147E-06	9.677124023	-1.710510254	0.747680664	0.010681152	-0.004720688	0.000190735	-0.821289063	0.354248047	0.58203125	890.62	-66.42224133	-78.13343498	-101.2349986	-55
8110	0	0.386479378	-0.068106651	0.028824806	0.999999046	-0.000202179	-0.000110626	0.000102997	9.661984444	-1.702666283	0.720620155	-0.010108948	-0.005531311	0.005149841	-0.821289063	0.354248047	0.590820313	890.64	-66.49420319	-78.1358235	-101.186536	-55
8111	0	0.386474609	-0.067077637	0.027770996	0.999999046	-0.000785828	-6.77109E-05	0.000110626	9.661865234	-1.676940918	0.694274902	-0.039291386	-0.003385544	0.005531312	-0.821289063	0.354248047	0.590820313	890.56	-66.61379117	-78.13577545	-101.1556636	-55
8112	0	0.386096954	-0.068494797	0.031271935	0.999999046	-0.001357079	4.19617E-05	0.000118256	9.652423859	-1.712369919	0.781798363	-0.067853949	0.002098084	0.005912783	-0.821289063	0.354248047	0.587890625	890.58	-66.74535603	-78.1301276	-101.1744868	-55
8113	0	0.385620117	-0.071166992	0.030761719	0.999998093	-0.001418114	-4.95911E-05	0.0001297	9.64050293	-1.779174805	0.769042969	-0.070905709	-0.002479554	0.006484988	-0.823730469	0.352294922	0.591064453	890.58	-66.93233102	-78.12747934	-101.1467001	-55
8114	0	0.387190819	-0.07239151	0.030273438	0.999999046	-0.001276016	-2.47955E-05	0.000125885	9.67977047	-1.80978775	0.756835938	-0.063800829	-0.001239777	0.006294252	-0.821289063	0.349853516	0.591064453	890.66	-67.09002431	-78.12414417	-101.1327524	-55
8115	0	0.384460449	-0.072509766	0.030090332	0.999999046	-0.001293182	0.000142097	0.000114441	9.61151123	-1.812744141	0.752258301	-0.064659137	0.007104876	0.005722048	-0.821044922	0.34765625	0.591308594	890.58	-67.16375919	-78.11458323	-101.2076783	-55
8116	0	0.386265755	-0.072738647	0.030438423	0.999998093	-0.001432419	2.38419E-05	6.77109E-05	9.656643867	-1.818466187	0.760960579	-0.071620966	0.001192093	0.003385545	-0.821044922	0.34765625	0.588378906	890.56	-67.30310632	-78.11524638	-101.2266244	-55
8117	0	0.389038086	-0.074707031	0.030944824	0.999999046	-0.001369476	2.76566E-05	1.14441E-05	9.725952148	-1.867675781	0.773620605	-0.068473837	0.001382828	0.000572205	-0.821044922	0.345458984	0.594482422	890.52	-67.42175291	-78.12163951	-101.2627101	-55
8118	0	0.385066986	-0.076570511	0.030694008	0.999999046	-0.000871658	0.000101089	3.05176E-05	9.626674652	-1.914262772	0.767350197	-0.043582922	0.005054475	0.001525879	-0.823242188	0.343261719	0.591796875	890.56	-67.45083092	-78.12260884	-101.3336477	-55
8119	0	0.384277344	-0.074401855	0.031066895	0.999999046	-0.000427246	-2.57492E-05	0.000102997	9.606933594	-1.860046387	0.776672363	-0.021362305	-0.00128746	0.005149841	-0.821044922	0.343261719	0.597412109	890.6	-67.50807475	-78.1213881	-101.324273	-55
8120	0	0.38487339	-0.074446678	0.030920982	0.999999046	-0.000926018	5.72205E-05	3.05176E-05	9.621834755	-1.861166954	0.773024559	-0.046300895	0.002861023	0.001525879	-0.823242188	0.343261719	0.591796875	890.58	-67.56572001	-78.124126	-101.3686521	-55
8121	0	0.386657715	-0.075866699	0.030517578	0.999999046	-0.00075531	5.81741E-05	0.000144958	9.666442871	-1.89666748	0.762939453	-0.037765507	0.002908707	0.007247926	-0.823242188	0.341064453	0.592041016	890.62	-67.62744261	-78.11458322	-101.3916642	-55
8122	0	0.385777473	-0.075722694	0.032339096	0.999999046	-0.00047493	8.58307E-05	0.000282288	9.644436836	-1.89306736	0.808477402	-0.023746492	0.004291535	0.014114381	-0.822998047	0.336669922	0.595214844	890.56	-67.67141727	-78.08912499	-101.4094808	-55
8123	0	0.386901855	-0.074768066	0.031494141	0.999999046	-0.000236511	0.000222206	0.000137329	9.672546387	-1.86920166	0.787353516	-0.011825562	0.011110306	0.006866455	-0.823242188	0.338867188	0.597900391	890.56	-67.58969997	-78.07301273	-101.5241592	-55
8124	0	0.385585785	-0.074584007	0.030957222	0.999999046	0.000142097	0.000265121	0.000152588	9.639644623	-1.864600182	0.77393055	0.007104874	0.013256073	0.007629395	-0.822998047	0.338867188	0.592041016	890.58	-67.44669661	-78.05330361	-101.6550459	-55
8125	0	0.385009766	-0.072692871	0.030639648	0.999999046	0.000354767	2.00272E-05	0.000110626	9.625244141	-1.817321777	0.765991211	0.017738343	0.001001358	0.005531311	-0.825683594	0.341064453	0.592041016	890.56	-67.39350492	-78.04881395	-101.6669858	-55
8126	0	0.385418892	-0.072695732	0.030644417	0.999999046	0.000171661	7.82013E-05	-9.53674E-07	9.635472298	-1.817393303	0.76611042	0.008583069	0.003910065	-4.76837E-05	-0.822998047	0.338867188	0.589355469	890.58	-67.30906509	-78.05359775	-101.7345229	-55
8127	0	0.385925293	-0.073974609	0.029724121	0.999999046	0.00031662	-7.53403E-05	-2.28882E-05	9.648132324	-1.849365234	0.743103027	0.015830994	-0.003767014	-0.001144409	-0.823242188	0.341064453	0.589111328	890.56	-67.28055094	-78.06748712	-101.7239413	-55
8128	0	0.387031555	-0.073815346	0.031115532	0.999999046	0.000349998	4.95911E-05	1.04904E-05	9.675788879	-1.845383644	0.777888298	0.017499924	0.002479553	0.000524521	-0.825683594	0.341064453	0.592041016	890.62	-67.19279625	-78.07230316	-101.7730464	-55
8129	0	0.386169434	-0.071777344	0.030212402	0.999999046	0.000629425	2.76566E-05	6.10352E-05	9.65423584	-1.794433594	0.755310059	0.031471255	0.001382828	0.003051758	-0.825439453	0.341064453	0.586181641	890.62	-67.09473211	-78.07283752	-101.7988102	-55
8130	0	0.387379646	-0.069101334	0.030319214	0.999999046	0.000473022	7.62939E-05	9.82285E-05	9.684491158	-1.72753334	0.757980347	0.023651124	0.003814697	0.004911423	-0.823242188	0.341064453	0.589111328	890.62	-66.99808069	-78.06748936	-101.8431321	-55
8131	0	0.386291504	-0.068847656	0.029907227	0.999999046	-6.86646E-05	-1.43051E-05	-2.67029E-05	9.657287598	-1.721191406	0.747680664	-0.003433228	-0.000715256	-0.001335144	-0.823242188	0.341064453	0.594970703	890.58	-66.98227227	-78.07959618	-101.8702535	-55
8132	0	0.385623932	-0.068892479	0.028847694	0.999999046	-0.000660896	0.000165939	-2.67029E-05	9.640598297	-1.722311974	0.72119236	-0.033044818	0.008296967	-0.001335144	-0.825683594	0.341064453	0.592041016	890.56	-66.94444562	-78.08385081	-101.9867391	-55
8133	0	0.38659668	-0.069213867	0.027832031	0.999999046	-0.001110077	0.00011158	-3.8147E-05	9.664916992	-1.73034668	0.695800781	-0.055503857	0.005578996	-0.001907349	-0.822998047	0.338867188	0.592041016	890.58	-66.9832428	-78.09198824	-102.0773514	-55
8134	0	0.383787155	-0.072182655	0.030625343	0.999999046	-0.001192093	0.000162125	0.000312805	9.594678879	-1.804566383	0.765633583	-0.05960466	0.008106234	0.015640263	-0.825439453	0.338867188	0.589355469	890.52	-67.08072012	-78.06086947	-102.1150915	-55
8135	0	0.387695313	-0.070922852	0.030151367	0.999998093	-0.001429558	8.39233E-05	7.62939E-06	9.692382813	-1.773071289	0.75378418	-0.071477914	0.004196168	0.00038147	-0.822998047	0.336669922	0.592285156	890.52	-67.18001114	-78.06559639	-102.1793641	-55
8136	0	0.384026527	-0.074248314	0.029514313	0.999998093	-0.001346588	0.0002985	-0.000278473	9.600663185	-1.856207848	0.737857819	-0.067329429	0.014925008	-0.01392365	-0.827636719	0.334472656	0.586914063	890.62	-67.10251857	-78.09092634	-102.4138569	-55
8137	0	0.385375977	-0.075927734	0.031188965	0.999998093	-0.001887321	0.000118256	0.000137329	9.634399414	-1.898193359	0.779724121	-0.09436613	0.005912784	0.006866459	-0.825195313	0.33203125	0.58984375	890.58	-67.26497951	-78.08022038	-102.4667693	-55
8138	0	0.390289307	-0.078733444	0.035500526	0.999997139	-0.001962662	9.34601E-05	0.000548363	9.757232666	-1.968336105	0.887513161	-0.098133155	0.004673007	0.027418156	-0.825195313	0.329833984	0.593017578	890.62	-67.53345865	-78.02685046	-102.4223383	-55
8139	0	0.385192871	-0.077270508	0.034118652	0.999999046	-5.72205E-05	0.000275612	0.000236511	9.629821777	-1.931762695	0.852966309	-0.002861023	0.013780594	0.011825562	-0.825195313	0.329833984	0.593017578	890.58	-67.42741495	-77.99823753	-102.5379401	-55
8140	0	0.3829422	-0.07544136	0.031023979	0.999999046	0.000235558	3.62396E-05	0.000144958	9.573554993	-1.886034012	0.77559948	0.011777878	0.001811981	0.007247925	-0.827636719	0.330078125	0.595947266	890.56	-67.38852871	-77.98970678	-102.5531561	-55
8141	0	0.38494873	-0.07598877	0.030822754	0.999999046	3.8147E-05	-6.00815E-05	0.000476837	9.623718262	-1.899719238	0.770568848	0.001907349	-0.003004074	0.023841859	-0.824951172	0.327636719	0.590332031	890.56	-67.48888213	-77.95018858	-102.4520002	-54
8142	0	0.387932777	-0.074892044	0.032917023	0.999999046	-0.000385284	8.39233E-05	0.00031662	9.698319435	-1.872301102	0.822925568	-0.019264222	0.004196167	0.015830994	-0.825195313	0.330078125	0.598876953	890.52	-67.53273458	-77.92125153	-102.4565763	-55
8143	0	0.38482666	-0.079589844	0.032470703	0.999999046	0.000354767	7.72476E-05	4.19617E-05	9.620666504	-1.989746094	0.811767578	0.017738343	0.003862381	0.002098084	-0.827636719	0.330078125	0.593017578	890.52	-67.43904395	-77.92140803	-102.5144215	-54
8144	0	0.383655548	-0.077342033	0.03178978	0.999999046	0.001112938	0.000167847	0.000225067	9.591388702	-1.933550835	0.794744492	0.055646909	0.008392336	0.011253359	-0.825195313	0.330078125	0.598876953	890.56	-67.25176626	-77.89800699	-102.5838912	-54
8145	0	0.385375977	-0.071899414	0.030883789	0.999999046	0.000747681	6.58035E-05	0.00037384	9.634399414	-1.797485352	0.772094727	0.037384038	0.003290177	0.018692019	-0.827636719	0.334472656	0.58984375	890.52	-67.18763166	-77.86353142	-102.5615436	-54
8146	0	0.385621071	-0.074706078	0.030434608	0.999999046	-0.000110626	0.000255585	0.000254631	9.640526772	-1.867651939	0.760865211	-0.005531311	0.012779236	0.012731552	-0.827636719	0.334472656	0.58984375	890.5	-67.1046449	-77.83323071	-102.6594586	-54
8147	0	0.385437012	-0.076721191	0.03302002	0.999999046	0.000312805	0.000107765	0.000335693	9.635925293	-1.918029785	0.825500488	0.015640259	0.00538826	0.016784669	-0.827636719	0.332275391	0.593017578	890.56	-67.0625579	-77.80083334	-102.673372	-54
8148	0	0.384952545	-0.074579239	0.032903671	0.999999046	0.000823021	0.000154495	0.00062561	9.623813629	-1.864480972	0.822591782	0.041151054	0.007724763	0.031280523	-0.825439453	0.336669922	0.589599609	890.56	-66.99905291	-77.73576528	-102.6421379	-55
8149	0	0.385253906	-0.073730469	0.031982422	0.999999046	0.000621796	0.000206947	0.000499725	9.631347656	-1.843261719	0.799560547	0.031089786	0.010347368	0.02498627	-0.825439453	0.338867188	0.592285156	890.56	-66.9075572	-77.68171312	-102.6630371	-54
8150	0	0.385288239	-0.073281288	0.033513069	0.999999046	0.000114441	0.000228882	0.000494957	9.632205963	-1.832032204	0.837826729	0.005722046	0.011444092	0.02474785	-0.825439453	0.338867188	0.586425781	890.56	-66.86266996	-77.62726559	-102.6950437	-55
8151	0	0.38494873	-0.075866699	0.033874512	0.999999046	0.000221252	0.000222206	0.00056076	9.623718262	-1.89666748	0.846862793	0.011062623	0.011110307	0.028038027	-0.827880859	0.338867188	0.586669922	890.66	-66.82239222	-77.56615812	-102.7133202	-54
8152	0	0.384667397	-0.07433033	0.033771515	0.999999046	0.000504494	0.000509262	0.000475883	9.616684914	-1.858258247	0.844287872	0.025224689	0.025463107	0.023794177	-0.827880859	0.341064453	0.589355469	890.52	-66.59605546	-77.50104095	-102.8883923	-54
8153	0	0.381958008	-0.073791504	0.035217285	0.999999046	-8.39233E-05	0.000393867	0.000659943	9.548950195	-1.844787598	0.880432129	-0.004196167	0.019693377	0.032997135	-0.825439453	0.341064453	0.586181641	890.58	-66.53060979	-77.42179418	-102.9671439	-54
8154	0	0.388422012	-0.075715065	0.035692215	0.999999046	-0.000360489	0.000289917	0.000861168	9.710550308	-1.892876625	0.892305374	-0.018024447	0.014495852	0.043058402	-0.828125	0.343505859	0.589111328	890.56	-66.5867298	-77.32618787	-102.9532009	-54
8155	0	0.38470459	-0.077392578	0.034851074	0.999999046	0.000286102	0.000626564	0.000743866	9.617614746	-1.934814453	0.871276855	0.014305117	0.031328207	0.037193305	-0.825683594	0.343261719	0.586181641	890.56	-66.38864112	-77.22750878	-103.1252253	-54
8156	0	0.382294655	-0.074097633	0.033539772	0.999999046	0.000376701	0.000360489	0.000915527	9.557366371	-1.852440834	0.838494301	0.018835071	0.018024448	0.045776376	-0.825439453	0.343261719	0.583251953	890.6	-66.3397589	-77.12312451	-103.1362572	-54
8157	0	0.383972168	-0.07220459	0.033996582	0.999999046	-0.000118256	0.000401497	0.001003265	9.599304199	-1.805114746	0.849914551	-0.005912782	0.020074848	0.050163279	-0.828125	0.347900391	0.5859375	890.52	-66.34634459	-77.00795085	-103.1445864	-55
8158	0	0.383367538	-0.074813843	0.034956932	0.999999046	-0.000293732	0.000366211	0.00090313	9.584188461	-1.870346069	0.873923302	-0.014686587	0.01831055	0.045156487	-0.825927734	0.350097656	0.582519531	890.56	-66.36882919	-76.90510403	-103.1525443	-54
8159	0	0.386413574	-0.07611084	0.03326416	0.999999046	-6.10352E-05	0.00024128	0.000900269	9.660339355	-1.902770996	0.831604004	-0.003051758	0.012063982	0.045013434	-0.825683594	0.349853516	0.579833984	890.56	-66.42027713	-76.80852191	-103.1054977	-54
8160	0	0.385957718	-0.074613571	0.033622742	0.999998093	-0.000995636	0.000412941	0.000872612	9.648942947	-1.865339279	0.840568542	-0.049781815	0.020647056	0.043630614	-0.828125	0.350097656	0.579833984	890.52	-66.49597388	-76.7072908	-103.144507	-54
8161	0	0.378417969	-0.07611084	0.039367676	0.999997139	-0.001502991	0.00067234	0.001083374	9.460449219	-1.902770996	0.984191895	-0.075149585	0.033617041	0.054168736	-0.828369141	0.350097656	0.585693359	890.62	-66.5542658	-76.57214249	-103.2634099	-54
8162	0	0.375335693	-0.077153206	0.035429001	0.999998093	-0.001095772	0.000468254	0.001013756	9.383392334	-1.928830147	0.885725021	-0.054788612	0.023412714	0.050687811	-0.825927734	0.350097656	0.585449219	890.52	-66.64234703	-76.45374633	-103.3029128	-54
8163	0	0.391052246	-0.079956055	0.031005859	0.999996185	-0.002287865	0.000244141	0.000839233	9.776306152	-1.998901367	0.775146484	-0.114393349	0.012207043	0.041961712	-0.825927734	0.352294922	0.579589844	890.58	-66.93158939	-76.3641839	-103.2659923	-54
8164	0	0.397425652	-0.085098267	0.03081131	0.999992371	-0.003673553	0.00067234	0.001010895	9.935641289	-2.127456665	0.770282745	-0.183678132	0.033617104	0.050544865	-0.828125	0.347900391	0.5859375	890.58	-67.22473695	-76.23751718	-103.3948858	-54
8165	0	0.384338379	-0.084411621	0.041687012	0.999993324	-0.00320816	0.001160622	0.000961304	9.608459473	-2.110290527	1.042175293	-0.160408356	0.058031204	0.048065286	-0.825439453	0.343261719	0.580322266	890.62	-67.24478623	-76.09438431	-103.7509016	-55
8166	0	0.376404762	-0.083230972	0.036230087	0.999998093	-0.001385689	0.000258446	0.00064373	9.410119057	-2.080774307	0.905752182	-0.069284467	0.012922292	0.032186521	-0.830322266	0.343505859	0.583496094	890.64	-67.38552709	-76.02479528	-103.7690635	-55
8167	0	0.381530762	-0.083862305	0.03314209	0.999999046	0.000102997	-0.000418663	0.000724792	9.538269043	-2.096557617	0.828552246	0.005149842	-0.020933154	0.036239628	-0.825439453	0.341064453	0.589111328	890.52	-67.65710219	-75.97640383	-103.483667	-55
8168	0	0.384188652	-0.079896927	0.031859398	0.999999046	1.43051E-05	-0.000301361	0.000335693	9.604716301	-1.997423172	0.796484947	0.000715256	-0.015068055	0.016784669	-0.828125	0.343505859	0.589111328	890.52	-67.82044775	-75.96427865	-103.3174349	-55
8169	0	0.387023926	-0.082824707	0.035705566	0.999999046	-0.000846863	-3.33786E-05	0.000228882	9.675598145	-2.070617676	0.89263916	-0.042343145	-0.00166893	0.011444093	-0.828125	0.345703125	0.5859375	890.56	-67.94976835	-75.95201231	-103.2805459	-55
8170	0	0.383019447	-0.084648132	0.035596848	0.999999046	-0.000923157	4.3869E-05	0.000495911	9.575486183	-2.116203308	0.889921188	-0.046157845	0.002193451	0.024795537	-0.827880859	0.341064453	0.589355469	890.5	-68.10045759	-75.90807726	-103.2401481	-55
8171	0	0.379394531	-0.084411621	0.032775879	0.999998093	-0.000552177	-0.000274658	0.001308441	9.484863281	-2.110290527	0.819396973	-0.027608881	-0.013732915	0.065422081	-0.828125	0.343505859	0.589111328	890.52	-68.47905352	-75.79117061	-102.918825	-55
8172	0	0.384386063	-0.082402229	0.032473564	0.999997139	-0.001048088	-0.000144958	0.001739502	9.609651566	-2.060055733	0.811839104	-0.05240444	-0.00724793	0.086975158	-0.825683594	0.343261719	0.591796875	890.62	-68.92412377	-75.62255624	-102.5906958	-55
8173	0	0.384338379	-0.085632324	0.033996582	0.999997139	-0.001468658	0.000115395	0.001480103	9.608459473	-2.140808105	0.849914551	-0.073432976	0.005769734	0.074005181	-0.825683594	0.345703125	0.591796875	890.5	-69.2598084	-75.47066336	-102.4211521	-55
8174	0	0.376801491	-0.090144157	0.033697128	0.999998093	-0.000985146	-0.000214577	0.001109123	9.42003727	-2.253603935	0.842428207	-0.049257297	-0.01072884	0.055456182	-0.823242188	0.345458984	0.585693359	890.56	-69.61395209	-75.37150443	-102.1733495	-55
8175	0	0.381774902	-0.094909668	0.03894043	0.999998093	0.000905037	-0.00056839	0.001068115	9.544372559	-2.372741699	0.973510742	0.045251864	-0.028419505	0.053405782	-0.823486328	0.34765625	0.594238281	890.56	-69.88644227	-75.29013866	-101.7904305	-55
8176	0	0.381621361	-0.094489098	0.042460442	0.999991417	0.003783226	-0.000720978	0.001142502	9.540534019	-2.36222744	1.06151104	0.189161809	-0.036048986	0.057125245	-0.821289063	0.349853516	0.591064453	890.52	-69.89841582	-75.20622625	-101.3425324	-56
8177	0	0.385375977	-0.090942383	0.040161133	0.999986649	0.00490284	-0.000789642	0.001060486	9.634399414	-2.27355957	1.00402832	0.245143037	-0.039482286	0.05302452	-0.821533203	0.358886719	0.590332031	890.56	-69.79464274	-75.1339343	-100.8792754	-56
8178	0	0.382678032	-0.092652321	0.039363861	0.999986649	0.004986763	-0.000451088	0.000844955	9.566950798	-2.316308022	0.984096527	0.249339222	-0.022554495	0.042247954	-0.817138672	0.367675781	0.586425781	890.5	-69.51041805	-75.07164143	-100.5867432	-55
8179	0	0.384155273	-0.08984375	0.035827637	0.999979019	0.006409645	-0.000183105	0.000808716	9.603881836	-2.24609375	0.895690918	0.320484485	-0.009155337	0.040436073	-0.817138672	0.369873047	0.583496094	890.58	-68.95064216	-75.00304699	-100.4242781	-56
8180	0	0.383235931	-0.08499527	0.031952858	0.999961853	0.00863266	8.86917E-05	0.000538826	9.580898285	-2.124881744	0.798821449	0.431638378	0.004434641	0.026941635	-0.817382813	0.380859375	0.573730469	890.58	-67.98919012	-74.95287163	-100.4117509	-56
8181	0	0.380432129	-0.080200195	0.031555176	0.999955177	0.009437561	0.000123024	0.000652313	9.510803223	-2.005004883	0.788879395	0.471885092	0.006151291	0.032616148	-0.817871094	0.392089844	0.569824219	890.56	-66.94443953	-74.88996252	-100.3926087	-55
8182	0	0.378617287	-0.075369835	0.030629158	0.999952316	0.009709358	0.000212669	0.000658989	9.465432167	-1.884245872	0.765728951	0.485475578	0.010633637	0.032949968	-0.815917969	0.403076172	0.562988281	890.6	-65.84001782	-74.82330336	-100.4040173	-56
8183	0	0.377563477	-0.071166992	0.030761719	0.999965668	0.008179665	0.000137329	0.000659943	9.439086914	-1.779174805	0.769042969	0.408987822	0.006866532	0.032997502	-0.816162109	0.416503906	0.556152344	890.56	-64.94506178	-74.76123468	-100.3732517	-56
8184	0	0.375501633	-0.075227737	0.032766342	0.999976158	0.006749153	-0.000404358	0.00062561	9.387540817	-1.880693436	0.819158554	0.33746025	-0.020218051	0.031280758	-0.818603516	0.423339844	0.544189453	890.58	-64.41736629	-74.73019961	-100.1319126	-56
8185	0	0.368530273	-0.074462891	0.038208008	0.999980927	0.006024361	-0.000743866	0.00043869	9.213256836	-1.861572266	0.955200195	0.301219892	-0.037193528	0.021934645	-0.816650391	0.432128906	0.540283203	890.58	-64.06780102	-74.73647758	-99.7877825	-57
8186	0	0.358398438	-0.075034142	0.044805527	0.999988556	0.004517555	-0.000882149	0.000890732	8.959960938	-1.875853539	1.120138168	0.225878589	-0.044107599	0.044536754	-0.814453125	0.438720703	0.539550781	890.62	-64.02475017	-74.70371093	-99.30441115	-57
8187	0	0.339111328	-0.076293945	0.051391602	0.999986649	0.004696846	0.000209808	0.002086639	8.477783203	-1.907348633	1.284790039	0.234843336	0.010490464	0.10433243	-0.814697266	0.4453125	0.533203125	890.56	-63.76661117	-74.49298655	-99.02504827	-58
8188	0	0.301814079	-0.070055008	0.045091629	0.999975204	0.006011963	0.001099586	0.003486633	7.545351982	-1.751375198	1.127290726	0.300600625	0.054979778	0.174333104	-0.812744141	0.454345703	0.532470703	890.58	-63.28555091	-74.09349615	-98.82958421	-60
8189	0	0.262390137	-0.065307617	0.041809082	0.99992466	0.011405945	2.38419E-05	0.004535675	6.559753418	-1.63269043	1.045227051	0.570311563	0.001192123	0.226789448	-0.810791016	0.469726563	0.522216797	890.58	-62.76056738	-73.6429667	-98.04403392	-62
8190	0	0.249040604	-0.052516937	0.031708717	0.999914169	0.011618614	-0.002175331	0.00555706	6.226015091	-1.312923431	0.792717934	0.580947229	-0.108769649	0.277860913	-0.806640625	0.489746094	0.514648438	890.56	-63.12446288	-73.20351324	-96.30670715	-63
8191	0	0.277954102	-0.051635742	0.040039063	0.999979019	0.003476143	-0.002902985	0.004501343	6.948852539	-1.290893555	1.000976563	0.173808325	-0.145150217	0.225068668	-0.795410156	0.509277344	0.506591797	890.66	-64.429881	-72.9029342	-94.52927578	-64
8192	0	0.275914192	-0.083378792	0.049200058	0.999996185	0.001548767	-0.000342369	0.00214386	6.897854805	-2.084469795	1.23000145	0.077438446	-0.017118474	0.10719312	-0.791015625	0.518066406	0.508300781	890.52	-64.68448854	-72.71242528	-94.07329256	-68
8193	0	0.229614258	-0.060546875	0.049316406	0.999980927	0.005105019	0.001327515	0.00302887	5.740356445	-1.513671875	1.232910156	0.255252505	0.066376142	0.151444415	-0.786621094	0.526855469	0.504394531	890.62	-64.11422881	-72.34768363	-94.05633034	-69
8194	0	0.267292023	-0.073560715	0.056631088	0.999972343	0.002859116	0.000356674	0.006849289	6.682300568	-1.839017868	1.415777206	0.142957096	0.017833874	0.342467599	-0.782470703	0.542480469	0.502929688	890.56	-64.68891456	-71.63566805	-93.10436504	-66
8195	0	0.307312012	-0.076049805	0.031860352	0.999919891	-0.003165245	0.00554657	0.010879517	7.682800293	-1.901245117	0.796508789	-0.158266451	0.277335848	0.54399026	-0.775878906	0.560058594	0.498291016	890.5	-64.89943766	-70.25125104	-93.25334987	-73
8196	0	0.312911987	-0.107106209	0.047264099	0.999795914	-0.009220123	0.007748604	0.016219139	7.822799683	-2.67765522	1.181602478	-0.461037527	0.387456548	0.811012125	-0.767089844	0.577636719	0.490478516	890.62	-65.84871837	-68.20546876	-93.34711853	-75
8197	0	0.327941895	-0.124816895	0.062805176	0.999554634	-0.015197754	0.010235786	0.023548126	8.198547363	-3.120422363	1.570129395	-0.76000049	0.51186529	1.17758108	-0.748779297	0.594970703	0.499755859	890.56	-67.54923071	-65.27616146	-93.38171302	-69
8198	0	0.302879333	-0.141729355	0.0343647	0.999220848	-0.013967514	0.0131073	0.034490585	7.571983337	-3.543233871	0.859117508	-0.698556998	0.655535121	1.72497695	-0.726074219	0.623046875	0.501708984	890.62	-69.25388078	-61.0605094	-93.28420366	-73
8199	0	0.261779785	-0.182250977	0.045776367	0.99888134	-0.010131836	0.013577461	0.044136047	6.544494629	-4.556274414	1.14440918	-0.506780692	0.679126196	2.207625227	-0.689697266	0.671142578	0.492919922	890.58	-70.83819278	-55.78469333	-92.82363497	-67
8200	0	0.339539528	-0.232169151	0.089004517	0.998868942	0.001543045	0.013113976	0.045672417	8.488488197	-5.804228783	2.225112915	0.077181347	0.655946043	2.284481999	-0.632324219	0.727050781	0.487792969	890.56	-71.04018125	-50.35537106	-92.39379382	-68
8201	0	0.300170898	-0.214660645	0.024780273	0.998293877	0.009571075	0.020524025	0.053817749	7.504272461	-5.366516113	0.619506836	0.478826104	1.026785231	2.69241876	-0.572753906	0.794189453	0.464355469	890.52	-69.78163572	-43.76462394	-92.68377919	-73
8202	0	0.269918442	-0.209148407	0.049592972	0.997419357	-0.004132271	0.025496483	0.066982269	6.747961044	-5.228710175	1.239824295	-0.206791427	1.275921715	3.351996917	-0.491455078	0.8671875	0.427734375	890.58	-70.16205254	-35.55930959	-92.89832601	-68
8203	0	0.389099121	-0.208251953	0.118408203	0.996481895	-0.025592804	0.02606678	0.07542038	9.727478027	-5.206298828	2.960205078	-1.281142706	1.304869339	3.77544678	-0.381591797	0.928222656	0.422119141	890.56	-73.04108137	-26.42891161	-93.05378879	-75
8204	0	0.713625908	-1.380632401	-0.170578957	0.996488571	0.010469437	0.039420128	0.073111534	17.8406477	-34.51581001	-4.264473915	0.524085258	1.973316101	3.659860463	-0.308349609	0.932617188	0.467285156	890.62	-71.17895861	-17.08336511	-95.0318881	-82
8205	0	0.536437988	-0.661987305	0.274291992	0.993494034	0.079766273	0.003726959	0.081188202	13.41094971	-16.54968262	6.857299805	3.996984494	0.186753092	4.068235482	-0.159667969	1.016113281	0.367675781	890.62	-62.76377684	-8.382946109	-91.81360257	-72
8206	0	0.193147659	0.305023193	0.547160149	0.997831345	-0.012804985	0.041754723	0.04924202	4.828691483	7.625579834	13.67900372	-0.640712437	2.089246491	2.463882177	0.043701172	1.075195313	0.223388672	890.56	-64.08359746	-1.239130083	-93.50364395	-66
8207	0	-0.547119141	-0.455932617	0.34576416	0.995059967	-0.097434044	-0.016998291	0.008518219	-13.67797852	-11.39831543	8.644104004	-4.879739574	-0.851316748	0.426613622	0.112304688	1.046875	0.335449219	890.62	-75.30283933	-1.019382274	-91.30666544	-63
8208	0	0.11226368	-0.462089539	0.009062767	0.998602867	-0.007626534	0.013534546	-0.050498009	2.806591988	-11.55223846	0.226569176	-0.381504304	0.677042527	-2.526076581	0.078369141	0.993164063	0.481445313	890.68	-75.98779009	-6.269607167	-94.22719522	-62
8209	0	-0.130493164	-0.516540527	0.174133301	0.9988451	-0.007694244	0.016102791	-0.044605255	-3.262329102	-12.91351318	4.35333252	-0.384860367	0.805449592	-2.231121605	-0.038818359	0.995117188	0.481933594	890.68	-76.41162216	-10.81066706	-97.27033736	-63
8210	0	-0.083751678	-0.560581207	0.018836975	0.997390747	0.066058159	0.009036064	-0.027671814	-2.093791962	-14.01453018	0.470924377	3.3057833	0.452196526	-1.384795187	-0.157714844	0.985595703	0.468994141	890.56	-68.41286936	-13.5254267	-99.27417288	-63
8211	0	-0.098083496	-0.07232666	0.04498291	0.997244835	0.073604584	0.00628376	-0.006710052	-2.452087402	-1.808166504	1.124572754	3.68361243	0.314476837	-0.335811053	-0.190429688	1.047851563	0.282226563	890.52	-59.72870014	-13.89963066	-100.3012182	-64
8212	0	-0.044663429	-0.048683167	0.084856987	0.999958038	-0.003278732	0.004746437	-0.007077217	-1.116585732	-1.217079163	2.121424675	-0.163938893	0.237325151	-0.353865772	-0.208740234	1.070068359	0.173828125	890.62	-59.87966067	-14.32097058	-101.2175098	-63
8213	0	0.047851563	-0.452636719	0.148254395	0.999875069	-0.014888763	0.005070686	-0.001483917	1.196289063	-11.31591797	3.706359863	-0.744469142	0.253544865	-0.074198949	-0.223388672	1.062011719	0.210205078	890.56	-61.43758892	-14.17516331	-101.8365126	-62
8214	0	0.116576195	-0.645131111	0.203127861	0.999185562	0.039212227	0.008191109	-0.004732132	2.914404869	-16.12827778	5.078196526	1.961143414	0.40966658	-0.236670808	-0.223144531	1.059570313	0.207519531	890.58	-56.67798021	-14.14601002	-102.9616203	-61
8215	0	0.032287598	-0.379089355	0.26965332	0.99955368	0.029461861	-0.001533508	-0.004585266	0.807189941	-9.477233887	6.741333008	1.473311968	-0.076686811	-0.229297379	-0.236328125	1.068359375	0.114257813	890.58	-53.2685365	-14.66135127	-103.1320146	-61
8216	0	0.06789875	-0.326836586	0.325843811	0.999555588	0.028787613	-0.005303383	-0.005550385	1.697468758	-8.17091465	8.146095276	1.439593677	-0.265208389	-0.2775603	-0.244628906	1.068115234	0.053710938	890.56	-49.99515312	-15.51906982	-103.0553125	-63
8217	0	0.125305176	-0.234863281	0.294006348	0.999912262	0.010220528	-0.002906799	-0.007808685	3.132629395	-5.871582031	7.350158691	0.511041194	-0.145344178	-0.390445581	-0.258056641	1.063720703	0.005371094	890.68	-48.72945774	-16.39830323	-103.4059623	-64
8218	0	0.1298666	-0.17755127	0.247281075	0.999966621	0.002412796	-0.001714706	-0.007543564	3.246665001	-4.438781738	6.182026863	0.120641121	-0.085736259	-0.37718232	-0.276611328	1.059814453	-0.010742188	890.66	-48.32105397	-17.16188446	-103.8590421	-66
8219	0	0.142028809	-0.191101074	0.212768555	0.999970436	0.000591278	-0.002257347	-0.007209778	3.550720215	-4.777526855	5.319213867	0.029564187	-0.112868436	-0.360492342	-0.290771484	1.055908203	-0.012695313	890.66	-48.13503651	-17.9391779	-104.2429309	-67
8220	0	0.18519783	-0.222241402	0.18150425	0.999958992	0.006102562	-0.001319885	-0.006461143	4.629945755	-5.556035042	4.537606239	0.305132203	-0.065995151	-0.323061522	-0.307373047	1.049804688	-0.011230469	890.66	-47.30392698	-18.58230052	-104.6599195	-68
8221	0	0.224914551	-0.300292969	0.206848145	0.9998703	0.016018867	-0.000377655	-0.00151825	5.62286377	-7.507324219	5.171203613	0.80097796	-0.018883567	-0.075915754	-0.318603516	1.043457031	-0.024658203	890.66	-45.43678238	-18.73676966	-104.7661587	-70
8222	0	0.145775795	-0.344795227	0.25063324	0.999490738	0.030564308	0.004790306	0.007750511	3.644394875	-8.619880676	6.265830994	1.528474609	0.239555929	0.387591287	-0.315673828	1.045166016	-0.071533203	890.68	-42.0221	-17.72478651	-104.5053776	-71
8223	0	0.153808594	-0.265075684	0.289245605	0.99930954	0.03621006	-0.001075745	0.008163452	3.845214844	-6.62689209	7.231140137	1.810919369	-0.053799601	0.408266475	-0.299804688	1.041748047	-0.144775391	890.62	-38.12421315	-17.21657108	-103.6861853	-71
8224	0	0.113480568	-0.177027702	0.33539772	0.99974823	0.019872665	-0.002402306	0.010057449	2.837014198	-4.425692558	8.384943008	0.993716398	-0.120125329	0.502914537	-0.279296875	1.038330078	-0.212646484	890.62	-36.17659193	-16.73928508	-102.5647353	-71
8225	0	0.092285156	-0.232543945	0.325683594	0.999911308	0.011249542	-0.005141258	0.004920959	2.307128906	-5.813598633	8.142089844	0.562493725	-0.257070505	0.246055241	-0.26171875	1.03515625	-0.242431641	890.66	-35.12818073	-16.88720625	-101.7362398	-72
8226	0	0.110816956	-0.219498634	0.331573486	0.999940872	0.008008003	-0.006056786	-0.004077911	2.770423889	-5.487465858	8.289337158	0.400407999	-0.302845207	-0.20389956	-0.258789063	1.030517578	-0.268310547	890.58	-34.2117317	-17.72122522	-101.7295582	-72
8227	0	0.124267578	-0.202636719	0.323242188	0.999958992	0.002017975	-0.006022453	-0.006309509	3.106689453	-5.065917969	8.081054688	0.100900091	-0.301126688	-0.315479678	-0.274902344	1.021972656	-0.275634766	890.56	-33.90776094	-18.69541663	-101.9584567	-74
8228	0	0.129829407	-0.198226929	0.302866936	0.999968529	-0.003184319	-0.004024506	-0.005954742	3.245735168	-4.955673218	7.571673393	-0.159217567	-0.201227353	-0.297740188	-0.291748047	1.020507813	-0.268554688	890.68	-34.16331529	-19.45746444	-102.2901732	-75
8229	0	0.140625	-0.22052002	0.301147461	0.999994278	-0.001563072	-0.001411438	-0.002540588	3.515625	-5.513000488	7.528686523	-0.078153752	-0.070572028	-0.12702965	-0.301269531	1.018554688	-0.265136719	890.62	-34.28680824	-19.75340754	-102.4567859	-76
8230	0	0.159121513	-0.188947678	0.309204102	0.999999046	-0.001058578	0.000637054	0.00028801	3.978037834	-4.72369194	7.730102539	-0.052928939	0.031852731	0.014400486	-0.303955078	1.018798828	-0.256103516	890.56	-34.3999435	-19.67447668	-102.4812101	-77
8231	0	0.145202637	-0.192382813	0.310913086	0.999984741	-0.004057884	0.002311707	0.002799988	3.630065918	-4.809570313	7.772827148	-0.202895213	0.115585898	0.140000081	-0.303955078	1.018798828	-0.250488281	890.62	-34.90109656	-19.27488374	-102.3728276	-77
8232	0	0.135401726	-0.223046303	0.306451797	0.99998188	-0.003655434	0.001937866	0.004248619	3.385043144	-5.57615757	7.661294937	-0.182772754	0.096893878	0.212432199	-0.294921875	1.025146484	-0.242675781	890.64	-35.4099739	-18.81397653	-102.0982531	-76
8233	0	0.12097168	-0.225646973	0.311035156	0.999992371	-0.000563622	0.00062561	0.003601074	3.024291992	-5.641174316	7.775878906	-0.02818114	0.031280589	0.180054121	-0.282958984	1.027099609	-0.246337891	890.56	-35.57114176	-18.51659395	-101.7967451	-75
8234	0	0.118056297	-0.215686798	0.311245918	0.999996185	-0.001624107	-0.000437737	0.001955032	2.951407433	-5.392169952	7.781147957	-0.081205458	-0.02188685	0.097751726	-0.278320313	1.029052734	-0.238037109	890.66	-35.82480633	-18.42680982	-101.58327	-75
8235	0	0.121520996	-0.228149414	0.303833008	0.999997139	-0.00201416	-0.00032711	0.00018692	3.038024902	-5.703735352	7.595825195	-0.100708078	-0.016355526	0.009346015	-0.276123047	1.03125	-0.232666016	890.62	-36.06626432	-18.44460828	-101.5501505	-75
8236	0	0.125478745	-0.228376389	0.301550865	0.999999046	-4.29153E-05	-0.000394821	-0.000977516	3.136968613	-5.709409714	7.538771629	-0.002145768	-0.019741062	-0.048875818	-0.278564453	1.033691406	-0.235595703	890.62	-36.04783463	-18.5471553	-101.6254028	-75
8237	0	0.129638672	-0.221496582	0.305603027	0.999998093	0.001458168	-0.000225067	-0.001251221	3.240966797	-5.537414551	7.640075684	0.072908447	-0.011253364	-0.062561074	-0.278564453	1.033691406	-0.232666016	890.66	-35.84486819	-18.65240306	-101.7393241	-75
8238	0	0.130731583	-0.210513115	0.30628109	0.999999046	0.00041008	0.000318527	-0.000653267	3.268289566	-5.262827873	7.657027245	0.020504	0.015926363	-0.032663349	-0.281005859	1.031494141	-0.235351563	890.62	-35.76788717	-18.66706621	-101.8339777	-75
8239	0	0.131103516	-0.217346191	0.308227539	0.999999046	-0.00100708	0.000573158	0.000198364	3.277587891	-5.433654785	7.705688477	-0.050354016	0.02865792	0.009918215	-0.283203125	1.029296875	-0.234863281	890.56	-35.87418082	-18.60118193	-101.8641502	-75
8240	0	0.126331329	-0.220761299	0.306585312	0.999999046	-0.000832558	0.000230789	0.000769615	3.158283234	-5.519032478	7.664632797	-0.041627893	0.011539462	0.038480767	-0.283447266	1.029296875	-0.229003906	890.68	-35.98608093	-18.52868914	-101.8150409	-75
8241	0	0.123718262	-0.222717285	0.307617188	0.999999046	-0.000110626	-0.000380516	0.000320435	3.092956543	-5.567932129	7.690429688	-0.005531311	-0.019025803	0.016021729	-0.281005859	1.031494141	-0.232421875	890.62	-36.0151377	-18.54290557	-101.7652649	-75
8242	0	0.124540329	-0.223292351	0.305641174	0.999999046	0.000196457	-0.000684738	-0.000195503	3.113508224	-5.582308769	7.641029358	0.009822846	-0.034236911	-0.009775163	-0.278564453	1.029296875	-0.232177734	890.58	-36.00002902	-18.61997762	-101.7433998	-75
8243	0	0.129211426	-0.222473145	0.305297852	0.999999046	0.000301361	-0.000647545	-0.000644684	3.230285645	-5.561828613	7.632446289	0.015068057	-0.032377248	-0.032234197	-0.280761719	1.031494141	-0.23828125	890.62	-35.95814238	-18.72396825	-101.7677193	-75
8244	0	0.130866051	-0.221879005	0.30251503	0.999999046	0.000609398	-0.000137329	-0.000348091	3.271651268	-5.546975136	7.562875748	0.030469897	-0.006866456	-0.017404558	-0.281005859	1.031494141	-0.235351563	890.66	-35.87880158	-18.76084964	-101.79946	-75
8245	0	0.130615234	-0.218322754	0.308776855	0.999999046	0.000759125	8.4877E-05	-0.000232697	3.265380859	-5.458068848	7.719421387	0.037956242	0.004243851	-0.011634828	-0.283203125	1.029296875	-0.237792969	890.62	-35.78072841	-18.76942383	-101.8364443	-75
8246	0	0.130420685	-0.218833923	0.307177544	0.999999046	-0.000352859	0.000169754	-5.05447E-05	3.26051712	-5.470848083	7.679438591	-0.017642975	0.008487702	-0.002527237	-0.285400391	1.027099609	-0.237548828	890.66	-35.81388793	-18.75800625	-101.862422	-75
8247	0	0.128173828	-0.216918945	0.304016113	0.999999046	-0.000190735	0.000473976	8.01086E-05	3.204345703	-5.422973633	7.600402832	-0.009536744	0.023698808	0.004005432	-0.287841797	1.02734375	-0.234619141	890.56	-35.82567396	-18.70964699	-101.8981604	-74
8248	0	0.127905846	-0.222307205	0.309423447	0.999999046	-0.000594139	0.000160217	-0.000348091	3.197646141	-5.55768013	7.735586166	-0.029706957	0.008010865	-0.017404558	-0.283203125	1.029296875	-0.234863281	890.62	-35.87742158	-18.71912593	-101.9513496	-74
8249	0	0.129821777	-0.221435547	0.303894043	0.999999046	-0.000125885	-3.33786E-05	-0.000385284	3.245544434	-5.535888672	7.597351074	-0.006294251	-0.00166893	-0.019264222	-0.285644531	1.029541016	-0.234863281	890.62	-35.87890511	-18.74922799	-101.994926	-74
8250	0	0.129095078	-0.218789101	0.305294037	0.999999046	0.000478745	0.00019455	-0.000133514	3.227376938	-5.469727516	7.632350922	0.023937226	0.009727478	-0.006675721	-0.288085938	1.029541016	-0.231689453	890.62	-35.81384021	-18.74132828	-102.031066	-74
8251	0	0.129455566	-0.221496582	0.306640625	0.999999046	0.000137329	-3.71933E-05	-0.000434875	3.23638916	-5.537414551	7.666015625	0.006866455	-0.001859665	-0.021743775	-0.285644531	1.029296875	-0.237792969	890.62	-35.7837737	-18.775188	-102.0784582	-73
8252	0	0.129850388	-0.21745491	0.305774689	0.999999046	0.00033474	0.000423431	-0.000515938	3.246259689	-5.436372757	7.644367218	0.016736986	0.021171572	-0.025796893	-0.287841797	1.02734375	-0.234619141	890.62	-35.71798046	-18.77171559	-102.167455	-73
8253	0	0.130126953	-0.217468262	0.308105469	0.999999046	-0.000244141	0.000447273	-0.000179291	3.253173828	-5.436706543	7.702636719	-0.012207032	0.022363664	-0.008964539	-0.288085938	1.029541016	-0.231689453	890.72	-35.7285616	-18.74355209	-102.2250593	-73
8254	0	0.130357742	-0.21616745	0.306162834	0.999999046	-0.000745773	0.000562668	0.000296593	3.258943558	-5.404186249	7.654070854	-0.037288672	0.028133397	0.014829638	-0.287841797	1.029541016	-0.237548828	890.62	-35.8089604	-18.67297493	-102.2437207	-73
8255	0	0.128662109	-0.220703125	0.307556152	0.999999046	-0.000701904	0.000473976	0.000461578	3.216552734	-5.517578125	7.688903809	-0.03509522	0.02369881	0.023078922	-0.288085938	1.029541016	-0.231689453	890.66	-35.89154461	-18.59962056	-102.2410093	-73
8256	0	0.127192497	-0.219298363	0.306452751	0.999999046	-0.000393867	0.000150681	0.000506401	3.179812431	-5.482459068	7.661318779	-0.019693376	0.007534028	0.025320055	-0.285644531	1.029296875	-0.237792969	890.62	-35.9474967	-18.55325723	-102.2098489	-73
8257	0	0.12512207	-0.222595215	0.30847168	0.999999046	-0.000377655	-0.000124931	0.000282288	3.128051758	-5.564880371	7.711791992	-0.018882752	-0.006246567	0.01411438	-0.285644531	1.029541016	-0.231933594	890.56	-36.00086293	-18.54738449	-102.1817435	-73
8258	0	0.127514839	-0.220945358	0.305159569	0.999999046	-0.000185013	-0.000282288	-5.81741E-05	3.187870979	-5.523633957	7.62898922	-0.009250641	-0.01411438	-0.002908707	-0.285644531	1.029541016	-0.234863281	890.62	-36.02518913	-18.57906669	-102.1752078	-73
8259	0	0.128662109	-0.219970703	0.306030273	0.999999046	-0.000198364	-9.44138E-05	9.53674E-05	3.216552734	-5.499267578	7.650756836	-0.009918213	-0.004720688	0.004768372	-0.285888672	1.031738281	-0.229248047	890.56	-36.0515598	-18.58307951	-102.1674197	-73
8260	0	0.129288673	-0.220544815	0.306833267	0.999999046	-0.000433922	9.34601E-05	0.000228882	3.232216835	-5.513620377	7.67083168	-0.021696092	0.004673004	0.011444092	-0.285644531	1.029541016	-0.231933594	890.58	-36.10479381	-18.56077842	-102.1599294	-73
8261	0	0.128417969	-0.219970703	0.304992676	0.999999046	-0.000549316	0.000283241	0.00056839	3.210449219	-5.499267578	7.624816895	-0.027465824	0.014162065	0.028419498	-0.285888672	1.031738281	-0.229248047	890.56	-36.17745704	-18.49805881	-102.1334432	-73
8262	0	0.126588821	-0.221428871	0.306835175	0.999999046	-0.000778198	0.000354767	0.000529289	3.164720535	-5.535721779	7.670879364	-0.038909919	0.017738345	0.026464467	-0.283447266	1.031738281	-0.229248047	890.62	-36.27343346	-18.43132186	-102.115258	-73
8263	0	0.126281738	-0.22277832	0.303833008	0.999999046	-0.000774384	0.000283241	0.000312805	3.157043457	-5.569458008	7.595825195	-0.038719182	0.014162065	0.015640261	-0.283447266	1.033935547	-0.229492188	890.58	-36.36397212	-18.38587559	-102.1130239	-73
8264	0	0.123953819	-0.224611282	0.305203438	0.999999046	-9.44138E-05	0.000238419	0.00019455	3.098845482	-5.615282059	7.630085945	-0.004720688	0.011920929	0.009727478	-0.28125	1.031494141	-0.223632813	890.58	-36.37405705	-18.35248839	-102.1191467	-73
8265	0	0.125976563	-0.225219727	0.3046875	0.999999046	-0.000297546	-8.29697E-05	-3.8147E-06	3.149414063	-5.630493164	7.6171875	-0.01487732	-0.004148483	-0.000190735	-0.281005859	1.031494141	-0.229492188	890.58	-36.40872655	-18.36223605	-102.1206191	-73
8266	0	0.124991417	-0.22289753	0.303617477	0.999999046	0.000137329	-2.86102E-05	0.000113487	3.124785423	-5.57243824	7.590436935	0.006866455	-0.001430511	0.005674362	-0.283447266	1.031738281	-0.226318359	890.66	-36.39596912	-18.35898751	-102.1161633	-73
8267	0	0.126281738	-0.224060059	0.30480957	0.999999046	-0.000160217	-0.000174522	1.90735E-05	3.157043457	-5.601501465	7.620239258	-0.008010864	-0.00872612	0.000953674	-0.281005859	1.031494141	-0.2265625	890.66	-36.41777826	-18.37563868	-102.1090423	-73
8268	0	0.127782822	-0.223063469	0.303045273	0.999999046	-0.000113487	-2.47955E-05	8.7738E-05	3.194570541	-5.576586723	7.576131821	-0.005674362	-0.001239777	0.004386902	-0.28125	1.031494141	-0.223632813	890.62	-36.43301846	-18.37393717	-102.1064364	-73
8269	0	0.127502441	-0.222412109	0.3046875	0.999999046	3.8147E-06	5.81741E-05	9.15527E-05	3.187561035	-5.560302734	7.6171875	0.000190735	0.002908707	0.004577637	-0.281005859	1.031494141	-0.2265625	890.66	-36.43303747	-18.36441835	-102.1090135	-73
8270	0	0.12663269	-0.22231102	0.302261353	0.999999046	-8.39233E-05	0.000259399	0.000288963	3.165817261	-5.557775497	7.556533813	-0.004196167	0.012969971	0.014448166	-0.281005859	1.033691406	-0.229736328	890.68	-36.44465715	-18.32299662	-102.106528	-73
8271	0	0.125061035	-0.223754883	0.305236816	0.999999046	-0.000301361	0.000245094	0.000202179	3.126525879	-5.59387207	7.63092041	-0.015068055	0.012254715	0.010108948	-0.28125	1.031494141	-0.223632813	890.62	-36.47887353	-18.2887747	-102.1127834	-73
8272	0	0.124272346	-0.223073959	0.304307938	0.999999046	-0.000443459	4.57764E-05	0.000220299	3.106808662	-5.576848984	7.607698441	-0.022172929	0.002288818	0.011014939	-0.28125	1.033935547	-0.223876953	890.62	-36.53440895	-18.27164087	-102.1027063	-73
8273	0	0.123413086	-0.225708008	0.303588867	0.999999046	-0.000221252	-2.86102E-06	2.28882E-05	3.085327148	-5.642700195	7.58972168	-0.011062622	-0.000143051	0.001144409	-0.278808594	1.033691406	-0.220947266	890.66	-36.55969195	-18.27235657	-102.1072171	-73
8274	0	0.125174522	-0.224811554	0.304708481	0.999999046	-2.86102E-05	-0.00018692	-5.81741E-05	3.12936306	-5.620288849	7.617712021	-0.001430511	-0.009346008	-0.002908707	-0.278808594	1.033691406	-0.220947266	890.66	-36.56461664	-18.29554037	-102.1061802	-73
8275	0	0.125854492	-0.224304199	0.303894043	0.999999046	4.19617E-05	-0.000113487	-9.53674E-05	3.146362305	-5.60760498	7.597351074	0.002098084	-0.005674362	-0.004768372	-0.283691406	1.031738281	-0.220458984	890.62	-36.55869101	-18.31454436	-102.1168267	-73
8276	0	0.126028061	-0.2255373	0.304554939	0.999999046	0.000306129	-0.000179291	-6.19888E-05	3.150701523	-5.638432503	7.613873482	0.015306473	-0.008964539	-0.003099442	-0.283691406	1.031738281	-0.217773438	890.56	-36.52505978	-18.33733998	-102.1195288	-73
8277	0	0.124938965	-0.223327637	0.305297852	0.999999046	0.000312805	-0.000197411	-3.8147E-05	3.123474121	-5.583190918	7.632446289	0.015640259	-0.009870529	-0.001907349	-0.278808594	1.033691406	-0.226806641	890.68	-36.49176332	-18.36013136	-102.1142334	-73
8278	0	0.124403954	-0.223800659	0.302763939	0.999999046	1.71661E-05	-0.000204086	-5.34058E-05	3.110098839	-5.595016479	7.569098473	0.000858307	-0.010204315	-0.002670288	-0.28125	1.033935547	-0.226806641	890.58	-36.49209714	-18.38454107	-102.1112057	-73
8279	0	0.126098633	-0.22467041	0.303710938	0.999999046	0.000614166	-0.000357628	-0.00019455	3.15246582	-5.616760254	7.592773438	0.030708316	-0.017881395	-0.009727479	-0.28125	1.033935547	-0.226806641	890.58	-36.42324359	-18.4327272	-102.1105926	-73
8280	0	0.127441406	-0.221438408	0.305539131	0.999999046	0.000378609	-0.000213623	2.95639E-05	3.186035156	-5.535960197	7.638478279	0.018930436	-0.010681153	0.001478195	-0.281005859	1.031494141	-0.229492188	890.66	-36.38489585	-18.45245795	-102.0984987	-73
8281	0	0.127746582	-0.221069336	0.305053711	0.999999046	-1.52588E-05	-0.000212669	2.67029E-05	3.193664551	-5.526733398	7.626342773	-0.000762939	-0.010633469	0.001335144	-0.283447266	1.031738281	-0.223388672	890.62	-36.39148685	-18.47238782	-102.0889594	-74
8282	0	0.127254486	-0.222855568	0.30602932	0.999999046	-0.0001297	-0.000164032	6.10352E-05	3.181362152	-5.571389198	7.650732994	-0.006484985	-0.008201599	0.003051758	-0.28125	1.031494141	-0.223632813	890.74	-36.41111473	-18.48551271	-102.0781089	-73
8283	0	0.126220703	-0.223388672	0.304199219	0.999999046	7.24792E-05	-0.000170708	0.000156403	3.155517578	-5.584716797	7.604980469	0.003623962	-0.008535385	0.007820129	-0.283447266	1.033935547	-0.2265625	890.62	-36.41070745	-18.49275124	-102.0581506	-73
8284	0	0.127353668	-0.221920013	0.304003716	0.999999046	-7.72476E-05	-0.000202179	0.000133514	3.183841705	-5.548000336	7.600092888	-0.003862381	-0.010108948	0.00667572	-0.281005859	1.031494141	-0.229492188	890.58	-36.42745467	-18.50449728	-102.0366265	-74
8285	0	0.126464844	-0.223144531	0.303955078	0.999999046	-0.000160217	-0.000166893	0.000190735	3.161621094	-5.578613281	7.598876953	-0.008010864	-0.00834465	0.009536743	-0.28125	1.031494141	-0.223632813	890.72	-36.45470314	-18.50908595	-102.0131961	-73
8286	0	0.125565529	-0.22383976	0.304878235	0.999999046	0.00021553	-9.34601E-05	9.05991E-05	3.139138222	-5.595993996	7.621955872	0.01077652	-0.004673004	0.004529953	-0.28125	1.033935547	-0.223876953	890.68	-36.43415187	-18.51365084	-102.0043888	-74
8287	0	0.128051758	-0.221130371	0.306518555	0.999999046	-8.7738E-05	-6.77109E-05	7.62939E-05	3.201293945	-5.528259277	7.662963867	-0.004386902	-0.003385544	0.003814697	-0.283447266	1.031738281	-0.223388672	890.62	-36.44717862	-18.51687512	-102.0007107	-74
8288	0	0.126899719	-0.221325874	0.303958893	0.999999046	-0.000464439	-0.000114441	0.000217438	3.172492981	-5.533146858	7.598972321	-0.023221971	-0.005722046	0.010871888	-0.281005859	1.031494141	-0.2265625	890.58	-36.50874352	-18.51481145	-101.9779493	-74
8289	0	0.125061035	-0.223022461	0.304199219	0.999999046	-0.000461578	-0.000178337	0.000190735	3.126525879	-5.575561523	7.604980469	-0.02307892	-0.008916855	0.009536744	-0.28125	1.033935547	-0.226806641	890.62	-36.57060872	-18.52035047	-101.9529417	-74
8290	0	0.12709713	-0.22652626	0.30467701	0.999999046	-0.000391006	-0.000450134	-9.53674E-07	3.177428246	-5.663156509	7.61692524	-0.019550325	-0.022506715	-4.76837E-05	-0.28125	1.033935547	-0.220947266	890.52	-36.62481742	-18.56394864	-101.9274766	-75
8291	0	0.128112793	-0.223693848	0.302429199	0.999999046	3.43323E-05	-0.000247002	0.000110626	3.202819824	-5.592346191	7.56072998	0.001716614	-0.012350083	0.005531311	-0.28125	1.033935547	-0.223876953	890.56	-36.62912281	-18.58129553	-101.905344	-75
8292	0	0.127480507	-0.224861145	0.303479195	0.999999046	0.000121117	-6.67572E-05	-8.10623E-05	3.187012672	-5.621528625	7.586979866	0.006055832	-0.00333786	-0.004053116	-0.28125	1.033935547	-0.226806641	890.62	-36.61346471	-18.59517548	-101.9141572	-75
8293	0	0.127807617	-0.222473145	0.304443359	0.999999046	2.67029E-05	5.81741E-05	-8.01086E-05	3.19519043	-5.561828613	7.611083984	0.001335144	0.002908707	-0.004005432	-0.283691406	1.033935547	-0.220703125	890.56	-36.60569433	-18.59752756	-101.9344418	-75
8294	0	0.127380371	-0.223718643	0.304224968	0.999999046	-7.82013E-05	0.000135422	0.000155449	3.184509277	-5.59296608	7.605624199	-0.003910065	0.006771088	0.007772446	-0.283691406	1.031738281	-0.220458984	890.56	-36.61544298	-18.57667225	-101.9379825	-74
8295	0	0.126098633	-0.223388672	0.304260254	0.999999046	1.14441E-05	7.34329E-05	1.52588E-05	3.15246582	-5.584716797	7.606506348	0.000572205	0.003671646	0.000762939	-0.283691406	1.031738281	-0.220458984	890.62	-36.61197533	-18.57104302	-101.950523	-74
8296	0	0.126718521	-0.222836494	0.305625916	0.999999046	-0.000121117	-6.48499E-05	-4.76837E-06	3.167963028	-5.570912361	7.640647888	-0.006055832	-0.003242493	-0.000238419	-0.283447266	1.033935547	-0.2265625	890.62	-36.62615627	-18.57946338	-101.9532221	-74
8297	0	0.127868652	-0.221557617	0.305053711	0.999999046	-0.000335693	-0.000117302	0.000213623	3.196716309	-5.53894043	7.626342773	-0.016784668	-0.005865097	0.010681153	-0.28125	1.033935547	-0.223876953	890.62	-36.67274257	-18.57780692	-101.9299311	-74
8298	0	0.128394127	-0.223831177	0.303346634	0.999999046	-0.000654221	-0.000234604	0.000418663	3.209853172	-5.595779419	7.583665848	-0.032711033	-0.011730195	0.020933154	-0.278808594	1.033691406	-0.223876953	890.52	-36.76485936	-18.57291608	-101.8768843	-74
8299	0	0.127990723	-0.2265625	0.301635742	0.999999046	-0.000637054	-2.19345E-05	0.000484467	3.199768066	-5.6640625	7.540893555	-0.031852726	-0.001096726	0.02422333	-0.281494141	1.036132813	-0.218261719	890.56	-36.85225414	-18.54396874	-101.8359697	-74
8300	0	0.124732018	-0.227191925	0.302804947	0.999999046	0.000161171	0.000169754	0.000179291	3.118300438	-5.679798126	7.570123672	0.008058548	0.008487702	0.008964539	-0.28125	1.033935547	-0.218017578	890.62	-36.83445257	-18.51825949	-101.8390154	-74
8301	0	0.127258301	-0.225341797	0.302856445	0.999999046	-0.000289917	0.000237465	-8.39233E-05	3.18145752	-5.633544922	7.571411133	-0.01449585	0.011873246	-0.004196167	-0.28125	1.033935547	-0.220947266	890.72	-36.85872171	-18.50444872	-101.8716128	-74
8302	0	0.125198364	-0.223849297	0.303823471	0.999999046	-0.000291824	0.000276566	1.52588E-05	3.129959106	-5.596232414	7.595586777	-0.014591217	0.013828278	0.000762939	-0.281494141	1.033935547	-0.215087891	890.52	-36.88527239	-18.48017648	-101.898629	-74
8303	0	0.125610352	-0.224304199	0.302246094	0.999999046	-0.000324249	0.000317574	0.000202179	3.140258789	-5.60760498	7.556152344	-0.016212464	0.015878678	0.010108948	-0.281494141	1.036132813	-0.218261719	890.66	-36.92030313	-18.43927125	-101.9097748	-74
8304	0	0.125752449	-0.226750374	0.304009438	0.999999046	-0.000264168	6.67572E-05	0.000231743	3.143811226	-5.668759346	7.600235939	-0.01320839	0.00333786	0.011587143	-0.278808594	1.033691406	-0.220947266	890.72	-36.95511983	-18.41925709	-101.8979536	-74
8305	0	0.124572754	-0.224243164	0.30279541	0.999999046	-8.01086E-05	-8.67844E-05	0.000270844	3.114318848	-5.606079102	7.569885254	-0.004005432	-0.004339218	0.013542175	-0.279052734	1.036132813	-0.218261719	890.56	-36.97348484	-18.41054644	-101.8717534	-74
8306	0	0.12432003	-0.225885391	0.304018974	0.999999046	-0.000200272	-0.00012207	0.000152588	3.108000755	-5.647134781	7.600474358	-0.01001358	-0.006103516	0.007629395	-0.279052734	1.033691406	-0.218017578	890.62	-37.00278186	-18.41311266	-101.8550375	-74
8307	0	0.125183105	-0.227172852	0.301879883	0.999999046	-3.43323E-05	-0.000109673	1.52588E-05	3.129577637	-5.679321289	7.54699707	-0.001716614	-0.005483627	0.000762939	-0.281494141	1.036132813	-0.212402344	890.56	-37.00866768	-18.4239765	-101.8548283	-74
8308	0	0.125426292	-0.225123405	0.304033279	0.999999046	-2.19345E-05	-1.33514E-05	0.000148773	3.13565731	-5.628085136	7.600831985	-0.001096725	-0.000667572	0.00743866	-0.279052734	1.033935547	-0.215087891	890.58	-37.01490217	-18.41677616	-101.8467108	-74
8309	0	0.124755859	-0.225952148	0.303649902	0.999999046	-0.000160217	0.000100136	0.000156403	3.118896484	-5.648803711	7.591247559	-0.008010864	0.00500679	0.007820129	-0.279052734	1.036132813	-0.212402344	890.62	-37.03456578	-18.39859601	-101.8462872	-74
8310	0	0.125173569	-0.226089478	0.303358078	0.999999046	-0.000192642	0.000104904	0.000311852	3.129339218	-5.652236938	7.58395195	-0.009632111	0.005245209	0.015592575	-0.279052734	1.036132813	-0.215332031	890.58	-37.06252777	-18.36920845	-101.8311074	-74
8311	0	0.125671387	-0.226867676	0.302246094	0.999999046	-0.000301361	0.000218391	0.000347137	3.141784668	-5.671691895	7.556152344	-0.015068055	0.010919571	0.017356873	-0.276611328	1.033691406	-0.218261719	890.56	-37.10143308	-18.32700201	-101.819162	-74
8312	0	0.123855591	-0.227014542	0.302773476	0.999999046	-0.000203133	0.000207901	0.000534058	3.096389771	-5.675363541	7.569336891	-0.010156632	0.010395051	0.026702883	-0.279052734	1.036132813	-0.218261719	890.56	-37.13495655	-18.27274797	-101.7911038	-74
8313	0	0.12286377	-0.228088379	0.304748535	0.999999046	-7.62939E-05	6.58035E-05	0.00025177	3.071594238	-5.702209473	7.618713379	-0.003814697	0.003290176	0.012588501	-0.274414063	1.038085938	-0.212890625	890.68	-37.14862818	-18.25085252	-101.7765998	-74
8314	0	0.123747826	-0.226793289	0.300762177	0.999999046	-0.000185013	-4.95911E-05	9.82285E-05	3.093695641	-5.66983223	7.519054413	-0.009250641	-0.002479553	0.004911423	-0.276855469	1.035888672	-0.212646484	890.58	-37.17280664	-18.25009978	-101.7712798	-74
8315	0	0.122680664	-0.228088379	0.303283691	0.999999046	3.43323E-05	-8.67844E-05	-8.39233E-05	3.067016602	-5.702209473	7.582092285	0.001716614	-0.004339218	-0.004196167	-0.274169922	1.035888672	-0.215576172	890.56	-37.16722198	-18.26523222	-101.7772734	-74
8316	0	0.124663353	-0.227253914	0.302117348	0.999999046	4.76837E-06	-0.000177383	-0.000148773	3.116583824	-5.681347847	7.552933693	0.000238419	-0.008869171	-0.00743866	-0.276855469	1.035888672	-0.212646484	890.66	-37.16514673	-18.29312771	-101.7855569	-74
8317	0	0.125244141	-0.225830078	0.302124023	0.999999046	-8.01086E-05	2.76566E-05	0.000133514	3.131103516	-5.645751953	7.553100586	-0.004005432	0.001382828	0.00667572	-0.276611328	1.035888672	-0.215576172	890.62	-37.17657481	-18.28278722	-101.7809191	-74
8318	0	0.124495506	-0.227804184	0.303619385	0.999999046	-0.000101089	-7.43866E-05	0.000235558	3.112387657	-5.695104599	7.590484619	-0.005054474	-0.00371933	0.011777878	-0.276611328	1.035888672	-0.215576172	890.62	-37.19580102	-18.27465419	-101.7593191	-74
8319	0	0.124389648	-0.227416992	0.303771973	0.999999046	-0.000205994	6.96182E-05	0.000179291	3.109741211	-5.685424805	7.594299316	-0.010299683	0.003480911	0.008964539	-0.274169922	1.038085938	-0.221679688	890.62	-37.22201115	-18.25722747	-101.7496133	-74
8320	0	0.124510765	-0.227463722	0.300276756	0.999999046	-0.000323296	0.000192642	0.000328064	3.112769127	-5.686593056	7.506918907	-0.01616478	0.009632111	0.016403199	-0.276611328	1.035888672	-0.215576172	890.72	-37.2633804	-18.21827918	-101.7395724	-73
8321	0	0.123596191	-0.229370117	0.302246094	0.999999046	-3.8147E-05	5.81741E-05	0.000293732	3.089904785	-5.73425293	7.556152344	-0.001907349	0.002908707	0.014686585	-0.276611328	1.038085938	-0.218505859	890.64	-37.2741669	-18.19391415	-101.7222751	-73
8322	0	0.12293911	-0.228123665	0.302852631	0.999999046	2.09808E-05	-1.90735E-06	0.000217438	3.073477745	-5.703091621	7.571315765	0.001049042	-9.53674E-05	0.010871887	-0.274414063	1.038085938	-0.212890625	890.66	-37.27724103	-18.18024682	-101.7072443	-73
8323	0	0.122680664	-0.226867676	0.303833008	0.999999046	-0.000175476	-1.43051E-05	-5.34058E-05	3.067016602	-5.671691895	7.595825195	-0.008773804	-0.000715256	-0.002670288	-0.274414063	1.038085938	-0.21875	890.66	-37.29489815	-18.1864267	-101.7156909	-73
8324	0	0.122897148	-0.229524612	0.30136776	0.999999046	-4.673E-05	-7.24792E-05	-0.000210762	3.072428703	-5.738115311	7.534193993	-0.002336502	-0.003623962	-0.010538101	-0.276855469	1.038330078	-0.212646484	890.62	-37.2945001	-18.20877385	-101.7381411	-73
8325	0	0.123901367	-0.227783203	0.300048828	0.999999046	-3.05176E-05	-0.00026989	-0.000133514	3.09753418	-5.694580078	7.501220703	-0.001525879	-0.013494492	-0.00667572	-0.276611328	1.035888672	-0.215576172	890.62	-37.29912204	-18.24376341	-101.7377969	-73
8326	0	0.124613762	-0.228257179	0.301553726	0.999999046	0.0001297	-5.34058E-05	-1.23978E-05	3.115344048	-5.706429482	7.538843155	0.006484985	-0.002670288	-0.000619888	-0.276855469	1.038330078	-0.209960938	890.62	-37.28409069	-18.2506192	-101.7423244	-73
8327	0	0.125366211	-0.228271484	0.301574707	0.999999046	-8.01086E-05	-0.000250816	-3.8147E-06	3.134155273	-5.706787109	7.539367676	-0.004005432	-0.012540817	-0.000190735	-0.276855469	1.038330078	-0.212646484	890.66	-37.29791031	-18.27491862	-101.730575	-73
8328	0	0.121674538	-0.226000786	0.303307533	0.999999046	6.58035E-05	-0.000120163	7.9155E-05	3.041863441	-5.650019646	7.582688332	0.003290176	-0.006008148	0.003957748	-0.276855469	1.035888672	-0.212646484	890.68	-37.29438448	-18.28139994	-101.7211063	-73
8329	0	0.122924805	-0.22845459	0.302185059	0.999999046	0	-0.000159264	0.0001297	3.073120117	-5.711364746	7.554626465	0	-0.007963181	0.006484985	-0.276611328	1.035888672	-0.215576172	890.62	-37.300836	-18.28784225	-101.7029781	-73
8330	0	0.122900009	-0.229341507	0.301351547	0.999999046	0.000268936	-0.00022316	-0.000153542	3.072500229	-5.733537674	7.533788681	0.013446808	-0.01115799	-0.007677078	-0.276611328	1.035888672	-0.218505859	890.56	-37.26947842	-18.31968285	-101.7060636	-73
8331	0	0.124633789	-0.226989746	0.302062988	0.999999046	0.00025177	-0.000117302	-0.000282288	3.115844727	-5.674743652	7.551574707	0.012588501	-0.005865097	-0.01411438	-0.279052734	1.036132813	-0.212402344	890.64	-37.23371467	-18.35079293	-101.7326248	-73
8332	0	0.124344826	-0.227194786	0.302453041	0.999999046	-4.86374E-05	-0.000272751	-0.000328064	3.108620644	-5.679869652	7.561326027	-0.00243187	-0.013637543	-0.016403199	-0.279052734	1.036132813	-0.212402344	890.62	-37.23451868	-18.39921484	-101.7510059	-73
8333	0	0.125549316	-0.227905273	0.302612305	0.999999046	7.62939E-05	-0.000105858	-0.000148773	3.13873291	-5.697631836	7.565307617	0.003814697	-0.005292892	-0.00743866	-0.279052734	1.036132813	-0.212402344	890.62	-37.22258505	-18.4199747	-101.7637303	-73
8334	0	0.125314713	-0.225747108	0.302680969	0.999999046	9.15527E-05	-0.000148773	8.01086E-05	3.132867813	-5.643677711	7.567024231	0.004577637	-0.00743866	0.004005432	-0.279052734	1.036132813	-0.215332031	890.68	-37.21675476	-18.42878296	-101.7505534	-73
8335	0	0.125183105	-0.227172852	0.301635742	0.999999046	-5.34058E-05	-6.00815E-05	0.000232697	3.129577637	-5.679321289	7.540893555	-0.002670288	-0.003004074	0.011634827	-0.279052734	1.036132813	-0.212402344	890.72	-37.23013282	-18.41891135	-101.7302968	-73
8336	0	0.124258995	-0.228545189	0.302389145	0.999999046	0.000208855	-0.000169754	0.000185966	3.106474876	-5.713629723	7.559728622	0.010442734	-0.008487702	0.009298325	-0.279052734	1.036132813	-0.215332031	890.68	-37.21460622	-18.42221277	-101.7060084	-73
8337	0	0.124633789	-0.226989746	0.301391602	0.999999046	-2.28882E-05	-0.00014019	0.000160217	3.115844727	-5.674743652	7.534790039	-0.001144409	-0.007009506	0.008010864	-0.279296875	1.036132813	-0.209472656	890.58	-37.22417746	-18.42457678	-101.6883041	-73
8338	0	0.124645233	-0.227532387	0.302261353	0.999999046	0.00018692	-0.000108719	0.000151634	3.116130829	-5.688309669	7.556533813	0.009346008	-0.005435944	0.007581711	-0.276611328	1.033691406	-0.215332031	890.64	-37.20871928	-18.42461994	-101.669868	-73
8339	0	0.125061035	-0.227539063	0.304504395	0.999999046	5.34058E-05	-0.000193596	-1.90735E-05	3.126525879	-5.688476563	7.612609863	0.002670288	-0.009679794	-0.000953674	-0.281494141	1.036132813	-0.215332031	890.62	-37.20526123	-18.44419112	-101.6665493	-73
8340	0	0.12494278	-0.227014542	0.302221298	0.999999046	-1.81198E-05	-0.000225067	2.67029E-05	3.123569489	-5.675363541	7.555532455	-0.000905991	-0.011253357	0.001335144	-0.279052734	1.033935547	-0.215087891	890.62	-37.21210972	-18.46343362	-101.6539254	-73
8341	0	0.124450684	-0.227233887	0.302490234	0.999999046	4.57764E-05	-0.000163078	1.52588E-05	3.11126709	-5.680847168	7.562255859	0.002288818	-0.008153915	0.000762939	-0.279052734	1.036132813	-0.215332031	890.72	-37.20984046	-18.47774829	-101.6458744	-73
8342	0	0.125396729	-0.22769928	0.303201675	0.999999046	9.91821E-05	-0.000181198	2.57492E-05	3.134918213	-5.692481995	7.580041885	0.004959106	-0.009059906	0.00128746	-0.279052734	1.036132813	-0.218261719	890.58	-37.20217536	-18.49295522	-101.6344779	-73
8343	0	0.12677002	-0.22644043	0.300598145	0.999999046	-2.28882E-05	-9.44138E-05	-2.67029E-05	3.169250488	-5.661010742	7.514953613	-0.001144409	-0.004720688	-0.001335144	-0.279052734	1.033935547	-0.215087891	890.64	-37.20490335	-18.50394938	-101.6357733	-73
8344	0	0.126351357	-0.227546692	0.302577019	0.999999046	-8.67844E-05	9.72748E-05	0.000114441	3.158783913	-5.688667297	7.564425468	-0.004339218	0.004863739	0.005722046	-0.279052734	1.033935547	-0.212158203	890.74	-37.21481746	-18.48767937	-101.6384678	-73
8345	0	0.125671387	-0.227905273	0.302001953	0.999999046	5.72205E-05	-4.86374E-05	7.24792E-05	3.141784668	-5.697631836	7.550048828	0.002861023	-0.00243187	0.003623962	-0.276855469	1.035888672	-0.212646484	890.62	-37.21035943	-18.48762058	-101.6308112	-73
8346	0	0.125119209	-0.22550869	0.303235054	0.999999046	-0.00018692	7.62939E-05	0.00019455	3.127980232	-5.637717247	7.58087635	-0.009346008	0.003814697	0.009727478	-0.279052734	1.038330078	-0.218505859	890.66	-37.23459302	-18.46766775	-101.6213234	-73
8347	0	0.124633789	-0.228027344	0.301513672	0.999999046	-0.000385284	-2.86102E-06	0.000179291	3.115844727	-5.700683594	7.537841797	-0.019264222	-0.000143051	0.008964539	-0.276855469	1.038330078	-0.212646484	890.56	-37.28296521	-18.4559404	-101.6064677	-73
8348	0	0.124126434	-0.228182793	0.301153183	0.999999046	2.95639E-05	-6.67572E-05	0.000144005	3.103160858	-5.704569817	7.528829575	0.001478195	-0.00333786	0.007200241	-0.276855469	1.035888672	-0.212646484	890.62	-37.28424904	-18.45241811	-101.5914381	-73
8349	0	0.124511719	-0.227905273	0.301086426	0.999999046	7.62939E-06	-5.24521E-05	4.57764E-05	3.112792969	-5.697631836	7.527160645	0.00038147	-0.002622604	0.002288818	-0.279052734	1.036132813	-0.212402344	890.56	-37.28476061	-18.45436967	-101.5897762	-73
8350	0	0.125620842	-0.228034973	0.30302906	0.999999046	2.28882E-05	-4.00543E-05	0.000102043	3.140521049	-5.700874329	7.575726509	0.001144409	-0.002002716	0.005102158	-0.279052734	1.036132813	-0.215332031	890.66	-37.28492384	-18.4512718	-101.5827978	-73
8351	0	0.125366211	-0.227600098	0.303222656	0.999999046	-7.24792E-05	8.58307E-06	0.000148773	3.134155273	-5.690002441	7.580566406	-0.003623962	0.000429153	0.00743866	-0.276855469	1.038330078	-0.212646484	890.74	-37.29625854	-18.44047423	-101.5720588	-73
8352	0	0.124988556	-0.227254868	0.30300808	0.999999046	-6.58035E-05	1.33514E-05	0.000254631	3.124713898	-5.681371689	7.575201988	-0.003290176	0.000667572	0.012731552	-0.274169922	1.033691406	-0.218261719	890.58	-37.30987334	-18.4218587	-101.5484093	-73
8353	0	0.124389648	-0.227783203	0.302368164	0.999999046	-0.000167847	-4.1008E-05	0.000179291	3.109741211	-5.694580078	7.559204102	-0.008392334	-0.0020504	0.008964539	-0.279296875	1.038330078	-0.212646484	890.62	-37.33412572	-18.4133797	-101.5355553	-73
8354	0	0.123783112	-0.227440834	0.301425934	0.999999046	2.67029E-05	8.58307E-05	0.000106812	3.094577789	-5.686020851	7.535648346	0.001335144	0.004291534	0.005340576	-0.279052734	1.036132813	-0.218261719	890.56	-37.33094081	-18.39831907	-101.5378756	-73
8355	0	0.123901367	-0.226928711	0.303100586	0.999999046	-9.53674E-05	5.81741E-05	0.000293732	3.09753418	-5.673217773	7.577514648	-0.004768372	0.002908707	0.014686585	-0.276611328	1.035888672	-0.215576172	890.56	-37.34795666	-18.37272563	-101.5183549	-73
8356	0	0.123609543	-0.229073524	0.300994873	0.999999046	-0.00026989	0.000102997	0.00020504	3.090238571	-5.726838112	7.524871826	-0.013494492	0.005149841	0.010251999	-0.276855469	1.038330078	-0.212646484	890.56	-37.38131418	-18.34915287	-101.5113399	-73
8357	0	0.12310791	-0.22869873	0.301940918	0.999999046	3.05176E-05	-2.57492E-05	0.000183105	3.077697754	-5.717468262	7.548522949	0.001525879	-0.00128746	0.009155273	-0.276855469	1.038330078	-0.209960938	890.68	-37.38256072	-18.33874606	-101.4981908	-73
8358	0	0.123467445	-0.227017403	0.30249691	0.999999046	-6.67572E-05	-3.8147E-05	0.000141144	3.086686134	-5.675435066	7.562422752	-0.00333786	-0.001907349	0.00705719	-0.276855469	1.038330078	-0.212646484	890.62	-37.39389068	-18.33233695	-101.4874842	-73
8359	0	0.123657227	-0.228881836	0.302612305	0.999999046	-8.7738E-05	-6.77109E-05	5.72205E-05	3.091430664	-5.722045898	7.565307617	-0.004386902	-0.003385544	0.002861023	-0.274414063	1.038085938	-0.215820313	890.62	-37.40576726	-18.33440243	-101.4779861	-73
8360	0	0.124098778	-0.228217125	0.30072403	1	-3.43323E-05	2.95639E-05	1.14441E-05	3.102469444	-5.705428123	7.518100739	-0.001716614	0.001478195	0.000572205	-0.274169922	1.035888672	-0.215576172	890.64	-37.40792247	-18.33079552	-101.4805057	-73
8361	0	0.124023438	-0.227844238	0.301940918	0.999999046	-9.53674E-05	0.000115395	0.000171661	3.100585938	-5.696105957	7.548522949	-0.004768372	0.00576973	0.008583069	-0.274414063	1.038085938	-0.209960938	890.62	-37.4198867	-18.30820593	-101.4757143	-73
8362	0	0.123509407	-0.22812748	0.301986694	0.999999046	4.76837E-05	6.29425E-05	0.000221252	3.087735176	-5.703186989	7.549667358	0.002384186	0.003147125	0.011062622	-0.276855469	1.038330078	-0.209960938	890.68	-37.41813069	-18.28689867	-101.466567	-73
8363	0	0.122558594	-0.228820801	0.301696777	0.999999046	-8.7738E-05	0.000107765	0.000118256	3.063964844	-5.72052002	7.542419434	-0.004386902	0.00538826	0.005912781	-0.276855469	1.038330078	-0.212646484	890.62	-37.4277761	-18.26860521	-101.4698675	-73
8364	0	0.123415947	-0.228293419	0.301072121	0.999999046	-0.000172615	1.52588E-05	5.62668E-05	3.085398674	-5.707335472	7.526803017	-0.008630753	0.000762939	0.002813339	-0.274414063	1.038085938	-0.212890625	890.66	-37.44741921	-18.2630331	-101.4684255	-73
8365	0	0.122375488	-0.229125977	0.300109863	0.999999046	-0.000152588	0.000134468	0.00018692	3.059387207	-5.728149414	7.502746582	-0.007629395	0.006723404	0.009346008	-0.274414063	1.038085938	-0.209960938	890.72	-37.46601417	-18.2374538	-101.4646473	-73
8366	0	0.122635841	-0.229325294	0.301902771	0.999999046	-0.000162125	9.34601E-05	0.000197411	3.065896034	-5.733132362	7.547569275	-0.008106232	0.004673004	0.009870529	-0.274414063	1.040283203	-0.213134766	890.62	-37.48696308	-18.21481188	-101.4553615	-73
8367	0	0.122192383	-0.22845459	0.300842285	0.999999046	-0.00012207	7.34329E-05	0.000144958	3.05480957	-5.711364746	7.521057129	-0.006103516	0.003671646	0.007247925	-0.271972656	1.038085938	-0.210205078	890.68	-37.50220719	-18.19759798	-101.4479997	-73
8368	0	0.122570038	-0.229662895	0.301413536	0.999999046	-7.72476E-05	3.8147E-05	6.38962E-05	3.064250946	-5.74157238	7.535338402	-0.003862381	0.001907349	0.003194809	-0.274658203	1.040527344	-0.207275391	890.62	-37.51072585	-18.1892033	-101.4500479	-73
8369	0	0.123168945	-0.227966309	0.302001953	0.999999046	-6.10352E-05	0.000138283	0.000228882	3.079223633	-5.699157715	7.550048828	-0.003051758	0.006914139	0.011444092	-0.271972656	1.038085938	-0.213134766	890.62	-37.51994884	-18.16019243	-101.4391601	-73
8370	0	0.122552872	-0.229524612	0.302372932	0.999999046	-0.00028801	0.00012207	0.000285149	3.063821793	-5.738115311	7.559323311	-0.014400483	0.006103516	0.014257431	-0.271972656	1.038085938	-0.210205078	890.64	-37.55720443	-18.12868397	-101.4235202	-73
8371	0	0.121704102	-0.229675293	0.302124023	0.999999046	-0.000175476	6.96182E-05	0.000160217	3.042602539	-5.741882324	7.553100586	-0.008773804	0.003480911	0.008010864	-0.274658203	1.040527344	-0.207275391	890.56	-37.57902475	-18.11059468	-101.4205989	-73
8372	0	0.122382164	-0.228661537	0.301571846	0.999999046	-0.000159264	7.43866E-05	0.000148773	3.0595541	-5.716538429	7.53929615	-0.007963181	0.00371933	0.00743866	-0.271972656	1.038085938	-0.210205078	890.62	-37.59848947	-18.09286115	-101.4150809	-73
8373	0	0.122314453	-0.229003906	0.300476074	0.999999046	-0.000255585	0.000123024	0.000164032	3.057861328	-5.725097656	7.511901855	-0.012779236	0.006151199	0.008201599	-0.272216797	1.040283203	-0.213134766	890.62	-37.62832808	-18.06964879	-101.4105066	-73
8374	0	0.121676445	-0.230602264	0.301119804	0.999999046	-0.000387192	7.82013E-05	0.000353813	3.041911125	-5.76505661	7.52799511	-0.01935959	0.003910065	0.017690659	-0.26953125	1.038085938	-0.213134766	890.56	-37.67991258	-18.03717589	-101.3820567	-73
8375	0	0.120849609	-0.230224609	0.300537109	0.999999046	-0.000305176	0.000157356	0.000289917	3.021240234	-5.755615234	7.513427734	-0.01525879	0.007867813	0.01449585	-0.272216797	1.040283203	-0.207275391	890.58	-37.71840532	-18.001929	-101.3719508	-73
8376	0	0.119949341	-0.231027603	0.301104546	0.999999046	-0.000119209	-4.95911E-05	6.77109E-05	2.998733521	-5.775690079	7.52761364	-0.005960464	-0.002479553	0.003385544	-0.272216797	1.040283203	-0.210205078	890.56	-37.73377064	-18.00091124	-101.3666595	-72
8377	0	0.121398926	-0.230407715	0.301635742	0.999999046	-3.05176E-05	-5.24521E-05	-8.01086E-05	3.034973145	-5.760192871	7.540893555	-0.001525879	-0.002622604	-0.004005432	-0.269775391	1.040283203	-0.204589844	890.62	-37.73465058	-18.01048968	-101.3724407	-73
8378	0	0.122383118	-0.229979515	0.300936699	0.999999046	-0.000150681	8.96454E-05	0.000133514	3.059577942	-5.749487877	7.523417473	-0.007534027	0.004482269	0.00667572	-0.272216797	1.040283203	-0.207275391	890.72	-37.7523289	-17.99223418	-101.3718921	-73
8379	0	0.121643066	-0.231018066	0.301330566	0.999999046	-0.000255585	0.000130653	0.000144958	3.04107666	-5.77545166	7.53326416	-0.012779236	0.006532669	0.007247925	-0.270019531	1.042480469	-0.207763672	890.68	-37.78142792	-17.96944498	-101.3686229	-73
8380	0	0.121130943	-0.231268883	0.301181793	0.999999046	-0.000187874	0.000123978	0.000205994	3.028273582	-5.781722069	7.52954483	-0.009393692	0.006198883	0.010299683	-0.267333984	1.040283203	-0.207519531	890.62	-37.80471516	-17.94294114	-101.3561873	-73
8381	0	0.120056152	-0.231811523	0.302062988	0.999999046	-0.000160217	9.63211E-05	0.000278473	3.001403809	-5.795288086	7.551574707	-0.008010864	0.004816055	0.013923645	-0.267578125	1.042480469	-0.204833984	890.64	-37.82756902	-17.91375531	-101.3361121	-73
8382	0	0.120297432	-0.230571747	0.30024147	0.999999046	-0.000135422	2.67029E-05	0.000208855	3.007435799	-5.764293671	7.506036758	-0.006771088	0.001335144	0.010442734	-0.267578125	1.040283203	-0.204833984	890.62	-37.84710985	-17.89572483	-101.3191891	-73
8383	0	0.119750977	-0.231323242	0.301574707	0.999999046	-0.00030899	-6.77109E-05	9.15527E-05	2.993774414	-5.783081055	7.539367676	-0.015449524	-0.003385544	0.004577637	-0.267578125	1.040283203	-0.204833984	890.66	-37.885225	-17.8944044	-101.3064177	-73
8384	0	0.119626999	-0.232813835	0.300925255	0.999999046	-6.19888E-05	-0.000114441	-2.76566E-05	2.990674973	-5.820345879	7.523131371	-0.003099442	-0.005722046	-0.001382828	-0.270019531	1.042480469	-0.207763672	890.72	-37.89266011	-17.90560933	-101.3033121	-73
8385	0	0.119750977	-0.230529785	0.301635742	0.999999046	6.86646E-05	-0.000102043	3.8147E-06	2.993774414	-5.763244629	7.540893555	0.003433228	-0.005102158	0.000190735	-0.269775391	1.040283203	-0.210449219	890.62	-37.8856816	-17.91340787	-101.2975954	-73
