Counter	Temperature	VelInc_X	VelInc_Y	VelInc_Z	OriInc_w	OriInc_x	OriInc_y	OriInc_z	Acc_X	Acc_Y	Acc_Z	Gyr_X	Gyr_Y	Gyr_Z	Mag_X	Mag_Y	Mag_Z	Pressure	Roll	Pitch	Yaw	RSSI
5983	0	0.38848877	0.037414551	0.050964355	0.999999046	-0.000217438	-0.000300407	5.34E-05	9.712219238	0.93536377	1.274108887	-0.010871887	-0.015020371	0.002670288	-0.458740234	-0.853027344	-0.36328125	891.7	35.54370166	-80.41543567	38.53299887	-78
5984	0	0.389377594	0.038022041	0.050745964	0.999999046	-0.00026989	-0.000192642	0.000110626	9.73443985	0.950551033	1.268649101	-0.013494492	-0.009632111	0.005531311	-0.458740234	-0.850830078	-0.357666016	891.76	35.56670287	-80.43163376	38.48452752	-78
5985	0	0.389526367	0.036682129	0.05065918	0.999999046	-0.00031662	-0.000163078	-1.53E-05	9.73815918	0.917053223	1.266479492	-0.015830994	-0.008153916	-0.000762939	-0.458740234	-0.850830078	-0.36328125	891.76	35.64225865	-80.43677072	38.36448905	-78
5986	0	0.389479637	0.037760735	0.048846245	0.999999046	-0.0001297	-7.82E-05	3.72E-05	9.736990929	0.944018364	1.22115612	-0.006484985	-0.003910065	0.001859665	-0.458740234	-0.850830078	-0.36328125	891.74	35.67712604	-80.437622	38.30811363	-78
5987	0	0.389343262	0.03729248	0.047302246	0.999999046	-0.000354767	-4.86E-05	1.53E-05	9.733581543	0.932312012	1.182556152	-0.017738343	-0.00243187	0.000762939	-0.456298828	-0.851074219	-0.363525391	891.7	35.68719641	-80.43445571	38.25139079	-78
5988	0	0.3898983	0.036635399	0.048448563	0.999999046	-0.0002985	-5.72E-05	-3.91E-05	9.747457504	0.915884972	1.211214066	-0.014925003	-0.002861023	-0.001955032	-0.456298828	-0.851074219	-0.363525391	891.86	35.73731035	-80.42862304	38.16204563	-77
5989	0	0.389099121	0.034545898	0.049499512	0.999999046	0.000110626	0.000229836	-9.54E-05	9.727478027	0.863647461	1.237487793	0.005531311	0.011491776	-0.004768372	-0.456542969	-0.848876953	-0.366699219	891.74	35.7507845	-80.39250876	38.14845904	-77
5990	0	0.387786865	0.035912514	0.049729347	0.999999046	0.000207901	0.000190735	-3.43E-05	9.694671631	0.897812843	1.243233681	0.01039505	0.009536743	-0.001716614	-0.456542969	-0.851074219	-0.366455078	891.7	35.75710371	-80.36424992	38.15534607	-77
5991	0	0.388305664	0.036560059	0.048828125	0.999999046	0.000682831	-4.10E-05	-2.29E-05	9.707641602	0.914001465	1.220703125	0.034141543	-0.0020504	-0.001144409	-0.456542969	-0.848876953	-0.366699219	891.7	35.90300461	-80.35845863	38.07095273	-78
5992	0	0.388917923	0.036402702	0.050759315	0.999999046	0.0010252	0.000102997	-1.62E-05	9.722948074	0.910067558	1.268982887	0.051260004	0.005149842	-0.000810623	-0.458740234	-0.851074219	-0.366210938	891.74	36.02697482	-80.33982574	38.04777827	-78
5993	0	0.39050293	0.036804199	0.049255371	0.999999046	0.001068115	0.000271797	-3.81E-05	9.762573242	0.92010498	1.231384277	0.053405773	0.013589862	-0.001907349	-0.454101563	-0.853515625	-0.366455078	891.74	36.10075444	-80.30423738	38.07637901	-78
5994	0	0.390289307	0.036939621	0.049571037	0.999999046	0.001253128	0.000278473	8.39E-05	9.757232666	0.923490524	1.239275932	0.06265642	0.013923649	0.004196168	-0.456542969	-0.85546875	-0.357421875	891.68	36.12698183	-80.27642341	38.19430544	-77
5995	0	0.389953613	0.037963867	0.050048828	0.999998093	0.001347542	0.000732422	3.81E-05	9.748840332	0.94909668	1.251220703	0.067377117	0.036621108	0.001907349	-0.454101563	-0.855712891	-0.360351563	891.74	36.01139145	-80.20356916	38.45500224	-77
5996	0	0.389025688	0.038988113	0.051917076	0.999998093	0.001220703	0.000655174	-3.81E-05	9.725642204	0.974702835	1.297926903	0.061035176	0.032758723	-0.001907349	-0.453857422	-0.857910156	-0.360351563	891.76	35.95474079	-80.13268539	38.63878784	-77
5997	0	0.389587402	0.041992188	0.053649902	0.999999046	0.00094223	0.000573158	-4.58E-05	9.739685059	1.049804688	1.341247559	0.047111521	0.028657919	-0.002288819	-0.454101563	-0.857666016	-0.354492188	891.86	35.90406003	-80.06874254	38.79598853	-77
5998	0	0.386471748	0.044870377	0.051688194	0.999999046	0.000101089	0.000555038	-1.24E-05	9.661793709	1.121759415	1.292204857	0.005054474	0.027751924	-0.000619888	-0.454101563	-0.855712891	-0.357666016	891.68	35.74941425	-80.00855079	38.95305691	-77
5999	0	0.385375977	0.043640137	0.052856445	0.999999046	-0.000823975	8.87E-05	3.05E-05	9.634399414	1.091003418	1.321411133	-0.041198735	0.004434586	0.001525879	-0.453857422	-0.857910156	-0.360351563	891.76	35.64546336	-79.99443648	38.95010652	-78
6000	0	0.386590004	0.044326782	0.050555229	0.999999046	-0.001303673	5.34E-05	-3.53E-05	9.664750099	1.108169556	1.26388073	-0.065183658	0.002670289	-0.001764298	-0.451660156	-0.857910156	-0.357666016	891.74	35.5364718	-79.97917769	38.90899332	-78
6001	0	0.38659668	0.039001465	0.052307129	0.999999046	-0.001312256	6.58E-05	-0.000179291	9.664916992	0.975036621	1.307678223	-0.065612812	0.003290177	-0.008964541	-0.453857422	-0.857910156	-0.360351563	891.74	35.49786862	-79.95323999	38.79571307	-78
6002	0	0.389687538	0.040412903	0.050388336	0.999998093	-0.001425743	-0.000247002	-0.00023365	9.742188454	1.010322571	1.259708405	-0.071287181	-0.012350087	-0.011682515	-0.451416016	-0.857910156	-0.366210938	891.74	35.59302993	-79.95296788	38.52438951	-78
6003	0	0.388549805	0.040771484	0.051025391	0.999999046	-0.001163483	-8.68E-05	-0.000164032	9.713745117	1.019287109	1.275634766	-0.058174147	-0.004339219	-0.008201601	-0.453857422	-0.855712891	-0.369140625	891.76	35.62190847	-79.94244165	38.34857528	-78
6004	0	0.387019157	0.04010582	0.051904678	0.999999046	-0.001219749	-0.000257492	0.000124931	9.675478935	1.002645493	1.297616959	-0.060987488	-0.012874607	0.006246568	-0.453857422	-0.855712891	-0.369140625	891.74	35.55711017	-79.9671482	38.26669844	-78
6005	0	0.385559082	0.038818359	0.054321289	0.999999046	-0.001293182	-0.000422478	4.20E-05	9.638977051	0.970458984	1.358032227	-0.064659139	-0.021123893	0.002098084	-0.453857422	-0.853515625	-0.375	891.86	35.58978678	-80.00167401	38.06684151	-78
6006	0	0.3865242	0.037971497	0.055006981	0.999999046	-0.000928879	-0.00069809	-3.15E-05	9.663105011	0.949287415	1.375174522	-0.04644395	-0.034904488	-0.001573563	-0.451660156	-0.853515625	-0.372314453	891.76	35.80852977	-80.05682002	37.72939904	-78
6007	0	0.387145996	0.038146973	0.05279541	0.999999046	-0.000968933	-0.000872612	0.000160217	9.678649902	0.953674316	1.319885254	-0.048446669	-0.043630613	0.008010867	-0.453857422	-0.853515625	-0.372070313	891.76	35.99107055	-80.14087452	37.42789312	-78
6008	0	0.38974762	0.037862778	0.049990654	0.999999046	-0.000693321	-0.000471115	0.00019455	9.743690491	0.946569443	1.24976635	-0.034666066	-0.023555759	0.009727479	-0.456298828	-0.853515625	-0.372070313	891.7	36.03383567	-80.19007249	37.3031998	-79
6009	0	0.390625	0.038085938	0.049804688	0.999999046	-0.000484467	-0.000540733	0.00012207	9.765625	0.952148438	1.245117188	-0.02422333	-0.027036669	0.006103516	-0.454101563	-0.851318359	-0.372314453	891.8	36.16789157	-80.24092832	37.10856619	-79
6010	0	0.389652252	0.038855553	0.051433563	0.999999046	-0.000595093	-0.000303268	0.000324249	9.741306305	0.971388817	1.285839081	-0.029754641	-0.015163423	0.016212465	-0.456298828	-0.851318359	-0.377929688	891.7	36.08774919	-80.28347346	37.10760321	-79
6011	0	0.388549805	0.037780762	0.051452637	0.999999046	-0.000213623	-0.000201225	0.000247955	9.713745117	0.944519043	1.286315918	-0.010681153	-0.010061264	0.012397766	-0.456298828	-0.851318359	-0.369384766	891.76	36.05185026	-80.31143079	37.12753213	-79
6012	0	0.387368202	0.037199974	0.051372528	0.999999046	-8.68E-05	-0.000326157	0.000411034	9.684205055	0.929999352	1.284313202	-0.004339218	-0.016307832	0.020551682	-0.456298828	-0.851318359	-0.369384766	891.76	35.99056758	-80.36198219	37.18736257	-79
6013	0	0.387451172	0.038085938	0.05078125	0.999999046	0.000347137	-0.000277519	0.00025177	9.686279297	0.952148438	1.26953125	0.017356873	-0.013875962	0.012588502	-0.458740234	-0.851074219	-0.374755859	891.8	36.04641349	-80.39730947	37.16397815	-79
6014	0	0.388413429	0.038169861	0.050965309	0.999999046	0.000295639	-0.000606537	0.000339508	9.710335732	0.954246521	1.274132729	0.014781953	-0.030326846	0.016975404	-0.4609375	-0.851074219	-0.371826172	891.76	36.18036441	-80.46900653	37.06045107	-79
6015	0	0.388366699	0.039367676	0.051513672	0.999999046	0.000488281	-0.00039196	0.00037384	9.70916748	0.984191895	1.287841797	0.024414065	-0.019598009	0.018692018	-0.461181641	-0.851074219	-0.369140625	891.8	36.23210256	-80.52306748	37.06613133	-80
6016	0	0.38697052	0.03766346	0.051599503	0.999999046	0.000304222	-0.000473022	0.000404358	9.674263	0.941586494	1.289987564	0.015211107	-0.023651125	0.020217897	-0.461181641	-0.848876953	-0.369140625	891.76	36.27864352	-80.5866196	37.05181886	-80
6017	0	0.388183594	0.037780762	0.050354004	0.999999046	0.000423431	-0.000525475	0.000423431	9.704589844	0.944519043	1.258850098	0.021171572	-0.02627373	0.021171572	-0.463378906	-0.853271484	-0.368652344	891.74	36.35007596	-80.65627186	37.02753747	-80
6018	0	0.39003849	0.039017677	0.049726486	0.999999046	0.000673294	-0.000574112	0.000349998	9.750962257	0.975441933	1.243162155	0.033664708	-0.028705601	0.017499926	-0.461181641	-0.851074219	-0.366210938	891.76	36.51291972	-80.72535077	36.93921325	-81
6019	0	0.387878418	0.037963867	0.049621582	0.999999046	0.000427246	-0.000506401	0.000465393	9.696960449	0.94909668	1.240539551	0.021362307	-0.025320056	0.023269656	-0.465820313	-0.853027344	-0.365722656	891.74	36.55521936	-80.79598322	36.944965	-81
6020	0	0.388816833	0.03788662	0.048095703	0.999999046	0.000426292	-0.000501633	0.000361443	9.720420837	0.947165489	1.202392578	0.021314623	-0.025081637	0.01807213	-0.465820313	-0.853027344	-0.368652344	891.74	36.65528375	-80.85907158	36.88203692	-81
6021	0	0.389221191	0.037902832	0.05090332	0.999999046	0.000324249	-0.000575066	0.000354767	9.730529785	0.947570801	1.272583008	0.016212465	-0.028753283	0.017738344	-0.465820313	-0.850830078	-0.365966797	891.68	36.77964285	-80.92828673	36.7852469	-81
6022	0	0.387901306	0.037659645	0.050126076	0.999999046	0.000455856	-0.000490189	0.000281334	9.697532654	0.941491127	1.253151894	0.022792818	-0.024509432	0.014066697	-0.465820313	-0.853027344	-0.360107422	891.76	36.92609098	-80.9844957	36.6937251	-81
6023	0	0.385070801	0.036987305	0.053833008	0.999999046	0.000232697	-0.000788689	6.10E-05	9.62677002	0.924682617	1.345825195	0.011634828	-0.039434437	0.003051758	-0.468261719	-0.855224609	-0.356933594	891.76	37.30595075	-81.05236909	36.34641294	-81
6024	0	0.387047768	0.036963463	0.050885201	0.999999046	0.000407219	-0.00091362	1.43E-05	9.676194191	0.924086571	1.272130013	0.02036095	-0.045681007	0.000715256	-0.468261719	-0.855224609	-0.359619141	891.86	37.79385294	-81.12772543	35.89932243	-81
6025	0	0.390319824	0.034423828	0.049560547	0.999999046	0.000247955	-0.000891685	-0.000125885	9.757995605	0.860595703	1.239013672	0.012397768	-0.044584281	-0.006294251	-0.468261719	-0.853027344	-0.362792969	891.8	38.3413014	-81.19052906	35.36145781	-81
6026	0	0.391797066	0.039000511	0.046705246	0.999999046	0.000522614	-0.001209259	-9.54E-07	9.794926643	0.975012779	1.167631149	0.026130684	-0.060462969	-4.77E-05	-0.468261719	-0.855224609	-0.356933594	891.7	39.00470961	-81.2897402	34.74858603	-81
6027	0	0.391845703	0.037963867	0.044494629	0.999999046	0.000396729	-0.000823021	0.000171661	9.796142578	0.94909668	1.112365723	0.019836429	-0.041151053	0.00858307	-0.472900391	-0.854980469	-0.356689453	891.8	39.3820943	-81.36630213	34.40843329	-81
6028	0	0.392790794	0.037927628	0.047234535	0.999999046	1.62E-05	-0.00050354	0.000133514	9.819769859	0.948190689	1.18086338	0.000810623	-0.025177003	0.006675721	-0.470458984	-0.854980469	-0.359619141	891.74	39.58882557	-81.41145038	34.18824322	-81
6029	0	0.392089844	0.037414551	0.05065918	0.999999046	0.000167847	-0.000353813	6.48E-05	9.802246094	0.93536377	1.266479492	0.008392334	-0.017690659	0.003242493	-0.472900391	-0.857177734	-0.353515625	891.7	39.78089136	-81.43799312	34.01547391	-81
6030	0	0.38737011	0.037564278	0.051836014	0.999999046	-0.00012207	-0.00012207	0.000106812	9.684252739	0.939106941	1.295900345	-0.006103516	-0.006103516	0.005340576	-0.470458984	-0.857177734	-0.350830078	891.8	39.80118844	-81.44680807	33.98880244	-81
6031	0	0.38684082	0.03717041	0.052429199	0.999999046	-0.000148773	-0.000132561	9.92E-05	9.671020508	0.929260254	1.31072998	-0.00743866	-0.006628037	0.004959106	-0.470703125	-0.854980469	-0.354003906	891.74	39.82609116	-81.45563381	33.94579154	-81
6032	0	0.389424324	0.036772728	0.048429489	0.999999046	-0.000153542	-0.000183105	6.68E-06	9.735608101	0.919318199	1.210737228	-0.007677078	-0.009155274	0.000333786	-0.470703125	-0.852783203	-0.354003906	891.68	39.92830037	-81.46194103	33.82305506	-81
6033	0	0.392150879	0.03717041	0.045959473	0.999999046	-0.000106812	-0.000102043	6.87E-05	9.803771973	0.929260254	1.148986816	-0.005340576	-0.005102158	0.003433228	-0.470458984	-0.854980469	-0.356689453	891.74	39.95947913	-81.46561374	33.77281795	-81
6034	0	0.390944481	0.037472725	0.046679497	0.999999046	-0.000289917	0.000278473	0.000118256	9.773612022	0.936818123	1.166987419	-0.01449585	0.013923645	0.005912781	-0.468261719	-0.854980469	-0.354003906	891.7	39.75408171	-81.43936033	33.9486009	-81
6035	0	0.390686035	0.038024902	0.047180176	0.999999046	-0.000461578	0.000302315	0.000144958	9.767150879	0.950622559	1.179504395	-0.02307892	0.015115739	0.007247925	-0.468261719	-0.855224609	-0.356933594	891.76	39.50261163	-81.41272567	34.14713567	-80
6036	0	0.390057564	0.037013054	0.047021866	0.999999046	-0.000433922	0.00031662	8.77E-05	9.751439095	0.925326347	1.175546646	-0.021696092	0.015830994	0.004386902	-0.468261719	-0.853027344	-0.362792969	891.8	39.28174413	-81.38046565	34.30571813	-79
6037	0	0.389587402	0.038879395	0.046630859	0.999999046	-0.000469208	0.000378609	7.25E-05	9.739685059	0.971984863	1.165771484	-0.02346039	0.018930436	0.003623963	-0.465820313	-0.853027344	-0.357177734	891.7	39.03795263	-81.34136434	34.4994379	-78
6038	0	0.388824463	0.038351059	0.047204018	0.999999046	-0.000514984	0.00037384	6.01E-05	9.720611572	0.958776474	1.180100441	-0.025749208	0.018692018	0.003004074	-0.465820313	-0.853027344	-0.360107422	891.82	38.80028019	-81.30156622	34.67800529	-78
6039	0	0.389587402	0.037231445	0.046142578	0.999999046	-0.000286102	0.000573158	7.25E-05	9.739685059	0.930786133	1.153564453	-0.014305116	0.028657915	0.003623963	-0.465820313	-0.850830078	-0.363037109	891.76	38.49085078	-81.24468049	34.9503237	-77
6040	0	0.38904953	0.037269592	0.047524452	0.999999046	-0.000422478	0.000591278	-4.29E-05	9.726238251	0.931739807	1.188111305	-0.021123888	0.029563906	-0.002145767	-0.466064453	-0.848632813	-0.36328125	891.8	38.22810698	-81.17769926	35.16132591	-76
6041	0	0.390075684	0.037475586	0.047668457	0.999999046	-0.000385284	0.000657082	0.000102997	9.75189209	0.936889648	1.191711426	-0.019264223	0.032854083	0.005149842	-0.466064453	-0.848632813	-0.36328125	891.76	37.85912354	-81.11487177	35.48769838	-76
6042	0	0.388678551	0.037359238	0.046985626	0.999999046	-9.54E-05	0.000627518	7.63E-05	9.716963768	0.933980942	1.174640656	-0.004768372	0.031375887	0.003814698	-0.463623047	-0.846679688	-0.366455078	891.86	37.55678054	-81.05257643	35.77320067	-76
6043	0	0.387512207	0.037536621	0.047729492	0.999999046	7.63E-05	0.000596046	8.39E-05	9.687805176	0.938415527	1.193237305	0.003814697	0.029802324	0.004196167	-0.461181641	-0.848876953	-0.366455078	891.86	37.28769631	-80.99343977	36.04716821	-76
6044	0	0.387827873	0.037905693	0.047635078	0.999999046	-6.39E-05	0.000473022	-9.54E-07	9.695696831	0.947642326	1.190876961	-0.003194809	0.023651124	-4.77E-05	-0.461425781	-0.848876953	-0.363525391	891.76	37.10845554	-80.93948503	36.22253359	-75
6045	0	0.387145996	0.037719727	0.048278809	0.999999046	-6.48E-05	0.000512123	-0.000175476	9.678649902	0.942993164	1.206970215	-0.003242493	0.025606157	-0.008773804	-0.461181641	-0.848876953	-0.369140625	891.8	37.01410678	-80.86984274	36.30015585	-75
6046	0	0.387084007	0.036261559	0.0476408	0.999999046	0.000244141	0.000682831	-0.000274658	9.677100182	0.906538963	1.191020012	0.012207032	0.034141544	-0.013732912	-0.458984375	-0.846679688	-0.369384766	891.74	36.93991078	-80.77781192	36.3916646	-75
6047	0	0.39074707	0.03527832	0.047424316	0.999999046	0.00069809	0.000702858	-0.0001297	9.768676758	0.881958008	1.18560791	0.034904486	0.035142904	-0.006484986	-0.458984375	-0.848876953	-0.366455078	891.76	36.82952251	-80.69407931	36.57972858	-75
6048	0	0.393054962	0.039042473	0.044442177	0.999998093	0.001459122	0.001198769	0.000213623	9.826374054	0.976061821	1.11105442	0.072956129	0.059938467	0.010681159	-0.456542969	-0.848876953	-0.363769531	891.74	36.41468183	-80.58831038	37.16710839	-74
6049	0	0.390380859	0.039123535	0.050476074	0.999997139	0.001281738	0.001591682	0.000293732	9.759521484	0.978088379	1.261901855	0.06408696	0.079584178	0.014686595	-0.451904297	-0.849121094	-0.366943359	891.76	35.78988953	-80.45071959	37.93664277	-74
6050	0	0.387798309	0.038232803	0.051794052	0.999998093	0.000844002	0.001338005	0.000166893	9.694957733	0.955820084	1.294851303	0.042200106	0.066900282	0.008344654	-0.454101563	-0.849121094	-0.369628906	891.76	35.30321422	-80.32710177	38.50961236	-74
6051	0	0.383605957	0.03717041	0.055358887	0.999999046	0.000865936	0.00105381	-0.000148773	9.590148926	0.929260254	1.383972168	0.043296828	0.052690523	-0.007438662	-0.451904297	-0.849121094	-0.366943359	891.74	35.11186014	-80.20855372	38.7906451	-74
6052	0	0.38384819	0.036216736	0.053846359	0.999999046	0.000929832	0.000495911	-4.20E-05	9.596204758	0.905418396	1.346158981	0.046491632	0.024795537	-0.002098084	-0.451904297	-0.849121094	-0.366943359	891.86	35.08576195	-80.14928961	38.90896484	-73
6053	0	0.387145996	0.035949707	0.047790527	0.999998093	0.001652718	-0.000259399	8.01E-05	9.678649902	0.898742676	1.194763184	0.082635918	-0.012969977	0.004005434	-0.449462891	-0.851318359	-0.364013672	891.76	35.36442044	-80.16918804	38.80219795	-74
6054	0	0.39040947	0.037437439	0.044229507	0.999997139	0.002300262	-0.00018692	0.000239372	9.76023674	0.935935974	1.105737686	0.115013226	-0.009346017	0.011968623	-0.44921875	-0.853515625	-0.366699219	891.76	35.60562133	-80.19330923	38.7934874	-73
6055	0	0.390930176	0.038146973	0.044311523	0.999997139	0.002128601	0.000252724	0.000305176	9.773254395	0.953674316	1.107788086	0.106430137	0.012636195	0.015258801	-0.451660156	-0.855712891	-0.357666016	891.76	35.62378127	-80.18128507	39.00660422	-73
6056	0	0.390255928	0.037201881	0.049231529	0.999997139	0.002140999	0.000360489	0.000288963	9.756398201	0.930047035	1.230788231	0.107050028	0.018024459	0.014448177	-0.449462891	-0.855712891	-0.354980469	891.7	35.61119731	-80.15837436	39.24997683	-73
6057	0	0.386535645	0.037963867	0.05267334	0.999996185	0.002316475	0.000591278	0.000453949	9.663391113	0.94909668	1.316833496	0.11582386	0.029563933	0.022697471	-0.449462891	-0.857910156	-0.349121094	891.66	35.44251569	-80.12488973	39.67897364	-73
6058	0	0.385655403	0.040174484	0.052270889	0.999997139	0.002206802	0.000476837	0.000484467	9.641385078	1.004362106	1.306772232	0.110340216	0.023841879	0.024223349	-0.449462891	-0.855712891	-0.352050781	891.74	35.29066169	-80.1039122	40.06172933	-72
6059	0	0.385864258	0.040344238	0.049865723	0.999998093	0.001713753	4.20E-05	0.000347137	9.646606445	1.008605957	1.246643066	0.085687681	0.002098085	0.017356881	-0.449462891	-0.860107422	-0.345947266	891.7	35.32248915	-80.11452453	40.21084605	-72
6060	0	0.388573647	0.041222572	0.050061226	0.999999046	0.001235008	-0.000156403	0.000267029	9.714341164	1.030564308	1.251530647	0.061750429	-0.007820132	0.013351444	-0.447021484	-0.860107422	-0.343261719	891.76	35.41898779	-80.13846812	40.23905649	-72
6061	0	0.389892578	0.03894043	0.049560547	0.999999046	0.000873566	-0.000124931	0.00018692	9.747314453	0.973510742	1.239013672	0.04367829	-0.006246568	0.00934601	-0.449462891	-0.862304688	-0.343017578	891.82	35.50583141	-80.15432657	40.23377293	-72
6062	0	0.390529633	0.039433479	0.051345825	0.999999046	0.000198364	3.81E-05	0.000132561	9.763240814	0.985836983	1.28364563	0.009918213	0.001907349	0.006628037	-0.449462891	-0.860107422	-0.340332031	891.76	35.48246195	-80.15142425	40.26696154	-72
6063	0	0.387756348	0.03894043	0.052734375	0.999999046	0.000106812	9.63E-05	8.39E-05	9.693908691	0.973510742	1.318359375	0.005340576	0.004816055	0.004196167	-0.449462891	-0.860107422	-0.340332031	891.74	35.45256277	-80.13985742	40.29631695	-72
6064	0	0.386104584	0.039191246	0.053226471	0.999999046	-0.000178337	7.25E-05	4.48E-05	9.652614594	0.979781151	1.330661774	-0.008916855	0.003623962	0.002241135	-0.447021484	-0.860107422	-0.343261719	891.76	35.42021416	-80.12788102	40.28866569	-72
6065	0	0.387451172	0.039550781	0.052246094	0.999999046	-0.000488281	-0.00014782	-3.05E-05	9.686279297	0.988769531	1.306152344	-0.024414064	-0.007390976	-0.001525879	-0.449462891	-0.862304688	-0.340087891	891.76	35.47725598	-80.13146703	40.16606133	-72
6066	0	0.387646675	0.039766312	0.052596092	0.999999046	-0.000713348	-0.000322342	-1.62E-05	9.691166878	0.994157791	1.314902306	-0.035667423	-0.016117098	-0.000810623	-0.449462891	-0.859863281	-0.337402344	891.74	35.56817367	-80.15224103	39.99085317	-72
6067	0	0.387817383	0.040283203	0.050170898	0.999999046	-0.001266479	-0.000407219	3.81E-05	9.69543457	1.007080078	1.254272461	-0.063323993	-0.020360953	0.001907349	-0.449462891	-0.860107422	-0.340332031	891.76	35.6005732	-80.18458327	39.80858078	-72
6068	0	0.388775826	0.040006638	0.049160957	0.999998093	-0.00147438	-0.000395775	-5.34E-05	9.719395638	1.000165939	1.229023933	-0.073719053	-0.01978875	-0.002670289	-0.449462891	-0.857910156	-0.346191406	891.76	35.6556715	-80.20983719	39.56975012	-73
6069	0	0.388305664	0.039733887	0.049621582	0.999997139	-0.001903534	-0.000639915	-0.000198364	9.707641602	0.993347168	1.240539551	-0.095176761	-0.031995795	-0.00991822	-0.449462891	-0.857910156	-0.349121094	891.76	35.83659302	-80.24809178	39.15373707	-73
6070	0	0.387375832	0.039456367	0.048786163	0.999997139	-0.002174377	-0.000692368	-4.58E-05	9.68439579	0.986409187	1.219654083	-0.108718966	-0.034618408	-0.00228882	-0.449462891	-0.855712891	-0.349365234	891.76	35.92760068	-80.30139369	38.8042481	-73
6071	0	0.38885498	0.039367676	0.049560547	0.999996185	-0.002356529	-0.00069809	-8.01E-05	9.721374512	0.984191895	1.239013672	-0.117826581	-0.034904515	-0.004005436	-0.449462891	-0.855712891	-0.354980469	891.76	36.02164011	-80.35287867	38.42619079	-73
6072	0	0.388550758	0.038708687	0.049200058	0.999996185	-0.002315521	-0.000916481	-3.15E-05	9.713768959	0.967717171	1.23000145	-0.115776182	-0.045824098	-0.001573564	-0.449462891	-0.853515625	-0.360839844	891.74	36.18443742	-80.42779848	37.9765305	-74
6073	0	0.38885498	0.039489746	0.04901123	0.999996185	-0.002383232	-0.001117706	4.20E-05	9.721374512	0.987243652	1.225280762	-0.119161743	-0.055885379	0.002098086	-0.451904297	-0.853515625	-0.357910156	891.86	36.38642205	-80.52607133	37.49553712	-74
6074	0	0.388780594	0.040330887	0.046809196	0.999996185	-0.002291679	-0.000943184	8.77E-05	9.719514847	1.008272171	1.170229912	-0.114584087	-0.047159243	0.004386906	-0.451660156	-0.853515625	-0.360839844	891.7	36.50952018	-80.61119852	37.10628327	-74
6075	0	0.388244629	0.038757324	0.048950195	0.999996185	-0.002310753	-0.001056671	1.91E-05	9.706115723	0.968933105	1.223754883	-0.115537768	-0.052833614	0.000953675	-0.454101563	-0.849121094	-0.369628906	891.8	36.7214297	-80.70186703	36.60991511	-75
6076	0	0.388166428	0.037965775	0.048732758	0.999997139	-0.00212574	-0.000797272	-1.14E-05	9.70416069	0.949144363	1.218318939	-0.106287094	-0.039863621	-0.000572205	-0.451904297	-0.849121094	-0.366943359	891.76	36.86844553	-80.7663609	36.21471878	-75
6077	0	0.388305664	0.03692627	0.048950195	0.999997139	-0.001846313	-0.000739098	7.63E-06	9.707641602	0.923156738	1.223754883	-0.092315735	-0.036954904	0.00038147	-0.451904297	-0.846923828	-0.366943359	891.76	37.01535565	-80.82665498	35.8573318	-75
6078	0	0.390265465	0.037482262	0.045763969	0.999998093	-0.001517296	-0.000470161	6.10E-05	9.75663662	0.937056541	1.144099236	-0.075864824	-0.023508082	0.003051759	-0.454345703	-0.846923828	-0.369628906	891.74	37.05742311	-80.86602922	35.64414121	-75
6079	0	0.389282227	0.03729248	0.045532227	0.999999046	-0.001091003	-0.000346184	0.000221252	9.732055664	0.932312012	1.138305664	-0.054550183	-0.017309193	0.011062625	-0.454345703	-0.842529297	-0.378662109	891.66	37.00485663	-80.90521706	35.556137	-75
6080	0	0.389147758	0.036345482	0.046928406	0.999999046	-0.000815392	-0.000188828	0.000217438	9.728693962	0.908637047	1.173210144	-0.040769582	-0.009441377	0.010871889	-0.456542969	-0.844726563	-0.378417969	891.7	36.91801037	-80.92978596	35.54094884	-75
6081	0	0.388244629	0.035583496	0.046936035	0.999999046	-0.00031662	-7.92E-05	0.000125885	9.706115723	0.889587402	1.173400879	-0.015830994	-0.003957748	0.006294251	-0.456542969	-0.842529297	-0.378662109	891.74	36.8930595	-80.93805702	35.52050047	-75
6082	0	0.387223244	0.035027504	0.048727036	0.999999046	0.000482559	-0.000577927	0.000372887	9.680581093	0.875687599	1.218175888	0.024127963	-0.028896335	0.018644335	-0.456542969	-0.842529297	-0.378662109	891.76	37.03286329	-81.00900003	35.42274981	-75
6083	0	0.388427734	0.03503418	0.046386719	0.999999046	0.000953674	-0.000689507	0.000499725	9.710693359	0.875854492	1.159667969	0.047683729	-0.034475336	0.024986274	-0.456542969	-0.846923828	-0.375244141	891.74	37.2035774	-81.09893678	35.35370189	-75
6084	0	0.389867783	0.036803246	0.043885231	0.999998093	0.001529694	-0.000535011	0.000544548	9.746694565	0.920081139	1.097130775	0.076484717	-0.026750578	0.027227415	-0.458984375	-0.846679688	-0.366699219	891.7	37.34791783	-81.1779595	35.39101573	-75
6085	0	0.389282227	0.03692627	0.045898438	0.999998093	0.001488686	-0.000732422	0.000434875	9.732055664	0.923156738	1.147460938	0.074434317	-0.036621112	0.021743785	-0.461425781	-0.846679688	-0.366455078	891.76	37.64292416	-81.26727907	35.26380919	-75
6086	0	0.388832092	0.036419868	0.045951843	0.999998093	0.001484871	-0.000632286	0.000479698	9.720802307	0.910496712	1.148796082	0.074243581	-0.031614319	0.02398492	-0.463623047	-0.848876953	-0.366210938	891.82	37.86858277	-81.35054085	35.20072731	-76
6087	0	0.387268066	0.035522461	0.045593262	0.999997139	0.001914978	-0.00090313	0.000305176	9.68170166	0.888061523	1.139831543	0.095748974	-0.045156513	0.015258801	-0.463623047	-0.848632813	-0.360595703	891.66	38.37777157	-81.4457732	34.90348372	-76
6088	0	0.389323235	0.035577774	0.044446945	0.999997139	0.001942635	-0.00088501	0.000426292	9.733080864	0.889444351	1.11117363	0.097131806	-0.044250523	0.021314638	-0.465820313	-0.850830078	-0.363037109	891.76	38.81710603	-81.54766828	34.66559437	-77
6089	0	0.391052246	0.03717041	0.042236328	0.999997139	0.002124786	-0.000746727	0.000358582	9.776306152	0.929260254	1.055908203	0.106239411	-0.037336382	0.017929093	-0.468261719	-0.852783203	-0.354248047	891.7	39.25863192	-81.63211108	34.45845831	-77
6090	0	0.391020775	0.036889076	0.042593002	0.999997139	0.001968384	-0.000530243	0.000407219	9.775519371	0.922226906	1.064825058	0.09841926	-0.026512165	0.020360961	-0.470703125	-0.854980469	-0.348144531	891.8	39.55085963	-81.70069772	34.39057677	-78
6091	0	0.392089844	0.037353516	0.046569824	0.999998093	0.001706123	-0.000110626	0.000278473	9.802246094	0.933837891	1.164245605	0.08530621	-0.005531314	0.013923652	-0.470703125	-0.854980469	-0.348144531	891.74	39.68176898	-81.72258392	34.44757668	-78
6092	0	0.390594482	0.036690712	0.048311234	0.999998093	0.001846313	0.00014019	9.44E-05	9.764862061	0.917267799	1.207780838	0.092315727	0.00700951	0.004720691	-0.470703125	-0.857177734	-0.342285156	891.76	39.81273215	-81.70862299	34.52815504	-78
6093	0	0.390319824	0.039855957	0.047973633	0.999998093	0.001542091	0.000232697	0.000225067	9.757995605	0.996398926	1.19934082	0.0771046	0.011634831	0.011253362	-0.473144531	-0.856933594	-0.336425781	891.64	39.78293596	-81.69574817	34.74401663	-78
6094	0	0.389155388	0.039460182	0.047544479	0.999999046	0.000864029	0.000110626	0.00056076	9.728884697	0.986504555	1.188611984	0.043201454	0.005531312	0.02803803	-0.473144531	-0.856933594	-0.339355469	891.74	39.5330794	-81.71779948	35.09315075	-79
6095	0	0.388183594	0.0390625	0.045227051	0.999999046	0.000392914	5.44E-05	0.000389099	9.704589844	0.9765625	1.13067627	0.019645692	0.002717972	0.019454957	-0.473144531	-0.856933594	-0.339355469	891.76	39.36055731	-81.73191426	35.30812917	-79
6096	0	0.389122963	0.03732872	0.044139862	0.999999046	0.000208855	-5.34E-05	0.000209808	9.728074074	0.933218002	1.103496552	0.010442734	-0.002670288	0.010490418	-0.473144531	-0.859130859	-0.339111328	891.76	39.32965787	-81.7423704	35.35950319	-78
6097	0	0.388793945	0.037719727	0.043823242	0.999999046	-2.29E-05	-0.000102043	0.000137329	9.719848633	0.942993164	1.095581055	-0.001144409	-0.005102158	0.006866455	-0.473144531	-0.859130859	-0.336181641	891.76	39.3408663	-81.75173758	35.34838024	-78
6098	0	0.388507843	0.036938667	0.043377876	0.999999046	-7.44E-05	-4.20E-05	-6.10E-05	9.712696075	0.923466682	1.084446907	-0.00371933	-0.002098083	-0.003051758	-0.475341797	-0.859130859	-0.336181641	891.76	39.43718507	-81.74126664	35.24591701	-78
6099	0	0.388793945	0.037475586	0.043823242	0.999999046	-0.000335693	-0.000266075	7.63E-05	9.719848633	0.936889648	1.095581055	-0.016784668	-0.013303757	0.003814697	-0.475341797	-0.859130859	-0.339111328	891.76	39.53233033	-81.76048274	35.10826854	-78
6100	0	0.38851738	0.039094925	0.043702126	0.999999046	-0.000630379	-0.000469208	3.81E-05	9.712934494	0.977373123	1.092553139	-0.031518939	-0.023460391	0.001907349	-0.475585938	-0.859130859	-0.333251953	891.7	39.72098002	-81.79461025	34.85755279	-79
6101	0	0.388549805	0.038208008	0.04296875	0.999999046	-0.000926971	-0.000411034	8.39E-05	9.713745117	0.955200195	1.07421875	-0.04634858	-0.020551685	0.004196168	-0.473144531	-0.859130859	-0.339111328	891.6	39.81992596	-81.82675637	34.65165723	-79
6102	0	0.390055656	0.039039612	0.042597771	0.999998093	-0.001442909	-0.000563622	5.72E-05	9.751391411	0.975990295	1.064944267	-0.072145491	-0.028181087	0.002861024	-0.475585938	-0.856933594	-0.336425781	891.76	39.95643075	-81.87015503	34.35870183	-79
6103	0	0.391052246	0.038024902	0.042053223	0.999997139	-0.001926422	-0.000594139	-7.63E-06	9.776306152	0.950622559	1.051330566	-0.096321171	-0.029706975	-0.00038147	-0.473144531	-0.856933594	-0.339355469	891.8	40.09594142	-81.91125913	34.00610522	-78
6104	0	0.39073658	0.037315369	0.042891502	0.999998093	-0.001857758	-0.00049305	3.05E-05	9.768414497	0.932884216	1.07228756	-0.092887936	-0.024652496	0.00152588	-0.475341797	-0.856933594	-0.34765625	891.74	40.1692452	-81.94612091	33.71611968	-79
6105	0	0.39074707	0.03692627	0.043945313	0.999998093	-0.00190258	-0.000213623	-4.20E-05	9.768676758	0.923156738	1.098632813	-0.095129071	-0.010681159	-0.002098085	-0.475585938	-0.852539063	-0.348144531	891.72	40.13663738	-81.95098699	33.53222321	-79
6106	0	0.391495705	0.036419868	0.045198441	0.999998093	-0.00193882	0.000107765	-0.000167847	9.787392616	0.910496712	1.129961014	-0.096941056	0.005388263	-0.008392339	-0.475341797	-0.852539063	-0.351074219	891.76	40.00918911	-81.91824553	33.44162084	-79
6107	0	0.391174316	0.036621094	0.043762207	0.999998093	-0.001566887	0.000366211	-8.77E-05	9.77935791	0.915527344	1.094055176	-0.078344379	0.018310555	-0.004386904	-0.473144531	-0.850585938	-0.351318359	891.76	39.74145285	-81.86859576	33.54116369	-80
6108	0	0.38948822	0.03588295	0.043244362	0.999998093	-0.001527786	0.000536919	5.72E-05	9.737205505	0.897073746	1.081109047	-0.076389346	0.026845944	0.002861024	-0.475341797	-0.850585938	-0.359619141	891.74	39.30423849	-81.81430178	33.80535151	-80
6109	0	0.389099121	0.036193848	0.045166016	0.999999046	-0.001117706	0.000695229	5.72E-05	9.727478027	0.904846191	1.129150391	-0.055885331	0.034761439	0.002861024	-0.473144531	-0.848388672	-0.360107422	891.76	38.83919913	-81.74550655	34.14883737	-81
6110	0	0.388733864	0.036594391	0.046519279	0.999999046	-0.000839233	0.000919342	-3.81E-06	9.718346596	0.914859772	1.162981987	-0.041961681	0.045967114	-0.000190735	-0.470703125	-0.846435547	-0.365966797	891.74	38.3404252	-81.65171131	34.54930242	-81
6111	0	0.388122559	0.035766602	0.044067383	0.999999046	-0.000728607	0.001065254	-3.05E-05	9.703063965	0.894165039	1.10168457	-0.036430369	0.053262725	-0.001525879	-0.470703125	-0.846435547	-0.365966797	891.72	37.81135319	-81.54233613	34.99916645	-81
6112	0	0.390899658	0.033958435	0.042446136	0.999999046	-0.00024128	0.001064301	-1.91E-05	9.772491455	0.848960876	1.061153412	-0.012063982	0.053215037	-0.000953675	-0.470703125	-0.846435547	-0.368896484	891.7	37.34368428	-81.43345856	35.44038232	-81
6113	0	0.391357422	0.033813477	0.043151855	0.999999046	0.000263214	0.001084328	4.20E-05	9.783935547	0.845336914	1.078796387	0.013160708	0.054216396	0.002098084	-0.468505859	-0.846435547	-0.366210938	891.74	36.89908707	-81.32664086	35.92409051	-81
6114	0	0.3885746	0.033987999	0.046417236	0.999999046	0.000585556	0.001018524	0.000236511	9.714365005	0.849699974	1.160430908	0.029277809	0.050926221	0.011825564	-0.468261719	-0.846435547	-0.371826172	891.74	36.41457265	-81.23867616	36.47251534	-81
6115	0	0.386657715	0.034667969	0.047668457	0.999998093	0.000992775	0.001083374	0.000278473	9.666442871	0.866699219	1.191711426	0.049638767	0.054168721	0.01392365	-0.466064453	-0.848632813	-0.366210938	891.74	35.93341299	-81.14684577	37.07715808	-81
6116	0	0.387307167	0.03704834	0.047761917	0.999998093	0.00116539	0.000763893	0.000366211	9.682679176	0.926208496	1.194047928	0.058269521	0.03819467	0.018310553	-0.468505859	-0.846435547	-0.36328125	891.76	35.56643367	-81.08989592	37.589201	-81
6117	0	0.38861084	0.036987305	0.046569824	0.999999046	0.000915527	0.000481606	0.000358582	9.715270996	0.924682617	1.164245605	0.045776376	0.024080281	0.017929081	-0.466064453	-0.846435547	-0.372070313	891.66	35.29993077	-81.05843169	37.94691251	-81
6118	0	0.388531685	0.03685379	0.046325684	0.999999046	0.000839233	0.000549316	0.000395775	9.713292122	0.921344757	1.15814209	0.041961678	0.027465826	0.019788746	-0.466064453	-0.846435547	-0.363525391	891.76	34.9774582	-81.02284688	38.37044938	-81
6119	0	0.389892578	0.035400391	0.046447754	0.999999046	0.000957489	0.000462532	0.000370026	9.747314453	0.885009766	1.161193848	0.047874461	0.023126607	0.018501286	-0.466064453	-0.848632813	-0.36328125	891.66	34.72284614	-80.99354394	38.73791671	-80
6120	0	0.390303612	0.034892082	0.044970512	0.999999046	0.001000404	0.000509262	0.000239372	9.757590294	0.872302055	1.12426281	0.050020229	0.02546311	0.011968615	-0.463623047	-0.848632813	-0.36328125	891.72	34.53434214	-80.95133124	39.03983281	-79
6121	0	0.387756348	0.036865234	0.047607422	0.999998093	0.001347542	0.000591278	0.000297546	9.693908691	0.921630859	1.190185547	0.067377116	0.029563915	0.014877325	-0.466064453	-0.848632813	-0.360351563	891.74	34.32103621	-80.9050134	39.41035441	-80
6122	0	0.387964249	0.036826134	0.049064636	0.999999046	0.001276016	0.000278473	0.000320435	9.699106216	0.920653343	1.226615906	0.063800831	0.013923649	0.016021733	-0.466064453	-0.848632813	-0.357421875	891.64	34.21452793	-80.88963652	39.66650456	-79
6123	0	0.388122559	0.03692627	0.048583984	0.999999046	0.001163483	0.000340462	0.00031662	9.703063965	0.923156738	1.214599609	0.058174149	0.017023091	0.015830998	-0.463623047	-0.850830078	-0.360351563	891.76	34.07388981	-80.86808113	39.93381956	-79
6124	0	0.387012482	0.037653923	0.051138878	0.999999046	0.000803947	0.000228882	0.000236511	9.675312042	0.941348076	1.278471947	0.040197377	0.011444093	0.011825563	-0.466064453	-0.850830078	-0.360107422	891.76	33.98504425	-80.8517956	40.10556268	-79
6125	0	0.387817383	0.036499023	0.04888916	0.999999046	0.00050354	-0.000117302	0.000240326	9.69543457	0.912475586	1.222229004	0.025177003	-0.005865097	0.012016297	-0.466064453	-0.850830078	-0.3515625	891.76	33.99797034	-80.86865713	40.1571217	-79
6126	0	0.388944626	0.036482811	0.048454285	0.999999046	0.000352859	-0.000137329	0.000213623	9.723615646	0.912070274	1.211357117	0.017642975	-0.006866455	0.010681153	-0.466064453	-0.848632813	-0.354736328	891.8	34.01793453	-80.8857748	40.17354819	-79
6127	0	0.389343262	0.036010742	0.04864502	0.999999046	0.000339508	-4.86E-05	0.000171661	9.733581543	0.900268555	1.216125488	0.016975403	-0.00243187	0.008583069	-0.466064453	-0.850830078	-0.360107422	891.72	34.02616103	-80.89184255	40.18764695	-79
6128	0	0.389604568	0.035787582	0.04937458	0.999999046	0.0001688	7.63E-06	0.000102043	9.740114212	0.89468956	1.23436451	0.008440018	0.00038147	0.005102158	-0.466064453	-0.850830078	-0.3515625	891.76	34.03377026	-80.88812677	40.20224403	-80
6129	0	0.389343262	0.036682129	0.04888916	0.999999046	0.000160217	-8.30E-05	0.000270844	9.733581543	0.917053223	1.222229004	0.008010864	-0.004148483	0.013542176	-0.463623047	-0.850830078	-0.357421875	891.7	33.97707509	-80.90386642	40.26581304	-79
6130	0	0.388699532	0.03630352	0.048872948	0.999999046	-0.000102997	9.16E-05	0.000247002	9.717488289	0.907588005	1.221823692	-0.005149841	0.004577637	0.012350083	-0.468505859	-0.850585938	-0.354248047	891.76	33.83492165	-80.90148424	40.3949856	-79
6131	0	0.389526367	0.036254883	0.048583984	0.999999046	-0.000362396	0.000130653	0.000167847	9.73815918	0.90637207	1.214599609	-0.018119813	0.006532669	0.008392334	-0.466064453	-0.848632813	-0.354736328	891.66	33.69520076	-80.89033006	40.49078158	-79
6132	0	0.389708519	0.036270142	0.049931526	0.999999046	-0.000536919	0.000156403	9.06E-05	9.742712975	0.90675354	1.248288155	-0.026845933	0.00782013	0.004529953	-0.466064453	-0.850830078	-0.354492188	891.7	33.57186028	-80.87176803	40.55438655	-80
6133	0	0.390136719	0.035766602	0.05078125	0.999999046	-0.00082016	6.58E-05	6.87E-05	9.753417969	0.894165039	1.26953125	-0.041008	0.003290177	0.003433228	-0.468505859	-0.848388672	-0.354492188	891.64	33.46514708	-80.86043056	40.5713195	-80
6134	0	0.389950752	0.03288269	0.050824165	0.999999046	-0.000850677	0.000415802	-3.05E-05	9.748768806	0.822067261	1.270604134	-0.042533881	0.020790103	-0.001525879	-0.466064453	-0.848632813	-0.354736328	891.64	33.27657366	-80.80939908	40.67116834	-79
6135	0	0.390991211	0.032958984	0.051208496	0.999999046	-0.000598907	0.000660896	-0.000179291	9.774780273	0.823974609	1.280212402	-0.029945378	0.03304482	-0.00896454	-0.463623047	-0.850830078	-0.354492188	891.66	33.11102373	-80.72554987	40.78208265	-80
6136	0	0.38901329	0.034375191	0.055363655	0.999999046	-0.000603676	0.000787735	-3.43E-05	9.72533226	0.859379768	1.384091377	-0.030183797	0.039386756	-0.001716614	-0.463623047	-0.848632813	-0.360595703	891.72	32.81381685	-80.63834892	41.01454789	-80
6137	0	0.387268066	0.035522461	0.054626465	0.999999046	-0.000198364	0.000809669	0.000114441	9.68170166	0.888061523	1.365661621	-0.009918214	0.04048348	0.005722047	-0.463623047	-0.848632813	-0.36328125	891.76	32.47281209	-80.55790572	41.33506879	-80
6138	0	0.386575699	0.035655975	0.055692673	0.999999046	-0.000118256	0.00062561	4.20E-05	9.664392471	0.891399384	1.392316818	-0.005912781	0.03128052	0.002098084	-0.463623047	-0.848632813	-0.36328125	891.8	32.25517181	-80.49043655	41.5419944	-80
6139	0	0.387634277	0.036682129	0.056030273	0.999999046	-0.000411987	0.000447273	-0.0001297	9.690856934	0.917053223	1.400756836	-0.020599367	0.022363664	-0.006484986	-0.463623047	-0.846679688	-0.366455078	891.72	32.17010612	-80.42953887	41.57476627	-79
6140	0	0.38824749	0.036738396	0.053660393	0.999999046	-2.00E-05	0.000513077	7.25E-05	9.706187248	0.918459892	1.341509819	-0.001001358	0.02565384	0.003623963	-0.461425781	-0.846679688	-0.366455078	891.7	31.99161912	-80.37452676	41.7487658	-79
6141	0	0.388427734	0.036437988	0.055603027	0.999999046	-2.67E-05	0.000439644	3.43E-05	9.710693359	0.910949707	1.390075684	-0.001335144	0.021982194	0.001716614	-0.463867188	-0.846435547	-0.363525391	891.76	31.86223527	-80.32419359	41.8809679	-79
6142	0	0.388868332	0.035980225	0.0571661	0.999999046	4.58E-05	0.000150681	-3.81E-05	9.721708298	0.899505615	1.429152489	0.002288818	0.007534027	-0.001907349	-0.461425781	-0.844482422	-0.369628906	891.66	31.88534692	-80.29748148	41.85088897	-79
6143	0	0.388366699	0.036560059	0.056274414	0.999999046	0.000164032	5.05E-05	0	9.70916748	0.914001465	1.406860352	0.008201599	0.002527237	0	-0.461181641	-0.846679688	-0.369384766	891.7	31.93563865	-80.28274752	41.80859206	-79
6144	0	0.387994766	0.036944389	0.056788445	0.999999046	0.000361443	6.87E-05	4.58E-05	9.699869156	0.923609734	1.419711113	0.018072129	0.003433228	0.002288818	-0.461425781	-0.846679688	-0.366455078	891.74	31.97605345	-80.26892389	41.80513719	-79
6145	0	0.38861084	0.036560059	0.054382324	0.999999046	0.000427246	-3.34E-05	-9.54E-05	9.715270996	0.914001465	1.359558105	0.021362305	-0.00166893	-0.004768372	-0.461181641	-0.846679688	-0.369384766	891.64	32.14017677	-80.25645855	41.67511633	-79
6146	0	0.38866806	0.038389206	0.054261208	0.999999046	0.000402451	4.20E-05	-3.15E-05	9.716701508	0.959730148	1.35653019	0.020122529	0.002098084	-0.001573563	-0.458984375	-0.846679688	-0.366699219	891.7	32.23900066	-80.2405291	41.61292462	-78
6147	0	0.386779785	0.038452148	0.055236816	0.999999046	0.000171661	-0.000144005	9.54E-05	9.669494629	0.961303711	1.38092041	0.008583069	-0.007200241	0.004768372	-0.458984375	-0.848876953	-0.363525391	891.76	32.30644183	-80.25029616	41.5637299	-78
6148	0	0.386557579	0.037298203	0.053890228	0.999999046	-0.000214577	-0.000343323	1.53E-05	9.663939476	0.932455063	1.347255707	-0.010728836	-0.017166138	0.000762939	-0.458984375	-0.846679688	-0.366699219	891.72	32.44664495	-80.27444396	41.38728404	-78
6149	0	0.389953613	0.037536621	0.052429199	0.999999046	-0.000106812	-0.000124931	-6.48E-05	9.748840332	0.938415527	1.31072998	-0.005340576	-0.006246567	-0.003242493	-0.458984375	-0.848876953	-0.363525391	891.7	32.56706195	-80.27257798	41.25273694	-78
6150	0	0.389472961	0.038674355	0.052277565	0.999999046	-0.000350952	-0.000268936	-3.43E-05	9.736824036	0.966858864	1.306939125	-0.017547608	-0.013446808	-0.001716614	-0.458984375	-0.846679688	-0.363769531	891.76	32.69520749	-80.28650834	41.08109717	-78
6151	0	0.387451172	0.038513184	0.052307129	0.999999046	-0.000530243	-0.000189781	0.000175476	9.686279297	0.96282959	1.307678223	-0.026512148	-0.00948906	0.008773804	-0.456542969	-0.846923828	-0.369628906	891.72	32.65696808	-80.30580565	41.04508677	-77
6152	0	0.386446953	0.03715992	0.053846359	0.999999046	-0.000489235	-0.000453949	7.15E-05	9.66117382	0.928997993	1.346158981	-0.024461748	-0.02269745	0.003576279	-0.456542969	-0.846923828	-0.366699219	891.64	32.77852702	-80.34412118	40.86018179	-77
6153	0	0.386352539	0.03717041	0.053039551	0.999999046	-0.000400543	-0.000582695	7.63E-05	9.658813477	0.929260254	1.32598877	-0.020027162	-0.029134753	0.003814698	-0.456542969	-0.846923828	-0.369628906	891.66	32.9564347	-80.39506161	40.62215451	-78
6154	0	0.387332916	0.037557602	0.051091194	0.999999046	-0.000408173	-0.000551224	9.16E-05	9.683322906	0.938940048	1.277279854	-0.020408632	-0.02756119	0.004577637	-0.458984375	-0.844482422	-0.369628906	891.8	33.11584564	-80.4438962	40.40213224	-78
6155	0	0.388793945	0.038696289	0.049743652	0.999999046	-0.000377655	-0.000693321	0.000141144	9.719848633	0.967407227	1.243591309	-0.018882753	-0.034666065	0.007057191	-0.456542969	-0.846923828	-0.366699219	891.76	33.30683651	-80.50945028	40.16182847	-77
6156	0	0.38978672	0.038854599	0.047766685	0.999999046	-0.000529289	-0.000759125	0.000175476	9.744668007	0.971364975	1.194167137	-0.026464466	-0.037956243	0.008773805	-0.456787109	-0.844726563	-0.366943359	891.7	33.49009346	-80.58349264	39.91068816	-78
6157	0	0.389953613	0.03894043	0.046630859	0.999999046	-0.000614166	-0.00045681	0.000263214	9.748840332	0.973510742	1.165771484	-0.030708316	-0.022840502	0.013160707	-0.458984375	-0.844482422	-0.366699219	891.64	33.50127214	-80.63429466	39.82703527	-78
6158	0	0.390016556	0.038432121	0.046992302	0.999999046	-0.000541687	-0.000341415	0.00025177	9.750413895	0.960803032	1.174807549	-0.027084353	-0.017070772	0.012588502	-0.461425781	-0.844482422	-0.366699219	891.66	33.48474124	-80.67349355	39.78226886	-78
6159	0	0.389465332	0.038818359	0.049133301	0.999999046	-0.000637054	-0.000247002	0.000339508	9.736633301	0.970458984	1.22833252	-0.031852725	-0.012350084	0.016975404	-0.45703125	-0.840332031	-0.3671875	891.64	33.37062748	-80.70923733	39.82271677	-79
6160	0	0.388965607	0.037635803	0.049659729	0.999999046	-0.000483513	-0.000177383	0.00037384	9.724140167	0.940895081	1.241493225	-0.024175646	-0.008869172	0.018692018	-0.461425781	-0.842285156	-0.369628906	891.72	33.22711642	-80.74047698	39.90924988	-79
6161	0	0.385742188	0.038513184	0.050476074	0.999999046	-0.000583649	-0.000433922	0.000392914	9.643554688	0.96282959	1.261901855	-0.029182437	-0.021696093	0.019645693	-0.461669922	-0.840087891	-0.369873047	891.66	33.15985263	-80.79740955	39.90673909	-79
6162	0	0.384289742	0.038212776	0.050430298	0.999999046	-0.000665665	-0.000675201	0.000155449	9.607243538	0.955319405	1.260757446	-0.033283239	-0.033760076	0.007772447	-0.461425781	-0.837890625	-0.375732422	891.7	33.31900387	-80.86245795	39.65151132	-80
6163	0	0.38873291	0.037231445	0.049682617	0.999999046	-0.001056671	-0.000628471	8.01E-05	9.718322754	0.930786133	1.24206543	-0.05283357	-0.031423577	0.004005433	-0.461669922	-0.837890625	-0.370117188	891.66	33.46307426	-80.91814749	39.38334387	-81
6164	0	0.385626793	0.037186623	0.049153328	0.999998093	-0.001310349	-0.001013756	-4.29E-05	9.640669823	0.929665565	1.228833199	-0.065517456	-0.050687813	-0.002145768	-0.459228516	-0.8359375	-0.376220703	891.76	33.80965488	-81.00255767	38.86779298	-81
6165	0	0.384094238	0.035827637	0.046875	0.999998093	-0.001330376	-0.001178741	-0.000213623	9.602355957	0.895690918	1.171875	-0.066518819	-0.058937104	-0.010681158	-0.461669922	-0.835693359	-0.370361328	891.76	34.33339645	-81.09109758	38.18858302	-82
6166	0	0.388397217	0.032089233	0.044457436	0.999998093	-0.000657082	-0.001273155	-0.000500679	9.70993042	0.802230835	1.11143589	-0.032854093	-0.063657785	-0.02503396	-0.461669922	-0.835693359	-0.373046875	891.72	35.15974353	-81.16877279	37.27462643	-83
6167	0	0.389160156	0.031433105	0.044433594	0.999998093	0.000409126	-0.001644135	-0.000339508	9.729003906	0.785827637	1.110839844	0.020456324	-0.082206767	-0.016975411	-0.461914063	-0.833496094	-0.370361328	891.72	36.18933424	-81.28971822	36.27811703	-84
6168	0	0.391052246	0.033382416	0.043486595	0.999998093	0.001285553	-0.001231194	1.72E-05	9.776306152	0.834560394	1.087164879	0.064277683	-0.06155971	0.000858307	-0.461914063	-0.833496094	-0.367675781	891.72	36.94347422	-81.39484023	35.6599317	-84
6169	0	0.395690918	0.036560059	0.040710449	0.999997139	0.00163269	-0.001273155	0.000823975	9.892272949	0.914001465	1.01776123	0.081634589	-0.063657813	0.041198765	-0.461914063	-0.835693359	-0.364501953	891.76	37.281959	-81.55892056	35.50154007	-85
6170	0	0.396829605	0.037986755	0.038719177	0.999997139	0.001308441	-0.000907898	0.001360893	9.920740128	0.949668884	0.967979431	0.065422106	-0.045394931	0.068044712	-0.464355469	-0.835449219	-0.361572266	891.76	37.08329869	-81.72702154	35.84845086	-85
6171	0	0.391235352	0.034362793	0.044006348	0.999999046	0.000339508	0.000374794	0.000953674	9.780883789	0.859069824	1.100158691	0.016975406	0.018739704	0.047683725	-0.466796875	-0.831054688	-0.361816406	891.72	36.41197775	-81.74903285	36.55749849	-86
6172	0	0.387963295	0.031825066	0.0499506	0.999999046	0.000218391	0.00071907	0.000590324	9.699082375	0.79562664	1.248764992	0.010919573	0.035953527	0.029516225	-0.468994141	-0.833251953	-0.358642578	891.72	35.79488006	-81.71325893	37.20852854	-86
6173	0	0.389038086	0.033630371	0.04888916	0.999999046	0.000198364	0.000584602	0.000743866	9.725952148	0.840759277	1.222229004	0.009918214	0.029230122	0.037193304	-0.468994141	-0.831054688	-0.364501953	891.72	35.14189215	-81.699024	37.87846921	-86
6174	0	0.387937546	0.035390854	0.047068596	0.999999046	-1.72E-05	0.000232697	0.000941277	9.698438644	0.884771347	1.176714897	-0.000858307	0.011634828	0.047063835	-0.469238281	-0.833251953	-0.355712891	891.76	34.49514465	-81.72951256	38.54137632	-86
6175	0	0.391723633	0.03314209	0.045898438	0.999999046	-0.000724792	0.00049305	0.000640869	9.79309082	0.828552246	1.147460938	-0.036239631	0.024652486	0.032043463	-0.469238281	-0.831054688	-0.361572266	891.66	33.84460367	-81.71488333	39.11472774	-87
6176	0	0.392208099	0.03318119	0.047064781	0.999998093	-0.001110077	0.000748634	0.000452995	9.805202484	0.829529762	1.17661953	-0.055503864	0.037431729	0.022649773	-0.471435547	-0.830810547	-0.361572266	891.76	33.16534755	-81.66290296	39.67996587	-86
6177	0	0.388671875	0.032592773	0.050170898	0.999998093	-0.001357079	0.000991821	0.000293732	9.716796875	0.814819336	1.254272461	-0.067853961	0.049591089	0.014686592	-0.474121094	-0.826416016	-0.361816406	891.72	32.46747721	-81.57643647	40.24113225	-85
6178	0	0.386940956	0.032104492	0.051513672	0.999997139	-0.001743317	0.001209259	0.000292778	9.673523903	0.802612305	1.287841797	-0.087165899	0.060462998	0.014638912	-0.471679688	-0.824462891	-0.364990234	891.76	31.65038072	-81.46751261	40.8791994	-85
6179	0	0.389160156	0.030761719	0.050476074	0.999997139	-0.002075195	0.000794411	0.000301361	9.729003906	0.769042969	1.261901855	-0.103759853	0.039720569	0.015068067	-0.469238281	-0.824462891	-0.370849609	891.66	30.96889261	-81.39842851	41.33799727	-84
6180	0	0.389038086	0.02983284	0.04999733	0.999997139	-0.002116203	0.000862122	0.000267029	9.725952148	0.745820999	1.249933243	-0.105810259	0.043106117	0.013351452	-0.469238281	-0.822265625	-0.376708984	891.8	30.28755269	-81.31984939	41.78766371	-84
6181	0	0.390563965	0.028869629	0.049133301	0.999997139	-0.001941681	0.00074482	0.000179291	9.764099121	0.721740723	1.22833252	-0.097084116	0.037241009	0.008964545	-0.469238281	-0.820068359	-0.379638672	891.66	29.73568318	-81.24724442	42.12857832	-83
6182	0	0.390371323	0.028153419	0.054340363	0.999996185	-0.002392769	0.000411034	0.000242233	9.759283066	0.703835487	1.358509064	-0.119638562	0.020551702	0.012111676	-0.471679688	-0.815673828	-0.385742188	891.72	29.21845344	-81.21090704	42.37638597	-82
6183	0	0.389892578	0.027954102	0.053100586	0.999997139	-0.002071381	0.0002985	0.000232697	9.747314453	0.698852539	1.327514648	-0.103569107	0.014925014	0.011634835	-0.469482422	-0.813476563	-0.383056641	891.72	28.78639208	-81.18495963	42.5900908	-82
6184	0	0.389874458	0.028962135	0.051682472	0.999997139	-0.002058983	0.000392914	0.000152588	9.746861458	0.724053383	1.292061806	-0.102949218	0.019645705	0.0076294	-0.469482422	-0.811523438	-0.394775391	891.7	28.37591514	-81.14491124	42.76293275	-81
6185	0	0.39074707	0.028137207	0.051940918	0.999997139	-0.001926422	0.000409126	0.000118256	9.768676758	0.703430176	1.298522949	-0.096321168	0.020456327	0.005912785	-0.467041016	-0.809326172	-0.392089844	891.76	27.99934895	-81.10121159	42.93133166	-81
6186	0	0.390587807	0.026803017	0.053095818	0.999998093	-0.001610756	0.000361443	0.000236511	9.764695168	0.670075417	1.327395439	-0.080537833	0.018072137	0.011825567	-0.469482422	-0.809326172	-0.397705078	891.72	27.60044159	-81.0685322	43.15397738	-81
6187	0	0.386535645	0.026062012	0.057067871	0.999999046	-0.001029968	0.000668526	0.00030899	9.663391113	0.651550293	1.426696777	-0.051498427	0.033426294	0.015449528	-0.469482422	-0.807128906	-0.400878906	891.72	27.11991122	-81.00800973	43.52340763	-81
6188	0	0.38329792	0.027471542	0.060199738	0.999999046	-0.000916481	0.00038147	0.000239372	9.582448006	0.686788559	1.504993439	-0.045824059	0.01907349	0.011968615	-0.467285156	-0.804931641	-0.401123047	891.72	26.79452099	-80.97246462	43.75120681	-81
6189	0	0.385437012	0.028381348	0.054443359	0.999999046	-0.000644684	-0.000144005	0.000213623	9.635925293	0.709533691	1.361083984	-0.032234194	-0.007200242	0.010681153	-0.467041016	-0.807128906	-0.400878906	891.7	26.68853057	-80.98918497	43.79358652	-81
6190	0	0.388942719	0.028269768	0.051559448	0.999999046	-0.000423431	-0.000116348	0.000304222	9.723567963	0.706744194	1.288986206	-0.021171571	-0.005817414	0.015211106	-0.467285156	-0.802978516	-0.404052734	891.66	26.54032579	-81.00782452	43.89439931	-80
6191	0	0.39074707	0.025695801	0.051635742	0.999999046	0.000343323	0.000172615	0.000259399	9.768676758	0.64239502	1.290893555	0.017166138	0.008630753	0.012969971	-0.467285156	-0.802978516	-0.404052734	891.82	26.41504225	-80.9946687	44.05993785	-80
6192	0	0.392085075	0.027237892	0.054619789	0.999999046	0.000554085	0.000375748	0.000365257	9.802126884	0.680947304	1.365494728	0.027704242	0.018787386	0.018262865	-0.467285156	-0.804931641	-0.401123047	891.78	26.18071131	-80.96594941	44.36810494	-80
6193	0	0.38885498	0.026977539	0.055969238	0.999999046	0.000858307	0.000538826	0.000347137	9.721374512	0.674438477	1.399230957	0.042915352	0.026941305	0.017356876	-0.469726563	-0.802734375	-0.401123047	891.76	25.94287019	-80.91928161	44.71120853	-80
6194	0	0.387957573	0.025950432	0.056707382	0.999998093	0.00152874	0.000647545	0.000453949	9.698939323	0.648760796	1.417684555	0.076437034	0.032377259	0.02269746	-0.469726563	-0.802734375	-0.398193359	891.82	25.68153661	-80.86644001	45.15794899	-79
6195	0	0.39050293	0.027404785	0.057128906	0.999998093	0.00124836	0.000919342	0.000415802	9.762573242	0.685119629	1.428222656	0.062418011	0.045967122	0.020790109	-0.467285156	-0.804931641	-0.398193359	891.78	25.33409527	-80.78317028	45.65713651	-79
6196	0	0.390299797	0.027463913	0.056678772	0.999998093	0.001562119	0.000618935	0.000606537	9.757494926	0.686597824	1.416969299	0.078105968	0.030946748	0.030326859	-0.467041016	-0.805175781	-0.404052734	891.76	24.99726694	-80.73986832	46.16134404	-79
6197	0	0.390991211	0.027526855	0.056518555	0.999997139	0.001682281	0.001000404	0.000659943	9.774780273	0.688171387	1.412963867	0.084114135	0.050020253	0.032997155	-0.467041016	-0.807128906	-0.397949219	891.78	24.53381151	-80.65886176	46.82076236	-79
6198	0	0.392077446	0.026885986	0.054586411	0.999998093	0.001418114	0.000859261	0.000742912	9.80193615	0.672149658	1.364660263	0.070905724	0.042963052	0.037145635	-0.46484375	-0.807373047	-0.395263672	891.84	24.0373518	-80.5957647	47.48540216	-79
6199	0	0.390869141	0.025817871	0.058410645	0.999998093	0.001194954	0.001270294	0.000717163	9.771728516	0.645446777	1.460266113	0.059747731	0.063514747	0.035858176	-0.467285156	-0.804931641	-0.392578125	891.76	23.42708579	-80.48732035	48.24329024	-79
6200	0	0.386424065	0.025891304	0.05890274	0.999998093	0.001384735	0.001219749	0.000564575	9.660601616	0.6472826	1.472568512	0.069236798	0.06098751	0.028228777	-0.467285156	-0.804931641	-0.389648438	891.66	22.96200591	-80.37613274	48.8806811	-79
6201	0	0.390136719	0.026306152	0.058532715	0.999998093	0.001103401	0.001392365	0.000610352	9.753417969	0.657653809	1.463317871	0.055170092	0.069618266	0.030517596	-0.467285156	-0.809326172	-0.386474609	891.8	22.40543248	-80.2478452	49.58911795	-79
6202	0	0.390802383	0.026870728	0.058034897	0.999998093	0.001112938	0.001093864	0.000583649	9.770059586	0.671768188	1.450872421	0.055646922	0.054693247	0.029182448	-0.467285156	-0.804931641	-0.389648438	891.66	21.95617911	-80.14918717	50.17503168	-79
6203	0	0.390075684	0.026794434	0.060302734	0.999998093	0.000683784	0.001403809	0.000679016	9.75189209	0.66986084	1.507568359	0.034189241	0.070190464	0.033950822	-0.467285156	-0.807128906	-0.389404297	891.64	21.33706272	-80.02066758	50.88699335	-79
6204	0	0.389136314	0.024888039	0.064412117	0.999998093	-0.00025177	0.001851082	0.000257492	9.72840786	0.622200966	1.610302925	-0.012588508	0.092554147	0.012874611	-0.467285156	-0.807128906	-0.389404297	891.76	20.77925138	-79.82563728	51.43459052	-79
6205	0	0.393371582	0.024780273	0.06262207	0.999994278	-0.000750542	0.003242493	-0.000225067	9.834289551	0.619506836	1.565551758	-0.037527154	0.162124934	-0.011253378	-0.462646484	-0.805175781	-0.395507813	891.7	20.16802979	-79.46105813	51.97154989	-79
6206	0	0.387310982	0.031263351	0.067745209	0.999983788	-0.003149033	0.00453949	-0.001266479	9.682774544	0.781583786	1.693630219	-0.157452473	0.226975703	-0.063324314	-0.460205078	-0.805175781	-0.401367188	891.7	19.64733592	-78.91499639	52.14902864	-80
6207	0	0.395935059	0.036987305	0.071350098	0.999939919	-0.007015228	0.007416725	-0.003864288	9.898376465	0.924682617	1.783752441	-0.35076838	0.370843623	-0.193218254	-0.450683594	-0.801269531	-0.410888672	891.7	19.54157177	-77.95812449	51.47320272	-79
6208	0	0.369320869	0.024084091	0.069226265	0.999940872	-0.008195877	0.004496574	-0.005420685	9.233021736	0.60210228	1.730656624	-0.40980183	0.224833096	-0.271039516	-0.438720703	-0.801757813	-0.428710938	891.64	20.50340422	-77.25365663	49.56362564	-78
6209	0	0.391418457	0.021118164	0.046630859	0.999979019	-0.004439354	0.002998352	-0.003456116	9.785461426	0.527954102	1.165771484	-0.221969201	0.149918618	-0.172806957	-0.426757813	-0.797851563	-0.446777344	891.76	21.11706546	-76.78584497	48.42054218	-79
6210	0	0.400658607	0.018862724	0.038021088	0.999999046	-0.000312805	0.000284195	0.00062561	10.01646519	0.471568108	0.950527191	-0.01564026	0.014209749	0.031280521	-0.419677734	-0.798339844	-0.455810547	891.7	20.79213183	-76.77761359	48.70179426	-82
6211	0	0.392883301	0.011962891	0.037841797	0.999995232	0.00164032	0.000622749	0.002471924	9.82208252	0.299072266	0.946044922	0.082016117	0.031137514	0.123596381	-0.424316406	-0.798095703	-0.452636719	891.76	19.787253	-76.8080554	49.91560158	-86
6212	0	0.383060455	0.012117386	0.047979355	0.999993324	0.002272606	0.001663208	0.001947403	9.576511383	0.302934647	1.199483871	0.113630517	0.083160563	0.097370338	-0.429199219	-0.797851563	-0.449462891	891.66	18.9277489	-76.70333609	51.05838183	-90
6213	0	0.377746582	0.019958496	0.042785645	0.999992371	0.003026009	0.001533508	0.0014534	9.443664551	0.498962402	1.069641113	0.151300774	0.076675589	0.072670148	-0.433837891	-0.799804688	-0.446289063	891.72	18.41583387	-76.59328554	51.93480918	-85
6214	0	0.374023438	0.021004677	0.040445328	0.999994278	0.003090858	-0.000401497	0.001188278	9.350585938	0.52511692	1.011133194	0.15454321	-0.020074882	0.05941402	-0.436035156	-0.802001953	-0.440185547	891.76	18.33104769	-76.68492906	52.38256209	-83
6215	0	0.379089355	0.020935059	0.028076172	0.999992371	0.002976418	-0.002132416	0.000873566	9.477233887	0.523376465	0.701904297	0.148821229	-0.10662104	0.043678387	-0.443115234	-0.808349609	-0.43359375	891.78	18.64421094	-76.95591389	52.41421651	-83
6216	0	0.397239685	0.026031494	0.008158684	0.999991417	0.003954887	0.000749588	0.000923157	9.930992126	0.650787354	0.203967094	0.197744932	0.037479507	0.046157968	-0.447753906	-0.8125	-0.427246094	891.82	18.5983933	-76.91914401	52.93453626	-85
6217	0	0.395080566	0.030273438	0.011962891	0.999990463	0.003560066	0.002151489	0.00107193	9.87701416	0.756835938	0.299072266	0.178003859	0.107574794	0.053596661	-0.456787109	-0.818603516	-0.423339844	891.72	18.23061193	-76.73796455	53.74806913	-88
6218	0	0.393437386	0.027077675	0.013277054	0.999991417	0.002510071	0.003002167	0.001039505	9.835934639	0.676941872	0.331926346	0.125503883	0.150108748	0.051975392	-0.458984375	-0.825195313	-0.419921875	891.76	17.65469591	-76.46441621	54.66492773	-85
6219	0	0.391784668	0.023132324	0.015258789	0.999985695	0.002655029	0.004178047	0.001667023	9.794616699	0.578308105	0.381469727	0.132752069	0.208903309	0.083351514	-0.463867188	-0.824951172	-0.413818359	891.76	16.69005306	-76.08358527	56.01793654	-91
6220	0	0.396882057	0.018810272	0.034708023	0.999973297	0.001768112	0.006484032	0.002140999	9.92205143	0.470256805	0.867700577	0.088406342	0.324204272	0.10705083	-0.468261719	-0.833496094	-0.407226563	891.72	15.21051626	-75.45927618	57.84126984	-87
6221	0	0.390380859	0.000366211	0.062438965	0.999976158	0.001316071	0.006524086	0.001670837	9.759521484	0.009155273	1.560974121	0.065804044	0.32620686	0.083542526	-0.475097656	-0.835449219	-0.412353516	891.84	13.99775685	-74.80833417	59.34320227	-87
6222	0	0.397171021	-0.011652946	0.068754196	0.999987602	0.001567841	0.003276825	0.003160477	9.929275513	-0.291323662	1.718854904	0.078392332	0.163841881	0.158024445	-0.479736328	-0.837402344	-0.403320313	891.78	12.61002335	-74.55209187	61.09210882	-91
6223	0	0.437927246	-0.000610352	0.059387207	0.999987602	0.001274109	0.001805305	0.004291534	10.94818115	-0.015258789	1.484680176	0.063705692	0.090265625	0.214577554	-0.491699219	-0.839355469	-0.396972656	891.82	10.89410254	-74.47804981	63.17461449	-89
6224	0	0.42585659	0.016550064	0.07406044	0.999987602	0.000500679	-0.0039711	0.002763748	10.64641476	0.413751602	1.851511002	0.02503405	-0.198555776	0.138187953	-0.510498047	-0.838623047	-0.387451172	891.76	10.14053246	-75.01293135	64.18777682	-84
6225	0	0.401489258	0.018859863	0.073852539	0.999973297	-0.000720024	-0.007213593	-0.000427246	10.03723145	0.471496582	1.846313477	-0.036001522	-0.360682797	-0.021362492	-0.529785156	-0.835693359	-0.372314453	891.72	10.8513489	-75.84703689	63.56951984	-84
6226	0	0.37651062	0.013223648	0.107024193	0.999970436	0.004919052	-0.005872726	-0.000459671	9.412765503	0.330591202	2.67560482	0.245955021	-0.293639204	-0.022983777	-0.539550781	-0.837158203	-0.345947266	891.78	12.20224799	-76.52433787	62.97391635	-85
6227	0	0.334533691	0.042053223	0.117126465	0.999966621	0.007797241	-0.002200127	0.000915527	8.363342285	1.051330566	2.928161621	0.38986638	-0.110007551	0.045776874	-0.554199219	-0.838623047	-0.310546875	891.78	12.93038303	-76.81834913	63.3417361	-86
6228	0	0.384672165	0.0899086	0.106471062	0.999993324	3.91E-05	0.003303528	0.001075745	9.616804123	2.247714996	2.661776543	0.001955036	0.165176724	0.05378734	-0.568603516	-0.8359375	-0.290039063	891.78	12.12942016	-76.4980589	64.28785532	-86
6229	0	0.423156738	0.065124512	0.091003418	0.999978065	-0.004890442	-0.002543449	-0.003562927	10.57891846	1.628112793	2.275085449	-0.24452385	-0.127173383	-0.178147641	-0.571533203	-0.824707031	-0.28515625	891.78	13.57184815	-76.71294177	62.26408288	-80
6230	0	0.38603878	0.025515556	0.067793846	0.999978065	5.72E-06	-0.00362587	-0.005408287	9.650969505	0.637888908	1.694846153	0.000286104	-0.181294769	-0.270416263	-0.572021484	-0.8203125	-0.279785156	891.78	16.66205648	-76.97356927	59.09846717	-78
6231	0	0.365722656	0.030273438	0.060302734	0.999990463	0.002686501	0.00038147	-0.003311157	9.143066406	0.756835938	1.507568359	0.134325438	0.019073545	-0.165558367	-0.572509766	-0.813720703	-0.263183594	891.78	18.53994951	-76.83761395	57.49047772	-74
6232	0	0.353079796	0.050825119	0.061404228	0.999991417	0.000149727	0.003549576	-0.001882553	8.826994896	1.270627975	1.535105705	0.007486364	0.177479268	-0.094127909	-0.570800781	-0.802734375	-0.255615234	891.72	18.9436887	-76.40286305	57.09591915	-78
6233	0	0.331481934	0.052978516	0.050842285	0.999984741	-0.002234459	0.004753113	-0.001255035	8.28704834	1.324462891	1.271057129	-0.111723489	0.237656795	-0.062752075	-0.569091797	-0.789550781	-0.250976563	891.72	18.60979736	-75.86056845	57.17915273	-76
6234	0	0.352991104	0.051082611	0.037092209	0.999974251	-0.005317688	0.004524231	-0.001415253	8.824777603	1.277065277	0.927305222	-0.265886648	0.226213461	-0.070763233	-0.567138672	-0.772216797	-0.260986328	891.68	18.04931883	-75.33826586	57.13065431	-87
6235	0	0.363708496	0.055297852	0.028320313	0.99997139	-0.007361412	0.000534058	-0.001457214	9.092712402	1.382446289	0.708007813	-0.368074075	0.026703133	-0.072861405	-0.563232422	-0.752685547	-0.271484375	891.68	17.8303325	-75.25114014	56.48639111	-84
6236	0	0.372850418	0.0577631	0.027183533	0.99995327	-0.009486198	0.001415253	-0.001013756	9.321260452	1.444077492	0.679588318	-0.474317275	0.070763731	-0.050688576	-0.563964844	-0.730712891	-0.284667969	891.76	17.07759033	-75.08591492	56.14237682	-89
6237	0	0.399597168	0.051757813	0.044250488	0.999904633	-0.013155937	0.003883362	-0.001464844	9.989929199	1.293945313	1.106262207	-0.657817725	0.19417425	-0.073244511	-0.560058594	-0.706787109	-0.298339844	891.84	15.8036816	-74.63752819	55.90350025	-87
6238	0	0.423154831	0.038331032	0.058499336	0.999922752	-0.011817932	0.001506805	-0.003452301	10.57887077	0.958275795	1.462483406	-0.590911759	0.075342203	-0.172619478	-0.553710938	-0.678710938	-0.326660156	891.7	15.76020995	-74.39104873	54.54324401	-90
6239	0	0.420593262	0.027160645	0.026916504	0.999950409	-0.007216454	-0.004627228	-0.005001068	10.51483154	0.679016113	0.672912598	-0.360828601	-0.231365187	-0.250057511	-0.544921875	-0.655273438	-0.346435547	891.76	17.58807551	-74.76428155	51.78639397	-86
6240	0	0.468680382	0.063592911	0.090734482	0.999897957	-0.013161659	-0.003032684	-0.004650116	11.71700954	1.589822769	2.268362045	-0.658105344	-0.151639374	-0.232513706	-0.543457031	-0.631103516	-0.354003906	891.72	18.475665	-74.95824039	49.30542864	-85
6241	0	0.517211914	0.012329102	0.17364502	0.999875069	-0.010368347	-0.005908012	-0.01027298	12.93029785	0.308227539	4.341125488	-0.518438784	-0.295412828	-0.513670215	-0.532714844	-0.598876953	-0.383056641	891.66	22.44116165	-75.20534113	43.96713551	-80
6242	0	0.350598335	-0.026392937	0.150798798	0.99985218	-0.002887726	-0.011463165	-0.012422562	8.764958382	-0.659823418	3.76996994	-0.144393369	-0.573186359	-0.621158528	-0.523681641	-0.586181641	-0.393310547	891.68	29.40180097	-75.78374341	36.43084429	-83
6243	0	0.325927734	0.063903809	0.144775391	0.999927521	-0.002158165	-4.20E-05	-0.0117836	8.148193359	1.597595215	3.619384766	-0.10791083	-0.002098134	-0.589194086	-0.514648438	-0.575439453	-0.39453125	891.78	33.71267053	-75.09094279	31.72085257	-87
6244	0	0.382458687	0.110322952	0.136228561	0.999921799	-0.005645752	0.003325462	-0.010625839	9.561467171	2.758073807	3.405714035	-0.28229493	0.166277436	-0.531305762	-0.500488281	-0.569580078	-0.421630859	891.76	36.01460228	-74.08606709	28.66166584	-85
6245	0	0.369689941	0.036071777	0.124511719	0.99998951	-0.004299164	-3.72E-05	-0.001041412	9.242248535	0.901794434	3.112792969	-0.214958892	-0.001859671	-0.052070788	-0.488769531	-0.556884766	-0.443359375	891.68	35.96922175	-74.02151495	28.19582593	-89
6246	0	0.350887299	-0.05384922	0.086606979	0.999965668	0.001774788	-0.004725456	0.006467819	8.772182465	-1.346230507	2.165174484	0.088740391	-0.236275463	0.323394589	-0.489257813	-0.539550781	-0.456054688	891.68	35.22161766	-74.89825367	29.18067795	-90
6247	0	0.336853027	-0.027099609	0.085144043	0.999907494	0.010257721	-0.00298214	0.008377075	8.421325684	-0.677490234	2.128601074	0.512901802	-0.14911156	0.418866626	-0.501708984	-0.523681641	-0.462402344	891.76	34.19851861	-75.73286449	31.45004581	-85
6248	0	0.355285645	0.047851563	0.062683105	0.999910355	0.010635376	-0.001048088	0.007961273	8.882141113	1.196289063	1.567077637	0.53178454	-0.052405955	0.398075443	-0.508789063	-0.516845703	-0.468261719	891.78	32.69261472	-76.34374842	34.25444085	-84
6249	0	0.361838341	0.055234909	0.026761055	0.999909401	0.010978699	-0.000805855	0.007501602	9.045958519	1.380872726	0.669026375	0.548951173	-0.040293932	0.375091203	-0.516357422	-0.505615234	-0.466064453	891.82	31.16695768	-76.88662746	37.11326805	-83
6250	0	0.323208809	0.022715569	0.017338753	0.999858856	0.01450634	-0.004817009	0.006874084	8.080220222	0.567889214	0.433468819	0.725350961	-0.240861725	0.343720316	-0.523681641	-0.499023438	-0.474853516	891.78	31.18160993	-77.77890201	38.7975253	-84
6251	0	0.324035645	0.042541504	0.002807617	0.999855042	0.015820503	-0.000736237	0.006248474	8.100891113	1.063537598	0.07019043	0.791063383	-0.036813607	0.312438802	-0.530517578	-0.500976563	-0.477050781	891.76	30.3897408	-78.23229605	41.45607338	-88
6252	0	0.376237869	0.0347929	0.032039642	0.999897957	0.012206078	0.004116058	0.006041527	9.405946732	0.869822502	0.800991058	0.610324471	0.205809862	0.302086532	-0.537353516	-0.502929688	-0.485107422	891.76	27.87792335	-78.17349757	45.44678773	-84
6253	0	0.440795898	0.02734375	0.035766602	0.999898911	0.011788368	0.006504059	0.004367828	11.01989746	0.68359375	0.894165039	0.589438094	0.325213802	0.218398711	-0.536621094	-0.51171875	-0.498779297	891.72	25.63570893	-77.75195727	49.11606285	-83
6254	0	0.447721481	0.051552773	0.017077446	0.999933243	0.010228157	-0.001330376	0.005198479	11.19303703	1.288819313	0.42693615	0.511419224	-0.066520263	0.259929715	-0.535888672	-0.522949219	-0.517822266	891.84	24.66315153	-78.16492136	51.30243701	-83
6255	0	0.471313477	0.031860352	0.043945313	0.99994278	0.008213997	-0.000835419	0.006671906	11.78283691	0.796508789	1.098632813	0.410707558	-0.04177172	0.333601541	-0.549316406	-0.535644531	-0.527587891	891.76	22.46173775	-78.5822745	54.50505068	-84
6256	0	0.5398283	0.068214417	0.149550438	0.999890327	0.010642052	0.002370834	0.009989738	13.49570751	1.705360413	3.738760948	0.532121979	0.118546038	0.499505129	-0.552978516	-0.551025391	-0.549072266	891.78	17.92257163	-78.74381958	60.37076865	-85
6257	0	0.352355957	0.102111816	0.141113281	0.999850273	0.003246307	-0.008402824	0.01473999	8.808898926	2.55279541	3.527832031	0.162323443	-0.420162119	0.737036172	-0.573486328	-0.563476563	-0.543945313	891.82	10.88162343	-80.11669401	67.90676725	-85
6258	0	0.343753815	0.029616356	0.133308411	0.999951363	-0.003700256	0.00507164	0.007576942	8.593845367	0.740408897	3.332710266	-0.185015803	0.253586093	0.378853236	-0.601318359	-0.569335938	-0.547607422	891.82	5.24452597	-79.67668431	73.2006695	-93
6259	0	0.434020996	0.023681641	0.114440918	0.999990463	0.000691414	0.003875732	0.001514435	10.8505249	0.592041016	2.861022949	0.034570796	0.193787196	0.075721965	-0.60546875	-0.580078125	-0.558105469	891.76	4.262556421	-79.26083214	74.27814627	-85
6260	0	0.369358063	0.054076195	0.104779243	0.999990463	-0.000993729	-0.002858162	-0.002950668	9.233951569	1.351904869	2.619481087	-0.04968658	-0.142908522	-0.147533856	-0.611572266	-0.599609375	-0.564697266	891.76	6.189645918	-79.56602352	72.20010424	-83
6261	0	0.313293457	0.076538086	0.067871094	0.999946594	-0.004561424	-0.003696442	-0.00850296	7.832336426	1.913452148	1.696777344	-0.228075272	-0.184825372	-0.425155576	-0.620117188	-0.619140625	-0.559814453	891.78	11.43196916	-79.84295652	66.34095961	-83
6262	0	0.324901581	0.028956413	0.053135872	0.999943733	-0.005273819	0.001089096	-0.008963585	8.12253952	0.723910332	1.328396797	-0.263695754	0.054455796	-0.448187413	-0.619384766	-0.641113281	-0.555175781	891.78	16.24515856	-79.48068647	60.83556931	-78
6263	0	0.34777832	0.011901855	0.0546875	0.999967575	-0.004897118	0.005054474	-0.003730774	8.694458008	0.297546387	1.3671875	-0.24485847	0.252726366	-0.186540669	-0.616455078	-0.656494141	-0.556884766	891.82	17.0597794	-78.80718426	59.43647688	-83
6264	0	0.324652672	0.035108566	0.042315483	0.999987602	-0.004502296	0.000461578	-0.001867294	8.116316795	0.877714157	1.057887077	-0.225115722	0.023079011	-0.093365089	-0.618408203	-0.663085938	-0.562011719	891.88	17.59835064	-78.69690846	58.36248709	-79
6265	0	0.330444336	0.032165527	0.019165039	0.999961853	-0.007201195	-0.003231049	-0.003494263	8.261108398	0.804138184	0.479125977	-0.360064209	-0.161554435	-0.174715304	-0.625	-0.669433594	-0.563964844	891.78	19.40056864	-78.92595758	55.68549096	-76
6266	0	0.369020462	0.046886444	0.020611763	0.999941826	-0.010005951	-0.002313614	-0.003059387	9.225511551	1.172161102	0.515294075	-0.500307122	-0.115682909	-0.152972288	-0.638916016	-0.673339844	-0.560058594	891.78	20.53934069	-79.06098692	53.36007096	-76
6267	0	0.422058105	0.068603516	0.043762207	0.999919891	-0.011752129	0.001621246	-0.004238129	10.55145264	1.715087891	1.094055176	-0.587621974	0.081064461	-0.211912039	-0.646240234	-0.666503906	-0.571533203	891.74	21.30241106	-78.7191595	51.21265913	-80
6268	0	0.450801849	0.048164368	0.031183243	0.999979019	-0.002971649	-0.000716209	-0.00562191	11.27004623	1.204109192	0.77958107	-0.148583473	-0.035810715	-0.281097423	-0.650634766	-0.666503906	-0.585693359	891.72	24.21863443	-78.55131466	47.89161891	-81
6269	0	0.47265625	0.025817871	0.070739746	0.99997139	-0.005026817	-0.002311707	-0.005008698	11.81640625	0.645446777	1.768493652	-0.251343199	-0.1155864	-0.2504372	-0.655029297	-0.677246094	-0.572998047	891.82	26.90304183	-78.54749416	44.56834983	-80
6270	0	0.541413307	0.032980919	0.165534973	0.999902725	-0.006203651	-0.00508976	-0.011330605	13.53533268	0.824522972	4.138374329	-0.310192538	-0.254496168	-0.566548431	-0.656982422	-0.683837891	-0.586669922	891.76	33.2656109	-78.40050961	37.35025434	-76
6271	0	0.347839355	-0.01385498	0.119445801	0.999781609	0.000652313	-0.013754845	-0.015693665	8.695983887	-0.346374512	2.98614502	0.032618032	-0.687792209	-0.784740248	-0.658691406	-0.701171875	-0.570800781	891.78	45.1485353	-78.47994792	25.29925756	-72
6272	0	0.357952118	0.045060158	0.123613358	0.999846458	-0.002877235	0.009744644	-0.014216423	8.948802948	1.126503944	3.090333939	-0.143869093	0.487257007	-0.710857331	-0.653076172	-0.727783203	-0.557617188	891.78	46.40866453	-76.5230408	23.6737367	-72
6273	0	0.444702148	0.099243164	0.113769531	0.999875069	-0.008289337	0.005166054	-0.012390137	11.11755371	2.481079102	2.844238281	-0.414484054	0.258313406	-0.61953254	-0.626220703	-0.744140625	-0.577636719	891.74	47.63163188	-75.06736698	21.43393955	-72
6274	0	0.33571434	0.054491997	0.090324402	0.999975204	-0.006262779	-0.002367973	-0.00213623	8.392858505	1.362299919	2.258110046	-0.31314154	-0.118399641	-0.106812403	-0.614013672	-0.753417969	-0.586181641	891.72	48.33216683	-75.05312432	19.96683161	-72
6275	0	0.321044922	-0.042663574	0.055297852	0.999968529	-0.002433777	-0.002196312	0.007156372	8.026123047	-1.066589355	1.382446289	-0.121690099	-0.109816732	0.357822299	-0.623535156	-0.750732422	-0.5859375	891.72	46.66985963	-75.81788988	21.39586043	-71
6276	0	0.320453644	-0.018411636	0.055703163	0.999936104	0.007552147	-0.000995636	0.008319855	8.011341095	-0.460290909	1.392579079	0.377615354	-0.049782855	0.41600156	-0.640380859	-0.743652344	-0.582763672	891.72	45.19536365	-76.57548221	23.80340698	-72
6277	0	0.333129883	0.062866211	0.039123535	0.999931335	0.008004189	0.002620697	0.008060455	8.32824707	1.571655273	0.978088379	0.400218493	0.131037819	0.403031896	-0.659179688	-0.745117188	-0.572998047	891.66	42.41912031	-76.99197125	27.59582788	-75
6278	0	0.340174675	0.058372498	0.008432388	0.999932289	0.006731033	0.003166199	0.008847237	8.504366875	1.459312439	0.210809708	0.336559161	0.158313462	0.442371683	-0.671142578	-0.744628906	-0.569580078	891.88	38.80954206	-77.3724588	32.08738053	-78
6279	0	0.330871582	0.014099121	0.001342773	0.999930382	0.009429932	0.002346992	0.006645203	8.271789551	0.352478027	0.033569336	0.471507474	0.117352335	0.332267807	-0.685302734	-0.746337891	-0.560058594	891.82	36.47313188	-77.6239397	35.58610566	-76
6280	0	0.35853672	0.025318146	0.022830009	0.999889374	0.01285553	0.005116463	0.005365372	8.963418007	0.632953644	0.570750237	0.642800085	0.255832526	0.268278433	-0.694335938	-0.756835938	-0.547119141	891.72	34.1774254	-77.50279638	39.4444259	-78
6281	0	0.440979004	0.028076172	0.061889648	0.999930382	0.008766174	0.001923561	0.007595062	11.0244751	0.701904297	1.547241211	0.438318814	0.096180271	0.379761862	-0.703369141	-0.769775391	-0.540039063	891.68	31.33305322	-77.79196707	43.38319394	-78
6282	0	0.444312096	0.027172089	0.031023026	0.999928474	0.000640869	-0.008377075	0.008467674	11.10780239	0.679302216	0.775575638	0.032044217	-0.418863693	0.423393754	-0.722167969	-0.7734375	-0.532958984	891.72	29.74439303	-79.11821966	45.07798649	-79
6283	0	0.501281738	0.002197266	0.102966309	0.999932289	0.007698059	0.002369881	0.00838089	12.53204346	0.054931641	2.574157715	0.384911622	0.118496702	0.419053932	-0.750732422	-0.770019531	-0.511474609	891.78	25.52080062	-79.32971843	50.27426322	-79
6284	0	0.524791718	0.106740952	0.142390251	0.99979496	0.010842323	-0.008216858	0.014965057	13.11979294	2.668523788	3.559756279	0.542153129	-0.410870908	0.748303887	-0.764648438	-0.776123047	-0.504638672	891.76	19.81004398	-80.86508901	57.32885911	-75
6285	0	0.346191406	0.091186523	0.156860352	0.999912262	-0.002627373	0.00125885	0.012886047	8.654785156	2.279663086	3.921508789	-0.131372459	0.062944336	0.644321112	-0.805664063	-0.767822266	-0.46875	891.78	10.32600667	-81.10768511	66.626634	-87
6286	0	0.440438271	0.021938324	0.112765312	0.999958038	-0.002947807	0.006739616	0.005225182	11.01095676	0.548458099	2.819132805	-0.147392366	0.336985392	0.261262624	-0.822509766	-0.752197266	-0.48046875	891.78	5.731552611	-80.4219292	70.93799804	-78
6287	0	0.41973877	0.01348877	0.096557617	0.99998951	0.00328064	-0.002486229	-0.001579285	10.49346924	0.337219238	2.41394043	0.164032514	-0.12431185	-0.078964489	-0.829345703	-0.756103516	-0.477050781	891.84	7.438859286	-80.67885477	69.58614023	-87
6288	0	0.30837059	0.088544846	0.071253777	0.999976158	-0.000107765	-0.003664017	-0.005828857	7.709264755	2.21362114	1.781344414	-0.005388302	-0.183202284	-0.291445174	-0.831542969	-0.767089844	-0.461669922	891.74	12.02317169	-80.97233664	64.92868471	-81
6289	0	0.295776367	0.067504883	0.055114746	0.999930382	-0.007316589	-0.000300407	-0.009189606	7.39440918	1.68762207	1.377868652	-0.365837887	-0.015020716	-0.45949086	-0.831298828	-0.780029297	-0.443359375	891.78	17.65424963	-80.72544673	58.37607885	-77
6290	0	0.313322067	0.039140701	0.050883293	0.999900818	-0.011897087	0.003630638	-0.006505966	7.833051682	0.978517532	1.272082329	-0.594873893	0.181537868	-0.325308994	-0.819091797	-0.787109375	-0.452148438	891.74	19.76721061	-80.08029205	54.85051187	-73
6291	0	0.321655273	0.030822754	0.039978027	0.999882698	-0.014705658	0.003136635	-0.002841949	8.041381836	0.770568848	0.999450684	-0.735311598	0.156837863	-0.14210302	-0.804931641	-0.785400391	-0.461669922	891.82	19.21319435	-79.62124172	53.70150535	-77
6292	0	0.328479767	0.032357216	0.023197174	0.99984169	-0.017299652	-0.001326561	-0.003935814	8.211994171	0.808930397	0.579929352	-0.865028243	-0.066331548	-0.196801078	-0.800292969	-0.772705078	-0.485839844	891.74	19.91615818	-79.60309828	50.97068191	-84
6293	0	0.352722168	0.022888184	0.00793457	0.9998312	-0.017009735	-0.004950523	-0.004814148	8.818054199	0.57220459	0.198364258	-0.850534534	-0.247540074	-0.24072092	-0.798339844	-0.759521484	-0.495605469	891.82	22.03906846	-79.92697934	46.83213816	-81
6294	0	0.437194824	0.034667969	0.029968262	0.999834061	-0.017806053	0.000851631	-0.003631592	10.92987061	0.866699219	0.749206543	-0.890351776	0.042583907	-0.181589608	-0.799072266	-0.7421875	-0.502685547	891.72	22.0371639	-79.67301277	44.76103618	-77
6295	0	0.468566895	0.011108398	0.028137207	0.999972343	-0.005092621	6.96E-05	-0.005363464	11.71417236	0.277709961	0.703430176	-0.254633364	0.003480943	-0.268175663	-0.789794922	-0.727294922	-0.524414063	891.68	24.58974309	-79.41715215	41.57029848	-75
6296	0	0.440542221	-0.003570557	0.059390068	0.999982834	-0.002601624	-0.003014565	-0.004193306	11.01355553	-0.089263916	1.484751701	-0.130081902	-0.150729066	-0.209666467	-0.785400391	-0.727294922	-0.513183594	891.72	27.51203357	-79.51183889	38.29374026	-72
6297	0	0.534179688	0.047363281	0.170776367	0.999921799	-0.006865501	-0.000362396	-0.010406494	13.35449219	1.184082031	4.26940918	-0.343283971	-0.018120282	-0.520338198	-0.783203125	-0.720703125	-0.513916016	891.72	32.3358537	-78.94264838	32.58140028	-69
6298	0	0.379952431	-0.045279503	0.142799377	0.999745369	0.002485275	-0.008756638	-0.020623207	9.498810768	-1.131987572	3.569984436	0.12427429	-0.437868969	-1.031247709	-0.769042969	-0.732177734	-0.499511719	891.72	44.92215193	-78.23501251	20.03104607	-69
6299	0	0.374023438	0.071960449	0.138977051	0.999790192	0.005490303	0.012107849	-0.015552521	9.350585938	1.79901123	3.47442627	0.274534309	0.605434703	-0.777680303	-0.744384766	-0.763671875	-0.486816406	891.72	46.64057691	-75.9737952	18.91169653	-69
6300	0	0.425598145	0.159729004	0.122680664	0.999967575	-0.003192902	0.003022194	-0.006645203	10.63995361	3.993225098	3.067016602	-0.15964677	0.151111294	-0.332263648	-0.715332031	-0.782226563	-0.495361328	891.84	47.31535346	-75.16003997	17.8346838	-69
6301	0	0.333385468	0.053003311	0.093691826	0.999969482	-0.005759239	-0.003000259	0.003790855	8.334636688	1.325082779	2.342295647	-0.287964674	-0.150014384	0.189544557	-0.7109375	-0.775634766	-0.493164063	891.82	46.47804414	-75.6909671	18.01502865	-69
6302	0	0.322175026	-0.076465607	0.067108154	0.999946594	-8.87E-05	-0.00543499	0.008735657	8.054375648	-1.911640167	1.677703857	-0.004434664	-0.271754291	0.436790543	-0.723388672	-0.7578125	-0.494140625	891.72	45.43097213	-76.82716978	19.07786683	-69
6303	0	0.334716797	-0.041320801	0.054504395	0.999921799	0.009072304	-0.002616882	0.008182526	8.367919922	-1.03302002	1.362609863	0.453626992	-0.130847521	0.409136927	-0.743164063	-0.741699219	-0.477050781	891.72	44.43511848	-77.68885275	21.1597169	-69
6304	0	0.318890572	0.04831028	0.03537941	0.999889374	0.01203537	0.002467155	0.008278847	7.97226429	1.207756996	0.884485245	0.601790508	0.123362286	0.41395748	-0.760498047	-0.732177734	-0.45703125	891.78	41.64556029	-78.11710936	25.41872466	-66
6305	0	0.32220459	0.036376953	0.004150391	0.99985218	0.014846802	0.00275898	0.008171082	8.055114746	0.909423828	0.103759766	0.742376567	0.137955769	0.408574154	-0.770507813	-0.718505859	-0.448974609	891.8	38.88864215	-78.46999738	29.96713679	-67
6306	0	0.332860947	0.009670258	-0.002257347	0.999797821	0.018710136	0.003949165	0.006144524	8.321523666	0.241756439	-0.056433678	0.935569733	0.197471546	0.307246842	-0.780517578	-0.711425781	-0.428955078	891.68	36.9154922	-78.5369049	34.16455657	-66
6307	0	0.373413086	0.057739258	0.015808105	0.999778748	0.019501686	0.005962372	0.005142212	9.335327148	1.443481445	0.395202637	0.9751562	0.298140572	0.257129553	-0.788085938	-0.708740234	-0.408691406	891.94	34.85499739	-78.32099682	38.5454139	-65
6308	0	0.429149628	0.067543983	0.054377556	0.999897957	0.012099266	0.00088501	0.007498741	10.72874069	1.688599586	1.359438896	0.604983813	0.044251989	0.374949769	-0.79296875	-0.708740234	-0.399902344	891.74	32.4457471	-78.70534377	42.41522555	-63
6309	0	0.418701172	0.053222656	0.003295898	0.999932289	0.00125885	-0.008429527	0.007820129	10.4675293	1.330566406	0.082397461	0.062943909	-0.421485763	0.391015189	-0.807861328	-0.692626953	-0.388916016	891.78	31.26916823	-79.99380774	43.75608944	-62
6310	0	0.519713402	0.011134148	0.101078033	0.999883652	0.011277199	0.006623268	0.007843971	12.99283504	0.278353691	2.526950836	0.563881798	0.331176244	0.392213767	-0.822509766	-0.681152344	-0.386230469	891.66	26.10838846	-79.75389379	50.30786712	-62
6311	0	0.526977539	0.130004883	0.154724121	0.999694824	0.010354042	-0.008724213	0.020626068	13.17443848	3.25012207	3.868103027	0.517754642	-0.436254902	1.031408069	-0.83203125	-0.674316406	-0.389160156	891.78	16.10428236	-81.53638981	61.64326312	-62
6312	0	0.348570824	0.066338539	0.165883064	0.999849319	-0.004106522	-0.000731468	0.016817093	8.714270592	1.658463478	4.147076607	-0.205336355	-0.03657524	0.840896723	-0.866455078	-0.646728516	-0.369628906	891.74	2.678514284	-81.92101957	74.73138717	-62
6313	0	0.472412109	-0.018127441	0.090087891	0.999970436	-0.00201416	0.006272316	0.003940582	11.81030273	-0.453186035	2.252197266	-0.100708997	0.313618879	0.197031049	-0.880859375	-0.62890625	-0.393066406	891.72	-0.61810601	-81.19570058	77.82800678	-63
6314	0	0.399686813	0.042043686	0.100836754	0.999978065	0.005115509	-0.002716064	-0.002919197	9.992170334	1.051092148	2.520918846	0.255777245	-0.135804175	-0.145960877	-0.880371094	-0.635498047	-0.401123047	891.74	2.271433044	-81.48587098	75.49476182	-63
6315	0	0.28894043	0.095092773	0.067382813	0.999961853	-0.000315666	-0.005542755	-0.006679535	7.223510742	2.377319336	1.684570313	-0.015783508	-0.277141241	-0.333980945	-0.877197266	-0.657470703	-0.396728516	891.82	7.999640996	-82.03215457	69.66793403	-65
6316	0	0.271847725	0.045590401	0.05109024	0.999923706	-0.007818222	-0.000378609	-0.00951767	6.796193123	1.139760017	1.277256012	-0.390920997	-0.018930914	-0.475895529	-0.876464844	-0.679443359	-0.389160156	891.68	14.81995938	-81.83757352	61.87369516	-66
6317	0	0.315124512	0.020996094	0.039306641	0.999929428	-0.0088377	0.004478455	-0.00655365	7.878112793	0.524902344	0.982666016	-0.441895388	0.223927996	-0.327690202	-0.861083984	-0.704101563	-0.405273438	891.72	17.74517281	-81.11221378	57.89059503	-68
6318	0	0.347043037	0.055274963	0.040066719	0.999917984	-0.011637688	0.004359245	-0.002792358	8.676075935	1.381874084	1.001667976	-0.581900119	0.217968159	-0.139621695	-0.853027344	-0.715576172	-0.427490234	891.78	17.45268074	-80.51744675	56.83477276	-72
6319	0	0.336730957	0.06072998	0.015441895	0.999790192	-0.019598961	-0.002529144	-0.005233765	8.418273926	1.518249512	0.386047363	-0.980016311	-0.126466024	-0.261706463	-0.84765625	-0.720214844	-0.453125	891.72	19.27406169	-80.58283212	52.71025058	-78
6320	0	0.358037949	0.023608208	-0.002610207	0.999773026	-0.020114899	-0.005391121	-0.004390717	8.950948715	0.590205193	-0.065255165	-1.005820875	-0.269576399	-0.219552404	-0.847412109	-0.718261719	-0.479003906	891.82	21.29511618	-80.96956298	48.32585479	-75
6321	0	0.459350586	0.013793945	0.020812988	0.999835968	-0.017767906	0.001026154	-0.003147125	11.48376465	0.344848633	0.520324707	-0.888443683	0.051310472	-0.15736483	-0.844726563	-0.716552734	-0.505126953	891.72	21.17708077	-80.7128635	46.38164663	-72
6322	0	0.474078178	-0.004611969	0.009734154	0.999982834	-0.002554893	-0.000287056	-0.005117416	11.85195446	-0.115299225	0.243353844	-0.127745373	-0.014352877	-0.255872218	-0.836914063	-0.719238281	-0.536865234	891.68	24.3195743	-80.50311079	42.89689625	-69
6323	0	0.471801758	0.020263672	0.126220703	0.999976158	-0.00378418	0.001385689	-0.005439758	11.79504395	0.506591797	3.155517578	-0.18921043	0.069284968	-0.271989993	-0.831054688	-0.741210938	-0.546630859	891.74	26.84068839	-80.07449327	39.89710318	-69
6324	0	0.514838219	0.042827606	0.147241592	0.999864578	-0.005186081	-0.007689476	-0.013526917	12.87095547	1.070690155	3.68103981	-0.259315674	-0.38449104	-0.676376152	-0.818359375	-0.759521484	-0.565917969	891.68	36.44722328	-79.99098052	29.53711879	-70
6325	0	0.336853027	-0.031982422	0.127258301	0.999804497	0.000179291	-0.002139091	-0.019630432	8.421325684	-0.799560547	3.18145752	0.008965121	-0.106961527	-0.98158541	-0.804931641	-0.799316406	-0.569091797	891.78	46.29342466	-78.66136615	19.53586006	-69
6326	0	0.398424149	0.06479454	0.119119644	0.999795914	0.001568794	0.014145851	-0.01432991	9.960603714	1.61986351	2.977991104	0.078445046	0.707340651	-0.716544234	-0.764892578	-0.849121094	-0.587158203	891.88	46.2844984	-76.33024184	19.72534739	-69
6327	0	0.392578125	0.11730957	0.107849121	0.999987602	-0.000106812	0.000287056	-0.004806519	9.814453125	2.932739258	2.696228027	-0.005340597	0.014352854	-0.240326857	-0.727539063	-0.885742188	-0.620605469	891.72	47.67427653	-75.87837219	18.2756079	-81
6328	0	0.329565048	0.012981415	0.062812805	0.999982834	-3.81E-05	-0.002696037	0.004839897	8.239126205	0.32453537	1.570320129	-0.001907358	-0.134802554	0.241996096	-0.723876953	-0.91015625	-0.630126953	891.72	47.03872441	-76.4708862	18.92051472	-76
6329	0	0.327148438	-0.067443848	0.062255859	0.999933243	0.006604195	-0.002147675	0.009151459	8.178710938	-1.686096191	1.556396484	0.330216996	-0.10738609	0.457583002	-0.739746094	-0.924804688	-0.633789063	891.74	45.38906191	-77.37806357	21.38497931	-81
6330	0	0.340901375	-0.002633095	0.045835495	0.999865532	0.014051437	0.000326157	0.008353233	8.52253437	-0.06582737	1.145887375	0.702603175	0.016308557	0.417680278	-0.757568359	-0.950439453	-0.622070313	891.78	43.6991745	-78.00465514	24.75698432	-81
6331	0	0.335205078	0.065795898	0.013427734	0.9998312	0.015232086	0.003865242	0.009513855	8.380126953	1.644897461	0.335693359	0.761647152	0.193272972	0.475719508	-0.772705078	-0.985107422	-0.612792969	891.8	40.10654711	-78.38524342	30.20569425	-84
6332	0	0.319390297	0.027598381	-0.001886368	0.999782562	0.018032074	0.002663612	0.010034561	7.984757423	0.689959526	-0.047159195	0.901668769	0.13319023	0.501764268	-0.785400391	-1.023925781	-0.600341797	891.78	36.72871116	-78.84478581	35.75479365	-77
6333	0	0.326904297	0.023376465	-0.002685547	0.999765396	0.020089149	0.004653931	0.006584167	8.172607422	0.584411621	-0.067138672	1.004535936	0.23271471	0.32923409	-0.807128906	-1.073486328	-0.574951172	891.68	34.33126389	-78.83511766	40.54168257	-73
6334	0	0.399851799	0.042340279	0.029768944	0.999807358	0.018145561	0.006140709	0.004277229	9.996294975	1.058506966	0.744223595	0.907336328	0.307055165	0.2138752	-0.814453125	-1.138916016	-0.540771484	891.74	32.42915716	-78.50414534	44.60058379	-73
6335	0	0.454345703	0.085449219	0.033203125	0.999940872	0.008664131	-0.000919342	0.006362915	11.35864258	2.136230469	0.830078125	0.433214963	-0.045967994	0.318151924	-0.826416016	-1.204101563	-0.506103516	891.78	30.58917089	-78.9632077	47.48905335	-73
6336	0	0.43389225	0.065888405	0.019805908	0.99997139	0.000692368	-0.004073143	0.006275177	10.84730625	1.647210121	0.495147705	0.034618703	-0.203659066	0.313761802	-0.850585938	-1.255615234	-0.468994141	891.74	28.59929769	-79.71420756	49.59643882	-75
6337	0	0.577880859	0.059997559	0.164367676	0.999875069	0.009712219	0.007836342	0.009689331	14.44702148	1.499938965	4.109191895	0.485631167	0.391833396	0.48448671	-0.875244141	-1.298339844	-0.432617188	891.78	22.21377667	-79.36545304	57.22319349	-82
6338	0	0.399719238	0.096302032	0.174583435	0.999769211	0.001626015	-0.010136604	0.018830299	9.992980957	2.407550812	4.364585876	0.081306969	-0.506869078	0.941587163	-0.926513672	-1.331298828	-0.372802734	891.74	12.47932894	-81.10597329	67.291441	-81
6339	0	0.38458252	0.046875	0.137207031	0.999895096	-0.00714016	0.006946564	0.010444641	9.614562988	1.171875	3.430175781	-0.357020377	0.347340247	0.52225019	-0.990966797	-1.32421875	-0.321289063	891.72	3.735316282	-80.46451881	75.32868031	-85
6340	0	0.457780838	0.011413574	0.102128983	0.999997139	0.000130653	0.00164032	0.001214027	11.44452095	0.285339355	2.553224564	0.006532674	0.082016048	0.060701413	-1.021728516	-1.325439453	-0.308105469	891.68	2.951657489	-80.26452878	76.14389843	-80
6341	0	0.336853027	0.046142578	0.099121094	0.999982834	-0.000132561	-0.005104065	-0.002616882	8.421325684	1.153564453	2.478027344	-0.006628073	-0.255204647	-0.130844834	-1.038818359	-1.333251953	-0.2578125	891.74	5.072306401	-80.80460149	73.98448032	-75
6342	0	0.265592575	0.085417747	0.062924385	0.999941826	-0.007043839	-0.001800537	-0.007903099	6.639814377	2.135443687	1.573109627	-0.352198694	-0.090028586	-0.395162548	-1.046142578	-1.343505859	-0.2109375	891.68	10.11443805	-80.86485537	68.06820784	-73
6343	0	0.296813965	0.038635254	0.046081543	0.999885559	-0.010844231	0.002616882	-0.010192871	7.420349121	0.965881348	1.152038574	-0.542232169	0.130849096	-0.509662952	-1.029785156	-1.350585938	-0.199707031	891.68	15.44147171	-80.28687872	61.41633256	-72
6344	0	0.356675148	0.013989449	0.032006264	0.99992466	-0.009860039	0.004140854	-0.005899429	8.9168787	0.349736214	0.800156593	-0.493014196	0.207047842	-0.2949788	-1.008544922	-1.351318359	-0.200927734	891.74	17.30237799	-79.61525487	58.38431007	-71
6345	0	0.353637695	0.033752441	0.016235352	0.999931335	-0.011187553	0.000167847	-0.003479004	8.840942383	0.843811035	0.405883789	-0.559390471	0.008392526	-0.173954176	-0.997070313	-1.340820313	-0.202392578	891.68	18.12788481	-79.45196533	56.24507563	-69
6346	0	0.326743126	0.032997131	-0.000581741	0.999896049	-0.012933731	-0.004644394	-0.004293442	8.168578148	0.824928284	-0.014543533	-0.646708897	-0.232227719	-0.214679506	-0.988525391	-1.325683594	-0.201171875	891.72	20.22205964	-79.77195764	52.61235157	-69
6347	0	0.379089355	0.050476074	0.01550293	0.999891281	-0.014285088	-0.00245285	-0.002437592	9.477233887	1.261901855	0.387573242	-0.714280098	-0.122646933	-0.121883966	-0.977539063	-1.306396484	-0.200439453	891.72	20.69076609	-79.91802393	50.47662555	-70
6348	0	0.471387863	0.055872917	0.044983864	0.999928474	-0.011546135	0.00107193	-0.002612114	11.78469658	1.396822929	1.124596596	-0.577320342	0.053597759	-0.130608773	-0.966796875	-1.278320313	-0.209228516	891.74	20.78440922	-79.67850577	49.03970248	-72
6349	0	0.472167969	-0.028137207	0.054077148	0.999976158	-0.002185822	-0.000517845	-0.006526947	11.80419922	-0.703430176	1.351928711	-0.109291945	-0.025892463	-0.326349943	-0.94921875	-1.254638672	-0.206298828	891.82	24.48523801	-79.428526	45.02215408	-73
6350	0	0.552680969	-0.026810646	0.158780098	0.999936104	0.000402451	0.000347137	-0.011258125	13.81702423	-0.670266151	3.969502449	0.020122954	0.01735724	-0.562918183	-0.924072266	-1.238037109	-0.200439453	891.74	30.43090521	-78.77839073	39.01317532	-75
6351	0	0.386413574	0.007141113	0.118041992	0.999715805	0.008019447	-0.014671326	-0.016956329	9.660339355	0.178527832	2.951049805	0.401010273	-0.733635633	-0.847896617	-0.894287109	-1.236572266	-0.165039063	891.84	44.40067015	-78.91275909	25.70975321	-88
6352	0	0.334055901	0.073906898	0.122560501	0.999839783	0.002782822	0.008620262	-0.015437126	8.351397514	1.847672462	3.064012527	0.139148513	0.431036124	-0.771897526	-0.852539063	-1.239746094	-0.126953125	891.8	47.16498663	-76.93059685	23.20895519	-81
6353	0	0.424255371	0.120666504	0.116821289	0.99985981	-0.003669739	0.008927345	-0.013652802	10.60638428	3.016662598	2.920532227	-0.183495489	0.446388064	-0.682671887	-0.807617188	-1.239257813	-0.146728516	891.74	47.9375217	-75.05759196	21.97676472	-78
6354	0	0.354125977	0.088989258	0.092468262	0.999987602	-0.004459381	-0.001216888	-0.001556396	8.853149414	2.224731445	2.311706543	-0.222969939	-0.060844663	-0.077820133	-0.779785156	-1.231445313	-0.157470703	891.72	48.24367933	-74.98889002	21.126473	-71
6355	0	0.317710876	-0.056867599	0.069440842	0.999946594	-0.003628731	-0.00554657	0.00775528	7.942771912	-1.421689987	1.736021042	-0.181439686	-0.277333302	0.387770704	-0.780761719	-1.200927734	-0.168457031	891.68	47.30341866	-76.04953288	21.66133981	-72
6356	0	0.320780754	-0.054058075	0.061401367	0.99994278	0.005777359	-0.004061699	0.007946014	8.019518852	-1.351451874	1.53503418	0.288873392	-0.203088771	0.397308204	-0.798828125	-1.165039063	-0.158935547	891.78	46.74365163	-77.01250269	22.91005184	-71
6357	0	0.324707031	0.047180176	0.045288086	0.999928474	0.009372711	0.000977516	0.00725174	8.117675781	1.179504395	1.132202148	0.468646603	0.048876961	0.36259552	-0.809814453	-1.138183594	-0.137695313	891.74	44.84881872	-77.50995045	25.94748768	-70
6358	0	0.34918499	0.061141968	0.001806259	0.999909401	0.009456635	0.004131317	0.008565903	8.729624748	1.528549194	0.045156479	0.472845902	0.20657205	0.428307976	-0.818359375	-1.109375	-0.119628906	891.78	41.1375372	-77.81418622	30.85070681	-70
6359	0	0.33581543	0.009216309	-0.005065918	0.999903679	0.011119843	0.001729012	0.00812149	8.395385742	0.230407715	-0.126647949	0.556009975	0.086453352	0.40608756	-0.831298828	-1.082519531	-0.112548828	891.78	38.41333493	-78.24163444	34.93242846	-69
6360	0	0.337105751	0.000802994	0.013967514	0.999866486	0.01543045	0.002137184	0.004753113	8.427643776	0.020074844	0.349187851	0.771556635	0.106863932	0.237666148	-0.835205078	-1.058105469	-0.094238281	891.72	37.35279932	-78.3695187	37.81553134	-69
6361	0	0.432678223	0.030700684	0.047058105	0.99990654	0.012558937	0.002792358	0.004558563	10.81695557	0.76751709	1.176452637	0.627966354	0.139622256	0.22793524	-0.836181641	-1.040283203	-0.070068359	891.72	35.79808026	-78.41185831	40.86729983	-66
6362	0	0.433385849	0.066557884	0.017853737	0.999934196	-0.000705719	-0.00904274	0.006939888	10.83464622	1.663947105	0.446343422	-0.035286717	-0.452146823	0.347001944	-0.837402344	-1.020507813	-0.057128906	891.72	35.48716833	-79.70705366	41.09764425	-66
6363	0	0.494628906	0.029052734	0.099182129	0.999965668	0.002343178	0.003128052	0.007213593	12.36572266	0.726318359	2.479553223	0.117160204	0.156404343	0.360683673	-0.842773438	-1.000488281	-0.061523438	891.68	30.81214699	-79.8481886	46.11662187	-68
6364	0	0.537840843	0.120958328	0.142243385	0.999775887	0.005171776	-0.011163712	0.017210007	13.44602108	3.023958206	3.556084633	0.258608084	-0.558227223	0.860564536	-0.857910156	-0.975830078	-0.065429688	891.78	24.19545193	-81.88234907	53.41151203	-70
6365	0	0.373291016	0.053222656	0.165161133	0.999869347	-0.006111145	-7.53E-05	0.014961243	9.332275391	1.330566406	4.12902832	-0.305570554	-0.003767178	0.748094702	-0.895019531	-0.937255859	-0.043701172	891.78	11.69458002	-82.40045572	65.32110152	-70
6366	0	0.478300095	0.006977081	0.101303101	0.99996376	-0.00391674	0.006455421	0.003873825	11.95750237	0.174427032	2.532577515	-0.195839372	0.322774947	0.193693579	-0.916748047	-0.910400391	-0.076171875	891.74	7.267972028	-81.7215521	69.33393038	-68
6367	0	0.41003418	0.035217285	0.091491699	0.999985695	0.001487732	-0.004675865	-0.001842499	10.25085449	0.880432129	2.28729248	0.074386937	-0.233794329	-0.092125361	-0.926269531	-0.899169922	-0.091064453	891.86	9.518928551	-82.19758448	67.22761801	-70
6368	0	0.306808472	0.076322556	0.05928421	0.999969482	-0.00295639	-0.004618645	-0.00549984	7.670211792	1.908063889	1.482105255	-0.147821005	-0.230934557	-0.274994754	-0.926513672	-0.899169922	-0.088134766	891.78	14.68118054	-82.55846634	61.67417845	-71
6369	0	0.276794434	0.043334961	0.043457031	0.999939919	-0.007312775	0.001057625	-0.00806427	6.91986084	1.083374023	1.086425781	-0.365646023	0.052882295	-0.403221541	-0.926269531	-0.903564453	-0.093505859	891.68	20.19641503	-82.13911205	55.26200592	-70
6370	0	0.312586784	0.029762268	0.038233757	0.999928474	-0.008317947	0.006004333	-0.006073952	7.814669609	0.744056702	0.955843925	-0.415907222	0.300223787	-0.303704781	-0.913574219	-0.910888672	-0.122070313	891.74	22.03305938	-81.21996212	52.4399455	-71
6371	0	0.333129883	0.048400879	0.036499023	0.999922752	-0.011314392	0.004437447	-0.002254486	8.32824707	1.210021973	0.912475586	-0.565734011	0.22187798	-0.112727175	-0.908203125	-0.913574219	-0.156494141	891.78	21.11751887	-80.62620484	52.05118811	-73
6372	0	0.331336975	0.054592133	0.018384933	0.999834061	-0.017843246	-0.001881599	-0.003068924	8.283424377	1.364803314	0.459623337	-0.892211599	-0.094085168	-0.153454673	-0.905517578	-0.905029297	-0.188964844	891.68	21.59716322	-80.67439977	49.49009828	-73
6373	0	0.351257324	0.015319824	-0.006286621	0.999762535	-0.020378113	-0.006808281	-0.00352478	8.781433105	0.382995605	-0.157165527	-1.018986158	-0.340440948	-0.176252941	-0.903076172	-0.896484375	-0.218261719	891.74	23.54188397	-81.21869833	45.15333655	-85
6374	0	0.436662674	0.014345169	0.014364243	0.999830246	-0.018065453	0.001006126	-0.003340721	10.91656685	0.358629227	0.359106064	-0.903323601	0.050309159	-0.167045482	-0.902832031	-0.890136719	-0.247314453	891.84	23.47265873	-80.94131371	43.12572354	-83
6375	0	0.480163574	0.011291504	0.015563965	0.999977112	-0.003497124	0.001773834	-0.005409241	12.00408936	0.282287598	0.389099121	-0.174857487	0.088692371	-0.270464048	-0.895507813	-0.882080078	-0.285644531	891.78	26.04605027	-80.48099484	40.10817338	-81
6376	0	0.462331772	0.008105278	0.05465889	0.999987602	-0.000601768	-0.000185013	-0.004793167	11.5582943	0.20263195	1.366472244	-0.030088542	-0.009250677	-0.239659289	-0.890625	-0.886474609	-0.285644531	891.68	28.94321216	-80.23119103	37.09653303	-81
6377	0	0.518615723	0.045288086	0.142272949	0.999923706	-0.006079674	-0.002906799	-0.01026535	12.96539307	1.132202148	3.55682373	-0.303991328	-0.145343619	-0.513280417	-0.883300781	-0.889160156	-0.300048828	891.86	34.96914687	-79.87242873	30.26788197	-78
6378	0	0.379500389	-0.005031586	0.114028931	0.99977684	-0.000189781	-0.008656502	-0.019267082	9.487509727	-0.125789642	2.850723267	-0.009489765	-0.432857282	-0.963425765	-0.87109375	-0.900390625	-0.294189453	891.8	47.45583768	-79.14033069	17.54380048	-74
6379	0	0.350463867	0.028686523	0.129699707	0.999787331	0.001190186	0.012459755	-0.016345978	8.76159668	0.717163086	3.242492676	0.059513482	0.623031765	-0.817356636	-0.839355469	-0.927734375	-0.293457031	891.86	48.46019684	-76.77220576	16.65242069	-72
6380	0	0.425616264	0.104408264	0.109507561	0.999945641	-0.001250267	0.006219864	-0.008181572	10.64040661	2.610206604	2.737689018	-0.062514468	0.310998751	-0.409085906	-0.805419922	-0.946533203	-0.311035156	891.86	48.62927677	-75.57476813	16.32544211	-75
6381	0	0.339660645	0.050598145	0.090332031	0.999992371	-0.002066612	-0.002628326	0.001998901	8.491516113	1.264953613	2.258300781	-0.103330874	-0.131416653	0.099945321	-0.798339844	-0.942626953	-0.323242188	891.8	48.64220934	-75.92265396	16.06093409	-69
6382	0	0.319890976	-0.041473389	0.066082001	0.999970436	0.000665665	-0.00336647	0.006868362	7.997274399	-1.036834717	1.652050018	0.033283561	-0.168325171	0.343421496	-0.80859375	-0.926757813	-0.318115234	891.8	47.6806222	-76.74689026	17.12176845	-75
6383	0	0.330810547	-0.007629395	0.058288574	0.999962807	0.006462097	-0.000575066	0.00553894	8.270263672	-0.190734863	1.457214355	0.323108777	-0.028753629	0.27695038	-0.821044922	-0.910888672	-0.307373047	891.84	46.69189514	-77.23985779	18.8890377	-74
6384	0	0.359014511	0.061403275	0.033071518	0.999932289	0.00795269	0.003696442	0.007593155	8.975362778	1.535081863	0.826787949	0.397643425	0.184826228	0.379666261	-0.8359375	-0.899414063	-0.298828125	891.78	43.45162021	-77.53952227	23.13662431	-76
6385	0	0.343139648	0.046142578	0.015441895	0.999878883	0.010612488	0.001797676	0.011161804	8.578491211	1.153564453	0.386047363	0.530645656	0.089887407	0.558112577	-0.850830078	-0.883544922	-0.28515625	891.78	39.51675756	-78.21649182	28.39889203	-72
6386	0	0.316069603	0.007534981	0.009202957	0.999869347	0.013690948	-0.001987457	0.008340836	7.901740074	0.188374519	0.230073929	0.684577201	-0.099377186	0.417059919	-0.866210938	-0.863037109	-0.263183594	891.8	38.04909515	-78.97832098	31.49049158	-75
6387	0	0.355285645	0.040893555	0.016662598	0.999867439	0.015407562	0.000386238	0.005119324	8.882141113	1.022338867	0.416564941	0.770411981	0.019312754	0.25597744	-0.87890625	-0.8515625	-0.231933594	891.84	37.21201028	-79.28793951	34.13585407	-70
6388	0	0.439084053	0.047898293	0.027920723	0.999925613	0.010910034	-0.00014782	0.005175591	10.97710133	1.197457314	0.698018074	0.545514969	-0.007391156	0.258785816	-0.882080078	-0.842285156	-0.209472656	891.8	35.92137486	-79.64260406	36.71590214	-68
6389	0	0.41595459	0.024719238	0.00189209	0.999947548	0.003116608	-0.006785393	0.006969452	10.39886475	0.617980957	0.047302246	0.155833093	-0.339275538	0.348478655	-0.894775391	-0.826416016	-0.195800781	891.74	35.10441566	-80.72996019	37.90307064	-70
6390	0	0.507422447	0.035776138	0.112146378	0.999856949	0.012698174	0.007136345	0.008582115	12.68556118	0.894403458	2.803659439	0.634938925	0.356834245	0.429126203	-0.903076172	-0.802001953	-0.183105469	891.78	28.8338398	-80.54489067	45.72860148	-72
6391	0	0.50213623	0.115356445	0.147644043	0.999727249	0.007370949	-0.0119133	0.018669128	12.55340576	2.883911133	3.691101074	0.368580912	-0.595719077	0.933541199	-0.916503906	-0.770751953	-0.16796875	891.74	20.31902211	-82.66616789	55.18259854	-70
6392	0	0.345668793	0.070596695	0.141290665	0.999873161	-0.003100395	-0.00071907	0.015563011	8.641719818	1.764917374	3.532266617	-0.15502628	-0.035955034	0.778183288	-0.947265625	-0.716796875	-0.147705078	891.78	6.171533564	-83.13585312	69.07790656	-68
6393	0	0.449768066	-0.004943848	0.100524902	0.999952316	-1.05E-05	0.00762558	0.006095886	11.24420166	-0.123596191	2.513122559	-0.000524529	0.381285049	0.304799153	-0.962402344	-0.679199219	-0.169921875	891.74	0.382241465	-82.27878783	74.90966836	-69
6394	0	0.428976059	0.017465591	0.093953133	0.999979973	0.005672455	-0.002508163	0.000462532	10.72440147	0.436639786	2.348828316	0.28362457	-0.125408981	0.023126751	-0.960693359	-0.659667969	-0.186035156	891.74	0.723813833	-82.54220617	75.21523097	-70
6395	0	0.319580078	0.078796387	0.066894531	0.999976158	0.003780365	-0.004290581	-0.003688812	7.989501953	1.969909668	1.672363281	0.189019708	-0.214530693	-0.184442036	-0.961181641	-0.650878906	-0.178222656	891.8	4.766791485	-82.98746352	71.57246065	-70
6396	0	0.293833733	0.064723015	0.054309845	0.999965668	-0.002588272	0.001841545	-0.007633209	7.345843315	1.618075371	1.357746124	-0.129415079	0.092078304	-0.38166481	-0.94921875	-0.653564453	-0.178466797	891.78	11.20966252	-82.62856985	64.77734556	-68
6397	0	0.33770752	0.045288086	0.053771973	0.999944687	-0.006209373	0.00510025	-0.006729126	8.442687988	1.132202148	1.344299316	-0.310474358	0.255017181	-0.336462459	-0.934570313	-0.660644531	-0.201660156	891.66	15.12086364	-81.85395081	60.10934147	-71
6398	0	0.356367111	0.022062302	0.037210464	0.999968529	-0.006942749	0.0013237	-0.003373146	8.90917778	0.551557541	0.930261612	-0.347141	0.066185674	-0.168659027	-0.919677734	-0.665771484	-0.233398438	891.74	16.66683406	-81.57334291	57.73902792	-68
6399	0	0.339294434	0.037536621	0.014160156	0.99994278	-0.007941246	-0.006549835	-0.002662659	8.48236084	0.938415527	0.354003906	-0.397069784	-0.327497931	-0.133135443	-0.914550781	-0.666259766	-0.25390625	891.8	19.49546253	-82.16503476	53.95796497	-72
6400	0	0.349872589	0.047865868	-0.004633904	0.999882698	-0.01331234	-0.007390976	-0.001551628	8.746814728	1.19664669	-0.115847588	-0.665642979	-0.369563227	-0.077584435	-0.912353516	-0.661865234	-0.260009766	891.74	21.59183218	-82.87043381	50.30207916	-70
6401	0	0.411743164	0.042053223	0.026611328	0.999866486	-0.016226768	-0.001338959	-0.0013237	10.2935791	1.051330566	0.665283203	-0.811374514	-0.066950915	-0.066187942	-0.909667969	-0.657714844	-0.283447266	891.74	21.41711925	-82.9326279	48.60185927	-75
6402	0	0.435180664	0.031271935	0.030974388	0.999974251	-0.006561279	-0.001296997	-0.002225876	10.8795166	0.781798363	0.774359703	-0.328066682	-0.064850391	-0.111294714	-0.904785156	-0.649414063	-0.312988281	891.86	23.12800952	-82.94936483	46.11669846	-82
6403	0	0.406188965	0.00958252	0.033569336	0.999980927	-0.005633354	-0.001197815	-0.001991272	10.15472412	0.239562988	0.839233398	-0.281669453	-0.059891118	-0.099564215	-0.899658203	-0.654052734	-0.327148438	891.74	24.7125034	-82.95896224	43.86673469	-77
6404	0	0.500005722	0.032823563	0.107016563	0.999901772	-0.010630608	0.001283646	-0.008972168	12.50014305	0.820589066	2.675414085	-0.53154767	0.064184369	-0.448622991	-0.89453125	-0.65234375	-0.356201172	891.74	30.11027452	-82.32782076	37.19249773	-69
6405	0	0.443908691	-0.045410156	0.132446289	0.999741554	-0.00018692	-0.011012077	-0.019882202	11.09771729	-1.135253906	3.311157227	-0.009346813	-0.550651285	-0.994195721	-0.874755859	-0.672851563	-0.369873047	891.74	48.5616722	-81.82529	18.53814748	-86
6406	0	0.326003075	-0.003619194	0.117481232	0.999843597	0.00150013	0.001610756	-0.017534256	8.150076866	-0.090479851	2.937030792	0.07501039	0.080541989	-0.876758438	-0.854248047	-0.712890625	-0.364746094	891.78	55.509349	-80.09718098	11.67254541	-72
6407	0	0.40222168	0.117004395	0.106811523	0.999895096	0.000897408	0.005870819	-0.013153076	10.05554199	2.925109863	2.670288086	0.044871934	0.293551145	-0.65767664	-0.826904297	-0.744628906	-0.383789063	891.86	56.99289495	-78.43970746	10.26088919	-78
6408	0	0.403668404	0.106780052	0.093751907	0.999974251	-0.005097389	-0.003530502	-0.003586769	10.09171009	2.669501305	2.343797684	-0.254871641	-0.176526626	-0.179339989	-0.806884766	-0.767333984	-0.400146484	891.74	59.04286556	-78.27314151	7.564394089	-74
6409	0	0.369140625	-0.017089844	0.057922363	0.999967575	-0.004477501	-0.00566864	0.003353119	9.228515625	-0.427246094	1.448059082	-0.223877412	-0.283435003	0.167657717	-0.808837891	-0.771728516	-0.413818359	891.8	60.23714867	-78.90524589	5.814412443	-73
6410	0	0.370211601	-0.045546532	0.06975174	0.999974251	0.003749847	-0.003503799	0.004849434	9.255290031	-1.138663292	1.743793488	0.187493929	-0.175191428	0.24247371	-0.820556641	-0.767089844	-0.416503906	891.84	60.93490888	-79.56335411	5.531978914	-75
6411	0	0.378662109	0.016784668	0.051086426	0.999952316	0.007786751	-0.001834869	0.005477905	9.466552734	0.419616699	1.277160645	0.38934364	-0.091744907	0.273899555	-0.829833984	-0.773193359	-0.409667969	891.84	60.99896611	-80.19277206	6.364559497	-72
6412	0	0.36282444	0.062385559	0.015247345	0.999944687	0.008281708	-0.001282692	0.006316185	9.070611	1.559638977	0.381183624	0.414092989	-0.064135775	0.315815047	-0.843994141	-0.774902344	-0.408935547	891.74	60.44312816	-80.87430648	7.881563175	-73
6413	0	0.347290039	0.023864746	0.023925781	0.999957085	0.008464813	1.24E-05	0.003623962	8.682250977	0.596618652	0.598144531	0.423246643	0.000619897	0.181200681	-0.853271484	-0.779052734	-0.399414063	891.74	59.93964694	-81.21301058	9.365816064	-70
6414	0	0.375118256	0.032122612	0.020745277	0.99995327	0.009141922	0.002639771	0.001392365	9.37795639	0.8030653	0.518631935	0.457103146	0.13199056	0.069619298	-0.859863281	-0.789794922	-0.395263672	891.74	58.63048407	-81.17515286	11.74371103	-74
6415	0	0.383422852	0.054199219	0.043518066	0.999961853	0.007649422	0.003929138	0.001060486	9.585571289	1.354980469	1.08795166	0.382475871	0.196459367	0.053024955	-0.861572266	-0.804931641	-0.396728516	891.74	56.52122545	-81.01441738	14.75919746	-75
6416	0	0.373908997	0.036008835	0.041021347	0.999991417	0.003523827	0.00104332	0.001741409	9.347724915	0.900220871	1.025533676	0.176191816	0.052166129	0.087070705	-0.863525391	-0.815917969	-0.395751953	891.8	55.44683809	-81.09082387	16.24933321	-72
6417	0	0.366760254	0.000183105	0.019165039	0.99998188	0.005645752	0.000458717	0.001842499	9.169006348	0.004577637	0.479125977	0.282289267	0.022936003	0.092125484	-0.867675781	-0.828857422	-0.397460938	891.8	54.90181682	-81.21411402	17.44878374	-69
6418	0	0.45639801	0.006548882	0.053438187	0.999808311	0.018196106	0.005428314	0.00470829	11.40995026	0.163722038	1.335954666	0.909863343	0.271433027	0.235429524	-0.869384766	-0.846435547	-0.390136719	891.8	51.51313345	-81.25427282	22.97950723	-70
6419	0	0.494750977	0.086547852	0.072875977	0.999810219	0.014846802	-0.003127098	0.012153625	12.36877441	2.163696289	1.821899414	0.742386853	-0.156364754	0.607719556	-0.880859375	-0.861083984	-0.368164063	891.78	48.73148944	-82.53084671	27.50080208	-73
6420	0	0.398470879	0.058448792	0.063532829	0.999899864	0.00748539	-0.005197525	0.010760307	9.961771965	1.461219788	1.588320732	0.374281889	-0.259884864	0.538033196	-0.914306641	-0.859863281	-0.34375	891.74	46.12708304	-83.81665478	30.98267967	-74
6421	0	0.368774414	0.015991211	0.065368652	0.99994278	0.009907722	0.000797272	0.003826141	9.219360352	0.399780273	1.634216309	0.49539549	0.03986434	0.191310685	-0.935546875	-0.859130859	-0.328369141	891.68	43.56060178	-84.03367241	34.70064609	-74
6422	0	0.32459259	0.054648399	0.104593277	0.999833107	0.015853882	0.006931305	0.005807877	8.114814758	1.366209984	2.614831924	0.792738109	0.346584491	0.290409954	-0.944824219	-0.869628906	-0.315429688	891.8	35.6401961	-83.8118016	44.48813395	-70
6423	0	0.341552734	0.072753906	0.112548828	0.999869347	0.007984161	0.00880909	0.010906219	8.538818359	1.818847656	2.813720703	0.399225389	0.440473593	0.545334634	-0.956542969	-0.873535156	-0.305908203	891.74	22.2209582	-83.48999615	58.90847549	-72
6424	0	0.435408592	0.048621178	0.073173523	0.999984741	-0.00038147	0.001791954	0.005105972	10.88521481	1.215529442	1.829338074	-0.01907358	0.089598141	0.255299867	-0.975585938	-0.868408203	-0.305419922	891.74	16.75602207	-83.44936281	64.36407661	-76
6425	0	0.424438477	0.044311523	0.065307617	0.999974251	0.006546021	-0.001051903	-0.002502441	10.61096191	1.107788086	1.63269043	0.327303765	-0.052595579	-0.125123118	-0.979980469	-0.870605469	-0.307861328	891.74	20.22165352	-83.42997695	61.62557679	-72
6426	0	0.400015831	0.04894352	0.078980446	0.999967575	0.007019997	0.003214836	-0.002119064	10.00039577	1.22358799	1.974511147	0.351003582	0.160743523	-0.105954349	-0.979736328	-0.885742188	-0.295166016	891.74	21.83219412	-82.9546284	60.81144128	-72
6427	0	0.385437012	0.063720703	0.075866699	0.999982834	0.003605843	0.002758026	-0.003692627	9.635925293	1.593017578	1.89666748	0.180293159	0.137902093	-0.184632401	-0.974609375	-0.899169922	-0.288574219	891.74	24.33532546	-82.45194435	58.70323417	-76
6428	0	0.371753693	0.082241058	0.071845055	0.999983788	-0.001566887	0.002401352	-0.004899979	9.293842316	2.056026459	1.796126366	-0.078344766	0.120068241	-0.245000248	-0.969238281	-0.914550781	-0.287597656	891.72	26.99363167	-81.91286687	55.83903435	-81
6429	0	0.352355957	0.069152832	0.061645508	0.999964714	-0.007644653	-0.00039959	-0.003326416	8.808898926	1.728820801	1.541137695	-0.382237104	-0.019979709	-0.166322732	-0.959228516	-0.921630859	-0.301757813	891.84	28.62809903	-81.72686968	53.30131245	-75
6430	0	0.374340057	0.034012794	0.062158585	0.99994278	-0.010426521	0.000922203	-0.001935005	9.358501434	0.850319862	1.553964615	-0.521335911	0.046111024	-0.096752087	-0.954345703	-0.924072266	-0.310546875	891.72	28.41914986	-81.47974637	52.30550943	-72
6431	0	0.386657715	0.028625488	0.063598633	0.999968529	-0.007778168	0.000126839	-0.000984192	9.666442871	0.715637207	1.58996582	-0.388912372	0.006341999	-0.049210099	-0.949462891	-0.922119141	-0.328125	891.78	28.14420414	-81.3656523	51.68008992	-70
6432	0	0.413072586	0.029663086	0.060379982	0.999972343	-0.007248878	0.00128746	-0.000349998	10.32681465	0.741577148	1.50949955	-0.362447206	0.064373599	-0.017500082	-0.946777344	-0.922363281	-0.339599609	891.78	27.10320079	-81.1693422	51.89150808	-69
6433	0	0.417114258	0.035705566	0.07208252	0.999977112	-0.006323814	0.001468658	-0.001464844	10.42785645	0.89263916	1.802062988	-0.316193054	0.073433464	-0.073242728	-0.944335938	-0.918212891	-0.354492188	891.72	26.84714203	-80.89648399	51.41466903	-68
6434	0	0.397106171	0.027899742	0.072928429	0.999976158	-0.005556107	0.001548767	-0.003695488	9.927654266	0.697493553	1.823210716	-0.277807501	0.07743896	-0.184775844	-0.939697266	-0.916259766	-0.363525391	891.84	28.00370884	-80.49745067	49.59539166	-67
6435	0	0.372680664	0.042114258	0.073852539	0.999974251	-0.004615784	0.002533913	-0.004852295	9.317016602	1.052856445	1.846313477	-0.230791157	0.126696716	-0.242616819	-0.927490234	-0.918945313	-0.375244141	891.74	29.48268651	-79.9288735	47.55513506	-68
6436	0	0.356275558	0.046105385	0.069296837	0.999979973	-0.004622459	0.002286911	-0.00361824	8.906888962	1.152634621	1.732420921	-0.231124499	0.114346307	-0.180913215	-0.919921875	-0.923583984	-0.392578125	891.74	30.20037106	-79.44876125	46.28322467	-69
6437	0	0.366821289	0.032958984	0.069458008	0.999978065	-0.005794525	0.002236366	-0.002159119	9.170532227	0.823974609	1.736450195	-0.289728345	0.111819119	-0.107956711	-0.910400391	-0.926269531	-0.404296875	891.8	29.97154699	-79.05715362	45.83718831	-69
6438	0	0.378601074	0.024414063	0.072387695	0.999990463	-0.003809929	0.00117588	-0.001464844	9.465026855	0.610351563	1.809692383	-0.190497018	0.058794198	-0.073242408	-0.903076172	-0.924316406	-0.416259766	891.74	29.91530086	-78.81170281	45.44522567	-69
6439	0	0.381807327	0.021915436	0.073040009	0.999997139	-0.001106262	-0.000105858	-0.000437737	9.545183182	0.547885895	1.826000214	-0.055313124	-0.005292894	-0.021886831	-0.8984375	-0.924560547	-0.419189453	891.84	30.0147093	-78.75327237	45.21000982	-69
6440	0	0.379868507	0.032944679	0.074978828	0.999999046	-0.000250816	0.000102997	0.000492096	9.496712685	0.823616982	1.874470711	-0.012540818	0.005149842	0.024604799	-0.895996094	-0.924560547	-0.416503906	891.74	29.68669695	-78.72779914	45.51146435	-69
6441	0	0.379760742	0.036804199	0.077331543	0.999999046	-0.000873566	-0.000216484	0.000675201	9.494018555	0.92010498	1.933288574	-0.043678293	-0.010824206	0.033760078	-0.898681641	-0.922363281	-0.413818359	891.68	29.28668064	-78.74452726	45.81418652	-69
6442	0	0.381062508	0.037448883	0.070029259	0.999997139	-0.002035141	-0.001148224	0.00033474	9.526562691	0.936222076	1.750731468	-0.101757144	-0.057411247	0.016737	-0.898681641	-0.91796875	-0.422607422	891.86	29.18714233	-78.83581918	45.67268206	-69
6443	0	0.378662109	0.033447266	0.06072998	0.999995232	-0.001964569	-0.002375603	-2.67E-05	9.466552734	0.836181641	1.518249512	-0.09822861	-0.118780324	-0.001335146	-0.898681641	-0.91796875	-0.416992188	891.74	29.63727742	-79.0303518	44.98113905	-69
6444	0	0.385653496	0.030428886	0.057979584	0.999994278	-0.002037048	-0.002354622	0.000392914	9.641337395	0.76072216	1.449489594	-0.101852584	-0.117731288	0.019645723	-0.900878906	-0.91796875	-0.419677734	891.84	29.87477399	-79.24717617	44.49732576	-70
6445	0	0.39239502	0.028076172	0.057922363	0.999995232	-0.002140045	-0.001936913	0.000396729	9.809875488	0.701904297	1.448059082	-0.10700241	-0.096845764	0.019836454	-0.901367188	-0.913574219	-0.414306641	891.8	29.98373572	-79.42378505	44.13364447	-69
6446	0	0.392942429	0.026115417	0.056389809	0.999997139	-0.001020432	-0.002109528	7.72E-05	9.823560715	0.652885437	1.409745216	-0.051021623	-0.105476476	0.003862385	-0.903564453	-0.911132813	-0.420166016	891.84	30.45613338	-79.60006624	43.52907799	-69
6447	0	0.391540527	0.031494141	0.05645752	0.999998093	-6.01E-05	-0.001579285	9.92E-05	9.788513184	0.787353516	1.411437988	-0.003004075	-0.078964266	0.004959109	-0.903808594	-0.911132813	-0.414306641	891.78	30.87424597	-79.72556958	43.09300892	-69
6448	0	0.38593483	0.03250885	0.058416367	0.999999046	6.58E-05	-0.000787735	0.000273705	9.648370743	0.812721252	1.460409164	0.003290177	-0.039386754	0.013685228	-0.903564453	-0.913330078	-0.414306641	891.8	30.96201994	-79.7840048	43.00724564	-69
6449	0	0.389831543	0.028503418	0.054077148	0.999999046	-0.000110626	-0.00064373	0.00031662	9.745788574	0.712585449	1.351928711	-0.005531312	-0.032186511	0.015830995	-0.906005859	-0.911132813	-0.411376953	891.74	30.96023883	-79.83191101	42.99226825	-69
6450	0	0.393030167	0.030012131	0.05192852	0.999998093	0.001151085	-0.000767708	3.72E-05	9.825754166	0.750303268	1.298213005	0.057554263	-0.038385403	0.001859666	-0.90625	-0.911132813	-0.408447266	891.72	31.2995649	-79.87654602	42.77740295	-69
6451	0	0.389587402	0.037719727	0.052490234	0.999998093	0.001339912	-0.000434875	0.000457764	9.739685059	0.942993164	1.312255859	0.066995645	-0.021743782	0.022888192	-0.90625	-0.913330078	-0.405517578	891.64	31.32328256	-79.91433096	42.90527401	-69
6452	0	0.388080597	0.036655426	0.054250717	0.999999046	0.000741005	4.96E-05	0.000498772	9.702014923	0.916385651	1.356267929	0.037050252	0.002479554	0.024938587	-0.90625	-0.913085938	-0.399902344	891.78	31.09622134	-79.9077455	43.21882522	-69
6453	0	0.390258789	0.034606934	0.0546875	0.999999046	0.00100708	0.000279427	0.000431061	9.756469727	0.86517334	1.3671875	0.050354015	0.013971332	0.021553044	-0.908691406	-0.910888672	-0.402587891	891.78	30.86369746	-79.87512867	43.56804274	-69
6454	0	0.386537552	0.038413048	0.055435181	0.999999046	0.001203537	-0.000209808	0.00056076	9.663438797	0.960326195	1.385879517	0.060176867	-0.010490421	0.028038033	-0.90625	-0.913085938	-0.396972656	891.84	30.74675959	-79.89867212	43.82345689	-69
6455	0	0.387390137	0.035400391	0.054077148	0.999999046	0.001110077	-7.92E-05	0.000644684	9.684753418	0.885009766	1.351928711	0.055503861	-0.00395775	0.032234201	-0.90625	-0.913085938	-0.394042969	891.74	30.53122245	-79.91481205	44.16813263	-68
6456	0	0.386346817	0.036122322	0.05491066	0.999999046	0.000937462	-0.000324249	0.000595093	9.658670425	0.903058052	1.372766495	0.046873103	-0.016212467	0.029754645	-0.908691406	-0.913085938	-0.394042969	891.7	30.40488896	-79.95272116	44.4018171	-68
6457	0	0.387207031	0.036254883	0.053039551	0.999999046	0.000759125	-0.000834465	0.000579834	9.680175781	0.90637207	1.32598877	0.037956248	-0.041723263	0.028991707	-0.911132813	-0.913085938	-0.393798828	891.74	30.43547628	-80.04081149	44.45527319	-68
6458	0	0.389837265	0.034357071	0.052457809	0.999999046	0.000703812	-0.000879288	0.000247955	9.745931625	0.858926773	1.311445236	0.03519059	-0.043964396	0.012397769	-0.911132813	-0.912841797	-0.390869141	891.78	30.66473094	-80.11474815	44.30084503	-68
6459	0	0.388000488	0.03515625	0.049621582	0.999998093	0.00111866	-0.000892639	0.0001297	9.700012207	0.87890625	1.240539551	0.055933018	-0.044631973	0.006484988	-0.911132813	-0.912841797	-0.382324219	891.74	31.01905704	-80.18368401	44.06842274	-68
6460	0	0.388396263	0.035889626	0.04542923	0.999998093	0.000967026	-0.001149178	9.54E-05	9.709906578	0.897240639	1.135730743	0.048351306	-0.057458899	0.004768373	-0.911376953	-0.912841797	-0.376708984	891.78	31.47226458	-80.27631796	43.71808632	-68
6461	0	0.389282227	0.034423828	0.04486084	0.999998093	0.001332283	-0.00069809	-7.25E-05	9.732055664	0.860595703	1.121520996	0.066614176	-0.034904493	-0.003623964	-0.911376953	-0.912841797	-0.373779297	891.8	31.91376932	-80.3152959	43.4219182	-68
