Counter	Temperature	VelInc_X	VelInc_Y	VelInc_Z	OriInc_w	OriInc_x	OriInc_y	OriInc_z	Acc_X	Acc_Y	Acc_Z	Gyr_X	Gyr_Y	Gyr_Z	Mag_X	Mag_Y	Mag_Z	Pressure	Roll	Pitch	Yaw	RSSI
25053	0	0.385498047	0.062255859	0.057067871	0.999999046	-0.000415802	8.58307E-06	0.000114441	9.637451172	1.556396484	1.426696777	-0.020790101	0.000429153	0.005722046	-0.923828125	0.487060547	-0.046875	891.42	46.95857966	-78.11531616	-142.8543861	-52
25054	0	0.384046555	0.062484741	0.058467865	0.999999046	-0.000179291	5.53131E-05	0.000209808	9.601163864	1.56211853	1.461696625	-0.008964539	0.002765656	0.010490418	-0.923828125	0.489501953	-0.049804688	891.46	46.7988309	-78.10309628	-142.7570678	-51
25055	0	0.384643555	0.061401367	0.059020996	0.999999046	-0.000148773	0.000119209	0.000141144	9.616088867	1.53503418	1.475524902	-0.00743866	0.005960465	0.00705719	-0.923828125	0.487060547	-0.052734375	891.36	46.64446241	-78.08022609	-142.6539572	-51
25056	0	0.384707451	0.063410759	0.060473442	0.999999046	-0.000172615	3.8147E-06	6.38962E-05	9.617686272	1.585268974	1.511836052	-0.008630753	0.000190735	0.003194809	-0.921386719	0.487060547	-0.052734375	891.36	46.56336396	-78.06002479	-142.626934	-51
25057	0	0.383605957	0.0625	0.059997559	0.999999046	-0.000270844	-0.00014782	0.000144958	9.590148926	1.5625	1.499938965	-0.013542176	-0.007390976	0.007247925	-0.921386719	0.487060547	-0.049804688	891.4	46.5017181	-78.05863943	-142.6373603	-51
25058	0	0.38455677	0.061500549	0.059854507	0.999999046	-0.000116348	-0.000169754	0.000102043	9.613919258	1.537513733	1.496362686	-0.005817413	-0.008487701	0.005102158	-0.921386719	0.489257813	-0.050048828	891.4	46.48343497	-78.05557929	-142.6716181	-52
25059	0	0.384155273	0.061889648	0.058898926	0.999999046	5.34058E-05	-0.000403404	0.000358582	9.603881836	1.547241211	1.472473145	0.002670288	-0.020170213	0.017929078	-0.923828125	0.489501953	-0.049804688	891.42	46.48195213	-78.09244863	-142.7026151	-51
25060	0	0.383940697	0.061314583	0.057971001	0.999999046	0.000103951	-0.000391006	0.000357628	9.598517418	1.532864571	1.449275017	0.005197525	-0.019550324	0.017881394	-0.921386719	0.489257813	-0.050048828	891.46	46.48305613	-78.12845838	-142.7270044	-51
25061	0	0.384277344	0.059753418	0.057800293	0.999999046	0.000278473	-0.000506401	0.000595093	9.606933594	1.493835449	1.445007324	0.013923647	-0.025320056	0.029754642	-0.921386719	0.489257813	-0.050048828	891.4	46.46151344	-78.19355041	-142.7060933	-51
25062	0	0.385507584	0.059876442	0.059144974	0.999999046	0.000497818	-0.00071907	0.000720024	9.63768959	1.496911049	1.478624344	0.024890905	-0.035953529	0.036001213	-0.921630859	0.491699219	-0.047363281	891.48	46.50316909	-78.28599891	-142.7287497	-52
25063	0	0.385925293	0.059814453	0.057556152	0.999998093	0.000622749	-0.001060486	0.000732422	9.648132324	1.495361328	1.438903809	0.031137477	-0.05302431	0.036621106	-0.921630859	0.491455078	-0.050292969	891.46	46.69426199	-78.40653965	-142.8783292	-51
25064	0	0.387352943	0.057853699	0.057394028	0.999999046	0.000733376	-0.000612259	0.000575066	9.683823586	1.446342468	1.434850693	0.036668785	-0.030612952	0.028753287	-0.921630859	0.491699219	-0.044433594	891.4	46.77866198	-78.47895919	-142.9201343	-51
25065	0	0.386901855	0.058837891	0.057373047	0.999999046	0.000831604	-0.000128746	0.000648499	9.672546387	1.470947266	1.434326172	0.041580208	-0.006437303	0.032424933	-0.919433594	0.493896484	-0.044677734	891.42	46.6484987	-78.5196839	-142.7311695	-51
25066	0	0.385099411	0.057946205	0.057908058	0.999999046	0.000976563	8.58307E-05	0.000426292	9.627485275	1.448655128	1.447701454	0.048828134	0.004291535	0.021314625	-0.921875	0.493896484	-0.044433594	891.4	46.53290226	-78.5250685	-142.5441107	-51
25067	0	0.388244629	0.061401367	0.057861328	0.999999046	0.000839233	0.000153542	0.000263214	9.706115723	1.53503418	1.446533203	0.041961675	0.007677079	0.013160707	-0.921875	0.493896484	-0.044433594	891.46	46.43853376	-78.51152863	-142.3970193	-51
25068	0	0.385940552	0.062391281	0.056408882	0.999999046	0.000437737	-1.90735E-05	0.000156403	9.648513794	1.559782028	1.410222054	0.021886826	-0.000953674	0.00782013	-0.919189453	0.493652344	-0.050537109	891.4	46.41224729	-78.50272677	-142.3503203	-51
25069	0	0.384765625	0.059082031	0.056640625	0.999999046	0.000343323	-4.86374E-05	0.000232697	9.619140625	1.477050781	1.416015625	0.017166138	-0.00243187	0.011634827	-0.921875	0.49609375	-0.050537109	891.42	46.35860569	-78.50273861	-142.2879468	-51
25070	0	0.38492012	0.058149338	0.05845356	0.999999046	0.000305176	-1.71661E-05	0.000178337	9.623003006	1.453733444	1.461338997	0.015258789	-0.000858307	0.008916855	-0.919433594	0.498291016	-0.048095703	891.4	46.30938472	-78.4958737	-142.2401316	-51
25071	0	0.386474609	0.059570313	0.057678223	0.999999046	0.000644684	-2.57492E-05	0.000228882	9.661865234	1.489257813	1.441955566	0.032234194	-0.00128746	0.011444093	-0.916992188	0.495849609	-0.05078125	891.34	46.28394777	-78.49395768	-142.1706066	-51
25072	0	0.387357712	0.058060646	0.055994987	0.999999046	0.000422478	-0.000102997	0.000160217	9.683942795	1.451516151	1.399874687	0.021123887	-0.005149841	0.008010865	-0.919433594	0.493896484	-0.044677734	891.4	46.29200703	-78.49273201	-142.1777477	-51
25073	0	0.389831543	0.058349609	0.05456543	0.999999046	0.000469208	0.000264168	0.00025177	9.745788574	1.458740234	1.364135742	0.02346039	0.01320839	0.012588502	-0.919189453	0.493652344	-0.050537109	891.46	46.12214288	-78.47021042	-141.9848807	-51
25074	0	0.387695313	0.061077118	0.058434486	0.999999046	0.000499725	0.000642776	0.00014019	9.692382813	1.526927948	1.46086216	0.02498627	0.032138828	0.007009507	-0.919189453	0.495849609	-0.056640625	891.48	45.84905727	-78.40818707	-141.6715975	-51
25075	0	0.385192871	0.060119629	0.058959961	0.999999046	0.000183105	0.000805855	0.000125885	9.629821777	1.502990723	1.473999023	0.009155275	0.040292745	0.006294251	-0.919189453	0.495849609	-0.053710938	891.42	45.48470735	-78.33163519	-141.3134045	-52
25076	0	0.384620667	0.059189796	0.06120491	0.999999046	-6.19888E-05	0.000621796	0.000178337	9.615516663	1.479744911	1.530122757	-0.003099442	0.031089785	0.008916855	-0.916748047	0.495849609	-0.056640625	891.42	45.1491885	-78.27372462	-141.00753	-52
25077	0	0.385498047	0.058227539	0.060913086	0.999999046	-0.000232697	0.000500679	0.000141144	9.637451172	1.455688477	1.522827148	-0.011634827	0.025033952	0.00705719	-0.919189453	0.495849609	-0.056640625	891.26	44.85910906	-78.22235553	-140.7703573	-51
25078	0	0.386432648	0.057419777	0.058091164	0.999999046	-0.000379562	0.000431061	0.000193596	9.660816193	1.435494423	1.452279091	-0.01897812	0.021553041	0.009679795	-0.919189453	0.495849609	-0.059570313	891.42	44.56169248	-78.18085321	-140.5364739	-51
25079	0	0.385498047	0.056030273	0.058837891	0.999999046	-0.00019455	0.000473976	7.62939E-05	9.637451172	1.400756836	1.470947266	-0.009727478	0.023698808	0.003814697	-0.919433594	0.498291016	-0.056884766	891.34	44.31711249	-78.12647884	-140.3428644	-51
25080	0	0.384655952	0.05491066	0.059527397	0.999999046	4.86374E-05	0.000406265	8.01086E-05	9.616398811	1.372766495	1.488184929	0.00243187	0.020313264	0.004005432	-0.919189453	0.498291016	-0.059814453	891.46	44.12677548	-78.07807707	-140.1705771	-51
25081	0	0.385253906	0.055908203	0.058898926	0.999999046	0.000278473	0.000370979	9.53674E-05	9.631347656	1.397705078	1.472473145	0.013923646	0.018548966	0.004768372	-0.916748047	0.495849609	-0.059570313	891.34	43.97211635	-78.03397069	-140.0098147	-51
25082	0	0.385586739	0.05513382	0.058237076	0.999999046	0.000520706	0.000356674	0.000106812	9.639668465	1.37834549	1.455926895	0.026035311	0.017833711	0.005340577	-0.916748047	0.498046875	-0.062744141	891.4	43.84790207	-77.99220513	-139.8465529	-51
25083	0	0.388000488	0.056884766	0.059631348	0.999999046	0.000762939	0.000519753	-6.10352E-05	9.700012207	1.422119141	1.490783691	0.038146978	0.025987629	-0.003051758	-0.919189453	0.495849609	-0.0625	891.4	43.75774534	-77.92384825	-139.6952043	-51
25084	0	0.386098862	0.059282303	0.060734749	0.999999046	0.000775337	0.0007267	-0.00017643	9.652471542	1.482057571	1.518368721	0.038766868	0.036334998	-0.008821489	-0.916748047	0.495849609	-0.065429688	891.36	43.63999706	-77.82928315	-139.5108543	-52
25085	0	0.385070801	0.061645508	0.06060791	0.999999046	0.000427246	0.000752449	-0.00025177	9.62677002	1.541137695	1.515197754	0.021362308	0.037622457	-0.012588503	-0.918945313	0.495849609	-0.068359375	891.42	43.50587771	-77.72662178	-139.3482284	-51
25086	0	0.383054733	0.062073708	0.061923981	0.999999046	0.000312805	0.000741959	-0.000306129	9.576368332	1.55184269	1.548099518	0.015640261	0.037097935	-0.015306475	-0.918945313	0.493652344	-0.065185547	891.36	43.38684557	-77.62052783	-139.2256474	-51
25087	0	0.382385254	0.063110352	0.066223145	0.999999046	-3.43323E-05	0.000321388	-0.000392914	9.559631348	1.577758789	1.655578613	-0.001716614	0.016069413	-0.019645692	-0.918945313	0.493652344	-0.068115234	891.46	43.41349003	-77.54246389	-139.2865972	-51
25088	0	0.382966995	0.061635971	0.064579964	0.999999046	-0.000525475	4.3869E-05	-0.000359535	9.574174881	1.540899277	1.614499092	-0.026273729	0.002193451	-0.017976762	-0.918945313	0.493652344	-0.068115234	891.46	43.47025637	-77.49014612	-139.4344975	-51
25089	0	0.383911133	0.060424805	0.062316895	0.999999046	-0.000331879	-0.00020504	-0.00043869	9.59777832	1.510620117	1.557922363	-0.016593934	-0.010251999	-0.021934511	-0.918701172	0.491210938	-0.070800781	891.4	43.66706568	-77.45235215	-139.6947513	-51
25090	0	0.385102272	0.061759949	0.060062408	0.999999046	-0.000349045	-0.00019455	-0.000465393	9.627556801	1.543998718	1.501560211	-0.017452241	-0.009727479	-0.023269655	-0.918701172	0.491210938	-0.070800781	891.42	43.86795974	-77.41162789	-139.9592697	-51
25091	0	0.385314941	0.063415527	0.05847168	0.999999046	-0.000350952	-0.000247002	-0.000217438	9.632873535	1.585388184	1.461791992	-0.017547608	-0.012350083	-0.010871888	-0.921142578	0.489257813	-0.067626953	891.36	43.9962351	-77.3950506	-140.1559732	-51
25092	0	0.384584427	0.064027786	0.06131649	0.999999046	-0.000433922	-0.000265121	-0.000156403	9.614610672	1.600694656	1.532912254	-0.021696092	-0.013256074	-0.00782013	-0.918701172	0.486816406	-0.067626953	891.42	44.09989461	-77.38486093	-140.3340378	-51
25093	0	0.385620117	0.064147949	0.061157227	0.999999046	-0.000827789	-0.000124931	-0.000137329	9.64050293	1.60369873	1.528930664	-0.04138947	-0.006246568	-0.006866456	-0.921142578	0.487060547	-0.064453125	891.34	44.10238552	-77.36476663	-140.4602349	-51
25094	0	0.385799408	0.066958427	0.061719894	0.999999046	-0.001358032	-0.000116348	-5.34058E-05	9.644985199	1.673960686	1.54299736	-0.067901632	-0.005817415	-0.002670289	-0.921142578	0.489257813	-0.067626953	891.36	44.01174285	-77.35067702	-140.5418175	-51
25095	0	0.382507324	0.06652832	0.061401367	0.999998093	-0.001681328	-0.000507355	-9.91821E-05	9.562683105	1.663208008	1.53503418	-0.084066434	-0.02536775	-0.004959109	-0.921142578	0.489257813	-0.064697266	891.4	44.04115568	-77.36518772	-140.7850853	-51
25096	0	0.380236626	0.065115929	0.061112404	0.999998093	-0.001695633	-0.000548363	-0.000332832	9.505915642	1.627898216	1.527810097	-0.084781693	-0.027418152	-0.016641626	-0.921142578	0.487060547	-0.05859375	891.48	44.17061913	-77.36442701	-141.1403889	-51
25097	0	0.381408691	0.064758301	0.059997559	0.999998093	-0.001383781	-0.000778198	-0.00031662	9.535217285	1.61895752	1.499938965	-0.069189102	-0.038909929	-0.015831001	-0.923583984	0.487060547	-0.055664063	891.42	44.4134365	-77.38368831	-141.5759104	-51
25098	0	0.385180473	0.062523842	0.057006836	0.999999046	-0.001041412	-0.00084877	-0.00011158	9.629511833	1.563096046	1.425170898	-0.052070633	-0.04243852	-0.005578996	-0.923828125	0.487060547	-0.052734375	891.36	44.64851472	-77.42513564	-141.9637087	-51
25099	0	0.387512207	0.062744141	0.056945801	0.999999046	-0.000553131	-0.000475883	3.05176E-05	9.687805176	1.568603516	1.42364502	-0.027656558	-0.023794176	0.001525879	-0.921386719	0.487060547	-0.049804688	891.4	44.75544886	-77.447745	-142.1650858	-51
25100	0	0.386287689	0.061376572	0.056095123	0.999999046	1.62125E-05	7.05719E-05	0.000228882	9.65719223	1.534414291	1.402378082	0.000810623	0.003528595	0.011444092	-0.926269531	0.487304688	-0.052490234	891.36	44.65854956	-77.44219082	-142.0863635	-51
25101	0	0.383972168	0.061889648	0.058227539	0.999999046	0.000545502	0.000203133	0.000244141	9.599304199	1.547241211	1.455688477	0.027275087	0.010156632	0.012207032	-0.926025391	0.484863281	-0.052246094	891.42	44.56986678	-77.42725104	-141.9565279	-51
25102	0	0.384284019	0.06329155	0.058923721	0.999999046	0.000646591	1.90735E-05	0.000343323	9.607100487	1.582288742	1.473093033	0.032329562	0.000953674	0.017166139	-0.923828125	0.487060547	-0.049804688	891.42	44.52391754	-77.43544825	-141.8643328	-51
25103	0	0.385375977	0.064147949	0.059326172	0.999999046	0.00069046	-0.000220299	0.000450134	9.634399414	1.60369873	1.483154297	0.034523014	-0.01101494	0.022506717	-0.921386719	0.487060547	-0.055664063	891.34	44.53120599	-77.47187564	-141.8078509	-51
25104	0	0.385457039	0.061745644	0.059008598	0.999999046	0.000409126	-8.39233E-05	0.000426292	9.636425972	1.54364109	1.475214958	0.020456315	-0.004196167	0.021314622	-0.923828125	0.487060547	-0.052734375	891.42	44.46611664	-77.49544763	-141.7181811	-51
25105	0	0.386901855	0.061645508	0.058654785	0.999999046	0.000335693	6.19888E-05	0.000335693	9.672546387	1.541137695	1.466369629	0.016784669	0.003099442	0.016784669	-0.923828125	0.489257813	-0.055664063	891.4	44.37379338	-77.49999093	-141.603225	-52
25106	0	0.386813164	0.060446739	0.056524277	0.999999046	0.000453949	8.2016E-05	0.000418663	9.670329094	1.51116848	1.413106918	0.02269745	0.0041008	0.020933153	-0.921386719	0.489257813	-0.052978516	891.42	44.25785478	-77.50982137	-141.4566016	-51
25107	0	0.385437012	0.058349609	0.056396484	0.999999046	0.000511169	0.000359535	0.000358582	9.635925293	1.458740234	1.409912109	0.025558474	0.017976762	0.017929079	-0.923828125	0.489257813	-0.05859375	891.36	44.07139582	-77.49231221	-141.2217708	-51
25108	0	0.383239746	0.05905056	0.059112549	0.999999046	0.000746727	0.000299454	0.000339508	9.580993652	1.476264	1.477813721	0.037336354	0.014972689	0.016975405	-0.923828125	0.489257813	-0.052734375	891.48	43.94133004	-77.47834077	-141.0327452	-51
25109	0	0.383239746	0.05871582	0.059997559	0.999999046	0.001018524	0.000123024	0.000473022	9.580993652	1.467895508	1.499938965	0.050926219	0.006151201	0.023651128	-0.921386719	0.487060547	-0.055664063	891.36	43.85626174	-77.48965744	-140.8531951	-51
25110	0	0.384441376	0.060241699	0.058747292	0.999999046	0.00103569	-8.2016E-05	0.000324249	9.611034393	1.50604248	1.468682289	0.051784526	-0.0041008	0.016212467	-0.921386719	0.489257813	-0.055908203	891.4	43.90243568	-77.50628654	-140.8068471	-52
25111	0	0.385742188	0.061462402	0.059387207	0.999999046	0.000934601	-1.81198E-05	0.000427246	9.643554688	1.536560059	1.484680176	0.04673005	-0.000905991	0.021362308	-0.921386719	0.489257813	-0.058837891	891.48	43.87635574	-77.52596186	-140.6935592	-52
25112	0	0.385735512	0.061306953	0.060600281	0.999999046	0.000658989	-0.000179291	0.000331879	9.643387794	1.532673836	1.515007019	0.032949451	-0.008964539	0.016593935	-0.921386719	0.491455078	-0.062011719	891.48	43.91256535	-77.55146011	-140.6697535	-51
25113	0	0.387023926	0.06060791	0.060241699	0.999999046	0.000427246	0.000252724	0.000289917	9.675598145	1.515197754	1.50604248	0.021362306	0.012636185	0.01449585	-0.921142578	0.489257813	-0.064697266	891.4	43.78297359	-77.53804698	-140.499472	-52
25114	0	0.387454987	0.060129166	0.060995102	0.999999046	0.000501633	0.000305176	0.000407219	9.686374664	1.503229141	1.524877548	0.025081637	0.01525879	0.020360948	-0.921386719	0.491455078	-0.062011719	891.34	43.59965511	-77.52960869	-140.2734985	-51
25115	0	0.383850098	0.059448242	0.061157227	0.999999046	0.000473022	0.00042057	0.00019455	9.596252441	1.486206055	1.528930664	0.023651125	0.02102852	0.009727479	-0.921386719	0.493652344	-0.059326172	891.34	43.45234377	-77.49476623	-140.0957944	-52
25116	0	0.382171631	0.059663773	0.063069344	0.999999046	0.00052166	0.000246048	0.000202179	9.554290771	1.491594315	1.576733589	0.026082994	0.012302399	0.010108948	-0.923828125	0.491455078	-0.064697266	891.34	43.37040126	-77.47497471	-139.9704186	-51
25117	0	0.383422852	0.059997559	0.062805176	0.999999046	0.000495911	-6.67572E-06	0.000190735	9.585571289	1.499938965	1.570129395	0.024795533	-0.000333786	0.009536744	-0.921142578	0.491455078	-0.067871094	891.46	43.37958363	-77.47534557	-139.9345068	-51
25118	0	0.385521889	0.061009407	0.061700821	0.999999046	6.48499E-05	0.000118256	0.000155449	9.638047218	1.525235176	1.542520523	0.003242493	0.005912781	0.007772446	-0.921142578	0.491455078	-0.067871094	891.4	43.30879037	-77.46259326	-139.8678099	-52
25119	0	0.385131836	0.060302734	0.062683105	0.999999046	-0.000160217	-5.24521E-05	0.000118256	9.628295898	1.507568359	1.567077637	-0.008010864	-0.002622604	0.005912781	-0.921386719	0.493652344	-0.068115234	891.4	43.28666799	-77.46119566	-139.8761454	-51
25120	0	0.386494637	0.060557365	0.060707092	0.999999046	-0.000267982	-5.34058E-05	-3.8147E-05	9.662365913	1.513934135	1.517677307	-0.013399124	-0.002670288	-0.001907349	-0.921386719	0.491455078	-0.064941406	891.54	43.31158598	-77.4477228	-139.9513398	-52
25121	0	0.385742188	0.06072998	0.060852051	0.999999046	-0.000328064	0.000245094	7.62939E-05	9.643554688	1.518249512	1.52130127	-0.016403199	0.012254715	0.003814697	-0.918945313	0.493652344	-0.062255859	891.4	43.1819985	-77.41844975	-139.8800298	-52
25122	0	0.38504982	0.060081482	0.060529709	0.999999046	-0.000213623	0.000198364	4.57764E-05	9.626245499	1.502037048	1.513242722	-0.010681152	0.009918213	0.002288818	-0.918945313	0.491455078	-0.064941406	891.42	43.09424138	-77.39079451	-139.8325866	-52
25123	0	0.385009766	0.06072998	0.063049316	0.999999046	-0.000110626	0.000187874	0.000114441	9.625244141	1.518249512	1.57623291	-0.005531311	0.009393692	0.005722046	-0.918945313	0.491455078	-0.064941406	891.4	42.99673953	-77.36940546	-139.7633593	-51
25124	0	0.384266853	0.060688972	0.063327789	0.999999046	-6.00815E-05	0.000270844	3.43323E-05	9.606671333	1.517224312	1.583194733	-0.003004074	0.013542175	0.001716614	-0.921142578	0.491455078	-0.067871094	891.34	42.90660041	-77.33479613	-139.690974	-51
25125	0	0.383544922	0.059936523	0.062683105	0.999999046	2.67029E-05	0.000138283	-6.10352E-05	9.588623047	1.498413086	1.567077637	0.001335144	0.006914139	-0.003051758	-0.921142578	0.489257813	-0.070556641	891.4	42.90844436	-77.30393362	-139.6976333	-52
25126	0	0.385656357	0.061695099	0.062418938	0.999999046	9.34601E-05	4.57764E-05	9.91821E-05	9.64140892	1.542377472	1.560473442	0.004673004	0.002288818	0.004959106	-0.921142578	0.491455078	-0.067871094	891.36	42.89073384	-77.29340443	-139.6822221	-51
25127	0	0.384460449	0.063049316	0.062072754	0.999999046	-4.57764E-05	-1.04904E-05	4.95911E-05	9.61151123	1.57623291	1.551818848	-0.002288818	-0.000524521	0.002479553	-0.921142578	0.491455078	-0.070800781	891.4	42.89578489	-77.28374396	-139.7000416	-51
25128	0	0.385870934	0.061600685	0.061885834	0.999999046	-0.000288963	0.000270844	5.72205E-05	9.646773338	1.540017128	1.547145844	-0.014448166	0.013542176	0.002861023	-0.921142578	0.491455078	-0.067871094	891.34	42.77362299	-77.25113879	-139.6225937	-52
25129	0	0.38482666	0.061401367	0.061706543	0.999999046	-0.000289917	0.000447273	-0.000133514	9.620666504	1.53503418	1.542663574	-0.01449585	0.022363664	-0.006675721	-0.921142578	0.491455078	-0.067871094	891.46	42.66281833	-77.18891702	-139.5577589	-52
25130	0	0.383593559	0.061954498	0.063426971	0.999999046	-0.000238419	0.000444412	9.15527E-05	9.589838982	1.548862457	1.585674286	-0.011920929	0.022220613	0.004577637	-0.918701172	0.491455078	-0.067871094	891.4	42.47691474	-77.14436737	-139.4100709	-52
25131	0	0.383239746	0.060913086	0.063293457	0.999999046	-0.000301361	0.000206947	-4.95911E-05	9.580993652	1.522827148	1.582336426	-0.015068055	0.010347367	-0.002479553	-0.921142578	0.491455078	-0.067871094	891.36	42.41756142	-77.1089837	-139.4003194	-52
25132	0	0.383756638	0.061766624	0.063488007	0.999999046	1.23978E-05	-0.000118256	-2.76566E-05	9.593915939	1.544165611	1.587200165	0.000619888	-0.005912781	-0.001382828	-0.921386719	0.491455078	-0.064941406	891.4	42.49633519	-77.10285457	-139.5008382	-52
25133	0	0.383972168	0.061889648	0.063781738	0.999999046	7.62939E-05	-2.86102E-06	4.57764E-05	9.599304199	1.547241211	1.594543457	0.003814697	-0.000143051	0.002288818	-0.921142578	0.489257813	-0.070556641	891.4	42.51666893	-77.09268371	-139.5221829	-51
25134	0	0.384710312	0.061741829	0.064378738	0.999999046	9.72748E-05	-8.58307E-05	4.57764E-05	9.617757797	1.543545723	1.60946846	0.004863739	-0.004291534	0.002288818	-0.921142578	0.489257813	-0.070556641	891.4	42.56763211	-77.08955701	-139.5722738	-51
25135	0	0.385437012	0.063903809	0.06262207	0.999999046	0.000102997	1.23978E-05	0.000209808	9.635925293	1.597595215	1.565551758	0.005149841	0.000619888	0.010490418	-0.918701172	0.489013672	-0.070800781	891.42	42.52645172	-77.09088816	-139.5260989	-52
25136	0	0.384729385	0.063999176	0.063227654	0.999999046	8.86917E-05	6.67572E-05	5.62668E-05	9.618234634	1.599979401	1.580691338	0.004434586	0.00333786	0.002813339	-0.921142578	0.489257813	-0.067626953	891.46	42.52254565	-77.07574515	-139.5275424	-51
25137	0	0.383850098	0.063537598	0.064147949	0.999999046	-8.7738E-05	9.63211E-05	0.000114441	9.596252441	1.588439941	1.60369873	-0.004386902	0.004816055	0.005722046	-0.921142578	0.489257813	-0.067626953	891.46	42.46759114	-77.06258934	-139.497324	-52
25138	0	0.382997513	0.062217712	0.064352989	0.999999046	-0.000257492	-5.34058E-05	0.000170708	9.57493782	1.55544281	1.60882473	-0.012874603	-0.002670288	0.008535385	-0.918701172	0.491455078	-0.067871094	891.4	42.42319829	-77.06645017	-139.4954486	-52
25139	0	0.383850098	0.063232422	0.063842773	0.999999046	-0.000209808	-0.000182152	8.39233E-05	9.596252441	1.580810547	1.596069336	-0.010490418	-0.00910759	0.004196167	-0.918701172	0.489013672	-0.067871094	891.46	42.46011075	-77.07449241	-139.570355	-52
25140	0	0.383639336	0.061920166	0.063544273	0.999999046	-0.000123024	-0.000198364	2.95639E-05	9.590983391	1.54800415	1.588606834	-0.006151199	-0.009918213	0.001478195	-0.918945313	0.491455078	-0.064941406	891.4	42.53279791	-77.07974239	-139.6764099	-52
25141	0	0.383972168	0.061889648	0.063476563	0.999999046	-7.62939E-06	-0.000163078	0.000152588	9.599304199	1.547241211	1.586914063	-0.00038147	-0.008153915	0.007629395	-0.918945313	0.491455078	-0.064941406	891.42	42.5618501	-77.09158748	-139.7232676	-52
25142	0	0.384256363	0.062563896	0.064510345	0.999999046	-0.000106812	-0.00012207	0.000144958	9.606409073	1.564097404	1.612758636	-0.005340576	-0.006103516	0.007247925	-0.918701172	0.489013672	-0.067871094	891.46	42.56876204	-77.09937017	-139.7523759	-51
25143	0	0.385253906	0.062011719	0.063049316	0.999999046	0.000102997	-0.000189781	0.000190735	9.631347656	1.550292969	1.57623291	0.005149841	-0.00948906	0.009536743	-0.921142578	0.491455078	-0.067871094	891.4	42.60614965	-77.11649248	-139.7880566	-52
25144	0	0.384630203	0.062060356	0.063011169	0.999999046	1.62125E-05	2.67029E-05	0.000250816	9.615755081	1.551508904	1.575279236	0.000810623	0.001335144	0.012540817	-0.921386719	0.491455078	-0.064941406	891.24	42.53835729	-77.12007319	-139.7322463	-51
25145	0	0.3828125	0.060791016	0.064208984	0.999999046	0.000110626	9.53674E-07	0.000247955	9.5703125	1.519775391	1.605224609	0.005531311	4.76837E-05	0.012397766	-0.921142578	0.489257813	-0.064697266	891.4	42.49108133	-77.12563021	-139.6871517	-52
25146	0	0.384001732	0.06030941	0.065232277	0.999999046	0.000192642	-0.000162125	0.000358582	9.600043297	1.507735252	1.630806923	0.009632111	-0.008106232	0.017929078	-0.918701172	0.489013672	-0.067871094	891.4	42.46719803	-77.1535452	-139.6488557	-52
25147	0	0.384521484	0.061035156	0.063354492	0.999999046	0.000247955	-0.000288963	0.000297546	9.613037109	1.525878906	1.583862305	0.012397767	-0.014448166	0.01487732	-0.918945313	0.493652344	-0.068115234	891.34	42.51548147	-77.18752385	-139.6765703	-52
25148	0	0.385082245	0.061264038	0.062306404	0.999999046	0.000290871	-0.000192642	0.000227928	9.627056122	1.531600952	1.557660103	0.014543534	-0.009632111	0.011396408	-0.918701172	0.491210938	-0.070800781	891.42	42.56225113	-77.20806043	-139.6922906	-52
25149	0	0.384338379	0.060546875	0.063537598	0.999999046	0.000411987	-0.00026226	0.000221252	9.608459473	1.513671875	1.588439941	0.020599366	-0.013113022	0.011062623	-0.921386719	0.491455078	-0.062011719	891.26	42.64928085	-77.23401178	-139.7538004	-52
25150	0	0.384153366	0.060001373	0.063162804	0.999999046	0.000274658	-0.000213623	0.000221252	9.603834152	1.500034332	1.579070091	0.013732911	-0.010681153	0.011062622	-0.918701172	0.491455078	-0.067871094	891.4	42.7040916	-77.25591771	-139.7850871	-53
25151	0	0.385559082	0.059814453	0.060913086	0.999999046	0.000347137	-0.000304222	0.000228882	9.638977051	1.495361328	1.522827148	0.017356873	-0.015211106	0.011444092	-0.918945313	0.491455078	-0.064941406	891.42	42.79596979	-77.28620356	-139.8514704	-53
25152	0	0.385745049	0.060716629	0.059963226	0.999999046	0.000382423	-0.000286102	0.00039959	9.643626213	1.517915726	1.499080658	0.019121171	-0.014305116	0.019979478	-0.921386719	0.493652344	-0.065185547	891.42	42.8227132	-77.32840538	-139.8466189	-52
25153	0	0.38482666	0.060546875	0.062072754	0.999999046	0.000556946	-0.000361443	0.000484467	9.620666504	1.513671875	1.551818848	0.027847293	-0.01807213	0.02422333	-0.918945313	0.493652344	-0.062255859	891.4	42.86400962	-77.3836146	-139.8411498	-52
25154	0	0.38425827	0.059938431	0.062336922	0.999999046	0.000303268	-0.000352859	0.000255585	9.606456757	1.49846077	1.558423042	0.015163422	-0.017642976	0.012779236	-0.918945313	0.493652344	-0.068115234	891.4	42.95941434	-77.42028578	-139.9080968	-52
25155	0	0.385620117	0.061340332	0.059875488	0.999999046	0.000427246	-0.000452995	0.000358582	9.64050293	1.533508301	1.496887207	0.021362307	-0.022649767	0.017929079	-0.918945313	0.493652344	-0.065185547	891.34	43.06649797	-77.47346202	-139.9776573	-52
25156	0	0.384803772	0.061116219	0.061548233	0.999999046	0.000357628	-0.000360489	0.00026989	9.620094299	1.527905464	1.538705826	0.017881394	-0.018024446	0.013494492	-0.918945313	0.495849609	-0.065429688	891.4	43.16725903	-77.51193089	-140.0474943	-52
25157	0	0.385681152	0.060180664	0.060974121	0.999999046	0.000148773	-0.000483513	0.000415802	9.642028809	1.504516602	1.524353027	0.00743866	-0.024175646	0.020790102	-0.919189453	0.495849609	-0.0625	891.34	43.23319418	-77.57215435	-140.1107403	-52
25158	0	0.386461258	0.059999466	0.060703278	0.999999046	9.53674E-05	-0.000366211	0.000343323	9.661531448	1.499986649	1.51758194	0.004768372	-0.018310548	0.017166138	-0.918945313	0.493652344	-0.065185547	891.4	43.27923098	-77.61693299	-140.1533465	-52
25159	0	0.387512207	0.059448242	0.060058594	0.999999046	-0.000118256	-0.000342369	0.000358582	9.687805176	1.486206055	1.501464844	-0.005912781	-0.017118455	0.017929078	-0.918945313	0.493652344	-0.068115234	891.4	43.28675881	-77.66100069	-140.1742201	-52
25160	0	0.384177208	0.058792114	0.059868813	0.999999046	-4.48227E-05	-0.000402451	0.000441551	9.604430199	1.469802856	1.496720314	-0.002241135	-0.020122529	0.022077562	-0.919189453	0.498046875	-0.062744141	891.42	43.29269644	-77.71666488	-140.194017	-52
25161	0	0.383300781	0.056762695	0.060791016	0.999999046	-7.24792E-05	-0.000628471	0.000293732	9.582519531	1.419067383	1.519775391	-0.003623963	-0.031423571	0.014686586	-0.919189453	0.498291016	-0.059814453	891.4	43.43393483	-77.77959225	-140.3589553	-53
25162	0	0.385059357	0.057625771	0.06080246	0.999999046	-8.2016E-05	-0.000629425	0.000232697	9.626483917	1.440644264	1.520061493	-0.0041008	-0.031471255	0.011634828	-0.918945313	0.495849609	-0.065429688	891.36	43.59908978	-77.83771943	-140.5357026	-52
25163	0	0.386230469	0.056335449	0.058776855	0.999999046	-0.000225067	-0.000502586	0.00019455	9.655761719	1.40838623	1.469421387	-0.011253358	-0.02512932	0.009727479	-0.916992188	0.498046875	-0.056884766	891.36	43.71695968	-77.88236585	-140.6951555	-52
25164	0	0.386800766	0.057683945	0.059206009	0.999999046	4.76837E-06	-0.000295639	0.000182152	9.67001915	1.442098618	1.480150223	0.000238419	-0.014781952	0.00910759	-0.916992188	0.498046875	-0.056884766	891.36	43.79005858	-77.90891268	-140.7806582	-53
25165	0	0.385925293	0.059265137	0.057556152	0.999999046	-0.000152588	-0.000243187	0.000125885	9.648132324	1.481628418	1.438903809	-0.007629395	-0.012159348	0.006294251	-0.919189453	0.495849609	-0.056640625	891.48	43.84802442	-77.92669072	-140.869169	-53
25166	0	0.387980461	0.058051109	0.055247307	0.999999046	-0.000320435	-3.05176E-05	1.90735E-05	9.699511528	1.451277733	1.381182671	-0.016021729	-0.001525879	0.000953674	-0.919433594	0.498291016	-0.053955078	891.46	43.84962893	-77.91859607	-140.9239542	-53
25167	0	0.387451172	0.059143066	0.057434082	0.999999046	-0.000442505	0.000226021	-0.00012207	9.686279297	1.47857666	1.435852051	-0.022125245	0.011301041	-0.006103516	-0.919189453	0.495849609	-0.059570313	891.34	43.79696664	-77.87815517	-140.9260392	-53
25168	0	0.383868217	0.059181213	0.062602997	0.999999046	-0.000664711	0.000413895	2.28882E-05	9.596705437	1.479530334	1.565074921	-0.033235553	0.020694735	0.001144409	-0.919433594	0.498291016	-0.053955078	891.4	43.59373255	-77.83347912	-140.8114601	-52
25169	0	0.385192871	0.058105469	0.060058594	0.999999046	-0.00069809	0.000123024	-7.24792E-05	9.629821777	1.452636719	1.501464844	-0.034904483	0.0061512	-0.003623963	-0.919189453	0.498046875	-0.062744141	891.42	43.53042911	-77.80536569	-140.8249338	-52
25170	0	0.384375572	0.057161331	0.060293198	0.999999046	-0.000534058	-3.24249E-05	-2.38419E-05	9.609389305	1.429033279	1.507329941	-0.026702882	-0.001621246	-0.001192093	-0.921630859	0.498291016	-0.056640625	891.34	43.52356705	-77.79405008	-140.888862	-51
25171	0	0.38458252	0.058776855	0.058410645	0.999999046	-0.000328064	-0.000117302	6.86646E-05	9.614562988	1.469421387	1.460266113	-0.016403199	-0.005865097	0.003433228	-0.919189453	0.495849609	-0.059570313	891.42	43.53592839	-77.797139	-140.9408357	-51
25172	0	0.385702133	0.057160378	0.056769371	0.999999046	-0.00042057	-0.000171661	-0.000100136	9.642553329	1.429009438	1.419234276	-0.021028519	-0.008583069	-0.00500679	-0.916748047	0.495849609	-0.056640625	891.34	43.62248283	-77.79157738	-141.0832404	-52
25173	0	0.386779785	0.05859375	0.054321289	0.999999046	-0.000259399	-0.000247002	0	9.669494629	1.46484375	1.358032227	-0.012969971	-0.012350083	0	-0.919433594	0.49609375	-0.047851563	891.34	43.71742023	-77.80037055	-141.2322304	-51
25174	0	0.386441231	0.058197975	0.055807114	0.999999046	-0.000247955	-0.000146866	0.000198364	9.661030769	1.454949379	1.395177841	-0.012397766	-0.007343292	0.009918213	-0.921630859	0.49609375	-0.056396484	891.3	43.70153428	-77.81672494	-141.2485804	-51
25175	0	0.386047363	0.057373047	0.053771973	0.999999046	-0.000164032	-0.000166893	0.000156403	9.651184082	1.434326172	1.344299316	-0.008201599	-0.00834465	0.007820129	-0.919189453	0.495849609	-0.053710938	891.3	43.71934758	-77.83167929	-141.2933541	-51
25176	0	0.386938095	0.058027267	0.054820061	0.999999046	-0.000208855	6.48499E-05	0.000141144	9.673452377	1.450681686	1.370501518	-0.010442734	0.003242493	0.00705719	-0.919433594	0.49609375	-0.05078125	891.34	43.65334476	-77.82642779	-141.263305	-52
25177	0	0.386169434	0.058776855	0.057312012	0.999999046	-6.10352E-05	6.58035E-05	0.00037384	9.65423584	1.469421387	1.432800293	-0.003051758	0.003290176	0.018692017	-0.919189453	0.495849609	-0.053710938	891.46	43.5146428	-77.83953642	-141.1356947	-52
25178	0	0.384923935	0.058542252	0.057673454	0.999999046	5.53131E-05	-4.3869E-05	0.00020504	9.623098373	1.46355629	1.441836357	0.002765656	-0.002193451	0.010251999	-0.916748047	0.495849609	-0.053710938	891.34	43.49456517	-77.84845519	-141.1149946	-52
25179	0	0.383850098	0.059387207	0.058410645	0.999999046	-2.28882E-05	-0.000132561	0.000202179	9.596252441	1.484680176	1.460266113	-0.001144409	-0.006628037	0.010108948	-0.916748047	0.495849609	-0.059570313	891.36	43.49936015	-77.8644944	-141.1165738	-52
25180	0	0.384500504	0.061731339	0.059165001	0.999999046	-8.86917E-05	-0.000221252	7.24792E-05	9.612512589	1.543283463	1.479125023	-0.004434586	-0.011062622	0.003623962	-0.916992188	0.495849609	-0.05078125	891.42	43.57986267	-77.87753987	-141.2201834	-52
25181	0	0.387023926	0.060791016	0.057861328	0.999999046	-0.000301361	-0.000182152	3.05176E-05	9.675598145	1.519775391	1.446533203	-0.015068055	-0.00910759	0.001525879	-0.919433594	0.49609375	-0.05078125	891.4	43.63848072	-77.88397543	-141.3254939	-52
25182	0	0.387658119	0.060243607	0.057816505	0.999999046	-0.000524521	-4.57764E-05	-0.000118256	9.69145298	1.506090164	1.445412636	-0.026226045	-0.002288818	-0.005912781	-0.919189453	0.495849609	-0.053710938	891.48	43.67910554	-77.86731468	-141.4311382	-52
25183	0	0.387268066	0.060424805	0.057373047	0.999999046	-0.000419617	0.000245094	-8.01086E-05	9.68170166	1.510620117	1.434326172	-0.020980836	0.012254715	-0.004005432	-0.919433594	0.498291016	-0.051025391	891.42	43.61045931	-77.82956856	-141.4177512	-53
25184	0	0.383933067	0.059520721	0.059257507	0.999999046	-0.000405312	0.000555038	2.67029E-05	9.598326683	1.488018036	1.481437683	-0.020265581	0.027751925	0.001335144	-0.916748047	0.495849609	-0.056640625	891.4	43.38982966	-77.77442361	-141.2366464	-52
25185	0	0.383789063	0.058044434	0.060302734	0.999999046	-0.000217438	0.000424385	0.000160217	9.594726563	1.45111084	1.507568359	-0.010871888	0.021219254	0.008010865	-0.919433594	0.500488281	-0.056884766	891.42	43.18794963	-77.7405146	-141.0535294	-52
25186	0	0.383450508	0.057955742	0.060529709	0.999999046	2.09808E-05	0.000169754	0.000240326	9.586262703	1.448893547	1.513242722	0.001049042	0.008487702	0.012016297	-0.919189453	0.495849609	-0.056640625	891.34	43.07476273	-77.7340625	-140.9352604	-52
25187	0	0.385559082	0.058776855	0.059326172	0.999999046	0.000167847	0.000164986	0.000457764	9.638977051	1.469421387	1.483154297	0.008392334	0.008249283	0.022888185	-0.921630859	0.498291016	-0.056640625	891.34	42.89636887	-77.74496796	-140.7345733	-53
25188	0	0.386081696	0.05801487	0.057601929	0.999999046	-4.673E-05	6.86646E-05	0.000319481	9.652042389	1.450371742	1.440048218	-0.002336502	0.003433228	0.015974045	-0.916992188	0.495849609	-0.05078125	891.46	42.78144015	-77.75320886	-140.6350768	-52
25189	0	0.386291504	0.059020996	0.055603027	0.999999046	1.52588E-05	0.000142097	0.000461578	9.657287598	1.475524902	1.390075684	0.000762939	0.007104874	0.023078919	-0.919189453	0.495849609	-0.053710938	891.36	42.59276718	-77.76639685	-140.4481595	-53
25190	0	0.386510849	0.057200432	0.058944702	0.999999046	0.000228882	0.000131607	0.000328064	9.662771225	1.430010796	1.473617554	0.011444092	0.006580353	0.016403199	-0.919433594	0.498291016	-0.053955078	891.36	42.48402396	-77.77010998	-140.3181179	-53
25191	0	0.386901855	0.057128906	0.060058594	0.999999046	0.000209808	9.53674E-07	0.000358582	9.672546387	1.428222656	1.501464844	0.010490418	4.76837E-05	0.017929078	-0.919433594	0.500488281	-0.053955078	891.46	42.40752485	-77.78723665	-140.2233995	-53
25192	0	0.386148453	0.056144714	0.060278893	0.999999046	0.0001688	0.000286102	0.000426292	9.653711319	1.403617859	1.506972313	0.008440018	0.014305115	0.021314622	-0.916748047	0.495849609	-0.053710938	891.36	42.19761405	-77.78542842	-139.9989369	-52
25193	0	0.386535645	0.055541992	0.059936523	0.999999046	0.000324249	4.29153E-05	0.000255585	9.663391113	1.388549805	1.498413086	0.016212464	0.002145767	0.012779236	-0.919433594	0.500488281	-0.053955078	891.4	42.15862082	-77.7911267	-139.9313989	-52
25194	0	0.385338783	0.056603432	0.059504509	0.999999046	0.000175476	0.000169754	0.000132561	9.633469582	1.415085793	1.487612724	0.008773804	0.008487702	0.006628037	-0.916992188	0.500488281	-0.054199219	891.42	42.10580847	-77.77663638	-139.8667709	-53
25195	0	0.384521484	0.057006836	0.061889648	0.999999046	0.000278473	0.000279427	0.000125885	9.613037109	1.425170898	1.547241211	0.013923645	0.013971329	0.006294251	-0.916992188	0.500244141	-0.060058594	891.4	42.02847514	-77.75223756	-139.7547455	-53
25196	0	0.384866714	0.056272507	0.061705589	0.999999046	0.000231743	-7.62939E-06	0.000190735	9.621667862	1.406812668	1.542639732	0.011587143	-0.00038147	0.009536743	-0.916992188	0.500488281	-0.057128906	891.42	42.02158806	-77.75723244	-139.7266552	-53
25197	0	0.385253906	0.05657959	0.060852051	0.999999046	0.000125885	-0.000178337	0.000102997	9.631347656	1.414489746	1.52130127	0.006294251	-0.008916855	0.005149841	-0.914550781	0.500244141	-0.060058594	891.4	42.09723256	-77.77003956	-139.7884107	-52
25198	0	0.386689186	0.054499626	0.058013916	0.999999046	0.000291824	-0.000307083	2.57492E-05	9.667229652	1.362490654	1.4503479	0.014591217	-0.015354157	0.00128746	-0.916992188	0.500488281	-0.057128906	891.4	42.2679957	-77.78801227	-139.9340456	-53
25199	0	0.388061523	0.055664063	0.055969238	0.999999046	0.000465393	-0.000117302	4.95911E-05	9.701538086	1.391601563	1.399230957	0.023269654	-0.005865097	0.002479553	-0.916992188	0.500244141	-0.062988281	891.36	42.38235595	-77.79191427	-139.9903342	-53
25200	0	0.38728714	0.056838989	0.058692932	0.999999046	0.000374794	-0.000164032	9.53674E-05	9.682178497	1.420974731	1.467323303	0.018739701	-0.008201599	0.004768372	-0.916992188	0.500244141	-0.060058594	891.34	42.48528645	-77.80337502	-140.0517046	-53
25201	0	0.386291504	0.055664063	0.057617188	0.999999046	0.000198364	-0.000128746	3.8147E-06	9.657287598	1.391601563	1.440429688	0.009918213	-0.006437302	0.000190735	-0.916992188	0.500244141	-0.060058594	891.46	42.59125843	-77.80489078	-140.1367697	-53
25202	0	0.386367798	0.057209015	0.057982445	0.999999046	0.000177383	7.43866E-05	-0.000157356	9.659194946	1.430225372	1.449561119	0.008869171	0.00371933	-0.007867813	-0.916992188	0.498046875	-0.053955078	891.46	42.68483515	-77.77682584	-140.2246631	-52
25203	0	0.383056641	0.059265137	0.059265137	0.999999046	8.01086E-05	-0.00014782	1.52588E-05	9.576416016	1.481628418	1.481628418	0.004005432	-0.007390976	0.000762939	-0.919433594	0.498291016	-0.056884766	891.36	42.77998406	-77.78079554	-140.3197015	-52
25204	0	0.383318901	0.057858467	0.057310104	0.999999046	-3.52859E-05	-0.000555038	3.8147E-06	9.582972527	1.446461678	1.432752609	-0.001764298	-0.027751924	0.000190735	-0.916992188	0.498046875	-0.056884766	891.48	43.01380526	-77.81806021	-140.5671526	-53
25205	0	0.385375977	0.057495117	0.058776855	0.999999046	-0.000209808	-0.000597954	-0.000175476	9.634399414	1.43737793	1.469421387	-0.010490418	-0.029897692	-0.008773804	-0.916992188	0.500488281	-0.057128906	891.36	43.31412743	-77.84463611	-140.8993294	-52
25206	0	0.385972977	0.058826447	0.057484627	0.999999046	-0.000244141	-0.000734329	-4.673E-05	9.649324417	1.470661163	1.437115669	-0.012207032	-0.036716465	-0.002336502	-0.916992188	0.498046875	-0.056884766	891.46	43.61267871	-77.89235506	-141.2313028	-53
25207	0	0.386962891	0.058227539	0.056213379	0.999999046	-6.86646E-05	-0.000655174	-0.000114441	9.674072266	1.455688477	1.405334473	-0.003433228	-0.032758715	-0.005722046	-0.919433594	0.498291016	-0.051025391	891.46	43.93083466	-77.92785711	-141.5724272	-52
25208	0	0.387997627	0.058003426	0.054430008	0.999999046	-2.19345E-05	-0.000341415	1.43051E-05	9.699940681	1.45008564	1.360750198	-0.001096725	-0.017070771	0.000715256	-0.916748047	0.495849609	-0.053710938	891.48	44.0896966	-77.94760519	-141.7379419	-52
25209	0	0.385498047	0.058227539	0.055480957	0.999999046	-9.91821E-05	-0.000266075	-7.24792E-05	9.637451172	1.455688477	1.387023926	-0.004959107	-0.013303757	-0.003623962	-0.919433594	0.498291016	-0.051025391	891.48	44.24560251	-77.95420131	-141.9138852	-53
25210	0	0.384786606	0.057477951	0.055408478	0.999999046	5.72205E-05	-0.000314713	0.000109673	9.619665146	1.436948776	1.385211945	0.002861023	-0.015735627	0.005483627	-0.916992188	0.498291016	-0.048095703	891.46	44.36796969	-77.97936175	-142.041231	-52
25211	0	0.385803223	0.059143066	0.055419922	0.999999046	1.52588E-05	-0.000266075	0.000167847	9.645080566	1.47857666	1.385498047	0.000762939	-0.013303757	0.008392334	-0.916992188	0.498291016	-0.048095703	891.36	44.44556242	-78.00518625	-142.1266067	-53
25212	0	0.386340141	0.059929848	0.054234505	0.999999046	-7.15256E-05	-0.000259399	0.000198364	9.658503532	1.498246193	1.355862617	-0.003576279	-0.012969971	0.009918213	-0.919189453	0.493652344	-0.053466797	891.4	44.49986085	-78.03293025	-142.1878126	-53
25213	0	0.383789063	0.059570313	0.053710938	0.999999046	-9.91821E-05	-0.000163078	0.000320435	9.594726563	1.489257813	1.342773438	-0.004959107	-0.008153916	0.016021729	-0.916992188	0.498046875	-0.053955078	891.4	44.46809229	-78.062626	-142.1613032	-52
25214	0	0.380731583	0.059620857	0.053170204	0.999999046	-0.000387192	-0.000453949	0.00043869	9.518289566	1.490521431	1.329255104	-0.01935959	-0.022697451	0.021934511	-0.919433594	0.49609375	-0.047851563	891.42	44.46876622	-78.12560468	-142.2127387	-52
25215	0	0.385253906	0.059997559	0.050109863	0.999999046	-0.001018524	-0.000601768	0.000350952	9.631347656	1.499938965	1.252746582	-0.050926221	-0.030088432	0.017547612	-0.919433594	0.500488281	-0.051025391	891.5	44.48954756	-78.19373729	-142.3472551	-53
25216	0	0.392004967	0.059686661	0.047195435	0.999998093	-0.001348495	-0.000552177	0.000263214	9.800124168	1.492166519	1.179885864	-0.067424799	-0.027608882	0.01316071	-0.917236328	0.500488281	-0.045410156	891.42	44.49034307	-78.251036	-142.5060009	-52
25217	0	0.388793945	0.056884766	0.048034668	0.999998093	-0.001597404	-0.000453949	0.000137329	9.719848633	1.422119141	1.200866699	-0.079870261	-0.022697459	0.006866458	-0.917236328	0.500488281	-0.042480469	891.46	44.47586399	-78.2904729	-142.6792176	-53
25218	0	0.389279366	0.053877831	0.04785347	0.999999046	-0.001167297	0.000480652	2.76566E-05	9.731984138	1.346945763	1.196336746	-0.058364884	0.024032599	0.001382828	-0.917236328	0.498291016	-0.039306641	891.4	44.1935229	-78.24498585	-142.5346208	-52
25219	0	0.387268066	0.057800293	0.050292969	0.999999046	-0.000614166	0.000962257	0.00019455	9.68170166	1.445007324	1.257324219	-0.03070832	0.04811288	0.00972748	-0.917236328	0.498291016	-0.045166016	891.46	43.72813222	-78.17298849	-142.1287301	-52
25220	0	0.38774395	0.057709694	0.050010681	0.999998093	-0.000955582	0.00114727	0.000319481	9.693598747	1.442742348	1.250267029	-0.047779102	0.057363532	0.015974051	-0.917236328	0.498291016	-0.045166016	891.32	43.11158327	-78.09484362	-141.6106828	-53
25221	0	0.388000488	0.055236816	0.04864502	0.999998093	-0.000926018	0.001159668	8.01086E-05	9.700012207	1.38092041	1.216125488	-0.046300905	0.05798342	0.004005434	-0.919433594	0.498291016	-0.045166016	891.4	42.59729906	-77.99629933	-141.1964736	-52
25222	0	0.389367104	0.055638313	0.046538353	0.999997139	-0.0014534	0.001365662	3.33786E-05	9.734177589	1.390957832	1.163458824	-0.072670031	0.068283126	0.001668931	-0.917236328	0.498291016	-0.045166016	891.4	41.97669057	-77.87628571	-140.7364586	-53
25223	0	0.389099121	0.055786133	0.046203613	0.999997139	-0.001113892	0.001618385	7.62939E-06	9.727478027	1.39465332	1.155090332	-0.055694616	0.080919318	0.00038147	-0.916992188	0.500488281	-0.051269531	891.34	41.32910151	-77.73208824	-140.1995307	-53
25224	0	0.387243271	0.055922508	0.046298981	0.999997139	-0.001021385	0.002120972	-9.91821E-05	9.681081772	1.398062706	1.157474518	-0.051069307	0.106048682	-0.004959111	-0.917236328	0.500488281	-0.048339844	891.42	40.57936589	-77.53551679	-139.5582678	-52
25225	0	0.385070801	0.055297852	0.046630859	0.999996185	-0.001002312	0.002285004	-0.0001297	9.62677002	1.382446289	1.165771484	-0.050115637	0.114250302	-0.006484992	-0.919433594	0.498291016	-0.048095703	891.34	39.81359239	-77.32106246	-138.9053867	-52
25226	0	0.389802933	0.051893234	0.044243813	0.999996185	-0.001170158	0.002381325	-0.000424385	9.745073318	1.297330856	1.106095314	-0.05850799	0.119066382	-0.021219279	-0.916748047	0.495849609	-0.059570313	891.42	39.13816212	-77.07567128	-138.346756	-52
25227	0	0.390563965	0.051269531	0.04309082	0.999995232	-0.000812531	0.002835274	-0.000419617	9.764099121	1.281738281	1.077270508	-0.040626586	0.141763897	-0.020980866	-0.919189453	0.495849609	-0.056640625	891.42	38.38798919	-76.78955412	-137.6835888	-52
25228	0	0.389796257	0.050674438	0.042880058	0.999993324	-0.000275612	0.003555298	-0.000379562	9.744906425	1.266860962	1.072001457	-0.013780623	0.177765274	-0.01897816	-0.919189453	0.495849609	-0.0625	891.48	37.50612139	-76.44015542	-136.8209226	-53
25229	0	0.388977051	0.051269531	0.046203613	0.999990463	-0.000121117	0.004150391	-0.000350952	9.72442627	1.281738281	1.155090332	-0.006055849	0.207520132	-0.017547658	-0.918701172	0.493652344	-0.073974609	891.48	36.5129086	-76.03606432	-135.81573	-52
25230	0	0.386851311	0.053788185	0.047231674	0.999988556	6.00815E-05	0.004719734	-0.000358582	9.671282768	1.344704628	1.180791855	0.003004085	0.235987591	-0.017929144	-0.918457031	0.491210938	-0.082519531	891.46	35.45354787	-75.57547574	-134.7192767	-52
25231	0	0.382202148	0.052856445	0.050598145	0.999987602	-9.91821E-05	0.004868507	-0.000499725	9.555053711	1.321411133	1.264953613	-0.004959126	0.243426341	-0.024986367	-0.920898438	0.493652344	-0.085693359	891.42	34.45857255	-75.08790969	-133.7168415	-53
25232	0	0.382447243	0.050115585	0.053051949	0.999985695	1.62125E-05	0.005149841	-0.000610352	9.561181068	1.252889633	1.326298714	0.000810627	0.25749322	-0.030517715	-0.918457031	0.493408203	-0.097412109	891.46	33.51511752	-74.56338549	-132.7453087	-52
25233	0	0.384399414	0.051757813	0.053771973	0.999983788	6.48499E-05	0.005555153	-0.000762939	9.609985352	1.293945313	1.344299316	0.00324251	0.2777591	-0.038147173	-0.918212891	0.493164063	-0.109130859	891.42	32.60570869	-73.98757565	-131.7968222	-52
25234	0	0.381764412	0.054667473	0.061488152	0.99998188	0.00034523	0.005844116	-0.000525475	9.544110298	1.366686821	1.537203789	0.017261605	0.292207493	-0.026273879	-0.920166016	0.488769531	-0.120361328	891.36	31.65734816	-73.39508912	-130.7725853	-52
25235	0	0.378356934	0.052490234	0.065612793	0.99998188	4.19617E-05	0.005898476	-0.000591278	9.45892334	1.312255859	1.640319824	0.002098096	0.29492551	-0.029564077	-0.917724609	0.488525391	-0.126464844	891.46	30.75419381	-72.78980081	-129.8365555	-52
25236	0	0.381129265	0.049406052	0.067544937	0.999982834	-8.96454E-05	0.005631447	-0.000954628	9.528231621	1.235151291	1.688623428	-0.004482294	0.281573873	-0.047731659	-0.917236328	0.486328125	-0.137939453	891.34	30.05932003	-72.18728422	-129.1284152	-52
25237	0	0.378234863	0.05291748	0.071472168	0.999979973	0.000904083	0.006054878	-0.00094986	9.455871582	1.322937012	1.786804199	0.045204452	0.302745848	-0.047493285	-0.919433594	0.483886719	-0.155273438	891.46	29.45011865	-71.54161891	-128.3781128	-52
25238	0	0.376906395	0.051556587	0.068624496	0.999977112	0.001633644	0.006360054	-0.001026154	9.422659874	1.28891468	1.715612411	0.081682807	0.318005042	-0.051308056	-0.914306641	0.481445313	-0.1640625	891.42	28.94297658	-70.8603852	-127.6503261	-53
25239	0	0.37713623	0.051940918	0.066955566	0.999966621	0.002414703	0.007634163	-0.000907898	9.428405762	1.298522949	1.67388916	0.120736475	0.381712276	-0.045395389	-0.913818359	0.479003906	-0.175537109	891.42	28.34244288	-70.05698807	-126.7346593	-54
25240	0	0.364243507	0.060405731	0.076386452	0.999958038	0.00217247	0.008812904	-0.000939369	9.106087685	1.51014328	1.909661293	0.108625012	0.440651333	-0.046969112	-0.913330078	0.474365234	-0.192871094	891.4	27.61894284	-69.13023067	-125.7144847	-54
25241	0	0.356384277	0.066833496	0.075378418	0.999960899	-0.000282288	0.008580208	-0.001876831	8.909606934	1.670837402	1.884460449	-0.014114562	0.429015913	-0.093842761	-0.910400391	0.471923828	-0.216308594	891.36	26.96747322	-68.17485169	-125.0480369	-54
25242	0	0.355800629	0.0572052	0.074508667	0.999956131	-0.001271248	0.009062767	-0.001870155	8.895015717	1.430130005	1.862716675	-0.063563317	0.453144941	-0.093509126	-0.909912109	0.467285156	-0.23046875	891.42	26.20106798	-67.16911792	-124.3781988	-55
25243	0	0.354003906	0.051635742	0.072143555	0.99995327	-0.001865387	0.009331703	-0.001586914	8.850097656	1.290893555	1.803588867	-0.093270795	0.466592398	-0.079346934	-0.912109375	0.465087891	-0.241943359	891.42	25.33226701	-66.14832603	-123.6764967	-56
25244	0	0.35377121	0.050450325	0.066187859	0.999946594	-0.001321793	0.010020256	-0.002092361	8.844280243	1.261258125	1.654696465	-0.066090804	0.501021698	-0.10461993	-0.906982422	0.464599609	-0.256835938	891.46	24.63260223	-65.03044723	-123.0865715	-56
25245	0	0.353393555	0.06048584	0.069763184	0.999937057	-0.001559258	0.010757446	-0.002445221	8.834838867	1.512145996	1.74407959	-0.077964488	0.537883443	-0.122263577	-0.904052734	0.459960938	-0.280029297	891.34	23.96873803	-63.81866717	-122.548825	-57
25246	0	0.342181206	0.056970596	0.063889503	0.999926567	-0.002883911	0.011453629	-0.002703667	8.554530144	1.424264908	1.597237587	-0.144199085	0.572695441	-0.135186642	-0.901123047	0.457519531	-0.297607422	891.42	23.20213424	-62.52209179	-122.0600361	-57
25247	0	0.303100586	0.057312012	0.051208496	0.999925613	-0.002257347	0.011299133	-0.003925323	7.577514648	1.432800293	1.280212402	-0.112870143	0.564970618	-0.196271022	-0.8984375	0.455078125	-0.309326172	891.36	22.812622	-61.18782228	-121.9226581	-59
25248	0	0.298372269	0.049156189	0.031263351	0.99991703	-0.002486229	0.011617661	-0.004870415	7.459306717	1.228904724	0.781583786	-0.124314863	0.580898989	-0.243527429	-0.895263672	0.447998047	-0.332275391	891.46	22.57186883	-59.78173522	-121.9718424	-63
25249	0	0.274230957	0.020385742	0.032226563	0.999900818	0.004441261	0.012748718	-0.003997803	6.855773926	0.509643555	0.805664063	0.222070402	0.637456976	-0.199896742	-0.89453125	0.436523438	-0.346191406	891.46	22.88378579	-58.29886198	-121.7727585	-66
25250	0	0.230651855	0.017045975	0.057700157	0.999788284	0.010928154	0.016898155	-0.004102707	5.766296387	0.426149368	1.442503929	0.54644612	0.84496717	-0.205149769	-0.888671875	0.427001953	-0.380859375	891.42	23.65183265	-56.37800013	-121.2389133	-66
25251	0	0.197875977	0.01348877	0.043457031	0.999613762	0.014686584	0.022789955	-0.005977631	4.946899414	0.337219238	1.086425781	0.734423594	1.139644197	-0.298919941	-0.877441406	0.408447266	-0.426757813	891.4	24.727987	-53.76092577	-120.555506	-66
25252	0	0.201608658	0.040752411	-0.003933907	0.999455452	0.014798164	0.028081894	-0.008951187	5.040216446	1.018810272	-0.098347664	0.740042417	1.40434936	-0.447640532	-0.86328125	0.387207031	-0.481445313	891.42	25.87768749	-50.46290876	-119.9354498	-70
25253	0	0.216003418	0.054199219	-0.002868652	0.999336243	0.01037693	0.033508301	-0.009799957	5.400085449	1.354980469	-0.071716309	0.518961291	1.675785674	-0.490106261	-0.843994141	0.356689453	-0.547363281	891.36	26.32527384	-46.57453587	-119.027784	-62
25254	0	0.151948929	0.060443878	0.06530571	0.999093056	0.002880096	0.040300369	-0.013397217	3.798723221	1.511096954	1.632642746	0.144048344	2.015627462	-0.670063292	-0.812744141	0.330322266	-0.611328125	891.5	26.03889196	-41.80677689	-118.2491567	-58
25255	0	0.11126709	0.062011719	0.161254883	0.998803139	-0.007850647	0.045403481	-0.016353607	2.781677246	1.550292969	4.03137207	-0.392688912	2.271079495	-0.818006494	-0.774169922	0.305908203	-0.684814453	891.46	24.72197491	-36.35299472	-117.7060103	-62
25256	0	0.075802803	-0.00259304	0.081313133	0.998400688	-0.023938179	0.048015594	-0.017771721	1.895070076	-0.064826012	2.032828331	-1.197547096	2.402059727	-0.889059804	-0.729248047	0.301513672	-0.757080078	891.3	21.79072953	-30.5431774	-117.5002071	-67
25257	0	0.1484375	0.010986328	0.249694824	0.996824265	-0.009009361	0.076755524	-0.019187927	3.7109375	0.274658203	6.242370605	-0.450945478	3.841843534	-0.960413149	-0.661376953	0.316650391	-0.823730469	891.42	20.22349414	-21.58501543	-116.59309	-65
25258	0	0.238241196	0.345316887	0.874288559	0.996100426	-0.00304985	0.085054398	-0.023237228	5.956029892	8.632922173	21.85721397	-0.152691041	4.258256148	-1.163373952	-0.527832031	0.293212891	-0.949462891	891.48	19.63428009	-11.54460096	-115.9704756	-67
25259	0	-0.179260254	0.641357422	1.535888672	0.998081207	-0.022105217	0.051994324	-0.025302887	-4.481506348	16.03393555	38.3972168	-1.105968015	2.601379533	-1.265953811	-0.400390625	0.276855469	-1.028564453	891.46	17.23106224	-4.988382169	-116.8990557	-69
25260	0	-0.106920242	0.364501953	1.267822266	0.997010231	-0.017104149	0.066394806	-0.035622597	-2.673006058	9.112548828	31.69555664	-0.856060639	3.323052227	-1.782906777	-0.317382813	0.321044922	-1.060302734	891.6	15.29497253	3.462265382	-118.7275886	-77
25261	0	-0.06652832	0.232910156	0.720153809	0.99944973	-0.015968323	0.028950691	0.002368927	-1.663208008	5.822753906	18.00384521	-0.798562419	1.44779977	0.118468051	-0.215576172	0.317382813	-1.089111328	891.48	13.56652607	6.60394352	-117.6404805	-79
25262	0	0.062890053	0.123170853	0.274332047	0.999473572	-0.032317162	-0.002449989	0.001002312	1.57225132	3.079271317	6.858301163	-1.616141366	-0.122520942	0.050124371	-0.191162109	0.363769531	-1.079833984	891.42	9.877223726	6.296483813	-117.5882389	-70
25263	0	-0.027526855	0.023193359	0.12677002	0.999610901	-0.026602745	0.00756073	-0.003517151	-0.688171387	0.579833984	3.169250488	-1.330309619	0.378085487	-0.175880333	-0.201660156	0.427490234	-1.049316406	891.46	6.804060389	7.203505543	-117.8735999	-80
25264	0	-0.132007599	-0.055861473	0.16981411	0.999930382	-0.007792473	0.008739471	-0.0007658	-3.300189972	-1.396536827	4.245352745	-0.389632584	0.4369836	-0.038290903	-0.196777344	0.470214844	-1.029785156	891.46	5.918072759	8.205575459	-117.8589755	-69
25265	0	-0.256286621	0.015136719	0.257995605	0.999986649	0.000390053	0.004852295	-0.001068115	-6.407165527	0.378417969	6.449890137	0.019502721	0.24261575	-0.053405983	-0.187255859	0.4765625	-1.039550781	891.5	5.956135384	8.779474714	-117.9330117	-79
25266	0	-0.257313728	0.041106224	0.346974373	0.999987602	-0.003099442	-0.001810074	-0.003433228	-6.432843208	1.027655602	8.674359322	-0.154972714	-0.090504065	-0.171662083	-0.191894531	0.472412109	-1.033203125	891.42	5.540858979	8.630808763	-118.3594906	-78
25267	0	-0.207397461	0.051635742	0.428955078	0.999931335	-0.00404644	0.007019043	-0.008434296	-5.184936523	1.290893555	10.72387695	-0.202326619	0.350960149	-0.421724397	-0.204345703	0.477294922	-1.032958984	891.58	4.938041674	9.545139823	-119.2702294	-70
25268	0	-0.174991608	-0.007472038	0.473507881	0.999948502	-0.008705139	-0.001755714	-0.004769325	-4.374790192	-0.186800957	11.83769703	-0.435264329	-0.087787208	-0.238470301	-0.201904297	0.481689453	-1.033447266	891.5	3.847012276	9.415691876	-119.8486504	-69
25269	0	-0.164611816	-0.00213623	0.392089844	0.999843597	-0.012595177	-0.012271881	-0.00182724	-4.11529541	-0.053405762	9.802246094	-0.629791647	-0.613626026	-0.09136676	-0.217773438	0.502685547	-1.016601563	891.48	2.358193301	8.056251224	-120.1473349	-68
25270	0	-0.147110939	-0.048826218	0.35710144	0.999873161	-0.014564514	-0.005237579	0.00369072	-3.677773476	-1.220655441	8.927536011	-0.72825644	-0.261890019	0.184543768	-0.248046875	0.528564453	-0.996582031	891.4	0.739976865	7.4821684	-119.749578	-68
25271	0	-0.205810547	-0.085510254	0.359985352	0.999964714	-0.002311707	-0.007254601	0.003288269	-5.145263672	-2.137756348	8.999633789	-0.115586652	-0.362734185	0.164415337	-0.249511719	0.555908203	-0.978271484	891.46	0.511937654	6.691082651	-119.3898472	-67
25272	0	-0.152421951	-0.00906086	0.319403648	0.999966621	0.001332283	-0.00784874	0.001627922	-3.810548782	-0.226521492	7.985091209	0.066614884	-0.3924413	0.081396999	-0.261962891	0.55859375	-0.975097656	891.48	0.675122658	5.838851199	-119.2225909	-68
25273	0	-0.026611328	-0.043884277	0.366455078	0.999990463	-0.000380516	-0.003211975	0.002696991	-0.665283203	-1.097106934	9.161376953	-0.019025859	-0.16059923	0.134849947	-0.269042969	0.558837891	-0.971679688	891.46	0.650823441	5.514626559	-118.9282515	-69
25274	0	0.044838905	-0.028380394	0.40967083	0.999986649	-8.10623E-05	-0.002724648	0.004179955	1.120972633	-0.70950985	10.24177074	-0.004053133	-0.136232942	0.208998594	-0.266845703	0.563232422	-0.975097656	891.5	0.67405406	5.238943706	-118.4624376	-68
25275	0	0.040649414	0.003051758	0.43182373	0.999957085	0.003562927	-0.006022453	0.005947113	1.016235352	0.076293945	10.79559326	0.178148866	-0.301126898	0.297359831	-0.26953125	0.565673828	-0.969238281	891.48	1.128203626	4.575301772	-117.8005612	-68
25276	0	-0.018065453	-0.00656414	0.42376709	0.999975204	0.004619598	-0.002964973	0.004278183	-0.451636314	-0.164103508	10.59417725	0.230981784	-0.148249869	0.213910876	-0.271484375	0.558837891	-0.971435547	891.5	1.682925645	4.259253806	-117.3287569	-68
25277	0	-0.039245605	0.02734375	0.385742188	0.999973297	0.006005287	0.001232147	0.003761292	-0.981140137	0.68359375	9.643554688	0.300266947	0.061607892	0.188066197	-0.266601563	0.554199219	-0.974365234	891.54	2.39356882	4.420543517	-116.9029873	-67
25278	0	-0.002735138	-0.002884865	0.424314499	0.999961853	0.007414818	-0.003533363	0.002674103	-0.068378448	-0.07212162	10.60786247	0.370745501	-0.176670364	0.133706802	-0.260742188	0.538085938	-0.988037109	891.48	3.253129999	4.034416283	-116.6268332	-66
25279	0	-0.003723145	-0.007995605	0.44921875	0.999909401	0.009613037	-0.009215355	0.001560211	-0.093078613	-0.199890137	11.23046875	0.480666258	-0.460781552	0.078012897	-0.267578125	0.527099609	-0.986572266	891.5	4.348854157	3.000286869	-116.5282363	-66
25280	0	-0.010083199	0.022740364	0.459751129	0.999897957	0.010016441	-0.009784698	0.002630234	-0.252079964	0.568509102	11.49377823	0.500839012	-0.489251477	0.131516138	-0.285644531	0.507324219	-0.995605469	891.54	5.492754608	1.887541712	-116.3344372	-65
25281	0	-0.029907227	0.087768555	0.425048828	0.99994278	0.00565815	-0.008701324	0.002319336	-0.747680664	2.194213867	10.6262207	0.282912819	-0.435074425	0.115968983	-0.299560547	0.4921875	-0.993652344	891.46	6.135329513	0.899178527	-116.1815544	-65
25282	0	-0.035430908	0.118447304	0.461600304	0.999955177	0.002191544	-0.008831024	0.002540588	-0.885772705	2.961182594	11.54000759	0.109578809	-0.441557776	0.127031308	-0.316162109	0.483642578	-0.991943359	891.5	6.381801947	-0.10713308	-116.0133747	-65
25283	0	0.0078125	0.101318359	0.477844238	0.99998188	-0.004199982	-0.00392437	0.001285553	0.1953125	2.532958984	11.94610596	-0.210000299	-0.196219625	0.064278021	-0.328125	0.481933594	-0.985351563	891.5	5.896719074	-0.539703498	-115.9269784	-65
25284	0	0.018959999	0.094339371	0.448061943	0.999908447	-0.011898041	0.004775047	-0.004255295	0.473999977	2.358484268	11.20154858	-0.594920132	0.238759627	-0.212771211	-0.329101563	0.497802734	-0.974853516	891.58	4.534091524	0.078278015	-116.3756131	-65
25285	0	0.014221191	0.039794922	0.472717285	0.999678612	-0.01581192	0.017663002	-0.008911133	0.355529785	0.994873047	11.81793213	-0.790680548	0.883244538	-0.445604285	-0.318115234	0.517822266	-0.965576172	891.48	2.702742137	2.189998515	-117.2820763	-66
25286	0	0.025764465	-0.005192757	0.424675941	0.999564171	-0.016056061	0.023975372	-0.006185532	0.644111633	-0.129818916	10.61689854	-0.802919609	1.19894268	-0.309321489	-0.288085938	0.543701172	-0.954589844	891.52	0.819651474	4.982242577	-117.9230809	-69
25287	0	-0.058532715	-0.026306152	0.41796875	0.999526978	-0.015429497	0.025936127	-0.005775452	-1.463317871	-0.657653809	10.44921875	-0.771596282	1.297010476	-0.288818041	-0.245849609	0.571533203	-0.953613281	891.54	-1.03083912	7.977794052	-118.6097654	-70
25288	0	-0.132287979	-0.061675072	0.451905251	0.999623299	-0.009411812	0.024810791	-0.006920815	-3.307199478	-1.541876793	11.29763126	-0.470649596	1.240695096	-0.346084114	-0.203613281	0.594970703	-0.948974609	891.5	-2.264051234	10.82422835	-119.5092782	-72
25289	0	-0.169189453	-0.07043457	0.401550293	0.999752998	-0.003051758	0.020840645	-0.006980896	-4.229736328	-1.760864258	10.03875732	-0.152600415	1.042117773	-0.34907345	-0.16796875	0.602783203	-0.942871094	891.5	-2.819675086	13.2054567	-120.4461808	-69
25290	0	-0.163406372	-0.010846138	0.377679825	0.999746323	-0.000742912	0.021517754	-0.006598473	-4.085159302	-0.27115345	9.441995621	-0.037148755	1.075978632	-0.32995152	-0.134277344	0.603759766	-0.947753906	891.46	-3.145839356	15.66220816	-121.3703768	-72
25291	0	-0.181152344	-0.02923584	0.346191406	0.999923706	0.000958443	0.012248993	-0.001182556	-4.528808594	-0.730895996	8.654785156	0.047923351	0.612465199	-0.059129309	-0.100097656	0.600341797	-0.952392578	891.46	-3.112991398	17.09300819	-121.600841	-77
25292	0	-0.142654419	0.000142097	0.307815552	0.99998188	0.002076149	0.005500793	0.001286507	-3.566360474	0.003552437	7.695388794	0.103808076	0.275041333	0.064325721	-0.080810547	0.597412109	-0.947265625	891.42	-2.853044025	17.76826675	-121.487914	-66
25293	0	-0.191467285	-0.036254883	0.339660645	0.999979973	0.005554199	0.001854897	0.002185822	-4.786682129	-0.90637207	8.491516113	0.277711769	0.092745431	0.109291788	-0.063720703	0.592285156	-0.953857422	891.48	-2.153471988	18.0328222	-121.2381338	-64
25294	0	-0.194766045	-0.007023811	0.351495743	0.999993324	0.002973557	-0.001571655	0.001253128	-4.869151115	-0.175595284	8.78739357	0.148678145	-0.078582932	0.062656537	-0.058349609	0.583007813	-0.959228516	891.48	-1.778220289	17.90202893	-121.084584	-73
25295	0	-0.188659668	-0.045410156	0.342407227	0.999985695	0.001194	-0.005049706	0.001144409	-4.716491699	-1.135253906	8.560180664	0.059700293	-0.252486463	0.057220728	-0.058349609	0.578613281	-0.955810547	891.54	-1.60977088	17.3745309	-120.9313263	-63
25296	0	-0.173727036	-0.037102699	0.321684837	0.999987602	0.001509666	-0.004671097	0.000290871	-4.343175888	-0.927567482	8.042120934	0.075483626	-0.233555781	0.014543592	-0.062988281	0.576660156	-0.952392578	891.46	-1.4386489	16.88979983	-120.8829166	-75
25297	0	-0.161132813	-0.070068359	0.325134277	0.999958992	0.008857727	-0.001410484	0.001171112	-4.028320313	-1.751708984	8.128356934	0.442892392	-0.070525177	0.058556402	-0.067626953	0.572265625	-0.951904297	891.42	-0.401612447	16.78175091	-120.7394558	-63
25298	0	-0.160856247	-0.044238091	0.310799599	0.999808311	0.019203186	0.002674103	0.002669334	-4.021406174	-1.105952263	7.769989967	0.960220609	0.133713676	0.133475243	-0.064208984	0.551757813	-0.961914063	891.46	1.872456263	17.13800391	-120.4116749	-79
25299	0	-0.145080566	-0.006347656	0.310974121	0.999515533	0.030526161	0.001091003	0.005954742	-3.62701416	-0.158691406	7.774353027	1.526554538	0.05455898	0.297785202	-0.047363281	0.505859375	-0.985351563	891.48	5.563337788	17.2740292	-119.6755029	-64
25300	0	-0.18849659	0.062907219	0.318861008	0.999628067	0.026569366	-0.004302025	0.004299164	-4.712414742	1.572680473	7.971525192	1.328632869	-0.215127885	0.214984816	-0.036865234	0.446777344	-1.016113281	891.32	8.720938395	16.78278843	-119.208284	-70
25301	0	-0.121643066	0.159545898	0.29510498	0.999938965	0.005677223	-0.009262085	-0.001605988	-3.04107666	3.988647461	7.377624512	0.283866866	-0.463113557	-0.080300991	-0.041992188	0.404052734	-1.030029297	891.46	9.258087887	15.8225929	-119.557541	-74
25302	0	-0.078573227	0.053314209	0.294983864	0.999853134	-0.004300117	-0.016221046	-0.003325462	-1.964330673	1.332855225	7.374596596	-0.215016364	-0.81109189	-0.166281229	-0.061523438	0.402587891	-1.020019531	891.34	8.57604086	14.10282201	-120.2264708	-68
25303	0	-0.044006348	-0.019775391	0.366638184	0.999767303	0.00539875	-0.020801544	-0.001426697	-1.100158691	-0.494384766	9.16595459	0.26995839	-1.040157639	-0.071340355	-0.098144531	0.412841797	-1.018798828	891.42	9.058016917	11.82601928	-120.7333682	-78
25304	0	-0.026012421	0.054304123	0.432043076	0.999653816	0.011036873	-0.023548126	0.003913879	-0.650310516	1.357603073	10.80107689	0.551907276	-1.177542078	0.195716535	-0.138427734	0.3984375	-1.015380859	891.46	10.30533316	9.139792087	-120.7066238	-85
25305	0	0.00958252	0.038818359	0.42590332	0.999568939	0.012478828	-0.025428772	0.007671356	0.239562988	0.970458984	10.64758301	0.624031012	-1.271621162	0.383622886	-0.178466797	0.377441406	-1.014160156	891.46	11.76024727	6.155785465	-120.3576272	-75
25306	0	0.022556305	0.071492195	0.414995193	0.999480247	0.015668869	-0.026771545	0.008682251	0.563907623	1.787304878	10.37487984	0.783578999	-1.338808866	0.434187657	-0.220947266	0.356445313	-1.012939453	891.42	13.56419314	2.984629952	-120.0114814	-70
25307	0	0.043518066	0.114501953	0.367370605	0.999558449	0.013938904	-0.024931908	0.008132935	1.08795166	2.862548828	9.184265137	0.697047686	-1.246778713	0.406706532	-0.268310547	0.331054688	-1.002441406	891.4	15.15331017	0.02220195	-119.7783612	-76
25308	0	0.058059692	0.078613281	0.371638298	0.999582291	0.013601303	-0.024003029	0.0085392	1.45149231	1.965332031	9.290957451	0.680159726	-1.200318339	0.427019365	-0.308349609	0.309814453	-0.998291016	891.46	16.69376172	-2.858249716	-119.5531334	-67
25309	0	0.067565918	0.07244873	0.327758789	0.999466896	0.018981934	-0.024245262	0.010784149	1.689147949	1.811218262	8.193969727	0.949265137	-1.212478275	0.539303164	-0.348632813	0.286621094	-0.985351563	891.48	18.83025024	-5.851060544	-119.1836046	-72
25310	0	0.075630188	0.106537819	0.303744316	0.999447823	0.020511627	-0.023769379	0.010817528	1.8907547	2.663445473	7.593607903	1.025769943	-1.188687468	0.540975845	-0.386230469	0.258789063	-0.975097656	891.48	21.13801897	-8.806764506	-118.9071212	-69
25311	0	0.08404541	0.144470215	0.341247559	0.999376297	0.020375252	-0.026885986	0.010417938	2.101135254	3.611755371	8.531188965	1.018974362	-1.34457876	0.521005192	-0.423583984	0.230712891	-0.964599609	891.48	23.47366209	-12.08417089	-118.9240782	-69
25312	0	0.101052284	0.223308563	0.340825081	0.999385834	0.016828537	-0.028662682	0.011076927	2.526307106	5.582714081	8.520627022	0.841599079	-1.433427424	0.553959725	-0.473388672	0.205566406	-0.947998047	891.46	25.44533445	-15.57442548	-119.0899517	-69
25313	0	0.140869141	0.239624023	0.33392334	0.999446869	0.008774757	-0.030475616	0.009963989	3.521728516	5.990600586	8.348083496	0.438818713	-1.524061602	0.498291264	-0.516601563	0.191650391	-0.923828125	891.58	26.60613188	-19.19022707	-119.5724223	-71
25314	0	0.184532166	0.215049744	0.308581352	0.999510765	0.003061295	-0.029977798	0.008303642	4.613304138	5.376243591	7.714533806	0.153089663	-1.499134097	0.415249748	-0.5703125	0.189208984	-0.888427734	891.34	27.22695652	-22.66359338	-120.2922403	-68
25315	0	0.193054199	0.203552246	0.321838379	0.999528885	0.002297401	-0.029190063	0.009155273	4.82635498	5.088806152	8.045959473	0.114888098	-1.459732208	0.457835507	-0.6171875	0.197753906	-0.848388672	891.48	27.77043594	-26.09639722	-120.9359478	-66
25316	0	0.182224274	0.163181305	0.313697815	0.999497414	0.001894951	-0.029993057	0.010070801	4.555606842	4.079532623	7.842445374	0.094763414	-1.499904067	0.503624386	-0.661376953	0.206298828	-0.814453125	891.46	28.30567255	-29.65445623	-121.5797058	-63
25317	0	0.188476563	0.141662598	0.293945313	0.999527931	0.001918793	-0.029341698	0.008876801	4.711914063	3.541564941	7.348632813	0.095954728	-1.467315661	0.443909844	-0.701416016	0.219482422	-0.769287109	891.42	28.9654921	-33.07527004	-122.3922665	-61
25318	0	0.206646919	0.132004738	0.281866074	0.999576569	0.004637718	-0.027352333	0.008766174	5.166172981	3.300118446	7.04665184	0.231918638	-1.367809676	0.438370578	-0.741210938	0.230224609	-0.727050781	891.46	29.95956134	-36.28085609	-123.1798561	-60
25319	0	0.19909668	0.145446777	0.276550293	0.999588013	0.003735542	-0.026966095	0.00907135	4.977416992	3.636169434	6.913757324	0.186802757	-1.348489853	0.453629774	-0.773681641	0.23828125	-0.690673828	891.42	30.90845113	-39.45311845	-124.0014476	-59
25320	0	0.190011024	0.146813393	0.243719101	0.999667168	-0.002228737	-0.024078369	0.00888443	4.750275612	3.670334816	6.092977524	-0.111449174	-1.204051664	0.444270647	-0.801513672	0.250976563	-0.643310547	891.5	31.12944878	-42.32209582	-124.7125829	-58
25321	0	0.17010498	0.121582031	0.228088379	0.999760628	-0.008018494	-0.019011497	0.007198334	4.252624512	3.039550781	5.702209473	-0.4009566	-0.950650549	0.359945339	-0.824707031	0.270019531	-0.60546875	891.48	30.59860474	-44.59274804	-125.2671992	-60
25322	0	0.211203575	0.100347519	0.22624588	0.999853134	-0.009734154	-0.013020515	0.005331993	5.280089378	2.508687973	5.656147003	-0.486731435	-0.651057537	0.266612663	-0.840820313	0.293212891	-0.571533203	891.3	29.70552168	-46.16647344	-125.5798238	-60
25323	0	0.340576172	0.12487793	0.307312012	0.999910355	-0.009097099	-0.008728027	0.004489899	8.514404297	3.121948242	7.682800293	-0.454868543	-0.436414394	0.224501636	-0.847167969	0.31640625	-0.543701172	891.46	28.69992127	-47.26760127	-125.6377499	-58
25324	0	0.416200638	0.182832718	0.363046646	0.999956131	-0.007005692	-0.004185677	0.004398346	10.40501595	4.570817947	9.076166153	-0.350289594	-0.209286827	0.219920448	-0.850585938	0.334472656	-0.527587891	891.5	27.65385301	-47.90511872	-125.3203757	-57
25325	0	0.46661377	0.148681641	0.388000488	0.999968529	0.002182007	0.002301216	0.007263184	11.66534424	3.717041016	9.700012207	0.109101484	0.115062011	0.363162982	-0.846435547	0.345703125	-0.513916016	891.46	26.94148151	-48.02991959	-124.0594743	-57
25326	0	0.461902618	0.183110237	0.376983643	0.999925613	0.003821373	0.008889198	0.007306099	11.54756546	4.577755928	9.424591064	0.191073331	0.444470805	0.365313897	-0.834716797	0.358886719	-0.527587891	891.4	26.04682495	-47.46921742	-122.2987084	-57
25327	0	0.447814941	0.188842773	0.300415039	0.999920845	-0.000602722	0.012219429	0.002696991	11.19537354	4.721069336	7.510375977	-0.030136897	0.610987434	0.134853076	-0.818115234	0.3671875	-0.543701172	891.42	25.03117527	-46.318928	-121.041982	-57
25328	0	0.388541222	0.13348484	0.27718544	0.999899864	-0.000224113	0.014066696	0.001459122	9.71353054	3.33712101	6.929636002	-0.011206047	0.703358261	0.072958518	-0.803222656	0.368652344	-0.568115234	891.48	24.16184323	-44.90538254	-119.9016129	-58
25329	0	0.346252441	0.120361328	0.265380859	0.999917984	0.000531197	0.012752533	-0.000301361	8.656311035	3.009033203	6.634521484	0.026560551	0.637643971	-0.015068464	-0.785888672	0.365722656	-0.589355469	891.48	23.67431312	-43.54035662	-119.1531328	-58
25330	0	0.330325127	0.088861465	0.212562561	0.999961853	-0.001458168	0.008341789	-0.001915932	8.258128166	2.221536636	5.314064026	-0.072909318	0.417094703	-0.095797789	-0.7734375	0.367431641	-0.607910156	891.46	23.33652691	-42.5653721	-118.9279618	-58
25331	0	0.355773926	0.101257324	0.218566895	0.999986649	0.002518654	0.003974915	0.001659393	8.894348145	2.531433105	5.464172363	0.125933216	0.198746552	0.08297001	-0.768066406	0.360351563	-0.616455078	891.4	23.29910218	-42.216613	-118.4710696	-57
25332	0	0.36013031	0.07783699	0.230443001	0.999970436	0.00599575	-0.001178741	0.004550934	9.003257751	1.945924759	5.76107502	0.299790422	-0.058937643	0.227548893	-0.763183594	0.357910156	-0.625244141	891.48	23.59532987	-42.547446	-117.9072645	-58
25333	0	0.342468262	0.094909668	0.246826172	0.99991703	0.010482788	-0.004935265	0.005577087	8.561706543	2.372741699	6.170654297	0.52415385	-0.24677003	0.278862055	-0.762939453	0.35546875	-0.625	891.46	24.46377489	-43.32702732	-117.4309608	-58
25334	0	0.319446564	0.136478424	0.206962585	0.999890327	0.008392334	-0.010700226	0.005774498	7.986164093	3.411960602	5.174064636	0.419631966	-0.535030756	0.288735404	-0.767333984	0.346679688	-0.624023438	891.46	25.34342332	-44.72346171	-117.3040028	-58
25335	0	0.321289063	0.143554688	0.17388916	0.999881744	0.004136086	-0.01335144	0.006374359	8.032226563	3.588867188	4.347229004	0.206812411	-0.667598282	0.318730494	-0.779785156	0.344970703	-0.602783203	891.46	25.82252998	-46.42782151	-117.3062261	-58
25336	0	0.316304207	0.118688583	0.158179283	0.999881744	0.003305435	-0.014233589	0.004611969	7.907605171	2.967214584	3.954482079	0.165278227	-0.711707311	0.230607474	-0.790039063	0.350097656	-0.587890625	891.4	26.4726661	-48.13721072	-117.6543012	-57
25337	0	0.316955566	0.129760742	0.150512695	0.999866486	0.002713203	-0.015354156	0.004753113	7.92388916	3.244018555	3.762817383	0.13566618	-0.767741826	0.237666165	-0.8046875	0.348388672	-0.563476563	891.46	27.14914062	-49.96836207	-118.1189533	-57
25338	0	0.275925636	0.138167381	0.122808456	0.999799728	-0.001324654	-0.019083977	0.005799294	6.898140907	3.454184532	3.070211411	-0.066237093	-0.954262396	0.28998399	-0.822265625	0.3515625	-0.542236328	891.36	27.52813563	-52.23296025	-118.7612764	-56
25339	0	0.230773926	0.113098145	0.112854004	0.99961853	-0.006152153	-0.026363373	0.005302429	5.769348145	2.827453613	2.821350098	-0.307646679	-1.318335883	0.265155097	-0.840576172	0.365966797	-0.498535156	891.48	28.03309019	-55.20631977	-120.2061865	-56
25340	0	0.220126152	0.058097839	0.080447197	0.99971199	-0.003992081	-0.023652077	-0.000374794	5.503153801	1.452445984	2.011179924	-0.199623185	-1.182717296	-0.018741498	-0.863525391	0.376220703	-0.4453125	891.36	29.62752189	-57.57857082	-122.6316348	-55
25341	0	0.214904785	0.018005371	0.073425293	0.999883652	0.002747536	-0.014778137	-0.002296448	5.372619629	0.450134277	1.835632324	0.13738208	-0.738935338	-0.114826813	-0.883544922	0.372802734	-0.402832031	891.36	31.73348094	-58.9202023	-124.7424811	-55
25342	0	0.212024689	0.050284386	0.074300766	0.999925613	0.007708549	-0.009064674	0.002328873	5.300617218	1.257109642	1.85751915	0.385436919	-0.453244825	0.116446487	-0.893066406	0.364013672	-0.389892578	891.4	33.21071918	-59.9595126	-125.4457984	-55
25343	0	0.24432373	0.134399414	0.130493164	0.999921799	0.001847267	-0.006801605	0.010280609	6.108093262	3.359985352	3.262329102	0.092365749	-0.340089068	0.514043768	-0.900634766	0.366699219	-0.375	891.48	32.45002117	-61.27031958	-124.3611623	-55
25344	0	0.270749092	0.149011612	0.190620422	0.999747276	-0.011446953	-0.012813568	0.01445961	6.768727303	3.725290298	4.765510559	-0.572395758	-0.640732267	0.72304128	-0.897216797	0.391601563	-0.359619141	891.46	29.92332431	-63.39747728	-122.986153	-54
25345	0	0.322937012	0.082763672	0.185974121	0.999676704	-0.014541626	-0.0191679	0.008213043	8.073425293	2.069091797	4.649353027	-0.727159643	-0.958498273	0.410696409	-0.89453125	0.427734375	-0.318847656	891.4	28.83874554	-65.78399012	-123.6061269	-54
25346	0	0.376563072	0.02685833	0.191930771	0.999799728	-0.008858681	-0.017907143	0.000772476	9.414076805	0.671458244	4.798269272	-0.442963551	-0.895416794	0.038626384	-0.903320313	0.444091797	-0.272949219	891.48	30.0219113	-67.62447757	-125.9857012	-54
25347	0	0.382446289	0.072814941	0.160095215	0.999834061	-0.005953789	-0.016780853	0.00365448	9.561157227	1.820373535	4.002380371	-0.297705833	-0.839088874	0.182734063	-0.911621094	0.451416016	-0.235107422	891.42	30.94201062	-69.50194975	-127.7004975	-54
25348	0	0.38572979	0.065223694	0.124410629	0.999929428	0.000494003	-0.011149406	0.004026413	9.643244743	1.630592346	3.110265732	0.024700744	-0.557483401	0.201325372	-0.910400391	0.465332031	-0.200927734	891.42	31.7891906	-70.84015219	-128.5600774	-52
25349	0	0.411499023	0.053833008	0.110473633	0.999939919	0.002906799	-0.01015377	0.002830505	10.28747559	1.345825195	2.76184082	0.145342862	-0.507698639	0.141528089	-0.913085938	0.465576172	-0.186279297	891.4	33.20789437	-72.0031866	-129.7229772	-52
25350	0	0.395104408	0.082655907	0.087887764	0.999934196	0.000833511	-0.010889053	0.00328064	9.877610207	2.066397667	2.197194099	0.041676471	-0.544464467	0.164035537	-0.913818359	0.472412109	-0.166259766	891.26	34.57617597	-73.25574893	-131.0741513	-53
25351	0	0.375610352	0.075683594	0.069519043	0.999965668	-0.001124382	-0.007717133	0.002483368	9.390258789	1.892089844	1.737976074	-0.056219729	-0.385860936	0.124169782	-0.914306641	0.479248047	-0.149169922	891.32	35.43838182	-74.15028707	-132.1263872	-52
25352	0	0.388765335	0.047755241	0.078410149	0.999993324	-0.002369881	-0.002510071	0.000293732	9.719133377	1.193881035	1.960253716	-0.118494271	-0.125503791	0.014686614	-0.914794922	0.483886719	-0.135009766	891.4	35.71744079	-74.41102188	-132.7309227	-53
25353	0	0.404541016	0.052734375	0.098144531	0.999999046	-0.000385284	0.000454903	-0.000125885	10.11352539	1.318359375	2.453613281	-0.019264222	0.022745134	-0.006294251	-0.915039063	0.483886719	-0.129150391	891.42	35.6565555	-74.3671005	-132.7574557	-52
25354	0	0.386054993	0.070632935	0.105812073	0.999998093	0.000292778	-0.000390053	0.00133419	9.651374817	1.765823364	2.645301819	0.014638906	-0.019502646	0.066709541	-0.915039063	0.483886719	-0.129150391	891.48	35.38531698	-74.49780087	-132.4832266	-52
25355	0	0.372009277	0.069519043	0.101806641	0.999997139	-0.000301361	-0.001864433	0.000850677	9.300231934	1.737976074	2.545166016	-0.015068065	-0.093221731	0.042533905	-0.912597656	0.486083984	-0.129394531	891.4	35.56103317	-74.73246551	-132.7325864	-53
25356	0	0.386034966	0.054517746	0.10204792	0.999997139	-0.0017519	-0.00125885	-0.000252724	9.650874138	1.362943649	2.551198006	-0.087595055	-0.062942554	-0.012636195	-0.915039063	0.486328125	-0.126464844	891.3	35.8014127	-74.83595416	-133.2182671	-53
25357	0	0.394714355	0.050720215	0.090209961	0.999998093	-0.001204491	-0.000232697	-0.000644684	9.867858887	1.268005371	2.255249023	-0.060224552	-0.01163483	-0.032234202	-0.915283203	0.486328125	-0.120361328	891.46	35.98434286	-74.81724914	-133.5867351	-54
25358	0	0.374907494	0.057328224	0.092247963	0.999998093	0.000792503	0.001545906	0.000378609	9.37268734	1.433205605	2.306199074	0.039625189	0.077295344	0.018930445	-0.915283203	0.486328125	-0.120361328	891.46	35.6059697	-74.70130029	-133.1424916	-53
25359	0	0.362060547	0.050109863	0.08770752	0.999997139	0.000770569	0.001843452	0.000740051	9.051513672	1.252746582	2.192687988	0.038528472	0.092172692	0.037002591	-0.915039063	0.486328125	-0.126464844	891.42	35.03505231	-74.58002847	-132.4960761	-54
25360	0	0.359519958	0.052448273	0.081626892	0.999998093	0.001075745	0.001193047	0.000203133	8.987998962	1.311206818	2.040672302	0.053787255	0.059652355	0.010156636	-0.910400391	0.486083984	-0.126708984	891.42	34.84209523	-74.48322428	-132.2079855	-52
25361	0	0.372924805	0.062133789	0.081359863	0.999997139	0.000377655	0.001957893	0.000137329	9.323120117	1.553344727	2.033996582	0.018882764	0.097894734	0.00686646	-0.912597656	0.48828125	-0.135498047	891.42	34.41823709	-74.30929501	-131.75254	-52
25362	0	0.393730164	0.069657326	0.085473061	0.999998093	-0.000397682	0.001393318	0.000715256	9.843254089	1.741433144	2.136826515	-0.019884118	0.069665939	0.035762802	-0.915039063	0.48828125	-0.141113281	891.36	33.85054195	-74.22468758	-131.2333615	-54
25363	0	0.388244629	0.062988281	0.09362793	0.999999046	-0.00056076	-6.00815E-05	0.000988007	9.706115723	1.574707031	2.340698242	-0.028038031	-0.003004075	0.04940034	-0.91015625	0.48828125	-0.138427734	891.4	33.50181452	-74.29438722	-130.9628148	-54
25364	0	0.374277115	0.060181618	0.101584435	0.999999046	-0.000430107	6.10352E-05	0.00044632	9.356927872	1.504540443	2.539610863	-0.021505357	0.003051758	0.02231598	-0.912841797	0.490722656	-0.135742188	891.46	33.3217163	-74.3170468	-130.8566105	-53
25365	0	0.370300293	0.065002441	0.097595215	0.999998093	-0.00152874	-0.000484467	5.72205E-05	9.257507324	1.625061035	2.439880371	-0.076437029	-0.024223338	0.002861024	-0.910400391	0.490478516	-0.135742188	891.5	33.27053026	-74.36647689	-131.0083989	-54
25366	0	0.376251221	0.063714027	0.087720871	0.999995232	-0.002801895	-0.001022339	-9.53674E-07	9.406280518	1.592850685	2.193021774	-0.140094965	-0.051117019	-4.76838E-05	-0.912841797	0.492919922	-0.1328125	891.46	33.21581569	-74.46342688	-131.3042156	-54
25367	0	0.381713867	0.055786133	0.085021973	0.999995232	-0.002887726	-0.000555992	-0.000160217	9.54284668	1.39465332	2.125549316	-0.1443865	-0.027799647	-0.008010876	-0.910644531	0.492919922	-0.130126953	891.42	33.10160809	-74.50572718	-131.544441	-52
25368	0	0.383440018	0.05333519	0.08612442	0.999997139	-0.002137184	0.000688553	-3.52859E-05	9.586000443	1.333379745	2.153110504	-0.106859297	0.034427672	-0.001764299	-0.912841797	0.490722656	-0.124023438	891.4	32.7495763	-74.43635699	-131.4596437	-54
25369	0	0.388793945	0.055725098	0.09576416	0.999998093	-0.001196861	0.001522064	-5.72205E-05	9.719848633	1.393127441	2.394104004	-0.059843101	0.076103258	-0.002861025	-0.910644531	0.492919922	-0.124267578	891.36	32.33060489	-74.28456182	-131.1938045	-52
25370	0	0.382811546	0.057180405	0.098958969	0.999998093	-0.000357628	0.001336098	-0.000136375	9.570288658	1.429510117	2.473974228	-0.017881399	0.066804907	-0.006818774	-0.913085938	0.492919922	-0.126953125	891.42	32.0798584	-74.14496634	-131.0016734	-54
25371	0	0.373474121	0.057495117	0.097717285	0.999999046	0.000358582	0.001072884	7.62939E-05	9.336853027	1.43737793	2.442932129	0.017929081	0.053644192	0.003814698	-0.913085938	0.495117188	-0.127197266	891.36	31.8973358	-74.04308452	-130.7977083	-52
25372	0	0.371754646	0.053538322	0.09426403	0.999999046	0.001074791	0.000587463	0.000366211	9.293866158	1.338458061	2.356600761	0.053739562	0.029373177	0.018310552	-0.910644531	0.495117188	-0.133300781	891.32	31.80170445	-74.00553563	-130.5895637	-52
25373	0	0.376647949	0.052124023	0.089355469	0.999998093	0.001717567	0.000396729	0.000461578	9.41619873	1.303100586	2.233886719	0.08587842	0.019836437	0.023078931	-0.910400391	0.490478516	-0.1328125	891.36	31.78711411	-73.99231207	-130.3952179	-54
25374	0	0.37601757	0.054580688	0.088001251	0.999996185	0.002457619	0.000571251	0.000502586	9.400439262	1.364517212	2.200031281	0.122881071	0.028562577	0.025129346	-0.910400391	0.490478516	-0.135742188	891.42	31.80668946	-73.96460505	-130.1486585	-52
25375	0	0.380615234	0.056152344	0.093261719	0.999995232	0.002567291	0.000935555	0.000492096	9.515380859	1.403808594	2.331542969	0.128364728	0.046777785	0.024604829	-0.910400391	0.495117188	-0.139160156	891.4	31.76624023	-73.90061704	-129.8266201	-54
25376	0	0.383301735	0.056135178	0.0941782	0.999997139	0.001950264	0.000741959	0.000349998	9.582543373	1.40337944	2.354454994	0.097513272	0.037097959	0.017499937	-0.907714844	0.490478516	-0.144775391	891.4	31.74416164	-73.84674237	-129.5920236	-54
25377	0	0.379882813	0.056274414	0.093017578	0.999998093	0.001538277	6.86646E-05	0.000328064	9.497070313	1.406860352	2.325439453	0.076913865	0.003433229	0.016403205	-0.907958984	0.494873047	-0.147949219	891.36	31.8224389	-73.85705166	-129.5069648	-52
25378	0	0.378808975	0.056727409	0.08929348	0.999999046	0.001173019	-0.00056076	0.000320435	9.47022438	1.418185234	2.232336998	0.058650988	-0.028038033	0.016021733	-0.91015625	0.492675781	-0.150634766	891.42	31.9932821	-73.92820183	-129.5579606	-52
25379	0	0.379333496	0.057800293	0.089233398	0.999999046	0.000968933	-0.000689507	9.91821E-05	9.483337402	1.445007324	2.230834961	0.048446667	-0.034475335	0.004959108	-0.907958984	0.492675781	-0.144775391	891.46	32.24387128	-73.9983052	-129.7251873	-54
25380	0	0.381355286	0.058257103	0.085907936	0.999999046	0.000346184	-0.000211716	2.86102E-06	9.533882141	1.456427574	2.147698402	0.017309189	-0.010585785	0.000143051	-0.907958984	0.492675781	-0.144775391	891.4	32.3552062	-74.016203	-129.8209115	-54
25381	0	0.379089355	0.057861328	0.086303711	0.999999046	0.000175476	-5.24521E-05	9.15527E-05	9.477233887	1.446533203	2.157592773	0.008773804	-0.002622604	0.004577637	-0.907714844	0.492675781	-0.147705078	891.4	32.38337062	-74.02415105	-129.8443967	-54
25382	0	0.378742218	0.057700157	0.08795166	0.999999046	5.34058E-05	6.29425E-05	3.71933E-05	9.46855545	1.442503929	2.198791504	0.002670288	0.003147125	0.001859665	-0.91015625	0.492675781	-0.147705078	891.42	32.3912887	-74.01757637	-129.8622452	-54
25383	0	0.378112793	0.058227539	0.08972168	0.999999046	-1.90735E-05	8.10623E-05	-7.62939E-05	9.452819824	1.455688477	2.243041992	-0.000953674	0.004053116	-0.003814697	-0.907714844	0.490234375	-0.147705078	891.3	32.42533807	-74.00216523	-129.9149611	-52
25384	0	0.379370689	0.05877018	0.089539528	0.999999046	-0.000315666	-0.000139236	-4.29153E-05	9.484267235	1.469254494	2.238488197	-0.01578331	-0.006961823	-0.002145767	-0.91015625	0.492675781	-0.150634766	891.36	32.4614958	-74.01000547	-129.9988046	-52
25385	0	0.380859375	0.058349609	0.090515137	0.999999046	-0.000583649	-0.000510216	5.34058E-05	9.521484375	1.458740234	2.262878418	-0.029182437	-0.025510791	0.002670288	-0.91015625	0.490478516	-0.147460938	891.46	32.51430114	-74.05951418	-130.1350631	-53
25386	0	0.382239342	0.059301376	0.089948654	0.999999046	-0.000902176	-0.000499725	1.90735E-05	9.555983543	1.482534409	2.248716354	-0.045108803	-0.024986272	0.000953674	-0.907714844	0.492675781	-0.147705078	891.46	32.54065741	-74.10576441	-130.2761166	-52
25387	0	0.379699707	0.058959961	0.090698242	0.999999046	-0.001083374	-0.000105858	-7.62939E-06	9.492492676	1.473999023	2.267456055	-0.054168712	-0.005292894	-0.00038147	-0.910400391	0.492675781	-0.141845703	891.48	32.47024361	-74.11215348	-130.3476018	-52
25388	0	0.381121635	0.05846405	0.09068203	0.999999046	-0.001252174	0.000219345	1.52588E-05	9.528040886	1.461601257	2.267050743	-0.062608736	0.010967258	0.00076294	-0.91015625	0.490478516	-0.147460938	891.42	32.30259702	-74.08836628	-130.3260079	-54
25389	0	0.379516602	0.05670166	0.093017578	0.999999046	-0.001167297	0.000203133	-8.01086E-05	9.487915039	1.417541504	2.325439453	-0.058364882	0.010156634	-0.004005433	-0.91015625	0.490478516	-0.14453125	891.46	32.18028862	-74.0601077	-130.3453383	-54
25390	0	0.378736496	0.057826042	0.093488693	0.999999046	-0.000951767	0.000419617	-0.00012207	9.468412399	1.445651054	2.337217331	-0.047588357	0.020980839	-0.006103517	-0.910400391	0.492675781	-0.138916016	891.36	32.05064667	-74.0080525	-130.3409296	-54
25391	0	0.377746582	0.057312012	0.093994141	0.999999046	-0.000541687	0.000382423	5.72205E-05	9.443664551	1.432800293	2.349853516	-0.027084353	0.019121171	0.002861023	-0.910400391	0.492675781	-0.138916016	891.42	31.91522339	-73.97024361	-130.2815658	-54
25392	0	0.378472328	0.056126595	0.096540451	0.999999046	-2.57492E-05	0.00025177	-3.8147E-06	9.461808205	1.403164864	2.413511276	-0.00128746	0.012588501	-0.000190735	-0.91015625	0.490478516	-0.141601563	891.36	31.88667332	-73.94113501	-130.2676136	-52
25393	0	0.380249023	0.057495117	0.093017578	0.999999046	0.000305176	-0.000216484	-1.90735E-05	9.506225586	1.43737793	2.325439453	0.015258789	-0.010824204	-0.000953674	-0.91015625	0.490478516	-0.138671875	891.32	31.99958151	-73.95651315	-130.3662559	-54
25394	0	0.379858971	0.058724403	0.091351509	0.999999046	5.72205E-05	0.000125885	0.000128746	9.496474266	1.468110085	2.283787727	0.002861023	0.006294251	0.006437302	-0.91015625	0.48828125	-0.141357422	891.46	31.96207677	-73.94746919	-130.3335282	-54
25395	0	0.377258301	0.057067871	0.094482422	0.999999046	-3.8147E-06	0.000229836	7.62939E-06	9.43145752	1.426696777	2.362060547	-0.000190735	0.011491776	0.00038147	-0.91015625	0.490478516	-0.14453125	891.32	31.93624261	-73.92074809	-130.3143614	-54
25396	0	0.378619194	0.057854652	0.094900131	0.999999046	-8.86917E-05	5.53131E-05	0.000132561	9.465479851	1.44636631	2.372503281	-0.004434586	0.002765656	0.006628037	-0.91015625	0.490478516	-0.14453125	891.46	31.89494953	-73.91834767	-130.2891653	-52
25397	0	0.378967285	0.058532715	0.095947266	0.999999046	9.15527E-05	8.58307E-06	9.15527E-05	9.474182129	1.463317871	2.398681641	0.004577637	0.000429153	0.004577637	-0.912597656	0.490478516	-0.14453125	891.4	31.89766101	-73.9177397	-130.2893802	-54
25398	0	0.376900673	0.058481216	0.096429825	0.999999046	0.000478745	-0.000356674	0.00019455	9.422516823	1.462030411	2.410745621	0.023937227	-0.017833711	0.009727479	-0.912597656	0.490478516	-0.138671875	891.36	31.98645713	-73.95859076	-130.3434511	-52
25399	0	0.376708984	0.057678223	0.098571777	0.999999046	0.00069809	-0.000563622	0.000335693	9.417724609	1.441955566	2.464294434	0.034904485	-0.02818108	0.016784671	-0.91015625	0.490478516	-0.141601563	891.46	32.09614422	-74.02771828	-130.3857045	-53
25400	0	0.376184464	0.055790901	0.096908569	0.999999046	0.000739098	-0.000677109	0.000209808	9.404611588	1.39477253	2.422714233	0.036954886	-0.033855444	0.010490419	-0.91015625	0.490478516	-0.14453125	891.42	32.27745761	-74.09985342	-130.4909615	-54
25401	0	0.378295898	0.058532715	0.094116211	0.999999046	0.000610352	-0.000544548	0.000144958	9.457397461	1.463317871	2.352905273	0.030517582	-0.027227405	0.007247926	-0.91015625	0.490478516	-0.141601563	891.4	32.43843989	-74.1548649	-130.5950333	-54
25402	0	0.379695892	0.057804108	0.093630791	0.999999046	0.000793457	-0.000318527	0.00014782	9.492397308	1.445102692	2.340769768	0.039672857	-0.015926363	0.007390977	-0.91015625	0.490478516	-0.14453125	891.4	32.57078884	-74.18795334	-130.642249	-54
25403	0	0.380981445	0.060058594	0.095336914	0.999999046	0.000961304	-0.00070858	0.000225067	9.524536133	1.501464844	2.383422852	0.048065197	-0.03542901	0.01125336	-0.91015625	0.490478516	-0.141601563	891.4	32.78171273	-74.26310385	-130.7559038	-54
25404	0	0.378707886	0.06038475	0.09926033	0.999999046	0.000725746	-0.000469208	0.000182152	9.467697144	1.509618759	2.481508255	0.036287312	-0.023460391	0.009107591	-0.91015625	0.490478516	-0.138671875	891.4	32.92806238	-74.31193055	-130.8356046	-54
25405	0	0.375183105	0.060058594	0.097412109	0.999999046	0.000686646	-0.000407219	0.000259399	9.379577637	1.501464844	2.435302734	0.034332279	-0.020360949	0.012969972	-0.91015625	0.490478516	-0.141601563	891.32	33.02975751	-74.3590842	-130.8678071	-52
25406	0	0.37492466	0.057675362	0.095377922	0.999999046	0.000490189	-0.000699997	0.000133514	9.373116493	1.441884041	2.384448051	0.024509433	-0.034999852	0.006675721	-0.912597656	0.490478516	-0.141601563	891.42	33.21763855	-74.42608375	-131.0122788	-52
25407	0	0.378662109	0.057983398	0.091552734	0.999999046	0.00044632	-0.000510216	6.10352E-05	9.466552734	1.449584961	2.288818359	0.022315981	-0.02551079	0.003051758	-0.912597656	0.490478516	-0.138671875	891.32	33.38345261	-74.47006672	-131.1434702	-52
25408	0	0.382240295	0.05935955	0.089704514	0.999999046	0.000451088	-0.000152588	8.67844E-05	9.556007385	1.483988762	2.242612839	0.022554398	-0.007629395	0.004339218	-0.91015625	0.48828125	-0.141357422	891.42	33.46030142	-74.4813111	-131.1761864	-54
25409	0	0.379455566	0.060546875	0.091003418	0.999999046	0.000534058	-0.000224113	0.000217438	9.48638916	1.513671875	2.275085449	0.026702883	-0.011205674	0.010871888	-0.91015625	0.48828125	-0.141357422	891.42	33.51810171	-74.50743044	-131.1794954	-54
25410	0	0.378361702	0.058891296	0.090281487	0.999999046	0.000614166	-0.000106812	0.000296593	9.459042549	1.47228241	2.257037163	0.030708315	-0.005340577	0.014829637	-0.91015625	0.48828125	-0.138427734	891.36	33.53088231	-74.5271981	-131.1329477	-54
25411	0	0.377929688	0.05871582	0.089416504	0.999999046	0.000637054	-9.05991E-05	0.000240326	9.448242188	1.467895508	2.235412598	0.031852725	-0.004529953	0.012016297	-0.910400391	0.490478516	-0.135742188	891.36	33.56187102	-74.54173547	-131.108163	-54
25412	0	0.378096581	0.05956459	0.0906744	0.999999046	0.000500679	-5.53131E-05	0.000151634	9.452414513	1.489114761	2.266860008	0.025033952	-0.002765656	0.007581711	-0.91015625	0.48828125	-0.141357422	891.3	33.5997105	-74.54708781	-131.0968368	-54
25413	0	0.379150391	0.057495117	0.088439941	0.999999046	0.000507355	8.86917E-05	0.000175476	9.478759766	1.43737793	2.210998535	0.025367738	0.004434586	0.008773804	-0.91015625	0.492675781	-0.144775391	891.34	33.5968903	-74.54017245	-131.03662	-54
25414	0	0.380497932	0.059466362	0.089544296	0.999999046	0.000629425	0.000513077	-8.58307E-06	9.512448311	1.48665905	2.238607407	0.031471256	0.025653842	-0.000429153	-0.910400391	0.490478516	-0.135742188	891.4	33.57449386	-74.48096589	-130.9620762	-52
25415	0	0.38079834	0.059509277	0.088928223	0.999999046	0.000617981	0.000741005	9.53674E-05	9.519958496	1.487731934	2.223205566	0.030899053	0.037050253	0.004768372	-0.91015625	0.48828125	-0.144287109	891.46	33.46407668	-74.40647094	-130.7849569	-54
25416	0	0.380252838	0.058628082	0.087404251	0.999999046	0.000845909	0.000322342	9.91821E-05	9.506320953	1.465702057	2.185106277	0.042295462	0.016117098	0.004959107	-0.909912109	0.488037109	-0.150146484	891.42	33.47421182	-74.37223919	-130.6972556	-54
25417	0	0.380249023	0.06048584	0.086425781	0.999999046	0.000854492	0.000405312	-0.000209808	9.506225586	1.512145996	2.160644531	0.042724616	0.020265582	-0.010490419	-0.91015625	0.48828125	-0.141357422	891.36	33.57255813	-74.3105986	-130.7197034	-54
25418	0	0.378440857	0.06354332	0.089125633	0.999999046	0.000804901	0.000597	-0.000508308	9.461021423	1.588582993	2.228140831	0.040245065	0.029850012	-0.025415426	-0.909912109	0.485839844	-0.144287109	891.4	33.72326259	-74.21156729	-130.7999528	-54
25419	0	0.377929688	0.06036377	0.089538574	0.999999046	0.000553131	0.00042057	-0.000644684	9.448242188	1.509094238	2.238464355	0.027656559	0.021028522	-0.032234197	-0.909912109	0.485839844	-0.150146484	891.46	33.92918124	-74.12052733	-130.9581996	-52
25420	0	0.379116058	0.063940048	0.088137627	0.999999046	0.000508308	0.00028801	-0.000770569	9.477901459	1.598501205	2.203440666	0.025415424	0.014400484	-0.038528448	-0.912109375	0.485839844	-0.155761719	891.32	34.20018797	-74.03377826	-131.1810376	-54
25421	0	0.381958008	0.065429688	0.085449219	0.999999046	0.000289917	0.000393867	-0.000534058	9.548950195	1.635742188	2.136230469	0.014495851	0.019693376	-0.026702883	-0.909667969	0.483642578	-0.155761719	891.32	34.34306998	-73.95214273	-131.2975228	-52
25422	0	0.379622459	0.064481735	0.087662697	0.999999046	0.00028038	0.000652313	-0.000252724	9.490561485	1.612043381	2.191567421	0.014019014	0.032615665	-0.012636186	-0.912109375	0.481445313	-0.152587891	891.36	34.33432641	-73.86422892	-131.2674483	-52
25423	0	0.378173828	0.064758301	0.088806152	0.999999046	0.000213623	0.000321388	-0.00012207	9.454345703	1.61895752	2.220153809	0.010681153	0.016069413	-0.006103516	-0.911865234	0.481445313	-0.155517578	891.48	34.34978255	-73.81605565	-131.2660451	-54
25424	0	0.376696587	0.064277649	0.08895874	0.999999046	4.76837E-06	-0.000148773	3.05176E-05	9.417414665	1.606941223	2.223968506	0.000238419	-0.00743866	0.001525879	-0.911865234	0.481445313	-0.155517578	891.36	34.39673738	-73.82220996	-131.3217078	-54
25425	0	0.377746582	0.064025879	0.088195801	0.999999046	-0.0001297	-0.000227928	-1.14441E-05	9.443664551	1.600646973	2.20489502	-0.006484985	-0.011396408	-0.000572205	-0.911865234	0.479248047	-0.15234375	891.4	34.46012082	-73.83315044	-131.4157073	-54
25426	0	0.378456116	0.063461304	0.088404655	0.999999046	-0.000179291	-0.000200272	0.000110626	9.461402893	1.586532593	2.210116386	-0.008964539	-0.01001358	0.005531311	-0.911865234	0.479248047	-0.155273438	891.46	34.4722243	-73.84942649	-131.4554215	-54
25427	0	0.379455566	0.062561035	0.090026855	0.999999046	-7.62939E-05	-0.000338554	0.00018692	9.48638916	1.564025879	2.250671387	-0.003814697	-0.01692772	0.009346009	-0.912109375	0.481445313	-0.149658203	891.46	34.50229204	-73.88372593	-131.5107742	-54
25428	0	0.378685951	0.06387043	0.090145111	0.999999046	-0.000119209	-0.000320435	0.000175476	9.467148781	1.59676075	2.253627777	-0.005960465	-0.016021729	0.008773804	-0.912109375	0.481445313	-0.149658203	891.46	34.52741433	-73.91551649	-131.5645572	-54
25429	0	0.377807617	0.063537598	0.089599609	0.999999046	-9.15527E-05	-0.000208855	0.000236511	9.44519043	1.588439941	2.239990234	-0.004577637	-0.010442734	0.011825562	-0.912109375	0.479248047	-0.149414063	891.4	34.51078953	-73.94069469	-131.5713871	-54
25430	0	0.377387047	0.061571121	0.092930794	0.999999046	-0.000114441	-5.72205E-05	7.24792E-05	9.43467617	1.53927803	2.323269844	-0.005722046	-0.002861023	0.003623962	-0.911865234	0.481445313	-0.155517578	891.46	34.51064819	-73.94077056	-131.5853797	-52
25431	0	0.378051758	0.06262207	0.091796875	0.999999046	-0.000240326	-0.000239372	5.34058E-05	9.451293945	1.565551758	2.294921875	-0.012016297	-0.011968613	0.002670288	-0.912109375	0.483642578	-0.152587891	891.46	34.5432651	-73.95669915	-131.6526699	-54
25432	0	0.37858963	0.0649786	0.090363503	0.999999046	-6.00815E-05	-0.000249863	9.82285E-05	9.464740753	1.624464989	2.259087563	-0.003004074	-0.012493134	0.004911423	-0.909667969	0.481445313	-0.149658203	891.42	34.58459581	-73.97641387	-131.7114443	-52
25433	0	0.378540039	0.06427002	0.091552734	0.999999046	-0.000137329	-0.000460625	4.57764E-05	9.463500977	1.606750488	2.288818359	-0.006866455	-0.023031236	0.002288818	-0.909667969	0.483642578	-0.152832031	891.4	34.68238772	-74.01242662	-131.8296872	-52
25434	0	0.379910469	0.063660622	0.090608597	0.999999046	-0.000116348	-0.00031662	-2.28882E-05	9.497761726	1.591515541	2.26521492	-0.005817413	-0.015830994	-0.001144409	-0.914550781	0.481445313	-0.15234375	891.4	34.77276268	-74.03026544	-131.9397516	-54
25435	0	0.381347656	0.064025879	0.090087891	0.999999046	-0.000141144	0.0001688	-3.05176E-05	9.533691406	1.600646973	2.252197266	-0.00705719	0.008440018	-0.001525879	-0.914550781	0.481445313	-0.149414063	891.48	34.75217044	-74.00184232	-131.9433532	-52
25436	0	0.379177094	0.064206123	0.088890076	0.999999046	0.000216484	0.000339508	3.8147E-05	9.479427338	1.605153084	2.222251892	0.010824204	0.016975403	0.001907349	-0.912109375	0.481445313	-0.146728516	891.32	34.7115202	-73.96180245	-131.8891204	-54
25437	0	0.377624512	0.064697266	0.090148926	0.999999046	0.000171661	0.0004282	0.000236511	9.440612793	1.617431641	2.253723145	0.008583069	0.021409989	0.011825562	-0.909667969	0.481445313	-0.149658203	891.4	34.58124565	-73.92620298	-131.7420342	-53
25438	0	0.378553391	0.064731598	0.09099865	0.999999046	0.000289917	0.000329971	9.15527E-05	9.463834763	1.618289948	2.27496624	0.01449585	0.016498566	0.004577637	-0.911865234	0.479248047	-0.15234375	891.36	34.53476932	-73.89028486	-131.665793	-52
25439	0	0.378723145	0.064575195	0.091369629	0.999999046	0.00018692	0.000100136	0.000225067	9.468078613	1.614379883	2.284240723	0.009346008	0.00500679	0.011253357	-0.912109375	0.481445313	-0.149658203	891.4	34.48482009	-73.88462506	-131.603959	-54
25440	0	0.378367424	0.063461304	0.089772224	0.999999046	0.000349998	0.000104904	0.000324249	9.4591856	1.586532593	2.244305611	0.017499924	0.005245209	0.016212464	-0.911865234	0.481445313	-0.158447266	891.38	34.42019857	-73.88492417	-131.4912981	-54
25441	0	0.378295898	0.063903809	0.090698242	0.999999046	0.000362396	7.34329E-05	0.000209808	9.457397461	1.597595215	2.267456055	0.018119813	0.003671646	0.010490418	-0.909423828	0.479003906	-0.15234375	891.4	34.40161879	-73.88071753	-131.4374499	-52
25442	0	0.37843132	0.064359665	0.090583801	0.999999046	0.000366211	0.000125885	0.000288963	9.460783005	1.608991623	2.264595032	0.018310548	0.006294251	0.014448166	-0.909667969	0.481445313	-0.155517578	891.4	34.34605368	-73.87660715	-131.3394086	-52
25443	0	0.377746582	0.063293457	0.091491699	0.999999046	0.000175476	3.91006E-05	0.000335693	9.443664551	1.582336426	2.28729248	0.008773804	0.001955032	0.016784668	-0.912109375	0.483642578	-0.149658203	891.36	34.27269127	-73.88363224	-131.2584193	-54
25444	0	0.378147125	0.06270504	0.091864586	0.999999046	0.000132561	-0.000257492	0.000236511	9.453678131	1.567625999	2.296614647	0.006628037	-0.012874604	0.011825562	-0.912109375	0.483642578	-0.152587891	891.36	34.29299397	-73.91226347	-131.2735435	-52
25445	0	0.378356934	0.063049316	0.092224121	0.999999046	0.00025177	-0.000235558	0.000217438	9.45892334	1.57623291	2.305603027	0.012588501	-0.011777878	0.010871888	-0.912109375	0.483642578	-0.155517578	891.46	34.32823014	-73.93749411	-131.2839095	-54
25446	0	0.378184319	0.064029694	0.092561722	0.999999046	0.000310898	-0.00037384	0.000289917	9.454607964	1.60074234	2.314043045	0.015544892	-0.018692018	0.01449585	-0.909667969	0.483642578	-0.155761719	891.38	34.3775482	-73.98035168	-131.299727	-54
25447	0	0.379943848	0.060791016	0.090881348	0.999999046	0.000484467	-0.000517845	0.000362396	9.498596191	1.519775391	2.272033691	0.02422333	-0.02589226	0.018119814	-0.912109375	0.483642578	-0.152587891	891.46	34.45525714	-74.04154217	-131.3309491	-52
25448	0	0.381545067	0.061881065	0.088105202	0.999999046	0.000893593	-0.000307083	0.000510216	9.538626671	1.547026634	2.202630043	0.04467965	-0.015354159	0.025510793	-0.909667969	0.485839844	-0.156005859	891.42	34.48341417	-74.0925143	-131.2545904	-52
25449	0	0.380065918	0.060180664	0.088317871	0.999999046	0.001068115	-4.86374E-05	0.000637054	9.501647949	1.504516602	2.207946777	0.053405776	-0.00243187	0.03185273	-0.909667969	0.483642578	-0.152832031	891.36	34.43015701	-74.12739737	-131.0816332	-52
25450	0	0.377221107	0.05983448	0.091508865	0.999998093	0.001393318	0.000151634	0.000555992	9.430527687	1.495862007	2.287721634	0.069665935	0.007581714	0.027799617	-0.909667969	0.485839844	-0.158935547	891.4	34.39456178	-74.13799677	-130.8795084	-52
25451	0	0.377563477	0.060668945	0.092102051	0.999998093	0.001328468	7.62939E-05	0.000389099	9.439086914	1.516723633	2.30255127	0.066423437	0.003814698	0.019454962	-0.909667969	0.483642578	-0.161621094	891.38	34.42365748	-74.14480232	-130.7505152	-52
25452	0	0.378206253	0.060678482	0.091631889	0.999998093	0.001451492	-0.000370979	0.000339508	9.455156326	1.516962051	2.290797234	0.072574644	-0.018548973	0.01697541	-0.909667969	0.485839844	-0.161865234	891.36	34.58515208	-74.19060449	-130.745431	-52
25453	0	0.380493164	0.059997559	0.088623047	0.999998093	0.001408577	-0.00043869	0.000495911	9.512329102	1.499938965	2.215576172	0.070428877	-0.021934518	0.024795542	-0.909667969	0.485839844	-0.158935547	891.36	34.7052947	-74.2530594	-130.7096727	-52
25454	0	0.379898071	0.059567451	0.089281082	0.999998093	0.001481056	-0.000281334	0.000582695	9.497451782	1.489186287	2.232027054	0.074052843	-0.014066702	0.029134763	-0.909667969	0.485839844	-0.156005859	891.4	34.7679844	-74.30641265	-130.6134394	-52
25455	0	0.38092041	0.059997559	0.089660645	0.999998093	0.001481056	-0.000236511	0.000507355	9.523010254	1.499938965	2.241516113	0.074052842	-0.011825566	0.025367747	-0.907226563	0.485839844	-0.161865234	891.46	34.8449559	-74.35065523	-130.5215282	-54
25456	0	0.38010788	0.061333656	0.086673737	0.999998093	0.001438141	-1.62125E-05	0.00045681	9.502696991	1.533341408	2.166843414	0.071907071	-0.000810623	0.022840509	-0.909667969	0.485839844	-0.161865234	891.46	34.88249735	-74.37095441	-130.3977766	-54
25457	0	0.379089355	0.061645508	0.088256836	0.999999046	0.00125885	0.000134468	0.000495911	9.477233887	1.541137695	2.206420898	0.062942524	0.006723406	0.02479554	-0.909667969	0.485839844	-0.161865234	891.36	34.8508934	-74.37961055	-130.2266665	-54
25458	0	0.378943443	0.061426163	0.086676598	0.999999046	0.000812531	0.000165939	0.00026226	9.473586082	1.535654068	2.16691494	0.040626531	0.008296968	0.013113024	-0.907226563	0.485839844	-0.161865234	891.46	34.83943872	-74.37001676	-130.1306804	-52
25459	0	0.379577637	0.063049316	0.088623047	0.999999046	0.000720978	6.58035E-05	0.000236511	9.489440918	1.57623291	2.215576172	0.036048893	0.003290177	0.011825563	-0.907226563	0.488037109	-0.165039063	891.36	34.84975586	-74.36806736	-130.0633042	-54
25460	0	0.37861824	0.061959267	0.088337898	0.999999046	0.000475883	7.62939E-06	0.000217438	9.465456009	1.548981667	2.208447456	0.023794175	0.00038147	0.010871888	-0.907226563	0.488037109	-0.162109375	891.36	34.85201085	-74.37028669	-130.0234939	-52
25461	0	0.37878418	0.062194824	0.087219238	0.999999046	0.000171661	-0.000151634	0.00012207	9.469604492	1.554870605	2.180480957	0.008583069	-0.007581711	0.006103516	-0.909667969	0.488037109	-0.170654297	891.4	34.88888631	-74.38122131	-130.0396816	-54
25462	0	0.380534172	0.063351631	0.08689785	0.999999046	9.72748E-05	-0.000139236	4.57764E-05	9.513354301	1.583790779	2.172446251	0.004863739	-0.006961823	0.002288818	-0.907226563	0.485839844	-0.161865234	891.36	34.94037207	-74.3859695	-130.0961682	-52
25463	0	0.381225586	0.062683105	0.085632324	0.999999046	-4.95911E-05	0.00017643	0.000144958	9.530639648	1.567077637	2.140808105	-0.002479553	0.008821488	0.007247925	-0.907226563	0.485595703	-0.164794922	891.46	34.86799561	-74.36762116	-130.0361806	-54
25464	0	0.378587723	0.062808037	0.087052345	0.999999046	-0.000157356	9.53674E-05	0.000212669	9.464693069	1.57020092	2.176308632	-0.007867813	0.004768372	0.010633469	-0.907226563	0.488037109	-0.16796875	891.42	34.77983044	-74.36127592	-129.9661955	-54
25465	0	0.378662109	0.061340332	0.086608887	0.999999046	-2.28882E-05	8.86917E-05	6.48499E-05	9.466552734	1.533508301	2.165222168	-0.001144409	0.004434586	0.003242493	-0.907226563	0.485595703	-0.164794922	891.4	34.7584611	-74.34591604	-129.9564312	-54
25466	0	0.378959656	0.061836243	0.088142395	0.999999046	-0.000177383	4.95911E-05	0.000128746	9.473991394	1.545906067	2.203559875	-0.008869171	0.002479553	0.006437302	-0.907226563	0.488037109	-0.16796875	891.36	34.70705782	-74.33837466	-129.9271769	-54
25467	0	0.37890625	0.061645508	0.089355469	0.999999046	-0.000148773	-7.9155E-05	0.000114441	9.47265625	1.541137695	2.233886719	-0.00743866	-0.003957748	0.005722046	-0.907226563	0.488037109	-0.165039063	891.46	34.6935729	-74.34195167	-129.939226	-54
25468	0	0.378994942	0.060738564	0.087603569	0.999999046	-0.000157356	-0.000144958	6.77109E-05	9.474873543	1.518464088	2.190089226	-0.007867813	-0.007247925	0.003385544	-0.907226563	0.488037109	-0.16796875	891.36	34.71003198	-74.34870347	-129.976734	-54
25469	0	0.380310059	0.061035156	0.086486816	0.999999046	-0.000339508	-0.00014019	3.8147E-06	9.507751465	1.525878906	2.16217041	-0.016975403	-0.007009506	0.000190735	-0.904785156	0.487792969	-0.162109375	891.4	34.72608133	-74.35090872	-130.0449292	-54
25470	0	0.379906654	0.060301781	0.085992813	0.999999046	-0.000259399	5.91278E-05	0.00012207	9.497666359	1.507544518	2.149820328	-0.012969971	0.00295639	0.006103516	-0.912109375	0.488037109	-0.164794922	891.36	34.66512944	-74.34216223	-130.0211736	-52
25471	0	0.379333496	0.061218262	0.087402344	0.999999046	-0.000213623	0.000184059	0.000114441	9.483337402	1.530456543	2.185058594	-0.010681153	0.009202957	0.005722046	-0.907226563	0.488037109	-0.16796875	891.36	34.58305623	-74.32114638	-129.9618656	-54
25472	0	0.378765106	0.061764717	0.088238716	0.999999046	-0.000304222	0.000282288	1.90735E-05	9.469127655	1.544117928	2.205967903	-0.015211106	0.01411438	0.000953674	-0.907226563	0.485595703	-0.167724609	891.42	34.50016964	-74.28460865	-129.913796	-52
25473	0	0.378845215	0.06036377	0.087463379	0.999999046	-0.000221252	-2.86102E-06	0.000118256	9.471130371	1.509094238	2.186584473	-0.011062622	-0.000143051	0.005912781	-0.907226563	0.488037109	-0.162109375	891.42	34.45937039	-74.28147953	-129.9101376	-54
25474	0	0.380141258	0.060601234	0.086449623	0.999999046	-0.000249863	-2.67029E-05	0.000117302	9.503531456	1.515030861	2.161240578	-0.012493134	-0.001335144	0.005865097	-0.907226563	0.485595703	-0.167724609	891.36	34.42118643	-74.28064401	-129.9010605	-54
25475	0	0.379699707	0.059814453	0.08782959	0.999999046	-0.000118256	4.29153E-05	-1.14441E-05	9.492492676	1.495361328	2.195739746	-0.005912781	0.002145767	-0.000572205	-0.907226563	0.488037109	-0.165039063	891.42	34.42512622	-74.26494944	-129.9251548	-54
25476	0	0.380483627	0.062060356	0.086837769	0.999999046	-6.58035E-05	0.000246048	0.000110626	9.512090683	1.551508904	2.170944214	-0.003290176	0.012302399	0.005531311	-0.907226563	0.485595703	-0.167724609	891.42	34.34781124	-74.23800455	-129.8543307	-52
25477	0	0.37902832	0.061523438	0.088012695	0.999999046	-4.19617E-05	0.000279427	7.24792E-05	9.475708008	1.538085938	2.200317383	-0.002098084	0.013971329	0.003623962	-0.907226563	0.488037109	-0.165039063	891.36	34.27873606	-74.2054228	-129.7953388	-54
25478	0	0.37788868	0.061033249	0.088106155	0.999999046	-9.53674E-06	0.000211716	6.10352E-05	9.447216988	1.525831223	2.202653885	-0.000476837	0.010585785	0.003051758	-0.907226563	0.488037109	-0.165039063	891.4	34.23290406	-74.17851444	-129.7573639	-54
25479	0	0.378540039	0.059631348	0.089538574	0.999999046	-0.000225067	0.000245094	0.000133514	9.463500977	1.490783691	2.238464355	-0.011253357	0.012254715	0.00667572	-0.907226563	0.488037109	-0.162109375	891.46	34.13045742	-74.15310676	-129.6925245	-54
25480	0	0.378329277	0.061686516	0.089689255	0.999999046	6.38962E-05	-1.33514E-05	5.34058E-05	9.458231926	1.542162895	2.242231369	0.003194809	-0.000667572	0.002670288	-0.907226563	0.485595703	-0.167724609	891.42	34.14658717	-74.14700159	-129.7055212	-54
25481	0	0.379211426	0.06072998	0.090332031	0.999999046	0.000152588	-0.000136375	0.000133514	9.480285645	1.518249512	2.258300781	0.007629395	-0.006818771	0.00667572	-0.904785156	0.485595703	-0.165039063	891.36	34.17381471	-74.15768836	-129.7236137	-54
25482	0	0.379617691	0.061142921	0.087828636	0.999999046	0.000242233	-8.58307E-05	-2.76566E-05	9.490442276	1.528573036	2.195715904	0.012111664	-0.004291534	-0.001382828	-0.909667969	0.485839844	-0.164794922	891.46	34.25382361	-74.1532632	-129.7885755	-54
25483	0	0.378295898	0.061706543	0.088317871	0.999999046	0.000263214	0.000184059	9.53674E-05	9.457397461	1.542663574	2.207946777	0.013160706	0.009202957	0.004768372	-0.904785156	0.487792969	-0.165039063	891.32	34.23402209	-74.13120917	-129.7454912	-54
25484	0	0.379800797	0.061985016	0.087569237	0.999999046	0.000390053	0.000165939	2.67029E-05	9.495019913	1.549625397	2.189230919	0.01950264	0.008296967	0.001335144	-0.904785156	0.487792969	-0.168212891	891.36	34.25605022	-74.10650749	-129.725726	-52
25485	0	0.379577637	0.063659668	0.089050293	0.999999046	0.000289917	0.000187874	8.01086E-05	9.489440918	1.591491699	2.226257324	0.01449585	0.009393692	0.004005432	-0.904785156	0.487792969	-0.168212891	891.42	34.24425906	-74.08313471	-129.6840075	-54
25486	0	0.378516197	0.061635971	0.089094162	0.999999046	0.000431061	8.2016E-05	-3.43323E-05	9.46290493	1.540899277	2.22735405	0.02155304	0.0041008	-0.001716614	-0.906982422	0.485595703	-0.173583984	891.38	34.31059696	-74.06241553	-129.6983309	-54
25487	0	0.378417969	0.061401367	0.088562012	0.999999046	0.000476837	0.000149727	0.000179291	9.460449219	1.53503418	2.214050293	0.023841859	0.007486344	0.008964539	-0.907226563	0.487792969	-0.173828125	891.42	34.29606394	-74.04912386	-129.6242204	-54
25488	0	0.377802849	0.061900139	0.089957237	0.999999046	0.000603676	0.000270844	0.000243187	9.44507122	1.547503471	2.248930931	0.030183795	0.013542176	0.012159349	-0.907226563	0.485595703	-0.167724609	891.42	34.24765871	-74.02844456	-129.5145865	-54
25489	0	0.378051758	0.062866211	0.08984375	0.999999046	0.000453949	0.000252724	0.000160217	9.451293945	1.571655273	2.24609375	0.02269745	0.012636185	0.008010865	-0.907226563	0.487792969	-0.173828125	891.32	34.21396669	-74.00406865	-129.427434	-54
25490	0	0.380162239	0.062886238	0.089794159	0.999999046	0.000400543	0.000379562	-2.76566E-05	9.504055977	1.572155952	2.244853973	0.020027162	0.01897812	-0.001382828	-0.906982422	0.485595703	-0.176513672	891.42	34.2080777	-73.95555935	-129.3725279	-54
25491	0	0.379943848	0.0625	0.090148926	0.999999046	0.000507355	0.000630379	7.24792E-05	9.498596191	1.5625	2.253723145	0.02536774	0.03151894	0.003623963	-0.906982422	0.485595703	-0.170654297	891.4	34.1258618	-73.88971172	-129.2405845	-54
25492	0	0.377950668	0.062411308	0.08732605	0.999999046	0.000601768	0.000537872	0.000167847	9.448766708	1.560282707	2.183151245	0.030088428	0.026893619	0.008392335	-0.906982422	0.485595703	-0.176513672	891.4	34.04491355	-73.83883236	-129.0900193	-54
25493	0	0.379638672	0.063110352	0.090393066	0.999999046	0.000831604	0.000592232	4.57764E-05	9.490966797	1.577758789	2.25982666	0.041580207	0.029611593	0.002288819	-0.906982422	0.485595703	-0.179443359	891.36	34.01909754	-73.7749394	-128.9673512	-52
25494	0	0.378314972	0.064936638	0.091586113	0.999999046	0.000753403	0.000377655	0.000198364	9.457874298	1.623415947	2.289652824	0.03767014	0.018882754	0.009918214	-0.906982422	0.485595703	-0.176513672	891.38	33.98259081	-73.74111277	-128.8516395	-54
25495	0	0.378601074	0.061828613	0.090332031	0.999999046	0.000720978	0.000336647	1.52588E-05	9.465026855	1.545715332	2.258300781	0.036048893	0.016832353	0.00076294	-0.904296875	0.483154297	-0.182373047	891.36	34.01121599	-73.69952287	-128.7973902	-54
25496	0	0.378848076	0.062432289	0.088176727	0.999999046	0.000555992	0.00025177	0.000125885	9.471201897	1.560807228	2.204418182	0.027799608	0.012588502	0.006294251	-0.904541016	0.485595703	-0.176757813	891.32	34.00400142	-73.67325008	-128.7386583	-54
25497	0	0.37890625	0.063293457	0.088623047	0.999999046	0.000606537	0.000187874	0.000240326	9.47265625	1.582336426	2.215576172	0.030326846	0.009393693	0.012016297	-0.904296875	0.483154297	-0.182373047	891.36	33.97991128	-73.66050029	-128.6469343	-54
