Counter	Temperature	VelInc_X	VelInc_Y	VelInc_Z	OriInc_w	OriInc_x	OriInc_y	OriInc_z	Acc_X	Acc_Y	Acc_Z	Gyr_X	Gyr_Y	Gyr_Z	Mag_X	Mag_Y	Mag_Z	Pressure	Roll	Pitch	Yaw	RSSI
7878	0	0.385026932	-0.084292412	0.07526207	0.999980927	0.005696297	0.000969887	0.001989365	9.625673294	-2.107310295	1.881551743	0.284816607	0.048494641	0.09946885	-0.668457031	-0.011230469	-0.741455078	895.86	-35.94373391	-79.5112662	46.61436653	-73
7879	0	0.387939453	-0.071289063	0.067749023	0.999943733	0.009838104	0.00143528	0.003547668	9.698486328	-1.782226563	1.693725586	0.491914349	0.071765325	0.177386717	-0.668212891	-0.017822266	-0.740966797	895.84	-36.00866279	-79.13741025	47.82126403	-73
7880	0	0.38974762	-0.058028221	0.058884621	0.999930382	0.010313988	0.001691818	0.005460739	9.743690491	-1.450705528	1.472115517	0.51571134	0.084592873	0.273043285	-0.662841797	-0.029052734	-0.748779297	895.92	-36.76721299	-78.60789044	49.79392773	-71
7881	0	0.393066406	-0.05279541	0.05480957	0.999956131	0.005314827	0.001625061	0.007488251	9.826660156	-1.319885254	1.370239258	0.2657452	0.081254229	0.374417963	-0.665039063	-0.033447266	-0.742675781	895.9	-38.8416438	-77.93287121	52.53681175	-69
7882	0	0.388413429	-0.061161041	0.054802895	0.999958038	0.001662254	0.001355171	0.008857727	9.710335732	-1.529026031	1.370072365	0.083113867	0.067759498	0.442892484	-0.660644531	-0.026855469	-0.751953125	895.92	-41.67635596	-77.15689742	55.63721999	-67
7883	0	0.379455566	-0.061645508	0.058410645	0.999949455	0.003700256	0.000657082	0.009319305	9.48638916	-1.541137695	1.460266113	0.185015931	0.032854633	0.465973113	-0.660888672	-0.020263672	-0.749755859	895.86	-44.32999971	-76.37243749	58.80158127	-66
7884	0	0.380601883	-0.041820526	0.067801476	0.999951363	0.006705284	0.000707626	0.007101059	9.515047073	-1.045513153	1.695036888	0.335269564	0.035381883	0.355058622	-0.661132813	-0.013671875	-0.744384766	895.86	-45.6217033	-75.7401149	60.92218041	-65
7885	0	0.384338379	-0.02947998	0.077819824	0.999944687	0.009823799	0.000869751	0.003391266	9.608459473	-0.736999512	1.945495605	0.491198861	0.043488337	0.169566367	-0.658691406	-0.016113281	-0.75	895.88	-45.2456866	-75.39481607	61.68718398	-64
7886	0	0.385670662	-0.028936386	0.071417809	0.999962807	0.008577347	0.000507355	-0.000375748	9.641766548	-0.723409653	1.785445213	0.428872627	0.02536805	-0.018787616	-0.658203125	-0.027099609	-0.749267578	895.9	-43.94875303	-75.38652444	61.35251619	-64
7887	0	0.38092041	-0.042480469	0.06237793	0.999998093	-0.000746727	-0.000152588	-0.001747131	9.523010254	-1.062011719	1.559448242	-0.037336372	-0.007629399	-0.08735662	-0.657714844	-0.040283203	-0.748291016	895.86	-43.48021135	-75.54146513	60.78049091	-64
7888	0	0.374627113	-0.062437057	0.056797981	0.999975204	-0.006778717	-0.000639915	-0.001739502	9.365677834	-1.560926437	1.419949532	-0.338938642	-0.031996037	-0.086975814	-0.66015625	-0.038085938	-0.75390625	895.84	-43.84985639	-75.73663866	60.36417094	-64
7889	0	0.377624512	-0.076782227	0.059387207	0.999980927	-0.005824089	-0.000911713	-0.001602173	9.440612793	-1.919555664	1.484680176	-0.291206264	-0.045585916	-0.080109141	-0.658203125	-0.027099609	-0.752197266	895.9	-44.2429896	-75.94388468	60.08065781	-66
7890	0	0.379333496	-0.07676506	0.065366745	0.999984741	-0.00492382	-0.000805855	-0.001113892	9.483337402	-1.919126511	1.634168625	-0.246192097	-0.040292915	-0.055694823	-0.660888672	-0.022460938	-0.743652344	895.9	-44.66349798	-76.10345712	59.93443817	-65
7891	0	0.38494873	-0.074279785	0.07232666	0.999980927	-0.006037712	-0.000537872	-0.000244141	9.623718262	-1.856994629	1.808166504	-0.301887457	-0.026893781	-0.012207106	-0.660888672	-0.018310547	-0.752685547	895.9	-45.41481701	-76.17071643	59.99933132	-66
7892	0	0.382322311	-0.074251175	0.078103065	0.999978065	-0.006573677	0.000146866	0.00050354	9.558057785	-1.856279373	1.952576637	-0.328686236	0.007343345	0.025177184	-0.663574219	-0.009277344	-0.750488281	895.92	-46.2445159	-76.12094982	60.08370234	-66
7893	0	0.379272461	-0.077697754	0.078613281	0.999993324	-0.003452301	0.000561714	0.000663757	9.481811523	-1.942443848	1.965332031	-0.172615416	0.028085768	0.033187936	-0.661865234	0.00390625	-0.748779297	895.92	-46.62559973	-76.02409398	60.06810719	-66
7894	0	0.381287575	-0.074933052	0.074193001	0.999999046	-4.96E-05	0.000684738	0.000329971	9.532189369	-1.873326302	1.85482502	-0.002479553	0.034236911	0.016498567	-0.659667969	0.005859375	-0.749023438	895.92	-46.46934506	-75.94481795	59.89910475	-66
7895	0	0.380310059	-0.073791504	0.067687988	0.999999046	0.000766754	0.000721931	0.000137329	9.507751465	-1.844787598	1.692199707	0.038337715	0.03609658	0.006866456	-0.659667969	0.008056641	-0.749267578	895.86	-46.14920115	-75.87818489	59.6549634	-66
7896	0	0.380927086	-0.06994915	0.066879272	0.999998093	0.001558304	0.000567436	0.000255585	9.523177147	-1.748728752	1.671981812	0.077915228	0.028371824	0.012779242	-0.657226563	0.008056641	-0.755126953	895.98	-45.8289405	-75.81377494	59.50130147	-66
7897	0	0.381835938	-0.063720703	0.065979004	0.999999046	0.000591278	0.000638008	0.000457764	9.545898438	-1.593017578	1.649475098	0.029563909	0.031900411	0.022888187	-0.659423828	0.003662109	-0.751708984	895.92	-45.66176449	-75.72725294	59.39638693	-66
7898	0	0.382728577	-0.062098503	0.068798065	0.999999046	-0.000947952	0.000534058	0.000571251	9.568214417	-1.552462578	1.71995163	-0.047397625	0.026702888	0.028562553	-0.657226563	0.005859375	-0.751953125	895.84	-45.73980468	-75.6399938	59.36228951	-65
7899	0	0.383056641	-0.065795898	0.070739746	0.999999046	-0.001239777	0.000313759	-9.16E-05	9.576416016	-1.644897461	1.768493652	-0.061988848	0.015687947	-0.004577638	-0.654785156	0.005615234	-0.754882813	895.88	-45.71401479	-75.62484351	59.18750744	-66
7900	0	0.377650261	-0.06701088	0.074776649	0.999999046	-0.001055717	0.000144958	-0.000535011	9.441256523	-1.675271988	1.869416237	-0.052785886	0.007247927	-0.026750571	-0.655029297	0.0078125	-0.755126953	895.92	-45.5811516	-75.65934399	58.92286499	-66
7901	0	0.378051758	-0.073486328	0.073364258	0.999999046	-0.000968933	-6.39E-05	-0.000492096	9.451293945	-1.837158203	1.834106445	-0.048446665	-0.00319481	-0.024604802	-0.655029297	0.010009766	-0.752441406	895.86	-45.51780306	-75.70665255	58.7393672	-66
7902	0	0.379842758	-0.074354172	0.07365799	0.999999046	-0.000577927	0.000144958	-0.000301361	9.496068954	-1.858854294	1.841449738	-0.028896334	0.007247925	-0.015068055	-0.654785156	0.0078125	-0.758056641	895.86	-45.4022919	-75.72117113	58.54989355	-66
7903	0	0.37878418	-0.074645996	0.071594238	0.999999046	-0.000404358	0.000153542	0.000164032	9.469604492	-1.866149902	1.789855957	-0.020217896	0.007677079	0.008201599	-0.655029297	0.010009766	-0.755371094	895.88	-45.41164037	-75.69667803	58.50898786	-65
7904	0	0.380691528	-0.071352005	0.073178291	0.999999046	0.000464439	-9.54E-06	0.000411987	9.517288208	-1.783800125	1.829457283	0.023221971	-0.000476837	0.020599367	-0.655029297	0.010009766	-0.755371094	895.86	-45.45151122	-75.66486303	58.60216668	-65
7905	0	0.379333496	-0.0703125	0.073364258	0.999999046	-7.25E-05	8.58E-06	0.000289917	9.483337402	-1.7578125	1.834106445	-0.003623962	0.000429153	0.01449585	-0.655029297	0.010009766	-0.755371094	895.88	-45.50806532	-75.641378	58.64956134	-65
7906	0	0.378679276	-0.07267952	0.073724747	0.999999046	0.000249863	-0.000104904	0.000163078	9.466981888	-1.816987991	1.843118668	0.012493134	-0.005245209	0.008153916	-0.654785156	0.0078125	-0.758056641	895.9	-45.52389615	-75.6371082	58.69443737	-65
7907	0	0.38092041	-0.072509766	0.072692871	0.999999046	0.000846863	-0.000166893	-6.48E-05	9.523010254	-1.812744141	1.817321777	0.042343145	-0.008344651	-0.003242493	-0.655029297	0.010009766	-0.755371094	895.9	-45.41954015	-75.65626895	58.68274687	-65
7908	0	0.38156414	-0.073495865	0.073299408	0.999999046	0.001357079	-0.000150681	-0.000149727	9.539103508	-1.837396622	1.832485199	0.067853949	-0.007534029	-0.007486346	-0.655029297	0.0078125	-0.755126953	895.92	-45.22462354	-75.68080611	58.63786832	-65
7909	0	0.380859375	-0.066955566	0.071838379	0.999997139	0.001964569	-0.00032711	-6.48E-05	9.521484375	-1.67388916	1.795959473	0.09822852	-0.016355525	-0.003242495	-0.654785156	0.003417969	-0.757568359	895.92	-45.04218158	-75.71271921	58.67842542	-64
7910	0	0.38018322	-0.06576252	0.073862076	0.999998093	0.001587868	-0.000159264	2.86E-06	9.504580498	-1.644062996	1.846551895	0.079393421	-0.007963184	0.000143051	-0.654785156	0.005615234	-0.760742188	895.8	-44.86975004	-75.7255651	58.67952519	-64
7911	0	0.383178711	-0.064697266	0.070495605	0.999998093	0.001671791	-0.000152588	-0.000156403	9.579467773	-1.617431641	1.762390137	0.083589593	-0.007629398	-0.007820133	-0.656982422	-0.000732422	-0.757080078	895.86	-44.63383275	-75.75090195	58.62997313	-64
7912	0	0.381328583	-0.065073967	0.070901871	0.999999046	0.001246452	-0.000276566	-0.000305176	9.533214569	-1.626849174	1.772546768	0.062322634	-0.013828282	-0.015258793	-0.656982422	-0.000732422	-0.757080078	895.88	-44.43702687	-75.79839302	58.56803454	-64
7913	0	0.37701416	-0.063598633	0.069396973	0.999999046	0.000785828	-0.000258446	-0.000198364	9.425354004	-1.58996582	1.734924316	0.039291387	-0.012922289	-0.009918214	-0.656738281	-0.005126953	-0.756835938	895.9	-44.32078217	-75.83594302	58.5377225	-64
7914	0	0.37933445	-0.067184448	0.069793701	0.999999046	0.000392914	-0.000236511	-8.77E-05	9.483361244	-1.679611206	1.744842529	0.019645692	-0.011825562	-0.004386902	-0.659179688	-0.005126953	-0.75390625	895.94	-44.27844014	-75.86284663	58.53744896	-64
7915	0	0.383117676	-0.06640625	0.069030762	0.999999046	0.000545502	-0.000323296	-0.000221252	9.577941895	-1.66015625	1.725769043	0.027275087	-0.016164781	-0.011062623	-0.656738281	-0.007324219	-0.750976563	895.86	-44.20264389	-75.90765498	58.52170213	-64
7916	0	0.382274628	-0.065796852	0.06824398	0.999999046	0.000203133	-0.000211716	-8.39E-05	9.556865692	-1.644921303	1.70609951	0.010156632	-0.010585785	-0.004196167	-0.656494141	-0.009521484	-0.756591797	895.86	-44.17552176	-75.93244796	58.51612449	-64
7917	0	0.380554199	-0.062866211	0.069152832	0.999999046	-0.000350952	-2.19E-05	0.0001297	9.51385498	-1.571655273	1.728820801	-0.017547608	-0.001096725	0.006484986	-0.656738281	-0.007324219	-0.750976563	895.92	-44.22106341	-75.92474259	58.51963064	-64
7918	0	0.378464699	-0.065333366	0.070126534	0.999999046	-0.000989914	-4.96E-05	0.000244141	9.46161747	-1.63333416	1.753163338	-0.049495706	-0.002479554	0.012207033	-0.656738281	-0.007324219	-0.75390625	895.92	-44.38586115	-75.9101532	58.57185024	-64
7919	0	0.380737305	-0.067932129	0.068969727	0.999998093	-0.001452446	-0.000114441	8.77E-05	9.518432617	-1.698303223	1.724243164	-0.072622325	-0.005722048	0.004386903	-0.659179688	-0.005126953	-0.75390625	895.88	-44.57362594	-75.91337605	58.59361695	-63
7920	0	0.380496025	-0.072476387	0.070320129	0.999999046	-0.001164436	-0.000160217	-0.000226021	9.512400627	-1.811909676	1.758003235	-0.058221831	-0.008010866	-0.011301043	-0.659179688	-0.002929688	-0.751220703	895.92	-44.64178774	-75.94535398	58.5256285	-64
7921	0	0.38067627	-0.072021484	0.071960449	0.999999046	-0.000610352	-0.000102043	8.77E-05	9.516906738	-1.800537109	1.79901123	-0.03051758	-0.005102158	0.004386902	-0.659179688	-0.005126953	-0.748046875	895.9	-44.73035777	-75.94707022	58.54825471	-63
7922	0	0.379944801	-0.07119751	0.069719315	0.999999046	-0.000392914	-2.48E-05	0.000389099	9.498620033	-1.779937744	1.742982864	-0.019645692	-0.001239777	0.019454957	-0.659179688	-0.002929688	-0.751220703	895.92	-44.86747812	-75.91801042	58.64448182	-63
7923	0	0.379577637	-0.068969727	0.07244873	0.999999046	-0.000427246	0.000123024	0.000553131	9.489440918	-1.724243164	1.811218262	-0.021362306	0.0061512	0.027656557	-0.656982422	0.001464844	-0.751708984	895.92	-45.0130719	-75.86346659	58.74131413	-63
7924	0	0.382898331	-0.072748184	0.068207741	0.999999046	-0.000592232	-9.54E-05	0.000201225	9.572458267	-1.818704605	1.70519352	-0.02961159	-0.004768372	0.010061265	-0.659423828	-0.000732422	-0.748535156	895.86	-45.13505922	-75.85500778	58.79931433	-63
7925	0	0.381469727	-0.071716309	0.070495605	0.999999046	0.000362396	-0.000258446	9.92E-05	9.536743164	-1.792907715	1.762390137	0.018119813	-0.012922287	0.004959107	-0.656982422	0.001464844	-0.754394531	895.92	-45.16781643	-75.86786525	58.87287342	-63
7926	0	0.379112244	-0.068200111	0.071629524	0.999999046	0.000406265	-0.000257492	8.30E-05	9.477806091	-1.705002785	1.790738106	0.020313264	-0.012874604	0.004148483	-0.656982422	0.001464844	-0.754394531	895.84	-45.18976137	-75.881873	58.93971179	-63
7927	0	0.381652832	-0.069152832	0.07019043	0.999999046	0.000614166	-0.000266075	0.000171661	9.541320801	-1.728820801	1.754760742	0.030708315	-0.013303758	0.00858307	-0.659423828	0.001464844	-0.748779297	895.8	-45.21919698	-75.88931777	59.03971178	-63
7928	0	0.381482124	-0.069139481	0.068301201	0.999999046	0.000584602	-0.000108719	0.000163078	9.537053108	-1.728487015	1.707530022	0.02923012	-0.005435944	0.008153916	-0.659179688	-0.002929688	-0.754150391	895.98	-45.1986304	-75.88478033	59.08770236	-63
7929	0	0.381896973	-0.06854248	0.067199707	0.999999046	0.001033783	-0.000281334	0.000320435	9.547424316	-1.713562012	1.679992676	0.051689159	-0.014066699	0.016021732	-0.659179688	-0.002929688	-0.748291016	895.88	-45.23322247	-75.88146944	59.24535414	-62
7930	0	0.381282806	-0.065653801	0.069255829	0.999999046	0.001073837	-0.000284195	0.000277519	9.53207016	-1.641345024	1.731395721	0.053691876	-0.01420975	0.013875964	-0.659179688	-0.002929688	-0.751220703	895.86	-45.24992194	-75.88197896	59.38683889	-62
7931	0	0.379211426	-0.062561035	0.06854248	0.999999046	0.000904083	-0.000311852	0.000213623	9.480285645	-1.564025879	1.713562012	0.04520417	-0.015592578	0.010681154	-0.659179688	-0.002929688	-0.751220703	895.92	-45.2737978	-75.89012605	59.51414719	-62
7932	0	0.382216454	-0.063698769	0.068479538	0.999998093	0.001068115	-0.000405312	0.000213623	9.555411339	-1.592469215	1.711988449	0.053405774	-0.020265584	0.010681155	-0.659179688	-0.002929688	-0.748291016	895.94	-45.30871593	-75.90600076	59.67105478	-62
7933	0	0.382751465	-0.062561035	0.06817627	0.999999046	0.001033783	-0.000212669	0.000125885	9.568786621	-1.564025879	1.704406738	0.051689158	-0.010633471	0.006294252	-0.661621094	-0.007080078	-0.744873047	895.84	-45.25631856	-75.91374724	59.73873242	-62
7934	0	0.380138397	-0.066667557	0.067907333	0.999999046	-3.24E-05	-0.000143051	-0.0001297	9.50345993	-1.666688919	1.697683334	-0.001621246	-0.007152557	-0.006484985	-0.661376953	-0.007324219	-0.753662109	895.84	-45.22128227	-75.93676197	59.69599366	-62
7935	0	0.38067627	-0.067626953	0.067199707	0.999999046	6.87E-05	-0.000102043	-0.000175476	9.516906738	-1.690673828	1.679992676	0.003433228	-0.005102158	-0.008773804	-0.661376953	-0.009277344	-0.744873047	895.8	-45.14667453	-75.96023692	59.62858552	-62
7936	0	0.380896568	-0.067667007	0.068655968	0.999999046	-0.000105858	-0.000120163	2.67E-05	9.522414207	-1.691675186	1.716399193	-0.005292892	-0.006008148	0.001335144	-0.661376953	-0.009277344	-0.747558594	895.86	-45.16324512	-75.96874433	59.63388079	-61
7937	0	0.386474609	-0.067382813	0.067321777	0.999999046	8.01E-05	-6.01E-05	-0.000141144	9.661865234	-1.684570313	1.683044434	0.004005432	-0.003004074	-0.00705719	-0.661376953	-0.009277344	-0.744873047	895.92	-45.08482897	-75.98614907	59.56337555	-62
7938	0	0.381069183	-0.068058014	0.068323135	0.999999046	0.0007267	-5.34E-05	-0.000405312	9.526729584	-1.701450348	1.708078384	0.036334996	-0.002670288	-0.020265582	-0.661376953	-0.009277344	-0.744873047	895.88	-44.84404784	-76.02434825	59.39963699	-62
7939	0	0.378356934	-0.065734863	0.067749023	0.999999046	0.000968933	-0.000151634	-0.000297546	9.45892334	-1.643371582	1.693725586	0.048446664	-0.007581712	-0.014877322	-0.663574219	-0.011474609	-0.747314453	895.86	-44.64163181	-76.06174454	59.30428484	-62
7940	0	0.382933617	-0.066598892	0.066845894	0.999999046	0.000725746	-0.000228882	-0.00018692	9.573340416	-1.664972305	1.671147346	0.036287311	-0.011444093	-0.009346009	-0.663574219	-0.011474609	-0.747314453	895.88	-44.52823305	-76.09657577	59.26991143	-62
7941	0	0.38293457	-0.066223145	0.06451416	0.999999046	-0.0001297	-0.000292778	-0.000358582	9.573364258	-1.655578613	1.612854004	-0.006484986	-0.014638901	-0.017929078	-0.663574219	-0.013671875	-0.744384766	895.92	-44.47719389	-76.15057564	59.20185606	-62
7942	0	0.380213737	-0.067189217	0.066653252	0.999999046	-0.000354767	-0.000314713	-0.000114441	9.505343437	-1.679730415	1.666331291	-0.017738343	-0.015735627	-0.005722046	-0.663574219	-0.013671875	-0.744384766	895.86	-44.54042424	-76.18676148	59.22506527	-62
7943	0	0.379333496	-0.066650391	0.068725586	0.999999046	-0.000499725	-0.000292778	3.81E-06	9.483337402	-1.666259766	1.718139648	-0.024986268	-0.014638902	0.000190735	-0.663574219	-0.013671875	-0.747070313	895.92	-44.65270699	-76.21156108	59.28160761	-62
7944	0	0.381203651	-0.071360588	0.068429947	0.999999046	-0.000542641	-0.000221252	-0.000190735	9.530091286	-1.784014702	1.710748672	-0.027132036	-0.011062623	-0.009536744	-0.663574219	-0.011474609	-0.744384766	895.84	-44.68273946	-76.24597704	59.24659202	-63
7945	0	0.38293457	-0.073242188	0.067749023	0.999999046	-0.000392914	-0.000220299	-0.000331879	9.573364258	-1.831054688	1.693725586	-0.019645692	-0.011014939	-0.016593934	-0.663574219	-0.011474609	-0.747314453	895.9	-44.64926566	-76.29144733	59.16294904	-63
7946	0	0.383316994	-0.071759224	0.066972733	0.999999046	5.34E-05	-0.000110626	-2.77E-05	9.582924843	-1.793980598	1.674318314	0.002670288	-0.005531311	-0.001382828	-0.661376953	-0.011474609	-0.744628906	895.88	-44.63092403	-76.30330795	59.14731536	-63
7947	0	0.381835938	-0.06817627	0.067810059	0.999999046	0.000450134	-1.43E-05	0.000110626	9.545898438	-1.704406738	1.695251465	0.022506715	-0.000715256	0.005531311	-0.666015625	-0.011474609	-0.747314453	895.92	-44.58189037	-76.29609563	59.14665949	-63
7948	0	0.379686356	-0.065880775	0.067551613	0.999999046	0.000390053	7.63E-06	0.000121117	9.49215889	-1.647019386	1.688790321	0.01950264	0.00038147	0.006055832	-0.663574219	-0.011474609	-0.744384766	895.8	-44.53605895	-76.28623172	59.14173507	-63
7949	0	0.379943848	-0.066345215	0.067260742	0.999999046	0.000267029	0.000100136	-0.000171661	9.498596191	-1.658630371	1.681518555	0.013351441	0.00500679	-0.008583069	-0.665771484	-0.013671875	-0.747070313	895.94	-44.37595836	-76.29227994	59.00681738	-63
7950	0	0.387094498	-0.067276001	0.065847397	0.999999046	-6.48E-05	4.01E-05	-0.000100136	9.677362442	-1.681900024	1.646184921	-0.003242493	0.002002716	-0.00500679	-0.665771484	-0.013671875	-0.747070313	895.92	-44.29810554	-76.29754283	58.91730826	-63
7951	0	0.385375977	-0.067810059	0.069213867	0.999999046	0.000362396	-2.19E-05	-0.000202179	9.634399414	-1.695251465	1.73034668	0.018119813	-0.001096725	-0.010108948	-0.665771484	-0.013671875	-0.747070313	895.86	-44.15726434	-76.31593512	58.81211627	-63
7952	0	0.376127243	-0.064127922	0.070768356	0.999999046	0.000332832	-3.05E-05	6.48E-05	9.403181076	-1.603198051	1.769208908	0.016641617	-0.001525879	0.003242493	-0.663574219	-0.013671875	-0.747070313	895.84	-44.11201671	-76.31356553	58.80055698	-63
7953	0	0.380004883	-0.067260742	0.068786621	0.999999046	0.00018692	-3.34E-05	0.000209808	9.50012207	-1.681518555	1.719665527	0.009346008	-0.00166893	0.010490418	-0.665771484	-0.015869141	-0.749755859	895.84	-44.13357697	-76.29975859	58.84353912	-63
7954	0	0.382482529	-0.070203781	0.067931175	0.999999046	0.000846863	0.000131607	0.00020504	9.562063217	-1.755094528	1.698279381	0.042343145	0.006580354	0.010252	-0.663574219	-0.013671875	-0.75	895.86	-44.02474429	-76.27261901	58.82474284	-63
7955	0	0.382385254	-0.067749023	0.066040039	0.999999046	0.000595093	-2.86E-06	0.000499725	9.559631348	-1.693725586	1.651000977	0.029754642	-0.000143051	0.02498627	-0.663330078	-0.018066406	-0.743896484	895.88	-44.08851816	-76.23309214	58.96188393	-63
7956	0	0.380059242	-0.067863464	0.06947422	0.999998093	0.00141716	-2.38E-05	0.000793457	9.501481056	-1.696586609	1.736855507	0.070858033	-0.001192093	0.039672869	-0.665771484	-0.015869141	-0.744140625	895.94	-44.1627311	-76.17170229	59.20251256	-63
7957	0	0.380249023	-0.063537598	0.069396973	0.999995232	0.00276947	-5.63E-05	0.000595093	9.506225586	-1.588439941	1.734924316	0.138473696	-0.002813343	0.029754678	-0.663330078	-0.018066406	-0.743896484	895.84	-44.02489797	-76.12889301	59.38195732	-63
7958	0	0.383481026	-0.059897423	0.067730904	0.999999046	0.00125885	4.01E-05	0.000136375	9.587025642	-1.49743557	1.693272591	0.062942522	0.002002717	0.006818773	-0.665527344	-0.022460938	-0.746337891	895.8	-43.87524123	-76.11502674	59.37495541	-63
7959	0	0.382873535	-0.063781738	0.068725586	0.999999046	0.000240326	0.000195503	0.000160217	9.571838379	-1.594543457	1.718139648	0.012016297	0.009775162	0.008010864	-0.663085938	-0.022460938	-0.746582031	895.86	-43.80026456	-76.08653403	59.3237032	-63
7960	0	0.381789207	-0.063628197	0.066462517	0.999999046	0.000128746	0.000209808	0.000395775	9.544730186	-1.590704918	1.66156292	0.006437302	0.010490418	0.019788743	-0.663330078	-0.020263672	-0.746582031	895.8	-43.81229104	-76.03836318	59.34630066	-63
7961	0	0.380249023	-0.063354492	0.067810059	0.999999046	-0.000297546	0.000142097	0.000476837	9.506225586	-1.583862305	1.695251465	-0.01487732	0.007104874	0.023841859	-0.665527344	-0.022460938	-0.746337891	895.88	-43.92120805	-75.98949182	59.42435717	-63
7962	0	0.379497528	-0.06320858	0.068855286	0.999999046	6.10E-05	0.000112534	0.000331879	9.487438202	-1.5802145	1.721382141	0.003051758	0.005626679	0.016593933	-0.663330078	-0.020263672	-0.746582031	895.94	-43.9497476	-75.9546862	59.45830166	-63
7963	0	0.384643555	-0.062011719	0.067932129	0.999999046	-0.000617981	0.000134468	0.000110626	9.616088867	-1.550292969	1.698303223	-0.03089905	0.006723404	0.005531311	-0.663330078	-0.020263672	-0.749511719	895.86	-43.97570042	-75.93593458	59.41013562	-63
7964	0	0.382596016	-0.0635252	0.06917572	0.999999046	-0.000449181	0.000114441	6.10E-05	9.564900398	-1.588129997	1.729393005	-0.022459031	0.005722046	0.003051758	-0.663330078	-0.020263672	-0.749511719	895.84	-43.97204853	-75.9229272	59.35263031	-64
7965	0	0.378540039	-0.064025879	0.069946289	0.999999046	-0.000282288	-9.06E-05	0.000179291	9.463500977	-1.600646973	1.748657227	-0.01411438	-0.004529953	0.008964539	-0.663330078	-0.020263672	-0.749511719	895.88	-44.05285244	-75.91746345	59.40278968	-64
7966	0	0.379932404	-0.065361977	0.069656372	0.999999046	-9.54E-06	-0.000167847	-0.000245094	9.498310089	-1.634049416	1.741409302	-0.000476837	-0.008392334	-0.012254715	-0.665771484	-0.020263672	-0.743652344	895.84	-43.98726885	-75.95219193	59.33635787	-63
7967	0	0.380310059	-0.067199707	0.068786621	0.999999046	0.000106812	-0.000216484	-0.000263214	9.507751465	-1.679992676	1.719665527	0.005340576	-0.010824204	-0.013160706	-0.665771484	-0.020263672	-0.743652344	895.84	-43.91777237	-75.99234847	59.27846352	-64
7968	0	0.383852959	-0.065152168	0.069365501	0.999999046	0.000149727	-0.000167847	5.25E-05	9.596323967	-1.628804207	1.734137535	0.007486343	-0.008392334	0.002622604	-0.663330078	-0.020263672	-0.749511719	895.8	-43.93203663	-76.00346448	59.3085538	-63
7969	0	0.381408691	-0.064575195	0.069213867	0.999999046	-2.67E-05	-4.10E-05	8.39E-05	9.535217285	-1.614379883	1.73034668	-0.001335144	-0.0020504	0.004196167	-0.663330078	-0.020263672	-0.743896484	895.88	-43.93633199	-76.00167297	59.30965614	-64
7970	0	0.380426407	-0.064764977	0.068323135	0.999999046	2.48E-05	-0.000167847	-0.000172615	9.510660172	-1.619124413	1.708078384	0.001239777	-0.008392334	-0.008630753	-0.66796875	-0.020019531	-0.743652344	895.88	-43.89016168	-76.0308158	59.26541208	-63
7971	0	0.383789063	-0.068054199	0.068969727	0.999999046	0.000274658	-4.48E-05	-0.000499725	9.594726563	-1.70135498	1.724243164	0.013732911	-0.002241135	-0.024986268	-0.663330078	-0.020263672	-0.743896484	895.78	-43.66711474	-76.07565734	59.0652097	-63
7972	0	0.382398605	-0.068305969	0.069215775	0.999999046	0.00036335	-9.16E-05	-0.000320435	9.559965134	-1.707649231	1.730394363	0.018167496	-0.004577637	-0.016021729	-0.665527344	-0.022460938	-0.743408203	895.88	-43.50822503	-76.10997212	58.94436782	-63
7973	0	0.378845215	-0.066772461	0.068603516	0.999999046	0.000907898	-0.000201225	1.53E-05	9.471130371	-1.669311523	1.715087891	0.045394904	-0.010061265	0.00076294	-0.665283203	-0.024658203	-0.749023438	895.8	-43.43474917	-76.12682446	58.97473703	-63
7974	0	0.380701065	-0.06269455	0.067525864	0.999999046	0.000621796	-2.67E-05	7.15E-05	9.517526627	-1.567363739	1.688146591	0.031089785	-0.001335144	0.003576279	-0.66796875	-0.024414063	-0.740234375	895.86	-43.3572457	-76.12486204	58.96945899	-63
7975	0	0.382385254	-0.063903809	0.069885254	0.999999046	0.000354767	-0.00014019	-0.000152588	9.559631348	-1.597595215	1.747131348	0.017738343	-0.007009506	-0.007629395	-0.663085938	-0.024658203	-0.743408203	895.86	-43.27057143	-76.15000598	58.91925786	-63
7976	0	0.385047913	-0.066120148	0.066771507	0.999999046	0.000247002	-3.43E-05	-7.34E-05	9.626197815	-1.653003693	1.669287682	0.012350083	-0.001716614	-0.003671646	-0.667724609	-0.024414063	-0.749023438	895.84	-43.1897653	-76.16017024	58.86057511	-63
7977	0	0.380859375	-0.063659668	0.068786621	0.999999046	0.000774384	-7.53E-05	1.14E-05	9.521484375	-1.591491699	1.719665527	0.038719181	-0.003767014	0.000572205	-0.665283203	-0.026855469	-0.743164063	895.86	-43.09025334	-76.16713391	58.84829659	-63
7978	0	0.377999306	-0.061551094	0.06711483	0.999999046	0.000400543	-4.20E-05	0.000133514	9.449982643	-1.538777351	1.67787075	0.020027161	-0.002098084	0.00667572	-0.665283203	-0.026855469	-0.743164063	895.88	-43.0643433	-76.1618824	58.86685109	-63
7979	0	0.382080078	-0.063781738	0.067321777	0.999999046	0.000167847	-6.39E-05	-0.000247955	9.552001953	-1.594543457	1.683044434	0.008392334	-0.003194809	-0.012397766	-0.667724609	-0.028808594	-0.745605469	895.88	-42.94244518	-76.18838926	58.76118216	-63
7980	0	0.384256363	-0.065217018	0.066316605	0.999999046	-0.000172615	0.000116348	-0.00017643	9.606409073	-1.630425453	1.657915115	-0.008630753	0.005817413	-0.008821488	-0.665283203	-0.029052734	-0.742919922	895.88	-42.82710938	-76.19423355	58.62269947	-63
7981	0	0.382751465	-0.065673828	0.067565918	0.999999046	-0.000118256	-8.68E-05	0.000213623	9.568786621	-1.641845703	1.689147949	-0.005912781	-0.004339218	0.010681152	-0.665283203	-0.028808594	-0.740234375	895.88	-42.90381677	-76.18674046	58.6895476	-63
7982	0	0.379745483	-0.062923431	0.069437027	0.999999046	-0.000286102	-1.53E-05	0.000465393	9.493637085	-1.573085785	1.735925674	-0.014305115	-0.000762939	0.023269654	-0.662841797	-0.029052734	-0.743164063	895.84	-43.06246399	-76.15356029	58.82101281	-63
7983	0	0.379272461	-0.063659668	0.069152832	0.999999046	-0.000347137	-6.01E-05	0.000106812	9.481811523	-1.591491699	1.728820801	-0.017356873	-0.003004074	0.005340576	-0.665283203	-0.026855469	-0.743164063	895.86	-43.1201239	-76.15214576	58.83927697	-63
7984	0	0.382622719	-0.067024231	0.068387985	0.999999046	-0.000138283	-0.000114441	-0.000195503	9.56556797	-1.675605774	1.709699631	-0.006914139	-0.005722046	-0.009775162	-0.667724609	-0.026611328	-0.745849609	895.8	-43.06896898	-76.1789039	58.76916877	-63
7985	0	0.383117676	-0.065673828	0.068725586	0.999999046	6.48E-05	-0.000159264	-0.000144958	9.577941895	-1.641845703	1.718139648	0.003242493	-0.007963181	-0.007247925	-0.665283203	-0.026855469	-0.74609375	895.8	-43.02608733	-76.20543547	58.73020402	-63
7986	0	0.381448746	-0.066836357	0.067573547	0.999999046	0.000232697	-8.01E-05	5.63E-05	9.536218643	-1.670908928	1.689338684	0.011634827	-0.004005432	0.002813339	-0.662841797	-0.029052734	-0.745849609	895.86	-43.00798654	-76.20955992	58.73894455	-63
7987	0	0.380737305	-0.066040039	0.068664551	0.999999046	0.000392914	1.62E-05	2.67E-05	9.518432617	-1.651000977	1.71661377	0.019645691	0.000810623	0.001335144	-0.665283203	-0.029052734	-0.748779297	895.86	-42.93111501	-76.20785807	58.70469898	-63
7988	0	0.381341934	-0.065032005	0.067017555	0.999999046	0.000201225	1.34E-05	2.86E-06	9.533548355	-1.625800133	1.675438881	0.010061264	0.000667572	0.000143051	-0.665283203	-0.026855469	-0.743164063	895.86	-42.86942561	-76.20828861	58.66118825	-64
7989	0	0.38104248	-0.065307617	0.068786621	0.999999046	0.000228882	-7.15E-05	-1.53E-05	9.526062012	-1.63269043	1.719665527	0.011444092	-0.003576279	-0.000762939	-0.665283203	-0.03125	-0.742919922	895.86	-42.82554838	-76.21721661	58.6464108	-64
7990	0	0.38514328	-0.065937996	0.065831184	0.999999046	0.000108719	3.81E-06	2.86E-06	9.628582001	-1.648449898	1.64577961	0.005435944	0.000190735	0.000143051	-0.665283203	-0.026855469	-0.74609375	895.86	-42.77848354	-76.21849387	58.60453232	-64
7991	0	0.381774902	-0.065063477	0.068969727	0.999999046	0.000728607	-0.000185966	-0.000179291	9.544372559	-1.626586914	1.724243164	0.036430363	-0.009298326	-0.008964539	-0.667480469	-0.028808594	-0.748535156	895.92	-42.6581415	-76.24986521	58.56106176	-64
7992	0	0.378709793	-0.063791275	0.068310738	0.999999046	0.000697136	-0.000162125	-0.000195503	9.467744827	-1.594781876	1.70776844	0.034856799	-0.008106232	-0.009775163	-0.665283203	-0.03125	-0.742919922	895.86	-42.52798873	-76.28045004	58.50712033	-64
7993	0	0.381530762	-0.063781738	0.067260742	0.999999046	0.000484467	6.96E-05	-0.000137329	9.538269043	-1.594543457	1.681518555	0.024223329	0.003480911	-0.006866455	-0.667480469	-0.031005859	-0.745605469	895.88	-42.36884652	-76.28695912	58.3958585	-65
7994	0	0.382575989	-0.064040184	0.066520691	0.999999046	-0.000377655	2.86E-05	-0.000119209	9.564399719	-1.601004601	1.663017273	-0.018882752	0.001430512	-0.005960465	-0.667480469	-0.033203125	-0.745361328	895.8	-42.32816537	-76.29557585	58.30964381	-65
7995	0	0.380554199	-0.064147949	0.067138672	0.999999046	-0.000114441	-1.43E-05	-9.92E-05	9.51385498	-1.60369873	1.678466797	-0.005722046	-0.000715256	-0.004959106	-0.665039063	-0.033447266	-0.748291016	895.88	-42.27821325	-76.30629208	58.2431515	-65
7996	0	0.378066063	-0.062563896	0.070346832	0.999999046	-0.000216484	-0.000118256	-0.000588417	9.451651573	-1.564097404	1.758670807	-0.010824204	-0.005912781	-0.029420855	-0.665283203	-0.03125	-0.742919922	895.86	-42.10148797	-76.36337812	58.03147815	-66
7997	0	0.37298584	-0.063537598	0.069396973	0.999999046	-0.000160217	-0.000357628	-0.000999451	9.324645996	-1.588439941	1.734924316	-0.008010866	-0.017881397	-0.049972544	-0.667480469	-0.033203125	-0.748291016	895.86	-41.84722387	-76.47201999	57.74646562	-66
7998	0	0.379828453	-0.069272041	0.071115494	0.999998093	-0.000544548	-0.000535011	-0.001476288	9.495711327	-1.731801033	1.777887344	-0.027227414	-0.026750577	-0.073814426	-0.667480469	-0.033203125	-0.742431641	895.88	-41.51858918	-76.63148691	57.33957541	-66
7999	0	0.381958008	-0.073730469	0.0703125	0.999998093	-0.000807762	-0.000778198	-0.001502991	9.548950195	-1.843261719	1.7578125	-0.040388131	-0.038909935	-0.07514958	-0.665039063	-0.035400391	-0.739501953	895.88	-41.28176102	-76.81292545	56.9983184	-66
8000	0	0.383527756	-0.076120377	0.07642746	0.999997139	-0.00121212	-0.001001358	-0.001178741	9.588193893	-1.903009415	1.910686493	-0.060606042	-0.050067934	-0.058937111	-0.667480469	-0.035400391	-0.742431641	895.86	-41.27887392	-76.98807892	56.84885424	-67
8001	0	0.378417969	-0.073913574	0.079162598	0.999997139	-0.001464844	-0.000693321	-0.001091003	9.460449219	-1.847839355	1.979064941	-0.073242234	-0.034666083	-0.054550206	-0.669677734	-0.037597656	-0.741943359	895.88	-41.23503672	-77.12910196	56.63345705	-68
8002	0	0.375778198	-0.080780029	0.081271172	0.999998093	-0.000649452	-0.000685692	-0.001343727	9.394454956	-2.019500732	2.031779289	-0.032472625	-0.034284607	-0.067186386	-0.669921875	-0.033203125	-0.739501953	895.8	-40.99653762	-77.2870823	56.30484839	-70
8003	0	0.378845215	-0.079956055	0.07800293	0.999997139	0.000705719	-0.000811577	-0.001808167	9.471130371	-1.998901367	1.950073242	0.035285976	-0.040578872	-0.090408392	-0.672119141	-0.035400391	-0.7421875	895.88	-40.45704519	-77.48908545	55.82360079	-73
8004	0	0.377662659	-0.077570915	0.074386597	0.999997139	0.001467705	-0.00069046	-0.001725197	9.441566467	-1.939272881	1.859664917	0.073385307	-0.034523043	-0.086259923	-0.674316406	-0.041748047	-0.738525391	895.88	-39.80796423	-77.67228251	55.3250521	-76
8005	0	0.377868652	-0.073364258	0.073120117	0.999994278	0.002556801	-0.000926971	-0.001743317	9.446716309	-1.834106445	1.82800293	0.127840264	-0.046348652	-0.087165984	-0.674316406	-0.043945313	-0.732666016	895.88	-39.09003948	-77.87560326	54.87827291	-75
8006	0	0.373033524	-0.063036919	0.070313454	0.999995232	0.001983643	-0.001138687	-0.001986504	9.325838089	-1.575922966	1.757836342	0.099182281	-0.056934444	-0.099325332	-0.676269531	-0.052490234	-0.731933594	895.94	-38.38759482	-78.11361474	54.38611215	-72
8007	0	0.375549316	-0.063354492	0.069824219	0.999996185	0.000454903	-0.001247406	-0.002414703	9.38873291	-1.583862305	1.745605469	0.022745161	-0.062370379	-0.120735321	-0.676025391	-0.056884766	-0.731445313	895.88	-37.68771013	-78.38988373	53.71797819	-69
8008	0	0.381651878	-0.063279152	0.070822716	0.999993324	-0.000855446	-0.001346588	-0.003031731	9.541296959	-1.581978798	1.770567894	-0.042772377	-0.067329538	-0.151586829	-0.680419922	-0.061279297	-0.733886719	895.88	-36.85965777	-78.7156251	52.76863675	-67
8009	0	0.374572754	-0.069030762	0.07244873	0.999992371	-0.002024651	-0.001319885	-0.003051758	9.364318848	-1.725769043	1.811218262	-0.101232784	-0.065994429	-0.152588276	-0.680419922	-0.063476563	-0.730712891	895.84	-36.09905957	-79.03667362	51.75485683	-68
8010	0	0.372982025	-0.06704998	0.071860313	0.999991417	-0.001758575	-0.00151062	-0.003193855	9.324550629	-1.676249504	1.796507835	-0.087929	-0.075531202	-0.159693179	-0.682861328	-0.065429688	-0.727539063	895.92	-35.2532453	-79.38123656	50.68767227	-72
8011	0	0.373840332	-0.07208252	0.070922852	0.99998951	-0.002437592	-0.001643181	-0.003498077	9.346008301	-1.802062988	1.773071289	-0.121880002	-0.082159328	-0.174904478	-0.685058594	-0.067626953	-0.727294922	895.84	-34.31539289	-79.7538745	49.4502544	-78
8012	0	0.371120453	-0.074168205	0.070068359	0.999988556	-0.00220108	-0.001864433	-0.003736496	9.278011322	-1.854205132	1.751708984	-0.110054425	-0.093222011	-0.186825492	-0.6875	-0.067626953	-0.724365234	895.94	-33.22225219	-80.15748148	48.08069104	-70
8013	0	0.36895752	-0.073364258	0.06817627	0.999986649	-0.002272606	-0.002006531	-0.004001617	9.223937988	-1.834106445	1.704406738	-0.113630772	-0.10032696	-0.200081712	-0.689697266	-0.071777344	-0.723876953	895.84	-31.93614524	-80.58487965	46.51187737	-66
8014	0	0.369532585	-0.074142456	0.068120956	0.999984741	-0.002257347	-0.002436638	-0.004285812	9.238314629	-1.853561401	1.703023911	-0.112867908	-0.121832491	-0.214291669	-0.691894531	-0.076171875	-0.720458984	895.92	-30.50128035	-81.06361269	44.79983762	-69
8015	0	0.365600586	-0.070678711	0.067871094	0.999984741	-0.001547813	-0.002662659	-0.004524231	9.140014648	-1.766967773	1.696777344	-0.077391057	-0.133133599	-0.226212677	-0.694091797	-0.078125	-0.720214844	895.88	-28.73633719	-81.56917213	42.83264214	-72
8016	0	0.361841202	-0.068599701	0.067926407	0.999979973	-0.001885414	-0.003007889	-0.005146027	9.046030045	-1.714992523	1.698160172	-0.09427132	-0.150395419	-0.257303007	-0.698730469	-0.084716797	-0.713623047	895.84	-26.45250232	-82.13060482	40.31104991	-66
8017	0	0.358825684	-0.072570801	0.068847656	0.999974251	-0.001262665	-0.003397942	-0.006141663	8.97064209	-1.81427002	1.721191406	-0.063133775	-0.16989852	-0.307085733	-0.703369141	-0.088867188	-0.707275391	895.92	-23.06190172	-82.76046907	36.74404953	-66
8018	0	0.354689598	-0.070045471	0.068089485	0.99996376	-0.000382423	-0.003891945	-0.007439613	8.867239952	-1.75113678	1.702237129	-0.019121395	-0.194599535	-0.371985047	-0.707519531	-0.099609375	-0.706298828	895.84	-17.8698155	-83.45725523	31.46939601	-74
8019	0	0.351745605	-0.076477051	0.067565918	0.99995327	0.000164032	-0.004179955	-0.008651733	8.793640137	-1.91192627	1.689147949	0.008201725	-0.209000943	-0.432593329	-0.711914063	-0.112548828	-0.69921875	895.86	-10.19415678	-84.14349172	23.76880526	-66
8020	0	0.340773582	-0.077960968	0.066520691	0.999945641	0.001072884	-0.004590988	-0.009274483	8.519339561	-1.9490242	1.663017273	0.053645148	-0.229553549	-0.463732503	-0.713623047	-0.125732422	-0.692382813	895.86	0.142159701	-84.74359636	13.50522254	-75
8021	0	0.333496094	-0.079345703	0.066833496	0.999946594	0.001336098	-0.004646301	-0.009044647	8.337402344	-1.983642578	1.670837402	0.066806057	-0.232319136	-0.452240289	-0.720214844	-0.140625	-0.685058594	895.86	12.31193357	-85.146334	1.440468595	-66
8022	0	0.328656197	-0.083436966	0.064752579	0.999949455	0.001565933	-0.00481987	-0.0086689	8.216404915	-2.085924149	1.618814468	0.078297977	-0.24099755	-0.433452261	-0.724365234	-0.157958984	-0.677734375	895.88	25.55352996	-85.33732352	-11.66060801	-71
8023	0	0.332275391	-0.109680176	0.069519043	0.999956131	0.00539875	-0.004928589	-0.005702972	8.306884766	-2.742004395	1.737976074	0.269941383	-0.246432974	-0.285152706	-0.728515625	-0.175292969	-0.670410156	895.86	36.27656721	-85.48430169	-21.78671652	-70
8024	0	0.333845139	-0.141964912	0.072008133	0.999871254	0.014180183	-0.00586319	0.004584312	8.346128464	-3.54912281	1.800203323	0.709039481	-0.293172017	0.229225421	-0.734863281	-0.192626953	-0.662841797	895.92	36.93775035	-86.34004189	-20.79736871	-65
8025	0	0.328613281	-0.170349121	0.105163574	0.999404907	0.023755074	-0.005882263	0.024288177	8.215332031	-4.258728027	2.629089355	1.187989141	-0.294171465	1.214649622	-0.746582031	-0.200927734	-0.647216797	895.78	-12.75336541	-87.70109159	31.74200825	-68
8026	0	0.347606659	-0.220539093	0.181368828	0.997272491	0.059267998	0.00568676	0.043602943	8.690166473	-5.513477325	4.534220695	2.966096404	0.284596728	2.182130975	-0.763671875	-0.19140625	-0.6328125	895.92	-57.90410422	-83.81835281	83.8015081	-67
8027	0	0.417297363	-0.157897949	0.313903809	0.994690895	0.080364227	0.028565407	0.057567596	10.43243408	-3.94744873	7.847595215	4.025336451	1.430802947	2.883483761	-0.767822266	-0.206542969	-0.625488281	895.84	-54.11574718	-76.42591383	89.39638266	-67
8028	0	0.280012131	-0.062249184	0.340875626	0.996589661	0.010940552	0.055563927	0.060009956	7.000303268	-1.556229591	8.52189064	0.547650213	2.78135847	3.003912977	-0.746582031	-0.192382813	-0.662109375	895.86	-50.25451523	-66.9902996	87.14445973	-67
8029	0	0.108886719	-0.061523438	0.414794922	0.995718956	0.039665222	0.066033363	0.051071167	2.722167969	-1.538085938	10.36987305	1.98609552	3.306386802	2.557207811	-0.682373047	-0.125	-0.748535156	895.92	-42.79704656	-57.42343438	84.24544177	-73
8030	0	-0.131999969	0.182234764	0.275817871	0.993776321	0.074339867	0.078162193	0.027769089	-3.299999237	4.555869102	6.895446777	3.724722603	3.916236352	1.391341648	-0.579101563	-0.144287109	-0.829589844	895.92	-30.45646394	-48.21129128	79.71607163	-76
8031	0	-0.380249023	0.530090332	0.158569336	0.996685982	0.035228729	0.071511269	-0.016151428	-9.506225586	13.2522583	3.964233398	1.763384484	3.579517746	-0.808464527	-0.451171875	-0.260986328	-0.887207031	895.86	-21.0885095	-41.49730169	72.6342651	-69
8032	0	-0.415203094	0.12271595	-0.051929474	0.995751381	-0.033463478	0.065666199	-0.055193901	-10.38007736	3.06789875	-1.298236847	-1.675547227	3.287967164	-2.763609557	-0.307861328	-0.301269531	-0.934570313	895.94	-17.98840538	-36.35480736	62.51858539	-75
8033	0	0.66027832	-1.047180176	-0.098327637	0.995645523	-0.049536705	0.056537628	-0.055122375	16.50695801	-26.17950439	-2.458190918	-2.480436163	2.83099123	-2.760125719	-0.149658203	-0.245605469	-0.987792969	895.94	-18.24172474	-32.0255073	53.59813285	-77
8034	0	2.378320694	0.999165535	1.572520256	0.987524986	-0.079860687	0.135520935	0.007026672	59.45801735	24.97913837	39.3130064	-4.009721115	6.804363617	0.352801829	-0.020019531	-0.1953125	-1.013183594	895.86	-25.11907624	-17.1881384	50.2419035	-66
8035	0	0.367919922	-0.340881348	0.633850098	0.999202728	0.030655861	-0.021709442	-0.013465881	9.197998047	-8.522033691	15.84625244	1.533200143	-1.0857604	-0.673472889	0.248779297	-0.011230469	-1.005859375	895.94	-21.43501668	-20.05052497	48.56176523	-67
8036	0	0.549423218	-0.294115067	-0.229535103	0.980414391	0.155238152	-0.104589462	-0.061233521	13.73558044	-7.352876663	-5.738377571	7.812981507	-5.263883436	-3.081822081	0.127197266	-0.184814453	-1.002197266	895.98	-1.149640878	-33.21608543	41.68378763	-89
8037	0	0.913208008	0.157409668	0.502075195	0.994771004	0.088260651	-0.04418087	-0.026210785	22.8302002	3.935241699	12.55187988	4.420739265	-2.212901283	-1.312827916	-0.012695313	-0.466796875	-0.9140625	895.88	11.48788752	-38.00561567	36.8457303	-86
8038	0	0.556332588	0.481179237	0.271421432	0.996148109	0.070558548	-0.019762039	-0.048158646	13.9083147	12.02948093	6.785535812	3.532463739	-0.989372498	-2.411028491	-0.035888672	-0.629638672	-0.804931641	895.94	24.34487397	-38.47988806	29.10213574	-88
8039	0	0.235046387	0.121948242	0.209411621	0.998465538	-0.021606445	-0.007502556	-0.050422668	5.876159668	3.048706055	5.235290527	-1.080874996	-0.375319721	-2.522423323	-0.003662109	-0.691650391	-0.755859375	895.92	26.24853583	-36.79277745	22.36201678	-81
8040	0	0.281963348	-0.002374649	0.256253242	0.998713493	-0.003731728	-0.008756638	-0.049806595	7.04908371	-0.059366226	6.406331062	-0.186666434	-0.438019729	-2.491398211	0.052001953	-0.663085938	-0.78125	895.94	29.86795195	-34.99800342	15.68834689	-75
8041	0	0.353027344	0.044799805	0.269592285	0.999194145	0.012104034	-0.010993004	-0.036651611	8.825683594	1.119995117	6.739807129	0.605364305	-0.549797852	-1.833072878	0.100830078	-0.653808594	-0.779052734	895.92	34.20361984	-33.8475931	10.57161653	-72
8042	0	0.250754356	0.091308594	0.236330986	0.999146461	0.037406921	-0.010251999	-0.014200211	6.26885891	2.282714844	5.908274651	1.870878288	-0.512745809	-0.710212567	0.124755859	-0.678466797	-0.749755859	895.92	39.87956278	-33.81689752	8.065800301	-71
8043	0	0.246520996	0.161132813	0.119018555	0.99987793	0.009137154	-0.010829926	0.006542206	6.163024902	4.028320313	2.975463867	0.45687623	-0.541518262	0.327123571	0.123779297	-0.728515625	-0.705566406	895.94	41.13496188	-35.26167377	7.808091335	-72
8044	0	0.234107018	0.195001602	0.184066772	0.999426842	-0.023526192	-0.016059875	0.018286705	5.852675438	4.875040054	4.601669312	-1.176534338	-0.803147199	0.914509949	0.093505859	-0.729736328	-0.712402344	895.92	38.15915732	-38.03108965	8.46243097	-75
8045	0	0.263793945	0.217529297	0.274841309	0.99883461	-0.038119316	-0.015903473	0.02494812	6.594848633	5.438232422	6.871032715	-1.906706227	-0.795482551	1.247890593	0.043212891	-0.691162109	-0.75	895.88	32.78512789	-41.18983833	10.23954717	-80
8046	0	0.314083099	0.121367455	0.301339149	0.998841286	-0.041917801	-0.011697769	0.020524979	7.852077484	3.034186363	7.533478737	-2.096699628	-0.585114384	1.026645343	-0.012695313	-0.623779297	-0.803955078	895.92	26.76960374	-43.53918598	12.20669298	-89
8047	0	0.293823242	0.091186523	0.315246582	0.999629974	-0.020487785	-0.008636475	0.015663147	7.345581055	2.279663086	7.881164551	-1.024515594	-0.431876983	0.783253927	-0.052246094	-0.559082031	-0.847167969	895.88	23.28037025	-45.21364859	13.91920871	-89
8048	0	0.326812744	0.151073456	0.270777702	0.99992466	0.004096031	-0.002380371	0.011246681	8.170318604	3.776836395	6.769442558	0.204806643	-0.119021509	0.56234802	-0.078857422	-0.536376953	-0.856201172	895.92	22.68898105	-45.98755303	15.42101403	-82
8049	0	0.333190918	0.19543457	0.290527344	0.99995327	0.007717133	0.005730629	-0.000869751	8.329772949	4.885864258	7.263183594	0.385862619	0.286535897	-0.043488224	-0.087646484	-0.549316406	-0.848876953	895.86	23.44931619	-45.36261487	15.61768673	-82
8050	0	0.274039268	0.177629471	0.235249519	0.999899864	-0.001094818	0.01402092	-0.001553535	6.850981712	4.440736771	5.881237984	-0.054742732	0.701069383	-0.077679365	-0.075683594	-0.556152344	-0.851806641	895.94	22.90982638	-43.83259173	16.25129572	-88
8051	0	0.225646973	0.191345215	0.175598145	0.999900818	-0.005713463	0.012073517	-0.004299164	5.641174316	4.783630371	4.389953613	-0.285682517	0.603695654	-0.214965246	-0.047607422	-0.554931641	-0.853515625	895.88	22.23689359	-42.38241486	16.34440094	-82
8052	0	0.24529171	0.087796211	0.263058662	0.99985981	-0.012225151	0.000299454	-0.011270523	6.132292747	2.194905281	6.57646656	-0.611285732	0.014973377	-0.563552132	-0.022216797	-0.538330078	-0.864746094	895.98	21.95680181	-41.87995372	14.74086614	-82
8053	0	0.260070801	-0.014221191	0.32409668	0.999836922	0.006774902	-0.006674767	-0.015346527	6.50177002	-0.355529785	8.102416992	0.338763523	-0.333756461	-0.767368048	-0.015625	-0.523193359	-0.869140625	896.08	24.49373988	-41.90306052	12.1051047	-82
8054	0	0.249145508	0.032958984	0.259094238	0.999599457	0.023720741	-0.008063316	-0.013118744	6.228637695	0.823974609	6.477355957	1.186195218	-0.403219578	-0.656024662	-0.010253906	-0.545410156	-0.859130859	895.84	28.82930903	-42.0672735	9.63935056	-78
8055	0	0.27100563	0.122326851	0.225955963	0.999698639	0.021513939	-0.010648727	-0.004869461	6.775140762	3.058171272	5.648899078	1.075804536	-0.532489625	-0.243497405	-0.013671875	-0.588867188	-0.826660156	895.88	32.33698903	-42.84655994	8.067997041	-79
8056	0	0.279109955	0.180971146	0.235368729	0.999936104	0.001080513	-0.010919571	0.002584457	6.977748871	4.524278641	5.884218216	0.054026794	-0.545990111	0.129225607	-0.022216797	-0.619140625	-0.806640625	895.98	32.90024539	-44.07138674	7.464444647	-78
8057	0	0.278015137	0.166870117	0.260864258	0.999773026	-0.018950462	-0.007316589	0.006309509	6.950378418	4.17175293	6.521606445	-0.947594585	-0.365857061	0.315499259	-0.045898438	-0.609619141	-0.811767578	895.94	30.59391145	-45.17441501	7.739167635	-78
8058	0	0.298764229	0.129999161	0.265872002	0.999732971	-0.021422386	-0.002049446	0.008414268	7.469105721	3.249979019	6.646800041	-1.071214646	-0.102481426	0.420750871	-0.063476563	-0.572021484	-0.83984375	895.92	27.43123708	-45.85725546	8.803064015	-78
8059	0	0.297790527	0.107849121	0.261901855	0.99992466	-0.00818634	0.002602577	0.008747101	7.444763184	2.696228027	6.547546387	-0.409327271	0.13013212	0.437365998	-0.073974609	-0.538818359	-0.859130859	895.88	25.46022699	-46.04717947	10.2701518	-79
8060	0	0.291442871	0.126342773	0.252807617	0.999951363	0.003209114	0.005115509	0.007770538	7.286071777	3.158569336	6.32019043	0.160458294	0.25577958	0.388533188	-0.078857422	-0.530029297	-0.865234375	895.86	24.76758802	-45.9051079	11.74571091	-81
8061	0	0.284790039	0.131286621	0.239685059	0.999970436	0.002334595	0.005364418	0.004959106	7.119750977	3.282165527	5.992126465	0.116730881	0.268223531	0.247957753	-0.073974609	-0.536621094	-0.862060547	895.88	24.27381341	-45.59254166	12.81607155	-83
8062	0	0.283471107	0.119735718	0.235638618	0.999992371	0.000653267	0.003136635	0.002094269	7.086777687	2.993392944	5.890965462	0.032663425	0.156832124	0.104713696	-0.069335938	-0.536865234	-0.859375	895.84	24.00744058	-45.37387201	13.30309351	-84
8063	0	0.282775879	0.111206055	0.237365723	0.999996185	0.002522469	0.000297546	-0.000267029	7.069396973	2.780151367	5.934143066	0.126123565	0.014877336	-0.013351455	-0.069335938	-0.5390625	-0.856445313	895.88	24.34105941	-45.34162725	13.24564175	-84
8064	0	0.284769058	0.116588593	0.238170624	0.999986649	0.004333496	-0.001889229	-0.002000809	7.119226456	2.914714813	5.954265594	0.216675756	-0.094461856	-0.100040875	-0.069091797	-0.545654297	-0.855957031	895.94	25.17104088	-45.45358546	12.7762359	-84
8065	0	0.286682129	0.125549316	0.237976074	0.999984741	0.003525734	-0.003196716	-0.002655029	7.167053223	3.13873291	5.949401855	0.17628757	-0.159836607	-0.132752122	-0.071044922	-0.552001953	-0.852294922	895.92	26.04707976	-45.66350976	12.11353662	-83
8066	0	0.288558006	0.120594978	0.247807503	0.999990463	0.001446724	-0.003216743	-0.002397537	7.213950157	3.014874458	6.195187569	0.072336416	-0.160837661	-0.119877225	-0.073242188	-0.55859375	-0.845947266	895.94	26.66432553	-45.88234843	11.49143872	-81
8067	0	0.288452148	0.115722656	0.256347656	0.999995232	0.000839233	-0.002135277	-0.001739502	7.211303711	2.893066406	6.408691406	0.041961728	-0.106763987	-0.086975218	-0.073242188	-0.560546875	-0.845947266	895.92	27.08778904	-46.02027226	11.04161785	-81
8068	0	0.286701202	0.113359451	0.25267601	0.999999046	0.00052166	-0.000694275	-0.000809669	7.16753006	2.833986282	6.316900253	0.026082999	-0.034713753	-0.040483484	-0.075683594	-0.560546875	-0.840087891	895.94	27.29843321	-46.05782273	10.8404705	-81
8069	0	0.288095474	0.118166924	0.246342659	0.999999046	-0.000232697	0.000315666	0.000328064	7.202386856	2.954173088	6.158566475	-0.011634827	0.015783311	0.016403199	-0.075683594	-0.562744141	-0.83984375	895.86	27.24631851	-46.05176463	10.88772046	-81
8070	0	0.290460587	0.117202759	0.246447563	0.999998093	-0.000872612	0.000758171	0.001194954	7.261514664	2.93006897	6.161189079	-0.04363062	0.037908572	0.059747723	-0.075683594	-0.560546875	-0.840087891	895.86	27.00395868	-46.0456258	11.09612694	-81
8071	0	0.288513184	0.121398926	0.24230957	0.999997139	-0.000827789	0.00124836	0.001522064	7.21282959	3.034973145	6.057739258	-0.041389497	0.062418031	0.076103268	-0.075927734	-0.556152344	-0.840332031	895.88	26.70518476	-46.00548112	11.38613277	-82
8072	0	0.286164284	0.123188019	0.236575127	0.999998093	-0.00066185	0.000880241	0.001513481	7.154107094	3.07970047	5.914378166	-0.033092518	0.044012095	0.075674101	-0.075683594	-0.556152344	-0.843261719	895.88	26.4459419	-46.00157052	11.64712485	-83
8073	0	0.286437988	0.123168945	0.238525391	0.999999046	-0.000408173	8.49E-05	0.000991821	7.160949707	3.079223633	5.963134766	-0.020408634	0.004243852	0.049591074	-0.075683594	-0.556152344	-0.848876953	895.88	26.31283048	-46.05201862	11.76865355	-82
8074	0	0.286761284	0.121609688	0.240869522	0.999999046	0.000284195	-0.000589371	0.000311852	7.169032097	3.040242195	6.021738052	0.014209749	-0.029468539	0.015592576	-0.075683594	-0.556152344	-0.848876953	895.86	26.3665856	-46.13689804	11.73915931	-82
8075	0	0.288330078	0.120666504	0.242980957	0.999999046	0.000801086	-0.001009941	-0.000431061	7.208251953	3.016662598	6.074523926	0.040054334	-0.050497071	-0.021553046	-0.075683594	-0.556152344	-0.843261719	895.84	26.58112579	-46.22671907	11.57085731	-82
8076	0	0.289578438	0.119600296	0.245622635	0.999998093	0.00079155	-0.000981331	-0.000653267	7.239460945	2.990007401	6.140565872	0.039577497	-0.04906656	-0.032663356	-0.077880859	-0.558349609	-0.845703125	895.92	26.81678122	-46.30147916	11.36948925	-82
8077	0	0.289367676	0.118774414	0.245483398	0.999999046	0.000419617	-0.000472069	-0.000549316	7.234191895	2.969360352	6.137084961	0.020980837	-0.023603442	-0.027465824	-0.077880859	-0.558349609	-0.845703125	895.8	26.97073029	-46.32886585	11.22013358	-82
8078	0	0.287880898	0.118501663	0.243768692	0.999999046	8.58E-05	5.72E-05	-0.00011158	7.197022438	2.96254158	6.0942173	0.004291534	0.002861023	-0.005578995	-0.077880859	-0.558349609	-0.845703125	895.98	27.01004095	-46.32454896	11.17577479	-82
8079	0	0.287780762	0.118164063	0.242553711	0.999999046	-0.000152588	0.000214577	0.000358582	7.194519043	2.954101563	6.063842773	-0.007629395	0.010728836	0.017929078	-0.075683594	-0.558349609	-0.843017578	895.98	26.96237384	-46.32839635	11.21641029	-82
8080	0	0.287334442	0.118738174	0.242650986	0.999999046	-0.00017643	7.82E-05	0.000563622	7.183361053	2.968454361	6.066274643	-0.008821488	0.003910065	0.028181078	-0.077880859	-0.558349609	-0.845703125	895.94	26.89666772	-46.3565589	11.27623178	-83
8081	0	0.288452148	0.120788574	0.242370605	0.999999046	3.05E-05	-6.01E-05	0.000415802	7.211303711	3.019714355	6.059265137	0.001525879	-0.003004074	0.020790101	-0.078125	-0.558349609	-0.843017578	896	26.87741721	-46.39093131	11.30696793	-83
8082	0	0.288033485	0.122028351	0.242938042	0.999999046	5.15E-05	-0.000162125	0.00025177	7.200837135	3.050708771	6.073451042	0.002574921	-0.008106232	0.012588501	-0.077880859	-0.558349609	-0.845703125	895.92	26.8832171	-46.42695903	11.30314698	-82
8083	0	0.288574219	0.120910645	0.243041992	0.999999046	0.000152588	-0.000323296	-0.000164032	7.214355469	3.022766113	6.076049805	0.007629395	-0.01616478	-0.008201599	-0.078125	-0.558349609	-0.843017578	895.8	26.95356753	-46.45762538	11.22809872	-82
8084	0	0.287653923	0.121627808	0.242390633	0.999999046	0.000321388	-0.000347137	-0.000138283	7.191348076	3.04069519	6.059765816	0.016069413	-0.017356873	-0.006914139	-0.080322266	-0.558349609	-0.845703125	895.92	27.04141736	-46.49172722	11.15194484	-82
8085	0	0.288818359	0.118835449	0.242126465	0.999999046	8.39E-05	-0.000231743	-0.000144958	7.220458984	2.97088623	6.053161621	0.004196167	-0.011587143	-0.007247925	-0.080322266	-0.558105469	-0.842773438	895.92	27.09586378	-46.51345442	11.08633642	-82
8086	0	0.289751053	0.118349075	0.243374825	0.999999046	0.000232697	-0.000137329	-6.58E-05	7.243776321	2.958726883	6.084370613	0.011634827	-0.006866455	-0.003290176	-0.080322266	-0.560302734	-0.842529297	895.88	27.1529568	-46.5294521	11.04276909	-82
8087	0	0.288574219	0.119628906	0.242004395	0.999999046	3.43E-05	-0.000113487	0.000160217	7.214355469	2.990722656	6.050109863	0.001716614	-0.005674362	0.008010864	-0.077880859	-0.560546875	-0.842773438	895.92	27.1610944	-46.55461873	11.0344008	-82
8088	0	0.288606644	0.119796753	0.242540359	0.999999046	-0.000174522	-3.43E-05	0.000278473	7.215166092	2.994918823	6.063508987	-0.00872612	-0.001716614	0.013923645	-0.080322266	-0.560546875	-0.845458984	895.88	27.12757425	-46.57766813	11.04863118	-82
8089	0	0.28894043	0.120849609	0.243103027	0.999999046	2.67E-05	8.58E-06	0.000171661	7.223510742	3.021240234	6.077575684	0.001335144	0.000429153	0.008583069	-0.080322266	-0.560546875	-0.845458984	895.88	27.12570658	-46.59049679	11.0507664	-82
8090	0	0.287635803	0.121861458	0.242001534	0.999999046	-0.000106812	1.53E-05	-9.54E-07	7.190895081	3.046536446	6.050038338	-0.005340576	0.000762939	-4.77E-05	-0.080322266	-0.558349609	-0.845703125	895.92	27.12636211	-46.5933476	11.02535662	-82
8091	0	0.287414551	0.119689941	0.24041748	0.999999046	0.00019455	-0.000208855	-1.91E-05	7.18536377	2.992248535	6.010437012	0.009727478	-0.010442734	-0.000953674	-0.078125	-0.558349609	-0.843017578	895.84	27.17542172	-46.61789851	10.98221966	-82
8092	0	0.287938118	0.119976997	0.241348267	0.999999046	0.000161171	-0.000305176	0.000141144	7.19845295	2.999424934	6.033706665	0.008058548	-0.015258789	0.00705719	-0.080322266	-0.560302734	-0.83984375	895.88	27.2082531	-46.66041534	10.96165436	-82
8093	0	0.288696289	0.11920166	0.241516113	0.999999046	0.000118256	-0.000193596	6.10E-05	7.217407227	2.980041504	6.037902832	0.005912781	-0.009679794	0.003051758	-0.080322266	-0.560546875	-0.845458984	895.98	27.23808499	-46.68717598	10.93250363	-82
8094	0	0.289049149	0.119894981	0.243022919	0.999999046	0.000265121	-0.000230789	5.63E-05	7.226228714	2.997374535	6.075572968	0.013256073	-0.011539459	0.002813339	-0.080322266	-0.560546875	-0.845458984	896	27.28680023	-46.71722351	10.89942125	-81
8095	0	0.289367676	0.121582031	0.24029541	0.999999046	-0.00018692	-7.53E-05	8.01E-05	7.234191895	3.039550781	6.007385254	-0.009346008	-0.003767014	0.004005432	-0.080322266	-0.560546875	-0.848388672	895.92	27.27212325	-46.73251248	10.88012037	-82
8096	0	0.289056778	0.119674683	0.241882324	0.999999046	0.000216484	-0.000143051	1.05E-05	7.226419449	2.991867065	6.047058105	0.010824204	-0.007152557	0.000524521	-0.080322266	-0.560302734	-0.842529297	895.88	27.31447638	-46.75082316	10.85052884	-81
8097	0	0.288635254	0.122314453	0.239257813	0.999999046	0.000171661	-0.000128746	7.63E-06	7.215881348	3.057861328	5.981445313	0.008583069	-0.006437302	0.00038147	-0.080322266	-0.560302734	-0.842529297	895.92	27.35095693	-46.7673362	10.82134878	-82
8098	0	0.288760185	0.120621681	0.240361214	0.999999046	-9.35E-05	-0.000135422	0	7.219004631	3.01554203	6.009030342	-0.004673004	-0.006771088	0	-0.080078125	-0.5625	-0.845214844	895.84	27.35785502	-46.78393445	10.79162975	-82
8099	0	0.288085938	0.120178223	0.240234375	0.999999046	0.000236511	-7.15E-05	0.000152588	7.202148438	3.004455566	6.005859375	0.011825562	-0.003576279	0.007629395	-0.080322266	-0.558105469	-0.842773438	895.94	27.38202001	-46.80187271	10.78568807	-82
8100	0	0.288096428	0.121973991	0.241843224	0.999999046	0.000208855	-0.000106812	0.000198364	7.202410698	3.049349785	6.046080589	0.010442734	-0.005340576	0.009918213	-0.082763672	-0.560302734	-0.839599609	895.98	27.39967106	-46.82552855	10.79017022	-82
8101	0	0.289611816	0.120788574	0.241210938	0.999999046	1.14E-05	-7.92E-05	4.96E-05	7.24029541	3.019714355	6.030273438	0.000572205	-0.003957748	0.002479553	-0.082519531	-0.560302734	-0.845458984	896.04	27.40884903	-46.83834309	10.76947048	-82
8102	0	0.28917408	0.120398521	0.241161346	0.999999046	0.000152588	-2.10E-05	3.72E-05	7.229351997	3.009963036	6.029033661	0.007629395	-0.001049042	0.001859665	-0.080078125	-0.5625	-0.845214844	895.86	27.43184161	-46.84438597	10.75419768	-82
8103	0	0.288513184	0.121582031	0.239501953	0.999999046	8.39E-05	5.44E-05	8.01E-05	7.21282959	3.039550781	5.987548828	0.004196167	0.002717972	0.004005432	-0.080322266	-0.560546875	-0.845458984	895.92	27.4377627	-46.84485322	10.74864157	-82
8104	0	0.288628578	0.121026039	0.240488052	0.999999046	-0.000107765	-3.81E-06	8.30E-05	7.215714455	3.025650978	6.012201309	-0.00538826	-0.000190735	0.004148483	-0.082519531	-0.5625	-0.845214844	895.88	27.42432138	-46.85118945	10.74325709	-82
8105	0	0.28894043	0.121520996	0.24017334	0.999999046	-2.67E-05	-2.96E-05	0.00019455	7.223510742	3.038024902	6.004333496	-0.001335144	-0.001478195	0.009727478	-0.080322266	-0.560302734	-0.842529297	895.88	27.40919635	-46.86585353	10.75218494	-82
8106	0	0.28894043	0.119503021	0.241260529	0.999999046	5.53E-05	-5.72E-06	9.44E-05	7.223510742	2.987575531	6.031513214	0.002765656	-0.000286102	0.004720688	-0.082519531	-0.5625	-0.839355469	895.92	27.41253442	-46.87262364	10.75468819	-82
8107	0	0.28918457	0.121032715	0.24029541	0.999999046	0.000396729	-7.92E-05	8.01E-05	7.229614258	3.025817871	6.007385254	0.019836426	-0.003957749	0.004005432	-0.080078125	-0.5625	-0.845214844	895.92	27.46036007	-46.88594897	10.74245976	-82
8108	0	0.288879395	0.122070313	0.240905762	0.999999046	-0.00014019	-2.67E-05	-3.43E-05	7.221984863	3.051757813	6.022644043	-0.007009506	-0.001335144	-0.001716614	-0.080322266	-0.5625	-0.839599609	895.84	27.45585737	-46.88767653	10.72337373	-82
8109	0	0.289123535	0.120178223	0.240600586	0.999999046	0.000167847	-4.48E-05	2.29E-05	7.228088379	3.004455566	6.015014648	0.008392334	-0.002241135	0.001144409	-0.082763672	-0.560302734	-0.839599609	895.92	27.48107347	-46.89411413	10.70890014	-81
8110	0	0.289333344	0.122076035	0.240410805	0.999999046	0.000402451	-7.06E-05	-7.72E-05	7.233333588	3.051900864	6.010270119	0.020122529	-0.003528595	-0.003862381	-0.080322266	-0.5625	-0.842529297	895.94	27.54525246	-46.8976893	10.67625228	-82
8111	0	0.289123535	0.121459961	0.24041748	0.999999046	-8.39E-05	0.000149727	0.0001297	7.228088379	3.036499023	6.010437012	-0.004196167	0.007486343	0.006484985	-0.080322266	-0.560302734	-0.836914063	895.88	27.51845138	-46.88966673	10.69455896	-82
8112	0	0.287556648	0.119940758	0.239973068	0.999999046	3.72E-05	-2.48E-05	0.000137329	7.188916206	2.998518944	5.999326706	0.001859665	-0.001239777	0.006866455	-0.080322266	-0.560302734	-0.842529297	895.86	27.51419164	-46.89960898	10.69571776	-82
8113	0	0.288085938	0.121459961	0.241577148	0.999999046	0.000274658	-7.53E-05	0.000240326	7.202148438	3.036499023	6.039428711	0.01373291	-0.003767014	0.012016297	-0.080322266	-0.5625	-0.842529297	895.94	27.52849033	-46.91990794	10.71072675	-82
8114	0	0.289523125	0.121391296	0.240672112	0.999999046	7.63E-06	-2.29E-05	0.000270844	7.238078117	3.03478241	6.016802788	0.00038147	-0.001144409	0.013542175	-0.080078125	-0.5625	-0.845214844	895.98	27.50559353	-46.93633838	10.732351	-82
8115	0	0.289245605	0.121582031	0.242431641	0.999999046	-3.43E-05	-4.10E-05	0.000133514	7.231140137	3.039550781	6.060791016	-0.001716614	-0.0020504	0.00667572	-0.082519531	-0.560302734	-0.845458984	895.98	27.49351051	-46.94711317	10.73035914	-82
8116	0	0.288504601	0.121914864	0.241805077	0.999999046	2.77E-05	9.54E-06	9.44E-05	7.212615013	3.04787159	6.045126915	0.001382828	0.000476837	0.004720688	-0.080322266	-0.5625	-0.842529297	896	27.4896583	-46.9504446	10.73189346	-82
8117	0	0.290039063	0.121337891	0.242370605	0.999999046	0.000133514	-3.34E-05	6.87E-05	7.250976563	3.033447266	6.059265137	0.00667572	-0.00166893	0.003433228	-0.080322266	-0.5625	-0.839599609	895.94	27.50285307	-46.95659119	10.72889803	-82
8118	0	0.288057327	0.121606827	0.241402626	0.999999046	6.48E-05	0.000177383	1.43E-05	7.201433182	3.04017067	6.035065651	0.003242493	0.008869171	0.000715256	-0.082519531	-0.5625	-0.845214844	895.94	27.50188983	-46.93821637	10.72986908	-82
8119	0	0.288146973	0.11932373	0.240844727	0.999999046	3.81E-05	9.54E-07	0.000144958	7.203674316	2.983093262	6.021118164	0.001907349	4.77E-05	0.007247925	-0.080078125	-0.5625	-0.845214844	895.88	27.49326067	-46.94453635	10.73662361	-82
8120	0	0.288547516	0.121027946	0.240468979	0.999999046	0.000281334	-0.000165939	0.000144958	7.213687897	3.025698662	6.011724472	0.014066696	-0.008296967	0.007247925	-0.080322266	-0.5625	-0.842529297	895.92	27.52170397	-46.96766842	10.73242197	-82
8121	0	0.289123535	0.122314453	0.240600586	0.999999046	-9.92E-05	-0.000151634	-1.14E-05	7.228088379	3.057861328	6.015014648	-0.004959106	-0.007581711	-0.000572205	-0.082519531	-0.5625	-0.842285156	895.94	27.5225966	-46.98090301	10.70730248	-82
8122	0	0.290353775	0.119831085	0.242915154	0.999999046	0.000272751	-6.10E-05	-0.000123024	7.258844376	2.99577713	6.072878838	0.013637543	-0.003051758	-0.006151199	-0.082519531	-0.5625	-0.845214844	895.92	27.5727116	-46.97885981	10.66972591	-82
8123	0	0.288635254	0.12298584	0.240356445	0.999999046	0.000289917	-2.96E-05	-3.81E-06	7.215881348	3.074645996	6.008911133	0.01449585	-0.001478195	-0.000190735	-0.080322266	-0.5625	-0.842529297	895.92	27.60990712	-46.97975322	10.65380584	-82
8124	0	0.289747238	0.120929718	0.240633965	0.999999046	-0.000283241	3.43E-05	1.43E-05	7.243680954	3.02324295	6.015849113	-0.014162064	0.001716614	0.000715256	-0.082519531	-0.5625	-0.842285156	895.8	27.57554349	-46.97501047	10.64756473	-82
8125	0	0.288085938	0.120178223	0.241394043	0.999999046	0.000183105	-5.63E-05	0.00019455	7.202148438	3.004455566	6.034851074	0.009155274	-0.002813339	0.009727478	-0.080322266	-0.5625	-0.842529297	895.98	27.57981991	-46.98885833	10.66037499	-82
8126	0	0.289076805	0.122534752	0.242658615	0.999999046	0.000141144	-1.34E-05	0.000105858	7.226920128	3.063368797	6.066465378	0.00705719	-0.000667572	0.005292892	-0.080078125	-0.564697266	-0.839355469	895.98	27.58628913	-46.99342057	10.668658	-82
8127	0	0.289672852	0.121582031	0.240112305	0.999999046	0.000106812	-3.72E-05	3.81E-05	7.241821289	3.039550781	6.002807617	0.005340576	-0.001859665	0.001907349	-0.080078125	-0.564697266	-0.839355469	895.92	27.59736751	-46.9967142	10.66489626	-81
8128	0	0.290065765	0.121488571	0.241406441	0.999999046	0.000142097	-4.39E-05	6.39E-05	7.251644135	3.037214279	6.035161018	0.007104874	-0.002193451	0.003194809	-0.080322266	-0.5625	-0.839599609	895.88	27.60982872	-47.00192922	10.66148026	-81
8129	0	0.287719727	0.121032715	0.240844727	0.999999046	-0.000102997	-0.000109673	-2.67E-05	7.192993164	3.025817871	6.021118164	-0.005149841	-0.005483627	-0.001335144	-0.080322266	-0.564697266	-0.836669922	895.94	27.6075807	-47.00883996	10.64525132	-81
8130	0	0.288071632	0.121546745	0.241477013	0.999999046	0.000141144	-8.96E-05	4.48E-05	7.20179081	3.038668633	6.036925316	0.00705719	-0.004482269	0.002241135	-0.082519531	-0.564697266	-0.842041016	896.04	27.62415469	-47.01732287	10.63677164	-81
8131	0	0.289001465	0.122741699	0.241394043	0.999999046	0.0001297	-1.81E-05	0.000133514	7.225036621	3.06854248	6.034851074	0.006484985	-0.000905991	0.00667572	-0.082519531	-0.564697266	-0.842041016	895.98	27.62553452	-47.02308039	10.64697057	-82
8132	0	0.289672852	0.121276855	0.240234375	0.999999046	-3.34E-05	-7.63E-05	0.000102997	7.241821289	3.031921387	6.005859375	-0.00166893	-0.003814697	0.005149841	-0.080322266	-0.5625	-0.842529297	895.94	27.61466956	-47.03303571	10.64503991	-82
8133	0	0.28918457	0.120727539	0.240722656	0.999999046	0.00012207	-0.000182152	9.16E-05	7.229614258	3.018188477	6.018066406	0.006103516	-0.00910759	0.004577637	-0.080322266	-0.5625	-0.836669922	895.92	27.62866677	-47.05302222	10.63819318	-82
8134	0	0.288989067	0.12238121	0.240647316	0.999999046	7.44E-05	-0.000112534	5.25E-05	7.224726677	3.059530258	6.016182899	0.00371933	-0.005626678	0.002622604	-0.080078125	-0.564697266	-0.842285156	895.98	27.63736874	-47.06371368	10.62869863	-82
8135	0	0.2890625	0.121948242	0.242614746	0.999999046	-5.34E-05	-4.86E-05	0.000106812	7.2265625	3.048706055	6.065368652	-0.002670288	-0.00243187	0.005340576	-0.080078125	-0.564697266	-0.842285156	895.94	27.62162283	-47.07060562	10.63281842	-81
8136	0	0.28862381	0.12228775	0.239729881	0.999999046	5.05E-05	-5.53E-05	0.000159264	7.215595245	3.057193756	5.993247032	0.002527237	-0.002765656	0.007963181	-0.082519531	-0.564697266	-0.839355469	895.86	27.61235143	-47.08083689	10.64729716	-81
8137	0	0.288696289	0.12109375	0.240783691	0.999999046	-0.000118256	-6.39E-05	5.72E-05	7.217407227	3.02734375	6.019592285	-0.005912781	-0.003194809	0.002861023	-0.080322266	-0.564697266	-0.836669922	895.88	27.59516829	-47.08638364	10.64835242	-83
8138	0	0.289123535	0.121582031	0.240661621	0.999999046	0.000255585	-0.00019455	0.000141144	7.228088379	3.039550781	6.016540527	0.012779236	-0.009727478	0.00705719	-0.080322266	-0.5625	-0.842529297	896	27.61896509	-47.10952544	10.64344875	-83
8139	0	0.289402008	0.121258736	0.241871834	0.999998093	0.00020504	-9.92E-05	0.000116348	7.235050201	3.031468391	6.046795845	0.010251999	-0.004959106	0.005817413	-0.084960938	-0.5625	-0.836425781	895.88	27.63401271	-47.12151534	10.64816405	-81
8140	0	0.289252281	0.122846603	0.241773605	1	0	-1.05E-05	1.14E-05	7.23130703	3.071165085	6.044340134	0	-0.000524521	0.000572205	-0.080322266	-0.5625	-0.839599609	895.94	27.6318467	-47.11874021	10.64080863	-83
8141	0	0.289733887	0.121032715	0.241516113	0.999999046	5.34E-05	-2.86E-06	-0.000110626	7.243347168	3.025817871	6.037902832	0.002670288	-0.000143051	-0.005531311	-0.082519531	-0.564697266	-0.839355469	895.94	27.64848881	-47.10858168	10.61933189	-82
8142	0	0.288243294	0.123257637	0.238814354	0.999999046	0.000310898	3.05E-05	-9.25E-05	7.206082344	3.081440926	5.970358849	0.015544892	0.001525879	-0.004625321	-0.080078125	-0.564697266	-0.839355469	895.98	27.69075705	-47.09587607	10.60195157	-81
8143	0	0.289001465	0.121520996	0.239074707	0.999999046	-7.25E-05	-6.39E-05	1.53E-05	7.225036621	3.038024902	5.976867676	-0.003623962	-0.003194809	0.000762939	-0.080078125	-0.564697266	-0.842285156	895.94	27.68261314	-47.0984237	10.59122636	-81
8144	0	0.289463043	0.12214756	0.241679192	0.999999046	0.000124931	-9.54E-05	-8.11E-05	7.23657608	3.053689003	6.04197979	0.006246567	-0.004768372	-0.004053116	-0.082519531	-0.564697266	-0.842041016	895.88	27.70925284	-47.09889442	10.5642963	-81
8145	0	0.288513184	0.121337891	0.240783691	0.999999046	0.000267029	-6.01E-05	0	7.21282959	3.033447266	6.019592285	0.013351441	-0.003004074	0	-0.082519531	-0.564697266	-0.836425781	896	27.74111725	-47.09997542	10.55654781	-81
8146	0	0.28909111	0.123175621	0.241292	0.999999046	2.67E-05	-2.29E-05	7.63E-05	7.227277756	3.079390526	6.032299995	0.001335144	-0.001144409	0.003814697	-0.082519531	-0.564697266	-0.842041016	896	27.73488969	-47.10119681	10.55838289	-82
8147	0	0.289611816	0.120666504	0.240539551	0.999999046	-2.29E-05	-2.86E-06	2.29E-05	7.24029541	3.016662598	6.01348877	-0.001144409	-0.000143051	0.001144409	-0.082519531	-0.564697266	-0.842041016	895.86	27.72743537	-47.09747731	10.55432183	-82
8148	0	0.288702965	0.122045517	0.240237236	0.999999046	-8.11E-05	-9.73E-05	0.000109673	7.21757412	3.051137924	6.005930901	-0.004053116	-0.004863739	0.005483627	-0.080322266	-0.564697266	-0.836669922	896.06	27.70914405	-47.10786027	10.56051252	-82
8149	0	0.289428711	0.12121582	0.239685059	0.999999046	1.91E-05	-0.000193596	8.39E-05	7.235717773	3.030395508	5.992126465	0.000953674	-0.009679794	0.004196167	-0.080322266	-0.5625	-0.839599609	896	27.71052139	-47.12659201	10.55025819	-82
8150	0	0.289054871	0.123800278	0.241276741	0.999999046	7.82E-05	-0.000192642	2.86E-06	7.226371765	3.095006943	6.031918526	0.003910065	-0.009632111	0.000143051	-0.080322266	-0.564697266	-0.836669922	895.98	27.72746455	-47.14074671	10.53310193	-81
8151	0	0.28894043	0.121704102	0.240905762	0.999999046	6.10E-05	-0.000109673	6.10E-05	7.223510742	3.042602539	6.022644043	0.003051758	-0.005483627	0.003051758	-0.082519531	-0.564697266	-0.839355469	895.94	27.73116706	-47.14946509	10.52922127	-81
8152	0	0.290411949	0.122429848	0.241374969	0.999999046	9.82E-05	-0.000234604	3.43E-05	7.260298729	3.060746193	6.034374237	0.004911423	-0.011730194	0.001716614	-0.082519531	-0.564697266	-0.836425781	895.98	27.74912235	-47.16933521	10.51393736	-81
8153	0	0.289611816	0.122558594	0.240539551	0.999999046	0.000137329	-0.000212669	3.81E-05	7.24029541	3.063964844	6.01348877	0.006866455	-0.010633469	0.001907349	-0.082519531	-0.564697266	-0.836425781	896	27.76980822	-47.18707779	10.50060248	-81
8154	0	0.289845467	0.122723579	0.239404678	0.999999046	-6.48E-05	-8.01E-05	2.29E-05	7.246136665	3.068089485	5.985116959	-0.003242493	-0.004005432	0.001144409	-0.080078125	-0.566894531	-0.839355469	896.06	27.76132508	-47.19049998	10.49542055	-81
8155	0	0.288635254	0.123168945	0.240356445	0.999999046	0.000141144	-0.000273705	-6.87E-05	7.215881348	3.079223633	6.008911133	0.00705719	-0.013685227	-0.003433228	-0.082275391	-0.566894531	-0.842041016	896	27.79759959	-47.20851422	10.45905668	-81
8156	0	0.289482117	0.123153687	0.23985672	0.999999046	-1.05E-05	-0.0001297	5.34E-05	7.237052917	3.078842163	5.996417999	-0.000524521	-0.006484985	0.002670288	-0.082519531	-0.564697266	-0.839355469	896.04	27.79479863	-47.21834694	10.45210348	-81
8157	0	0.289550781	0.122497559	0.24005127	0.999999046	0.000202179	-0.000113487	3.43E-05	7.238769531	3.062438965	6.001281738	0.010108948	-0.005674362	0.001716614	-0.080322266	-0.564697266	-0.836669922	895.86	27.81744128	-47.22542311	10.44510356	-81
8158	0	0.288759232	0.122941017	0.240545273	0.999999046	0.000274658	-1.91E-05	8.68E-05	7.218980789	3.073525429	6.013631821	0.01373291	-0.000953674	0.004339218	-0.082519531	-0.564697266	-0.842041016	895.88	27.83711137	-47.22558494	10.4484909	-81
8159	0	0.290588379	0.122497559	0.24041748	0.999999046	-0.000228882	-7.15E-05	7.63E-06	7.264709473	3.062438965	6.010437012	-0.011444092	-0.003576279	0.00038147	-0.080322266	-0.564697266	-0.836669922	895.88	27.81067767	-47.22676633	10.44123812	-81
8160	0	0.289709091	0.123176575	0.239516258	0.999999046	0.000388145	-0.000225067	-0.000134468	7.24272728	3.079414368	5.987906456	0.019407273	-0.011253357	-0.006723404	-0.080078125	-0.566894531	-0.836425781	896.06	27.87938429	-47.23582203	10.40243747	-81
8161	0	0.290283203	0.124755859	0.239196777	0.999999046	-1.91E-05	-0.00014019	4.20E-05	7.257080078	3.118896484	5.979919434	-0.000953674	-0.007009506	0.002098084	-0.082275391	-0.566894531	-0.844726563	895.94	27.87727151	-47.24563634	10.38987155	-81
8162	0	0.289550781	0.121948242	0.239929199	0.999999046	4.96E-05	-5.72E-05	-7.63E-06	7.238769531	3.048706055	5.99822998	0.002479553	-0.002861023	-0.00038147	-0.082519531	-0.564697266	-0.836425781	895.94	27.88351416	-47.24431578	10.3812451	-81
8163	0	0.288938522	0.123006821	0.241376877	0.999998093	6.01E-05	-0.000169754	-1.53E-05	7.223463058	3.075170517	6.034421921	0.003004074	-0.008487701	-0.000762939	-0.082519531	-0.566894531	-0.833496094	895.98	27.89820407	-47.25382483	10.36786337	-81
8164	0	0.289975166	0.122835159	0.239876747	0.999999046	0.000157356	-0.000160217	0.000151634	7.249379158	3.070878983	5.996918678	0.007867813	-0.008010864	0.007581711	-0.082519531	-0.564697266	-0.839355469	895.92	27.90512496	-47.27123437	10.37181757	-81
8165	0	0.290466309	0.122314453	0.239440918	0.999999046	-7.63E-06	-2.57E-05	0.000320435	7.261657715	3.057861328	5.986022949	-0.00038147	-0.00128746	0.016021729	-0.082519531	-0.566894531	-0.839111328	895.94	27.86671689	-47.28403426	10.41489114	-81
8166	0	0.290008545	0.122918129	0.241135597	0.999999046	-8.20E-05	-0.000221252	0.000315666	7.250213623	3.072953224	6.028389931	-0.0041008	-0.011062622	0.01578331	-0.082275391	-0.566894531	-0.842041016	896	27.83151465	-47.31624298	10.43963886	-81
8167	0	0.290161133	0.12322998	0.239990234	0.999999046	-6.10E-05	-0.000216484	0.000232697	7.25402832	3.080749512	5.999755859	-0.003051758	-0.010824204	0.011634827	-0.080078125	-0.564697266	-0.839355469	895.92	27.8074977	-47.34342832	10.45197293	-81
8168	0	0.290017128	0.124102592	0.23993969	0.999999046	0.000201225	-9.35E-05	2.96E-05	7.2504282	3.102564812	5.998492241	0.010061264	-0.004673004	0.001478195	-0.084716797	-0.566894531	-0.841796875	895.94	27.82877485	-47.3471641	10.44462337	-81
8169	0	0.290161133	0.123535156	0.239685059	0.999999046	-1.14E-05	4.77E-06	-4.96E-05	7.25402832	3.088378906	5.992126465	-0.000572205	0.000238419	-0.002479553	-0.084960938	-0.566650391	-0.833251953	895.86	27.82869	-47.336623	10.44073771	-81
8170	0	0.289963722	0.12197113	0.239506721	0.999999046	-5.34E-05	-8.39E-05	-0.000123024	7.249093056	3.049278259	5.987668037	-0.002670288	-0.004196167	-0.006151199	-0.082519531	-0.566894531	-0.836181641	895.92	27.83692465	-47.33107779	10.41635859	-81
8171	0	0.288574219	0.121765137	0.239379883	0.999999046	0.000133514	-3.72E-05	-7.63E-06	7.214355469	3.044128418	5.98449707	0.00667572	-0.001859665	-0.00038147	-0.082519531	-0.566894531	-0.836181641	895.94	27.8510759	-47.32687266	10.41266025	-81
8172	0	0.290421486	0.12293148	0.239812851	0.999999046	-1.05E-05	-9.92E-05	0.000102997	7.260537148	3.07328701	5.995321274	-0.000524521	-0.004959106	0.005149841	-0.082275391	-0.569091797	-0.838867188	895.94	27.8401236	-47.33480489	10.42107234	-80
8173	0	0.289611816	0.12322998	0.24005127	0.999999046	7.25E-05	-6.39E-05	-7.63E-06	7.24029541	3.080749512	6.001281738	0.003623962	-0.003194809	-0.00038147	-0.084960938	-0.564697266	-0.836425781	895.98	27.84876509	-47.33313131	10.41268161	-81
8174	0	0.290616989	0.123268127	0.23901844	0.999999046	0.000144958	-0.000114441	5.63E-05	7.265424728	3.081703186	5.975461006	0.007247925	-0.005722046	0.002813339	-0.084960938	-0.564697266	-0.836425781	895.92	27.86163559	-47.33996272	10.40951082	-81
8175	0	0.289489746	0.123413086	0.240356445	0.999999046	-0.000106812	0.000218391	7.63E-05	7.237243652	3.085327148	6.008911133	-0.005340576	0.010919571	0.003814697	-0.084960938	-0.566894531	-0.836181641	895.92	27.8240985	-47.3140226	10.43928331	-80
8176	0	0.289892197	0.121424675	0.239775658	0.999999046	0.000294685	-4.77E-05	-0.000102997	7.247304916	3.035616875	5.994391441	0.014734268	-0.002384186	-0.005149841	-0.082519531	-0.566894531	-0.839111328	895.92	27.86758429	-47.30540003	10.41740757	-81
8177	0	0.290405273	0.123901367	0.238647461	0.999999046	0.000247955	-3.34E-05	0.000102997	7.260131836	3.09753418	5.966186523	0.012397766	-0.00166893	0.005149841	-0.082519531	-0.564697266	-0.842041016	895.92	27.88232439	-47.30632429	10.42132858	-81
8178	0	0.29008007	0.122677803	0.239481926	0.999999046	-0.000150681	-6.87E-05	7.63E-05	7.252001762	3.066945076	5.987048149	-0.007534027	-0.003433228	0.003814697	-0.082519531	-0.566894531	-0.839111328	895.92	27.85631017	-47.30935412	10.42478576	-80
8179	0	0.289489746	0.122802734	0.239501953	0.999999046	0.000141144	5.44E-05	6.10E-05	7.237243652	3.070068359	5.987548828	0.00705719	0.002717972	0.003051758	-0.082519531	-0.566894531	-0.839111328	895.92	27.85823637	-47.29903603	10.43547083	-80
8180	0	0.290393829	0.123078346	0.239559174	0.999999046	0.000216484	-2.48E-05	6.10E-05	7.259845734	3.076958656	5.98897934	0.010824204	-0.001239777	0.003051758	-0.082519531	-0.566894531	-0.836181641	896.04	27.87337064	-47.29670156	10.44207799	-80
8181	0	0.289916992	0.123168945	0.23828125	0.999999046	-5.34E-05	9.54E-07	2.29E-05	7.247924805	3.079223633	5.95703125	-0.002670288	4.77E-05	0.001144409	-0.082519531	-0.566894531	-0.839111328	895.92	27.86029808	-47.28970226	10.44264698	-81
8182	0	0.290898323	0.122214317	0.240002632	0.999999046	-1.72E-05	-8.58E-05	4.10E-05	7.272458076	3.055357933	6.000065804	-0.000858307	-0.004291534	0.0020504	-0.082275391	-0.566894531	-0.842041016	895.92	27.85433269	-47.29244974	10.43663877	-81
8183	0	0.28918457	0.123718262	0.238647461	0.999999046	0.000141144	4.67E-05	3.81E-06	7.229614258	3.092956543	5.966186523	0.00705719	0.002336502	0.000190735	-0.079833984	-0.569091797	-0.842041016	895.88	27.86295927	-47.27972239	10.4377449	-81
8184	0	0.289834023	0.12305069	0.238944054	0.999999046	-1.24E-05	-2.29E-05	0.000156403	7.245850563	3.076267242	5.973601341	-0.000619888	-0.001144409	0.007820129	-0.082275391	-0.569091797	-0.838867188	895.88	27.84128569	-47.28219455	10.4597498	-81
8185	0	0.289274216	0.124419212	0.239788055	0.999999046	2.67E-05	7.34E-05	0.000197411	7.231855392	3.110480309	5.994701385	0.001335144	0.003671646	0.009870529	-0.082275391	-0.566894531	-0.842041016	896.06	27.8140815	-47.27699144	10.4896992	-81
8186	0	0.289592743	0.121997833	0.237687111	0.999999046	-8.96E-05	-7.63E-05	0.000160217	7.239818573	3.049945831	5.942177773	-0.004482269	-0.003814697	0.008010864	-0.082519531	-0.566894531	-0.839111328	895.98	27.78628353	-47.28499988	10.50556951	-81
8187	0	0.290527344	0.122619629	0.237731934	0.999999046	0.000205994	-7.92E-05	0.000205994	7.263183594	3.065490723	5.94329834	0.010299683	-0.003957748	0.010299683	-0.082519531	-0.566894531	-0.839111328	895.94	27.78753458	-47.29578663	10.52751207	-80
8188	0	0.289395332	0.123514175	0.23989296	0.999999046	-0.00023365	-0.000110626	0.000190735	7.234883308	3.087854385	5.99732399	-0.011682511	-0.005531311	0.009536743	-0.082519531	-0.566894531	-0.836181641	895.84	27.74191257	-47.30886272	10.54831755	-81
8189	0	0.29107666	0.123291016	0.241821289	0.999999046	0.000354767	-0.000197411	4.20E-05	7.276916504	3.082275391	6.045532227	0.017738343	-0.009870529	0.002098084	-0.087158203	-0.568847656	-0.838623047	895.88	27.78504645	-47.32270818	10.54012954	-81
8190	0	0.290328026	0.124108315	0.241250992	0.999999046	5.15E-05	2.86E-05	-0.000107765	7.258200645	3.102707863	6.031274796	0.002574921	0.001430511	-0.00538826	-0.084960938	-0.566894531	-0.836181641	896	27.79681348	-47.30552404	10.5265618	-80
8191	0	0.290893555	0.121582031	0.24029541	0.999999046	0.000236511	-6.77E-05	-0.000141144	7.272338867	3.039550781	6.007385254	0.011825562	-0.003385544	-0.00705719	-0.082275391	-0.566894531	-0.842041016	895.86	27.83889299	-47.29629845	10.49384446	-80
8192	0	0.289975166	0.123667717	0.237998962	0.999999046	6.39E-05	0.00018692	9.06E-05	7.249379158	3.091692924	5.94997406	0.003194809	0.009346008	0.004529953	-0.082275391	-0.569091797	-0.838867188	895.98	27.82106926	-47.27367025	10.52186672	-81
8193	0	0.289367676	0.121704102	0.238952637	0.999999046	-0.000354767	0.00011158	0.000167847	7.234191895	3.042602539	5.973815918	-0.017738343	0.005578995	0.008392334	-0.082275391	-0.566894531	-0.842041016	895.88	27.75110404	-47.26278239	10.55096545	-80
8194	0	0.289294243	0.123206139	0.239896774	0.999999046	0.000230789	-0.000192642	0.000239372	7.232356071	3.080153465	5.997419357	0.01153946	-0.009632111	0.011968613	-0.082519531	-0.564697266	-0.833496094	895.86	27.75797925	-47.2864907	10.57135311	-81
8195	0	0.289733887	0.124633789	0.24029541	0.999999046	8.39E-05	-0.000159264	0.000164032	7.243347168	3.115844727	6.007385254	0.004196167	-0.007963181	0.008201599	-0.082519531	-0.569091797	-0.836181641	896	27.75445828	-47.30270256	10.58623664	-81
8196	0	0.290644646	0.123662949	0.239875793	0.999999046	-7.92E-05	-4.58E-05	0.000137329	7.266116142	3.091573715	5.996894836	-0.003957748	-0.002288818	0.006866455	-0.082275391	-0.569091797	-0.838867188	896	27.72866134	-47.3059427	10.60375223	-81
8197	0	0.290893555	0.122680664	0.238647461	0.999999046	0.000137329	8.58E-06	-8.01E-05	7.272338867	3.067016602	5.966186523	0.006866455	0.000429153	-0.004005432	-0.084716797	-0.566894531	-0.839111328	896.06	27.74845917	-47.29210177	10.58991605	-81
8198	0	0.289221764	0.122670174	0.240265846	0.999999046	0.000120163	2.10E-05	-0.000100136	7.23054409	3.066754341	6.006646156	0.006008148	0.001049042	-0.00500679	-0.084960938	-0.566894531	-0.836181641	896	27.76772583	-47.27585925	10.57674657	-81
8199	0	0.289306641	0.123413086	0.237854004	0.999999046	0.00012207	6.58E-05	7.63E-06	7.232666016	3.085327148	5.946350098	0.006103516	0.003290176	0.00038147	-0.082519531	-0.566894531	-0.839111328	896.06	27.77287513	-47.26082322	10.57962722	-81
8200	0	0.289399147	0.123954773	0.238471031	0.999999046	6.39E-05	3.05E-05	0.000151634	7.234978676	3.098869324	5.96177578	0.003194809	0.001525879	0.007581711	-0.082519531	-0.566894531	-0.836181641	895.98	27.75769896	-47.25703498	10.60400421	-81
8201	0	0.291259766	0.123291016	0.238037109	0.999999046	-8.77E-05	7.34E-05	0.000167847	7.281494141	3.082275391	5.950927734	-0.004386902	0.003671646	0.008392334	-0.082519531	-0.566894531	-0.839111328	895.86	27.72097266	-47.24982279	10.63178158	-81
8202	0	0.289557457	0.122907639	0.237916946	0.999999046	0.000200272	-9.35E-05	-3.81E-06	7.238936424	3.072690964	5.94792366	0.01001358	-0.004673004	-0.000190735	-0.082519531	-0.566894531	-0.830566406	896	27.74577928	-47.25041311	10.62849277	-81
8203	0	0.290283203	0.123535156	0.237976074	0.999999046	1.91E-05	-2.57E-05	3.81E-06	7.257080078	3.088378906	5.949401855	0.000953674	-0.00128746	0.000190735	-0.082519531	-0.569091797	-0.833251953	896.04	27.74517162	-47.24457863	10.63199426	-81
8204	0	0.289747238	0.123114586	0.241312027	0.999999046	0.000267982	3.62E-05	4.10E-05	7.243680954	3.077864647	6.032800674	0.013399124	0.001811981	0.0020504	-0.082519531	-0.566894531	-0.839111328	895.86	27.76537975	-47.23435121	10.63631187	-81
8205	0	0.289978027	0.124694824	0.241638184	0.999999046	-4.20E-05	-2.96E-05	7.25E-05	7.249450684	3.117370605	6.04095459	-0.002098083	-0.001478195	0.003623962	-0.082519531	-0.569091797	-0.836181641	895.92	27.7504518	-47.23237286	10.64643697	-81
8206	0	0.290009499	0.121763229	0.241447449	0.999999046	-1.53E-05	0.000116348	3.05E-05	7.250237465	3.044080734	6.036186218	-0.000762939	0.005817413	0.001525879	-0.082519531	-0.566894531	-0.836181641	895.94	27.73462651	-47.21330914	10.65898869	-81
8207	0	0.288208008	0.124206543	0.238830566	0.999999046	0.000293732	-2.96E-05	-3.43E-05	7.205200195	3.105163574	5.97076416	0.014686585	-0.001478195	-0.001716614	-0.082519531	-0.566894531	-0.836181641	895.86	27.7698391	-47.20552596	10.64944753	-81
8208	0	0.290044785	0.124000549	0.240448952	0.999999046	-9.06E-05	-3.05E-05	0.000164032	7.251119614	3.100013733	6.011223793	-0.004529953	-0.001525879	0.008201599	-0.082519531	-0.566894531	-0.839111328	896	27.73936629	-47.20838433	10.66702341	-81
8209	0	0.290039063	0.12322998	0.241577148	0.999999046	6.10E-05	-5.25E-05	-1.14E-05	7.250976563	3.080749512	6.039428711	0.003051758	-0.002622604	-0.000572205	-0.082519531	-0.566894531	-0.839111328	895.94	27.74670447	-47.20404244	10.65672162	-81
8210	0	0.289328575	0.123143196	0.239882469	0.999999046	9.73E-05	-9.73E-05	-5.44E-05	7.233214378	3.078579903	5.997061729	0.004863739	-0.004863739	-0.002717972	-0.084960938	-0.566894531	-0.836181641	895.94	27.7654769	-47.20193067	10.63973683	-81
8211	0	0.290100098	0.124145508	0.240661621	0.999999046	0.000144958	-4.86E-05	7.63E-06	7.252502441	3.103637695	6.016540527	0.007247925	-0.00243187	0.00038147	-0.082519531	-0.566894531	-0.836181641	895.86	27.78015322	-47.19815196	10.63495104	-80
8212	0	0.288843155	0.12274456	0.23797226	0.999999046	-4.48E-05	-0.000106812	7.25E-05	7.221078873	3.068614006	5.949306488	-0.002241135	-0.005340576	0.003623962	-0.082275391	-0.571289063	-0.8359375	896	27.76936301	-47.20376945	10.64202754	-81
8213	0	0.289367676	0.123779297	0.241149902	0.999999046	-1.14E-05	-0.000136375	0.00018692	7.234191895	3.094482422	6.028747559	-0.000572205	-0.006818771	0.009346008	-0.082519531	-0.566894531	-0.836181641	895.9	27.75155506	-47.21841218	10.65738314	-81
8214	0	0.290211678	0.123847961	0.24101162	0.999999046	3.81E-05	-5.53E-05	0.000151634	7.255291939	3.096199036	6.025290489	0.001907349	-0.002765656	0.007581711	-0.084716797	-0.569091797	-0.8359375	895.94	27.73862029	-47.22290354	10.67771765	-81
8215	0	0.289550781	0.124267578	0.240539551	0.999999046	0.000125885	4.67E-05	1.53E-05	7.238769531	3.106689453	6.01348877	0.006294251	0.002336502	0.000762939	-0.082275391	-0.569091797	-0.838867188	896	27.74485955	-47.20970553	10.68189484	-81
8216	0	0.290081024	0.123281479	0.240107536	0.999999046	-4.29E-05	2.29E-05	6.39E-05	7.252025604	3.082036972	6.002688408	-0.002145767	0.001144409	0.003194809	-0.080078125	-0.566894531	-0.836425781	895.98	27.72780315	-47.20151253	10.69064098	-81
8217	0	0.289367676	0.122375488	0.240234375	0.999999046	0.000190735	-9.06E-05	3.05E-05	7.234191895	3.059387207	6.005859375	0.009536743	-0.004529953	0.001525879	-0.082519531	-0.569091797	-0.836181641	895.94	27.74765539	-47.2030353	10.68894541	-80
8218	0	0.289723396	0.121899605	0.239096642	0.999999046	-0.00018692	-0.000152588	0.000133514	7.243084908	3.04749012	5.977416039	-0.009346008	-0.007629395	0.00667572	-0.084716797	-0.568847656	-0.833007813	896	27.7164608	-47.21638214	10.70183868	-81
8219	0	0.289794922	0.121032715	0.240600586	0.999999046	0.000591278	-0.000361443	0.000343323	7.244873047	3.025817871	6.015014648	0.029563907	-0.01807213	0.017166139	-0.082519531	-0.566894531	-0.836181641	895.9	27.76332492	-47.26209934	10.7209774	-81
8220	0	0.289751053	0.127221107	0.239995956	0.999999046	-0.000468254	-0.000301361	0.000457764	7.243776321	3.180527687	5.999898911	-0.023412706	-0.015068056	0.022888186	-0.082519531	-0.569091797	-0.836181641	896	27.67295479	-47.30771652	10.76680216	-81
8221	0	0.291381836	0.12286377	0.241149902	0.999999046	0.000144958	-0.000166893	0.000240326	7.284545898	3.071594238	6.028747559	0.007247925	-0.00834465	0.012016297	-0.087402344	-0.566894531	-0.833251953	895.94	27.66890737	-47.32807184	10.7910319	-81
8222	0	0.291400909	0.127919197	0.239183426	0.999999046	0.000402451	4.01E-05	-6.58E-05	7.285022736	3.197979927	5.979585648	0.020122529	0.002002716	-0.003290176	-0.084716797	-0.569091797	-0.836181641	896.06	27.71647544	-47.31107921	10.78377061	-81
8223	0	0.290466309	0.122314453	0.238342285	0.999999046	-0.000228882	0.000103951	-0.000225067	7.261657715	3.057861328	5.958557129	-0.011444092	0.005197525	-0.011253357	-0.082275391	-0.569091797	-0.839111328	895.98	27.70550211	-47.27916551	10.75523531	-81
8224	0	0.289507866	0.120443344	0.238517761	0.999999046	0.000317574	-0.000118256	-0.000144958	7.237696648	3.011083603	5.962944031	0.015878678	-0.005912781	-0.007247925	-0.082519531	-0.566894531	-0.839355469	896.04	27.7610262	-47.27410721	10.71685287	-81
8225	0	0.289733887	0.123474121	0.236938477	0.999999046	7.25E-05	-0.000224113	8.39E-05	7.243347168	3.086853027	5.923461914	0.003623962	-0.011205673	0.004196167	-0.084716797	-0.569091797	-0.839111328	896.06	27.76956286	-47.29205188	10.70816474	-81
8226	0	0.290717125	0.123520851	0.241061211	0.999999046	3.05E-05	-0.000217438	0.000164032	7.267928123	3.088021278	6.026530266	0.001525879	-0.010871887	0.008201599	-0.084716797	-0.569091797	-0.836181641	895.98	27.76407068	-47.31354855	10.71503878	-81
8227	0	0.290283203	0.124389648	0.237915039	0.999999046	0.000141144	-9.44E-05	1.14E-05	7.257080078	3.109741211	5.947875977	0.00705719	-0.004720688	0.000572205	-0.084716797	-0.569091797	-0.836181641	895.98	27.7810441	-47.31444228	10.70826356	-81
8228	0	0.290942192	0.124023438	0.240754128	0.999999046	0.000273705	1.91E-06	-9.25E-05	7.273554802	3.100585938	6.018853188	0.013685227	9.54E-05	-0.00462532	-0.084716797	-0.569091797	-0.836181641	895.92	27.8190517	-47.29996575	10.6926866	-81
8229	0	0.290527344	0.12310791	0.23815918	0.999999046	-0.000144958	9.54E-07	-5.72E-05	7.263183594	3.077697754	5.953979492	-0.007247925	4.77E-05	-0.002861023	-0.084716797	-0.569091797	-0.839111328	895.98	27.80527486	-47.28751595	10.67995365	-81
8230	0	0.289963722	0.122461319	0.238316536	0.999999046	0.000106812	-0.000144958	3.72E-05	7.249093056	3.061532974	5.957913399	0.005340576	-0.007247925	0.001859665	-0.084716797	-0.569091797	-0.839111328	895.98	27.81840742	-47.29494005	10.66960617	-81
8231	0	0.290527344	0.123291016	0.238769531	0.999999046	-7.63E-06	-0.000224113	6.48E-05	7.263183594	3.082275391	5.969238281	-0.00038147	-0.011205673	0.003242493	-0.082275391	-0.571289063	-0.836181641	895.98	27.81998873	-47.31189041	10.66316676	-80
8232	0	0.289673805	0.121906281	0.239373207	0.999999046	0.000294685	-0.000356674	0.000178337	7.241845131	3.047657013	5.984330177	0.014734269	-0.01783371	0.008916855	-0.087158203	-0.569091797	-0.838867188	896.04	27.85134323	-47.34833134	10.65698756	-80
8233	0	0.289978027	0.12286377	0.238037109	0.999999046	-0.000114441	-0.000365257	0.000648499	7.249450684	3.071594238	5.950927734	-0.005722046	-0.018262865	0.03242493	-0.087158203	-0.571289063	-0.8359375	895.94	27.78452317	-47.41080323	10.72742787	-80
8234	0	0.290925026	0.123285294	0.242063522	0.999999046	-0.000507355	-0.000385284	0.000823975	7.273125648	3.082132339	6.051588058	-0.025367741	-0.019264225	0.041198738	-0.087158203	-0.569091797	-0.8359375	896	27.65412947	-47.48446856	10.82140035	-80
8235	0	0.29119873	0.124389648	0.241760254	0.999999046	9.54E-05	-0.000308037	0.000511169	7.279968262	3.109741211	6.044006348	0.004768372	-0.015401841	0.025558473	-0.089599609	-0.566650391	-0.833251953	896	27.62277116	-47.53343975	10.87394247	-80
8236	0	0.292114258	0.126525879	0.239624023	0.999999046	0.000214577	-7.63E-06	8.77E-05	7.302856445	3.163146973	5.990600586	0.010728836	-0.00038147	0.004386902	-0.087158203	-0.566894531	-0.836181641	895.94	27.63483088	-47.52931642	10.88237519	-80
8237	0	0.290771484	0.123474121	0.239929199	0.999999046	7.63E-05	0.000119209	-0.000228882	7.269287109	3.086853027	5.99822998	0.003814697	0.005960465	-0.011444092	-0.089599609	-0.566650391	-0.841796875	895.98	27.65881804	-47.49539762	10.8473488	-80
8238	0	0.290781975	0.121079445	0.236988068	0.999999046	0.000282288	-4.58E-05	-0.000247955	7.26954937	3.026986122	5.924701691	0.01411438	-0.002288818	-0.012397766	-0.089599609	-0.568847656	-0.8359375	895.98	27.71803283	-47.47726361	10.80539851	-80
8239	0	0.290588379	0.121643066	0.23840332	0.999999046	0.000141144	-0.000235558	-4.20E-05	7.264709473	3.04107666	5.960083008	0.00705719	-0.011777878	-0.002098084	-0.087158203	-0.569091797	-0.838867188	895.8	27.74925043	-47.48934927	10.77566912	-80
8240	0	0.291851044	0.121612549	0.241099358	0.999999046	7.34E-05	-0.000228882	3.81E-05	7.296276093	3.040313721	6.02748394	0.003671646	-0.011444092	0.001907349	-0.087158203	-0.569091797	-0.833251953	895.92	27.76330882	-47.50498857	10.76446454	-80
8241	0	0.291137695	0.125427246	0.238525391	0.999999046	0.000396729	-0.00020504	6.87E-05	7.278442383	3.135681152	5.963134766	0.019836426	-0.010251999	0.003433228	-0.087158203	-0.571289063	-0.833007813	895.92	27.80984336	-47.51978536	10.76172642	-80
8242	0	0.292290688	0.12582016	0.238671303	0.999999046	-0.00015831	-3.24E-05	-3.43E-05	7.307267189	3.145503998	5.96678257	-0.007915497	-0.001621246	-0.001716614	-0.087158203	-0.569091797	-0.833251953	896	27.79428876	-47.51155126	10.75404429	-80
8243	0	0.290893555	0.122436523	0.23815918	0.999999046	6.48E-05	9.25E-05	0	7.272338867	3.060913086	5.953979492	0.003242493	0.00462532	0	-0.087158203	-0.569091797	-0.8359375	895.94	27.79319567	-47.49249377	10.75844972	-80
8244	0	0.290056229	0.122467041	0.238500595	0.999999046	6.01E-05	-0.000137329	0.000118256	7.251405716	3.061676025	5.962514877	0.003004074	-0.006866455	0.005912781	-0.089599609	-0.568847656	-0.833007813	895.98	27.79184243	-47.50302626	10.76566117	-80
8245	0	0.292785645	0.123291016	0.238342285	0.999999046	-4.96E-05	-0.000193596	4.20E-05	7.319641113	3.082275391	5.958557129	-0.002479553	-0.009679794	0.002098084	-0.089355469	-0.571044922	-0.835693359	895.94	27.78967321	-47.51524024	10.75761939	-80
8246	0	0.291728973	0.123120308	0.239094734	0.999999046	0.000120163	-0.000150681	-4.29E-05	7.293224335	3.078007698	5.977368355	0.006008148	-0.007534027	-0.002145767	-0.089599609	-0.566650391	-0.838867188	895.94	27.81384335	-47.51855306	10.72955442	-80
8247	0	0.29119873	0.123962402	0.238708496	0.999999046	-0.000141144	8.87E-05	-4.20E-05	7.279968262	3.099060059	5.967712402	-0.00705719	0.004434586	-0.002098084	-0.089355469	-0.571044922	-0.835693359	895.98	27.79404201	-47.49762585	10.73175631	-80
8248	0	0.29119873	0.123291016	0.239746094	0.999999046	2.00E-05	0.000152588	-5.34E-05	7.279968262	3.082275391	5.993652344	0.001001358	0.007629395	-0.002670288	-0.087158203	-0.571289063	-0.833007813	895.9	27.79023008	-47.46956543	10.74025172	-80
8249	0	0.290100098	0.123779297	0.237121582	0.999999046	-1.91E-05	0.000126839	1.91E-05	7.252502441	3.094482422	5.928039551	-0.000953674	0.006341934	0.000953674	-0.089599609	-0.568847656	-0.8359375	895.94	27.77553819	-47.4479905	10.75117024	-80
8250	0	0.291265488	0.122232437	0.237381935	0.999999046	-0.000101089	-6.87E-05	5.25E-05	7.281637192	3.055810928	5.934548378	-0.005054474	-0.003433228	0.002622604	-0.084716797	-0.569091797	-0.836181641	896	27.75913274	-47.44809091	10.75124874	-80
8251	0	0.292358398	0.12322998	0.238586426	0.999999046	0.000175476	-0.000109673	-1.14E-05	7.308959961	3.080749512	5.964660645	0.008773804	-0.005483627	-0.000572205	-0.087158203	-0.571289063	-0.8359375	896	27.78388471	-47.4489884	10.74219252	-80
8252	0	0.290699005	0.123868942	0.239210129	1	-1.53E-05	-1.43E-05	3.05E-05	7.267475128	3.096723557	5.98025322	-0.000762939	-0.000715256	0.001525879	-0.087158203	-0.569091797	-0.838867188	895.9	27.77663297	-47.44241457	10.7404066	-80
8253	0	0.291931152	0.123901367	0.239807129	0.999999046	0.000385284	5.05E-05	-4.96E-05	7.298278809	3.09753418	5.995178223	0.019264222	0.002527237	-0.002479553	-0.089599609	-0.568847656	-0.8359375	895.94	27.82036351	-47.42497056	10.733868	-80
8254	0	0.290307999	0.124418259	0.238091469	0.999999046	-0.000364304	0.000146866	-8.49E-05	7.257699966	3.110456467	5.95228672	-0.01821518	0.007343292	-0.004243851	-0.086914063	-0.571289063	-0.838623047	895.86	27.77658005	-47.39586127	10.73160891	-80
