Counter	Temperature	VelInc_X	VelInc_Y	VelInc_Z	OriInc_w	OriInc_x	OriInc_y	OriInc_z	Acc_X	Acc_Y	Acc_Z	Gyr_X	Gyr_Y	Gyr_Z	Mag_X	Mag_Y	Mag_Z	Pressure	Roll	Pitch	Yaw	RSSI
7057	0	0.383666992	-0.061950684	0.067749023	0.999999046	5.34E-05	4.67E-05	0.00019455	9.591674805	-1.54876709	1.693725586	0.002670288	0.002336502	0.009727478	-0.682861328	-0.113769531	-0.726074219	895.88	-43.31567593	-76.75447226	62.44022875	-77
7058	0	0.382049561	-0.060688972	0.06907177	0.999999046	0.000780106	-0.000135422	7.25E-05	9.551239014	-1.517224312	1.726794243	0.039005284	-0.006771088	0.003623963	-0.680664063	-0.113769531	-0.717773438	895.86	-43.22904556	-76.75936427	62.44176016	-77
7059	0	0.380615234	-0.058166504	0.067443848	0.999999046	0.000728607	-0.000117302	0.000106812	9.515380859	-1.454162598	1.686096191	0.036430362	-0.005865098	0.005340577	-0.682861328	-0.115966797	-0.723144531	895.88	-43.15441948	-76.76018821	62.44951488	-77
7060	0	0.380068779	-0.058821678	0.067378044	0.999999046	0.00048542	-0.000171661	0.000339508	9.501719475	-1.470541954	1.684451103	0.024271013	-0.008583069	0.016975404	-0.680419922	-0.115966797	-0.720458984	895.92	-43.20849238	-76.74741322	62.56090073	-78
7061	0	0.380187988	-0.059692383	0.067810059	0.999999046	-5.72E-05	-0.000220299	0.000484467	9.504699707	-1.49230957	1.695251465	-0.002861023	-0.011014939	0.024223329	-0.682617188	-0.115966797	-0.726074219	895.84	-43.3921913	-76.72730868	62.74134118	-78
7062	0	0.384126663	-0.061537743	0.069829941	0.999999046	-0.000715256	-0.000205994	0.000408173	9.60316658	-1.538443565	1.74574852	-0.035762791	-0.010299684	0.020408633	-0.685302734	-0.113525391	-0.723144531	895.92	-43.61922834	-76.71185101	62.88910668	-78
7063	0	0.380493164	-0.062133789	0.070861816	0.999999046	-0.000347137	-9.06E-05	0.000148773	9.512329102	-1.553344727	1.77154541	-0.017356873	-0.004529953	0.00743866	-0.682861328	-0.115966797	-0.723144531	895.92	-43.67410457	-76.70712655	62.9040798	-78
7064	0	0.37987709	-0.061990738	0.070382118	0.999999046	1.81E-05	-0.000265121	0.00014782	9.496927261	-1.549768448	1.759552956	0.000905991	-0.013256073	0.007390976	-0.682861328	-0.111572266	-0.720703125	895.92	-43.74529021	-76.71682908	62.97773963	-79
7065	0	0.385559082	-0.062866211	0.07019043	0.999999046	0.000419617	-0.000330925	-0.000617981	9.638977051	-1.571655273	1.754760742	0.020980837	-0.016546251	-0.030899051	-0.682861328	-0.113769531	-0.717529297	895.88	-43.52307933	-76.79250822	62.79777608	-79
7066	0	0.38458252	-0.06196785	0.068583488	0.999999046	0.000221252	-0.000413895	-0.00043869	9.614562988	-1.549196243	1.714587212	0.011062623	-0.020694734	-0.021934511	-0.685302734	-0.115722656	-0.717285156	895.94	-43.41364604	-76.86082841	62.71072942	-79
7067	0	0.385131836	-0.061706543	0.069396973	0.999999046	4.58E-05	-0.000330925	-0.000396729	9.628295898	-1.542663574	1.734924316	0.002288818	-0.01654625	-0.019836427	-0.685058594	-0.115722656	-0.720214844	895.94	-43.31051892	-76.91885543	62.60885795	-79
7068	0	0.383514404	-0.060969353	0.065668106	0.999999046	0.000161171	-0.000267029	-0.000191689	9.587860107	-1.524233818	1.641702652	0.008058548	-0.013351441	-0.009584427	-0.685058594	-0.117919922	-0.717041016	895.86	-43.24620293	-76.95548505	62.56125225	-78
7069	0	0.380126953	-0.060852051	0.067382813	0.999999046	-2.29E-05	-0.000113487	-0.000549316	9.503173828	-1.52130127	1.684570313	-0.001144409	-0.005674362	-0.027465822	-0.684814453	-0.120117188	-0.72265625	895.84	-43.02143817	-77.00723233	62.3270119	-78
7070	0	0.380574226	-0.060498238	0.066926003	0.999999046	-0.000387192	-4.77E-05	-0.000480652	9.514355659	-1.51245594	1.673150063	-0.01935959	-0.002384186	-0.024032594	-0.685058594	-0.120117188	-0.717041016	895.92	-42.83999204	-77.04788776	62.09503926	-78
7071	0	0.383117676	-0.06237793	0.066589355	0.999999046	-0.000679016	-0.000124931	-1.53E-05	9.577941895	-1.559448242	1.664733887	-0.033950808	-0.006246567	-0.00076294	-0.685058594	-0.120117188	-0.717041016	895.86	-42.88846123	-77.05863048	62.0648553	-78
7072	0	0.383441925	-0.062215805	0.068727493	0.999999046	-0.000117302	-1.72E-05	0.00025177	9.586048126	-1.555395126	1.718187332	-0.005865097	-0.000858307	0.012588501	-0.685302734	-0.115722656	-0.717285156	895.86	-42.93400664	-77.03937531	62.09623412	-78
7073	0	0.382263184	-0.060241699	0.06652832	0.999999046	0.000255585	9.63E-05	0.000553131	9.55657959	-1.50604248	1.663208008	0.012779237	0.004816056	0.027656557	-0.685058594	-0.115722656	-0.720214844	895.94	-43.00824878	-76.98707837	62.20068456	-78
7074	0	0.381025314	-0.059043884	0.064738274	0.999999046	-4.96E-05	0.00012207	0.000449181	9.525632858	-1.476097107	1.618456841	-0.002479553	0.006103516	0.022459031	-0.685058594	-0.117919922	-0.717041016	895.84	-43.0710124	-76.94085114	62.25897322	-78
7075	0	0.381286621	-0.059448242	0.064208984	0.999999046	-0.000629425	8.49E-05	0.00063324	9.532165527	-1.486206055	1.605224609	-0.031471257	0.004243851	0.031661992	-0.685058594	-0.115722656	-0.720214844	895.84	-43.27886086	-76.88341595	62.39735967	-78
7076	0	0.381684303	-0.062213898	0.067307472	0.999999046	-0.000689507	6.10E-05	0.000403404	9.542107582	-1.555347443	1.682686806	-0.03447533	0.003051758	0.020170214	-0.685058594	-0.115722656	-0.722900391	895.86	-43.4188422	-76.84590709	62.45920271	-77
7077	0	0.382202148	-0.062133789	0.067810059	0.999999046	-0.000282288	6.96E-05	0.000244141	9.555053711	-1.553344727	1.695251465	-0.01411438	0.003480911	0.012207032	-0.685302734	-0.113525391	-0.717529297	895.88	-43.45260507	-76.82017252	62.46005362	-77
7078	0	0.384237289	-0.06235981	0.067216873	0.999999046	-0.000265121	3.81E-06	0.00014019	9.605932236	-1.558995247	1.680421829	-0.013256073	0.000190735	0.007009506	-0.685302734	-0.111328125	-0.720458984	895.88	-43.47005486	-76.80811909	62.44506888	-77
7079	0	0.382629395	-0.062805176	0.068847656	0.999999046	0.000267029	1.24E-05	9.92E-05	9.565734863	-1.570129395	1.721191406	0.013351441	0.000619888	0.004959107	-0.685302734	-0.113525391	-0.720214844	895.86	-43.40939512	-76.7985057	62.41328516	-76
7080	0	0.383408546	-0.062113762	0.066264153	0.999999046	0.000769615	-0.000143051	-8.01E-05	9.585213661	-1.552844048	1.656603813	0.038480763	-0.007152558	-0.004005433	-0.685302734	-0.109130859	-0.720703125	895.94	-43.28015827	-76.8160044	62.36778767	-76
7081	0	0.380371094	-0.059753418	0.066650391	0.999999046	0.000843048	-0.000117302	-0.000328064	9.509277344	-1.493835449	1.666259766	0.042152411	-0.005865098	-0.016403201	-0.685302734	-0.113525391	-0.717529297	895.88	-43.04510007	-76.85084063	62.22389671	-76
7082	0	0.381829262	-0.059513092	0.066598892	0.999999046	0.000305176	-0.000232697	-7.63E-05	9.545731544	-1.487827301	1.664972305	0.015258789	-0.011634827	-0.003814697	-0.685302734	-0.115722656	-0.717285156	895.84	-43.00020773	-76.87567669	62.21264022	-76
7083	0	0.384155273	-0.062805176	0.066955566	0.999999046	-0.000102997	-0.000128746	-0.00012207	9.603881836	-1.570129395	1.67388916	-0.005149841	-0.006437302	-0.006103516	-0.685302734	-0.115722656	-0.717285156	895.88	-42.95134675	-76.89535703	62.14916873	-76
7084	0	0.381807327	-0.061993599	0.067209244	0.999999046	0.000248909	-9.92E-05	2.19E-05	9.545183182	-1.549839973	1.680231094	0.01244545	-0.004959107	0.001096725	-0.682861328	-0.115966797	-0.717529297	895.88	-42.90454905	-76.90127656	62.12882161	-76
7085	0	0.381713867	-0.06048584	0.067016602	0.999999046	0.000217438	-4.48E-05	6.48E-05	9.54284668	-1.512145996	1.675415039	0.010871887	-0.002241135	0.003242493	-0.685058594	-0.115722656	-0.720214844	895.88	-42.85890377	-76.89930947	62.10549689	-75
7086	0	0.380430222	-0.06038475	0.066762924	0.999999046	0.000440598	-0.000143051	-0.000118256	9.510755539	-1.509618759	1.669073105	0.022029878	-0.007152558	-0.005912781	-0.6875	-0.117919922	-0.717041016	895.86	-42.75471161	-76.91987477	62.04963227	-75
7087	0	0.381958008	-0.062194824	0.065429688	0.999999046	0.000133514	-0.000247002	2.29E-05	9.548950195	-1.554870605	1.635742188	0.00667572	-0.012350083	0.001144409	-0.685058594	-0.117919922	-0.717041016	895.94	-42.77239244	-76.93821785	62.08224852	-75
7088	0	0.383392334	-0.064147949	0.067819595	0.999999046	0.000231743	-0.000177383	-1.24E-05	9.58480835	-1.60369873	1.695489883	0.011587143	-0.008869171	-0.000619888	-0.685302734	-0.115722656	-0.717285156	895.94	-42.74347264	-76.95333104	62.07726188	-75
7089	0	0.382629395	-0.060791016	0.066223145	0.999999046	0.000728607	1.24E-05	6.87E-05	9.565734863	-1.519775391	1.655578613	0.036430362	0.000619888	0.003433228	-0.685058594	-0.117919922	-0.719970703	895.88	-42.62384565	-76.94620001	62.03770441	-75
7090	0	0.38292408	-0.059709549	0.066928864	0.999999046	0.000350952	4.39E-05	1.05E-05	9.573101997	-1.492738724	1.673221588	0.017547608	0.002193451	0.000524521	-0.6875	-0.117919922	-0.714111328	895.84	-42.51609468	-76.94096039	61.96699661	-75
7091	0	0.381225586	-0.061584473	0.063903809	0.999999046	4.20E-05	-4.48E-05	0.000144958	9.530639648	-1.539611816	1.597595215	0.002098084	-0.002241135	0.007247925	-0.685058594	-0.117919922	-0.717041016	895.88	-42.523368	-76.93286771	61.97721049	-75
7092	0	0.384509087	-0.062728882	0.066375732	0.999999046	-0.000153542	-0.000137329	-0.00019455	9.612727165	-1.568222046	1.659393311	-0.007677078	-0.006866455	-0.009727478	-0.685058594	-0.120117188	-0.719726563	895.88	-42.46103713	-76.95886218	61.8934713	-75
7093	0	0.381408691	-0.06072998	0.068115234	0.999999046	0.000362396	-4.48E-05	-0.000331879	9.535217285	-1.518249512	1.702880859	0.018119813	-0.002241135	-0.016593934	-0.684814453	-0.122314453	-0.716796875	895.92	-42.25823177	-76.98753187	61.72730791	-75
7094	0	0.379319191	-0.062139511	0.067087173	0.999999046	0.000484467	-0.00012207	0.000141144	9.482979774	-1.553487778	1.677179337	0.024223329	-0.006103516	0.00705719	-0.685058594	-0.122314453	-0.713867188	895.88	-42.24104413	-76.98614804	61.7661647	-75
7095	0	0.384155273	-0.062866211	0.064697266	0.999999046	0.000991821	-0.000315666	0.000408173	9.603881836	-1.571655273	1.617431641	0.049591075	-0.015783313	0.020408635	-0.684814453	-0.122314453	-0.716796875	895.92	-42.32930248	-76.98062119	61.97157343	-76
7096	0	0.382986069	-0.061281204	0.064331055	0.999999046	0.000826836	-0.000299454	0.000183105	9.574651718	-1.532030106	1.608276367	0.041341787	-0.014972689	0.009155275	-0.684814453	-0.122314453	-0.716796875	895.94	-42.34942618	-76.99113916	62.08694361	-76
7097	0	0.381652832	-0.059753418	0.067077637	0.999999046	0.000362396	-0.00014782	0.000106812	9.541320801	-1.493835449	1.676940918	0.018119813	-0.007390976	0.005340576	-0.689697266	-0.122070313	-0.710693359	895.84	-42.34435794	-76.99471518	62.12322442	-76
7098	0	0.379523277	-0.059299469	0.065359116	0.999999046	0.0001297	-0.000179291	0.000320435	9.488081932	-1.482486725	1.63397789	0.006484986	-0.008964539	0.016021729	-0.687255859	-0.124511719	-0.710693359	895.84	-42.45507116	-76.98450547	62.25196871	-76
7099	0	0.382629395	-0.062072754	0.066040039	0.999999046	8.77E-05	-0.000254631	0.000305176	9.565734863	-1.551818848	1.651000977	0.004386902	-0.012731552	0.015258789	-0.687255859	-0.122314453	-0.716552734	895.88	-42.59074669	-76.98176797	62.39891374	-76
7100	0	0.383050919	-0.063577652	0.066221237	0.999999046	0.000449181	-0.000246048	7.53E-05	9.576272964	-1.589441299	1.65553093	0.022459031	-0.012302399	0.003767014	-0.687011719	-0.126708984	-0.716308594	895.98	-42.59909075	-76.99602218	62.459669	-77
7101	0	0.382568359	-0.06048584	0.065856934	0.999999046	0.000907898	-0.000151634	-0.000255585	9.564208984	-1.512145996	1.64642334	0.045394904	-0.007581712	-0.012779238	-0.689453125	-0.124511719	-0.716308594	895.92	-42.4022783	-77.02798931	62.36177672	-77
7102	0	0.383717537	-0.06071949	0.066155434	0.999999046	0.000658035	-8.96E-05	-0.000214577	9.592938423	-1.517987251	1.653885841	0.032901767	-0.00448227	-0.010728837	-0.689453125	-0.126708984	-0.716064453	895.88	-42.22813444	-77.05149641	62.25830777	-78
7103	0	0.384887695	-0.061706543	0.063598633	0.999999046	0.00050354	1.24E-05	-0.000152588	9.622192383	-1.542663574	1.58996582	0.025177003	0.000619888	-0.007629395	-0.687255859	-0.126708984	-0.713378906	895.88	-42.06101503	-77.06159029	62.1436019	-78
7104	0	0.382706642	-0.060364723	0.065681458	0.999999046	0.00048542	-2.48E-05	-0.000644684	9.567666054	-1.50911808	1.642036438	0.024271014	-0.001239777	-0.032234195	-0.689453125	-0.126464844	-0.713378906	895.92	-41.72530912	-77.11242869	61.85299883	-78
7105	0	0.38104248	-0.058044434	0.065612793	0.999999046	0.000469208	-3.72E-05	-0.000385284	9.526062012	-1.45111084	1.640319824	0.02346039	-0.001859665	-0.019264222	-0.687011719	-0.131103516	-0.713134766	895.94	-41.49102262	-77.14433747	61.66635838	-78
7106	0	0.383106232	-0.058544159	0.063685417	0.999999046	0.000545502	-0.000114441	-3.81E-05	9.577655792	-1.463603973	1.592135429	0.027275087	-0.005722046	-0.001907349	-0.689208984	-0.130859375	-0.712890625	895.94	-41.40433066	-77.15657062	61.63962991	-78
7107	0	0.383422852	-0.058044434	0.064941406	0.999999046	0.000171661	-1.43E-05	-0.00012207	9.585571289	-1.45111084	1.623535156	0.008583069	-0.000715256	-0.006103516	-0.686767578	-0.133300781	-0.712890625	895.98	-41.29581818	-77.16663423	61.54746184	-78
7108	0	0.384231567	-0.058112144	0.064460754	0.999999046	-0.000319481	-8.58E-05	7.63E-06	9.605789185	-1.452803612	1.61151886	-0.015974045	-0.004291535	0.00038147	-0.687011719	-0.131103516	-0.710205078	895.84	-41.3167827	-77.17314777	61.52987107	-78
7109	0	0.383728027	-0.057373047	0.064758301	0.999999046	-0.000377655	9.54E-07	-0.000110626	9.593200684	-1.434326172	1.61895752	-0.018882752	4.77E-05	-0.005531311	-0.686767578	-0.133300781	-0.712890625	895.88	-41.27116705	-77.18125029	61.4380942	-78
7110	0	0.381482124	-0.058620453	0.066117287	0.999999046	-0.000486374	6.29E-05	-3.81E-06	9.537053108	-1.465511322	1.652932167	-0.024318696	0.003147125	-0.000190735	-0.689208984	-0.131103516	-0.715820313	895.92	-41.25816317	-77.17592855	61.36560854	-79
7111	0	0.383544922	-0.06060791	0.066162109	0.999999046	-2.29E-05	-7.53E-05	-1.53E-05	9.588623047	-1.515197754	1.654052734	-0.001144409	-0.003767014	-0.000762939	-0.687011719	-0.131103516	-0.715820313	895.94	-41.23429699	-77.18333733	61.33606249	-78
7112	0	0.382946014	-0.058829308	0.066710472	0.999999046	0.000483513	-0.000190735	-0.000229836	9.57365036	-1.470732689	1.667761803	0.024175645	-0.009536744	-0.011491776	-0.689208984	-0.130859375	-0.712890625	895.88	-41.10942549	-77.216866	61.26253573	-78
7113	0	0.3828125	-0.057128906	0.067199707	0.999999046	0.000526428	-7.15E-05	-0.000301361	9.5703125	-1.428222656	1.679992676	0.026321413	-0.003576279	-0.015068055	-0.687011719	-0.133300781	-0.709960938	895.92	-40.91212816	-77.24543097	61.12104169	-79
7114	0	0.382855415	-0.056648254	0.064273834	0.999999046	4.39E-05	0.000114441	-9.54E-07	9.571385384	-1.41620636	1.606845856	0.002193451	0.005722046	-4.77E-05	-0.689208984	-0.133056641	-0.715576172	895.92	-40.82344598	-77.23540597	61.03284286	-79
7115	0	0.384887695	-0.060424805	0.066162109	0.999999046	-0.000598907	3.53E-05	6.10E-05	9.622192383	-1.510620117	1.654052734	-0.029945375	0.001764298	0.003051758	-0.689208984	-0.133056641	-0.715576172	895.86	-40.85916203	-77.2275438	60.99734691	-79
7116	0	0.383471489	-0.059638977	0.069046021	0.999999046	-5.44E-05	-0.000164032	-0.000195503	9.586787224	-1.490974426	1.726150513	-0.002717972	-0.008201599	-0.009775162	-0.689208984	-0.133056641	-0.712890625	895.92	-40.80033771	-77.2560432	60.92937637	-79
7117	0	0.379577637	-0.057373047	0.06640625	0.999999046	0.000595093	-0.000117302	0.000209808	9.489440918	-1.434326172	1.66015625	0.029754641	-0.005865097	0.010490418	-0.689208984	-0.133056641	-0.709960938	895.8	-40.80708442	-77.25011661	61.00518179	-79
7118	0	0.382863998	-0.057702065	0.063819885	0.999999046	0.000713348	-0.0001297	0.000353813	9.57159996	-1.442551613	1.595497131	0.035667423	-0.006484986	0.01769066	-0.689208984	-0.133056641	-0.712890625	895.84	-40.86004028	-77.23457888	61.14083387	-80
7119	0	0.383422852	-0.057434082	0.063476563	0.999999046	6.87E-05	-0.000144005	0.000541687	9.585571289	-1.435852051	1.586914063	0.003433228	-0.007200241	0.027084352	-0.689208984	-0.133056641	-0.712890625	895.94	-41.063472	-77.20623926	61.35538345	-80
7120	0	0.383868217	-0.057230949	0.06654644	0.999999046	-0.000349998	5.34E-05	0.000492096	9.596705437	-1.430773735	1.663661003	-0.017499925	0.002670288	0.024604799	-0.691650391	-0.133056641	-0.709716797	895.84	-41.22964811	-77.16449279	61.48479619	-80
7121	0	0.381896973	-0.057495117	0.066223145	0.999999046	-0.000774384	7.72E-05	0.00069046	9.547424316	-1.43737793	1.655578613	-0.038719184	0.003862382	0.034523016	-0.689208984	-0.133056641	-0.715576172	895.92	-41.51007581	-77.10560012	61.68099125	-80
7122	0	0.382722855	-0.057515144	0.065460205	0.999999046	-0.000587463	0.000242233	0.000911713	9.568071365	-1.437878609	1.636505127	-0.029373175	0.012111666	0.045585642	-0.691894531	-0.128662109	-0.710205078	895.92	-41.7945317	-77.01561057	61.90373196	-79
7123	0	0.382873535	-0.057495117	0.06451416	0.999999046	-0.001041412	0.000195503	0.000801086	9.571838379	-1.43737793	1.612854004	-0.052070633	0.009775165	0.040054333	-0.687011719	-0.12890625	-0.710449219	895.92	-42.10239634	-76.93798165	62.09860039	-79
7124	0	0.384953499	-0.057699203	0.065154076	0.999998093	-0.001403809	0.000218391	0.000479698	9.623837471	-1.442480087	1.628851891	-0.070190456	0.010919575	0.023984918	-0.689697266	-0.124267578	-0.710693359	895.98	-42.3243275	-76.88313106	62.16160375	-78
7125	0	0.381958008	-0.059265137	0.066711426	0.999999046	-0.001312256	0.000264168	0.000244141	9.548950195	-1.481628418	1.667785645	-0.065612813	0.013208393	0.012207035	-0.687255859	-0.122314453	-0.716552734	895.88	-42.43418438	-76.84260584	62.11848553	-78
7126	0	0.385676384	-0.062193871	0.067361832	0.999999046	-0.001050949	4.58E-05	6.39E-05	9.641909599	-1.554846764	1.684045792	-0.052547465	0.002288819	0.00319481	-0.689697266	-0.119873047	-0.713867188	895.94	-42.5212658	-76.83448252	62.08335348	-77
7127	0	0.382263184	-0.062561035	0.068786621	0.999999046	-0.000385284	0.000134468	-0.000164032	9.55657959	-1.564025879	1.719665527	-0.019264222	0.006723404	-0.008201599	-0.6875	-0.117919922	-0.717041016	895.92	-42.42041984	-76.83637833	61.93087673	-77
7128	0	0.380189896	-0.06206131	0.067375183	0.999999046	2.96E-05	2.48E-05	0.000259399	9.504747391	-1.551532745	1.684379578	0.001478195	0.001239777	0.012969971	-0.689697266	-0.120117188	-0.719482422	895.98	-42.4615662	-76.81471415	61.97485192	-77
7129	0	0.383483887	-0.0625	0.066467285	0.999999046	0.0001297	0.000100136	0.000331879	9.587097168	-1.5625	1.661682129	0.006484985	0.00500679	0.016593933	-0.6875	-0.117919922	-0.714111328	895.86	-42.49273875	-76.78106209	62.01999988	-77
7130	0	0.383612633	-0.061455727	0.066314697	0.999999046	-9.16E-05	0.000144958	0.000163078	9.590315819	-1.536393166	1.657867432	-0.004577637	0.007247925	0.008153915	-0.687255859	-0.120117188	-0.716796875	895.98	-42.47395197	-76.75673272	61.98918972	-76
7131	0	0.382568359	-0.062011719	0.066711426	0.999999046	-9.92E-05	0.000214577	5.72E-05	9.564208984	-1.550292969	1.667785645	-0.004959106	0.010728836	0.002861023	-0.6875	-0.117919922	-0.714111328	895.88	-42.3955786	-76.73470439	61.89553218	-76
7132	0	0.380701065	-0.061397552	0.066372871	0.999999046	-6.96E-05	0.000185013	0.000125885	9.517526627	-1.534938812	1.659321785	-0.003480911	0.009250641	0.006294251	-0.6875	-0.120117188	-0.713867188	895.86	-42.3486308	-76.70988038	61.84003808	-76
7133	0	0.382507324	-0.062927246	0.066772461	0.999999046	6.87E-05	7.34E-05	0.000114441	9.562683105	-1.573181152	1.669311523	0.003433228	0.003671646	0.005722046	-0.6875	-0.117919922	-0.714111328	895.94	-42.31874656	-76.69537521	61.81625253	-76
7134	0	0.381933212	-0.063127518	0.068789482	0.999999046	0.000541687	1.34E-05	-0.000213623	9.548330307	-1.578187943	1.719737053	0.027084352	0.000667572	-0.010681153	-0.687744141	-0.115722656	-0.711425781	895.88	-42.13670771	-76.71113453	61.68968727	-76
7135	0	0.383483887	-0.06060791	0.067687988	0.999999046	0.000926971	1.24E-05	-6.10E-05	9.587097168	-1.515197754	1.692199707	0.046348578	0.000619888	-0.003051758	-0.6875	-0.120117188	-0.713867188	895.94	-41.9654692	-76.71522419	61.62145671	-76
7136	0	0.382940292	-0.060194969	0.066099167	0.999999046	0.000712395	8.01E-05	2.86E-06	9.573507309	-1.504874229	1.652479172	0.035619739	0.004005432	0.000143051	-0.687255859	-0.122314453	-0.716552734	895.92	-41.82009868	-76.70871822	61.55462875	-76
7137	0	0.383544922	-0.061462402	0.066772461	0.999999046	-0.000152588	0.000126839	-0.000324249	9.588623047	-1.536560059	1.669311523	-0.007629395	0.006341934	-0.016212464	-0.685058594	-0.120117188	-0.717041016	895.94	-41.6406624	-76.72317528	61.34805494	-75
7138	0	0.380880356	-0.059771538	0.067154884	0.999999046	-3.81E-05	7.63E-06	-0.000393867	9.522008896	-1.494288445	1.678872108	-0.001907349	0.00038147	-0.019693375	-0.687255859	-0.124511719	-0.716552734	895.88	-41.46076953	-76.75305473	61.15902557	-75
7139	0	0.380371094	-0.060302734	0.067810059	0.999999046	-0.00025177	-6.77E-05	0.000202179	9.509277344	-1.507568359	1.695251465	-0.012588501	-0.003385544	0.010108948	-0.684814453	-0.124511719	-0.716552734	895.86	-41.54672707	-76.74409906	61.21795347	-75
7140	0	0.383833885	-0.062140465	0.066931725	0.999999046	-0.000128746	-2.86E-05	0.000286102	9.59584713	-1.55351162	1.673293114	-0.006437302	-0.001430511	0.014305115	-0.684814453	-0.124511719	-0.713623047	895.88	-41.63688755	-76.72540108	61.29722112	-75
7141	0	0.383666992	-0.061218262	0.067199707	0.999999046	-0.000286102	0.000134468	0.000102997	9.591674805	-1.530456543	1.679992676	-0.014305115	0.006723404	0.005149841	-0.684814453	-0.122314453	-0.716796875	895.88	-41.62618679	-76.70670054	61.25149881	-75
7142	0	0.381743431	-0.061031342	0.068792343	0.999999046	-0.000242233	4.39E-05	0.000144005	9.543585777	-1.525783539	1.719808578	-0.012111664	0.002193451	0.007200241	-0.684814453	-0.122314453	-0.716796875	895.84	-41.65456208	-76.69260551	61.25165814	-74
7143	0	0.379516602	-0.060913086	0.067565918	0.999999046	-0.000469208	8.49E-05	0.000270844	9.487915039	-1.522827148	1.689147949	-0.023460389	0.004243851	0.013542176	-0.685058594	-0.120117188	-0.714111328	895.94	-41.74169135	-76.66533005	61.28538728	-74
7144	0	0.382217407	-0.062831879	0.067631721	0.999999046	-0.000557899	-7.06E-05	0.000407219	9.555435181	-1.570796967	1.690793037	-0.027894976	-0.003528595	0.020360948	-0.685058594	-0.120117188	-0.714111328	895.88	-41.93823644	-76.64085498	61.42243973	-73
7145	0	0.381713867	-0.063293457	0.068725586	0.999999046	-7.25E-05	-4.48E-05	0.000286102	9.54284668	-1.582336426	1.718139648	-0.003623962	-0.002241135	0.014305115	-0.687255859	-0.120117188	-0.719726563	895.88	-42.02723728	-76.62331335	61.50487479	-74
7146	0	0.384430885	-0.061814308	0.067826271	0.999999046	0.000270844	9.54E-06	0.000357628	9.610772133	-1.545357704	1.695656776	0.013542176	0.000476837	0.017881394	-0.687255859	-0.120117188	-0.716796875	895.92	-42.08482041	-76.59567422	61.59662053	-74
7147	0	0.381713867	-0.061523438	0.068115234	0.999999046	0.000179291	0.000115395	0.000419617	9.54284668	-1.538085938	1.702880859	0.008964539	0.00576973	0.020980836	-0.685058594	-0.117919922	-0.719970703	895.92	-42.14054209	-76.55427026	61.67185916	-73
7148	0	0.383416176	-0.062371254	0.065722466	0.999999046	-0.000237465	-3.81E-06	0.000266075	9.585404396	-1.559281349	1.643061638	-0.011873245	-0.000190735	0.013303757	-0.685058594	-0.117919922	-0.717041016	895.88	-42.22795936	-76.53489233	61.73251186	-73
7149	0	0.381530762	-0.061645508	0.068481445	0.999999046	0.000297546	-0.000163078	1.91E-05	9.538269043	-1.541137695	1.712036133	0.01487732	-0.008153916	0.000953674	-0.6875	-0.117919922	-0.719726563	895.88	-42.21757115	-76.54805664	61.75451833	-73
7150	0	0.381183624	-0.061864853	0.067111015	0.999999046	0.000362396	-0.000232697	0.000427246	9.529590607	-1.546621323	1.677775383	0.018119813	-0.011634827	0.021362306	-0.685302734	-0.115722656	-0.717285156	895.86	-42.36697652	-76.53569089	61.94625142	-73
7151	0	0.385070801	-0.062744141	0.067932129	0.999999046	0.000602722	-0.000136375	0.000450134	9.62677002	-1.568603516	1.698303223	0.030136111	-0.006818772	0.022506716	-0.6875	-0.115722656	-0.717285156	895.88	-42.46560016	-76.51334858	62.11420036	-73
7152	0	0.381189346	-0.060505867	0.066129684	0.999999046	0.000546455	-8.01E-05	0.000418663	9.529733658	-1.512646675	1.653242111	0.027322771	-0.004005432	0.020933153	-0.6875	-0.117919922	-0.714111328	895.88	-42.54099344	-76.48876907	62.25511151	-73
7153	0	0.382141113	-0.060424805	0.067260742	0.999999046	-0.000164032	-0.000124931	0.000297546	9.553527832	-1.510620117	1.681518555	-0.008201599	-0.006246567	0.01487732	-0.6875	-0.117919922	-0.717041016	895.86	-42.66918116	-76.47742525	62.3659464	-73
7154	0	0.383646965	-0.061652184	0.067875862	0.999999046	-0.000417709	-0.00012207	8.77E-05	9.591174126	-1.541304588	1.696896553	-0.020885468	-0.006103516	0.004386902	-0.6875	-0.115722656	-0.714355469	895.88	-42.75178293	-76.48217409	62.39933609	-73
7155	0	0.383117676	-0.063781738	0.069519043	0.999999046	4.20E-05	-0.000128746	-3.81E-05	9.577941895	-1.594543457	1.737976074	0.002098084	-0.006437302	-0.001907349	-0.685058594	-0.117919922	-0.717041016	895.88	-42.73974409	-76.49720351	62.39005138	-73
7156	0	0.380515099	-0.062587738	0.068264961	0.999999046	0.000544548	-0.000198364	-0.000130653	9.512877464	-1.564693451	1.706624031	0.027227403	-0.009918213	-0.006532669	-0.6875	-0.115722656	-0.714355469	895.92	-42.6600409	-76.52526613	62.36825044	-73
7157	0	0.382141113	-0.061889648	0.066772461	0.999999046	0.000377655	-0.000151634	-0.000160217	9.553527832	-1.547241211	1.669311523	0.018882752	-0.007581711	-0.008010865	-0.6875	-0.120117188	-0.713867188	895.8	-42.5737508	-76.55174619	62.32439268	-73
7158	0	0.381814957	-0.061717033	0.066640854	0.999999046	7.63E-05	-0.00019455	0.000125885	9.545373917	-1.542925835	1.666021347	0.003814697	-0.009727478	0.006294251	-0.6875	-0.117919922	-0.714111328	895.92	-42.63685714	-76.55971654	62.39567897	-73
7159	0	0.385986328	-0.062561035	0.064208984	0.999999046	-0.000335693	-0.000113487	-0.0001297	9.649658203	-1.564025879	1.605224609	-0.016784668	-0.005674362	-0.006484986	-0.685058594	-0.120117188	-0.714111328	895.86	-42.63124101	-76.58085323	62.35001629	-73
7160	0	0.381257057	-0.0626297	0.067680359	0.999999046	-0.000153542	-3.81E-05	-0.000377655	9.53142643	-1.565742493	1.692008972	-0.007677078	-0.001907349	-0.018882752	-0.687255859	-0.120117188	-0.716796875	895.88	-42.49224197	-76.61481085	62.18766412	-73
7161	0	0.379821777	-0.062805176	0.066833496	0.999999046	0.000152588	-7.15E-05	-4.58E-05	9.495544434	-1.570129395	1.670837402	0.007629395	-0.003576279	-0.002288818	-0.6875	-0.120117188	-0.713867188	895.92	-42.44669437	-76.62582293	62.15836386	-73
7162	0	0.383865356	-0.062506676	0.065941811	0.999999046	0.000610352	-0.00019455	0.000105858	9.596633911	-1.562666893	1.648545265	0.03051758	-0.009727479	0.005292893	-0.687255859	-0.120117188	-0.716796875	895.92	-42.44295353	-76.63556697	62.22327404	-73
7163	0	0.384216309	-0.061218262	0.065307617	0.999999046	0.000164032	-0.000109673	1.53E-05	9.605407715	-1.530456543	1.63269043	0.008201599	-0.005483627	0.000762939	-0.689697266	-0.119873047	-0.713867188	895.94	-42.43071035	-76.64526466	62.22820999	-73
7164	0	0.383313179	-0.059804916	0.065241814	0.999999046	2.86E-06	-0.000116348	3.81E-06	9.582829475	-1.49512291	1.631045341	0.000143051	-0.005817413	0.000190735	-0.687255859	-0.122314453	-0.719482422	895.94	-42.43502159	-76.65656845	62.23077577	-73
7165	0	0.380554199	-0.059997559	0.065063477	0.999999046	-0.00037384	-2.19E-05	-1.53E-05	9.51385498	-1.499938965	1.626586914	-0.018692017	-0.001096725	-0.000762939	-0.689697266	-0.119873047	-0.713867188	895.94	-42.44496929	-76.66147923	62.19566703	-73
7166	0	0.381779671	-0.062415123	0.065120697	0.999999046	-0.000715256	0	-0.000244141	9.544491768	-1.560378075	1.628017426	-0.03576279	0	-0.012207032	-0.689697266	-0.120117188	-0.716796875	895.98	-42.40555232	-76.68227027	62.06945173	-73
7167	0	0.383422852	-0.062988281	0.064575195	0.999999046	-0.000259399	-0.000136375	-0.000160217	9.585571289	-1.574707031	1.614379883	-0.012969971	-0.006818771	-0.008010864	-0.685058594	-0.120117188	-0.714111328	895.84	-42.38882866	-76.70815866	62.02019699	-73
7168	0	0.383765221	-0.060763359	0.06590271	0.999999046	0.000130653	-0.000160217	-0.00017643	9.594130516	-1.519083977	1.647567749	0.006532669	-0.008010864	-0.008821488	-0.687255859	-0.120117188	-0.716796875	895.94	-42.32924623	-76.73738398	61.97140101	-73
7169	0	0.38079834	-0.060791016	0.066040039	0.999999046	6.87E-05	-0.000208855	7.63E-06	9.519958496	-1.519775391	1.651000977	0.003433228	-0.010442734	0.00038147	-0.6875	-0.120117188	-0.711181641	895.94	-42.3588138	-76.75654036	62.00933599	-73
7170	0	0.384852409	-0.063474655	0.063872337	0.999999046	-0.000322342	-0.000150681	-0.000312805	9.621310234	-1.586866379	1.596808434	-0.016117097	-0.007534027	-0.015640259	-0.687255859	-0.120117188	-0.719726563	895.94	-42.29940971	-76.79554802	61.90541425	-73
7171	0	0.383605957	-0.067260742	0.066589355	0.999999046	0.001148224	-9.82E-05	-0.000411987	9.590148926	-1.681518555	1.664733887	0.057411208	-0.004911424	-0.02059937	-0.687255859	-0.120117188	-0.716796875	895.82	-42.01850096	-76.83745554	61.74531443	-73
7172	0	0.382387161	-0.06026268	0.066530228	0.999998093	0.001848221	0.000161171	-0.000138283	9.559679031	-1.506567001	1.663255692	0.092411095	0.008058553	-0.006914143	-0.687255859	-0.122314453	-0.713867188	895.8	-41.67119724	-76.83610521	61.60005931	-73
7173	0	0.385437012	-0.05871582	0.063964844	0.999999046	0.001228333	0.000306129	0.000179291	9.635925293	-1.467895508	1.599121094	0.061416643	0.015306477	0.008964541	-0.687011719	-0.126708984	-0.716308594	895.86	-41.46452674	-76.79821164	61.52907427	-74
7174	0	0.37902832	-0.063644409	0.061971664	0.999999046	-0.000766754	0.000522614	0.000144005	9.475708008	-1.591110229	1.549291611	-0.038337713	0.02613068	0.007200242	-0.687255859	-0.124511719	-0.710693359	895.88	-41.40572392	-76.74439495	61.37746216	-74
7175	0	0.383605957	-0.06036377	0.063415527	0.999999046	-4.58E-05	7.72E-05	0.000411987	9.590148926	-1.509094238	1.585388184	-0.002288818	0.003862381	0.020599366	-0.687255859	-0.124511719	-0.710693359	895.84	-41.50611833	-76.70867174	61.47512188	-75
7176	0	0.384344101	-0.053790092	0.06816864	0.999999046	0.001086235	-0.000383377	0.000148773	9.608602524	-1.344752312	1.704216003	0.054311765	-0.019168858	0.007438661	-0.689697266	-0.124267578	-0.713378906	895.92	-41.52788927	-76.73265547	61.62182619	-75
7177	0	0.381103516	-0.061584473	0.069152832	0.999999046	0.000766754	-0.000273705	-0.000202179	9.527587891	-1.539611816	1.728820801	0.038337712	-0.013685228	-0.010108949	-0.687011719	-0.126708984	-0.716308594	895.86	-41.4231252	-76.77375385	61.599586	-75
7178	0	0.381286621	-0.064260483	0.065440178	0.999998093	0.001734734	-0.000178337	-0.000229836	9.532165527	-1.60651207	1.636004448	0.086736724	-0.008916859	-0.011491781	-0.689453125	-0.128662109	-0.710205078	895.8	-41.16690444	-76.80863066	61.53811948	-75
7179	0	0.383056641	-0.060302734	0.063598633	0.999998093	0.001881599	-0.000221252	8.39E-05	9.576416016	-1.507568359	1.58996582	0.094080028	-0.011062629	0.00419617	-0.689453125	-0.130859375	-0.710205078	895.88	-41.02330271	-76.82364959	61.60850006	-76
7180	0	0.383318901	-0.055675507	0.0629673	0.999999046	-9.82E-05	0.000137329	1.43E-05	9.582972527	-1.391887665	1.57418251	-0.004911423	0.006866455	0.000715256	-0.689208984	-0.133056641	-0.712890625	895.94	-40.96564353	-76.81320627	61.53610041	-75
7181	0	0.382751465	-0.060119629	0.063598633	0.999999046	-0.000106812	3.15E-05	0.000415802	9.568786621	-1.502990723	1.58996582	-0.005340576	0.001573563	0.020790101	-0.689208984	-0.130859375	-0.712890625	895.88	-41.09159713	-76.7818365	61.64910398	-76
7182	0	0.384407043	-0.058318138	0.066966057	0.999999046	-0.000232697	0.000106812	-0.000148773	9.610176086	-1.457953453	1.674151421	-0.011634827	0.005340576	-0.00743866	-0.689208984	-0.133056641	-0.712890625	895.86	-40.9997031	-76.78650601	61.52705623	-76
7183	0	0.382324219	-0.059387207	0.066711426	0.999999046	-0.000225067	0.00011158	-2.67E-05	9.558105469	-1.484680176	1.667785645	-0.011253357	0.005578995	-0.001335144	-0.687011719	-0.133300781	-0.707275391	895.92	-40.95040361	-76.78157775	61.45298748	-77
7184	0	0.382616997	-0.061167717	0.067072868	0.999999046	0.000468254	-5.91E-05	0.000240326	9.565424919	-1.529192924	1.676821709	0.023412706	-0.002956391	0.012016297	-0.686767578	-0.133300781	-0.712890625	895.92	-40.97492188	-76.77131071	61.53226276	-78
7185	0	0.382202148	-0.059814453	0.065124512	0.999999046	0.000530243	-0.000102043	0.000255585	9.555053711	-1.495361328	1.628112793	0.026512148	-0.005102158	0.012779237	-0.686767578	-0.133300781	-0.712890625	895.88	-41.01193986	-76.76366799	61.63076666	-78
7186	0	0.382001877	-0.059391022	0.065962791	0.999999046	-0.000404358	3.05E-05	0.000480652	9.550046921	-1.484775543	1.649069786	-0.020217897	0.001525879	0.024032594	-0.686767578	-0.133300781	-0.715820313	895.86	-41.19607114	-76.7276319	61.7705382	-77
7187	0	0.382629395	-0.059875488	0.067626953	0.999999046	-0.000808716	-4.86E-05	0.000270844	9.565734863	-1.496887207	1.690673828	-0.040435796	-0.00243187	0.013542177	-0.684570313	-0.131103516	-0.713134766	895.82	-41.3745068	-76.71416929	61.85666991	-76
7188	0	0.380465508	-0.062026024	0.069563866	0.999999046	-0.000567436	0.000144958	9.16E-05	9.511637688	-1.550650597	1.739096642	-0.028371813	0.007247925	0.004577637	-0.689208984	-0.131103516	-0.715820313	895.86	-41.39770367	-76.69744388	61.81333284	-76
7189	0	0.383422852	-0.063598633	0.068054199	0.999999046	6.48E-05	6.20E-05	-9.54E-05	9.585571289	-1.58996582	1.70135498	0.003242493	0.003099442	-0.004768372	-0.689208984	-0.131103516	-0.715820313	895.92	-41.30745883	-76.70188154	61.72751806	-75
7190	0	0.381838799	-0.062663078	0.067131996	0.999999046	0.00069046	-6.10E-05	-0.000152588	9.545969963	-1.566576958	1.678299904	0.034523013	-0.003051758	-0.007629395	-0.689453125	-0.130859375	-0.710205078	895.86	-41.16426921	-76.72112805	61.66189093	-76
7191	0	0.382629395	-0.060119629	0.06640625	0.999999046	0.000816345	-0.000189781	1.53E-05	9.565734863	-1.502990723	1.66015625	0.040817266	-0.009489061	0.00076294	-0.687011719	-0.131103516	-0.710205078	895.8	-41.10910925	-76.73884402	61.69887321	-76
7192	0	0.382470131	-0.063376427	0.069048882	0.999999046	0.000655174	-0.000226974	-0.00018692	9.561753273	-1.584410667	1.726222038	0.032758716	-0.011348725	-0.009346009	-0.689208984	-0.133056641	-0.712890625	895.82	-41.01034978	-76.77482873	61.67198036	-76
7193	0	0.384338379	-0.063110352	0.066772461	0.999999046	0.000881195	-0.000136375	-0.000331879	9.608459473	-1.577758789	1.669311523	0.04405976	-0.006818772	-0.016593936	-0.689208984	-0.133056641	-0.709960938	895.86	-40.80333694	-76.81376096	61.55927086	-77
7194	0	0.378047943	-0.057977676	0.069028854	0.999999046	0.001209259	-0.000286102	-0.000453949	9.451198578	-1.44944191	1.725721359	0.060462969	-0.014305119	-0.022697455	-0.686767578	-0.135498047	-0.715576172	895.82	-40.55958458	-76.87464994	61.44284354	-78
7195	0	0.378662109	-0.055603027	0.067199707	0.999999046	0.001022339	-0.000349998	-0.000247955	9.466552734	-1.390075684	1.679992676	0.051116954	-0.017499927	-0.012397769	-0.688964844	-0.139648438	-0.709472656	895.92	-40.43292692	-76.92575882	61.43235206	-78
7196	0	0.384414673	-0.059058189	0.067966461	0.999999046	-0.000123024	-0.000123978	-0.000911713	9.610366821	-1.476454735	1.69916153	-0.0061512	-0.006198884	-0.045585639	-0.69140625	-0.139648438	-0.712158203	895.92	-40.11355068	-77.00623474	61.08668838	-78
7197	0	0.37512207	-0.058410645	0.06652832	0.999998093	0.000756264	-0.000164032	-0.001239777	9.378051758	-1.460266113	1.663208008	0.0378132	-0.008201602	-0.061988853	-0.688720703	-0.144042969	-0.711914063	895.86	-39.57563397	-77.11365111	60.62181393	-80
7198	0	0.370586395	-0.057642937	0.062221527	0.999999046	-0.000198364	-0.000562668	-0.001140594	9.264659882	-1.441073418	1.555538177	-0.009918216	-0.0281334	-0.05702974	-0.688720703	-0.146240234	-0.711669922	895.94	-39.30632695	-77.24840488	60.32135272	-80
7199	0	0.379638672	-0.056274414	0.067993164	0.999996185	-0.001700401	-0.001331329	-0.001373291	9.490966797	-1.406860352	1.699829102	-0.085020158	-0.06656654	-0.068664626	-0.691162109	-0.146240234	-0.703125	895.88	-39.36054832	-77.46796385	60.18190985	-81
7200	0	0.384161949	-0.065233231	0.07205677	0.999982834	-0.005184174	-0.000788689	-0.002234459	9.604048729	-1.630830765	1.801419258	-0.259210083	-0.039434647	-0.111723551	-0.691162109	-0.146240234	-0.711669922	895.82	-39.28622507	-77.70140485	59.50361268	-81
7201	0	0.388977051	-0.075134277	0.077514648	0.999975204	-0.006617546	-0.00069809	-0.001979828	9.72442627	-1.878356934	1.937866211	-0.330879962	-0.03490476	-0.098992189	-0.69140625	-0.141845703	-0.706298828	895.82	-39.44032216	-77.90734595	58.89868474	-80
7202	0	0.382433891	-0.077685356	0.075704575	0.999978065	-0.006370544	-0.000658035	-0.001300812	9.560847282	-1.942133904	1.892614365	-0.318529489	-0.032901998	-0.065041051	-0.694091797	-0.133056641	-0.709716797	895.8	-39.83186817	-78.05954671	58.56206987	-76
7203	0	0.374328613	-0.077514648	0.076293945	0.999990463	-0.004042625	-0.000957489	-0.001319885	9.358215332	-1.937866211	1.907348633	-0.202131912	-0.047874602	-0.065994472	-0.689453125	-0.126464844	-0.710449219	895.92	-40.05503521	-78.23852622	58.31914072	-73
7204	0	0.37097168	-0.082897186	0.076436996	0.999988556	-0.003923416	-0.001097679	-0.002316475	9.274291992	-2.072429657	1.910924911	-0.196171525	-0.054884158	-0.11582417	-0.692138672	-0.122070313	-0.707763672	895.86	-39.88845271	-78.50164893	57.69061092	-70
7205	0	0.376586914	-0.080749512	0.077758789	0.99998951	-0.001750946	-0.001570702	-0.003715515	9.414672852	-2.018737793	1.943969727	-0.087547584	-0.078535333	-0.185776356	-0.694335938	-0.124267578	-0.713134766	895.88	-38.99737066	-78.90577566	56.57342197	-68
7206	0	0.375156403	-0.085016251	0.078109741	0.999990463	-0.000357628	-0.00178051	-0.003954887	9.378910065	-2.125406265	1.95274353	-0.01788145	-0.089025778	-0.197744994	-0.696533203	-0.128417969	-0.704101563	895.86	-37.83578995	-79.3400107	55.34740655	-67
7207	0	0.373657227	-0.081237793	0.076782227	0.999990463	0.001343727	-0.001941681	-0.003616333	9.341430664	-2.030944824	1.919555664	0.067186564	-0.097084347	-0.180817213	-0.698730469	-0.1328125	-0.703613281	895.74	-36.61215887	-79.75881132	54.25264117	-70
7208	0	0.372847557	-0.074376106	0.074134827	0.999988556	0.001922607	-0.002263069	-0.00363636	9.321188927	-1.859402657	1.853370667	0.096130724	-0.113153873	-0.181818676	-0.700683594	-0.141601563	-0.705810547	895.86	-35.33890459	-80.20280845	53.1748524	-76
7209	0	0.371459961	-0.073059082	0.070007324	0.999984741	0.002552986	-0.00270462	-0.004077911	9.286499023	-1.826477051	1.750183105	0.127649955	-0.135231705	-0.203896604	-0.702880859	-0.147949219	-0.696533203	895.82	-33.8025778	-80.7110276	51.90282355	-71
7210	0	0.370753288	-0.066624641	0.070305824	0.999976158	0.003803253	-0.003295898	-0.004538536	9.268832207	-1.665616035	1.757645607	0.190164114	-0.164796183	-0.226928541	-0.707275391	-0.160888672	-0.689453125	895.8	-31.90564658	-81.29688297	50.416419	-67
7211	0	0.373352051	-0.062194824	0.067749023	0.999967575	0.004059792	-0.003742218	-0.005737305	9.33380127	-1.554870605	1.693725586	0.202991723	-0.187112878	-0.286868266	-0.708984375	-0.174072266	-0.691162109	895.92	-29.07733007	-81.9852205	48.01460859	-69
7212	0	0.375026703	-0.06229496	0.066387177	0.999970436	0.002955437	-0.004104614	-0.005740166	9.375667572	-1.557374001	1.659679413	0.147773277	-0.205232715	-0.287011085	-0.715820313	-0.186767578	-0.678222656	895.92	-26.04564577	-82.69047967	45.2899709	-71
7213	0	0.368835449	-0.058166504	0.067993164	0.999968529	0.003623962	-0.004500389	-0.00541687	9.22088623	-1.454162598	1.699829102	0.181200015	-0.225021808	-0.270846338	-0.717773438	-0.197509766	-0.668701172	895.84	-22.78362325	-83.39916784	42.41247612	-64
7214	0	0.363472939	-0.057009697	0.070648193	0.999966621	0.003164291	-0.004962921	-0.005509377	9.086823463	-1.425242424	1.766204834	0.158216283	-0.248148745	-0.27547181	-0.721923828	-0.212890625	-0.661621094	895.92	-18.9339581	-84.13647349	38.90094868	-69
7215	0	0.352905273	-0.054138184	0.065368652	0.999954224	0.006310463	-0.005741119	-0.004295349	8.822631836	-1.35345459	1.634216309	0.315527945	-0.287060334	-0.214770722	-0.726074219	-0.228027344	-0.654296875	895.92	-15.43059193	-84.88997355	36.10301468	-75
7216	0	0.343729973	-0.051966667	0.062656403	0.999946594	0.00671196	-0.006056786	-0.00496006	8.593249321	-1.299166679	1.566410065	0.33560394	-0.302844647	-0.248007402	-0.732666016	-0.242919922	-0.646972656	895.88	-9.927457632	-85.67072209	31.34292948	-66
7217	0	0.342773438	-0.04486084	0.065612793	0.999948502	0.005665779	-0.005783081	-0.006065369	8.569335938	-1.121520996	1.640319824	0.283293788	-0.289158985	-0.303273605	-0.739013672	-0.262451172	-0.633789063	895.88	-0.390724137	-86.3731644	22.43403881	-75
7218	0	0.346784592	-0.04802227	0.065233231	0.999958992	0.004953384	-0.005638123	-0.004880905	8.669614792	-1.200556755	1.630830765	0.247672528	-0.281909894	-0.244048518	-0.743408203	-0.277587891	-0.623535156	895.86	10.35009599	-86.94946061	12.2477862	-64
7219	0	0.335144043	-0.049255371	0.064697266	0.999973297	0.002049446	-0.005138397	-0.004722595	8.378601074	-1.231384277	1.617431641	0.102473209	-0.256922126	-0.236131843	-0.747558594	-0.290527344	-0.613769531	895.82	23.91722142	-87.3375861	-1.086361115	-73
7220	0	0.322668076	-0.059063911	0.06505394	0.999977112	0.000810623	-0.005204201	-0.004224777	8.066701889	-1.476597786	1.626348495	0.040531466	-0.260212014	-0.211240466	-0.751953125	-0.301269531	-0.604003906	895.8	39.65115404	-87.58084593	-16.71566338	-66
7221	0	0.319641113	-0.060302734	0.072021484	0.99994278	0.007920265	-0.004711151	-0.005340576	7.991027832	-1.507568359	1.800537109	0.396020748	-0.23556201	-0.267033858	-0.756347656	-0.312011719	-0.597167969	895.86	58.44337318	-87.47068495	-34.61102613	-68
7222	0	0.306008339	-0.014144897	0.094245911	0.99990654	0.012335777	-0.003167152	-0.004962921	7.650208473	-0.353622437	2.356147766	0.616808072	-0.158362552	-0.248153785	-0.755615234	-0.333740234	-0.583984375	895.88	71.06787867	-87.11748217	-45.82632954	-72
7223	0	0.295532227	-0.007080078	0.124145508	0.999972343	0.003295898	0.000512123	-0.006580353	7.388305664	-0.177001953	3.103637695	0.164796417	0.025606388	-0.329020624	-0.757324219	-0.35546875	-0.570800781	895.82	73.677447	-86.39240208	-48.00989963	-71
7224	0	0.414613724	0.004505157	0.161242485	0.999922752	-0.003218651	0.009185791	0.007661819	10.36534309	0.112628937	4.031062126	-0.160936657	0.459301297	0.383100771	-0.749511719	-0.369140625	-0.578613281	895.86	50.10261659	-86.67635833	-24.59418689	-75
7225	0	0.494934082	-0.035400391	0.296447754	0.997208595	-0.037704468	0.0394907	0.050930023	12.37335205	-0.885009766	7.411193848	-1.886979488	1.976374282	2.548873244	-0.743896484	-0.323486328	-0.614013672	895.86	-28.61106531	-82.38749846	50.54676725	-72
7226	0	0.371414185	-0.229287148	0.353993416	0.995605469	0.008238792	0.069306374	0.062429428	9.285354614	-5.732178688	8.849835396	0.412544037	3.470403149	3.126051367	-0.708007813	-0.191650391	-0.701171875	895.88	-35.66037798	-71.73247182	59.13519604	-75
7227	0	-0.304748535	0.201660156	0.209289551	0.9971838	0.018268585	0.069077492	0.022766113	-7.618713379	5.041503906	5.23223877	0.914287582	3.457120088	1.139375295	-0.616699219	-0.151611328	-0.795166016	895.86	-28.62550904	-63.53808867	54.1082367	-82
7228	0	-0.439312935	0.133399963	0.084227562	0.998924255	-0.017505646	0.042923927	0.000508308	-10.98282337	3.334999084	2.105689049	-0.875596113	2.146965866	0.025424533	-0.510009766	-0.144775391	-0.867431641	895.94	-26.52285893	-59.04765092	49.81105841	-73
7229	0	-0.438781738	-0.149841309	-0.311401367	0.998846054	-0.043147087	0.012340546	-0.017066956	-10.96954346	-3.746032715	-7.78503418	-2.158184086	0.617264595	-0.853675981	-0.447265625	-0.116455078	-0.91015625	895.92	-27.52871416	-58.57723902	45.76053223	-73
7230	0	0.208699226	-0.866122246	-1.241934776	0.999322891	0.010266304	-0.034321785	0.008316994	5.217480659	-21.65305614	-31.04836941	0.513430986	-1.716476335	0.415943486	-0.428222656	-0.060546875	-0.921875	895.92	-31.30345887	-61.56395106	51.08500634	-71
7231	0	5.081848145	0.769470215	0.944641113	0.996888161	-0.048851013	0.060917854	-0.010795593	127.0462036	19.23675537	23.61602783	-2.445087408	3.049056074	-0.54034026	-0.444091797	-0.1953125	-0.898193359	896	-29.28544934	-56.14225452	44.0433844	-88
7232	0	-0.501868248	-0.235173225	0.255906105	0.989917755	0.027906418	0.041314125	-0.132575989	-12.5467062	-5.879330635	6.397652626	1.400029014	2.072676403	-6.651166476	-0.328369141	-0.074951172	-0.96875	895.88	-2.160006604	-55.6898702	14.86821186	-70
7233	0	0.207824707	0.06439209	0.537658691	0.990801811	0.063529968	-0.031558037	-0.11523056	5.195617676	1.609802246	13.44146729	3.186272806	-1.582757197	-5.779256793	-0.263671875	-0.217529297	-0.974853516	895.92	25.77045025	-56.535559	-10.35775937	-72
7234	0	0.306393623	0.407113075	0.22062397	0.995439529	0.062617302	-0.034039497	-0.06340313	7.659840584	10.17782688	5.515599251	3.135632901	-1.704566703	-3.174984117	-0.282714844	-0.404785156	-0.909912109	895.88	45.15181928	-55.46504164	-25.20535557	-78
7235	0	-0.006591797	0.546142578	0.517272949	0.998626709	0.018330574	0.014068604	-0.047000885	-0.164794922	13.65356445	12.93182373	0.916948229	0.70375216	-2.351119948	-0.271240234	-0.540527344	-0.833496094	895.86	50.45584329	-50.33072805	-29.11097807	-73
7236	0	0.017757416	0.054011345	0.434878349	0.996480942	-0.061988831	0.051199913	-0.023672104	0.443935394	1.350283623	10.87195873	-3.103081674	2.563002243	-1.184995282	-0.178710938	-0.5546875	-0.857421875	895.98	40.82515713	-44.21725089	-25.38520702	-67
7237	0	0.115844727	-0.287658691	0.154968262	0.99170208	-0.121772766	0.041207314	0.00063324	2.896118164	-7.191467285	3.874206543	-6.105535482	2.066083599	0.031749856	-0.074462891	-0.375	-0.955078125	895.92	24.43672226	-40.22223096	-21.54151975	-77
7238	0	0.134041786	-0.173130035	0.099723816	0.999187469	0.002167702	0.037081718	0.015609741	3.351044655	-4.328250885	2.493095398	0.108414433	1.854587948	0.780698391	0.00390625	-0.20703125	-1.004638672	896.04	22.01606778	-36.97628733	-17.35485121	-75
7239	0	0.225891113	-0.014831543	0.040527344	0.999414444	0.01290226	0.027381897	0.01594162	5.647277832	-0.370788574	1.013183594	0.645238895	1.369362048	0.797236556	0.063232422	-0.228515625	-0.994628906	896	21.41936204	-34.70234647	-13.87998335	-77
7240	0	0.386169434	0.033203125	-0.004516602	0.999455452	0.012509346	0.025047302	0.017410278	9.65423584	0.830078125	-0.112915039	0.625580666	1.252592104	0.870671697	0.115722656	-0.260986328	-0.977539063	895.94	20.91459146	-32.72818426	-10.4275944	-78
7241	0	0.756241798	0.105797768	0.373246193	0.996355057	0.044650078	0.010755539	0.071858406	18.90604496	2.644944191	9.331154823	2.235218931	0.53843096	3.597289802	0.146972656	-0.281738281	-0.966308594	895.94	20.60542329	-34.500374	-0.773694895	-73
7242	0	0.721020699	0.680268288	0.381639481	0.991835594	0.124984741	0.011249542	0.022667885	18.02551746	17.00670719	9.540987015	6.266299283	0.564012837	1.136488735	0.125488281	-0.466796875	-0.895507813	895.82	32.97610364	-34.5201781	2.575709571	-78
7243	0	0.451171875	0.538635254	-0.005493164	0.999576569	0.002732277	0.001667023	0.028892517	11.27929688	13.46588135	-0.137329102	0.136633093	0.083362879	1.444829389	0.114013672	-0.625732422	-0.801757813	895.92	31.25251264	-36.12342202	6.174152941	-86
7244	0	0.179504395	0.347595215	0.099121094	0.999725342	-0.008224487	-0.006392479	0.020957947	4.487609863	8.689880371	2.478027344	-0.411261915	-0.319653133	1.047993025	0.076416016	-0.617919922	-0.817626953	895.86	29.05856617	-37.96832532	8.328069933	-81
7245	0	0.197559357	0.246103287	0.256401062	0.999207497	-0.037908554	0.006642342	0.009932518	4.938983917	6.152582169	6.41002655	-1.895927136	0.332204591	0.496756758	0.047607422	-0.593017578	-0.829345703	896	23.70097	-37.79482922	10.10113003	-85
7246	0	0.260611534	0.152472496	0.35131073	0.999664307	-0.021504402	0.012457848	-0.00731945	6.515288353	3.811812401	8.78276825	-1.075340428	0.622962083	-0.366013472	0.059570313	-0.527832031	-0.869628906	895.92	21.44851265	-36.15587044	9.830158428	-81
7247	0	0.293273926	0.108947754	0.288391113	0.999757767	-0.00272274	0.009967804	-0.01940918	7.331848145	2.723693848	7.209777832	-0.136147981	0.498430367	-0.970537202	0.091552734	-0.502685547	-0.885009766	895.98	22.3317433	-34.26934561	7.813302291	-77
7248	0	0.209160805	0.121255875	0.241782188	0.99975872	0.007117271	0.001691818	-0.020667076	5.229020119	3.031396866	6.04455471	0.355892085	0.08459769	-1.033436603	0.126464844	-0.497314453	-0.878662109	896.06	24.5853455	-33.15167288	5.266488562	-75
7249	0	0.206848145	0.174621582	0.244873047	0.999667168	0.015125275	-0.005934715	-0.020038605	5.171203613	4.365539551	6.121826172	0.756347645	-0.296768688	-1.002041408	0.147949219	-0.511230469	-0.870117188	895.86	27.89152978	-32.7485122	2.414037053	-75
7250	0	0.242041588	0.134025574	0.350978851	0.999650002	-0.005596161	-0.010299683	-0.023683548	6.051039696	3.350639343	8.774471283	-0.27984062	-0.515044086	-1.184315263	0.155517578	-0.526611328	-0.860839844	895.98	29.17565041	-32.48822975	-1.076772918	-79
7251	0	0.220825195	0.035400391	0.352416992	0.999638557	-0.001270294	-0.012290001	-0.023868561	5.520629883	0.885009766	8.810424805	-0.063522359	-0.614574052	-1.193571768	0.159423828	-0.502685547	-0.874267578	895.88	31.01126144	-32.33392078	-4.726042732	-81
7252	0	0.195144653	0.063420296	0.284526825	0.999524117	0.023032188	-0.012586594	-0.016178131	4.878616333	1.585507393	7.113170624	1.151791959	-0.629429435	-0.809034773	0.164306641	-0.507324219	-0.868652344	895.94	35.16385834	-32.52953713	-7.547797168	-79
7253	0	0.219299316	0.177185059	0.274780273	0.999627113	0.024578094	-0.010931969	-0.004570007	5.48248291	4.429626465	6.869506836	1.229057257	-0.546666279	-0.228528728	0.15625	-0.548583984	-0.84765625	895.88	38.76176592	-33.21416961	-8.98790234	-78
7254	0	0.240323067	0.241236687	0.271829605	0.999975204	-0.001618385	-0.006134987	0.002976418	6.008076668	6.030917168	6.795740128	-0.080919928	-0.306751855	0.148822095	0.143066406	-0.580810547	-0.827148438	895.94	38.71554293	-33.97320927	-9.186103488	-78
7255	0	0.229736328	0.222595215	0.273010254	0.999651909	-0.025272369	-0.000441551	0.00749588	5.743408203	5.564880371	6.825256348	-1.2637649	-0.022080119	0.374837438	0.133300781	-0.565185547	-0.839355469	895.98	35.39648223	-34.52775504	-8.345781889	-79
7256	0	0.227815628	0.172746658	0.278622627	0.999595642	-0.026014328	0.004441261	0.010574341	5.695390701	4.318666458	6.965565681	-1.300891689	0.222092991	0.528788293	0.122558594	-0.519042969	-0.87109375	895.86	31.5442419	-34.76886181	-6.74034117	-79
7257	0	0.22845459	0.149963379	0.276916504	0.999868393	-0.009081841	0.006942749	0.011486053	5.711364746	3.749084473	6.922912598	-0.454111903	0.347152647	0.574327813	0.118896484	-0.481689453	-0.891113281	895.92	29.45667859	-34.75018865	-4.87301157	-79
7258	0	0.230021477	0.175730705	0.27301693	0.99992466	0.002397537	0.006895065	0.009861946	5.750536919	4.393267632	6.825423241	0.11987987	0.344761916	0.493109679	0.123291016	-0.475341797	-0.891845703	895.98	28.80320536	-34.60963148	-3.229512709	-78
7259	0	0.231079102	0.18371582	0.269470215	0.999966621	0.001354218	0.005135536	0.006206512	5.776977539	4.592895508	6.736755371	0.06771163	0.256779665	0.310329074	0.125976563	-0.481933594	-0.891357422	895.94	28.35722116	-34.43303396	-2.152943647	-77
7260	0	0.227850914	0.170388222	0.272813797	0.999993324	-0.001559258	0.002407074	0.002067566	5.69627285	4.259705544	6.820344925	-0.077963038	0.120353949	0.103378511	0.130615234	-0.482177734	-0.891601563	895.86	27.96931958	-34.30199408	-1.761807444	-78
7261	0	0.22253418	0.156005859	0.276123047	0.999997139	0.000473022	-0.000662804	-0.002075195	5.563354492	3.900146484	6.903076172	0.023651143	-0.03314021	-0.103759852	0.130615234	-0.479980469	-0.891845703	896	28.21360663	-34.25752249	-2.082497572	-77
7262	0	0.219805717	0.157238007	0.273607254	0.999964714	0.005878448	-0.00368309	-0.004725456	5.495142937	3.930950165	6.840181351	0.293925876	-0.184156673	-0.236275586	0.130615234	-0.484375	-0.885742188	895.92	29.3727794	-34.36698727	-2.932169402	-77
7263	0	0.227783203	0.168212891	0.279602051	0.999940872	0.007702827	-0.005004883	-0.00573349	5.694580078	4.205322266	6.99005127	0.3851489	-0.250249031	-0.286680102	0.131103516	-0.495361328	-0.879150391	895.94	30.86580389	-34.5333432	-4.000094761	-76
7264	0	0.232103348	0.17292881	0.281813622	0.999959946	0.006162643	-0.004130363	-0.005001068	5.802583694	4.323220253	7.045340538	0.308136283	-0.206520929	-0.250056742	0.129150391	-0.508300781	-0.875244141	896	32.10206424	-34.6371034	-4.919400474	-77
7265	0	0.230224609	0.172119141	0.279602051	0.999988556	0.002781868	-0.001968384	-0.003089905	5.755615234	4.302978516	6.99005127	0.13909389	-0.098419537	-0.154495784	0.124755859	-0.516845703	-0.871337891	895.92	32.73278031	-34.63671441	-5.447632296	-78
7266	0	0.229911804	0.170760155	0.278609276	0.999998093	-0.001246452	0.000184059	-0.000684738	5.747795105	4.269003868	6.965231895	-0.062322638	0.00920296	-0.03423692	0.124755859	-0.516845703	-0.868408203	895.88	32.64858626	-34.5754459	-5.525057829	-79
7267	0	0.230041504	0.163330078	0.281860352	0.999990463	-0.003802299	0.001377106	0.001132965	5.751037598	4.083251953	7.046508789	-0.190115534	0.068855488	0.056648421	0.127197266	-0.514892578	-0.874511719	895.94	32.09874808	-34.51064845	-5.295485962	-78
7268	0	0.2265625	0.15838623	0.281982422	0.99998951	-0.003687859	0.001621246	0.002075195	5.6640625	3.959655762	7.049560547	-0.18439356	0.081062594	0.103760121	0.129150391	-0.506103516	-0.878173828	895.88	31.48813479	-34.47719674	-4.941641756	-79
7269	0	0.224731445	0.163085938	0.277770996	0.999995232	-0.001586914	0.001225471	0.002189636	5.618286133	4.077148438	6.944274902	-0.07934582	0.061273665	0.109481972	0.131347656	-0.501953125	-0.881591797	895.88	31.12628643	-34.4869215	-4.607430808	-78
7270	0	0.227203369	0.172394753	0.273078918	0.999997139	0.000108719	0.000518799	0.00193119	5.680084229	4.309868813	6.826972961	0.005435947	0.025939959	0.096559589	0.12890625	-0.499511719	-0.878662109	895.88	31.00460054	-34.54965865	-4.357404017	-77
7271	0	0.228637695	0.1796875	0.270751953	0.999999046	0.000213623	0.000199318	0.001281738	5.715942383	4.4921875	6.768798828	0.010681155	0.009965899	0.064086933	0.12890625	-0.501708984	-0.881347656	895.8	30.95193887	-34.60519155	-4.207825252	-77
7272	0	0.229719162	0.178299904	0.273085594	0.999999046	-0.000443459	-2.67E-05	0.000548363	5.74297905	4.457497597	6.827139854	-0.02217293	-0.001335144	0.027418139	0.12890625	-0.501708984	-0.875732422	895.88	30.88303976	-34.63959481	-4.156004477	-78
7273	0	0.228515625	0.170654297	0.276367188	0.999999046	-0.000377655	-0.000357628	-0.000404358	5.712890625	4.266357422	6.909179688	-0.018882753	-0.017881395	-0.020217897	0.126708984	-0.50390625	-0.875244141	895.94	30.89967241	-34.65041261	-4.236635462	-78
7274	0	0.228155136	0.164585114	0.278951645	0.999998093	0.000700951	-0.000506401	-0.001084328	5.703878403	4.114627838	6.973791122	0.035047542	-0.025320061	-0.054216402	0.126708984	-0.501708984	-0.878417969	895.92	31.09157282	-34.6355911	-4.417390393	-78
7275	0	0.227600098	0.162597656	0.280334473	0.999998093	0.001282692	-0.000656128	-0.001178741	5.690002441	4.064941406	7.008361816	0.064134635	-0.032806415	-0.058937107	0.12890625	-0.50390625	-0.875488281	895.94	31.36183769	-34.62918603	-4.617565886	-77
7276	0	0.228983879	0.164341927	0.279064178	0.999998093	0.001272202	-0.000388145	-0.000760078	5.724596977	4.108548164	6.976604462	0.063610102	-0.01940728	-0.038003936	0.129150391	-0.50390625	-0.878417969	895.88	31.59080938	-34.62096699	-4.755072048	-77
7277	0	0.228820801	0.168273926	0.276916504	0.999999046	0.000278473	-7.92E-05	0.000225067	5.72052002	4.206848145	6.922912598	0.013923645	-0.003957749	0.011253357	0.129150391	-0.506103516	-0.872558594	895.88	31.62619304	-34.64150201	-4.745177892	-76
7278	0	0.227903366	0.170399666	0.276418686	0.999999046	-0.001037598	0.000335693	0.000777245	5.697584152	4.259991646	6.910467148	-0.051879898	0.016784673	0.03886224	0.126708984	-0.506103516	-0.877929688	895.98	31.4559093	-34.65457499	-4.641047402	-77
7279	0	0.229309082	0.167602539	0.277038574	0.999998093	-0.001181602	0.00038147	0.000789642	5.732727051	4.190063477	6.925964355	-0.059080145	0.019073493	0.039482131	0.12890625	-0.50390625	-0.872558594	895.92	31.26587134	-34.66365924	-4.526405494	-77
7280	0	0.228393555	0.167053223	0.275085449	0.999999046	-0.000105858	0.000148773	0.000293732	5.709838867	4.176330566	6.87713623	-0.005292893	0.00743866	0.014686585	0.126708984	-0.501708984	-0.881347656	895.92	31.24189195	-34.66598648	-4.499266057	-78
7281	0	0.227355957	0.170288086	0.274047852	0.999999046	0.000396729	-9.06E-05	0.000102997	5.683898926	4.257202148	6.851196289	0.019836426	-0.004529953	0.005149841	0.126708984	-0.501708984	-0.881347656	895.98	31.29814553	-34.68041547	-4.513519527	-78
7282	0	0.228905678	0.170274734	0.274236679	0.999999046	0.000268936	-0.000326157	-0.00012207	5.722641945	4.256868362	6.855916977	0.013446808	-0.016307831	-0.006103516	0.126708984	-0.501708984	-0.881347656	895.92	31.36457705	-34.70451925	-4.572307016	-78
7283	0	0.229064941	0.169311523	0.276245117	0.999999046	0.000301361	-0.00032711	-0.000164032	5.726623535	4.232788086	6.90612793	0.015068055	-0.016355515	-0.008201599	0.126708984	-0.50390625	-0.875244141	895.86	31.4373556	-34.72612415	-4.627572583	-78
7284	0	0.228276253	0.168087959	0.277275085	0.999999046	-6.96E-05	-9.73E-05	-0.000152588	5.706906319	4.202198982	6.931877136	-0.003480911	-0.004863739	-0.007629395	0.126708984	-0.50390625	-0.875244141	895.94	31.45693504	-34.72584894	-4.664297357	-79
7285	0	0.228515625	0.165039063	0.277648926	0.999999046	1.53E-05	-4.86E-05	-0.000106812	5.712890625	4.125976563	6.941223145	0.000762939	-0.00243187	-0.005340576	0.126464844	-0.501708984	-0.875488281	895.86	31.48054818	-34.723554	-4.695792414	-79
7286	0	0.228934288	0.167842865	0.276887894	0.999999046	0.000190735	-4.20E-05	7.15E-05	5.723357201	4.196071625	6.922197342	0.009536743	-0.002098084	0.003576279	0.126708984	-0.50390625	-0.872558594	895.98	31.51151041	-34.73124688	-4.699590587	-78
7287	0	0.228637695	0.169433594	0.274841309	0.999999046	-0.000244141	4.29E-05	0.000274658	5.715942383	4.235839844	6.871032715	-0.012207032	0.002145767	0.01373291	0.126708984	-0.50390625	-0.878173828	895.94	31.47510249	-34.7428231	-4.677493527	-78
7288	0	0.228402138	0.16880703	0.274515152	0.999999046	0.00020504	-2.86E-05	0.000236511	5.710053444	4.220175743	6.862878799	0.010251999	-0.001430511	0.011825562	0.126708984	-0.50390625	-0.878173828	895.98	31.49546685	-34.75911926	-4.665877018	-78
7289	0	0.229492188	0.170166016	0.274902344	0.999999046	1.14E-05	-9.44E-05	8.39E-05	5.737304688	4.254150391	6.872558594	0.000572205	-0.004720688	0.004196167	0.126708984	-0.50390625	-0.875244141	895.92	31.50652541	-34.7727184	-4.674312115	-78
7290	0	0.228900909	0.167448044	0.275648117	0.999999046	-6.68E-05	-0.000114441	-0.000133514	5.722522736	4.186201096	6.891202927	-0.00333786	-0.005722046	-0.00667572	0.12890625	-0.50390625	-0.875488281	896	31.52385165	-34.77525695	-4.709530914	-78
7291	0	0.228027344	0.168457031	0.276367188	0.999999046	0.000347137	-0.000109673	-0.000175476	5.700683594	4.211425781	6.909179688	0.017356873	-0.005483627	-0.008773804	0.126953125	-0.506103516	-0.880859375	895.98	31.59092512	-34.77473204	-4.752137829	-78
7292	0	0.228820801	0.168212891	0.277038574	0.999999046	5.05E-05	-8.77E-05	4.20E-05	5.72052002	4.205322266	6.925964355	0.002527237	-0.004386902	0.002098084	0.126953125	-0.506103516	-0.880859375	895.88	31.60797336	-34.78505089	-4.767224657	-78
7293	0	0.229370117	0.167724609	0.274719238	0.999999046	-9.16E-05	-0.000102043	0.000133514	5.73425293	4.193115234	6.867980957	-0.004577637	-0.005102158	0.00667572	0.126708984	-0.50390625	-0.878173828	896	31.60281256	-34.8023114	-4.773128841	-78
7294	0	0.228311539	0.168344498	0.276960373	0.999999046	3.81E-05	-2.86E-05	0.000235558	5.707788467	4.208612442	6.924009323	0.001907349	-0.001430511	0.011777878	0.126708984	-0.50390625	-0.881103516	895.94	31.60215991	-34.81846125	-4.764297852	-78
7295	0	0.228149414	0.169921875	0.277038574	0.999999046	0.000183105	-2.19E-05	9.92E-05	5.703735352	4.248046875	6.925964355	0.009155274	-0.001096725	0.004959106	0.126708984	-0.501708984	-0.878417969	895.94	31.62681429	-34.82565606	-4.772831947	-79
7296	0	0.229782104	0.168572426	0.275623322	0.999999046	-0.000134468	-4.01E-05	-8.39E-05	5.744552612	4.214310646	6.890583038	-0.006723404	-0.002002716	-0.004196167	0.126708984	-0.50390625	-0.878173828	896.06	31.62796886	-34.82362003	-4.799422831	-79
7297	0	0.229370117	0.168212891	0.275268555	0.999999046	0.000278473	-0.000109673	-0.000171661	5.73425293	4.205322266	6.881713867	0.013923645	-0.005483627	-0.008583069	0.124267578	-0.501464844	-0.875488281	896.04	31.68501739	-34.8231016	-4.844222823	-79
7298	0	0.228090286	0.169420242	0.275062561	0.999999046	0.000102997	-8.58E-05	-0.000102997	5.702257156	4.235506058	6.876564026	0.005149841	-0.004291534	-0.005149841	0.126953125	-0.506103516	-0.880859375	895.88	31.71607233	-34.8243135	-4.876006133	-80
7299	0	0.228759766	0.166625977	0.276306152	0.999999046	5.34E-05	-0.000189781	0.000198364	5.718994141	4.165649414	6.907653809	0.002670288	-0.00948906	0.009918213	0.126708984	-0.50390625	-0.875244141	896.04	31.72494378	-34.85379254	-4.877853193	-79
7300	0	0.228443146	0.168334007	0.275712013	0.999999046	0.00011158	-0.000188828	0.000212669	5.711078644	4.208350182	6.892800331	0.005578995	-0.009441376	0.010633469	0.126708984	-0.50390625	-0.875244141	895.98	31.73916434	-34.88399499	-4.878145031	-80
7301	0	0.229125977	0.168457031	0.277160645	0.999999046	-0.00018692	-0.000102043	0.000118256	5.728149414	4.211425781	6.929016113	-0.009346008	-0.005102158	0.005912781	0.126464844	-0.501708984	-0.875488281	895.98	31.721588	-34.89997746	-4.886346676	-79
7302	0	0.229588509	0.167322159	0.275710106	0.999999046	8.39E-05	2.48E-05	-1.24E-05	5.739712715	4.18305397	6.892752647	0.004196167	0.001239777	-0.000619888	0.126708984	-0.50390625	-0.881103516	895.94	31.73825461	-34.89572682	-4.902390829	-79
7303	0	0.229064941	0.168823242	0.276123047	0.999999046	0.000282288	-6.39E-05	1.91E-05	5.726623535	4.220581055	6.903076172	0.01411438	-0.003194809	0.000953674	0.126464844	-0.501708984	-0.872558594	896	31.77896213	-34.90195343	-4.917383384	-79
7304	0	0.228820801	0.169494629	0.275085449	0.999999046	-0.000258446	-3.43E-05	0.000102997	5.72052002	4.237365723	6.87713623	-0.012922287	-0.001716614	0.005149841	0.126708984	-0.501708984	-0.878417969	895.94	31.75054458	-34.91031723	-4.924708992	-79
7305	0	0.227966309	0.167907715	0.276306152	0.999999046	2.67E-05	-1.43E-05	0.000202179	5.699157715	4.197692871	6.907653809	0.001335144	-0.000715256	0.010108948	0.126708984	-0.50390625	-0.881103516	895.94	31.74689199	-34.92261943	-4.917302509	-78
7306	0	0.229081154	0.170576096	0.275740623	0.999999046	3.24E-05	-0.000104904	0.000171661	5.727028847	4.26440239	6.893515587	0.001621246	-0.005245209	0.008583069	0.126708984	-0.501708984	-0.878417969	895.94	31.74962115	-34.94183196	-4.921179951	-79
7307	0	0.229003906	0.168884277	0.277526855	1	-6.68E-06	-7.63E-06	-7.63E-06	5.725097656	4.222106934	6.938171387	-0.000333786	-0.00038147	-0.00038147	0.124267578	-0.50390625	-0.878173828	895.94	31.75566839	-34.94064416	-4.934926363	-79
7308	0	0.228333473	0.169005394	0.275511742	0.999999046	0.000216484	3.81E-06	2.86E-06	5.70833683	4.22513485	6.887793541	0.010824204	0.000190735	0.000143051	0.126708984	-0.50390625	-0.875244141	895.94	31.78587364	-34.93889635	-4.944013969	-80
7309	0	0.229248047	0.16784668	0.275268555	0.999999046	3.81E-05	3.15E-05	0	5.731201172	4.196166992	6.881713867	0.001907349	0.001573563	0	0.126708984	-0.50390625	-0.875244141	895.92	31.79439616	-34.93427122	-4.951328849	-79
7310	0	0.227888107	0.168478012	0.276856422	0.999999046	-9.54E-06	-0.000160217	0.000152588	5.697202682	4.211950302	6.921410561	-0.000476837	-0.008010864	0.007629395	0.126708984	-0.501708984	-0.878417969	895.88	31.7948639	-34.95741407	-4.961289643	-79
7311	0	0.229187012	0.170043945	0.276733398	0.999999046	0.000175476	2.00E-05	0.000106812	5.729675293	4.251098633	6.918334961	0.008773804	0.001001358	0.005340576	0.126708984	-0.50390625	-0.875244141	895.88	31.81183398	-34.96014286	-4.956773247	-78
7312	0	0.229639053	0.168077469	0.27723217	0.999999046	-0.000288963	7.63E-06	1.43E-05	5.740976334	4.201936722	6.930804253	-0.014448166	0.00038147	0.000715256	0.126953125	-0.506103516	-0.880859375	895.94	31.78207868	-34.95843912	-4.964411374	-78
7313	0	0.227478027	0.167480469	0.275390625	0.999999046	0.000320435	1.24E-05	-0.000114441	5.686950684	4.187011719	6.884765625	0.016021729	0.000619888	-0.005722046	0.12890625	-0.50390625	-0.875488281	895.88	31.8304592	-34.94841929	-4.986277549	-79
7314	0	0.228469849	0.170883179	0.276445389	0.999999046	0.000183105	-0.000133514	0.000137329	5.711746216	4.272079468	6.91113472	0.009155274	-0.00667572	0.006866455	0.126708984	-0.50390625	-0.875244141	895.88	31.85198931	-34.96769613	-4.989516786	-79
7315	0	0.228942871	0.169189453	0.276977539	0.999999046	-0.000286102	9.54E-07	0.000293732	5.723571777	4.229736328	6.924438477	-0.014305115	4.77E-05	0.014686585	0.126708984	-0.506103516	-0.875244141	895.86	31.80315844	-34.98324397	-4.959096306	-79
7316	0	0.22845459	0.167114258	0.276916504	0.999999046	-0.000151634	-7.63E-05	0.000202179	5.711364746	4.177856445	6.922912598	-0.007581711	-0.003814697	0.010108948	0.126708984	-0.50390625	-0.881103516	895.94	31.77889824	-35.00070197	-4.954077457	-79
7317	0	0.229003906	0.169006348	0.277832031	0.999999046	0.000125885	-6.68E-06	0.000190735	5.725097656	4.225158691	6.945800781	0.006294251	-0.000333786	0.009536743	0.126708984	-0.50390625	-0.875244141	895.94	31.78401975	-35.01057173	-4.939664891	-78
7318	0	0.229437828	0.167827606	0.275649071	0.999999046	-2.86E-05	-3.05E-05	0.000106812	5.735945702	4.195690155	6.891226768	-0.001430511	-0.001525879	0.005340576	0.126708984	-0.50390625	-0.875244141	895.94	31.77794419	-35.01768354	-4.936659814	-78
7319	0	0.229553223	0.169250488	0.276794434	0.999999046	0.000141144	-1.05E-05	0.000102997	5.738830566	4.231262207	6.91986084	0.00705719	-0.000524521	0.005149841	0.126708984	-0.50390625	-0.878173828	895.94	31.79054542	-35.02254552	-4.935903189	-79
7320	0	0.228617668	0.169402122	0.274360657	0.999999046	-0.00014782	-1.14E-05	0.000118256	5.715441704	4.235053062	6.859016418	-0.007390976	-0.000572205	0.005912781	0.126708984	-0.50390625	-0.881103516	895.88	31.76894661	-35.02838066	-4.93546504	-78
7321	0	0.228515625	0.167358398	0.275695801	0.999999046	1.14E-05	1.24E-05	9.54E-05	5.712890625	4.183959961	6.89239502	0.000572205	0.000619888	0.004768372	0.124267578	-0.501708984	-0.878173828	895.92	31.76592472	-35.03046233	-4.936840754	-78
7322	0	0.229029655	0.169151306	0.277344704	0.999999046	0.000135422	-7.44E-05	1.14E-05	5.725741386	4.228782654	6.933617592	0.006771088	-0.00371933	0.000572205	0.126708984	-0.50390625	-0.878173828	895.82	31.78631891	-35.03583219	-4.950658721	-79
7323	0	0.229370117	0.167724609	0.275634766	0.999999046	8.01E-05	-7.92E-05	8.77E-05	5.73425293	4.193115234	6.890869141	0.004005432	-0.003957748	0.004386902	0.129150391	-0.50390625	-0.878417969	895.94	31.79516407	-35.04625343	-4.955749208	-78
7324	0	0.229138374	0.168338776	0.276852608	0.999999046	6.01E-05	-5.91E-05	2.57E-05	5.728459358	4.208469391	6.921315193	0.003004074	-0.00295639	0.00128746	0.126708984	-0.50390625	-0.878173828	895.94	31.80488769	-35.05090745	-4.96664579	-78
7325	0	0.228637695	0.168334961	0.276855469	0.999999046	-1.14E-05	-2.96E-05	0.000125885	5.715942383	4.208374023	6.921386719	-0.000572205	-0.001478195	0.006294251	0.126708984	-0.506103516	-0.877929688	895.94	31.79810967	-35.0586377	-4.959095284	-78
7326	0	0.228268623	0.16778183	0.27733326	0.999999046	7.44E-05	-9.35E-05	0.000170708	5.706715584	4.194545746	6.93333149	0.00371933	-0.004673004	0.008535385	0.126708984	-0.50390625	-0.878173828	896.04	31.8005614	-35.07518549	-4.955015219	-78
7327	0	0.229003906	0.169433594	0.275939941	0.999999046	0.00012207	1.62E-05	0.000148773	5.725097656	4.235839844	6.898498535	0.006103516	0.000810623	0.00743866	0.126708984	-0.50390625	-0.878173828	896	31.80521668	-35.07965489	-4.945720996	-78
7328	0	0.229980469	0.16784668	0.276855469	0.999999046	-3.72E-05	2.67E-05	4.58E-05	5.749511719	4.196166992	6.921386719	-0.001859665	0.001335144	0.002288818	0.126708984	-0.506103516	-0.875244141	895.92	31.79799637	-35.07685213	-4.940812788	-78
7329	0	0.227905273	0.16796875	0.275512695	0.999999046	0.000259399	3.91E-05	-3.43E-05	5.697631836	4.19921875	6.887817383	0.012969971	0.001955032	-0.001716614	0.126708984	-0.50390625	-0.872558594	895.88	31.82956024	-35.06792435	-4.946569334	-78
7330	0	0.228421211	0.17014122	0.27556324	0.999999046	-2.10E-05	7.25E-05	0.000105858	5.710530281	4.253530502	6.889081001	-0.001049042	0.003623962	0.005292892	0.129150391	-0.506103516	-0.881103516	895.88	31.81794211	-35.06412627	-4.937391615	-79
7331	0	0.229431152	0.168823242	0.277099609	0.999999046	-0.000102997	-5.63E-05	0.000183105	5.735778809	4.220581055	6.927490234	-0.005149841	-0.002813339	0.009155274	0.129150391	-0.50390625	-0.884033203	895.92	31.79693083	-35.07746104	-4.934426556	-79
7332	0	0.229096413	0.167583466	0.276435852	0.999999046	0.000102043	-4.77E-05	1.05E-05	5.727410316	4.189586639	6.910896301	0.005102158	-0.002384186	0.000524521	0.126464844	-0.501708984	-0.875488281	895.94	31.81065681	-35.07949281	-4.946946265	-77
7333	0	0.22845459	0.169128418	0.276550293	0.999999046	7.25E-05	-3.34E-05	-5.72E-05	5.711364746	4.228210449	6.913757324	0.003623962	-0.00166893	-0.002861023	0.126708984	-0.50390625	-0.872558594	895.94	31.82489696	-35.07594526	-4.959776386	-78
7334	0	0.229491234	0.167851448	0.278645515	0.999999046	0.000162125	6.87E-05	-8.58E-06	5.737280846	4.196286201	6.966137886	0.008106232	0.003433228	-0.000429153	0.126708984	-0.50390625	-0.875244141	895.92	31.84148574	-35.06531155	-4.962327628	-78
7335	0	0.227661133	0.167602539	0.276550293	0.999999046	1.53E-05	-2.57E-05	4.96E-05	5.69152832	4.190063477	6.913757324	0.000762939	-0.00128746	0.002479553	0.12890625	-0.501708984	-0.881347656	895.88	31.84107824	-35.06728926	-4.974143429	-78
7336	0	0.228485107	0.168685913	0.276715279	0.999999046	-0.000109673	1.91E-05	8.77E-05	5.712127686	4.217147827	6.917881966	-0.005483627	0.000953674	0.004386902	0.12890625	-0.501708984	-0.878417969	895.9	31.82170281	-35.06713035	-4.974347432	-78
7337	0	0.228149414	0.167724609	0.276977539	0.999999046	0.000217438	1.62E-05	8.01E-05	5.703735352	4.193115234	6.924438477	0.010871887	0.000810623	0.004005432	0.126708984	-0.501708984	-0.881347656	895.92	31.84026386	-35.06670477	-4.979161112	-78
7338	0	0.228838921	0.169333458	0.277032852	1	1.81E-05	-2.77E-05	-1.14E-05	5.720973015	4.233336449	6.925821304	0.000905991	-0.001382828	-0.000572205	0.129150391	-0.50390625	-0.878417969	895.82	31.84398872	-35.06493888	-4.990870184	-78
7339	0	0.229003906	0.167785645	0.277038574	0.999999046	-4.96E-05	-4.86E-05	4.58E-05	5.725097656	4.194641113	6.925964355	-0.002479553	-0.00243187	0.002288818	0.129150391	-0.50390625	-0.878417969	895.94	31.83674526	-35.06863025	-4.996767798	-78
7340	0	0.22857666	0.168823242	0.277648926	0.999999046	0.000153542	-3.05E-05	-2.29E-05	5.714416504	4.220581055	6.941223145	0.007677078	-0.001525879	-0.001144409	0.126708984	-0.50390625	-0.878173828	895.94	31.85655232	-35.06631019	-5.009746129	-78
7341	0	0.228210449	0.167907715	0.27734375	0.999999046	4.96E-05	-0.000109673	7.25E-05	5.70526123	4.197692871	6.93359375	0.002479553	-0.005483627	0.003623962	0.126708984	-0.501708984	-0.878417969	895.86	31.86110508	-35.07737548	-5.0209809	-79
7342	0	0.228173256	0.168328285	0.276177406	0.999999046	0.000114441	-9.54E-06	1.81E-05	5.704331398	4.20820713	6.904435158	0.005722046	-0.000476837	0.000905991	0.126708984	-0.50390625	-0.875244141	895.94	31.8724304	-35.075348	-5.024541088	-79
7343	0	0.228637695	0.168029785	0.276550293	0.999999046	-3.81E-05	-1.81E-05	9.16E-05	5.715942383	4.200744629	6.913757324	-0.001907349	-0.000905991	0.004577637	0.126708984	-0.50390625	-0.875244141	896	31.86146572	-35.07855301	-5.019616746	-79
7344	0	0.228433609	0.1683321	0.276737213	0.999998093	0.000133514	-0.000153542	0.00014782	5.710840225	4.208302498	6.918430328	0.00667572	-0.007677078	0.007390976	0.12890625	-0.501708984	-0.878417969	895.94	31.87194612	-35.09827438	-5.024827657	-79
7345	0	0.228759766	0.169067383	0.276794434	0.999999046	0.000102997	-2.19E-05	0.000106812	5.718994141	4.22668457	6.91986084	0.005149841	-0.001096725	0.005340576	0.126708984	-0.50390625	-0.875244141	896	31.87603956	-35.10264175	-5.018648618	-79
7346	0	0.22905159	0.167793274	0.276687622	0.999999046	0	2.86E-05	-5.44E-05	5.726289749	4.194831848	6.917190552	0	0.001430511	-0.002717972	0.126708984	-0.50390625	-0.872558594	895.94	31.8770439	-35.09230623	-5.025021685	-79
7347	0	0.228088379	0.167663574	0.276245117	0.999999046	6.87E-05	-1.05E-05	-1.14E-05	5.702209473	4.191589355	6.90612793	0.003433228	-0.000524521	-0.000572205	0.129150391	-0.50390625	-0.878417969	895.88	31.88449997	-35.0883164	-5.034685343	-79
7348	0	0.228334427	0.169902802	0.273713112	0.999999046	8.87E-05	-4.96E-05	6.87E-05	5.708360672	4.247570038	6.842827797	0.004434586	-0.002479553	0.003433228	0.129150391	-0.50390625	-0.878417969	895.94	31.89050026	-35.09297055	-5.037835692	-79
7349	0	0.228759766	0.16796875	0.277404785	0.999999046	-8.01E-05	-4.86E-05	8.39E-05	5.718994141	4.19921875	6.935119629	-0.004005432	-0.00243187	0.004196167	0.126708984	-0.50390625	-0.878173828	895.94	31.87590082	-35.0983957	-5.038419591	-79
7350	0	0.227716446	0.168190956	0.275821686	0.999999046	0.000185013	-5.15E-05	-7.34E-05	5.692911148	4.204773903	6.895542145	0.009250641	-0.002574921	-0.003671646	0.12890625	-0.50390625	-0.875488281	895.88	31.90246973	-35.09451127	-5.055507322	-79
7351	0	0.227050781	0.16973877	0.27557373	0.999999046	0.000274658	-5.63E-05	4.96E-05	5.676269531	4.243469238	6.889343262	0.01373291	-0.002813339	0.002479553	0.12890625	-0.50390625	-0.875488281	896	31.93109306	-35.09843014	-5.059188899	-79
7352	0	0.229845047	0.168463707	0.276797295	0.999999046	6.96E-05	-9.54E-05	0.000156403	5.746126175	4.211592674	6.919932365	0.003480911	-0.004768372	0.007820129	0.126708984	-0.506103516	-0.875244141	895.98	31.93045104	-35.11262303	-5.049361082	-80
7353	0	0.228942871	0.168579102	0.27532959	0.999999046	-0.000125885	-7.92E-05	1.14E-05	5.723571777	4.214477539	6.883239746	-0.006294251	-0.003957748	0.000572205	0.126708984	-0.506103516	-0.877929688	895.9	31.91655675	-35.11644629	-5.057474746	-79
7354	0	0.228624344	0.168259621	0.27606678	0.999999046	-2.86E-05	-9.54E-05	-5.44E-05	5.715608597	4.206490517	6.901669502	-0.001430511	-0.004768372	-0.002717972	0.131347656	-0.50390625	-0.875488281	895.94	31.9188972	-35.1178253	-5.075097206	-79
7355	0	0.227416992	0.169372559	0.276000977	0.999999046	0.000179291	0.000134468	1.53E-05	5.685424805	4.234313965	6.900024414	0.008964539	0.006723404	0.000762939	0.12890625	-0.50390625	-0.875488281	895.88	31.93046498	-35.1009667	-5.068192279	-79
7356	0	0.22777462	0.169219971	0.276489258	0.999999046	9.44E-05	-3.81E-05	8.77E-05	5.694365501	4.230499268	6.912231445	0.004720688	-0.001907349	0.004386902	0.126708984	-0.50390625	-0.881103516	895.94	31.93463482	-35.10519742	-5.071194586	-79
7357	0	0.228881836	0.169311523	0.276672363	0.999999046	0.000160217	-0.000182152	-1.91E-05	5.722045898	4.232788086	6.916809082	0.008010864	-0.00910759	-0.000953674	0.129150391	-0.506103516	-0.872558594	895.88	31.9597139	-35.1169141	-5.085596357	-79
7358	0	0.229037285	0.168798447	0.276534081	0.999999046	0.00012207	-0.000202179	9.54E-05	5.725932121	4.219961166	6.913352013	0.006103516	-0.010108948	0.004768372	0.126708984	-0.506103516	-0.877929688	895.92	31.97335824	-35.13747929	-5.093599524	-80
7359	0	0.227172852	0.169372559	0.276916504	0.999999046	4.58E-05	-9.82E-05	3.05E-05	5.679321289	4.234313965	6.922912598	0.002288818	-0.004911423	0.001525879	0.129150391	-0.506103516	-0.875244141	895.94	31.97817685	-35.14387192	-5.098685812	-79
7360	0	0.227603912	0.16962719	0.276184082	0.999999046	3.53E-05	-9.54E-05	7.92E-05	5.690097809	4.240679741	6.904602051	0.001764297	-0.004768372	0.003957748	0.126708984	-0.50390625	-0.878173828	895.88	31.97829903	-35.15283437	-5.104454511	-79
7361	0	0.228027344	0.169250488	0.275695801	0.999999046	9.16E-05	8.11E-05	4.58E-05	5.700683594	4.231262207	6.89239502	0.004577637	0.004053116	0.002288818	0.126708984	-0.506103516	-0.872314453	895.88	31.97956731	-35.14256344	-5.091876327	-79
7362	0	0.228791237	0.168974876	0.276616096	0.999999046	-2.86E-05	-0.000133514	1.14E-05	5.719780922	4.22437191	6.915402412	-0.001430511	-0.00667572	0.000572205	0.12890625	-0.50390625	-0.875488281	895.92	31.97849036	-35.15101544	-5.105527093	-79
7363	0	0.228210449	0.16998291	0.27557373	0.999999046	0.000236511	-0.000113487	8.77E-05	5.70526123	4.249572754	6.889343262	0.011825562	-0.005674362	0.004386902	0.129150391	-0.506103516	-0.872558594	895.88	32.00171812	-35.1620931	-5.102793792	-79
7364	0	0.22833252	0.170837402	0.277160645	0.999999046	-6.68E-06	-3.81E-05	9.16E-05	5.708312988	4.270935059	6.929016113	-0.000333786	-0.001907349	0.004577637	0.126708984	-0.506103516	-0.875244141	895.92	31.99357543	-35.16596491	-5.096726636	-78
7365	0	0.22869873	0.169006348	0.278015137	0.999999046	-0.000152588	-2.86E-06	7.63E-05	5.717468262	4.225158691	6.950378418	-0.007629395	-0.000143051	0.003814697	0.126708984	-0.506103516	-0.875244141	895.86	31.96810607	-35.16539097	-5.089050172	-79
7366	0	0.227383614	0.168214798	0.276659966	0.999999046	0.000347137	5.91E-05	-7.25E-05	5.68459034	4.205369949	6.916499138	0.017356873	0.00295639	-0.003623962	0.129150391	-0.50390625	-0.878417969	895.96	32.00731447	-35.14966442	-5.102080271	-79
7367	0	0.228088379	0.171020508	0.274841309	0.999999046	1.53E-05	-0.000163078	6.10E-05	5.702209473	4.275512695	6.871032715	0.000762939	-0.008153915	0.003051758	0.129150391	-0.50390625	-0.878417969	895.88	32.00893288	-35.16358379	-5.115464353	-78
7368	0	0.229175568	0.169169426	0.277018547	0.999999046	-0.000121117	-8.77E-05	0.000240326	5.729389191	4.229235649	6.925463676	-0.006055832	-0.004386902	0.012016297	0.129150391	-0.506103516	-0.878173828	895.94	31.97932317	-35.18103239	-5.09722876	-79
7369	0	0.227478027	0.16986084	0.277038574	0.999999046	4.58E-05	-7.53E-05	0.000118256	5.686950684	4.246520996	6.925964355	0.002288818	-0.003767014	0.005912781	0.129150391	-0.50390625	-0.878417969	896	31.97661616	-35.18973617	-5.096425269	-79
7370	0	0.227315903	0.170869827	0.275523186	0.999999046	0.00012207	-5.72E-06	7.53E-05	5.682897568	4.271745682	6.888079643	0.006103516	-0.000286102	0.003767014	0.129150391	-0.506103516	-0.878173828	895.92	31.9826723	-35.18896257	-5.091892097	-78
7371	0	0.228759766	0.168579102	0.275878906	0.999999046	7.63E-05	-0.000174522	0.000198364	5.718994141	4.214477539	6.896972656	0.003814697	-0.00872612	0.009918213	0.129150391	-0.506103516	-0.875244141	895.94	31.98219591	-35.21204566	-5.082483891	-78
7372	0	0.230327606	0.169872284	0.276321411	0.999999046	0.000319481	-0.000181198	-0.000100136	5.758190155	4.246807098	6.908035278	0.015974045	-0.009059906	-0.00500679	0.126708984	-0.506103516	-0.875244141	895.94	32.03032568	-35.2176552	-5.11029353	-78
7373	0	0.229187012	0.170837402	0.276794434	0.999999046	-0.000293732	-8.68E-05	-1.14E-05	5.729675293	4.270935059	6.91986084	-0.014686585	-0.004339218	-0.000572205	0.124267578	-0.505859375	-0.872314453	895.94	31.99805206	-35.2194082	-5.117005245	-79
7374	0	0.226606369	0.167689323	0.276242256	0.999999046	0.000328064	-0.000196457	1.05E-05	5.665159225	4.192233086	6.906056404	0.016403199	-0.009822846	0.000524521	0.126708984	-0.506103516	-0.875244141	895.96	32.04009679	-35.23303741	-5.132471698	-78
7375	0	0.227600098	0.171264648	0.276550293	0.999999046	-7.63E-05	-5.25E-05	0.000244141	5.690002441	4.281616211	6.913757324	-0.003814697	-0.002622604	0.012207031	0.126708984	-0.506103516	-0.872314453	895.88	32.01361949	-35.2467386	-5.106222207	-78
7376	0	0.229248047	0.168457031	0.276489258	0.999999046	1.24E-05	-0.00019455	0.000144958	5.731201172	4.211425781	6.912231445	0.000619888	-0.009727478	0.007247925	0.126708984	-0.506103516	-0.872314453	895.96	32.0100995	-35.26819377	-5.102194953	-78
7377	0	0.228881836	0.170837402	0.275756836	0.999999046	0.000213623	-4.86E-05	5.72E-05	5.722045898	4.270935059	6.893920898	0.010681152	-0.00243187	0.002861023	0.126708984	-0.506103516	-0.875244141	895.94	32.02944313	-35.2700746	-5.101340843	-78
7378	0	0.229416847	0.169952393	0.276027679	0.999999046	6.29E-05	-0.00021553	-4.58E-05	5.735421181	4.248809814	6.900691986	0.003147125	-0.01077652	-0.002288818	0.126708984	-0.506103516	-0.875244141	895.9	32.04575508	-35.28187207	-5.125119795	-78
7379	0	0.22833252	0.16973877	0.276977539	0.999999046	9.16E-05	-0.000117302	0	5.708312988	4.243469238	6.924438477	0.004577637	-0.005865097	0	0.129150391	-0.506103516	-0.875244141	895.86	32.05791117	-35.2868057	-5.135983739	-78
7380	0	0.228275299	0.16954422	0.276464462	0.999999046	9.06E-05	-7.44E-05	-8.58E-06	5.706882477	4.238605499	6.911611557	0.004529953	-0.00371933	-0.000429153	0.129150391	-0.50390625	-0.878417969	895.9	32.06863922	-35.28695621	-5.151509679	-78
7381	0	0.229064941	0.170227051	0.276794434	0.999999046	-0.000144958	2.77E-05	0.000160217	5.726623535	4.25567627	6.91986084	-0.007247925	0.001382828	0.008010864	0.126708984	-0.506103516	-0.877929688	896	32.03633928	-35.28739332	-5.134577296	-78
7382	0	0.229225159	0.16775322	0.277220726	0.999999046	0.000204086	-5.72E-06	0	5.730628967	4.19383049	6.93051815	0.010204315	-0.000286102	0	0.126708984	-0.506103516	-0.875244141	895.96	32.05631396	-35.28129457	-5.137071341	-78
7383	0	0.228515625	0.171936035	0.27545166	0.999999046	0.000232697	-6.01E-05	-5.34E-05	5.712890625	4.298400879	6.886291504	0.011634827	-0.003004074	-0.002670288	0.126708984	-0.506103516	-0.875244141	895.9	32.08567849	-35.27714003	-5.150711144	-78
7384	0	0.229019165	0.171173096	0.276442528	0.999999046	-0.000132561	-4.96E-05	0.000137329	5.725479126	4.279327393	6.911063194	-0.006628037	-0.002479553	0.006866455	0.129150391	-0.506103516	-0.875244141	895.86	32.0596498	-35.28350131	-5.139949643	-78
7385	0	0.227722168	0.168823242	0.276977539	0.999999046	3.43E-05	-5.63E-05	0.000102997	5.693054199	4.220581055	6.924438477	0.001716614	-0.002813339	0.005149841	0.126708984	-0.50390625	-0.875244141	895.9	32.05527712	-35.28831744	-5.137604378	-78
7386	0	0.228887558	0.170137405	0.277244568	0.999999046	0.000164032	-9.73E-05	0.000224113	5.72218895	4.253435135	6.931114197	0.008201599	-0.004863739	0.011205673	0.124511719	-0.506103516	-0.877929688	895.96	32.05915391	-35.30440214	-5.123404385	-78
7387	0	0.229797363	0.170776367	0.276550293	0.999999046	-9.54E-05	-6.39E-05	6.48E-05	5.744934082	4.26940918	6.913757324	-0.004768372	-0.003194809	0.003242493	0.12890625	-0.50390625	-0.875488281	895.88	32.04282469	-35.30751958	-5.125911834	-78
7388	0	0.229431152	0.168273926	0.27557373	0.999999046	0.000142097	-0.000171661	-6.48E-05	5.735778809	4.206848145	6.889343262	0.007104874	-0.008583069	-0.003242493	0.126708984	-0.506103516	-0.877929688	896.04	32.0671868	-35.31322745	-5.15092388	-78
7389	0	0.228027344	0.171325684	0.27557373	0.999999046	0.000118256	5.05E-05	3.05E-05	5.700683594	4.28314209	6.889343262	0.005912781	0.002527237	0.001525879	0.126708984	-0.506103516	-0.877929688	896.04	32.07275145	-35.30305801	-5.148311099	-78
7390	0	0.228681564	0.170704842	0.276532173	0.999999046	2.86E-05	6.10E-05	0.00014782	5.717039108	4.26762104	6.913304329	0.001430511	0.003051758	0.007390976	0.126708984	-0.506103516	-0.875244141	896	32.05952655	-35.29892774	-5.128290383	-78
7391	0	0.229492188	0.171203613	0.276306152	0.999999046	-0.000282288	0.000123024	8.39E-05	5.737304688	4.280090332	6.907653809	-0.01411438	0.006151199	0.004196167	0.126708984	-0.506103516	-0.875244141	895.96	32.01244458	-35.28484026	-5.110066268	-78
7392	0	0.229085922	0.166919708	0.275723457	0.999999046	-0.000313759	-2.86E-05	0.000128746	5.727148056	4.172992706	6.893086433	-0.015687943	-0.001430512	0.006437302	0.124511719	-0.505859375	-0.875	895.9	31.96504725	-35.28823005	-5.096741199	-78
7393	0	0.22869873	0.168640137	0.276855469	0.999999046	0.00031662	-0.000113487	1.14E-05	5.717468262	4.216003418	6.921386719	0.015830994	-0.005674362	0.000572205	0.126708984	-0.50390625	-0.872558594	895.86	32.00152316	-35.2927024	-5.105420022	-78
7394	0	0.228399277	0.17234993	0.277303696	0.999999046	0.000160217	-0.0001297	0.000110626	5.709981918	4.308748245	6.932592392	0.008010864	-0.006484985	0.005531311	0.126708984	-0.50390625	-0.875244141	895.96	32.01404381	-35.30463984	-5.106596045	-78
7395	0	0.229248047	0.170959473	0.276672363	0.999999046	4.20E-05	4.77E-06	0.000141144	5.731201172	4.273986816	6.916809082	0.002098084	0.000238419	0.00705719	0.124267578	-0.503662109	-0.872314453	895.86	32.00516132	-35.30530903	-5.091918345	-78
7396	0	0.229171753	0.170185089	0.27604866	0.999999046	-0.000212669	8.77E-05	-4.77E-06	5.729293823	4.254627228	6.901216507	-0.010633469	0.004386902	-0.000238419	0.126708984	-0.506103516	-0.878173828	895.86	31.97359077	-35.28902263	-5.088766845	-79
7397	0	0.22857666	0.167907715	0.27746582	0.999999046	0.000339508	4.67E-05	-2.29E-05	5.714416504	4.197692871	6.936645508	0.016975403	0.002336502	-0.001144409	0.129150391	-0.506347656	-0.878417969	895.94	32.00816184	-35.27557329	-5.091463665	-78
7398	0	0.228604317	0.17140007	0.275294304	0.999999046	0.000154495	-0.00012207	5.34E-05	5.715107918	4.285001755	6.882357597	0.007724762	-0.006103516	0.002670288	0.126708984	-0.50390625	-0.875488281	895.94	32.02364513	-35.2831166	-5.099588185	-78
7399	0	0.229064941	0.170654297	0.276916504	0.999999046	-0.000221252	2.77E-05	0.000205994	5.726623535	4.266357422	6.922912598	-0.011062622	0.001382828	0.010299683	0.126708984	-0.506103516	-0.878173828	895.9	31.97914725	-35.28532551	-5.076223176	-78
7400	0	0.228149414	0.169677734	0.276428223	0.999999046	-8.68E-05	3.05E-05	0.000167847	5.703735352	4.241943359	6.910705566	-0.004339218	0.001525879	0.008392334	0.126708984	-0.50390625	-0.878417969	895.86	31.95254421	-35.28486669	-5.060665934	-78
7401	0	0.227966309	0.170043945	0.276794434	0.999999046	0.000278473	4.67E-05	-7.63E-05	5.699157715	4.251098633	6.91986084	0.013923645	0.002336502	-0.003814697	0.126953125	-0.506103516	-0.881103516	895.96	31.983896	-35.26793744	-5.072639035	-78
7402	0	0.228830338	0.170353889	0.274888992	0.999999046	0.000185013	0.000125885	2.57E-05	5.720758438	4.258847237	6.872224808	0.009250641	0.006294251	0.00128746	0.129150391	-0.506347656	-0.878417969	895.96	31.99419269	-35.24951176	-5.063845995	-79
7403	0	0.22869873	0.16998291	0.276611328	0.999999046	-4.96E-05	-2.19E-05	9.54E-05	5.717468262	4.249572754	6.915283203	-0.002479553	-0.001096725	0.004768372	0.129150391	-0.504150391	-0.881347656	895.9	31.97915606	-35.24964323	-5.063967764	-79
7404	0	0.228255272	0.169911385	0.276678085	0.999999046	-0.000180244	-6.10E-05	7.53E-05	5.706381798	4.247784615	6.916952133	-0.009012222	-0.003051758	0.003767014	0.129150391	-0.504150391	-0.878417969	895.94	31.95218787	-35.25231118	-5.065400939	-79
7405	0	0.22845459	0.170532227	0.277526855	0.999999046	0.000228882	3.91E-05	8.01E-05	5.711364746	4.263305664	6.938171387	0.011444092	0.001955032	0.004005432	0.12890625	-0.504150391	-0.875732422	895.94	31.96748388	-35.24546064	-5.056892517	-78
7406	0	0.229009628	0.171842575	0.276549339	0.999999046	-4.58E-05	6.87E-05	6.68E-06	5.725240707	4.296064377	6.913733482	-0.002288818	0.003433228	0.000333786	0.126708984	-0.506103516	-0.875244141	895.9	31.95518224	-35.23124121	-5.05099968	-78
7407	0	0.22845459	0.169677734	0.276245117	0.999999046	-8.39E-05	-6.68E-06	0.000114441	5.711364746	4.241943359	6.90612793	-0.004196167	-0.000333786	0.005722046	0.126708984	-0.50390625	-0.872558594	895.94	31.93433464	-35.23086398	-5.03855478	-78
7408	0	0.22855854	0.170433044	0.275842667	0.999999046	0.000273705	-8.58E-05	1.43E-05	5.713963509	4.260826111	6.896066666	0.013685227	-0.004291534	0.000715256	0.12890625	-0.504150391	-0.875732422	895.88	31.96479129	-35.23209633	-5.047333804	-78
7409	0	0.229003906	0.171569824	0.275939941	0.999999046	8.77E-05	-2.57E-05	0.000110626	5.725097656	4.289245605	6.898498535	0.004386902	-0.00128746	0.005531311	0.129150391	-0.506347656	-0.878417969	895.96	31.96485098	-35.23331344	-5.039238759	-78
7410	0	0.229300499	0.17034626	0.277300835	0.999999046	-0.000324249	1.53E-05	9.54E-05	5.732512474	4.258656502	6.932520866	-0.016212464	0.000762939	0.004768372	0.126708984	-0.50390625	-0.872558594	896	31.91698076	-35.22959812	-5.02709546	-79
7411	0	0.22857666	0.168884277	0.276367188	0.999999046	0.000389099	8.87E-05	-0.000114441	5.714416504	4.222106934	6.909179688	0.019454957	0.004434586	-0.005722046	0.126708984	-0.506103516	-0.878173828	895.86	31.9620768	-35.20602135	-5.037645068	-78
7412	0	0.22833252	0.171691895	0.274536133	0.999999046	0.000119209	9.54E-05	2.67E-05	5.708312988	4.292297363	6.86340332	0.005960465	0.004768372	0.001335144	0.126708984	-0.506103516	-0.875244141	895.94	31.9664233	-35.1903544	-5.028387063	-78
7413	0	0.228515625	0.170776367	0.276062012	0.999999046	-0.000274658	-6.39E-05	0.000110626	5.712890625	4.26940918	6.901550293	-0.01373291	-0.003194809	0.005531311	0.126708984	-0.506103516	-0.878173828	895.96	31.92674462	-35.19524921	-5.022648158	-78
7414	0	0.227489471	0.16917038	0.275758743	0.999999046	9.54E-06	-0.000108719	0.000105858	5.687236786	4.229259491	6.893968582	0.000476837	-0.005435944	0.005292892	0.12890625	-0.504150391	-0.875732422	895.86	31.92186133	-35.20419143	-5.021353302	-79
7415	0	0.22857666	0.170898438	0.277404785	0.999999046	0.00030899	9.54E-07	0	5.714416504	4.272460938	6.935119629	0.015449524	4.77E-05	0	0.12890625	-0.504150391	-0.875732422	895.9	31.95389196	-35.19600289	-5.025578907	-79
7416	0	0.229613304	0.170091629	0.275406837	0.999999046	-0.000145912	3.81E-06	7.15E-05	5.740332603	4.252290726	6.885170937	-0.007295609	0.000190735	0.003576279	0.126708984	-0.506103516	-0.878173828	895.9	31.92880339	-35.19193423	-5.01957396	-79
7417	0	0.228515625	0.169067383	0.276367188	0.999999046	4.20E-05	-1.81E-05	9.54E-05	5.712890625	4.22668457	6.909179688	0.002098084	-0.000905991	0.004768372	0.126708984	-0.506103516	-0.875244141	895.9	31.92450627	-35.19145165	-5.009411354	-78
7418	0	0.227643013	0.170145035	0.275671959	0.999999046	3.24E-05	-0.000101089	-6.48E-05	5.691075325	4.25362587	6.891798973	0.001621246	-0.005054474	-0.003242493	0.129150391	-0.506347656	-0.875488281	895.86	31.93369216	-35.18930137	-5.023991627	-79
7419	0	0.228027344	0.170349121	0.27557373	0.999999046	0.000202179	-6.77E-05	5.34E-05	5.700683594	4.258728027	6.889343262	0.010108948	-0.003385544	0.002670288	0.129150391	-0.506103516	-0.872558594	895.82	31.95284574	-35.19106072	-5.020243678	-79
7420	0	0.228693008	0.1702528	0.275411606	0.999999046	3.15E-05	-1.14E-05	0.000144005	5.717325211	4.25632	6.885290146	0.001573563	-0.000572205	0.007200241	0.129150391	-0.506103516	-0.872558594	895.88	31.94386303	-35.1928634	-5.001665201	-79
7421	0	0.228637695	0.168640137	0.277160645	0.999999046	-0.000171661	-2.86E-06	9.92E-05	5.715942383	4.216003418	6.929016113	-0.008583069	-0.000143051	0.004959106	0.12890625	-0.50390625	-0.872802734	895.9	31.91421305	-35.19110991	-4.991100564	-79
7422	0	0.228245735	0.16929245	0.276667595	0.999999046	0.00015831	-1.91E-06	0.00014782	5.706143379	4.232311249	6.916689873	0.007915497	-9.54E-05	0.007390976	0.131591797	-0.506347656	-0.881347656	895.9	31.91896489	-35.19219331	-4.979189173	-79
7423	0	0.22833252	0.171142578	0.27557373	0.999999046	-5.34E-05	-6.39E-05	5.34E-05	5.708312988	4.278564453	6.889343262	-0.002670288	-0.003194809	0.002670288	0.131591797	-0.504150391	-0.881591797	896.02	31.90867986	-35.19357369	-4.986759651	-79
7424	0	0.228141785	0.169501305	0.275134087	0.999999046	-2.86E-06	4.39E-05	9.54E-05	5.703544617	4.237532616	6.878352165	-0.000143051	0.002193451	0.004768372	0.129150391	-0.504150391	-0.878417969	895.9	31.89673416	-35.18703003	-4.978148158	-78
7425	0	0.228942871	0.169555664	0.275817871	0.999999046	0.000102997	-0.000102043	4.20E-05	5.723571777	4.238891602	6.895446777	0.005149841	-0.005102158	0.002098084	0.131347656	-0.506347656	-0.875488281	895.88	31.90682463	-35.19148228	-4.979818897	-78
7426	0	0.22779274	0.169836998	0.274942398	1	-2.19E-05	-1.81E-05	3.43E-05	5.694818497	4.24592495	6.873559952	-0.001096725	-0.000905991	0.001716614	0.131591797	-0.506347656	-0.878417969	895.98	31.89959062	-35.1873086	-4.978924623	-78
7427	0	0.227539063	0.169311523	0.275878906	0.999999046	8.01E-05	-7.92E-05	6.48E-05	5.688476563	4.232788086	6.896972656	0.004005432	-0.003957748	0.003242493	0.129150391	-0.506103516	-0.872558594	895.9	31.90455699	-35.19089883	-4.973879625	-79
7428	0	0.227910042	0.170302391	0.275448799	0.999999046	-2.57E-05	3.81E-06	0.00019455	5.697751045	4.257559776	6.886219978	-0.00128746	0.000190735	0.009727478	0.129150391	-0.506347656	-0.875488281	895.9	31.88501013	-35.19425545	-4.949702706	-79
7429	0	0.227844238	0.169311523	0.275756836	0.999999046	-0.000133514	-3.72E-05	0.00019455	5.696105957	4.232788086	6.893920898	-0.00667572	-0.001859665	0.009727478	0.12890625	-0.504150391	-0.875732422	895.94	31.8548632	-35.20158566	-4.932088195	-79
7430	0	0.229090691	0.169148445	0.275723457	0.999999046	3.05E-05	-2.10E-05	0.000266075	5.727267265	4.228711128	6.893086433	0.001525879	-0.001049042	0.013303757	0.129150391	-0.506347656	-0.878417969	895.96	31.83790785	-35.21169996	-4.90357168	-79
7431	0	0.229125977	0.16986084	0.276184082	0.999999046	-0.000190735	5.05E-05	0.000137329	5.728149414	4.246520996	6.904602051	-0.009536743	0.002527237	0.006866455	0.129150391	-0.504150391	-0.878417969	895.86	31.80142353	-35.20707784	-4.888110888	-78
7432	0	0.228838921	0.169692039	0.277430534	0.999999046	0.000157356	9.35E-05	9.16E-05	5.720973015	4.242300987	6.935763359	0.007867813	0.004673004	0.004577637	0.126708984	-0.50390625	-0.878417969	895.9	31.80614261	-35.19548608	-4.876114278	-78
7433	0	0.227844238	0.171447754	0.276855469	0.999999046	0.000217438	0.000107765	-0.000106812	5.696105957	4.286193848	6.921386719	0.010871887	0.00538826	-0.005340576	0.12890625	-0.504150391	-0.875732422	895.9	31.8308616	-35.17044885	-4.884036128	-78
7434	0	0.228541374	0.169968605	0.276646614	0.999999046	-0.000131607	-6.48E-05	8.39E-05	5.713534355	4.249215126	6.916165352	-0.006580353	-0.003242493	0.004196167	0.129150391	-0.506347656	-0.878417969	895.9	31.80986421	-35.17373988	-4.880073749	-79
7435	0	0.22869873	0.167785645	0.277526855	0.999999046	-0.000110626	-0.000224113	0.000175476	5.717468262	4.194641113	6.938171387	-0.005531311	-0.011205673	0.008773804	0.12890625	-0.504150391	-0.875732422	895.96	31.79164896	-35.19808408	-4.877459966	-78
7436	0	0.228149414	0.16941452	0.275507927	0.999999046	0.00033474	-0.000211716	-6.96E-05	5.703735352	4.235363007	6.887698174	0.016736985	-0.010585785	-0.003480911	0.12890625	-0.504150391	-0.875732422	895.82	31.84082829	-35.20642181	-4.904264189	-78
7437	0	0.228088379	0.170898438	0.276123047	0.999999046	3.81E-05	-6.39E-05	2.29E-05	5.702209473	4.272460938	6.903076172	0.001907349	-0.003194809	0.001144409	0.12890625	-0.504150391	-0.875732422	895.9	31.8434519	-35.20591555	-4.90911455	-78
7438	0	0.228619576	0.168284416	0.275774956	0.999999046	0	1.91E-05	8.68E-05	5.715489388	4.207110405	6.894373894	0	0.000953674	0.004339218	0.126708984	-0.506103516	-0.875244141	895.96	31.83373296	-35.20123124	-4.896330007	-78
7439	0	0.228942871	0.170043945	0.277282715	0.999999046	-8.77E-05	-4.86E-05	6.10E-05	5.723571777	4.251098633	6.932067871	-0.004386902	-0.00243187	0.003051758	0.131347656	-0.506347656	-0.872802734	895.94	31.81861968	-35.20156719	-4.887762402	-78
7440	0	0.227769852	0.168623924	0.277594566	0.999999046	5.25E-05	-6.68E-05	8.30E-05	5.694246292	4.215598106	6.939864159	0.002622604	-0.00333786	0.004148483	0.129150391	-0.506347656	-0.875488281	895.9	31.8187606	-35.20494279	-4.881037075	-78
7441	0	0.228260994	0.170324326	0.275593758	0.999999046	6.68E-05	-8.11E-05	1.81E-05	5.706524849	4.258108139	6.889843941	0.00333786	-0.004053116	0.000905991	0.131347656	-0.504150391	-0.878662109	895.82	31.82568716	-35.20578641	-4.890167751	-79
7442	0	0.228556633	0.171147346	0.276266098	0.999999046	-0.000106812	-1.91E-05	0.000137329	5.713915825	4.278683662	6.906652451	-0.005340576	-0.000953674	0.006866455	0.126464844	-0.501708984	-0.875732422	895.96	31.80198949	-35.20777352	-4.881844716	-79
7443	0	0.228820801	0.168518066	0.276733398	0.999999046	-1.91E-05	-0.000170708	0.000106812	5.72052002	4.21295166	6.918334961	-0.000953674	-0.008535385	0.005340576	0.129150391	-0.504150391	-0.878417969	895.82	31.79685322	-35.22270094	-4.886017063	-78
7444	0	0.227974892	0.169983864	0.276050568	0.999999046	0.000185966	-9.73E-05	5.25E-05	5.699372292	4.249596596	6.901264191	0.009298325	-0.004863739	0.002622604	0.129150391	-0.506347656	-0.878417969	895.86	31.81587346	-35.22716467	-4.887890636	-79
7445	0	0.228515625	0.170959473	0.275939941	0.999999046	0.000171661	-0.000201225	9.16E-05	5.712890625	4.273986816	6.898498535	0.008583069	-0.010061264	0.004577637	0.126708984	-0.506103516	-0.875244141	895.94	31.83510393	-35.24409056	-4.890859262	-79
7446	0	0.228901863	0.171011925	0.275483131	0.999999046	0.000154495	-0.000204086	4.20E-05	5.722546577	4.275298119	6.887078285	0.007724762	-0.010204315	0.002098084	0.126708984	-0.50390625	-0.878417969	895.86	31.85601589	-35.25829418	-4.907626781	-79
7447	0	0.229003906	0.16796875	0.277526855	0.999999046	-6.48E-05	2.38E-05	0.000133514	5.725097656	4.19921875	6.938171387	-0.003242493	0.001192093	0.00667572	0.126708984	-0.506103516	-0.875244141	895.86	31.83562196	-35.25584329	-4.88891193	-79
7448	0	0.22867012	0.16970253	0.274323463	0.999999046	-4.77E-06	-0.000108719	6.77E-05	5.716753006	4.242563248	6.858086586	-0.000238419	-0.005435944	0.003385544	0.126708984	-0.50390625	-0.878417969	895.88	31.83238314	-35.2623539	-4.894908518	-79
7449	0	0.228881836	0.169799805	0.275024414	0.999999046	0.000125885	-0.000166893	0.000209808	5.722045898	4.244995117	6.875610352	0.006294251	-0.00834465	0.010490418	0.126708984	-0.50390625	-0.875488281	895.86	31.83687755	-35.28313989	-4.885593364	-79
7450	0	0.227397919	0.171177864	0.276979446	0.999999046	0.000238419	-0.00028801	0.000185966	5.684947968	4.279446602	6.92448616	0.011920929	-0.014400483	0.009298325	0.126708984	-0.506103516	-0.878173828	895.96	31.86115791	-35.31415799	-4.88767466	-80
7451	0	0.230041504	0.169250488	0.276733398	0.999999046	0.000396729	1.62E-05	0.000164032	5.751037598	4.231262207	6.918334961	0.019836426	0.000810623	0.008201599	0.126708984	-0.50390625	-0.875488281	895.88	31.89202071	-35.31426327	-4.872539526	-79
7452	0	0.228441238	0.172322273	0.274100304	0.999999046	6.39E-05	-0.00015831	-9.92E-05	5.71103096	4.308056831	6.852507591	0.003194809	-0.007915497	-0.004959106	0.126708984	-0.506103516	-0.875244141	895.8	31.91056918	-35.31538504	-4.897592744	-79
7453	0	0.228820801	0.167358398	0.275878906	0.999999046	0.000106812	-1.43E-05	-4.20E-05	5.72052002	4.183959961	6.896972656	0.005340576	-0.000715256	-0.002098084	0.126708984	-0.506103516	-0.875244141	895.88	31.92377721	-35.30598154	-4.905343687	-79
7454	0	0.227532387	0.171586037	0.274736404	0.999999046	8.39E-05	-6.48E-05	1.91E-05	5.688309669	4.289650917	6.86841011	0.004196167	-0.003242493	0.000953674	0.126953125	-0.508300781	-0.880859375	895.9	31.93245089	-35.30512385	-4.911598074	-79
7455	0	0.229125977	0.170471191	0.275939941	0.999999046	-5.72E-05	-1.81E-05	9.16E-05	5.728149414	4.261779785	6.898498535	-0.002861023	-0.000905991	0.004577637	0.124511719	-0.506103516	-0.878173828	895.9	31.91797392	-35.30410223	-4.906823114	-79
7456	0	0.228190422	0.169970512	0.275950432	0.999999046	-0.000185966	-3.81E-06	0.000148773	5.704760551	4.24926281	6.898760796	-0.009298325	-0.000190735	0.00743866	0.126708984	-0.506103516	-0.872558594	895.86	31.88418684	-35.30511044	-4.887236066	-80
7457	0	0.228759766	0.170959473	0.274475098	0.999999046	-1.91E-05	4.67E-05	0.0001297	5.718994141	4.273986816	6.861877441	-0.000953674	0.002336502	0.006484985	0.124511719	-0.506103516	-0.878173828	895.88	31.8687838	-35.30004436	-4.872164589	-79
7458	0	0.22859478	0.170217514	0.27425766	0.999999046	-0.000108719	-8.01E-05	0.000166893	5.714869499	4.255437851	6.856441498	-0.005435944	-0.004005432	0.00834465	0.126953125	-0.508300781	-0.877929688	895.94	31.84605898	-35.30958412	-4.857009768	-78
7459	0	0.228942871	0.168945313	0.274719238	0.999999046	0.000164032	-0.000178337	6.10E-05	5.723571777	4.223632813	6.867980957	0.008201599	-0.008916855	0.003051758	0.126708984	-0.50390625	-0.878417969	895.9	31.86609957	-35.32231603	-4.870746485	-78
7460	0	0.229733467	0.172058105	0.274518967	0.999999046	2.57E-05	-0.000112534	-6.10E-05	5.743336678	4.301452637	6.862974167	0.00128746	-0.005626678	-0.003051758	0.126953125	-0.508300781	-0.877929688	895.94	31.87606265	-35.3212745	-4.885602212	-78
7461	0	0.228149414	0.169250488	0.274597168	0.999999046	0.000167847	-3.72E-05	0.000114441	5.703735352	4.231262207	6.864929199	0.008392334	-0.001859665	0.005722046	0.126708984	-0.506103516	-0.872558594	895.9	31.88698791	-35.32351336	-4.873087838	-78
7462	0	0.227842331	0.170388222	0.274765968	0.999999046	0.000154495	-6.29E-05	-1.53E-05	5.696058273	4.259705544	6.869149208	0.007724762	-0.003147125	-0.000762939	0.126708984	-0.506103516	-0.875244141	895.94	31.90648983	-35.32036364	-4.88129823	-79
7463	0	0.229064941	0.169250488	0.276550293	0.999999046	-0.000110626	-9.44E-05	0.000106812	5.726623535	4.231262207	6.913757324	-0.005531311	-0.004720688	0.005340576	0.126708984	-0.506103516	-0.872558594	895.88	31.88847847	-35.32765175	-4.873905869	-80
7464	0	0.229214668	0.170055389	0.27550602	0.999999046	2.57E-05	-0.00015831	0.000109673	5.730366707	4.251384735	6.88765049	0.00128746	-0.007915497	0.005483627	0.126708984	-0.506103516	-0.875244141	895.82	31.88865572	-35.34133201	-4.873696336	-80
7465	0	0.228515625	0.17010498	0.276184082	0.999999046	0.0001297	-0.000132561	-1.91E-05	5.712890625	4.252624512	6.904602051	0.006484985	-0.006628037	-0.000953674	0.126708984	-0.506103516	-0.875244141	895.88	31.90852104	-35.34466166	-4.88729548	-81
7466	0	0.228765488	0.170246124	0.276200294	0.999999046	0.000118256	-8.77E-05	2.57E-05	5.719137192	4.256153107	6.905007362	0.005912781	-0.004386902	0.00128746	0.126708984	-0.506103516	-0.878173828	895.96	31.92205554	-35.34630146	-4.895563658	-80
7467	0	0.228942871	0.169799805	0.276184082	0.999999046	3.81E-05	-7.53E-05	8.39E-05	5.723571777	4.244995117	6.904602051	0.001907349	-0.003767014	0.004196167	0.126708984	-0.50390625	-0.875488281	895.94	31.92183405	-35.35023345	-4.897119786	-79
