Counter	Temperature	VelInc_X	VelInc_Y	VelInc_Z	OriInc_w	OriInc_x	OriInc_y	OriInc_z	Acc_X	Acc_Y	Acc_Z	Gyr_X	Gyr_Y	Gyr_Z	Mag_X	Mag_Y	Mag_Z	Pressure	Roll	Pitch	Yaw	RSSI
8966	0	0.375100136	-0.100090981	0.078316689	0.999999046	2.10E-05	-7.44E-05	0.000483513	9.377503395	-2.502274513	1.957917213	0.001049042	-0.00371933	0.024175645	-0.649414063	0.034179688	-0.755126953	895.92	-52.45985869	-72.04313862	71.76132999	-67
8967	0	0.373779297	-0.098388672	0.074401855	0.999999046	0.001213074	-9.44E-05	0.000423431	9.344482422	-2.459716797	1.860046387	0.060653703	-0.004720689	0.021171576	-0.649414063	0.034179688	-0.755126953	895.94	-52.41575558	-72.00756582	71.86012451	-68
8968	0	0.377004623	-0.099444389	0.074326515	0.999999046	0.001223564	-0.000143051	0.000362396	9.425115585	-2.486109734	1.85816288	0.061178224	-0.007152559	0.018119817	-0.649169922	0.031738281	-0.760498047	895.88	-52.37101464	-71.98108754	71.95928572	-68
8969	0	0.374145508	-0.094726563	0.075744629	0.999999046	0.001277924	-8.68E-05	0.000114441	9.353637695	-2.368164063	1.893615723	0.063896197	-0.004339219	0.005722047	-0.651367188	0.029785156	-0.757568359	895.92	-52.25055623	-71.97342285	71.98708114	-70
8970	0	0.371450424	-0.095968246	0.072751045	0.999999046	0.000659943	0.000131607	-3.43E-05	9.286260605	-2.399206161	1.818776131	0.032997134	0.006580353	-0.001716614	-0.651367188	0.027587891	-0.754394531	895.92	-52.10825774	-71.96411983	71.91971692	-69
8971	0	0.373657227	-0.096801758	0.073242188	0.999999046	0.000473022	0.000138283	0.000305176	9.341430664	-2.420043945	1.831054688	0.023651124	0.006914139	0.01525879	-0.651367188	0.027587891	-0.757324219	895.92	-52.05922374	-71.92382742	71.9268441	-70
8972	0	0.375042915	-0.096170425	0.071543694	0.999999046	0.000266075	-7.63E-05	0.000705719	9.376072884	-2.404260635	1.788592339	0.013303758	-0.003814698	0.035285953	-0.649169922	0.029785156	-0.757568359	895.88	-52.17973766	-71.8627208	72.08437833	-70
8973	0	0.377258301	-0.097839355	0.074462891	0.999999046	-4.20E-05	-0.000159264	0.000514984	9.43145752	-2.445983887	1.861572266	-0.002098084	-0.007963181	0.025749208	-0.648925781	0.02734375	-0.760253906	895.88	-52.31696838	-71.82481836	72.22536345	-70
8974	0	0.375229836	-0.095973969	0.073845863	0.999999046	0.000772476	-0.000246048	0.000224113	9.380745888	-2.399349213	1.846146584	0.038623814	-0.0123024	0.011205675	-0.648925781	0.027587891	-0.757324219	895.94	-52.3224522	-71.81959879	72.32508494	-71
8975	0	0.374145508	-0.09564209	0.071899414	0.999999046	-0.000686646	2.77E-05	6.10E-05	9.353637695	-2.391052246	1.797485352	-0.034332278	0.001382828	0.003051758	-0.651367188	0.027587891	-0.754394531	895.86	-52.38496169	-71.81032433	72.31193914	-71
8976	0	0.374678612	-0.098597527	0.073615074	0.999999046	-0.000908852	-0.000175476	7.53E-05	9.366965294	-2.464938164	1.840376854	-0.045442588	-0.008773805	0.003767014	-0.649169922	0.029541016	-0.760498047	895.8	-52.53236914	-71.81411241	72.35796459	-71
8977	0	0.37701416	-0.097229004	0.07434082	0.999999046	-0.000938416	4.77E-06	0	9.425354004	-2.430725098	1.858520508	-0.046920783	0.000238419	0	-0.649169922	0.029785156	-0.757568359	895.84	-52.61730109	-71.81240395	72.33693362	-71
8978	0	0.373839378	-0.100055695	0.074644089	0.999998093	-0.001301765	0.000367165	-0.000389099	9.345984459	-2.501392365	1.866102219	-0.065088294	0.018358237	-0.019454962	-0.649169922	0.034179688	-0.7578125	895.94	-52.56117519	-71.82094212	72.11999741	-70
8979	0	0.373779297	-0.100158691	0.073547363	0.999999046	-0.000320435	0.000252724	-0.000328064	9.344482422	-2.503967285	1.838684082	-0.016021729	0.012636185	-0.016403199	-0.651611328	0.031982422	-0.757568359	895.88	-52.43749434	-71.83188435	71.95446777	-70
8980	0	0.374598503	-0.095564842	0.072209358	0.999999046	-0.000163078	0.00012207	-0.000218391	9.364962578	-2.389121056	1.805233955	-0.008153916	0.006103516	-0.010919571	-0.649169922	0.031982422	-0.7578125	895.94	-52.35524922	-71.84220941	71.85047109	-70
8981	0	0.372619629	-0.094970703	0.075195313	0.999999046	0.000545502	-5.25E-05	-9.16E-05	9.315490723	-2.374267578	1.879882813	0.027275087	-0.002622605	-0.004577637	-0.649169922	0.031982422	-0.7578125	895.94	-52.26673316	-71.85339991	71.82400455	-70
8982	0	0.376489639	-0.09292984	0.074035645	0.999999046	0.000360489	0.000123978	-0.00023365	9.412240982	-2.323246002	1.850891113	0.018024445	0.006198883	-0.011682511	-0.649169922	0.029785156	-0.757568359	895.88	-52.11976106	-71.86539602	71.71569572	-70
8983	0	0.374572754	-0.095153809	0.073059082	0.999999046	-0.000671387	0.000512123	-0.000305176	9.364318848	-2.378845215	1.826477051	-0.03356934	0.025606159	-0.015258791	-0.648925781	0.029541016	-0.763183594	896.02	-51.96855804	-71.85666157	71.47838226	-69
8984	0	0.373209953	-0.095639229	0.076607704	0.999999046	-0.001076698	0.000387192	-1.24E-05	9.330248833	-2.390980721	1.915192604	-0.053834927	0.019359593	-0.000619888	-0.649169922	0.031982422	-0.754882813	895.92	-51.96123484	-71.83032524	71.34520847	-69
8985	0	0.372070313	-0.097290039	0.076660156	0.999999046	-0.000961304	0.000321388	5.34E-05	9.301757813	-2.432250977	1.916503906	-0.048065194	0.016069415	0.002670289	-0.649414063	0.031982422	-0.751953125	895.84	-51.97303847	-71.8027276	71.24928554	-68
8986	0	0.372924805	-0.099127769	0.077867508	0.999999046	-0.000650406	0.000177383	0.000132561	9.323120117	-2.478194237	1.946687698	-0.032520297	0.008869172	0.006628037	-0.647216797	0.038330078	-0.758300781	895.86	-52.00573511	-71.77811017	71.20295062	-68
8987	0	0.37310791	-0.100708008	0.077453613	0.999999046	0.00030899	0.000134468	7.63E-05	9.327697754	-2.517700195	1.936340332	0.015449524	0.006723404	0.003814697	-0.646972656	0.036132813	-0.758300781	895.94	-51.92839585	-71.76150722	71.15909246	-68
8988	0	0.373071671	-0.097726822	0.077795982	0.999999046	0.001196861	-1.72E-05	0.000133514	9.326791763	-2.443170547	1.944899559	0.059843078	-0.000858307	0.006675722	-0.646972656	0.036132813	-0.760986328	895.92	-51.80294554	-71.75047362	71.16859609	-67
8989	0	0.374511719	-0.094360352	0.076599121	0.999999046	0.00112915	-0.000117302	7.63E-06	9.362792969	-2.359008789	1.914978027	0.056457532	-0.005865098	0.00038147	-0.649169922	0.033935547	-0.760742188	895.88	-51.68519061	-71.75808856	71.17967908	-67
8990	0	0.37336731	-0.09474659	0.074892998	0.999999046	0.000463486	-5.15E-05	-9.54E-07	9.334182739	-2.368664742	1.872324944	0.023174287	-0.002574921	-4.77E-05	-0.64453125	0.031738281	-0.758056641	895.88	-51.62382574	-71.76202183	71.1706896	-67
8991	0	0.375183105	-0.097961426	0.075378418	0.999999046	-0.000144958	-4.48E-05	-7.25E-05	9.379577637	-2.449035645	1.884460449	-0.007247925	-0.002241135	-0.003623962	-0.648925781	0.029541016	-0.763183594	895.92	-51.61515063	-71.77200898	71.14735277	-67
8992	0	0.373128891	-0.098418236	0.077878952	0.999999046	0.000199318	-0.000164032	-0.000153542	9.328222275	-2.460455894	1.946973801	0.009965897	-0.008201599	-0.007677078	-0.649169922	0.031738281	-0.760498047	895.84	-51.58194114	-71.79773529	71.13644814	-66
8993	0	0.369750977	-0.098327637	0.079528809	0.999999046	0.00025177	-4.10E-05	4.96E-05	9.243774414	-2.458190918	1.988220215	0.012588501	-0.0020504	0.002479553	-0.646728516	0.031738281	-0.7578125	895.92	-51.55284399	-71.79633092	71.13542503	-66
8994	0	0.372982025	-0.099790573	0.07826519	0.999999046	0.000638962	-0.00018692	0.000217438	9.324550629	-2.494764328	1.956629753	0.031948092	-0.009346009	0.010871888	-0.646728516	0.02734375	-0.757568359	895.84	-51.55563937	-71.79016302	71.21999373	-66
8995	0	0.374023438	-0.098876953	0.078063965	0.999999046	0.000331879	-0.000231743	0.000541687	9.350585938	-2.471923828	1.951599121	0.016593934	-0.011587144	0.027084353	-0.649169922	0.029541016	-0.760498047	895.88	-51.67580843	-71.75800146	71.38794896	-66
8996	0	0.372426987	-0.098678589	0.079481125	0.999999046	0.000283241	-2.29E-05	0.000575066	9.310674667	-2.466964722	1.987028122	0.014162065	-0.001144409	0.028753283	-0.646728516	0.029541016	-0.763427734	895.92	-51.75103839	-71.70784152	71.50113799	-66
8997	0	0.371887207	-0.094909668	0.077880859	0.999999046	0.000301361	2.00E-05	0.000843048	9.297180176	-2.372741699	1.947021484	0.015068056	0.001001358	0.04215241	-0.646484375	0.02734375	-0.763183594	895.92	-51.86876469	-71.63056637	71.66557199	-66
8998	0	0.373977661	-0.097569466	0.076976776	0.999999046	-0.000278473	7.25E-05	0.000361443	9.349441528	-2.439236641	1.924419403	-0.013923646	0.003623963	0.018072129	-0.646728516	0.029541016	-0.760498047	896	-51.93532569	-71.59303831	71.70510743	-66
8999	0	0.37286377	-0.098937988	0.078186035	0.999999046	-3.81E-05	-0.000109673	7.25E-05	9.321594238	-2.473449707	1.954650879	-0.001907349	-0.005483627	0.003623962	-0.648925781	0.029541016	-0.763183594	895.92	-51.9621804	-71.59445132	71.73198828	-66
9000	0	0.373721123	-0.097961426	0.078461647	1	9.54E-06	-4.67E-05	1.43E-05	9.343028069	-2.449035645	1.961541176	0.000476837	-0.002336502	0.000715256	-0.649169922	0.029541016	-0.760498047	895.88	-51.95391389	-71.59671947	71.72847174	-66
9001	0	0.373046875	-0.100646973	0.077636719	0.999999046	-0.000267029	-4.48E-05	3.81E-06	9.326171875	-2.516174316	1.940917969	-0.013351441	-0.002241135	0.000190735	-0.649169922	0.031982422	-0.7578125	895.86	-51.9747301	-71.59976185	71.71977881	-66
9002	0	0.373479843	-0.100568771	0.076266289	0.999999046	-0.000110626	-6.68E-05	0.000224113	9.336996078	-2.514219284	1.906657219	-0.005531311	-0.00333786	0.011205673	-0.649169922	0.031738281	-0.763427734	895.98	-52.03057502	-71.58447248	71.76595417	-66
9003	0	0.374511719	-0.100769043	0.078979492	0.999999046	0	-4.86E-05	1.91E-05	9.362792969	-2.519226074	1.974487305	0	-0.00243187	0.000953674	-0.649169922	0.031738281	-0.760498047	895.88	-52.02531238	-71.58636641	71.7619759	-66
9004	0	0.370243073	-0.097914696	0.078759193	0.999999046	8.49E-05	-5.15E-05	9.82E-05	9.256076813	-2.447867393	1.968979836	0.004243851	-0.002574921	0.004911423	-0.649169922	0.031982422	-0.754882813	895.88	-52.02755227	-71.58130351	71.7775415	-66
9005	0	0.370239258	-0.09942627	0.077819824	0.999999046	0.000366211	-0.00026226	0.000267029	9.255981445	-2.485656738	1.945495605	0.018310548	-0.013113022	0.013351441	-0.649169922	0.029785156	-0.757568359	895.98	-52.09039492	-71.57579762	71.8928056	-66
9006	0	0.371995926	-0.097557068	0.074521065	0.999999046	-0.000185013	-8.39E-05	1.14E-05	9.299898148	-2.438926697	1.863026619	-0.009250641	-0.004196167	0.000572205	-0.646728516	0.029541016	-0.7578125	896	-52.11413188	-71.58098857	71.899609	-66
9007	0	0.374694824	-0.099487305	0.077880859	0.999999046	-0.000473022	-0.000227928	0.000137329	9.367370605	-2.487182617	1.947021484	-0.023651124	-0.011396409	0.006866455	-0.648925781	0.029541016	-0.763183594	895.98	-52.23653894	-71.58493315	71.97590635	-66
9008	0	0.37311554	-0.096916199	0.076580048	0.999999046	-0.000479698	2.10E-05	0.000240326	9.327888489	-2.422904968	1.91450119	-0.02398491	0.001049042	0.012016297	-0.649169922	0.033935547	-0.763671875	896	-52.31346061	-71.56219035	71.99798284	-66
9009	0	0.371582031	-0.098083496	0.075439453	0.999999046	-0.000911713	2.38E-05	-2.67E-05	9.289550781	-2.452087402	1.885986328	-0.045585639	0.001192093	-0.001335144	-0.649169922	0.031982422	-0.7578125	895.88	-52.38300218	-71.5635702	71.96731988	-66
9010	0	0.374085426	-0.100216866	0.075883865	0.999999046	-0.00094986	5.72E-05	-0.000328064	9.352135658	-2.505421638	1.897096634	-0.047492989	0.002861023	-0.016403201	-0.649169922	0.034179688	-0.7578125	895.92	-52.3846984	-71.59002705	71.85848402	-66
9011	0	0.373168945	-0.102172852	0.078491211	0.999999046	-0.000576019	-7.15E-05	-0.00012207	9.329223633	-2.554321289	1.962280273	-0.028800966	-0.003576279	-0.006103516	-0.649169922	0.033935547	-0.763671875	895.86	-52.42190753	-71.60666693	71.83159279	-66
9012	0	0.374424934	-0.099424362	0.077344894	0.999999046	0.000191689	-0.000112534	4.48E-05	9.36062336	-2.485609055	1.93362236	0.009584427	-0.005626679	0.002241135	-0.649414063	0.036132813	-0.760986328	895.88	-52.41730464	-71.61104854	71.85017636	-66
9013	0	0.373901367	-0.099731445	0.07611084	1	-1.81E-05	-1.53E-05	-3.81E-06	9.34753418	-2.493286133	1.902770996	-0.000905991	-0.000762939	-0.000190735	-0.649169922	0.033935547	-0.760742188	895.88	-52.4000216	-71.61308912	71.83354862	-66
9014	0	0.375308037	-0.100402832	0.075911522	0.999999046	-0.000516891	-7.63E-06	-0.000267029	9.38270092	-2.510070801	1.897788048	-0.025844575	-0.00038147	-0.013351441	-0.649169922	0.034179688	-0.7578125	895.98	-52.38254981	-71.63853152	71.75762539	-66
9015	0	0.372253418	-0.100036621	0.077819824	0.999999046	-0.00025177	-0.000121117	-0.000324249	9.306335449	-2.500915527	1.945495605	-0.012588501	-0.006055832	-0.016212464	-0.649414063	0.036132813	-0.760986328	895.94	-52.35340629	-71.67703962	71.69689231	-66
9016	0	0.370750427	-0.100567818	0.077494621	0.999999046	0.000458717	-0.000167847	-0.000149727	9.268760681	-2.514195442	1.937365532	0.022935868	-0.008392334	-0.007486344	-0.649169922	0.033935547	-0.760742188	895.92	-52.29238755	-71.7028719	71.69020569	-66
9017	0	0.375488281	-0.09942627	0.075805664	0.999999046	0.000831604	-0.00026226	-0.000213623	9.387207031	-2.485656738	1.895141602	0.041580206	-0.013113024	-0.010681154	-0.649169922	0.031982422	-0.7578125	895.92	-52.20095008	-71.74117044	71.69775735	-66
9018	0	0.373861313	-0.099444389	0.076750755	0.999999046	0.001140594	-0.000293732	-0.000222206	9.346532822	-2.486109734	1.918768883	0.057029738	-0.014686588	-0.011110308	-0.649169922	0.031982422	-0.754882813	895.88	-52.08071295	-71.78244857	71.70945906	-66
9019	0	0.373657227	-0.094787598	0.073303223	0.999999046	0.001335144	-0.000208855	7.25E-05	9.341430664	-2.369689941	1.832580566	0.066757223	-0.010442737	0.003623964	-0.651367188	0.029785156	-0.760253906	895.94	-51.97781252	-71.79137719	71.76223398	-66
9020	0	0.376665115	-0.092875481	0.073759079	0.999999046	9.44E-05	-8.96E-05	-4.20E-05	9.416627884	-2.321887016	1.843976974	0.004720688	-0.004482269	-0.002098084	-0.649169922	0.029541016	-0.760498047	895.88	-51.95961824	-71.80258311	71.7532141	-66
9021	0	0.372924805	-0.096130371	0.07598877	0.999999046	-0.000343323	-6.39E-05	0.000133514	9.323120117	-2.403259277	1.899719238	-0.017166138	-0.003194809	0.00667572	-0.651611328	0.029785156	-0.754638672	895.88	-52.02207793	-71.79621487	71.78028835	-66
9022	0	0.372542381	-0.097625732	0.076239586	0.999999046	0.000326157	-0.000267029	-0.000157356	9.313559532	-2.440643311	1.905989647	0.016307831	-0.013351441	-0.007867813	-0.651611328	0.031982422	-0.760498047	895.92	-52.00121054	-71.83045705	71.79290724	-67
9023	0	0.373413086	-0.096008301	0.077087402	0.999999046	0.000713348	-0.000273705	-0.00025177	9.335327148	-2.40020752	1.927185059	0.035667423	-0.013685228	-0.012588502	-0.651367188	0.027587891	-0.757324219	895.94	-51.91712562	-71.87374761	71.79150759	-67
9024	0	0.372710228	-0.09632206	0.076592445	0.999999046	0.001282692	-0.000259399	-0.000103951	9.317755699	-2.408051491	1.914811134	0.064134616	-0.012969974	-0.005197527	-0.651367188	0.027587891	-0.757324219	895.88	-51.79543243	-71.90272945	71.81524069	-67
9025	0	0.377868652	-0.095397949	0.072021484	0.999998093	0.001648903	-0.000362396	-0.000198364	9.446716309	-2.38494873	1.800537109	0.082445184	-0.018119821	-0.009918218	-0.648681641	0.022949219	-0.760009766	895.94	-51.63982651	-71.94780384	71.84775072	-67
9026	0	0.376737595	-0.092075348	0.074066162	0.999998093	0.001177788	-0.000103951	-0.000767708	9.418439865	-2.301883698	1.851654053	0.058889409	-0.005197527	-0.038385404	-0.653564453	0.023193359	-0.756835938	895.86	-51.34139066	-72.02582375	71.67166123	-67
9027	0	0.373168945	-0.092163086	0.073852539	0.999999046	9.92E-05	4.67E-05	-0.000789642	9.329223633	-2.304077148	1.846313477	0.004959107	0.002336502	-0.039482121	-0.653320313	0.018798828	-0.759277344	895.88	-51.11825952	-72.09495003	71.44937623	-67
9028	0	0.373983383	-0.094610214	0.073782921	0.999999046	-0.000378609	0.000150681	-0.000412941	9.349584579	-2.365255356	1.844573021	-0.018930436	0.007534028	-0.02064705	-0.653320313	0.018798828	-0.759277344	895.86	-51.00428955	-72.12290916	71.28442863	-67
9029	0	0.373779297	-0.095214844	0.075927734	0.999999046	-0.000518799	-2.57E-05	0.000289917	9.344482422	-2.380371094	1.898193359	-0.025939943	-0.00128746	0.01449585	-0.653320313	0.018798828	-0.753662109	895.86	-51.11205557	-72.10092472	71.3396734	-67
9030	0	0.373789787	-0.093132019	0.077214241	0.999999046	-1.72E-05	-7.06E-05	0.000426292	9.344744682	-2.328300476	1.930356026	-0.000858307	-0.003528595	0.021314622	-0.653320313	0.018798828	-0.753662109	896	-51.2045569	-72.07000711	71.44008271	-67
9031	0	0.374084473	-0.091186523	0.073730469	0.999999046	-0.000495911	8.11E-05	0.000350952	9.352111816	-2.279663086	1.843261719	-0.024795534	0.004053116	0.017547609	-0.653320313	0.020996094	-0.759521484	895.8	-51.29301228	-72.03513754	71.47446242	-66
9032	0	0.374432564	-0.09506321	0.074184418	0.999998093	-0.001415253	0.000149727	0.000414848	9.360814095	-2.376580238	1.854610443	-0.07076266	0.007486346	0.020742424	-0.651123047	0.023193359	-0.759765625	895.86	-51.48188184	-71.98970165	71.50330237	-66
9033	0	0.373718262	-0.098571777	0.076293945	0.999999046	-0.001274109	0.000218391	0.000350952	9.342956543	-2.464294434	1.907348633	-0.063705463	0.010919574	0.017547613	-0.651367188	0.025390625	-0.757080078	895.84	-51.62147621	-71.94497965	71.49896316	-66
9034	0	0.372945786	-0.096223831	0.077309608	0.999999046	-0.000249863	3.62E-05	0.000475883	9.323644638	-2.405595779	1.932740211	-0.012493134	0.001811981	0.023794175	-0.651367188	0.027587891	-0.760253906	895.88	-51.72065343	-71.90193726	71.57214467	-66
9035	0	0.374023438	-0.094543457	0.074768066	0.999999046	-5.34E-05	0.000275612	0.000408173	9.350585938	-2.363586426	1.86920166	-0.002670288	0.013780594	0.020408631	-0.649169922	0.029785156	-0.757568359	895.88	-51.71651503	-71.84810487	71.55765694	-66
9036	0	0.373967171	-0.095528603	0.071361542	0.999999046	-0.000159264	0.000255585	0.000346184	9.349179268	-2.388215065	1.784038544	-0.007963181	0.012779236	0.017309189	-0.649169922	0.027587891	-0.751708984	895.88	-51.71712862	-71.8014799	71.54306998	-66
9037	0	0.375	-0.09588623	0.074401855	0.999999046	-0.001098633	0.000271797	0.000160217	9.375	-2.397155762	1.860046387	-0.054931653	0.013589862	0.008010866	-0.651367188	0.027587891	-0.760253906	895.88	-51.7809619	-71.77057668	71.48307349	-66
9038	0	0.371263504	-0.097153664	0.078173637	0.999999046	-0.000776291	8.96E-05	0.000185966	9.281587601	-2.428841591	1.954340935	-0.038814549	0.00448227	0.009298326	-0.649169922	0.029785156	-0.757568359	895.92	-51.86292428	-71.75020375	71.4794038	-66
9039	0	0.371459961	-0.098266602	0.076416016	0.999999046	-6.87E-05	4.77E-06	0.00030899	9.286499023	-2.456665039	1.910400391	-0.003433228	0.000238419	0.015449524	-0.649169922	0.031982422	-0.754882813	895.88	-51.91337069	-71.72468848	71.52573861	-66
9040	0	0.374573708	-0.095640182	0.076161385	0.999999046	-4.29E-05	-0.000226974	0.000376701	9.36434269	-2.391004562	1.904034615	-0.002145767	-0.011348725	0.018835068	-0.649169922	0.031738281	-0.760498047	895.88	-52.03830417	-71.70950866	71.65250009	-66
9041	0	0.375976563	-0.092407227	0.072998047	0.999997139	-0.002113342	0.000325203	2.29E-05	9.399414063	-2.310180664	1.824951172	-0.105667195	0.016260159	0.00114441	-0.646728516	0.031738281	-0.760742188	895.86	-52.17386241	-71.6877237	71.54527722	-66
9042	0	0.373239517	-0.09211731	0.071569443	0.99998951	-0.004459381	0.00063324	-8.87E-05	9.33098793	-2.302932739	1.789236069	-0.222969809	0.031662094	-0.004434601	-0.649414063	0.036376953	-0.755126953	895.86	-52.47024842	-71.65497962	71.33196478	-65
9043	0	0.371032715	-0.096130371	0.074829102	0.999988556	-0.004763603	0.000270844	-4.20E-05	9.275817871	-2.403259277	1.870727539	-0.238181064	0.013542227	-0.002098091	-0.647216797	0.042724609	-0.76171875	895.88	-52.91038351	-71.64368882	71.2311396	-65
9044	0	0.373927116	-0.100392342	0.078655243	0.999991417	-0.004055977	0.000274658	-0.000240326	9.34817791	-2.50980854	1.966381073	-0.202799404	0.013732948	-0.01201633	-0.647705078	0.051513672	-0.762207031	895.88	-53.22665168	-71.65039429	71.07989	-65
9045	0	0.373779297	-0.107177734	0.079284668	0.999996185	-0.002486229	-2.29E-05	-0.00030899	9.344482422	-2.679443359	1.982116699	-0.124311577	-0.00114441	-0.01544954	-0.647705078	0.053710938	-0.756835938	895.98	-53.43142533	-71.68357263	71.00423439	-65
9046	0	0.37390995	-0.107211113	0.077391624	0.999999046	9.54E-05	-0.000167847	-6.96E-05	9.347748756	-2.680277824	1.934790611	0.004768372	-0.008392334	-0.003480911	-0.645507813	0.058105469	-0.760009766	895.98	-53.43043016	-71.70429191	71.01212671	-65
9047	0	0.372070313	-0.101867676	0.074157715	0.999999046	0.000526428	-0.000117302	0.00012207	9.301757813	-2.546691895	1.853942871	0.026321412	-0.005865097	0.006103516	-0.645507813	0.055908203	-0.757080078	895.92	-53.40571892	-71.70381948	71.05068042	-65
9048	0	0.376152039	-0.098038673	0.072401047	0.999999046	0.000880241	-0.00022316	5.34E-05	9.403800964	-2.450966835	1.810026169	0.044012076	-0.011157991	0.002670288	-0.647949219	0.055908203	-0.756835938	895.92	-53.35575865	-71.7170696	71.10404285	-65
9049	0	0.37512207	-0.099731445	0.073486328	0.999999046	0.00038147	-0.000117302	-0.000133514	9.378051758	-2.493286133	1.837158203	0.019073487	-0.005865097	-0.00667572	-0.650146484	0.053955078	-0.75390625	895.86	-53.29481193	-71.74031191	71.08981226	-65
9050	0	0.373639107	-0.095789909	0.076521873	0.999999046	9.92E-05	-9.54E-05	9.54E-05	9.340977669	-2.394747734	1.913046837	0.004959106	-0.004768372	0.004768372	-0.647705078	0.051513672	-0.756591797	895.92	-53.30687906	-71.74109459	71.12042106	-65
9051	0	0.375366211	-0.097045898	0.074279785	0.999999046	-0.000461578	5.82E-05	0.000118256	9.384155273	-2.426147461	1.856994629	-0.023078919	0.002908707	0.005912781	-0.647949219	0.053710938	-0.75390625	895.88	-53.34493145	-71.72937794	71.1090856	-65
9052	0	0.37356472	-0.096529007	0.070815086	0.999998093	-0.001789093	0.000401497	7.63E-05	9.339118004	-2.413225174	1.770377159	-0.089454701	0.020074856	0.003814699	-0.647949219	0.055908203	-0.756835938	895.92	-53.43098767	-71.69827192	70.98848745	-65
9053	0	0.372802734	-0.100524902	0.071411133	0.999998093	-0.001490593	0.000160217	2.67E-05	9.320068359	-2.513122559	1.78527832	-0.074529676	0.008010867	0.001335145	-0.647949219	0.055908203	-0.754150391	895.92	-53.54018379	-71.68828305	70.93334852	-65
9054	0	0.374238014	-0.100767136	0.074159622	0.999999046	-0.000513077	1.72E-05	7.15E-05	9.355950356	-2.519178391	1.853990555	-0.02565384	0.000858307	0.003576279	-0.648193359	0.0625	-0.757568359	895.88	-53.58645676	-71.68389345	70.91778939	-64
9055	0	0.374816895	-0.100402832	0.073913574	0.999999046	-0.000171661	-9.82E-05	7.25E-05	9.370422363	-2.510070801	1.847839355	-0.008583069	-0.004911423	0.003623962	-0.648193359	0.060302734	-0.754394531	895.94	-53.62595426	-71.68726521	70.94195018	-65
9056	0	0.373168945	-0.101337433	0.07496357	0.999999046	0.000197411	2.48E-05	-8.49E-05	9.329223633	-2.533435822	1.874089241	0.009870529	0.001239777	-0.004243851	-0.645751953	0.060302734	-0.757324219	895.92	-53.55647609	-71.69668873	70.89259712	-64
9057	0	0.373657227	-0.10144043	0.072570801	0.999999046	0.000656128	-0.000128746	-0.000347137	9.341430664	-2.536010742	1.81427002	0.0328064	-0.006437302	-0.017356874	-0.650390625	0.060546875	-0.757080078	895.8	-53.42327946	-71.74068402	70.83067514	-65
9058	0	0.373073578	-0.099806786	0.071323395	0.999999046	0.000658035	-3.05E-05	-0.000164986	9.326839447	-2.49516964	1.783084869	0.032901766	-0.001525879	-0.008249283	-0.647949219	0.058105469	-0.757080078	895.86	-53.30016749	-71.76122088	70.78039482	-65
9059	0	0.37310791	-0.09777832	0.071289063	0.999999046	0.000888824	-0.000113487	-1.91E-05	9.327697754	-2.444458008	1.782226563	0.044441229	-0.005674363	-0.000953674	-0.645751953	0.058105469	-0.754394531	895.94	-53.20411309	-71.77414048	70.78318706	-65
9060	0	0.375507355	-0.096053123	0.069848061	0.999999046	0.000235558	-0.000135422	-6.48E-05	9.387683868	-2.401328087	1.746201515	0.011777878	-0.006771088	-0.003242493	-0.647705078	0.053710938	-0.756835938	895.92	-53.17965833	-71.79302972	70.7901915	-65
9061	0	0.376831055	-0.100036621	0.075378418	0.999999046	0.000118256	-0.000151634	-0.000133514	9.420776367	-2.500915527	1.884460449	0.005912781	-0.007581711	-0.00667572	-0.647949219	0.055908203	-0.756835938	895.92	-53.15869917	-71.81928691	70.78152464	-65
9062	0	0.370531082	-0.096319199	0.074982643	0.999999046	0.000614166	-0.000160217	-6.58E-05	9.263277054	-2.407979965	1.874566078	0.030708315	-0.008010865	-0.003290177	-0.647949219	0.053710938	-0.75390625	895.88	-53.0970161	-71.83992833	70.7928206	-65
9063	0	0.370910645	-0.097412109	0.072998047	0.999999046	0.000370026	-0.000151634	9.16E-05	9.272766113	-2.435302734	1.824951172	0.018501282	-0.007581711	0.004577637	-0.645507813	0.053710938	-0.759765625	895.92	-53.09389293	-71.84557866	70.831661	-65
9064	0	0.375003815	-0.095903397	0.070817947	0.999999046	0.00051403	-0.000165939	-0.000237465	9.375095367	-2.397584915	1.770448685	0.025701524	-0.008296967	-0.011873246	-0.647705078	0.053710938	-0.756835938	895.86	-53.00923924	-71.88255584	70.80190859	-65
9065	0	0.374694824	-0.097839355	0.071655273	0.999999046	-0.000312805	-1.05E-05	1.53E-05	9.367370605	-2.445983887	1.791381836	-0.015640259	-0.000524521	0.000762939	-0.647705078	0.053710938	-0.756835938	895.86	-53.02922705	-71.88575756	70.78337702	-65
9066	0	0.372251511	-0.099543571	0.071400642	0.999999046	0.000167847	-2.86E-05	0.000220299	9.306287766	-2.488589287	1.78501606	0.008392334	-0.001430511	0.011014938	-0.647705078	0.049316406	-0.756347656	895.86	-53.04280111	-71.87141619	70.82465643	-65
9067	0	0.372375488	-0.096496582	0.072814941	0.999999046	-0.00037384	0.000103951	0.000267029	9.309387207	-2.412414551	1.820373535	-0.018692017	0.005197525	0.013351441	-0.647705078	0.051513672	-0.759521484	895.86	-53.09108069	-71.84372457	70.83338314	-65
9068	0	0.374450684	-0.099304199	0.07244873	0.999999046	-4.10E-05	-1.91E-05	1.14E-05	9.36126709	-2.48260498	1.811218262	-0.0020504	-0.000953674	0.000572205	-0.650146484	0.053955078	-0.75390625	895.92	-53.08215469	-71.84792327	70.82053513	-66
9069	0	0.375656128	-0.099097252	0.074262619	0.999997139	0.000213623	-9.63E-05	7.06E-05	9.391403198	-2.477431297	1.856565475	0.010681152	-0.004816055	0.003528595	-0.647705078	0.053710938	-0.756835938	895.92	-53.07802574	-71.85200074	70.84072552	-66
9070	0	0.373711586	-0.097948074	0.073011398	0.999999046	0.000530243	1.72E-05	0.000426292	9.34278965	-2.448701859	1.825284958	0.026512148	0.000858307	0.021314623	-0.647949219	0.053710938	-0.756835938	895.8	-53.08056336	-71.81570556	70.90570682	-66
9071	0	0.373168945	-0.095581055	0.069702148	0.999999046	0.000450134	0.000138283	0.00043869	9.329223633	-2.389526367	1.742553711	0.022506715	0.006914139	0.021934511	-0.650390625	0.053955078	-0.75390625	895.94	-53.06123529	-71.77015696	70.93988054	-65
9072	0	0.375080109	-0.094564438	0.071354866	0.999999046	0.00045681	-0.000104904	0.000213623	9.377002716	-2.364110947	1.783871651	0.022840501	-0.005245209	0.010681153	-0.650146484	0.051757813	-0.756591797	895.84	-53.06158936	-71.76222078	70.9977263	-65
9073	0	0.377319336	-0.09588623	0.071716309	0.999999046	-0.000190735	6.20E-05	-4.58E-05	9.432983398	-2.397155762	1.792907715	-0.009536743	0.003099442	-0.002288818	-0.647705078	0.051513672	-0.759521484	895.86	-53.03552053	-71.76676663	70.94792153	-65
9074	0	0.372801781	-0.095453262	0.073555946	0.999999046	-0.000118256	4.58E-05	-0.000237465	9.320044518	-2.386331558	1.838898659	-0.005912781	0.002288818	-0.011873245	-0.647705078	0.049316406	-0.756591797	895.86	-52.96516122	-71.79006466	70.8652552	-65
9075	0	0.372924805	-0.096984863	0.072998047	0.999999046	-0.000583649	0.000222206	-0.000247955	9.323120117	-2.424621582	1.824951172	-0.029182436	0.011110307	-0.012397767	-0.650146484	0.053955078	-0.759765625	895.86	-52.89668446	-71.80215356	70.7206631	-65
9076	0	0.375626564	-0.098897934	0.07256031	0.999999046	-0.000212669	0.000209808	-0.00044632	9.390664101	-2.472448349	1.814007759	-0.010633469	0.010490418	-0.02231598	-0.650146484	0.051757813	-0.756591797	895.94	-52.74731398	-71.83315654	70.54074715	-65
9077	0	0.374633789	-0.09777832	0.071228027	0.999999046	-0.000144958	6.96E-05	-0.000141144	9.365844727	-2.444458008	1.780700684	-0.007247925	0.003480911	-0.00705719	-0.647949219	0.053710938	-0.754150391	895.86	-52.69369141	-71.84604577	70.46536408	-66
9078	0	0.371538162	-0.097145081	0.071494102	0.999999046	8.77E-05	-5.72E-05	5.25E-05	9.288454056	-2.428627014	1.787352562	0.004386902	-0.002861023	0.002622604	-0.650146484	0.051757813	-0.759521484	895.8	-52.6898838	-71.85013276	70.47334862	-66
9079	0	0.372741699	-0.095336914	0.07220459	0.999999046	-0.000297546	-4.86E-05	2.67E-05	9.31854248	-2.383422852	1.805114746	-0.01487732	-0.00243187	0.001335144	-0.647949219	0.051513672	-0.756835938	895.86	-52.72237692	-71.85608113	70.47390408	-65
9080	0	0.373353958	-0.099551201	0.073694229	0.999999046	-0.000153542	-5.72E-05	-0.00048542	9.333848953	-2.488780022	1.842355728	-0.007677079	-0.002861023	-0.024271012	-0.645507813	0.051513672	-0.756835938	895.92	-52.63219892	-71.90920332	70.36015937	-66
9081	0	0.376464844	-0.099975586	0.075317383	0.999999046	0.000255585	-4.10E-05	-0.00044632	9.411621094	-2.499389648	1.88293457	0.012779236	-0.0020504	-0.02231598	-0.647949219	0.051513672	-0.756835938	895.94	-52.49837825	-71.95744654	70.24911374	-66
9082	0	0.374484062	-0.099115372	0.075214386	0.999999046	0.00028038	5.34E-05	-2.38E-05	9.362101555	-2.477884293	1.88035965	0.014019013	0.002670288	-0.001192093	-0.650146484	0.051757813	-0.756591797	895.92	-52.42554537	-71.96051573	70.20511783	-66
9083	0	0.374084473	-0.094482422	0.073547363	0.999999046	0.000366211	8.11E-05	8.39E-05	9.352111816	-2.362060547	1.838684082	0.018310547	0.004053116	0.004196167	-0.647705078	0.049316406	-0.759521484	895.92	-52.35811052	-71.95194248	70.17863284	-65
9084	0	0.374789238	-0.094309807	0.072455406	0.999999046	0.000218391	0.000104904	-0.000103951	9.369730949	-2.357745171	1.811385155	0.010919571	0.005245209	-0.005197525	-0.647705078	0.049316406	-0.756591797	895.94	-52.26057945	-71.95886407	70.10277664	-66
9085	0	0.378417969	-0.09576416	0.071899414	0.999999046	0.000175476	5.05E-05	-0.000236511	9.460449219	-2.394104004	1.797485352	0.008773804	0.002527237	-0.011825562	-0.645507813	0.047119141	-0.753662109	895.88	-52.15460006	-71.98171796	70.01576977	-65
9086	0	0.373206139	-0.094585419	0.074288368	0.999999046	0.000490189	1.91E-05	-1.14E-05	9.330153465	-2.364635468	1.857209206	0.024509431	0.000953674	-0.000572205	-0.649902344	0.047363281	-0.759033203	895.94	-52.06964319	-71.98641806	69.98720541	-66
9087	0	0.370788574	-0.093261719	0.073364258	0.999999046	0.000766754	-3.34E-05	0.000102997	9.269714355	-2.331542969	1.834106445	0.038337711	-0.00166893	0.005149842	-0.647460938	0.044921875	-0.761962891	895.92	-51.99219502	-71.98453424	69.99994327	-66
9088	0	0.376205444	-0.092743874	0.070367813	0.999999046	0.000529289	2.86E-05	-0.000374794	9.405136108	-2.31859684	1.759195328	0.026464464	0.001430512	-0.018739702	-0.647705078	0.044921875	-0.756103516	895.86	-51.82100078	-72.02162645	69.88502824	-65
9089	0	0.374633789	-0.096252441	0.071533203	0.999999046	-0.000331879	-7.15E-05	-0.000179291	9.365844727	-2.406311035	1.788330078	-0.016593934	-0.003576279	-0.008964539	-0.647460938	0.044921875	-0.759033203	895.86	-51.81909512	-72.04819785	69.84326954	-66
9090	0	0.373884201	-0.094033241	0.075932503	0.999999046	0.000400543	-9.54E-05	0.000170708	9.347105026	-2.350831032	1.898312569	0.020027161	-0.004768372	0.008535385	-0.649902344	0.04296875	-0.755859375	895.86	-51.81602224	-72.04491487	69.89404361	-65
9091	0	0.373596191	-0.09197998	0.074462891	0.999999046	-8.39E-05	-9.82E-05	0.000255585	9.339904785	-2.299499512	1.861572266	-0.004196167	-0.004911423	0.012779236	-0.649658203	0.04296875	-0.76171875	895.86	-51.8874254	-72.03427878	69.96290803	-65
9092	0	0.37392807	-0.094442368	0.072236061	0.999999046	-0.000449181	8.01E-05	-6.87E-05	9.348201752	-2.361059189	1.805901527	-0.022459031	0.004005432	-0.003433228	-0.647460938	0.044921875	-0.759033203	895.94	-51.88049565	-72.04033175	69.9021765	-65
9093	0	0.37487793	-0.095581055	0.073242188	0.999999046	-0.000205994	-0.000285149	0.000125885	9.371948242	-2.389526367	1.831054688	-0.010299683	-0.014257431	0.006294251	-0.647460938	0.042724609	-0.758789063	895.88	-51.98995618	-72.05467552	69.99796093	-66
9094	0	0.373921394	-0.093997955	0.076468468	0.999999046	0.000164032	-0.000143051	0.000323296	9.348034859	-2.349948883	1.911711693	0.008201599	-0.007152558	0.01616478	-0.65234375	0.045166016	-0.758789063	895.86	-52.05997004	-72.04108708	70.09469596	-65
9095	0	0.374572754	-0.092956543	0.074890137	0.999999046	5.72E-05	-0.00014782	0.000106812	9.364318848	-2.323913574	1.872253418	0.002861023	-0.007390976	0.005340576	-0.650146484	0.047363281	-0.756347656	895.94	-52.0960802	-72.04744138	70.13775895	-65
9096	0	0.374025345	-0.094431877	0.074422836	0.999999046	-0.000100136	5.72E-05	-0.000133514	9.350633621	-2.360796928	1.860570908	-0.00500679	0.002861023	-0.00667572	-0.649902344	0.045166016	-0.759033203	895.84	-52.04057682	-72.0610861	70.06874139	-65
9097	0	0.376586914	-0.094604492	0.073669434	0.999999046	-0.000621796	4.77E-06	-7.25E-05	9.414672852	-2.365112305	1.84173584	-0.031089785	0.000238419	-0.003623963	-0.649902344	0.04296875	-0.758789063	895.8	-52.07268278	-72.07296802	70.03500738	-66
9098	0	0.371228218	-0.094460487	0.074164391	0.999999046	-0.000658035	9.92E-05	-0.000202179	9.280705452	-2.361512184	1.854109764	-0.032901767	0.004959107	-0.010108949	-0.647460938	0.044921875	-0.759033203	895.84	-52.05414255	-72.08988413	69.93942418	-66
9099	0	0.371948242	-0.095458984	0.073913574	0.999999046	-0.000419617	8.58E-06	-0.000621796	9.298706055	-2.386474609	1.847839355	-0.020980837	0.000429153	-0.031089786	-0.650146484	0.047363281	-0.756347656	895.84	-51.94160717	-72.15098478	69.77076188	-65
9100	0	0.376461029	-0.096212387	0.072495461	0.999999046	4.67E-05	-0.000259399	-0.000782967	9.411525726	-2.405309677	1.812386513	0.002336502	-0.012969972	-0.039148335	-0.649902344	0.045166016	-0.756103516	895.8	-51.81452305	-72.24546493	69.64459109	-65
9101	0	0.376953125	-0.094482422	0.072143555	0.999999046	-0.000278473	-0.000197411	-0.000328064	9.423828125	-2.362060547	1.803588867	-0.013923646	-0.00987053	-0.016403199	-0.652099609	0.04296875	-0.755859375	895.86	-51.80738421	-72.29458897	69.61057114	-65
9102	0	0.374418259	-0.093301773	0.073407173	0.999999046	-0.00019455	-0.000139236	7.92E-05	9.360456467	-2.332544327	1.835179329	-0.009727478	-0.006961823	0.003957748	-0.649658203	0.04296875	-0.76171875	895.88	-51.86448709	-72.30291255	69.65074383	-65
9103	0	0.374633789	-0.09197998	0.072143555	0.999999046	-0.000564575	-2.19E-05	9.54E-05	9.365844727	-2.299499512	1.803588867	-0.028228761	-0.001096726	0.004768372	-0.65234375	0.045166016	-0.755859375	895.86	-51.93441767	-72.30155975	69.66080036	-65
9104	0	0.374435425	-0.094087601	0.072751999	0.999999046	-0.000878334	-2.67E-05	-4.96E-05	9.36088562	-2.352190018	1.818799973	-0.043916708	-0.001335144	-0.002479554	-0.649902344	0.045166016	-0.759033203	895.98	-52.0096274	-72.31361533	69.63826689	-65
9105	0	0.37487793	-0.096435547	0.074951172	0.999999046	-0.00050354	-0.000224113	-6.10E-05	9.371948242	-2.410888672	1.873779297	-0.025177003	-0.011205674	-0.003051758	-0.650146484	0.047363281	-0.753417969	895.92	-52.09535205	-72.34046456	69.67031444	-65
9106	0	0.374069214	-0.096956253	0.076882362	0.999999046	0.000144958	-0.000167847	1.43E-05	9.351730347	-2.423906326	1.922059059	0.007247925	-0.008392334	0.000715256	-0.649902344	0.045166016	-0.759033203	895.92	-52.10730158	-72.35627452	69.70436505	-65
9107	0	0.375	-0.093566895	0.072509766	0.999999046	0.000499725	-8.68E-05	-8.39E-05	9.375	-2.339172363	1.812744141	0.024986268	-0.004339218	-0.004196167	-0.652587891	0.047363281	-0.750488281	895.94	-52.03377621	-72.37527251	69.68941435	-65
9108	0	0.373806953	-0.093188286	0.072719574	0.999999046	-0.00024128	-6.29E-05	-0.00018692	9.345173836	-2.329707146	1.817989349	-0.01206398	-0.003147125	-0.009346008	-0.649902344	0.045166016	-0.756103516	895.98	-52.01537519	-72.40188654	69.64399655	-65
9109	0	0.375671387	-0.096252441	0.073059082	0.999999046	-0.00062561	0.000126839	-0.000507355	9.391784668	-2.406311035	1.826477051	-0.031280521	0.006341935	-0.02536774	-0.649902344	0.047363281	-0.759033203	895.86	-51.91556775	-72.44389793	69.46183786	-65
9110	0	0.370314598	-0.09389782	0.076147079	0.999999046	0.000324249	-0.000213623	-0.000622749	9.257864952	-2.347445488	1.903676987	0.016212465	-0.010681153	-0.031137469	-0.649902344	0.047363281	-0.759033203	895.92	-51.77693366	-72.52008899	69.35006083	-65
9111	0	0.365905762	-0.09197998	0.073059082	0.999999046	-2.67E-05	-0.000201225	-0.000671387	9.147644043	-2.299499512	1.826477051	-0.001335144	-0.010061265	-0.033569339	-0.649902344	0.045166016	-0.759033203	895.84	-51.66281596	-72.59957441	69.22430369	-65
9112	0	0.37405777	-0.094717026	0.073390961	0.999999046	3.53E-05	-0.000648499	-0.001084328	9.351444244	-2.367925644	1.834774017	0.001764298	-0.032424935	-0.054216399	-0.649902344	0.04296875	-0.758789063	895.86	-51.57507975	-72.7477682	69.13422684	-66
9113	0	0.375183105	-0.099914551	0.074462891	0.999998093	-0.000914574	-0.000579834	-0.001220703	9.379577637	-2.49786377	1.861572266	-0.045728704	-0.028991712	-0.061035183	-0.65234375	0.04296875	-0.752929688	895.94	-51.5441059	-72.90288147	68.99176696	-66
9114	0	0.372418404	-0.106772423	0.074322701	0.999998093	0.000443459	-0.001063347	-0.001401901	9.310460091	-2.66931057	1.858067513	0.02217294	-0.053167372	-0.070095101	-0.654541016	0.040771484	-0.755615234	895.94	-51.45638258	-73.10794876	68.95069922	-66
9115	0	0.366577148	-0.097106934	0.07635498	0.999998093	-0.00065136	-0.000835419	-0.001617432	9.164428711	-2.42767334	1.908874512	-0.032567998	-0.041770961	-0.080871632	-0.654541016	0.038818359	-0.749511719	895.88	-51.37390217	-73.31543984	68.78675402	-66
9116	0	0.362859726	-0.111479759	0.078532219	0.999995232	-0.002398491	-0.000659943	-0.001257896	9.071493149	-2.78699398	1.963305473	-0.119924701	-0.032997174	-0.062894903	-0.656982422	0.041015625	-0.749755859	895.84	-51.52491797	-73.47691482	68.65720602	-67
9117	0	0.370483398	-0.114318848	0.077758789	0.999997139	-0.001502991	-0.000727654	-0.0014534	9.262084961	-2.857971191	1.943969727	-0.075149598	-0.036382705	-0.072670042	-0.656982422	0.041015625	-0.746826172	895.92	-51.54783887	-73.65952817	68.50169046	-70
9118	0	0.372883797	-0.11408329	0.078396797	0.999997139	-0.001111984	-0.000400543	-0.001621246	9.322094917	-2.852082253	1.95991993	-0.05559925	-0.020027174	-0.081062371	-0.659423828	0.041015625	-0.746582031	895.88	-51.38334901	-73.83248719	68.1973913	-74
9119	0	0.372924805	-0.104553223	0.076965332	0.999998093	-0.000369072	-0.00037384	-0.001556396	9.323120117	-2.613830566	1.924133301	-0.018453606	-0.018692025	-0.077819859	-0.659179688	0.038818359	-0.743652344	895.86	-51.13691429	-73.99651262	67.89839977	-72
9120	0	0.369697571	-0.101931572	0.074598312	0.999997139	-0.000525475	-0.000431061	-0.001719475	9.24243927	-2.548289299	1.864957809	-0.026273742	-0.021553052	-0.085973789	-0.661621094	0.036865234	-0.74609375	895.8	-50.88003762	-74.17799827	67.57085647	-79
9121	0	0.369445801	-0.101135254	0.072631836	0.999996185	-0.001204491	-0.000617981	-0.002223969	9.23614502	-2.528381348	1.815795898	-0.060224601	-0.030899083	-0.111198551	-0.661376953	0.036865234	-0.749023438	895.92	-50.62365603	-74.41662605	67.15881095	-72
9122	0	0.366699219	-0.106018066	0.074951172	0.999993324	-0.001304626	-0.000930786	-0.003253937	9.167480469	-2.65045166	1.873779297	-0.065231466	-0.046539409	-0.162697195	-0.661376953	0.032470703	-0.748779297	895.92	-50.19444131	-74.76726278	66.55924937	-69
9123	0	0.362365723	-0.105102539	0.079223633	0.999990463	-0.000864983	-0.001266479	-0.003936768	9.059143066	-2.627563477	1.98059082	-0.043249259	-0.063324163	-0.196838965	-0.663574219	0.030273438	-0.748291016	896	-49.61021288	-75.19973895	65.84842318	-68
9124	0	0.365989685	-0.108160019	0.077985764	0.99998951	-0.000290871	-0.001325607	-0.004315376	9.149742126	-2.704000473	1.949644089	-0.014543583	-0.066280591	-0.21576955	-0.668212891	0.026123047	-0.744873047	895.92	-48.830825	-75.66577463	65.00466564	-70
9125	0	0.368103027	-0.104187012	0.076599121	0.999986649	-0.000483513	-0.001487732	-0.004768372	9.202575684	-2.604675293	1.914978027	-0.024175745	-0.074386909	-0.23841958	-0.670166016	0.01953125	-0.744384766	895.88	-47.93665574	-76.17842116	64.0229428	-80
9126	0	0.362266541	-0.104475975	0.077311516	0.999985695	-0.000879288	-0.001405716	-0.004985809	9.056663513	-2.611899376	1.932787895	-0.043964588	-0.070286121	-0.249291613	-0.672363281	0.013183594	-0.738037109	895.98	-46.91853394	-76.69737997	62.87283124	-69
9127	0	0.35736084	-0.102539063	0.072692871	0.999984741	-0.000823021	-0.00157547	-0.005111694	8.934020996	-2.563476563	1.817321777	-0.041151248	-0.078773883	-0.255585964	-0.674560547	0.008789063	-0.740234375	895.92	-45.82692219	-77.23355814	61.65200396	-66
9128	0	0.354765892	-0.103134155	0.075431824	0.999980927	-0.001268387	-0.001599312	-0.005710602	8.869147301	-2.578353882	1.885795593	-0.063419731	-0.079966082	-0.285531841	-0.678955078	0.000244141	-0.736572266	895.88	-44.47355334	-77.8125093	60.12072472	-70
9129	0	0.352111816	-0.105712891	0.07409668	0.999978065	-0.000743866	-0.001959801	-0.006141663	8.80279541	-2.642822266	1.852416992	-0.037193559	-0.097990724	-0.307085285	-0.68359375	-0.004150391	-0.730224609	895.82	-42.88164568	-78.44471144	58.40613472	-69
9130	0	0.348107338	-0.104795456	0.075322151	0.999977112	0.000189781	-0.002369881	-0.006297112	8.702683449	-2.619886398	1.88305378	0.009489131	-0.118494929	-0.314857953	-0.685546875	-0.012695313	-0.7265625	895.88	-41.08670637	-79.11084287	56.59647915	-66
9131	0	0.339660645	-0.099487305	0.073913574	0.999976158	5.72E-05	-0.002585411	-0.006332397	8.491516113	-2.487182617	1.847839355	0.002861045	-0.129271562	-0.316622342	-0.689941406	-0.021484375	-0.728515625	895.88	-39.15064928	-79.7844579	54.63011477	-75
9132	0	0.334661484	-0.097570419	0.074944496	0.999973297	-0.000150681	-0.002678871	-0.006774902	8.366537094	-2.439260483	1.873612404	-0.007534094	-0.133944743	-0.338748115	-0.691894531	-0.034423828	-0.721435547	895.88	-36.77150338	-80.48140362	52.20396351	-65
9133	0	0.333862305	-0.097412109	0.072692871	0.999967575	-9.06E-05	-0.002883911	-0.007488251	8.346557617	-2.435302734	1.817321777	-0.004530002	-0.144197104	-0.374416555	-0.696044922	-0.045166016	-0.720458984	895.86	-33.6675246	-81.22171973	49.05584221	-73
9134	0	0.325390816	-0.096533775	0.072389603	0.999959946	-0.000317574	-0.003060341	-0.008358002	8.134770393	-2.413344383	1.809740067	-0.015878887	-0.153019067	-0.41790561	-0.700195313	-0.056152344	-0.719238281	895.86	-29.49931436	-81.9959643	44.81037034	-64
9135	0	0.312625885	-0.094829559	0.071481705	0.999959946	-0.000519753	-0.00330925	-0.008282661	7.815647125	-2.370738983	1.787042618	-0.025987971	-0.165464695	-0.414138582	-0.70703125	-0.068847656	-0.712158203	895.82	-24.65999022	-82.73827186	39.8787539	-81
9136	0	0.309171677	-0.097310066	0.072086334	0.999958992	-6.01E-05	-0.003551483	-0.008265495	7.729291916	-2.432751656	1.802158356	-0.003004115	-0.177576553	-0.41328034	-0.708740234	-0.08203125	-0.708007813	895.86	-18.82385091	-83.43906614	34.00751014	-67
9137	0	0.300842285	-0.101257324	0.07409668	0.999967575	0.002026558	-0.003707886	-0.00674057	7.521057129	-2.531433105	1.852416992	0.101328965	-0.185396243	-0.337032059	-0.712890625	-0.097167969	-0.706542969	895.92	-13.13468622	-84.0314304	28.53771356	-63
9138	0	0.295107841	-0.09781456	0.081231117	0.99998188	0.002405167	-0.003408432	-0.004294395	7.377696037	-2.445363998	2.030777931	0.12025905	-0.170422618	-0.214721055	-0.717285156	-0.107910156	-0.699707031	895.88	-9.126752961	-84.4798676	24.81112124	-72
9139	0	0.324279785	-0.115661621	0.114501953	0.999962807	0.008518219	0.000195503	-0.001041412	8.106994629	-2.891540527	2.862548828	0.42591618	0.009775282	-0.052071257	-0.721435547	-0.12109375	-0.701416016	895.94	-7.282104346	-84.44155654	23.96022182	-70
9140	0	0.333162308	-0.073792458	0.164135933	0.999417305	0.033022881	0.004896164	0.007051468	8.329057693	-1.84481144	4.103398323	1.651464574	0.244855723	0.352641842	-0.718261719	-0.138671875	-0.699951172	895.88	-10.70414533	-83.71786268	31.16270109	-70
9141	0	0.479125977	-0.033935547	0.265563965	0.99789238	0.033158302	0.036418915	0.042228699	11.97814941	-0.848388672	6.639099121	1.659080372	1.822225581	2.112918947	-0.709472656	-0.176269531	-0.703125	895.88	-27.23190258	-78.04553812	51.92836924	-70
9142	0	0.643823624	-0.196365356	0.561804771	0.992959023	0.006702423	0.089164734	0.077685356	16.09559059	-4.909133911	14.04511929	0.335909785	4.468728126	3.893408535	-0.651611328	-0.130615234	-0.775878906	895.88	-33.83615507	-64.57685598	60.19421289	-75
9143	0	0.022827148	-0.178771973	0.688110352	0.989398003	0.035705566	0.122258186	0.069778442	0.570678711	-4.469299316	17.20275879	1.791614185	6.134603732	3.501304133	-0.490722656	-0.051269531	-0.894287109	895.98	-28.95391757	-48.28587357	59.75400198	-78
9144	0	-0.568807602	0.268805504	0.34376812	0.99047184	0.058918953	0.115829468	0.045570374	-14.22019005	6.720137596	8.594202995	2.955339457	5.80993686	2.285782694	-0.262207031	-0.0859375	-0.989501953	895.88	-21.30489375	-33.87710238	58.74871032	-69
9145	0	-0.530761719	0.051391602	0.085998535	0.995034218	0.063983917	0.076104164	-0.004585266	-13.26904297	1.284790039	2.149963379	3.204501855	3.811519295	-0.229643548	-0.056152344	-0.172119141	-1.016601563	895.94	-12.19389666	-25.50818031	54.98797907	-67
9146	0	-0.234715462	-0.067061424	-0.66123867	0.986647606	0.12317276	0.008089066	-0.106249809	-5.867886543	-1.676535606	-16.53096676	6.186195553	0.406263051	-5.336261828	0.078369141	-0.389160156	-0.946044922	895.92	7.798900313	-24.8926911	40.73068445	-72
9147	0	0.364379883	-1.196289063	-0.885803223	0.993370056	0.02121067	-0.041179657	-0.105213165	9.10949707	-29.90722656	-22.14508057	1.062883433	-2.063545103	-5.272314728	0.184814453	-0.482177734	-0.892578125	895.82	16.38336266	-26.89971525	26.12819191	-84
9148	0	2.281703949	1.123215675	1.251185417	0.937065125	0.305896759	-0.160479546	0.050806046	57.04259872	28.08039188	31.27963543	15.62399557	-8.196659935	2.594971691	0.139648438	-0.616210938	-0.813476563	895.86	57.12528612	-45.24461569	15.66773486	-73
9149	0	2.667236328	3.200012207	-0.856628418	0.997459412	0.057801247	-0.006790161	-0.041072845	66.6809082	80.00030518	-21.41571045	2.892511992	-0.339795829	-2.055382971	-0.096435547	-1.000976563	-0.205078125	895.88	66.58896664	-41.45871854	12.42647802	-75
9150	0	0.207866669	0.146885872	-0.262938499	0.973661423	-0.195607185	0.035243034	-0.11170578	5.196666718	3.672146797	-6.573462486	-9.867139434	1.777787117	-5.634846722	0.059570313	-0.963378906	-0.354003906	895.98	46.5562691	-28.51791602	8.38600348	-76
9151	0	0.248962402	-0.278625488	0.021362305	0.992055893	-0.062922478	-0.008533478	-0.108589172	6.224060059	-6.965637207	0.534057617	-3.154480733	-0.427807236	-5.44388054	0.280273438	-0.725341797	-0.671875	895.92	43.69981341	-20.36501028	-2.114637021	-75
9152	0	0.147479057	-0.180847168	0.007545471	0.997899055	-0.013226509	-0.029598236	-0.056092262	3.686976433	-4.521179199	0.18863678	-0.661788965	-1.480949046	-2.806578813	0.371337891	-0.636474609	-0.721435547	895.98	44.69602837	-18.326278	-9.55691804	-70
9153	0	0.088928223	-0.161376953	0.347595215	0.99963665	-0.015445709	-0.021101952	-0.006496429	2.223205566	-4.034423828	8.689880371	-0.772378947	-1.0552253	-0.324860792	0.385742188	-0.573730469	-0.758789063	895.88	43.72991175	-19.55223499	-11.93424583	-70
9154	0	0.090173721	0.107838631	0.482681274	0.999534607	0.014367104	-0.014584541	0.022612572	2.254343033	2.695965767	12.06703186	0.718466625	-0.729340198	1.130803992	0.348388672	-0.568115234	-0.780029297	896	45.1433505	-22.567532	-11.23430371	-70
9155	0	0.17364502	0.24621582	0.245849609	0.99916935	0.014141083	-0.015101433	0.0350914	4.341125488	6.155395508	6.146240234	0.707249835	-0.755280628	1.755055634	0.298339844	-0.612548828	-0.765136719	895.92	46.07033066	-26.66155267	-9.521940418	-72
9156	0	0.218899727	0.332492828	0.133111	0.999212265	0.011665344	-0.016472816	0.034162521	5.472493172	8.312320709	3.327775002	0.583420381	-0.823857115	1.70857463	0.233886719	-0.643066406	-0.761962891	895.98	46.71226942	-30.81072812	-8.027563749	-72
9157	0	0.258789063	0.417663574	0.15411377	0.999357224	0.021092415	-0.016090393	0.024105072	6.469726563	10.44158936	3.852844238	1.054846711	-0.804692034	1.205511844	0.164794922	-0.680175781	-0.749267578	895.98	48.86491063	-34.10805825	-7.481731398	-71
9158	0	0.283169746	0.342648506	0.230045319	0.99987793	0.010308266	-0.007264137	0.009173393	7.07924366	8.566212654	5.751132965	0.515434176	-0.363221586	0.458688254	0.12109375	-0.713623047	-0.718505859	896	50.06056211	-35.45985934	-7.451436139	-72
9159	0	0.241577148	0.31262207	0.196899414	0.999970436	-0.006439209	0.000981331	0.004081726	6.039428711	7.815551758	4.922485352	-0.32196362	0.049067027	0.204088314	0.104980469	-0.724121094	-0.719726563	895.94	49.09588143	-35.75366213	-7.001248113	-72
9160	0	0.210436821	0.281984329	0.162879944	0.999712944	-0.023528099	0.0039711	0.001673698	5.260920525	7.049608231	4.071998596	-1.17651716	0.198573931	0.083692903	0.104492188	-0.706542969	-0.732421875	896.1	46.11963415	-35.59818891	-6.450407346	-71
9161	0	0.225036621	0.204772949	0.211975098	0.999667168	-0.025733948	0.001233101	0.00069046	5.625915527	5.11932373	5.299377441	-1.286839875	0.061661872	0.034526833	0.105712891	-0.665283203	-0.767333984	895.94	43.1113705	-35.56338349	-6.283411945	-69
9162	0	0.274305344	0.199975014	0.264559746	0.999995232	-0.002456665	-0.000169754	-0.001355171	6.857633591	4.999375343	6.613993645	-0.122833414	-0.008487713	-0.067758649	0.107177734	-0.634765625	-0.790039063	895.94	42.96913096	-35.48315189	-6.478098047	-69
9163	0	0.247436523	0.207397461	0.258361816	0.999978065	0.003074646	0.005314827	0.002090454	6.185913086	5.184936523	6.45904541	0.153733378	0.265743212	0.104523438	0.114501953	-0.639404297	-0.790039063	895.98	42.94846941	-35.21232485	-5.792530324	-70
9164	0	0.202449799	0.235910416	0.179599762	0.999933243	-0.007003784	0.007248878	0.005494118	5.061244965	5.897760391	4.489994049	-0.350196901	0.362451885	0.274711921	0.116943359	-0.639404297	-0.790283203	896.04	41.47248527	-35.03160791	-4.572036571	-70
9165	0	0.219970703	0.287536621	0.177490234	0.999725342	-0.022246361	0.003696442	0.00636673	5.499267578	7.188415527	4.437255859	-1.11241986	0.184839001	0.318365627	0.12109375	-0.622070313	-0.803222656	895.92	38.39032878	-35.18665233	-3.578045426	-70
9166	0	0.246153831	0.1618433	0.314576149	0.999300957	-0.037242889	0.001132965	0.002871513	6.153845787	4.046082497	7.864403725	-1.862578176	0.056661448	0.143609108	0.119628906	-0.576171875	-0.832763672	895.92	33.92628165	-35.287681	-3.167906714	-72
9167	0	0.219116211	0.056091309	0.33203125	0.999928474	-0.011535645	-0.001643181	-0.002521515	5.477905273	1.402282715	8.30078125	-0.57679589	-0.082160989	-0.126078731	0.117919922	-0.519287109	-0.871582031	895.98	32.88533028	-35.2975281	-3.625986883	-73
9168	0	0.201426506	0.104566574	0.261207581	0.999818802	0.017673492	-0.005194664	-0.004794121	5.035662651	2.614164352	6.530189514	0.883727993	-0.259748887	-0.239720517	0.117919922	-0.519287109	-0.871582031	895.98	35.50405722	-35.49238035	-4.647629041	-72
9169	0	0.233886719	0.208496094	0.257019043	0.999816895	0.017342567	-0.007408142	-0.00315094	5.847167969	5.212402344	6.425476074	0.867181214	-0.370429677	-0.157556598	0.111816406	-0.552001953	-0.848632813	896	38.09886633	-35.96574024	-5.676178418	-72
9170	0	0.247721672	0.233262062	0.258705139	0.999982834	-0.002017021	-0.00534153	-0.000476837	6.193041801	5.831551552	6.467628479	-0.100851611	-0.267077954	-0.023841988	0.100585938	-0.571289063	-0.837890625	895.98	38.21049476	-36.42190228	-6.224772625	-72
9171	0	0.229248047	0.199401855	0.261108398	0.999950409	-0.009665489	-0.001922607	0.001399994	5.731201172	4.985046387	6.527709961	-0.483282441	-0.096131959	0.070000851	0.095947266	-0.562255859	-0.849853516	895.92	37.14238111	-36.70179867	-6.257370335	-72
9172	0	0.229961395	0.189556122	0.253324509	0.999991417	-0.002884865	0.000873566	0.002729416	5.749034882	4.738903046	6.333112717	-0.144243638	0.043678404	0.136471171	0.090576172	-0.546875	-0.853515625	896	36.61296249	-36.81641209	-5.899552115	-72
9173	0	0.239074707	0.20690918	0.241516113	0.999987602	0.001644135	0.002877235	0.003528595	5.976867676	5.172729492	6.037902832	0.082207047	0.143862332	0.176430438	0.090576172	-0.546875	-0.856445313	895.86	36.44474126	-36.799076	-5.281745286	-72
9174	0	0.243587494	0.208011627	0.246015549	0.999982834	-0.002789497	0.003659248	0.003418922	6.089687347	5.20029068	6.150388718	-0.139475633	0.18296342	0.170947057	0.093017578	-0.546875	-0.856689453	895.94	35.73791032	-36.69796004	-4.607828022	-72
9175	0	0.242919922	0.18145752	0.254821777	0.999977112	-0.005637169	0.002872467	0.00214386	6.072998047	4.536437988	6.370544434	-0.281860541	0.14362442	0.10719379	0.09765625	-0.542724609	-0.860107422	895.94	34.8339403	-36.57839961	-4.145800273	-72
9176	0	0.234352112	0.166200638	0.258554459	0.999998093	-0.001531601	0.000432014	0.000451088	5.858802795	4.155015945	6.463861465	-0.076580083	0.021600733	0.022554408	0.097167969	-0.531738281	-0.863769531	895.92	34.63691816	-36.57442719	-4.087405861	-72
9177	0	0.232971191	0.172241211	0.25567627	0.999990463	0.003647804	-0.002056122	-0.000953674	5.824279785	4.306030273	6.391906738	0.182390774	-0.102806407	-0.047683862	0.099609375	-0.531738281	-0.866699219	896	35.25190786	-36.71195175	-4.401403004	-71
9178	0	0.242264748	0.191534042	0.254451752	0.999984741	0.004612923	-0.002680779	-0.001182556	6.05661869	4.788351059	6.361293793	0.230647281	-0.134039592	-0.059128102	0.095214844	-0.540527344	-0.863037109	895.94	36.02673787	-36.88922319	-4.795213342	-72
9179	0	0.243286133	0.199035645	0.256408691	0.999997139	0.001213074	-0.001475334	-0.001205444	6.08215332	4.975891113	6.410217285	0.060653738	-0.073766771	-0.060272268	0.093017578	-0.546875	-0.856689453	895.98	36.35443936	-36.95005486	-5.086770856	-72
9180	0	0.24005127	0.190903664	0.258412361	0.999999046	-8.87E-05	-2.86E-05	-0.000793457	6.001281738	4.772591591	6.460309029	-0.004434586	-0.001430512	-0.039672856	0.093017578	-0.546875	-0.853759766	895.94	36.4299909	-36.90414857	-5.205986169	-72
9181	0	0.232727051	0.18560791	0.256225586	0.999999046	-0.000102997	0.000901222	7.63E-06	5.81817627	4.640197754	6.405639648	-0.005149842	0.045061118	0.00038147	0.090820313	-0.549072266	-0.859130859	896.04	36.39998727	-36.82638594	-5.153871183	-72
9182	0	0.234951973	0.182254791	0.257357597	0.999997139	-0.00160408	0.001150131	0.000513077	5.873799324	4.556369781	6.433939934	-0.080204066	0.057506601	0.025653857	0.095214844	-0.546875	-0.853759766	895.94	36.1495606	-36.75937135	-5.018747661	-72
9183	0	0.238098145	0.177612305	0.256835938	0.999999046	-0.000705719	0.000527382	0.000843048	5.952453613	4.440307617	6.420898438	-0.035285958	0.026369101	0.042152415	0.095214844	-0.544921875	-0.859619141	895.98	36.00968608	-36.77180483	-4.90025382	-72
9184	0	0.238708496	0.185302734	0.252868652	0.999999046	0.000264168	-0.000175476	0.000972748	5.967712402	4.632568359	6.321716309	0.013208392	-0.008773805	0.048637399	0.09765625	-0.547119141	-0.859619141	896.06	36.00665982	-36.85786032	-4.824354273	-72
9185	0	0.241943359	0.192687988	0.253723145	0.999999046	5.72E-05	-0.000212669	0.000518799	6.048583984	4.817199707	6.343078613	0.002861023	-0.010633469	0.025939943	0.095214844	-0.542724609	-0.856933594	896	36.01302404	-36.91660186	-4.805681363	-72
9186	0	0.239749908	0.192346573	0.256222725	1	-4.48E-05	-6.68E-06	3.43E-05	5.993747711	4.808664322	6.405568123	-0.002241135	-0.000333786	0.001716614	0.092773438	-0.542480469	-0.859863281	896.04	36.03066764	-36.92324814	-4.826717403	-72
9187	0	0.234313965	0.18927002	0.254516602	0.999999046	-1.91E-05	0.000172615	-0.000465393	5.857849121	4.731750488	6.362915039	-0.000953674	0.008630753	-0.023269654	0.095214844	-0.544921875	-0.862548828	895.94	36.07653318	-36.87907958	-4.889421252	-72
9188	0	0.233078003	0.183312416	0.256922722	0.999999046	0.000445366	0.000164032	-0.000400543	5.826950073	4.582810402	6.423068047	0.022268297	0.0082016	-0.020027162	0.097412109	-0.542724609	-0.857177734	896	36.17064928	-36.83956331	-4.944243196	-72
9189	0	0.238098145	0.18359375	0.256835938	0.999999046	0.000392914	8.11E-05	-3.81E-06	5.952453613	4.58984375	6.420898438	0.019645691	0.004053116	-0.000190735	0.09765625	-0.544921875	-0.856933594	896	36.2346033	-36.83428254	-4.958655085	-72
9190	0	0.241534233	0.184651375	0.256790161	0.999999046	-0.000196457	0.000198364	0.000342369	6.038355827	4.61628437	6.419754028	-0.009822846	0.009918213	0.017118455	0.09765625	-0.544921875	-0.859863281	896.06	36.20033244	-36.84150301	-4.923523928	-72
9191	0	0.237243652	0.186340332	0.255981445	0.999999046	-0.000457764	9.63E-05	0.000488281	5.931091309	4.658508301	6.399536133	-0.022888185	0.004816056	0.024414064	0.095214844	-0.544921875	-0.856933594	895.98	36.13054765	-36.86771254	-4.877970721	-72
9192	0	0.236644745	0.187277794	0.256381035	0.999999046	-0.000166893	0.000234604	0.00018692	5.916118622	4.681944847	6.409525871	-0.00834465	0.011730194	0.009346008	0.09765625	-0.544921875	-0.856933594	895.98	36.10744905	-36.86039839	-4.854986969	-72
9193	0	0.235107422	0.189880371	0.254577637	0.999999046	-5.72E-05	0.000344276	-0.000171661	5.877685547	4.747009277	6.364440918	-0.002861023	0.017213822	-0.008583069	0.09765625	-0.542724609	-0.860107422	896	36.11593899	-36.81833328	-4.866560725	-72
9194	0	0.235417366	0.187368393	0.254515648	0.999999046	-0.000205994	0.000242233	-0.000210762	5.885434151	4.684209824	6.362891197	-0.010299683	0.012111664	-0.010538101	0.099853516	-0.542724609	-0.860107422	896.1	36.11480965	-36.78276023	-4.890406672	-72
9195	0	0.236022949	0.184020996	0.255615234	0.999999046	0.000396729	-3.72E-05	-0.000293732	5.90057373	4.600524902	6.390380859	0.019836427	-0.001859665	-0.014686585	0.099853516	-0.542724609	-0.860107422	896.06	36.20194472	-36.7671871	-4.947380422	-72
9196	0	0.23651123	0.186340332	0.255249023	0.999999046	0.000638008	-0.000205994	-0.000179291	5.912780762	4.658508301	6.381225586	0.031900408	-0.010299683	-0.008964539	0.099853516	-0.542724609	-0.857177734	896.06	36.31683717	-36.77466206	-5.004612532	-72
9197	0	0.237304688	0.186279297	0.257202148	0.999999046	-4.58E-05	-0.000189781	-9.16E-05	5.932617188	4.656982422	6.430053711	-0.002288818	-0.00948906	-0.004577637	0.097412109	-0.540527344	-0.863037109	896.06	36.34589585	-36.78631364	-5.053446749	-72
9198	0	0.237063408	0.187030792	0.258166313	0.999999046	6.68E-05	4.58E-05	-5.05E-05	5.926585197	4.675769806	6.454157829	0.00333786	0.002288818	-0.002527237	0.097412109	-0.540527344	-0.860107422	896	36.37246036	-36.77870246	-5.075714231	-72
9199	0	0.23626709	0.188232422	0.255615234	0.999999046	-0.000183105	0.000302315	-7.25E-05	5.906677246	4.705810547	6.390380859	-0.009155274	0.015115738	-0.003623962	0.099853516	-0.544921875	-0.854248047	896	36.35843802	-36.74564072	-5.072917455	-72
9200	0	0.234926224	0.18591404	0.255579948	0.999999046	-0.000113487	0.000217438	-0.000164032	5.873155594	4.64785099	6.389498711	-0.005674362	0.010871887	-0.008201599	0.099853516	-0.542724609	-0.857177734	895.94	36.36245896	-36.71394035	-5.0900349	-72
9201	0	0.235900879	0.186950684	0.254577637	0.999999046	0.000343323	-3.72E-05	-0.000160217	5.897521973	4.67376709	6.364440918	0.017166138	-0.001859665	-0.008010864	0.097412109	-0.542724609	-0.857177734	895.94	36.43101193	-36.70578475	-5.128574765	-72
9202	0	0.236958504	0.186896324	0.25595665	0.999999046	0.000148773	-0.000198364	4.58E-05	5.923962593	4.672408104	6.398916245	0.00743866	-0.009918213	0.002288818	0.099853516	-0.542724609	-0.857177734	895.94	36.47078557	-36.72630579	-5.156789432	-72
9203	0	0.23614502	0.187072754	0.256835938	0.999999046	0.000419617	-0.000121117	4.58E-05	5.903625488	4.676818848	6.420898438	0.020980836	-0.006055832	0.002288818	0.099853516	-0.542724609	-0.857177734	895.94	36.53715559	-36.7394594	-5.178661862	-72
9204	0	0.235491753	0.189097404	0.256314278	0.999999046	-6.20E-05	9.54E-06	-0.000125885	5.887293816	4.727435112	6.407856941	-0.003099442	0.000476837	-0.006294251	0.097412109	-0.544921875	-0.854248047	896	36.5530694	-36.72856836	-5.206264304	-72
9205	0	0.236877441	0.186462402	0.256530762	0.999999046	1.53E-05	1.62E-05	-2.29E-05	5.921936035	4.661560059	6.413269043	0.000762939	0.000810623	-0.001144409	0.100097656	-0.544921875	-0.862792969	896.04	36.56985838	-36.7239207	-5.224571747	-72
9206	0	0.234601974	0.188311577	0.254944801	0.999999046	0.000417709	0.000106812	-9.54E-05	5.865049362	4.707789421	6.373620033	0.020885468	0.005340576	-0.004768372	0.099853516	-0.544921875	-0.857177734	896.04	36.63272235	-36.70571911	-5.241399987	-72
9207	0	0.235534668	0.188781738	0.255310059	0.999999046	-0.000278473	0.000126839	-0.00012207	5.888366699	4.719543457	6.382751465	-0.013923645	0.006341934	-0.006103516	0.099853516	-0.542724609	-0.854492188	895.88	36.61621321	-36.68362333	-5.259132406	-72
9208	0	0.23481369	0.187047005	0.257609367	0.999999046	-0.000117302	-0.000192642	3.72E-05	5.870342255	4.676175117	6.440234184	-0.005865097	-0.009632111	0.001859665	0.099853516	-0.544921875	-0.857177734	896	36.62298204	-36.70153114	-5.285000889	-72
9209	0	0.233825684	0.189025879	0.255249023	0.999999046	0.000289917	-8.30E-05	2.67E-05	5.84564209	4.725646973	6.381225586	0.01449585	-0.004148483	0.001335144	0.099853516	-0.544921875	-0.857177734	895.94	36.67120346	-36.70835002	-5.302950463	-72
9210	0	0.236136436	0.1873312	0.25699234	0.999999046	-0.000150681	-6.29E-05	-9.92E-05	5.903410912	4.683279991	6.424808502	-0.007534027	-0.003147125	-0.004959106	0.102294922	-0.54296875	-0.857421875	895.98	36.67603216	-36.70451571	-5.334236644	-72
9211	0	0.235595703	0.186889648	0.256225586	0.999999046	0.000236511	-6.68E-06	-7.63E-05	5.889892578	4.672241211	6.405639648	0.011825562	-0.000333786	-0.003814697	0.102294922	-0.54296875	-0.860351563	895.98	36.7202929	-36.69689025	-5.359285134	-72
9212	0	0.235203743	0.189365387	0.255887985	0.999999046	2.19E-05	1.91E-06	-0.000134468	5.880093575	4.734134674	6.397199631	0.001096725	9.54E-05	-0.006723404	0.102294922	-0.545166016	-0.857177734	895.92	36.74314533	-36.68424629	-5.38711872	-72
9213	0	0.232910156	0.186828613	0.255432129	0.999999046	-1.14E-05	-1.05E-05	-6.87E-05	5.822753906	4.670715332	6.385803223	-0.000572205	-0.000524521	-0.003433228	0.104492188	-0.545166016	-0.854492188	895.94	36.75783235	-36.67698941	-5.406890559	-72
9214	0	0.234354019	0.193995476	0.259093285	0.999999046	-0.000162125	0.000112534	-0.000312805	5.858850479	4.849886894	6.477332115	-0.008106232	0.005626679	-0.015640259	0.102050781	-0.542724609	-0.854492188	896	36.76541039	-36.64129119	-5.445466203	-72
9215	0	0.234375	0.194702148	0.260925293	0.999998093	-0.000224113	0.000751495	-0.001564026	5.859375	4.867553711	6.523132324	-0.011205679	0.037574787	-0.078201334	0.106933594	-0.54296875	-0.860595703	895.98	36.81813591	-36.46063097	-5.573948226	-72
9216	0	0.236759186	0.187149048	0.258192062	0.999993324	0.00225544	0.000991821	-0.002676964	5.918979645	4.678726196	6.454801559	0.112772237	0.049591174	-0.133848486	0.104492188	-0.54296875	-0.854736328	896.06	37.21596862	-36.18074278	-5.807658559	-72
9217	0	0.234802246	0.189758301	0.249511719	0.999991417	0.003005981	0.000760078	-0.002414703	5.870056152	4.74395752	6.237792969	0.150299459	0.038004019	-0.120735479	0.111816406	-0.549804688	-0.8515625	895.88	37.69112579	-35.93893308	-6.02648278	-72
9218	0	0.230589867	0.187986374	0.25020504	0.999999046	0.000782013	4.01E-05	-0.000862122	5.764746666	4.699659348	6.255125999	0.039100656	0.002002717	-0.043106089	0.114013672	-0.549804688	-0.845947266	896	37.84401873	-35.87040319	-6.130137059	-72
9219	0	0.228515625	0.184936523	0.255126953	0.999999046	-0.000587463	-0.000891685	0.000816345	5.712890625	4.623413086	6.378173828	-0.029373178	-0.044584288	0.040817273	0.116455078	-0.552001953	-0.848876953	895.94	37.77644884	-36.00399518	-6.125054411	-72
9220	0	0.229720116	0.191701889	0.260069847	0.999998093	-0.000404358	-0.00111866	0.001505852	5.743002892	4.792547226	6.501746178	-0.020217908	-0.055933033	0.075292633	0.114013672	-0.549804688	-0.851806641	895.98	37.69507703	-36.20620103	-6.063900158	-72
9221	0	0.232299805	0.199829102	0.263977051	0.999999046	-0.000572205	-7.92E-05	0.000804901	5.807495117	4.995727539	6.59942627	-0.028610234	-0.003957749	0.040245063	0.109375	-0.549560547	-0.8515625	896	37.58697191	-36.2644351	-5.990107748	-72
9222	0	0.233651161	0.206661224	0.261185646	0.999998093	-0.00014019	0.001473427	-0.000930786	5.84127903	5.166530609	6.529641151	-0.00700951	0.073671378	-0.04653933	0.111816406	-0.549804688	-0.857421875	895.94	37.56447621	-36.05979229	-5.979480163	-72
9223	0	0.233764648	0.19708252	0.254211426	0.999994278	0.000725746	0.001899719	-0.002437592	5.844116211	4.927062988	6.355285645	0.036287369	0.094986121	-0.121879782	0.114013672	-0.549804688	-0.848876953	895.94	37.71837441	-35.71093573	-6.097776326	-72
9224	0	0.229323387	0.191303253	0.249804497	0.999993324	0.002236366	0.001260757	-0.002545357	5.733084679	4.782581329	6.245112419	0.111818557	0.06303801	-0.127268115	0.12109375	-0.547851563	-0.849365234	895.92	38.08229686	-35.41191159	-6.285405543	-72
9225	0	0.2265625	0.189025879	0.247131348	0.999997139	0.001338959	-6.01E-05	-0.001598358	5.6640625	4.725646973	6.178283691	0.066947986	-0.003004076	-0.079917966	0.125976563	-0.552490234	-0.849365234	896.04	38.34696918	-35.2982794	-6.478882463	-72
9226	0	0.226597786	0.190184593	0.252882004	0.999999046	0.000679016	-0.000946045	-6.77E-05	5.664944649	4.75461483	6.322050095	0.033950813	-0.047302257	-0.003385545	0.125976563	-0.554443359	-0.846191406	896	38.4823205	-35.37267029	-6.578264098	-72
9227	0	0.228027344	0.195617676	0.25958252	0.999999046	1.14E-05	-0.001044273	0.000766754	5.700683594	4.890441895	6.489562988	0.000572205	-0.052213683	0.038337718	0.125976563	-0.554443359	-0.846191406	895.94	38.49252678	-35.51509549	-6.59399496	-72
9228	0	0.230532646	0.201251984	0.262453079	0.999999046	2.00E-05	-0.000188828	0.000575066	5.763316154	5.031299591	6.561326981	0.001001358	-0.009441376	0.028753282	0.121337891	-0.556640625	-0.8515625	896.04	38.47197007	-35.56682519	-6.5569374	-72
9229	0	0.23236084	0.205322266	0.257873535	0.999999046	-0.000759125	0.000882149	-0.000225067	5.809020996	5.133056641	6.446838379	-0.037956247	0.044107447	-0.01125336	0.121337891	-0.554443359	-0.845947266	896.04	38.35887764	-35.46518686	-6.512063725	-72
9230	0	0.2290802	0.198144913	0.25241375	0.999998093	-0.000590324	0.001145363	-0.000621796	5.727005005	4.953622818	6.310343742	-0.02951623	0.057268162	-0.031089793	0.123535156	-0.552246094	-0.849121094	896.06	38.27725201	-35.31160021	-6.490184458	-72
9231	0	0.224487305	0.194213867	0.249145508	0.999999046	0.000152588	0.000309944	-0.000461578	5.612182617	4.85534668	6.228637695	0.007629395	0.015497209	-0.02307892	0.128417969	-0.552490234	-0.852294922	896.1	38.31242865	-35.24449257	-6.524395537	-72
9232	0	0.225126266	0.195719719	0.253863335	0.999999046	0.000382423	-0.000530243	0.000110626	5.628156662	4.892992973	6.346583366	0.019121171	-0.026512148	0.005531311	0.128417969	-0.5546875	-0.849365234	895.94	38.37944722	-35.29343868	-6.56601539	-72
9233	0	0.228759766	0.197814941	0.256713867	0.999999046	0.000141144	-0.000807762	0.000328064	5.718994141	4.945373535	6.41784668	0.007057191	-0.040388113	0.0164032	0.125976563	-0.5546875	-0.849121094	895.88	38.41872443	-35.38267618	-6.607891483	-72
9234	0	0.228822708	0.199629784	0.259888649	0.999999046	0.000442505	-0.000425339	0.000273705	5.720567703	4.990744591	6.497216225	0.022125246	-0.021266939	0.013685227	0.125976563	-0.552490234	-0.849365234	895.94	38.47636265	-35.43348378	-6.624425595	-72
9235	0	0.228393555	0.200073242	0.258666992	0.999999046	-0.000221252	0.000359535	3.43E-05	5.709838867	5.001831055	6.466674805	-0.011062622	0.017976761	0.001716614	0.123535156	-0.554443359	-0.846191406	895.98	38.4331224	-35.39657721	-6.595441012	-72
9236	0	0.229260445	0.197502136	0.256721497	0.999999046	-0.000372887	0.000473022	3.34E-05	5.731511116	4.937553406	6.418037415	-0.018644334	0.023651124	0.00166893	0.123779297	-0.554443359	-0.849121094	896	38.36653083	-35.34931585	-6.557345226	-72
9237	0	0.226928711	0.196655273	0.254516602	0.999999046	-0.000102997	0.000245094	7.63E-06	5.673217773	4.916381836	6.362915039	-0.005149841	0.012254715	0.00038147	0.125976563	-0.5546875	-0.849121094	896.04	38.34377948	-35.32059487	-6.54133892	-72
9238	0	0.225952148	0.198124886	0.255338669	0.999999046	-1.72E-05	-0.000104904	-4.77E-06	5.648803711	4.953122139	6.383466721	-0.000858307	-0.005245209	-0.000238419	0.128173828	-0.552490234	-0.846679688	895.94	38.34907288	-35.32228638	-6.557167417	-72
9239	0	0.227111816	0.198242188	0.256958008	0.999999046	0.000278473	-0.000159264	0.000190735	5.67779541	4.956054688	6.423950195	0.013923645	-0.007963181	0.009536743	0.125976563	-0.552246094	-0.846435547	896.06	38.37826312	-35.34261663	-6.556691141	-72
9240	0	0.226841927	0.198724747	0.256163597	0.999999046	0.000149727	-4.96E-05	0.00014019	5.671048164	4.968118668	6.404089928	0.007486343	-0.002479553	0.007009506	0.125976563	-0.554443359	-0.846191406	896	38.3901682	-35.34934729	-6.55061681	-73
9241	0	0.228149414	0.197692871	0.256835938	0.999999046	-1.53E-05	-4.10E-05	5.72E-05	5.703735352	4.942321777	6.420898438	-0.000762939	-0.0020504	0.002861023	0.123535156	-0.554443359	-0.843261719	896.06	38.38772336	-35.34931037	-6.551505675	-73
9242	0	0.228559494	0.197963715	0.255601883	0.999999046	3.81E-05	3.62E-05	0.000174522	5.71398735	4.949092865	6.390047073	0.001907349	0.001811981	0.00872612	0.123535156	-0.554443359	-0.846191406	895.98	38.37979805	-35.3506326	-6.534167699	-73
9243	0	0.227233887	0.197692871	0.257385254	0.999999046	-0.000411987	6.58E-05	0.000240326	5.680847168	4.942321777	6.434631348	-0.020599366	0.003290177	0.012016297	0.125976563	-0.552246094	-0.846435547	895.98	38.31430303	-35.35382781	-6.507600133	-73
9244	0	0.227661133	0.196577072	0.257331848	0.999999046	0.000197411	-0.000238419	0.000109673	5.69152832	4.914426804	6.433296204	0.009870529	-0.011920929	0.005483627	0.123779297	-0.554443359	-0.849121094	896.06	38.34199021	-35.37498047	-6.521911512	-73
9245	0	0.226745605	0.200073242	0.257141113	0.999999046	0.000263214	-6.39E-05	8.01E-05	5.668640137	5.001831055	6.428527832	0.013160706	-0.003194809	0.004005432	0.123535156	-0.552246094	-0.846435547	896.04	38.37015815	-35.37814341	-6.524871139	-73
9246	0	0.229068756	0.198767662	0.256579399	0.999999046	-0.000289917	0.000118256	-5.44E-05	5.726718903	4.969191551	6.414484978	-0.01449585	0.005912781	-0.002717972	0.125732422	-0.550292969	-0.849609375	895.94	38.33413235	-35.35531401	-6.528897582	-73
9247	0	0.227844238	0.196533203	0.257507324	0.999999046	1.53E-05	0.000149727	-7.63E-06	5.696105957	4.913330078	6.437683105	0.000762939	0.007486343	-0.00038147	0.125976563	-0.5546875	-0.849121094	896.04	38.32819747	-35.33289142	-6.52120592	-72
9248	0	0.226604462	0.197398186	0.257202148	0.999999046	2.38E-05	7.06E-05	-9.92E-05	5.665111542	4.934954643	6.430053711	0.001192093	0.003528595	-0.004959106	0.125976563	-0.554443359	-0.846191406	896	38.33281241	-35.31094295	-6.529043322	-73
9249	0	0.228027344	0.197143555	0.257629395	0.999999046	4.96E-05	-6.77E-05	8.01E-05	5.700683594	4.928588867	6.440734863	0.002479553	-0.003385544	0.004005432	0.125976563	-0.552490234	-0.849365234	896	38.33564231	-35.31409772	-6.532197708	-73
9250	0	0.227666855	0.198230743	0.25538063	0.999999046	-3.81E-05	-1.91E-05	0.000156403	5.691671371	4.955768585	6.384515762	-0.001907349	-0.000953674	0.007820129	0.128173828	-0.5546875	-0.843505859	896.04	38.3209766	-35.31825044	-6.517527031	-73
9251	0	0.227233887	0.198181152	0.256225586	0.999999046	-0.000118256	-5.63E-05	0.000240326	5.680847168	4.954528809	6.405639648	-0.005912781	-0.002813339	0.012016297	0.125732422	-0.550292969	-0.849609375	896	38.29349331	-35.33161706	-6.503398269	-73
9252	0	0.22754097	0.197766304	0.258442879	0.999999046	-5.44E-05	-4.96E-05	3.72E-05	5.688524246	4.9441576	6.461071968	-0.002717972	-0.002479553	0.001859665	0.128417969	-0.552490234	-0.852294922	896.04	38.28569019	-35.32983381	-6.510092954	-72
9253	0	0.227355957	0.198303223	0.257141113	0.999999046	0.00018692	-7.53E-05	-3.43E-05	5.683898926	4.957580566	6.428527832	0.009346008	-0.003767014	-0.001716614	0.128417969	-0.552490234	-0.852294922	896.04	38.31122471	-35.32518102	-6.526998211	-72
9254	0	0.22841835	0.197132111	0.256299973	0.999999046	-1.91E-05	-0.000102997	6.10E-05	5.710458755	4.928302765	6.407499313	-0.000953674	-0.005149841	0.003051758	0.125976563	-0.552246094	-0.846435547	895.98	38.30827247	-35.32977213	-6.532749408	-72
9255	0	0.226318359	0.196350098	0.256286621	0.999999046	-0.00019455	-9.44E-05	0.000286102	5.657958984	4.908752441	6.407165527	-0.009727478	-0.004720688	0.014305115	0.125976563	-0.552490234	-0.852294922	896	38.27020051	-35.34948368	-6.515338752	-72
9256	0	0.226602554	0.198072433	0.257723808	0.999999046	-0.000224113	1.14E-05	0.000270844	5.665063858	4.951810837	6.443095207	-0.011205673	0.000572205	0.013542176	0.125976563	-0.552490234	-0.852294922	896.16	38.22419267	-35.35842759	-6.489719404	-72
9257	0	0.229553223	0.197875977	0.258605957	0.999999046	6.48E-05	7.72E-05	3.81E-05	5.738830566	4.946899414	6.465148926	0.003242493	0.003862381	0.001907349	0.125976563	-0.552490234	-0.852294922	896.06	38.22264611	-35.34489882	-6.483967839	-72
9258	0	0.228368759	0.197952271	0.256966591	0.999999046	0.000164032	-3.62E-05	-5.72E-05	5.709218979	4.948806763	6.424164772	0.008201599	-0.001811981	-0.002861023	0.128173828	-0.552490234	-0.846679688	895.98	38.24412985	-35.33477666	-6.495381724	-72
9259	0	0.227600098	0.197753906	0.25793457	0.999999046	-0.000190735	3.91E-05	-0.000152588	5.690002441	4.943847656	6.448364258	-0.009536743	0.001955032	-0.007629395	0.125976563	-0.5546875	-0.849121094	896.06	38.22707207	-35.31101711	-6.510018995	-72
9260	0	0.226726532	0.196808815	0.256988525	0.999999046	6.96E-05	-6.10E-05	2.86E-06	5.6681633	4.920220375	6.424713135	0.003480911	-0.003051758	0.000143051	0.128173828	-0.552490234	-0.849365234	896.02	38.23478565	-35.30721593	-6.51795809	-71
9261	0	0.226867676	0.196105957	0.256713867	0.999999046	8.01E-05	-0.000185966	0.000118256	5.671691895	4.902648926	6.41784668	0.004005432	-0.009298325	0.005912781	0.128417969	-0.556884766	-0.849121094	895.92	38.2424201	-35.32279343	-6.520112091	-72
9262	0	0.227864265	0.197496414	0.257756233	0.999999046	9.16E-05	-6.29E-05	9.44E-05	5.696606636	4.937410355	6.44390583	0.004577637	-0.003147125	0.004720688	0.128417969	-0.552490234	-0.852294922	896.1	38.24653646	-35.32554078	-6.519847403	-72
9263	0	0.228759766	0.197021484	0.259643555	0.999999046	0.000141144	2.38E-05	-3.43E-05	5.718994141	4.925537109	6.491088867	0.00705719	0.001192093	-0.001716614	0.128417969	-0.552490234	-0.852294922	895.98	38.25991967	-35.31128386	-6.526239339	-71
9264	0	0.226291656	0.197962761	0.255569458	0.999998093	0.00012207	4.86E-05	6.68E-06	5.657291412	4.949069023	6.38923645	0.006103516	0.00243187	0.000333786	0.125976563	-0.552246094	-0.846435547	896.06	38.26719677	-35.29762784	-6.52310907	-72
9265	0	0.227233887	0.197937012	0.25592041	0.999999046	-8.39E-05	-0.000113487	0.000152588	5.680847168	4.948425293	6.398010254	-0.004196167	-0.005674362	0.007629395	0.128173828	-0.552490234	-0.849365234	895.94	38.24964557	-35.30887138	-6.518956117	-71
9266	0	0.227108002	0.196419716	0.258403778	0.999999046	-8.39E-05	-0.000120163	0.000365257	5.677700043	4.910492897	6.460094452	-0.004196167	-0.006008148	0.018262864	0.125976563	-0.552490234	-0.852294922	896	38.21862556	-35.3357163	-6.493464657	-72
9267	0	0.227416992	0.19732666	0.259338379	0.999999046	0.000236511	-0.000155449	3.81E-05	5.685424805	4.933166504	6.483459473	0.011825562	-0.007772446	0.001907349	0.123535156	-0.550048828	-0.849365234	896	38.24675725	-35.34242712	-6.507988979	-72
9268	0	0.228733063	0.199383736	0.25740242	0.999999046	0.000323296	-1.91E-06	2.86E-06	5.718326569	4.984593391	6.435060501	0.01616478	-9.54E-05	0.000143051	0.125976563	-0.552490234	-0.849365234	895.94	38.27932208	-35.33276593	-6.511120055	-72
9269	0	0.227233887	0.198120117	0.256103516	0.999999046	-0.00018692	3.53E-05	-0.000110626	5.680847168	4.95300293	6.402587891	-0.009346008	0.001764297	-0.005531311	0.125976563	-0.552490234	-0.849365234	896.06	38.25872213	-35.31165126	-6.522962846	-72
9270	0	0.226500511	0.195754051	0.257289886	0.999999046	-0.00012207	-0.000104904	3.34E-05	5.662512779	4.89385128	6.432247162	-0.006103516	-0.005245209	0.00166893	0.128417969	-0.5546875	-0.849365234	895.94	38.24320619	-35.3133159	-6.528327629	-72
9271	0	0.227111816	0.197509766	0.256530762	0.999999046	0.000160217	-0.000185966	1.14E-05	5.67779541	4.937744141	6.413269043	0.008010864	-0.009298325	0.000572205	0.128417969	-0.552490234	-0.852294922	895.94	38.26542593	-35.32066807	-6.547174617	-72
9272	0	0.226602554	0.1982584	0.258396149	0.999999046	0.000184059	-0.000137329	4.10E-05	5.665063858	4.956459999	6.459903717	0.009202957	-0.006866455	0.0020504	0.125976563	-0.552490234	-0.849365234	895.92	38.28592191	-35.32561324	-6.557138376	-72
9273	0	0.227539063	0.198608398	0.258300781	0.999999046	3.43E-05	-8.68E-05	-4.96E-05	5.688476563	4.965209961	6.457519531	0.001716614	-0.004339218	-0.002479553	0.125976563	-0.552490234	-0.849365234	896	38.29238089	-35.31948785	-6.572554569	-72
9274	0	0.227869034	0.196634293	0.256964684	0.999999046	8.77E-05	-5.72E-05	4.86E-05	5.696725845	4.915857315	6.424117088	0.004386902	-0.002861023	0.00243187	0.125976563	-0.5546875	-0.849121094	895.94	38.29705459	-35.31767508	-6.572337661	-72
9275	0	0.227355957	0.196594238	0.256286621	0.999999046	7.63E-05	-0.00026989	0.000152588	5.683898926	4.914855957	6.407165527	0.003814697	-0.013494492	0.007629395	0.128173828	-0.552490234	-0.849365234	895.94	38.30436933	-35.34235856	-6.581105228	-72
9276	0	0.227737427	0.197357178	0.256560326	0.999999046	-5.63E-05	-0.000297546	0.000263214	5.693435669	4.933929443	6.414008141	-0.002813339	-0.01487732	0.013160706	0.128173828	-0.552490234	-0.846679688	895.98	38.29072953	-35.37736637	-6.577963763	-72
9277	0	0.226928711	0.197937012	0.25793457	0.999999046	-0.0001297	-0.000300407	0.000324249	5.673217773	4.948425293	6.448364258	-0.006484986	-0.015020371	0.016212464	0.125976563	-0.552246094	-0.846435547	895.94	38.26478918	-35.41685483	-6.56814723	-72
9278	0	0.228006363	0.198698044	0.258213997	0.999999046	4.39E-05	-0.000173569	0.000136375	5.700159073	4.967451096	6.455349922	0.002193451	-0.008678436	0.006818771	0.123535156	-0.552246094	-0.849121094	896	38.26426906	-35.43149891	-6.570015142	-72
9279	0	0.228881836	0.198913574	0.257324219	0.999999046	0.000400543	8.87E-05	-9.92E-05	5.722045898	4.972839355	6.433105469	0.020027161	0.004434586	-0.004959107	0.123535156	-0.552246094	-0.849121094	896	38.30641837	-35.40578087	-6.575886312	-72
9280	0	0.228430748	0.197881699	0.256167412	0.999999046	-0.000382423	0.000192642	-0.000119209	5.7107687	4.947042465	6.404185295	-0.019121171	0.009632111	-0.005960465	0.125976563	-0.552246094	-0.846435547	895.98	38.2548279	-35.36928562	-6.571782264	-72
9281	0	0.227783203	0.193725586	0.257080078	0.999999046	0.000152588	-0.000193596	-6.87E-05	5.694580078	4.843139648	6.427001953	0.007629395	-0.009679794	-0.003433228	0.125976563	-0.552490234	-0.849365234	896	38.28051153	-35.37115771	-6.597523972	-72
9282	0	0.227184296	0.197741508	0.257297516	0.999999046	0.000757217	-0.000286102	-0.000115395	5.679607391	4.943537712	6.432437897	0.037860875	-0.014305116	-0.00576973	0.125976563	-0.552246094	-0.846435547	896	38.3830496	-35.37792755	-6.636309	-72
9283	0	0.228271484	0.198791504	0.256469727	0.999999046	-0.000152588	-7.15E-05	5.34E-05	5.706787109	4.969787598	6.411743164	-0.007629395	-0.003576279	0.002670288	0.123535156	-0.552246094	-0.849121094	896.06	38.35969582	-35.37737496	-6.639407919	-72
9284	0	0.227841377	0.196857452	0.256801605	0.999999046	0.000256538	6.68E-05	0.000170708	5.696034431	4.92143631	6.420040131	0.01282692	0.00333786	0.008535385	0.123535156	-0.552246094	-0.849121094	896.04	38.36862501	-35.37272213	-6.617970701	-72
9285	0	0.227294922	0.198364258	0.255859375	0.999999046	-8.01E-05	-1.43E-05	2.67E-05	5.682373047	4.959106445	6.396484375	-0.004005432	-0.000715256	0.001335144	0.125976563	-0.552246094	-0.846435547	895.94	38.35223309	-35.36506939	-6.616875177	-72
9286	0	0.229022026	0.196051598	0.257836342	0.999999046	0.00021553	-0.00015831	-3.15E-05	5.725550652	4.90128994	6.445908546	0.01077652	-0.007915497	-0.001573563	0.128173828	-0.552490234	-0.846679688	896.06	38.38049109	-35.36624616	-6.634619911	-72
9287	0	0.22845459	0.198303223	0.255371094	0.999999046	0.000110626	-0.000277519	-1.53E-05	5.711364746	4.957580566	6.384277344	0.005531311	-0.013875962	-0.000762939	0.123535156	-0.552246094	-0.849121094	895.98	38.40171518	-35.37929409	-6.663662092	-72
9288	0	0.227370262	0.198671341	0.256970406	0.999999046	-0.000151634	-3.05E-05	7.63E-05	5.684256554	4.966783524	6.424260139	-0.007581711	-0.001525879	0.003814697	0.123535156	-0.552246094	-0.846435547	895.88	38.37450989	-35.37660286	-6.658512433	-72
9289	0	0.227416992	0.197753906	0.256164551	0.999999046	0.00031662	-3.34E-05	8.77E-05	5.685424805	4.943847656	6.40411377	0.015830994	-0.00166893	0.004386902	0.125976563	-0.5546875	-0.852050781	895.9	38.4003192	-35.37494612	-6.654147237	-72
9290	0	0.228445053	0.196531296	0.254376411	0.999999046	-1.72E-05	-0.000202179	0.000320435	5.711126328	4.913282394	6.359410286	-0.000858307	-0.010108948	0.016021729	0.125976563	-0.552490234	-0.852294922	896	38.38150812	-35.4050797	-6.641142258	-71
9291	0	0.227600098	0.193969727	0.25592041	0.999999046	-0.000213623	-0.000452995	0.000995636	5.690002441	4.849243164	6.398010254	-0.010681155	-0.02264977	0.04978181	0.125976563	-0.552246094	-0.846435547	895.94	38.30939313	-35.50578762	-6.570410969	-72
9292	0	0.228655815	0.198470116	0.257201195	0.999999046	-0.000723839	-0.000411987	0.000938416	5.716395378	4.961752892	6.430029869	-0.03619195	-0.020599371	0.046920789	0.121337891	-0.552246094	-0.849121094	895.98	38.18011069	-35.59857748	-6.502617119	-72
9293	0	0.230102539	0.19934082	0.259338379	0.999999046	0.00012207	-0.000193596	0.00050354	5.752563477	4.983520508	6.483459473	0.006103516	-0.009679795	0.025177003	0.12109375	-0.550048828	-0.849365234	896	38.16454427	-35.64071733	-6.466617531	-72
9294	0	0.229548454	0.199721336	0.255476952	0.999999046	0.000152588	0.000154495	-5.82E-05	5.738711357	4.993033409	6.38692379	0.007629395	0.007724762	-0.002908707	0.121337891	-0.552246094	-0.849121094	895.94	38.17121585	-35.61166241	-6.460223893	-72
9295	0	0.228759766	0.197509766	0.255554199	0.999999046	-7.25E-05	0.000172615	-0.000190735	5.718994141	4.937744141	6.38885498	-0.003623962	0.008630753	-0.009536743	0.121337891	-0.552246094	-0.849121094	896	38.15976136	-35.57155051	-6.466675348	-72
9296	0	0.228902817	0.192615509	0.256148338	0.999999046	-2.19E-05	3.81E-06	-0.000199318	5.722570419	4.815387726	6.403708458	-0.001096725	0.000190735	-0.009965897	0.12109375	-0.550048828	-0.852050781	895.86	38.16296405	-35.54609454	-6.493229942	-72
9297	0	0.22869873	0.196411133	0.256835938	0.999999046	0.000823975	-0.000151634	-0.000167847	5.717468262	4.91027832	6.420898438	0.041198735	-0.007581712	-0.008392335	0.123535156	-0.552246094	-0.849121094	896	38.26885682	-35.53682344	-6.52660704	-72
9298	0	0.229991913	0.198497772	0.256560326	0.999999046	-2.67E-05	-9.92E-05	6.48E-05	5.749797821	4.962444305	6.414008141	-0.001335144	-0.004959106	0.003242493	0.12109375	-0.550048828	-0.846435547	896	38.25966059	-35.53932016	-6.530198007	-72
9299	0	0.227966309	0.196899414	0.256469727	0.999999046	-0.000209808	0.000195503	0.000137329	5.699157715	4.922485352	6.411743164	-0.010490418	0.009775162	0.006866455	0.123535156	-0.552246094	-0.852050781	896.02	38.20983942	-35.52037738	-6.500889513	-72
9300	0	0.227859497	0.196545601	0.256030083	0.999999046	-1.81E-05	7.06E-05	3.43E-05	5.696487427	4.913640022	6.400752068	-0.000905991	0.003528595	0.001716614	0.121337891	-0.552246094	-0.849121094	895.98	38.1948985	-35.50533857	-6.491609556	-72
9301	0	0.229553223	0.19708252	0.255615234	0.999999046	0.000209808	-5.63E-05	-1.14E-05	5.738830566	4.927062988	6.390380859	0.010490418	-0.002813339	-0.000572205	0.123535156	-0.552246094	-0.852050781	896	38.21543979	-35.49851472	-6.500906128	-72
9302	0	0.229699135	0.197194099	0.254223824	0.999999046	8.01E-05	1.14E-05	3.72E-05	5.742478371	4.929852486	6.355595589	0.004005432	0.000572205	0.001859665	0.123779297	-0.554443359	-0.849121094	895.98	38.21462808	-35.48912566	-6.493936306	-72
9303	0	0.228515625	0.19720459	0.257263184	0.999999046	-1.14E-05	-6.77E-05	0.000164032	5.712890625	4.930114746	6.43157959	-0.000572205	-0.003385544	0.008201599	0.121337891	-0.552246094	-0.852050781	895.88	38.19912661	-35.49580642	-6.48507904	-72
9304	0	0.228370667	0.197550774	0.256869316	0.999999046	-3.72E-05	0.000152588	0.000110626	5.709266663	4.938769341	6.421732903	-0.001859665	0.007629395	0.005531311	0.123535156	-0.552246094	-0.852050781	896.06	38.17295731	-35.47881405	-6.462371874	-72
9305	0	0.228942871	0.197570801	0.255859375	0.999999046	0.000255585	0.000180244	4.20E-05	5.723571777	4.93927002	6.396484375	0.012779236	0.009012222	0.002098084	0.123779297	-0.554443359	-0.849121094	895.94	38.18339067	-35.45447726	-6.440356612	-71
9306	0	0.228257179	0.198108673	0.25467968	0.999999046	-0.000284195	0.000141144	4.48E-05	5.706429482	4.952716827	6.366991997	-0.014209748	0.00705719	0.002241135	0.123779297	-0.552246094	-0.854980469	896	38.13387276	-35.43385887	-6.428222387	-71
9307	0	0.22857666	0.195678711	0.255004883	0.999999046	-1.53E-05	5.82E-05	0.000133514	5.714416504	4.891967773	6.37512207	-0.000762939	0.002908707	0.00667572	0.125976563	-0.552490234	-0.852294922	895.88	38.11365309	-35.42705448	-6.410326059	-71
9308	0	0.227867126	0.19841671	0.256745338	0.999999046	0.000155449	-7.44E-05	0.000217438	5.696678162	4.960417747	6.418633461	0.007772446	-0.00371933	0.010871887	0.123535156	-0.550048828	-0.849365234	895.88	38.11433908	-35.4380774	-6.395927438	-71
9309	0	0.228881836	0.197509766	0.257751465	0.999999046	-0.000137329	-4.48E-05	1.14E-05	5.722045898	4.937744141	6.443786621	-0.006866455	-0.002241135	0.000572205	0.121337891	-0.552246094	-0.852050781	895.96	38.09317292	-35.43184469	-6.400927816	-71
9310	0	0.228909492	0.196457863	0.254854202	0.999999046	0.000108719	2.29E-05	-6.20E-05	5.722737312	4.911446571	6.371355057	0.005435944	0.001144409	-0.003099442	0.123535156	-0.552246094	-0.852050781	895.94	38.10154434	-35.41438357	-6.408002499	-71
9311	0	0.228271484	0.198303223	0.256469727	0.999999046	0.0001297	-6.68E-06	5.34E-05	5.706787109	4.957580566	6.411743164	0.006484985	-0.000333786	0.002670288	0.125732422	-0.550292969	-0.849609375	895.98	38.10646885	-35.40772227	-6.405175603	-72
9312	0	0.228601456	0.197612762	0.256475449	0.999999046	-1.43E-05	2.67E-05	9.44E-05	5.715036392	4.940319061	6.411886215	-0.000715256	0.001335144	0.004720688	0.123779297	-0.552246094	-0.854980469	896	38.09061319	-35.4009514	-6.397178015	-72
9313	0	0.227844238	0.197753906	0.256958008	0.999999046	6.48E-05	3.91E-05	9.54E-05	5.696105957	4.943847656	6.423950195	0.003242493	0.001955032	0.004768372	0.123535156	-0.552246094	-0.852050781	895.94	38.08316507	-35.39309169	-6.385467471	-72
9314	0	0.227556229	0.196522713	0.256827354	0.999999046	4.58E-05	8.20E-05	-1.62E-05	5.688905716	4.913067818	6.420683861	0.002288818	0.0041008	-0.000810623	0.123535156	-0.552246094	-0.852050781	896.06	38.07849532	-35.37345192	-6.382352043	-72
9315	0	0.228393555	0.195800781	0.257202148	0.999999046	2.29E-05	-5.63E-05	3.81E-05	5.709838867	4.895019531	6.430053711	0.001144409	-0.002813339	0.001907349	0.123779297	-0.552246094	-0.854980469	896	38.07458044	-35.37015008	-6.38758429	-72
9316	0	0.228559494	0.196527481	0.25820446	0.999999046	5.05E-05	-4.01E-05	0.000102043	5.71398735	4.913187027	6.455111504	0.002527237	-0.002002716	0.005102158	0.125976563	-0.552490234	-0.849365234	896.02	38.0688469	-35.3699033	-6.37849808	-72
9317	0	0.228820801	0.19732666	0.259338379	0.999999046	8.01E-05	-0.000109673	0.000179291	5.72052002	4.933166504	6.483459473	0.004005432	-0.005483627	0.008964539	0.125976563	-0.552490234	-0.854980469	895.94	38.06496531	-35.38135507	-6.372013103	-72
9318	0	0.228154182	0.197468758	0.257363319	0.999999046	8.39E-05	4.77E-05	-6.96E-05	5.703854561	4.936718941	6.434082985	0.004196167	0.002384186	-0.003480911	0.123779297	-0.554443359	-0.849121094	896.02	38.06957346	-35.36101021	-6.371896789	-72
9319	0	0.227905273	0.19720459	0.258056641	0.999999046	-0.000148773	2.38E-05	6.87E-05	5.697631836	4.930114746	6.451416016	-0.00743866	0.001192093	0.003433228	0.125976563	-0.552490234	-0.849365234	895.94	38.03982434	-35.35254827	-6.360483985	-72
9320	0	0.228041649	0.195203781	0.258063316	0.999999046	1.81E-05	5.15E-05	0.000171661	5.701041222	4.880094528	6.451582909	0.000905991	0.002574921	0.008583069	0.125732422	-0.550048828	-0.846679688	895.94	38.02110101	-35.34886733	-6.336096298	-72
9321	0	0.227966309	0.196044922	0.258544922	0.999999046	-3.81E-06	-2.96E-05	0.000179291	5.699157715	4.901123047	6.463623047	-0.000190735	-0.001478195	0.008964539	0.125976563	-0.552490234	-0.852294922	896.02	38.00334462	-35.35301689	-6.31947712	-72
9322	0	0.228602409	0.198279381	0.258836746	0.999999046	-4.39E-05	-4.96E-05	0.000273705	5.715060234	4.95698452	6.470918655	-0.002193451	-0.002479553	0.013685227	0.125976563	-0.552490234	-0.849365234	896	37.97596223	-35.36559133	-6.291101394	-72
9323	0	0.229003906	0.198669434	0.258117676	0.999999046	-0.000392914	0.000199318	-8.01E-05	5.725097656	4.96673584	6.452941895	-0.019645692	0.009965897	-0.004005432	0.125976563	-0.552490234	-0.849365234	895.96	37.91889019	-35.33071096	-6.279085349	-72
9324	0	0.228014946	0.195084572	0.258177757	0.999999046	0.000317574	3.81E-05	-0.00012207	5.70037365	4.877114296	6.454443932	0.015878678	0.001907349	-0.006103516	0.123535156	-0.552246094	-0.852050781	895.86	37.95388871	-35.30745419	-6.289857062	-72
9325	0	0.227905273	0.198181152	0.256713867	0.999999046	0.000106812	-9.44E-05	7.63E-05	5.697631836	4.954528809	6.41784668	0.005340576	-0.004720688	0.003814697	0.125976563	-0.552490234	-0.849365234	895.94	37.95876055	-35.31015403	-6.287015724	-72
9326	0	0.22847271	0.197896004	0.259129524	0.999999046	1.53E-05	0	0.000159264	5.711817741	4.947400093	6.478238106	0.000762939	0	0.007963181	0.125976563	-0.5546875	-0.849121094	895.98	37.94311703	-35.31014299	-6.263449553	-72
9327	0	0.226196289	0.196594238	0.258300781	0.999999046	0	-6.68E-06	0.00019455	5.654907227	4.914855957	6.457519531	0	-0.000333786	0.009727478	0.125976563	-0.552246094	-0.846435547	896	37.92377213	-35.31313475	-6.237420851	-72
9328	0	0.227436066	0.197176933	0.258358002	0.999999046	9.25E-05	7.44E-05	0.000239372	5.685901642	4.929423332	6.458950043	0.00462532	0.00371933	0.011968613	0.125976563	-0.552490234	-0.849365234	896.06	37.90812098	-35.31190576	-6.202234128	-72
9329	0	0.227905273	0.196777344	0.258605957	0.999999046	-0.000167847	-2.86E-06	0.000156403	5.697631836	4.919433594	6.465148926	-0.008392334	-0.000143051	0.007820129	0.125976563	-0.552490234	-0.852294922	896.02	37.87178593	-35.31179198	-6.185029731	-72
9330	0	0.228639603	0.197350502	0.259158134	0.999999046	8.58E-05	-9.54E-06	0.000208855	5.715990067	4.93376255	6.478953362	0.004291534	-0.000476837	0.010442734	0.125732422	-0.550048828	-0.846679688	895.96	37.86149386	-35.31595787	-6.160871981	-72
9331	0	0.227600098	0.197265625	0.256591797	0.999999046	1.14E-05	-3.34E-05	0.000110626	5.690002441	4.931640625	6.414794922	0.000572205	-0.00166893	0.005531311	0.128173828	-0.552490234	-0.846679688	896	37.85026067	-35.31537979	-6.145627199	-72
9332	0	0.227783203	0.197342873	0.258646011	0.999999046	-0.000124931	4.20E-05	9.16E-05	5.694580078	4.933571815	6.466150284	-0.006246567	0.002098084	0.004577637	0.123535156	-0.552246094	-0.852050781	895.88	37.82090059	-35.30660153	-6.132013193	-72
9333	0	0.227539063	0.196594238	0.257202148	0.999999046	9.16E-05	5.44E-05	4.58E-05	5.688476563	4.914855957	6.430053711	0.004577637	0.002717972	0.002288818	0.128173828	-0.552490234	-0.849365234	896	37.81872411	-35.29349137	-6.118798528	-72
9334	0	0.228017807	0.196375847	0.256396294	0.999999046	-0.000108719	4.58E-05	0.000258446	5.700445175	4.909396172	6.409907341	-0.005435944	0.002288818	0.012922287	0.123535156	-0.552246094	-0.849121094	896.02	37.7804725	-35.2961446	-6.083298441	-72
9335	0	0.227050781	0.196166992	0.257629395	0.999999046	-3.81E-06	-4.48E-05	0.000225067	5.676269531	4.904174805	6.440734863	-0.000190735	-0.002241135	0.011253357	0.125976563	-0.552490234	-0.852294922	896	37.76090967	-35.30463262	-6.061552392	-72
9336	0	0.22868824	0.197403908	0.258280754	0.999999046	-8.30E-05	1.14E-05	0.000213623	5.717206001	4.935097694	6.457018852	-0.004148483	0.000572205	0.010681152	0.123535156	-0.550048828	-0.849365234	896.06	37.73028136	-35.30722553	-6.037020794	-72
9337	0	0.228271484	0.19744873	0.257141113	0.999999046	-4.20E-05	8.11E-05	-4.96E-05	5.706787109	4.936218262	6.428527832	-0.002098083	0.004053116	-0.002479553	0.125976563	-0.552490234	-0.852294922	895.94	37.71791497	-35.28506903	-6.034340123	-72
9338	0	0.22833252	0.196411133	0.258536339	0.999999046	0.000261307	6.10E-05	-1.14E-05	5.708312988	4.91027832	6.46340847	0.013065338	0.003051758	-0.000572205	0.125732422	-0.550292969	-0.849609375	895.96	37.73886943	-35.26741885	-6.030669232	-71
9339	0	0.227233887	0.196166992	0.256958008	0.999999046	-0.000289917	2.77E-05	-2.67E-05	5.680847168	4.904174805	6.423950195	-0.01449585	0.001382828	-0.001335144	0.128173828	-0.550292969	-0.852539063	896.02	37.69935504	-35.25174294	-6.032883917	-71
9340	0	0.227148056	0.194746017	0.25934124	0.999999046	0.000124931	-0.000112534	0.000319481	5.678701401	4.868650436	6.483530998	0.006246567	-0.005626679	0.015974045	0.123535156	-0.550048828	-0.855224609	896.02	37.69204832	-35.27302429	-6.012853934	-72
9341	0	0.227294922	0.196777344	0.257629395	0.999999046	-8.01E-05	-0.000163078	0.000190735	5.682373047	4.919433594	6.440734863	-0.004005432	-0.008153915	0.009536743	0.123535156	-0.550048828	-0.849365234	895.94	37.6720817	-35.28986277	-6.004840846	-72
9342	0	0.227455139	0.197747231	0.259965897	0.999999046	3.81E-05	5.53E-05	0.000227928	5.686378479	4.943680763	6.499147415	0.001907349	0.002765656	0.011396408	0.125732422	-0.550292969	-0.849609375	895.98	37.65249806	-35.28941432	-5.973513115	-72
9343	0	0.229553223	0.197021484	0.258728027	0.999999046	0.000270844	2.00E-05	9.54E-05	5.738830566	4.925537109	6.468200684	0.013542175	0.001001358	0.004768372	0.125976563	-0.550292969	-0.852294922	896.06	37.66990535	-35.28293422	-5.963621692	-72
9344	0	0.22750473	0.196872711	0.257287025	0.999999046	-0.000330925	8.96E-05	-0.000161171	5.687618256	4.92181778	6.432175636	-0.01654625	0.004482269	-0.008058548	0.125976563	-0.552490234	-0.849365234	896	37.63147702	-35.25218912	-5.968411936	-72
9345	0	0.227844238	0.193969727	0.261108398	0.999999046	0.000442505	-0.000197411	-0.000205994	5.696105957	4.849243164	6.527709961	0.022125245	-0.00987053	-0.010299683	0.125976563	-0.550292969	-0.852294922	895.86	37.6985703	-35.24433274	-6.010656481	-72
9346	0	0.226521492	0.198073387	0.255899429	0.999999046	0.000473022	-0.000171661	-6.20E-05	5.6630373	4.951834679	6.397485733	0.023651124	-0.008583069	-0.003099442	0.128173828	-0.550292969	-0.852539063	895.9	37.75886048	-35.24419103	-6.036132669	-72
9347	0	0.228881836	0.196777344	0.258544922	0.999999046	-0.000102997	-0.000124931	0.000221252	5.722045898	4.919433594	6.463623047	-0.005149841	-0.006246567	0.011062622	0.125732422	-0.550292969	-0.849609375	895.94	37.73270739	-35.2597284	-6.022877944	-72
9348	0	0.226958275	0.196378708	0.259077072	0.999999046	9.25E-05	-7.06E-05	0.000151634	5.673956871	4.909467697	6.476926804	0.00462532	-0.003528595	0.007581711	0.125732422	-0.550292969	-0.849609375	895.9	37.73070285	-35.26541139	-6.012827879	-72
9349	0	0.227844238	0.196105957	0.258972168	0.999999046	0.00025177	-0.000136375	-7.63E-05	5.696105957	4.902648926	6.474304199	0.012588501	-0.006818771	-0.003814697	0.128173828	-0.548095703	-0.849853516	895.96	37.76479317	-35.26106781	-6.037692546	-72
9350	0	0.228088379	0.197875977	0.255065918	0.999999046	8.77E-05	-0.000137329	-0.000141144	5.702209473	4.946899414	6.376647949	0.004386902	-0.006866455	-0.00705719	0.123535156	-0.550048828	-0.852294922	895.96	37.78448217	-35.25232208	-6.07027454	-72
9351	0	0.228088379	0.196289063	0.25769043	0.999999046	6.10E-05	-0.000250816	0.000133514	5.702209473	4.907226563	6.442260742	0.003051758	-0.012540817	0.00667572	0.125976563	-0.552490234	-0.852294922	896.02	37.78917093	-35.27317627	-6.077623889	-72
9352	0	0.228087425	0.197968483	0.257795334	0.999999046	7.15E-05	-0.000181198	-3.91E-05	5.702185631	4.949212074	6.444883347	0.003576279	-0.009059906	-0.001955032	0.125976563	-0.552490234	-0.849365234	895.88	37.80275136	-35.27560355	-6.095024971	-72
9353	0	0.227539063	0.19744873	0.258117676	0.999999046	0.000293732	-0.000113487	5.72E-05	5.688476563	4.936218262	6.452941895	0.014686585	-0.005674362	0.002861023	0.123535156	-0.550048828	-0.849365234	896	37.83230497	-35.27863717	-6.101334211	-72
9354	0	0.227925301	0.197634697	0.257155418	0.999999046	2.67E-05	4.96E-05	1.81E-05	5.698132515	4.940867424	6.42888546	0.001335144	0.002479553	0.000905991	0.123535156	-0.552246094	-0.852050781	895.9	37.82573314	-35.26417291	-6.097250688	-72
9355	0	0.227294922	0.196411133	0.257446289	0.999999046	-4.20E-05	-6.01E-05	0.000141144	5.682373047	4.91027832	6.436157227	-0.002098084	-0.003004074	0.00705719	0.125976563	-0.552490234	-0.849365234	895.98	37.80887574	-35.26828619	-6.084801626	-72
9356	0	0.227747917	0.196995735	0.258350372	0.999999046	0.000201225	-0.000226974	-1.24E-05	5.693697929	4.924893379	6.458759308	0.010061264	-0.011348725	-0.000619888	0.128173828	-0.550292969	-0.849609375	896	37.83801575	-35.27670716	-6.107696459	-72
9357	0	0.229187012	0.198425293	0.258178711	0.999999046	0.000259399	-0.000151634	-1.53E-05	5.729675293	4.960632324	6.454467773	0.012969971	-0.007581711	-0.000762939	0.123535156	-0.552246094	-0.852050781	895.9	37.8703348	-35.27812644	-6.125589376	-72
9358	0	0.228221893	0.198016167	0.25770092	0.999999046	-3.05E-05	-0.000171661	1.53E-05	5.705547333	4.950404167	6.442523003	-0.001525879	-0.008583069	0.000762939	0.123535156	-0.552246094	-0.849121094	895.94	37.86853389	-35.28350554	-6.138192288	-72
