Counter	Temperature	VelInc_X	VelInc_Y	VelInc_Z	OriInc_w	OriInc_x	OriInc_y	OriInc_z	Acc_X	Acc_Y	Acc_Z	Gyr_X	Gyr_Y	Gyr_Z	Mag_X	Mag_Y	Mag_Z	Pressure	Roll	Pitch	Yaw	RSSI
55466	0	0.379764557	-0.047887802	0.080839157	0.999999046	-0.001256943	5.15E-05	-0.000103951	9.494113922	-1.197195053	2.020978928	-0.062847154	0.002574921	-0.005197526	-0.611328125	0.048828125	-0.773925781	878.3	-32.38601617	-75.34647791	26.63009283	-72
55467	0	0.378845215	-0.050537109	0.080932617	0.999998093	-0.001746178	5.34E-05	4.96E-05	9.471130371	-1.263427734	2.02331543	-0.087308928	0.002670289	0.002479554	-0.611328125	0.051025391	-0.776855469	878.26	-32.53657202	-75.34423192	26.57811817	-72
55468	0	0.380051613	-0.05183506	0.081036568	0.999999046	-0.001126289	-0.000116348	4.10E-05	9.501290321	-1.295876503	2.025914192	-0.05631448	-0.005817415	0.0020504	-0.611572266	0.053222656	-0.774169922	878.18	-32.65328182	-75.35900684	26.56376633	-72
55469	0	0.38458252	-0.050598145	0.07989502	0.999999046	-0.001228333	2.77E-05	-8.77E-05	9.614562988	-1.264953613	1.997375488	-0.061416642	0.001382828	-0.004386903	-0.609130859	0.053222656	-0.771484375	878.2	-32.70026356	-75.36806454	26.46744966	-72
55470	0	0.380004883	-0.050964355	0.080688477	0.999996185	-0.002520561	9.54E-07	2.29E-05	9.50012207	-1.274108887	2.017211914	-0.126028194	4.77E-05	0.00114441	-0.609375	0.057617188	-0.774658203	878.24	-32.9426466	-75.37297571	26.4190712	-72
55471	0	0.379705429	-0.057947159	0.081575394	0.999997139	-0.001840591	-9.63E-05	9.54E-06	9.492635727	-1.44867897	2.039384842	-0.092029624	-0.004816058	0.000476837	-0.611816406	0.059814453	-0.771728516	878.2	-33.12662607	-75.38796851	26.39218927	-72
55472	0	0.380998611	-0.058374405	0.081941605	0.999999046	-0.000372887	-0.000253677	0.000162125	9.524965286	-1.459360123	2.048540115	-0.018644334	-0.012683869	0.008106232	-0.611816406	0.062011719	-0.777832031	878.26	-33.23766049	-75.40835554	26.4610086	-72
55473	0	0.38092041	-0.058410645	0.082885742	0.999999046	0.000484467	-0.000224113	0.000190735	9.523010254	-1.460266113	2.072143555	0.024223329	-0.011205674	0.009536744	-0.609375	0.059814453	-0.771972656	878.2	-33.2549526	-75.42390491	26.53634665	-72
55474	0	0.382888794	-0.056584358	0.083133698	0.999999046	0.000144958	-0.000148773	0.00019455	9.572219849	-1.414608955	2.078342438	0.007247925	-0.00743866	0.009727478	-0.612060547	0.062011719	-0.769042969	878.14	-33.29500594	-75.43186746	26.59171106	-73
55475	0	0.382446289	-0.056884766	0.083862305	0.999999046	5.72E-05	-0.000227928	0.000289917	9.561157227	-1.422119141	2.096557617	0.002861023	-0.011396408	0.01449585	-0.609375	0.059814453	-0.771972656	878.26	-33.40001482	-75.44121387	26.70701191	-73
55476	0	0.382696152	-0.053862572	0.082044601	0.999999046	-8.30E-05	-5.72E-05	0.000411987	9.567403793	-1.346564293	2.051115036	-0.004148483	-0.002861023	0.020599366	-0.611816406	0.062011719	-0.771972656	878.26	-33.52469159	-75.4264654	26.82377847	-73
55477	0	0.382080078	-0.055114746	0.082763672	0.999999046	0.000556946	-0.00014019	0.000480652	9.552001953	-1.377868652	2.069091797	0.027847293	-0.007009507	0.024032595	-0.609619141	0.064208984	-0.76953125	878.26	-33.62148925	-75.41516098	26.98262125	-72
55478	0	0.382236481	-0.051912308	0.082102776	0.999998093	0.001507759	0.000151634	0.000395775	9.555912018	-1.297807693	2.052569389	0.075387986	0.007581714	0.01978875	-0.609375	0.062011719	-0.774902344	878.2	-33.50674215	-75.38142876	27.03600063	-72
55479	0	0.380065918	-0.048278809	0.081542969	0.999999046	0.000434875	0.000203133	0.00044632	9.501647949	-1.206970215	2.038574219	0.021743776	0.010156632	0.022315981	-0.611816406	0.062011719	-0.774902344	878.26	-33.52015353	-75.3397485	27.09524659	-72
55480	0	0.379985809	-0.051537514	0.082901001	0.999999046	0.00045681	0.000225067	0.000571251	9.499645233	-1.288437843	2.072525024	0.022840502	0.011253358	0.028562549	-0.611816406	0.059814453	-0.771728516	878.18	-33.5706162	-75.28807225	27.19922341	-72
55481	0	0.38092041	-0.051025391	0.081420898	0.999999046	0.000743866	0.000103951	0.000534058	9.523010254	-1.275634766	2.035522461	0.037193304	0.005197526	0.026702885	-0.611816406	0.062011719	-0.771972656	878.24	-33.60314753	-75.25042386	27.31400918	-72
55482	0	0.383225441	-0.054365158	0.082007408	1	2.19E-05	1.24E-05	6.01E-05	9.580636024	-1.359128952	2.050185204	0.001096725	0.000619888	0.003004074	-0.609375	0.059814453	-0.774902344	878.24	-33.56862422	-75.25160979	27.27699841	-72
55483	0	0.379089355	-0.055419922	0.08380127	0.999999046	0.000144958	-0.000208855	-0.000133514	9.477233887	-1.385498047	2.095031738	0.007247925	-0.010442734	-0.00667572	-0.609130859	0.057617188	-0.777587891	878.26	-33.50307453	-75.28606812	27.22524252	-72
55484	0	0.379943848	-0.054199219	0.083374023	0.999999046	0.000443459	-0.000205994	-0.000198364	9.498596191	-1.354980469	2.084350586	0.022172929	-0.010299683	-0.009918213	-0.609375	0.059814453	-0.771972656	878.14	-33.37870219	-75.32427356	27.14256038	-72
55485	0	0.38104248	-0.05670166	0.083740234	0.999999046	4.96E-05	-0.000235558	-1.53E-05	9.526062012	-1.417541504	2.093505859	0.002479553	-0.011777878	-0.000762939	-0.611572266	0.057617188	-0.774658203	878.2	-33.37367693	-75.35360593	27.14052119	-72
55486	0	0.379130363	-0.056194305	0.084237099	0.999999046	-4.20E-05	-0.000196457	7.63E-06	9.478259087	-1.404857635	2.105927467	-0.002098084	-0.009822846	0.00038147	-0.611816406	0.059814453	-0.777587891	878.3	-33.37841345	-75.37758116	27.13378176	-72
55487	0	0.381774902	-0.058105469	0.081970215	0.999999046	-6.48E-05	-1.05E-05	-1.14E-05	9.544372559	-1.452636719	2.049255371	-0.003242493	-0.000524521	-0.000572205	-0.609375	0.059814453	-0.769042969	878.3	-33.3346927	-75.38485506	27.07385114	-71
55488	0	0.380862236	-0.05755806	0.080976486	0.999999046	0.000340462	-0.000183105	1.43E-05	9.521555901	-1.438951492	2.024412155	0.017023087	-0.009155274	0.000715256	-0.611816406	0.057617188	-0.771728516	878.2	-33.29649084	-75.4069686	27.07092812	-71
55489	0	0.378967285	-0.058166504	0.081726074	0.999999046	0.000648499	-0.000250816	-6.10E-05	9.474182129	-1.454162598	2.043151855	0.032424929	-0.012540818	-0.003051758	-0.611572266	0.057617188	-0.774658203	878.2	-33.21240891	-75.44017115	27.05474135	-70
55490	0	0.379747391	-0.055268288	0.081727982	0.999998093	0.001812935	-0.000372887	-3.15E-05	9.493684769	-1.381707191	2.043199539	0.090646796	-0.018644344	-0.001573564	-0.614013672	0.057617188	-0.771484375	878.2	-33.03543384	-75.48317958	27.07591776	-70
55491	0	0.382202148	-0.052368164	0.08001709	0.999999046	0.000843048	-0.000224113	9.92E-05	9.555053711	-1.309204102	2.000427246	0.04215241	-0.011205675	0.004959107	-0.614013672	0.053222656	-0.771240234	878.18	-32.98213653	-75.5038619	27.11563371	-70
55492	0	0.379359245	-0.053954124	0.081523895	0.999999046	0.00111866	-0.000183105	0.000189781	9.483981133	-1.348853111	2.038097382	0.055933011	-0.009155275	0.009489062	-0.611572266	0.053222656	-0.771240234	878.26	-32.92134788	-75.5149274	27.17676777	-69
55493	0	0.38104248	-0.049499512	0.080871582	0.999998093	0.001420021	-0.000152588	0.000247955	9.526062012	-1.237487793	2.021789551	0.071001078	-0.007629397	0.01239777	-0.616210938	0.051269531	-0.770996094	878.2	-32.83996017	-75.51958407	27.25357314	-69
55494	0	0.384580612	-0.051904678	0.080290794	0.999999046	0.000185013	-0.000114441	0.00012207	9.614515305	-1.297616959	2.007269859	0.009250641	-0.005722046	0.006103516	-0.611572266	0.051025391	-0.768310547	878.26	-32.84412826	-75.52853053	27.27158746	-69
55495	0	0.380554199	-0.053466797	0.080871582	0.999998093	0.001461983	-0.000190735	-2.67E-05	9.51385498	-1.336669922	2.021789551	0.073099163	-0.009536747	-0.001335145	-0.613769531	0.048828125	-0.768066406	878.24	-32.66501461	-75.55406495	27.25173975	-69
55496	0	0.37899971	-0.048514366	0.079648018	0.999999046	0.000531197	-0.00019455	0.000350952	9.474992752	-1.212859154	1.991200447	0.026559832	-0.009727479	0.017547609	-0.618408203	0.046875	-0.770507813	878.26	-32.73441889	-75.55673972	27.3821602	-68
55497	0	0.382202148	-0.053100586	0.081604004	0.999999046	0.000289917	-6.39E-05	0.000507355	9.555053711	-1.327514648	2.040100098	0.01449585	-0.003194809	0.025367738	-0.613525391	0.046630859	-0.7734375	878.26	-32.85861883	-75.53705275	27.53973493	-68
55498	0	0.382708549	-0.052466393	0.080851555	0.999999046	0.000818253	-8.96E-05	0.000525475	9.567713737	-1.311659813	2.021288872	0.040912635	-0.00448227	0.026273732	-0.613769531	0.046630859	-0.767822266	878.2	-32.9350405	-75.51869386	27.70970322	-68
55499	0	0.38293457	-0.052185059	0.079650879	0.999999046	0.000274658	5.05E-05	0.000362396	9.573364258	-1.304626465	1.991271973	0.013732911	0.002527237	0.018119813	-0.615966797	0.044433594	-0.773193359	878.2	-32.97915093	-75.4970888	27.78613826	-68
55500	0	0.380874634	-0.050952911	0.079959869	0.999999046	0.000144005	8.77E-05	0.00064373	9.521865845	-1.273822784	1.998996735	0.007200242	0.004386902	0.032186511	-0.615966797	0.046630859	-0.7734375	878.18	-33.13317742	-75.45440593	27.9575882	-68
55501	0	0.382507324	-0.052490234	0.079650879	0.999999046	7.63E-05	0.000145912	0.000675201	9.562683105	-1.312255859	1.991271973	0.003814698	0.007295609	0.033760074	-0.615966797	0.049072266	-0.773681641	878.32	-33.29168769	-75.40416688	28.12250139	-68
55502	0	0.38515377	-0.056904793	0.080503464	0.999999046	0.000379562	-0.000127792	0.000518799	9.628844261	-1.42261982	2.012586594	0.01897812	-0.006389618	0.025939943	-0.613525391	0.046630859	-0.7734375	878.24	-33.42406554	-75.38987917	28.3000774	-67
55503	0	0.383972168	-0.055603027	0.079833984	0.999999046	0.000839233	-3.72E-05	0.000694275	9.599304199	-1.390075684	1.995849609	0.041961678	-0.001859665	0.034713752	-0.611328125	0.048828125	-0.770996094	878.3	-33.54622782	-75.35580029	28.51614522	-67
55504	0	0.378352165	-0.051537514	0.080989838	0.999999046	6.77E-05	-7.63E-05	0.000423431	9.458804131	-1.288437843	2.024745941	0.003385544	-0.003814697	0.02117157	-0.613525391	0.044433594	-0.770507813	878.32	-33.66644247	-75.34257275	28.64828572	-67
55505	0	0.380371094	-0.057189941	0.081420898	0.999999046	0.00082016	-0.000159264	0.000453949	9.509277344	-1.429748535	2.035522461	0.041008002	-0.007963182	0.022697452	-0.613769531	0.048828125	-0.773681641	878.3	-33.73211352	-75.33518344	28.80331048	-67
55506	0	0.382243156	-0.050265312	0.080159187	0.999999046	0.00082016	9.54E-05	0.000914574	9.556078911	-1.256632805	2.003979683	0.041008006	0.004768373	0.045728695	-0.613525391	0.046630859	-0.7734375	878.24	-33.90214418	-75.27427919	29.07008771	-67
55507	0	0.38269043	-0.053344727	0.079467773	0.999998093	-0.001490593	0.00025177	0.000545502	9.567260742	-1.333618164	1.986694336	-0.07452968	0.012588506	0.027275097	-0.613525391	0.046630859	-0.770751953	878.18	-34.16385823	-75.2220864	29.16367986	-67
55508	0	0.378252029	-0.057547569	0.083576202	0.999999046	-0.000695229	0.000177383	0.00063324	9.456300735	-1.438689232	2.08940506	-0.034761434	0.008869172	0.031661992	-0.613769531	0.051025391	-0.768066406	878.26	-34.38303226	-75.17100545	29.30303206	-67
55509	0	0.377685547	-0.055847168	0.082092285	0.999999046	0.000286102	0.000218391	0.000465393	9.442138672	-1.396179199	2.052307129	0.014305116	0.010919572	0.023269655	-0.611572266	0.051025391	-0.768310547	878.2	-34.41897812	-75.12678383	29.36878761	-67
55510	0	0.380345345	-0.054628372	0.082593918	0.999999046	-0.000888824	0.000423431	0.000201225	9.508633614	-1.365709305	2.064847946	-0.044441231	0.021171573	0.010061266	-0.611328125	0.051025391	-0.773925781	878.18	-34.4451592	-75.08030548	29.28777193	-67
55511	0	0.379882813	-0.058959961	0.083679199	0.999999046	-0.000198364	0.000424385	0.000442505	9.497070313	-1.473999023	2.09197998	-0.009918214	0.021219255	0.022125246	-0.611572266	0.053222656	-0.774169922	878.26	-34.47784797	-75.01796437	29.29297799	-67
55512	0	0.378786087	-0.057619095	0.080863953	0.999999046	0.000102043	0.000364304	0.000411987	9.469652176	-1.440477371	2.021598816	0.005102158	0.01821518	0.020599366	-0.611572266	0.053222656	-0.771240234	878.24	-34.48015868	-74.96330132	29.30333296	-67
55513	0	0.377197266	-0.058349609	0.080871582	0.999999046	-0.001121521	0.000260353	0.000469208	9.429931641	-1.458740234	2.021789551	-0.056076064	0.013017658	0.023460394	-0.609130859	0.053222656	-0.774414063	878.24	-34.66794146	-74.91471976	29.36389133	-67
55514	0	0.381246567	-0.06248951	0.08050251	0.999999046	-5.72E-06	5.15E-05	0.000431061	9.531164169	-1.56223774	2.012562752	-0.000286102	0.002574921	0.02155304	-0.609375	0.057617188	-0.774658203	878.3	-34.76556933	-74.88823101	29.45610174	-67
55515	0	0.379577637	-0.061462402	0.079650879	0.999999046	0.000797272	-0.000144005	0.000152588	9.489440918	-1.536560059	1.991271973	0.039863591	-0.007200242	0.007629395	-0.611572266	0.055419922	-0.77734375	878.26	-34.72221918	-74.89834503	29.50005199	-67
55516	0	0.379522324	-0.054981232	0.080055237	0.999999046	-0.0002985	-0.000209808	0.00012207	9.48805809	-1.374530792	2.00138092	-0.014925003	-0.010490418	0.006103516	-0.609130859	0.055419922	-0.774414063	878.26	-34.80967465	-74.91682304	29.54986528	-67
55517	0	0.379638672	-0.06060791	0.080810547	0.999999046	3.05E-05	-0.000266075	0.000419617	9.490966797	-1.515197754	2.020263672	0.001525879	-0.013303757	0.020980836	-0.614013672	0.057617188	-0.771484375	878.14	-34.97776388	-74.92103574	29.72041058	-67
55518	0	0.381098747	-0.056834221	0.080854416	0.999999046	0.001005173	-0.000295639	0.000330925	9.527468681	-1.420855522	2.021360397	0.050258647	-0.014781955	0.016546253	-0.611572266	0.055419922	-0.771484375	878.24	-35.01059224	-74.93387613	29.86755748	-67
55519	0	0.383666992	-0.055297852	0.079406738	0.999999046	-0.00107193	-9.06E-05	1.14E-05	9.591674805	-1.382446289	1.985168457	-0.053596507	-0.004529954	0.000572205	-0.611572266	0.055419922	-0.774414063	878.18	-35.11998267	-74.94870171	29.85029485	-67
55520	0	0.379590988	-0.060856819	0.083356857	0.999999046	-0.000187874	-0.000183105	-0.000401497	9.489774704	-1.521420479	2.083921432	-0.009393692	-0.009155274	-0.020074845	-0.611816406	0.057617188	-0.771728516	878.3	-35.00672387	-74.99924238	29.70284352	-67
55521	0	0.379882813	-0.057739258	0.081604004	0.999999046	-0.000102997	-3.72E-05	-0.000297546	9.497070313	-1.443481445	2.040100098	-0.005149841	-0.001859665	-0.01487732	-0.614013672	0.055419922	-0.774169922	878.26	-34.88368885	-75.02918131	29.55956866	-67
55522	0	0.379558563	-0.06021595	0.081256866	0.999999046	-0.001111984	0.000303268	-0.000324249	9.488964081	-1.50539875	2.031421661	-0.055599226	0.015163425	-0.016212467	-0.614013672	0.055664063	-0.768554688	878.3	-34.78368019	-75.02870663	29.32291337	-67
55523	0	0.379821777	-0.06262207	0.081115723	0.999999046	3.05E-05	0.0002985	7.25E-05	9.495544434	-1.565551758	2.027893066	0.001525879	0.014925003	0.003623962	-0.611816406	0.059814453	-0.774658203	878.26	-34.69463933	-75.00255108	29.22406542	-67
55524	0	0.382023811	-0.059988022	0.079454422	0.999999046	-2.00E-05	0.000347137	0.000136375	9.550595284	-1.499700546	1.98636055	-0.001001358	0.017356873	0.006818772	-0.611816406	0.057617188	-0.771728516	878.2	-34.6230421	-74.96767244	29.14223682	-67
55525	0	0.37878418	-0.061401367	0.081420898	0.999999046	-0.000896454	0.000279427	0.000175476	9.469604492	-1.53503418	2.035522461	-0.0448227	0.013971331	0.008773805	-0.609375	0.057617188	-0.774658203	878.2	-34.68288327	-74.93653517	29.09462785	-67
55526	0	0.379693031	-0.061925888	0.08170414	0.999999046	1.91E-06	0.00015831	0.000228882	9.492325783	-1.548147202	2.042603493	9.54E-05	0.007915497	0.011444092	-0.606933594	0.059570313	-0.774902344	878.18	-34.68852421	-74.9132416	29.09341251	-67
55527	0	0.379455566	-0.058105469	0.080322266	0.999999046	0.000125885	9.63E-05	0.000419617	9.48638916	-1.452636719	2.008056641	0.006294251	0.004816055	0.020980836	-0.609375	0.059814453	-0.771972656	878.2	-34.76170193	-74.8834103	29.17798317	-66
55528	0	0.378596306	-0.059440613	0.08217907	0.999999046	-0.001009941	0.0001297	0.000552177	9.464907646	-1.48601532	2.054476738	-0.050497066	0.006484987	0.027608878	-0.609375	0.059814453	-0.777832031	878.26	-35.00270594	-74.84165193	29.30551251	-66
55529	0	0.38104248	-0.061523438	0.083435059	0.999999046	8.77E-05	0.00011158	0.000629425	9.526062012	-1.538085938	2.085876465	0.004386902	0.005578995	0.031471255	-0.607177734	0.061767578	-0.778076172	878.2	-35.14844593	-74.79629299	29.46135128	-66
55530	0	0.38058567	-0.057533264	0.081819534	0.999999046	0.000652313	0.000165939	0.000675201	9.514641762	-1.438331604	2.045488358	0.032615667	0.008296968	0.033760076	-0.606933594	0.059570313	-0.774902344	878.26	-35.23101024	-74.74282431	29.62288693	-66
55531	0	0.382141113	-0.058166504	0.081115723	0.999999046	-0.001052856	0.000432014	0.00056076	9.553527832	-1.454162598	2.027893066	-0.052642836	0.021600729	0.028038032	-0.609375	0.059814453	-0.771972656	878.24	-35.40422986	-74.67210045	29.68097467	-67
55532	0	0.380228996	-0.06328392	0.082836151	0.999999046	0.000170708	0.000173569	0.000335693	9.505724907	-1.582098007	2.070903778	0.008535385	0.008678437	0.016784668	-0.607177734	0.063964844	-0.778076172	878.3	-35.42308688	-74.64035333	29.71532653	-67
55533	0	0.377685547	-0.058105469	0.07989502	0.999999046	0.000171661	5.05E-05	0.000247955	9.442138672	-1.452636719	1.997375488	0.008583069	0.002527237	0.012397766	-0.609619141	0.064208984	-0.775146484	878.26	-35.44168825	-74.62607887	29.75007146	-67
55534	0	0.380087852	-0.061623573	0.081540108	0.999999046	-0.000425339	-3.43E-05	-4.67E-05	9.502196312	-1.540589333	2.038502693	-0.021266938	-0.001716614	-0.002336502	-0.607177734	0.063964844	-0.775390625	878.24	-35.44948519	-74.63933848	29.70335997	-67
55535	0	0.379577637	-0.062011719	0.080993652	0.999999046	0.000587463	-6.39E-05	7.63E-05	9.489440918	-1.550292969	2.024841309	0.029373171	-0.003194809	0.003814697	-0.607177734	0.061767578	-0.778076172	878.3	-35.39063778	-74.64721065	29.71023893	-66
55536	0	0.379029274	-0.058802605	0.079792023	0.999999046	0.000279427	-9.92E-05	0.000156403	9.47573185	-1.470065117	1.994800568	0.013971329	-0.004959107	0.00782013	-0.609619141	0.064208984	-0.772216797	878.26	-35.40301182	-74.65321582	29.75010451	-66
55537	0	0.37902832	-0.060852051	0.08001709	0.999999046	-0.000743866	-0.000166893	0.000247955	9.475708008	-1.52130127	2.000427246	-0.037193302	-0.008344651	0.012397767	-0.609619141	0.064208984	-0.775146484	878.24	-35.58065552	-74.65951082	29.84221049	-66
55538	0	0.380428314	-0.06287384	0.082725525	0.999999046	0.000188828	-0.000135422	0.00014019	9.510707855	-1.571846008	2.068138123	0.009441376	-0.006771088	0.007009506	-0.607177734	0.066162109	-0.778320313	878.24	-35.60759459	-74.66994753	29.88358956	-66
55539	0	0.380249023	-0.059875488	0.084106445	0.999999046	0.000507355	-0.000300407	3.43E-05	9.506225586	-1.496887207	2.102661133	0.025367738	-0.015020371	0.001716614	-0.609619141	0.064208984	-0.772216797	878.26	-35.60200672	-74.70277201	29.93250236	-67
55540	0	0.3802948	-0.060487747	0.084182739	0.999999046	-0.000123024	-0.000190735	1.53E-05	9.507369995	-1.51219368	2.104568481	-0.006151199	-0.009536743	0.000762939	-0.609619141	0.064208984	-0.772216797	878.24	-35.63531557	-74.72657625	29.94707742	-66
55541	0	0.379699707	-0.062072754	0.085327148	0.999999046	0.000152588	6.20E-05	4.58E-05	9.492492676	-1.551818848	2.133178711	0.007629395	0.003099442	0.002288818	-0.609619141	0.062011719	-0.772216797	878.3	-35.58562415	-74.72462362	29.91228818	-67
55542	0	0.378218651	-0.061044693	0.082461357	0.999999046	0.000495911	0.000116348	-3.81E-05	9.45546627	-1.526117325	2.061533928	0.024795533	0.005817414	-0.001907349	-0.607177734	0.064208984	-0.772460938	878.3	-35.45481071	-74.72312326	29.82732984	-67
55543	0	0.379211426	-0.059875488	0.081604004	0.999999046	-0.00025177	0.000134468	-2.29E-05	9.480285645	-1.496887207	2.040100098	-0.012588501	0.006723404	-0.001144409	-0.609619141	0.064208984	-0.778076172	878.26	-35.41056545	-74.71891987	29.7444831	-67
55544	0	0.382427216	-0.064415932	0.081856728	0.999999046	0.000714302	0.0001297	-0.000236511	9.560680389	-1.610398293	2.04641819	0.035715107	0.006484986	-0.011825563	-0.607177734	0.063964844	-0.778076172	878.2	-35.18440141	-74.72919715	29.5847169	-67
55545	0	0.376647949	-0.057128906	0.081481934	0.999999046	-0.000461578	0.000191689	-0.000209808	9.41619873	-1.428222656	2.03704834	-0.02307892	0.009584427	-0.010490418	-0.609375	0.059814453	-0.771972656	878.24	-35.08670489	-74.73187439	29.42888372	-67
55546	0	0.377619743	-0.062844276	0.081506729	0.999999046	-0.000642776	6.29E-05	0.000170708	9.440493584	-1.571106911	2.037668228	-0.032138827	0.003147125	0.008535386	-0.607177734	0.062011719	-0.769287109	878.2	-35.17213241	-74.72145306	29.43863063	-67
55547	0	0.379943848	-0.060180664	0.08203125	0.999999046	0.000141144	0.000157356	0.000274658	9.498596191	-1.504516602	2.05078125	0.00705719	0.007867813	0.01373291	-0.609375	0.062011719	-0.777832031	878.26	-35.18062076	-74.69534369	29.46207758	-67
55548	0	0.377382278	-0.060182571	0.081372261	0.999999046	-0.000849724	0.000221252	0.000201225	9.434556961	-1.504564285	2.034306526	-0.042486197	0.011062624	0.010061265	-0.607177734	0.063964844	-0.778076172	878.26	-35.262207	-74.66812184	29.44206463	-67
55549	0	0.378967285	-0.062561035	0.082519531	0.999999046	-0.0001297	-4.86E-05	0.000148773	9.474182129	-1.564025879	2.062988281	-0.006484985	-0.00243187	0.00743866	-0.604736328	0.063964844	-0.775390625	878.24	-35.30884823	-74.66956134	29.4713381	-67
55550	0	0.379689217	-0.062451363	0.08185482	0.999999046	0.000265121	-4.39E-05	-1.24E-05	9.492230415	-1.561284065	2.046370506	0.013256073	-0.002193451	-0.000619888	-0.607177734	0.063964844	-0.775390625	878.3	-35.25452538	-74.68119949	29.44263291	-67
55551	0	0.379760742	-0.058959961	0.083312988	0.999999046	-0.000324249	4.29E-05	9.92E-05	9.494018555	-1.473999023	2.082824707	-0.016212464	0.002145767	0.004959107	-0.607177734	0.064208984	-0.772460938	878.26	-35.28459858	-74.67734934	29.4322961	-67
55552	0	0.379435539	-0.062569618	0.084951401	0.999999046	-0.000229836	1.72E-05	0.000315666	9.485888481	-1.564240456	2.123785019	-0.011491776	0.000858307	0.01578331	-0.607177734	0.063964844	-0.775390625	878.26	-35.38399455	-74.66140738	29.50673772	-67
55553	0	0.378845215	-0.060546875	0.083679199	0.999999046	-0.000225067	0.000100136	0.000331879	9.471130371	-1.513671875	2.09197998	-0.011253357	0.00500679	0.016593934	-0.604980469	0.066162109	-0.775634766	878.26	-35.46798832	-74.63656373	29.56206786	-67
55554	0	0.378358841	-0.062788963	0.083725929	0.999999046	-0.000156403	0.000150681	0.000225067	9.458971024	-1.569724083	2.093148232	-0.00782013	0.007534027	0.011253357	-0.604980469	0.066162109	-0.775634766	878.2	-35.4956723	-74.6139857	29.56820756	-67
55555	0	0.377563477	-0.059936523	0.08190918	0.999999046	-4.96E-05	0.000130653	0.000473022	9.439086914	-1.498413086	2.047729492	-0.002479553	0.006532669	0.023651124	-0.607177734	0.066162109	-0.778320313	878.24	-35.59970901	-74.57679873	29.66813563	-67
55556	0	0.384195328	-0.063970566	0.083161354	0.999999046	0.000281334	9.54E-06	0.000125885	9.604883194	-1.599264145	2.079033852	0.014066696	0.000476837	0.006294251	-0.607421875	0.068603516	-0.775634766	878.3	-35.57804061	-74.57400885	29.67162522	-67
55557	0	0.376098633	-0.059509277	0.083496094	0.999999046	-8.77E-05	-1.81E-05	0.00018692	9.40246582	-1.487731934	2.087402344	-0.004386902	-0.000905991	0.009346008	-0.604980469	0.066162109	-0.775634766	878.24	-35.62563081	-74.5697116	29.70790929	-67
55558	0	0.377298355	-0.064060211	0.082737923	0.999999046	1.91E-05	1.72E-05	0.000312805	9.432458878	-1.60150528	2.068448067	0.000953674	0.000858307	0.015640259	-0.607421875	0.068359375	-0.778564453	878.24	-35.69530602	-74.55361437	29.7766116	-67
55559	0	0.38067627	-0.061950684	0.08392334	0.999999046	0.000709534	5.44E-05	0.000263214	9.516906738	-1.54876709	2.098083496	0.035476688	0.002717972	0.013160707	-0.607421875	0.06640625	-0.772705078	878.3	-35.66004703	-74.53733477	29.82124959	-67
55560	0	0.378682137	-0.059835434	0.083315849	0.999999046	-0.000723839	0.000164032	0.000727654	9.467053413	-1.495885849	2.082896233	-0.036191947	0.008201601	0.036382682	-0.604980469	0.066162109	-0.775634766	878.26	-35.91777971	-74.47974998	30.00305171	-67
55561	0	0.379333496	-0.063171387	0.083740234	0.999999046	0.000278473	8.49E-05	0.00031662	9.483337402	-1.579284668	2.093505859	0.013923645	0.004243851	0.015830994	-0.604980469	0.068359375	-0.772949219	878.24	-35.94169491	-74.45698268	30.05691192	-67
55562	0	0.378915787	-0.058421135	0.083530426	0.999999046	-9.92E-05	0.000133514	0.000155449	9.472894669	-1.460528374	2.088260651	-0.004959106	0.00667572	0.007772446	-0.604980469	0.068359375	-0.775878906	878.26	-35.94270134	-74.44064052	30.04264097	-67
55563	0	0.380004883	-0.062255859	0.081481934	0.999999046	-0.000247955	-7.15E-05	0.00012207	9.50012207	-1.556396484	2.03704834	-0.012397766	-0.003576279	0.006103516	-0.604980469	0.068359375	-0.778564453	878.18	-35.99940154	-74.44565243	30.06925473	-67
55564	0	0.379817963	-0.062391281	0.084630013	0.999999046	0.000353813	-0.000133514	-0.000191689	9.495449066	-1.559782028	2.115750313	0.017690659	-0.00667572	-0.009584427	-0.604980469	0.066162109	-0.778564453	878.3	-35.89735141	-74.47747967	30.00534032	-67
55565	0	0.376342773	-0.061767578	0.081970215	0.999999046	-0.000240326	-0.000105858	-2.29E-05	9.408569336	-1.544189453	2.049255371	-0.012016297	-0.005292893	-0.001144409	-0.604980469	0.068359375	-0.778564453	878.24	-35.91304742	-74.49540254	29.98898176	-67
55566	0	0.377644539	-0.063926697	0.0817976	0.999999046	-0.000305176	-0.000173569	7.15E-05	9.441113472	-1.598167419	2.044939995	-0.015258789	-0.008678436	0.003576279	-0.604980469	0.070556641	-0.778808594	878.26	-35.98467186	-74.51323492	30.01940323	-67
55567	0	0.379211426	-0.063415527	0.083496094	0.999999046	0.000160217	-0.000185966	-4.20E-05	9.480285645	-1.585388184	2.087402344	0.008010864	-0.009298325	-0.002098084	-0.604980469	0.068359375	-0.775878906	878.24	-35.96818696	-74.53979244	30.01760621	-66
55568	0	0.38254261	-0.063236237	0.08135891	0.999999046	-0.000712395	-7.82E-05	6.87E-05	9.563565254	-1.580905914	2.03397274	-0.035619739	-0.003910065	0.003433228	-0.604980469	0.068359375	-0.778564453	878.18	-36.06293712	-74.5489753	30.02957759	-67
55569	0	0.37677002	-0.06262207	0.084411621	0.999999046	-0.000793457	-9.06E-05	0.0001297	9.419250488	-1.565551758	2.110290527	-0.039672856	-0.004529953	0.006484986	-0.607421875	0.070800781	-0.775878906	878.2	-36.19038238	-74.55506007	30.06448901	-67
55570	0	0.376829147	-0.064622879	0.083446503	0.999999046	-0.000202179	-3.62E-05	0.000380516	9.420728683	-1.615571976	2.086162567	-0.010108948	-0.001811981	0.019025803	-0.605224609	0.072753906	-0.776123047	878.2	-36.32086659	-74.53896658	30.16956313	-67
55571	0	0.381408691	-0.062255859	0.082641602	0.999999046	-0.000217438	0.000157356	0.000495911	9.535217285	-1.556396484	2.066040039	-0.010871888	0.007867814	0.024795534	-0.607421875	0.070800781	-0.775878906	878.24	-36.44361031	-74.49714017	30.27153233	-67
55572	0	0.37741375	-0.06333828	0.082792282	0.999999046	-0.001238823	0.000148773	0.000449181	9.435343742	-1.583456993	2.069807053	-0.061941165	0.007438662	0.022459037	-0.605224609	0.072753906	-0.776123047	878.3	-36.6693212	-74.45917163	30.35910652	-67
55573	0	0.378967285	-0.065856934	0.082580566	0.999999046	-0.00037384	9.63E-05	0.000217438	9.474182129	-1.64642334	2.06451416	-0.018692017	0.004816055	0.010871888	-0.60546875	0.074951172	-0.7734375	878.24	-36.73215279	-74.44176507	30.37779748	-66
55574	0	0.378741264	-0.06223774	0.081507683	0.999999046	-0.000799179	3.81E-05	0.000185966	9.468531609	-1.555943489	2.03769207	-0.039958958	0.001907349	0.009298326	-0.607666016	0.075195313	-0.7734375	878.24	-36.84746781	-74.43193125	30.40353051	-67
55575	0	0.378356934	-0.068115234	0.081420898	0.999999046	-0.000743866	5.44E-05	0.000213623	9.45892334	-1.702880859	2.035522461	-0.037193302	0.002717972	0.010681153	-0.605224609	0.077148438	-0.779296875	878.24	-36.96219938	-74.41860539	30.43289087	-67
55576	0	0.379480362	-0.062906265	0.081367493	0.999999046	5.25E-05	-0.000116348	0.000247002	9.487009048	-1.572656631	2.034187317	0.002622604	-0.005817413	0.012350083	-0.60546875	0.079589844	-0.773925781	878.26	-37.03867773	-74.4186712	30.51279673	-67
55577	0	0.379516602	-0.063354492	0.081848145	0.999998093	-0.001570702	-0.000152588	0.000320435	9.487915039	-1.583862305	2.046203613	-0.078535114	-0.007629398	0.016021735	-0.60546875	0.079589844	-0.773925781	878.18	-37.33409198	-74.41694045	30.63253543	-67
55578	0	0.378095627	-0.064833641	0.08262825	0.999999046	-0.000415802	-0.000127792	0.000380516	9.452390671	-1.620841026	2.065706253	-0.020790101	-0.006389618	0.019025804	-0.60546875	0.081787109	-0.776855469	878.2	-37.51044184	-74.40859817	30.7635499	-67
55579	0	0.37713623	-0.063598633	0.084106445	0.999999046	-0.000331879	-0.000311852	3.43E-05	9.428405762	-1.58996582	2.102661133	-0.016593934	-0.015592576	0.001716614	-0.605712891	0.083984375	-0.771240234	878.24	-37.61003901	-74.4409996	30.82144619	-67
55580	0	0.381881714	-0.062642097	0.081566811	0.999999046	-0.001063347	-0.000141144	6.87E-05	9.547042847	-1.566052437	2.039170265	-0.053167353	-0.007057191	0.003433228	-0.605712891	0.081787109	-0.770996094	878.18	-37.76167052	-74.45559152	30.85427798	-67
55581	0	0.378967285	-0.067016602	0.082397461	0.999999046	-0.000984192	2.77E-05	8.01E-05	9.474182129	-1.675415039	2.059936523	-0.049209603	0.001382828	0.004005433	-0.605712891	0.083984375	-0.774169922	878.18	-37.86561049	-74.45398299	30.84558409	-67
55582	0	0.377243042	-0.065041542	0.081679344	0.999999046	-0.000844955	3.24E-05	0.000366211	9.43107605	-1.626038551	2.041983604	-0.042247778	0.001621247	0.018310549	-0.608154297	0.086181641	-0.774169922	878.26	-38.0451422	-74.43175519	30.93173277	-67
55583	0	0.376586914	-0.066589355	0.081115723	0.999999046	-0.000602722	0.000184059	6.10E-05	9.414672852	-1.664733887	2.027893066	-0.03013611	0.009202958	0.003051758	-0.603515625	0.0859375	-0.771484375	878.26	-38.05960939	-74.41730447	30.87620211	-67
55584	0	0.380515099	-0.068261147	0.082453728	0.999999046	0.000491142	-8.96E-05	0.000160217	9.512877464	-1.706528664	2.061343193	0.024557115	-0.004482269	0.008010865	-0.605957031	0.088378906	-0.77734375	878.24	-38.05041658	-74.42044116	30.92065467	-67
55585	0	0.380187988	-0.064147949	0.079711914	0.999999046	9.54E-05	-1.43E-05	2.67E-05	9.504699707	-1.60369873	1.992797852	0.004768372	-0.000715256	0.001335144	-0.605712891	0.086181641	-0.774414063	878.18	-38.02422544	-74.42633173	30.90450765	-67
55586	0	0.377744675	-0.063603401	0.081542969	0.999999046	-0.000583649	3.43E-05	0.000205994	9.443616867	-1.59008503	2.038574219	-0.029182436	0.001716614	0.010299683	-0.608154297	0.088378906	-0.774414063	878.18	-38.12119982	-74.4152001	30.93406151	-67
55587	0	0.379760742	-0.069641113	0.082763672	0.999999046	-0.000579834	-6.77E-05	0.000148773	9.494018555	-1.741027832	2.069091797	-0.028991701	-0.003385544	0.00743866	-0.605957031	0.088378906	-0.774414063	878.24	-38.22546982	-74.41713515	30.97289247	-67
55588	0	0.379813194	-0.065943718	0.082512856	0.999999046	0.000302315	1.34E-05	-1.24E-05	9.495329857	-1.648592949	2.062821388	0.015115738	0.000667572	-0.000619888	-0.605957031	0.090576172	-0.771728516	878.2	-38.15582861	-74.42314329	30.93046543	-67
55589	0	0.37878418	-0.065368652	0.083435059	0.999999046	-0.000473022	6.58E-05	3.81E-05	9.469604492	-1.634216309	2.085876465	-0.023651124	0.003290177	0.001907349	-0.605957031	0.090576172	-0.777587891	878.24	-38.17769411	-74.42076798	30.89244694	-67
55590	0	0.380782127	-0.066270828	0.083543777	0.999999046	-6.10E-05	0.000154495	6.10E-05	9.519553185	-1.656770706	2.088594437	-0.003051758	0.007724762	0.003051758	-0.605957031	0.088378906	-0.774414063	878.24	-38.13702701	-74.40870538	30.84341165	-67
55591	0	0.37902832	-0.063903809	0.081420898	0.999999046	0.000408173	0.000149727	-3.05E-05	9.475708008	-1.597595215	2.035522461	0.020408631	0.007486344	-0.001525879	-0.603515625	0.090332031	-0.774902344	878.24	-38.01400124	-74.40358023	30.7583595	-67
55592	0	0.376993179	-0.063508987	0.081829071	0.999999046	0.000159264	8.77E-05	9.44E-05	9.424829483	-1.587724686	2.045726776	0.007963181	0.004386902	0.004720688	-0.603515625	0.088134766	-0.771728516	878.24	-37.97527305	-74.39523666	30.73549141	-67
55593	0	0.38092041	-0.068115234	0.080078125	0.999999046	-0.000450134	-8.68E-05	-0.000270844	9.523010254	-1.702880859	2.001953125	-0.022506715	-0.004339218	-0.013542176	-0.603515625	0.090332031	-0.774902344	878.24	-37.93272361	-74.42841241	30.63216453	-67
55594	0	0.377307892	-0.066092491	0.081539154	0.999999046	0.000173569	1.91E-05	-0.000187874	9.432697296	-1.652312279	2.038478851	0.008678436	0.000953674	-0.009393692	-0.605957031	0.088378906	-0.768798828	878.26	-37.81866196	-74.44609721	30.53258631	-67
55595	0	0.37701416	-0.067504883	0.081970215	0.999999046	-0.000400543	-7.92E-05	-6.48E-05	9.425354004	-1.68762207	2.049255371	-0.020027161	-0.003957749	-0.003242493	-0.603515625	0.090332031	-0.774902344	878.18	-37.83535139	-74.46389193	30.49650572	-67
55596	0	0.379843712	-0.0685606	0.083440781	0.999999046	0.000372887	-9.16E-05	-9.63E-05	9.496092796	-1.714015007	2.086019516	0.018644333	-0.004577637	-0.004816055	-0.605957031	0.088378906	-0.771728516	878.18	-37.75646975	-74.48485023	30.45654981	-66
55597	0	0.377624512	-0.06427002	0.081054688	0.999999046	4.20E-05	-0.000220299	-1.14E-05	9.440612793	-1.606750488	2.026367188	0.002098084	-0.011014938	-0.000572205	-0.605957031	0.088378906	-0.774414063	878.18	-37.77562579	-74.51152954	30.4786142	-66
55598	0	0.379858971	-0.066757202	0.08101368	0.999999046	0.000152588	-0.000125885	0.000212669	9.496474266	-1.668930054	2.025341988	0.007629395	-0.006294251	0.010633469	-0.605957031	0.088378906	-0.768798828	878.2	-37.8317752	-74.51388379	30.55205658	-66
55599	0	0.378051758	-0.064331055	0.081359863	0.999999046	0.000175476	-9.82E-05	3.81E-05	9.451293945	-1.608276367	2.033996582	0.008773804	-0.004911423	0.001907349	-0.605712891	0.0859375	-0.780029297	878.24	-37.82114947	-74.52599423	30.56334897	-66
55600	0	0.378855705	-0.06683445	0.081612587	0.999999046	0.000182152	-0.00015831	4.58E-05	9.471392632	-1.670861244	2.040314674	0.00910759	-0.007915497	0.002288818	-0.605957031	0.088378906	-0.774414063	878.24	-37.82773056	-74.54293155	30.58754385	-66
55601	0	0.379821777	-0.064758301	0.080871582	0.999999046	0.000591278	-9.44E-05	-1.91E-05	9.495544434	-1.61895752	2.021789551	0.029563906	-0.004720688	-0.000953674	-0.608154297	0.086181641	-0.774169922	878.24	-37.74991811	-74.55866478	30.57607715	-67
55602	0	0.378497124	-0.066050529	0.082708359	0.999999046	7.63E-06	-0.000125885	6.87E-05	9.462428093	-1.651263237	2.067708969	0.00038147	-0.006294251	0.003433228	-0.603515625	0.0859375	-0.774414063	878.2	-37.77572441	-74.57098094	30.60156095	-66
55603	0	0.378540039	-0.067321777	0.082092285	0.999999046	0.000671387	-9.44E-05	0.000144958	9.463500977	-1.683044434	2.052307129	0.033569339	-0.004720688	0.007247925	-0.605712891	0.086181641	-0.774414063	878.18	-37.74276799	-74.57496789	30.6432962	-66
55604	0	0.379817963	-0.064391136	0.082960129	0.999999046	0.000473976	-4.20E-05	0.000216484	9.495449066	-1.609778404	2.07400322	0.023698808	-0.002098084	0.010824204	-0.603271484	0.0859375	-0.77734375	878.24	-37.74228899	-74.56913496	30.69387595	-67
55605	0	0.377990723	-0.065551758	0.082702637	0.999999046	0.000335693	6.20E-05	0.000247955	9.449768066	-1.638793945	2.067565918	0.016784668	0.003099442	0.012397766	-0.605712891	0.086181641	-0.774414063	878.24	-37.74145672	-74.55157774	30.72756735	-67
55606	0	0.381853104	-0.068066597	0.082611084	0.999999046	0.000602722	2.86E-05	-2.29E-05	9.546327591	-1.701664925	2.0652771	0.03013611	0.001430512	-0.001144409	-0.607910156	0.083984375	-0.776855469	878.24	-37.62995526	-74.55592225	30.68146272	-67
55607	0	0.37890625	-0.063415527	0.083374023	0.999999046	0.000221252	0.000107765	-0.000175476	9.47265625	-1.585388184	2.084350586	0.011062622	0.00538826	-0.008773804	-0.607910156	0.081787109	-0.773925781	878.26	-37.49146197	-74.56367264	30.56539368	-66
55608	0	0.377446175	-0.065871239	0.082995415	0.999999046	-0.000348091	5.15E-05	5.63E-05	9.436154366	-1.646780968	2.074885368	-0.017404557	0.002574921	0.002813339	-0.60546875	0.081542969	-0.779785156	878.2	-37.50869212	-74.56022363	30.54394227	-66
55609	0	0.378723145	-0.067626953	0.082824707	0.999999046	0.001018524	6.58E-05	0.000152588	9.468078613	-1.690673828	2.070617676	0.050926218	0.003290177	0.007629396	-0.605712891	0.083984375	-0.774169922	878.24	-37.39774638	-74.54861416	30.54399444	-66
55610	0	0.377166748	-0.062875748	0.082268715	0.999999046	0.000854492	0.000165939	1.43E-05	9.429168701	-1.571893692	2.056717873	0.042724615	0.008296968	0.000715256	-0.605712891	0.081787109	-0.773925781	878.24	-37.2346467	-74.53749309	30.47237484	-66
55611	0	0.377502441	-0.067321777	0.081176758	0.999999046	0.000213623	0.000245094	3.81E-05	9.437561035	-1.683044434	2.029418945	0.010681153	0.012254715	0.001907349	-0.603271484	0.081542969	-0.771240234	878.18	-37.13375098	-74.51737896	30.3882176	-66
55612	0	0.378129005	-0.063531876	0.08150959	0.999999046	0.001088142	0.00028038	-6.10E-05	9.453225136	-1.58829689	2.037739754	0.054407131	0.014019015	-0.003051758	-0.60546875	0.079589844	-0.773925781	878.24	-36.89138441	-74.50085596	30.26249826	-66
55613	0	0.380004883	-0.063232422	0.080566406	0.999999046	0.000347137	0.000229836	-2.67E-05	9.50012207	-1.580810547	2.014160156	0.017356873	0.011491776	-0.001335144	-0.603027344	0.077148438	-0.770996094	878.2	-36.75821452	-74.48662157	30.16509666	-66
55614	0	0.377591133	-0.063463211	0.079379082	0.999999046	0.000236511	9.73E-05	-0.000217438	9.439778328	-1.586580276	1.984477043	0.011825562	0.004863739	-0.010871887	-0.605224609	0.074951172	-0.779296875	878.18	-36.60770819	-74.49768961	30.04032998	-66
55615	0	0.378540039	-0.063476563	0.080749512	0.999999046	8.77E-05	8.11E-05	-0.00019455	9.463500977	-1.586914063	2.018737793	0.004386902	0.004053116	-0.009727478	-0.603027344	0.077148438	-0.773681641	878.2	-36.4858485	-74.50868759	29.92140311	-66
55616	0	0.378612518	-0.06447506	0.082468987	0.999999046	-4.86E-05	-0.000101089	-0.000450134	9.465312958	-1.611876488	2.061724663	-0.00243187	-0.005054474	-0.022506715	-0.60546875	0.074951172	-0.7734375	878.3	-36.33910479	-74.55377679	29.76471981	-66
55617	0	0.374023438	-0.064025879	0.082519531	0.999999046	0.000457764	-0.000220299	-0.000747681	9.350585938	-1.600646973	2.062988281	0.022888187	-0.01101494	-0.037384038	-0.605224609	0.074951172	-0.776367188	878.14	-36.06270559	-74.62978356	29.5299635	-66
55618	0	0.376351357	-0.062961578	0.081678391	0.999999046	-7.44E-05	-0.000101089	-0.001159668	9.408783913	-1.574039459	2.041959763	-0.003719331	-0.005054475	-0.057983412	-0.607421875	0.072998047	-0.778808594	878.24	-35.67575489	-74.72200929	29.11932524	-66
55619	0	0.37890625	-0.067443848	0.084289551	0.999997139	-0.000862122	-0.000102043	-0.002227783	9.47265625	-1.686096191	2.10723877	-0.04310612	-0.005102162	-0.111389266	-0.605224609	0.070556641	-0.775878906	878.14	-35.0058795	-74.8838855	28.32345614	-67
55620	0	0.375529289	-0.059333801	0.08893013	0.999992371	-0.002271652	0.000317574	-0.002933502	9.388232231	-1.483345032	2.22325325	-0.113582874	0.015878714	-0.146675449	-0.604980469	0.068359375	-0.775878906	878.26	-34.13029681	-75.04894103	27.15236295	-67
55621	0	0.38470459	-0.06640625	0.09362793	0.999977112	-0.004466057	0.000717163	-0.004997253	9.617614746	-1.66015625	2.340698242	-0.223304532	0.035858426	-0.249864563	-0.607421875	0.070800781	-0.772949219	878.24	-32.63569052	-75.29898634	25.07924904	-67
55622	0	0.397172928	-0.044499397	0.096226692	0.999937057	-0.008097649	0.002209663	-0.007359505	9.929323196	-1.112484932	2.405667305	-0.404890841	0.110485464	-0.367982878	-0.605224609	0.070556641	-0.775878906	878.26	-30.25767819	-75.52629004	21.67381622	-67
55623	0	0.383911133	-0.036071777	0.10357666	0.999851227	-0.014357567	0.004009247	-0.008598328	9.59777832	-0.901794434	2.589416504	-0.717913779	0.200472237	-0.429937604	-0.600585938	0.077148438	-0.776855469	878.24	-27.64986498	-75.60378514	17.30374215	-66
55624	0	0.375598907	-0.033871651	0.108985901	0.999753952	-0.018383026	0.006037712	-0.010802269	9.389972687	-0.846791267	2.724647522	-0.919226552	0.301910319	-0.540157665	-0.598876953	0.090332031	-0.780761719	878.18	-24.2111487	-75.52389732	11.60537509	-64
55625	0	0.387756348	-0.05456543	0.11907959	0.999695778	-0.018997192	0.007630348	-0.013706207	9.693908691	-1.364135742	2.976989746	-0.949955736	0.381556016	-0.68537971	-0.587402344	0.105224609	-0.788330078	878.3	-19.49047806	-75.29533629	4.502411834	-63
55626	0	0.385000229	-0.046559334	0.115807533	0.999742508	-0.013609886	0.009070396	-0.015709877	9.625005722	-1.163983345	2.895188332	-0.680552652	0.453558704	-0.785561196	-0.578369141	0.113769531	-0.792480469	878.2	-13.43559474	-74.80434501	-3.366918305	-62
55627	0	0.38482666	-0.041015625	0.110107422	0.999657631	-0.016635895	0.010842323	-0.01700592	9.620666504	-1.025390625	2.752685547	-0.831889525	0.542177941	-0.850392915	-0.568847656	0.115478516	-0.798828125	878.18	-7.642695788	-73.93246812	-11.34042009	-61
55628	0	0.387592316	-0.044352531	0.113285065	0.999666214	-0.015424728	0.012112617	-0.016788483	9.689807892	-1.108813286	2.832126617	-0.771322116	0.605698169	-0.839517406	-0.554931641	0.121582031	-0.802978516	878.26	-2.572754881	-72.71324785	-18.46109266	-62
55629	0	0.386962891	-0.04296875	0.111694336	0.999617577	-0.018283844	0.013195992	-0.015975952	9.674072266	-1.07421875	2.792358398	-0.914308596	0.659883582	-0.798899311	-0.538330078	0.127685547	-0.818847656	878.18	1.034022854	-71.21825307	-24.42642183	-63
55630	0	0.382023811	-0.054503441	0.123076439	0.999596596	-0.018615723	0.014354706	-0.015922546	9.550595284	-1.362586021	3.076910973	-0.930911234	0.717831757	-0.796234322	-0.520019531	0.142333984	-0.826904297	878.24	3.818064944	-69.49078049	-29.62150606	-65
55631	0	0.375366211	-0.053833008	0.1328125	0.999624252	-0.01696682	0.014820099	-0.015613556	9.384155273	-1.345825195	3.3203125	-0.848447249	0.74109776	-0.780775581	-0.50390625	0.155029297	-0.834472656	878.14	6.038465147	-67.63964908	-34.07536177	-67
55632	0	0.365693092	-0.044548988	0.142554283	0.999601364	-0.018465042	0.015738487	-0.014404297	9.142327309	-1.113724709	3.563857079	-0.923374656	0.787028817	-0.720310443	-0.483154297	0.167480469	-0.839599609	878.18	7.225684136	-65.65376777	-37.64997371	-65
55633	0	0.356445313	-0.047912598	0.156860352	0.999585152	-0.020057678	0.016797066	-0.011966705	8.911132813	-1.197814941	3.921508789	-1.003022303	0.839969181	-0.598417833	-0.459960938	0.186523438	-0.851074219	878.36	7.263533777	-63.569242	-40.20592367	-63
55634	0	0.356431961	-0.057718277	0.163369179	0.999670029	-0.015576363	0.01787281	-0.009860039	8.910799026	-1.442956924	4.084229469	-0.778903733	0.893738741	-0.493056125	-0.439453125	0.207763672	-0.859619141	878.14	7.113553192	-61.39561671	-42.03322499	-60
55635	0	0.328552246	-0.059082031	0.173034668	0.999717712	-0.011809349	0.018756866	-0.008460999	8.213806152	-1.477050781	4.325866699	-0.59052286	0.937931326	-0.423089624	-0.411865234	0.224365234	-0.865478516	878.3	6.954056611	-59.14470488	-43.40623235	-62
55636	0	0.311986923	-0.055038452	0.175776482	0.999717712	-0.013126373	0.019059181	-0.005366325	7.79967308	-1.375961304	4.394412041	-0.656380413	0.953048717	-0.268341513	-0.386230469	0.236816406	-0.876464844	878.24	5.9992603	-56.90760831	-44.04416208	-62
55637	0	0.316650391	-0.06829834	0.176086426	0.999741554	-0.012516022	0.018872261	-0.001815796	7.916259766	-1.707458496	4.402160645	-0.625854929	0.943694239	-0.090797606	-0.354003906	0.257568359	-0.885742188	878.26	4.538131734	-54.73925574	-44.00305501	-62
55638	0	0.305435181	-0.077599525	0.194455147	0.999767303	-0.011528969	0.018170357	0.001039505	7.635879517	-1.939988136	4.86137867	-0.576493044	0.908588135	0.051979272	-0.323974609	0.276367188	-0.891845703	878.3	2.828545741	-52.67435728	-43.51268255	-66
55639	0	0.292175293	-0.08807373	0.20098877	0.999807358	-0.007170677	0.017429352	0.005409241	7.304382324	-2.201843262	5.024719238	-0.358556837	0.871523441	0.270479369	-0.289306641	0.299560547	-0.8984375	878.24	1.086936713	-50.705308	-42.34911343	-63
55640	0	0.243810654	-0.084591866	0.199599266	0.999803543	-0.006816864	0.016581535	0.008451462	6.095266342	-2.114796638	4.989981651	-0.340865521	0.82913106	0.422600762	-0.254394531	0.313720703	-0.91015625	878.3	-0.895731746	-48.81183708	-40.77140873	-66
55641	0	0.155822754	-0.118774414	0.197875977	0.999639511	-0.016062737	0.017284393	0.012775421	3.895568848	-2.969360352	4.946899414	-0.80323323	0.864323402	0.638847732	-0.219726563	0.332275391	-0.907958984	878.24	-4.30906898	-46.76804275	-38.61390056	-69
55642	0	0.114581108	-0.104269028	0.148084641	0.999204636	-0.02641964	0.021708488	0.020489693	2.864527702	-2.606725693	3.702116013	-1.321332088	1.085712101	1.024756161	-0.174560547	0.372802734	-0.902099609	878.26	-9.461532699	-44.01422546	-35.56288508	-68
55643	0	0.127807617	-0.161560059	0.119445801	0.998305321	-0.040149689	0.026890755	0.032405853	3.19519043	-4.039001465	2.98614502	-2.008618804	1.345297492	1.621208242	-0.114013672	0.439208984	-0.882324219	878.26	-16.7716114	-40.16341686	-31.43242389	-72
55644	0	0.198163986	-0.214406013	0.071578979	0.998157501	-0.032381058	0.031149864	0.040757179	4.954099655	-5.360150337	1.789474487	-1.620047553	1.558450056	2.039110922	-0.027832031	0.509277344	-0.852539063	878.2	-23.0182367	-35.20956672	-27.23927316	-74
55645	0	0.232299805	-0.234680176	0.028320313	0.997860909	-0.031013489	0.029725075	0.04927063	5.807495117	-5.867004395	0.708007813	-1.551780909	1.487314242	2.465289326	0.073242188	0.563476563	-0.819335938	878.24	-28.93942314	-29.66736379	-22.80682134	-71
55646	0	0.218328476	-0.218894958	-0.002901077	0.997365952	-0.042141914	0.026885033	0.052545547	5.458211899	-5.472373962	-0.072526932	-2.108947248	1.345432842	2.629585993	0.183837891	0.604248047	-0.774169922	878.18	-35.60393029	-23.84320625	-18.64995282	-72
55647	0	0.200683594	-0.313354492	0.028991699	0.998695374	-0.010474205	0.022602081	0.044574738	5.017089844	-7.833862305	0.72479248	-0.523938111	1.130595761	2.229706577	0.289794922	0.640869141	-0.708251953	878.24	-37.89032431	-18.71193367	-15.86853851	-69
55648	0	0.237201691	-0.193417549	0.129014969	0.999328613	0.01322937	0.016571999	0.029845238	5.930042267	-4.835438728	3.225374222	0.661616366	0.828785149	1.492595456	0.375732422	0.615722656	-0.705078125	878.16	-36.94168919	-15.13246622	-14.21476941	-63
55649	0	0.164550781	-0.276306152	0.268798828	0.997805595	0.064239502	0.007031441	-0.014415741	4.113769531	-6.907653809	6.719970703	3.214326606	0.351829425	-0.721314741	0.432128906	0.571777344	-0.716064453	878.2	-29.16938015	-15.3694101	-16.3449692	-65
55650	0	-0.040525436	-0.158995628	0.109857559	0.987660408	0.139497757	-0.002584457	-0.071125031	-1.01313591	-3.974890709	2.74643898	7.003717103	-0.129756986	-3.570950555	0.405761719	0.457275391	-0.817382813	878.18	-10.88086453	-18.45964155	-24.68140365	-70
55651	0	-0.220703125	0.494689941	-0.26184082	0.992090225	0.124512672	-0.014560699	-0.006408691	-5.517578125	12.36724854	-6.546020508	6.242099665	-0.729960537	-0.321282081	0.357421875	0.248535156	-0.921142578	878.18	3.578625437	-20.18364233	-25.79398378	-67
55652	0	0.718693733	1.597058296	2.638611794	0.937401772	0.342038155	0.031364441	-0.057467461	17.96734333	39.92645741	65.96529484	17.46793422	1.601786185	-2.934870887	0.32421875	-0.004394531	-0.973144531	878.26	45.08442125	-14.18916716	-32.49900607	-71
55653	0	0.093688965	1.327636719	-0.319824219	0.999522209	0.000335693	-0.004546165	-0.030540466	2.342224121	33.19091797	-7.995605469	0.016787336	-0.227344412	-1.527266089	0.435302734	-0.610595703	-0.710449219	878.24	45.84801349	-12.03851358	-34.70618964	-72
55654	0	0.162993431	-0.015208244	0.195565224	0.996214867	-0.076078415	-0.003829956	-0.041857719	4.074835777	-0.380206108	4.889130592	-3.808726658	-0.191739743	-2.095530145	0.475585938	-0.471435547	-0.787353516	878.3	37.89428982	-9.14791827	-38.4699022	-83
55655	0	0.10748291	-0.074645996	0.251403809	0.999254227	-0.035254478	-0.013893127	0.007358551	2.687072754	-1.866149902	6.285095215	-1.763161973	-0.694828999	0.368018984	0.482910156	-0.348388672	-0.843994141	878.24	33.94224379	-10.92179622	-38.71930255	-81
55656	0	0.153212547	0.274904251	0.490229607	0.999367714	0.035305977	-0.003425598	-0.001961708	3.830313683	6.872606277	12.25574017	1.765670384	-0.171315956	-0.098106047	0.458740234	-0.323486328	-0.867675781	878.3	38.11074903	-11.09911765	-39.17682753	-85
55657	0	0.075073242	0.299194336	0.211242676	0.999755859	0.021454811	0.001861572	-0.004920959	1.876831055	7.479858398	5.281066895	1.072827822	0.093086185	-0.24606799	0.4609375	-0.387451172	-0.833740234	878.24	40.67271212	-10.56794387	-39.49892541	-81
55658	0	0.063142776	0.279969215	0.260946274	0.99993515	0.010819435	0.002455711	-0.002372742	1.578569412	6.999230385	6.523656845	0.540983362	0.122788203	-0.11863963	0.466552734	-0.409667969	-0.826660156	878.18	41.96245401	-10.16785504	-39.53241322	-80
55659	0	0.068237305	0.284667969	0.258605957	0.999990463	0.003418922	0.002464294	-0.000167847	1.705932617	7.116699219	6.465148926	0.170946628	0.123215087	-0.008392359	0.476318359	-0.423095703	-0.814453125	878.22	42.37035922	-9.936327188	-39.36748805	-79
55660	0	0.073436737	0.288123131	0.286732674	0.999992371	0.002532959	0.002646446	-0.000201225	1.835918427	7.20307827	7.168316841	0.126648233	0.132322608	-0.010061287	0.478759766	-0.427490234	-0.811279297	878.24	42.67501569	-9.688122847	-39.19058193	-78
55661	0	0.062988281	0.256652832	0.28137207	0.999950409	0.009392738	0.002811432	-0.001636505	1.574707031	6.416320801	7.034301758	0.469644651	0.140573909	-0.081826604	0.481201172	-0.4296875	-0.808349609	878.2	43.78279408	-9.315732754	-39.12035029	-79
55662	0	0.05828476	0.306790352	0.254871368	0.999961853	0.008517265	0.00118351	0.000729561	1.457118988	7.669758797	6.37178421	0.425868552	0.059176226	0.036478495	0.486328125	-0.447509766	-0.795654297	878.3	44.78007125	-9.26740352	-38.97709157	-81
55663	0	0.065979004	0.313964844	0.25958252	0.999996185	0.002541542	0.000396729	0.000709534	1.649475098	7.849121094	6.489562988	0.127077253	0.019836449	0.035476727	0.486816406	-0.458496094	-0.7890625	878.24	45.10402074	-9.283043441	-38.89888047	-79
55664	0	0.05956459	0.309539795	0.250124931	0.999997139	-0.00181675	0.000591278	0.001202583	1.489114761	7.738494873	6.253123283	-0.090837556	0.029563929	0.060129217	0.486816406	-0.462890625	-0.785888672	878.24	44.92026761	-9.322791991	-38.76393752	-77
55665	0	0.063781738	0.302246094	0.25604248	0.99998188	-0.004993439	0.000477791	0.003082275	1.594543457	7.556152344	6.401062012	-0.249673378	0.02388968	0.15411466	0.484375	-0.458496094	-0.7890625	878.22	44.3486854	-9.522315561	-38.48319013	-78
55666	0	0.05893898	0.300823212	0.248679161	0.999952316	-0.008181572	0.001486778	0.005084038	1.473474503	7.520580292	6.216979027	-0.409085075	0.07434009	0.254205914	0.484130859	-0.451904297	-0.789550781	878.3	43.36919427	-9.793552995	-37.95025299	-82
55667	0	0.065795898	0.299804688	0.266662598	0.999876022	-0.014407158	0.000732422	0.006259918	1.644897461	7.495117188	6.666564941	-0.720387588	0.036622603	0.313008812	0.481689453	-0.443115234	-0.801757813	878.26	41.66519098	-10.20730944	-37.36841095	-81
55668	0	0.068639755	0.245341301	0.280061722	0.999886513	-0.014061928	-0.000259399	0.005308151	1.715993881	6.133532524	7.001543045	-0.703122874	-0.012970459	0.265417559	0.478515625	-0.423095703	-0.808837891	878.2	40.02169709	-10.61907799	-36.93366549	-79
55669	0	0.074768066	0.258728027	0.275634766	0.999920845	-0.011806488	0.001011848	0.004081726	1.86920166	6.468200684	6.890869141	-0.590339857	0.050593747	0.204091647	0.475585938	-0.403320313	-0.821777344	878.26	38.6352119	-10.8179882	-36.50640687	-76
55670	0	0.081746101	0.260994911	0.308238029	0.999917984	-0.012286186	0.000472069	0.003312111	2.043652534	6.52487278	7.705950737	-0.614325913	0.023604077	0.165610021	0.470458984	-0.389892578	-0.828369141	878.24	37.2114385	-11.00137689	-36.18291324	-76
55671	0	0.082336426	0.188415527	0.30090332	0.999978065	-0.006565094	-0.00014782	-3.81E-05	2.058410645	4.710388184	7.522583008	-0.328257059	-0.007391029	-0.001907362	0.472167969	-0.372314453	-0.838623047	878.24	36.50722026	-11.00595499	-36.21361009	-75
55672	0	0.079053879	0.200475693	0.30579567	0.999985695	0.003928185	0.001646042	-0.003206253	1.97634697	5.011892319	7.644891739	0.196410156	0.082302483	-0.160313412	0.471923828	-0.363525391	-0.842285156	878.3	37.03517703	-10.62883107	-36.41839949	-75
55673	0	0.072814941	0.244689941	0.311828613	0.999925613	0.011662483	0.001533508	-0.003116608	1.820373535	6.117248535	7.795715332	0.583138553	0.076677307	-0.155834229	0.476806641	-0.372558594	-0.833007813	878.26	38.44619318	-10.26474522	-36.61560243	-76
55674	0	0.075305939	0.26866436	0.297888756	0.999900818	0.013558388	0.001143456	-0.003426552	1.882648468	6.716609001	7.447218895	0.677941634	0.057174651	-0.171333213	0.482177734	-0.390136719	-0.823242188	878.24	40.08164528	-9.907980182	-36.8576717	-78
55675	0	0.060119629	0.288879395	0.273681641	0.999939919	0.01051712	0.000576973	-0.002857208	1.502990723	7.221984863	6.842041016	0.525866457	0.028849221	-0.142863249	0.487548828	-0.407958984	-0.81640625	878.26	41.3656402	-9.636593163	-37.08094613	-79
55676	0	0.059378624	0.291344643	0.269028664	0.999998093	0.001440048	-0.000836372	-0.000413895	1.484465599	7.283616066	6.725716591	0.072002446	-0.041818639	-0.020694743	0.492675781	-0.421386719	-0.809814453	878.26	41.59190341	-9.668638062	-37.19194925	-79
55677	0	0.064758301	0.275634766	0.274902344	0.999997139	-0.001712799	-0.000803947	0.001029968	1.61895752	6.890869141	6.872558594	-0.08564002	-0.040197404	0.051498453	0.489990234	-0.418945313	-0.806884766	878.26	41.43543157	-9.807347093	-37.17524398	-79
55678	0	0.068651199	0.281752586	0.275758743	0.999985695	-0.005149841	-0.000238419	0.001338005	1.716279984	7.043814659	6.893968582	-0.257493283	-0.011920985	0.06690057	0.485107422	-0.414550781	-0.807128906	878.26	40.87320295	-9.92038458	-37.08753275	-78
55679	0	0.073120117	0.260986328	0.292175293	0.999990463	-0.004130363	0.000320435	0.000827789	1.82800293	6.524658203	7.304382324	-0.206518788	0.016021776	0.041389588	0.484863281	-0.405761719	-0.81640625	878.18	40.42713757	-9.946202097	-37.00364231	-77
55680	0	0.069424629	0.270843506	0.279025078	0.999993324	-0.003546715	0.000686646	0.000542641	1.73561573	6.771087646	6.975626945	-0.177336134	0.034332352	0.027132095	0.484863281	-0.403564453	-0.819580078	878.3	40.04769768	-9.918309138	-36.91680101	-76
55681	0	0.0703125	0.259765625	0.292907715	0.999988556	-0.004488945	0.000823975	0.000591278	1.7578125	6.494140625	7.322692871	-0.224448043	0.041198876	0.029564008	0.484619141	-0.396972656	-0.820068359	878.2	39.55725231	-9.881301714	-36.81522789	-76
55682	0	0.068175316	0.248531342	0.291662216	0.999999046	-0.001228333	0.000564575	-0.000128746	1.704382896	6.213283539	7.291555405	-0.061416645	0.028228768	-0.006437304	0.489013672	-0.390380859	-0.820800781	878.24	39.45407957	-9.814253931	-36.79815851	-75
55683	0	0.064453125	0.253173828	0.299255371	0.999999046	0.000801086	0.000325203	-0.000453949	1.611328125	6.329345703	7.481384277	0.040054328	0.01626015	-0.022697452	0.486816406	-0.390380859	-0.820556641	878.18	39.59060985	-9.744427148	-36.82876052	-76
55684	0	0.065428734	0.26845932	0.284341812	0.999999046	0.00055027	-0.000957489	-0.000293732	1.635718346	6.711483002	7.108545303	0.02751351	-0.047874461	-0.014686588	0.489013672	-0.390380859	-0.820800781	878.26	39.71232002	-9.799253981	-36.93898406	-76
55685	0	0.068847656	0.259033203	0.297790527	0.999999046	0.000171661	-0.000285149	-8.01E-05	1.721191406	6.475830078	7.444763184	0.008583069	-0.014257431	-0.004005432	0.489257813	-0.392578125	-0.820556641	878.22	39.77832948	-9.810254634	-36.97904459	-75
55686	0	0.067199707	0.257005692	0.285944939	0.999998093	0.001708031	-0.000308037	-0.000123024	1.679992676	6.425142288	7.148623466	0.085401578	-0.015401848	-0.006151202	0.489257813	-0.392578125	-0.823486328	878.32	40.02102752	-9.819992137	-37.02643076	-75
55687	0	0.068603516	0.274353027	0.283935547	0.999999046	-0.001304626	0.000142097	-0.000171661	1.715087891	6.858825684	7.098388672	-0.065231342	0.007104876	-0.008583071	0.489257813	-0.392578125	-0.820556641	878.18	39.91384998	-9.786516969	-37.04258102	-75
55688	0	0.06684494	0.258354187	0.292624474	0.999999046	-0.001057625	0.000307083	6.87E-05	1.671123505	6.458854675	7.315611839	-0.052881252	0.01535416	0.003433228	0.491699219	-0.392822266	-0.823486328	878.24	39.82870742	-9.756138369	-37.02427221	-75
55689	0	0.06817627	0.259765625	0.288574219	0.999999046	-0.000930786	0.000409126	-3.81E-05	1.704406738	6.494140625	7.214355469	-0.046539315	0.020456318	-0.001907349	0.489013672	-0.388183594	-0.818115234	878.24	39.75814069	-9.7089521	-37.0087173	-74
55690	0	0.066877365	0.257205963	0.29582119	0.999999046	-0.00062561	0.000404358	-4.96E-05	1.671934128	6.430149078	7.395529747	-0.03128052	0.020217897	-0.002479553	0.489013672	-0.385986328	-0.821044922	878.3	39.72218349	-9.661291244	-36.9958191	-74
55691	0	0.065429688	0.255249023	0.293151855	0.999999046	0.000946045	0.000134468	-0.000118256	1.635742188	6.381225586	7.328796387	0.047302253	0.006723405	-0.005912782	0.491210938	-0.386230469	-0.821289063	878.24	39.87014254	-9.632298751	-37.00886968	-74
55692	0	0.065777779	0.262832642	0.290352821	0.999999046	0.000714302	-0.000240326	0.000144958	1.644444466	6.57081604	7.258820534	0.035715107	-0.012016298	0.007247926	0.491455078	-0.390625	-0.823730469	878.24	39.99206588	-9.65550117	-37.02523336	-75
55693	0	0.066955566	0.260314941	0.290893555	0.999999046	0.000434875	-0.00026989	0.000183105	1.67388916	6.507873535	7.272338867	0.021743775	-0.013494492	0.009155274	0.491455078	-0.390625	-0.820800781	878.3	40.08141079	-9.684067406	-37.03960567	-74
55694	0	0.067085266	0.25889492	0.290265083	0.999999046	0.000894547	-0.000112534	6.68E-06	1.677131653	6.472373009	7.256627083	0.044727331	-0.005626679	0.000333786	0.489257813	-0.390380859	-0.823730469	878.3	40.22367123	-9.685787314	-37.0603457	-74
55695	0	0.066833496	0.26348877	0.288452148	0.999999046	0.000579834	8.49E-05	-4.58E-05	1.670837402	6.587219238	7.211303711	0.028991701	0.004243851	-0.002288818	0.491699219	-0.392822266	-0.820800781	878.24	40.32792157	-9.666293527	-37.0681297	-75
55696	0	0.066821098	0.264317513	0.288705826	0.999999046	-0.000302315	0.000141144	8.30E-05	1.670527458	6.607937813	7.217645645	-0.015115738	0.00705719	0.004148483	0.489013672	-0.390380859	-0.817871094	878.24	40.32822183	-9.651399875	-37.06113907	-74
55697	0	0.066223145	0.258239746	0.291564941	0.999999046	-0.000385284	3.91E-05	9.16E-05	1.655578613	6.455993652	7.289123535	-0.019264222	0.001955032	0.004577637	0.489257813	-0.390380859	-0.823730469	878.32	40.31961516	-9.646028569	-37.06226077	-74
55698	0	0.066186905	0.25995636	0.291098595	0.999999046	0.000173569	-1.34E-05	3.05E-05	1.654672623	6.498908997	7.277464867	0.008678436	-0.000667572	0.001525879	0.489013672	-0.388183594	-0.821044922	878.22	40.37615444	-9.640667217	-37.07271138	-74
55699	0	0.066040039	0.263427734	0.288879395	0.999999046	-0.000232697	-2.19E-05	8.01E-05	1.651000977	6.585693359	7.221984863	-0.011634827	-0.001096725	0.004005432	0.489257813	-0.392578125	-0.820556641	878.24	40.38524768	-9.639677193	-37.07596981	-74
55700	0	0.06670475	0.259313583	0.291377068	0.999999046	-0.000313759	-0.000139236	0.000159264	1.667618752	6.482839584	7.284426689	-0.015687943	-0.006961823	0.007963181	0.489013672	-0.390380859	-0.817871094	878.24	40.38485971	-9.654791662	-37.08066436	-75
55701	0	0.066894531	0.261413574	0.292541504	0.999999046	3.43E-05	-0.000155449	9.54E-05	1.672363281	6.535339355	7.313537598	0.001716614	-0.007772446	0.004768372	0.489257813	-0.390380859	-0.818115234	878.26	40.42507502	-9.666548008	-37.0919348	-75
55702	0	0.066363335	0.259161949	0.292319298	1	4.67E-05	-2.77E-05	2.57E-05	1.659083366	6.479048729	7.307982445	0.002336502	-0.001382828	0.00128746	0.491455078	-0.388427734	-0.82421875	878.26	40.46560796	-9.661941354	-37.10223456	-75
55703	0	0.066711426	0.262023926	0.291137695	0.999999046	0.000152588	1.62E-05	0.000133514	1.667785645	6.550598145	7.278442383	0.007629395	0.000810623	0.00667572	0.489257813	-0.390625	-0.823730469	878.36	40.51574087	-9.661492529	-37.09898045	-75
55704	0	0.06652832	0.263132095	0.291180611	0.999999046	-0.000136375	7.63E-05	6.01E-05	1.663208008	6.578302383	7.279515266	-0.006818771	0.003814697	0.003004074	0.489257813	-0.390625	-0.823730469	878.26	40.53274778	-9.650306942	-37.09719417	-75
55705	0	0.066467285	0.259155273	0.291259766	0.999999046	-0.00018692	-1.81E-05	4.58E-05	1.661682129	6.478881836	7.281494141	-0.009346008	-0.000905991	0.002288818	0.489257813	-0.390625	-0.821044922	878.22	40.54487242	-9.646259523	-37.10189949	-75
55706	0	0.066318512	0.258367538	0.29306221	0.999999046	0.000211716	-0.000146866	8.30E-05	1.657962799	6.459188461	7.326555252	0.010585785	-0.007343292	0.004148483	0.489257813	-0.390380859	-0.818115234	878.3	40.60318079	-9.65615307	-37.11171296	-75
55707	0	0.06640625	0.262878418	0.290893555	0.999999046	0.000293732	-0.000159264	0.000225067	1.66015625	6.571960449	7.272338867	0.014686585	-0.007963181	0.011253357	0.489257813	-0.390625	-0.821044922	878.3	40.66861487	-9.677678623	-37.11130309	-75
55708	0	0.067227364	0.263323784	0.290595055	0.999999046	-0.000452995	-2.29E-05	0.000190735	1.68068409	6.583094597	7.264876366	-0.022649766	-0.001144409	0.009536744	0.489257813	-0.390625	-0.823730469	878.2	40.64693507	-9.684784428	-37.10394639	-75
55709	0	0.06628418	0.258544922	0.29107666	0.999999046	-0.000400543	-7.53E-05	0.000236511	1.657104492	6.463623047	7.276916504	-0.020027161	-0.003767014	0.011825562	0.489257813	-0.390380859	-0.818115234	878.38	40.63074302	-9.699838056	-37.09281981	-75
55710	0	0.066695213	0.260293961	0.291397095	0.999999046	-7.82E-05	-4.20E-05	2.57E-05	1.667380333	6.507349014	7.284927368	-0.003910065	-0.002098083	0.00128746	0.489013672	-0.388427734	-0.821044922	878.22	40.65376831	-9.696231894	-37.10059609	-75
55711	0	0.066589355	0.258605957	0.293579102	0.999999046	-7.63E-05	3.91E-05	-6.48E-05	1.664733887	6.465148926	7.339477539	-0.003814697	0.001955032	-0.003242493	0.489257813	-0.390380859	-0.818115234	878.32	40.67675157	-9.678774567	-37.10657252	-75
55712	0	0.066533089	0.260950089	0.289961815	0.999999046	0.000349998	0.000141144	-1.53E-05	1.663327217	6.523752213	7.249045372	0.017499924	0.00705719	-0.000762939	0.491699219	-0.390625	-0.821044922	878.28	40.74619874	-9.65613853	-37.1010653	-75
55713	0	0.066894531	0.262634277	0.289489746	0.999999046	-0.000137329	9.54E-07	0.00018692	1.672363281	6.565856934	7.237243652	-0.006866455	4.77E-05	0.009346008	0.489257813	-0.390625	-0.823730469	878.26	40.75832059	-9.660794276	-37.0910588	-75
55714	0	0.06625843	0.25886631	0.292612076	0.999999046	-0.000185013	-3.81E-06	0.000170708	1.656460762	6.471657753	7.315301895	-0.009250641	-0.000190735	0.008535385	0.489013672	-0.388183594	-0.818359375	878.28	40.76474928	-9.66462307	-37.08133073	-75
55715	0	0.06628418	0.260925293	0.289794922	0.999999046	-8.39E-05	-5.25E-05	0.000152588	1.657104492	6.523132324	7.244873047	-0.004196167	-0.002622604	0.007629395	0.489013672	-0.388427734	-0.821044922	878.22	40.7833094	-9.671296853	-37.07781051	-75
55716	0	0.067492485	0.259573936	0.291845322	0.999999046	-9.63E-05	-1.14E-05	2.67E-05	1.687312126	6.489348412	7.296133041	-0.004816055	-0.000572205	0.001335144	0.489257813	-0.388427734	-0.823974609	878.26	40.80132768	-9.665017124	-37.08331216	-75
55717	0	0.066589355	0.261535645	0.290771484	0.999999046	8.39E-05	5.05E-05	-1.91E-05	1.664733887	6.538391113	7.269287109	0.004196167	0.002527237	-0.000953674	0.489257813	-0.388427734	-0.823974609	878.3	40.83954158	-9.649907861	-37.08798076	-75
55718	0	0.066123009	0.258656502	0.291527748	0.999999046	-0.000270844	-3.62E-05	-9.54E-07	1.653075218	6.466412544	7.288193703	-0.013542175	-0.001811981	-4.77E-05	0.489257813	-0.388427734	-0.823974609	878.18	40.83745382	-9.643650917	-37.09664915	-75
55719	0	0.066345215	0.258361816	0.291809082	0.999999046	0.000118256	-1.05E-05	-7.63E-06	1.658630371	6.45904541	7.295227051	0.005912781	-0.000524521	-0.00038147	0.491455078	-0.388427734	-0.821289063	878.42	40.87922794	-9.634653791	-37.10057135	-75
55720	0	0.066408157	0.262337685	0.291378975	0.999999046	9.63E-05	-1.91E-05	0.000193596	1.660203934	6.558442116	7.284474373	0.004816055	-0.000953674	0.009679794	0.491455078	-0.388427734	-0.818359375	878.36	40.91531185	-9.641470978	-37.08562152	-74
55721	0	0.066772461	0.260314941	0.290710449	0.999999046	-0.000411987	2.38E-05	6.48E-05	1.669311523	6.507873535	7.26776123	-0.020599366	0.001192093	0.003242493	0.491455078	-0.388427734	-0.82421875	878.32	40.89411383	-9.634919963	-37.08164734	-75
55722	0	0.066669464	0.256341934	0.292694092	0.999999046	3.62E-05	-6.29E-05	9.44E-05	1.666736603	6.408548355	7.317352295	0.001811981	-0.003147125	0.004720688	0.491455078	-0.388427734	-0.821289063	878.22	40.92436116	-9.638120658	-37.07944747	-75
55723	0	0.066467285	0.260375977	0.293395996	0.999999046	0.000366211	5.05E-05	-7.63E-05	1.661682129	6.509399414	7.334899902	0.018310547	0.002527237	-0.003814697	0.489257813	-0.388427734	-0.823974609	878.28	40.99303467	-9.618633494	-37.08772923	-75
55724	0	0.066214561	0.260111809	0.29254055	0.999999046	7.92E-05	3.81E-06	3.81E-05	1.655364037	6.502795219	7.313513756	0.003957748	0.000190735	0.001907349	0.486816406	-0.388183594	-0.821044922	878.42	41.02728443	-9.611749791	-37.08944351	-75
55725	0	0.066650391	0.25958252	0.292541504	0.999999046	-6.87E-05	-9.44E-05	4.20E-05	1.666259766	6.489562988	7.313537598	-0.003433228	-0.004720688	0.002098084	0.491455078	-0.388427734	-0.818359375	878.22	41.04532161	-9.613673984	-37.09194486	-75
55726	0	0.066422462	0.261245728	0.292259216	1	-1.43E-05	2.96E-05	4.96E-05	1.660561562	6.531143188	7.306480408	-0.000715256	0.001478195	0.002479553	0.491455078	-0.388427734	-0.821289063	878.2	41.06751413	-9.605437593	-37.08636332	-75
55727	0	0.066833496	0.258728027	0.292480469	0.999999046	-0.000202179	-0.000117302	4.96E-05	1.670837402	6.468200684	7.312011719	-0.010108948	-0.005865097	0.002479553	0.489013672	-0.388427734	-0.821044922	878.26	41.06956413	-9.609900352	-37.09290977	-75
55728	0	0.066317558	0.26006794	0.291592598	0.999999046	-0.000109673	-1.72E-05	0.000144958	1.657938957	6.501698494	7.289814949	-0.005483627	-0.000858307	0.007247925	0.489013672	-0.386230469	-0.82421875	878.26	41.07915476	-9.612874459	-37.08764929	-75
55729	0	0.066650391	0.260070801	0.291442871	0.999999046	-0.000167847	8.58E-06	0.000148773	1.666259766	6.50177002	7.286071777	-0.008392334	0.000429153	0.00743866	0.493652344	-0.386230469	-0.821533203	878.32	41.08131028	-9.613954472	-37.07365034	-75
55730	0	0.066599846	0.258487701	0.292079926	0.999999046	-9.54E-05	3.43E-05	4.96E-05	1.664996147	6.462192535	7.301998138	-0.004768372	0.001716614	0.002479553	0.491455078	-0.388427734	-0.82421875	878.26	41.09244147	-9.605346044	-37.06758281	-75
55731	0	0.066162109	0.259033203	0.29309082	0.999999046	-4.58E-05	-0.000224113	0.000144958	1.654052734	6.475830078	7.327270508	-0.002288818	-0.011205673	0.007247925	0.491455078	-0.386230469	-0.821533203	878.32	41.11070051	-9.626219751	-37.07256805	-75
55732	0	0.066490173	0.259474754	0.291741371	0.999999046	7.15E-05	-7.82E-05	-9.54E-07	1.662254333	6.486868858	7.293534279	0.003576279	-0.003910065	-4.77E-05	0.493652344	-0.386230469	-0.821533203	878.22	41.14228521	-9.623504355	-37.07719039	-75
55733	0	0.066345215	0.260070801	0.292053223	0.999999046	7.63E-06	-0.00014782	3.05E-05	1.658630371	6.50177002	7.301330566	0.00038147	-0.007390976	0.001525879	0.491455078	-0.386230469	-0.82421875	878.32	41.1666026	-9.629129446	-37.08798874	-75
55734	0	0.066447258	0.259033203	0.292883873	0.999999046	-0.000328064	-3.81E-05	0.000213623	1.66118145	6.475830078	7.322096825	-0.016403199	-0.001907349	0.010681153	0.489013672	-0.386230469	-0.82421875	878.32	41.14792554	-9.639078968	-37.07549008	-75
55735	0	0.066101074	0.259033203	0.292907715	0.999999046	-0.000286102	-9.06E-05	0.000198364	1.652526855	6.475830078	7.322692871	-0.014305115	-0.004529953	0.009918213	0.489257813	-0.388427734	-0.823974609	878.3	41.13452182	-9.652387883	-37.06438669	-75
55736	0	0.066622734	0.257555962	0.29383564	0.999999046	-0.000279427	-0.000257492	0.000285149	1.665568352	6.43889904	7.345890999	-0.013971329	-0.012874604	0.014257432	0.489013672	-0.386230469	-0.82421875	878.3	41.12225053	-9.686633751	-37.06013012	-75
55737	0	0.066467285	0.257446289	0.29296875	0.999999046	-1.53E-05	-0.000174522	0.000232697	1.661682129	6.436157227	7.32421875	-0.000762939	-0.00872612	0.011634827	0.491455078	-0.384033203	-0.824462891	878.26	41.13950073	-9.709755307	-37.0542383	-75
55738	0	0.066689491	0.257955551	0.291609764	0.999999046	3.62E-05	-0.000185013	0.000109673	1.667237282	6.448888779	7.290244102	0.001811981	-0.009250641	0.005483627	0.491455078	-0.386230469	-0.82421875	878.28	41.1642209	-9.724504774	-37.05676456	-75
55739	0	0.066711426	0.25793457	0.290771484	0.999999046	3.81E-06	-7.53E-05	2.67E-05	1.667785645	6.448364258	7.269287109	0.000190735	-0.003767014	0.001335144	0.486816406	-0.385986328	-0.823974609	878.22	41.18468288	-9.723490845	-37.06226797	-76
55740	0	0.066711426	0.258544922	0.292480469	0.999999046	9.25E-05	-9.16E-05	0.000198364	1.667785645	6.463623047	7.312011719	0.00462532	-0.004577637	0.009918213	0.486572266	-0.383789063	-0.818359375	878.32	41.21259247	-9.736806588	-37.05213203	-76
55741	0	0.066617012	0.25924015	0.292028427	0.999998093	0.000121117	-3.24E-05	9.54E-06	1.665425301	6.481003761	7.300710678	0.006055832	-0.001621246	0.000476837	0.489013672	-0.384033203	-0.824462891	878.28	41.24546245	-9.73074075	-37.05674003	-76
55742	0	0.06658268	0.258579254	0.292219162	0.999999046	-0.000110626	-8.77E-05	0.000152588	1.664566994	6.464481354	7.30547905	-0.005531311	-0.004386902	0.007629395	0.491455078	-0.386230469	-0.82421875	878.22	41.24999671	-9.740243948	-37.04739661	-76
55743	0	0.06628418	0.257873535	0.293518066	0.999999046	-8.77E-05	-0.000102043	8.39E-05	1.657104492	6.446838379	7.33795166	-0.004386902	-0.005102158	0.004196167	0.491455078	-0.384033203	-0.827392578	878.32	41.25791475	-9.745727847	-37.05009449	-76
55744	0	0.067180634	0.257139206	0.292877197	0.999999046	0.000277519	-8.96E-05	1.05E-05	1.679515839	6.428480148	7.321929932	0.013875962	-0.004482269	0.000524521	0.491455078	-0.386230469	-0.82421875	878.28	41.30817214	-9.744602212	-37.05327254	-76
55745	0	0.06640625	0.260009766	0.293151855	0.999999046	0.000118256	-0.000193596	8.39E-05	1.66015625	6.500244141	7.328796387	0.005912781	-0.009679794	0.004196167	0.489013672	-0.388427734	-0.821044922	878.22	41.34010107	-9.757913029	-37.05481998	-76
55746	0	0.066440582	0.25963974	0.291721344	0.999999046	-0.000144958	-0.000125885	0.000205994	1.661014557	6.4909935	7.2930336	-0.007247925	-0.006294251	0.010299683	0.489013672	-0.385986328	-0.821289063	878.28	41.33887143	-9.774581958	-37.04329563	-76
55747	0	0.067565918	0.258544922	0.294189453	0.999999046	-0.000167847	-6.77E-05	0.0001297	1.689147949	6.463623047	7.354736328	-0.008392334	-0.003385544	0.006484985	0.489013672	-0.383789063	-0.821533203	878.32	41.33496231	-9.780462826	-37.03640123	-76
55748	0	0.066757202	0.258672714	0.294632912	0.999999046	4.86E-05	-3.81E-06	-9.63E-05	1.668930054	6.466817856	7.365822792	0.00243187	-0.000190735	-0.004816055	0.489013672	-0.383789063	-0.821533203	878.32	41.35794885	-9.763686575	-37.04439274	-76
55749	0	0.066650391	0.25769043	0.292602539	0.999999046	0.000244141	-0.000136375	2.29E-05	1.666259766	6.442260742	7.315063477	0.012207031	-0.006818771	0.001144409	0.489013672	-0.385986328	-0.818359375	878.22	41.40290463	-9.767313322	-37.04695506	-76
55750	0	0.066375732	0.26063633	0.290442467	0.999999046	0.00012207	-9.16E-05	0.000114441	1.659393311	6.515908241	7.261061668	0.006103516	-0.004577637	0.005722046	0.489257813	-0.386230469	-0.827148438	878.22	41.43172469	-9.773958147	-37.04569882	-76
55751	0	0.06640625	0.25769043	0.291625977	0.999999046	-0.000263214	2.38E-05	3.81E-05	1.66015625	6.442260742	7.290649414	-0.013160706	0.001192093	0.001907349	0.489257813	-0.388427734	-0.829833984	878.32	41.41564682	-9.764872262	-37.04113131	-76
55752	0	0.066350937	0.257287025	0.292862892	0.999999046	0.000281334	4.01E-05	3.05E-05	1.658773422	6.432175636	7.321572304	0.014066696	0.002002716	0.001525879	0.489013672	-0.384033203	-0.827148438	878.22	41.46145896	-9.753758184	-37.04025347	-76
55753	0	0.066894531	0.259277344	0.292480469	0.999999046	6.10E-05	-9.44E-05	5.72E-05	1.672363281	6.481933594	7.312011719	0.003051758	-0.004720688	0.002861023	0.489013672	-0.386230469	-0.82421875	878.22	41.48305722	-9.756213072	-37.04180452	-76
55754	0	0.066735268	0.258572578	0.292862892	1	4.29E-05	1.05E-05	4.86E-05	1.668381691	6.464314461	7.321572304	0.002145767	0.000524521	0.00243187	0.489013672	-0.386230469	-0.82421875	878.28	41.50097032	-9.748984184	-37.03622776	-76
55755	0	0.066589355	0.258300781	0.292419434	0.999999046	-7.63E-06	-1.05E-05	4.58E-05	1.664733887	6.457519531	7.31048584	-0.00038147	-0.000524521	0.002288818	0.489013672	-0.388183594	-0.818359375	878.28	41.51304713	-9.743333648	-37.02470288	-76
55756	0	0.066374779	0.258167267	0.293092728	0.999999046	0.000235558	-4.77E-05	-2.77E-05	1.659369469	6.454181671	7.327318192	0.011777878	-0.002384186	-0.001382828	0.491455078	-0.386230469	-0.82421875	878.32	41.55417616	-9.735252746	-37.02868715	-77
55757	0	0.06640625	0.259155273	0.291687012	0.999999046	0.000190735	5.82E-05	-6.87E-05	1.66015625	6.478881836	7.292175293	0.009536743	0.002908707	-0.003433228	0.489013672	-0.383789063	-0.821533203	878.28	41.58908869	-9.71491911	-37.0318883	-77
55758	0	0.066397667	0.259519577	0.292266846	0.999999046	-0.000123978	-6.48E-05	0.000179291	1.659941673	6.487989426	7.306671143	-0.006198883	-0.003242493	0.008964539	0.491455078	-0.386230469	-0.82421875	878.36	41.58558843	-9.723984772	-37.0195068	-77
55759	0	0.066589355	0.259460449	0.292114258	0.999999046	-0.000385284	2.77E-05	-7.63E-06	1.664733887	6.48651123	7.302856445	-0.019264222	0.001382828	-0.00038147	0.491455078	-0.386230469	-0.818603516	878.36	41.55338626	-9.710901941	-37.0101468	-76
55760	0	0.066569328	0.257953644	0.292560577	0.999999046	-0.000382423	0.000143051	8.77E-05	1.664233208	6.448841095	7.314014435	-0.019121171	0.007152558	0.004386902	0.489013672	-0.384033203	-0.824462891	878.4	41.51826375	-9.695130903	-36.99384396	-76
55761	0	0.066345215	0.25769043	0.294921875	0.999999046	0.000137329	9.54E-07	-3.81E-06	1.658630371	6.442260742	7.373046875	0.006866455	4.77E-05	-0.000190735	0.489013672	-0.384033203	-0.824462891	878.36	41.54546752	-9.684566296	-36.99682566	-76
55762	0	0.066159248	0.260028839	0.290822029	0.999999046	0.000198364	-9.35E-05	-2.67E-05	1.653981209	6.500720978	7.270550728	0.009918213	-0.004673004	-0.001335144	0.491455078	-0.386230469	-0.82421875	878.36	41.58103344	-9.680356708	-37.00389271	-76
55763	0	0.066040039	0.259216309	0.292724609	0.999999046	-0.000259399	-4.86E-05	0.000160217	1.651000977	6.480407715	7.318115234	-0.012969971	-0.00243187	0.008010864	0.491210938	-0.384033203	-0.821533203	878.32	41.56053537	-9.686482303	-36.99120247	-76
55764	0	0.066455841	0.256905556	0.294742584	0.999999046	9.82E-05	-5.53E-05	3.72E-05	1.661396027	6.422638893	7.368564606	0.004911423	-0.002765656	0.001859665	0.491455078	-0.384033203	-0.827392578	878.28	41.5824702	-9.683807475	-36.99522084	-76
55765	0	0.066467285	0.259460449	0.293518066	0.999999046	0.000209808	-2.96E-05	0.000225067	1.661682129	6.48651123	7.33795166	0.010490418	-0.001478195	0.011253357	0.489013672	-0.383789063	-0.821533203	878.28	41.61381697	-9.693193667	-36.97881104	-76
55766	0	0.066295624	0.257905006	0.293832779	0.999999046	4.39E-05	-3.43E-05	0.0001297	1.657390594	6.44762516	7.345819473	0.002193451	-0.001716614	0.006484985	0.491455078	-0.386230469	-0.82421875	878.38	41.62724038	-9.695735131	-36.96811192	-76
55767	0	0.066955566	0.258544922	0.293762207	0.999999046	0.000495911	-0.000136375	3.05E-05	1.67388916	6.463623047	7.344055176	0.024795533	-0.006818772	0.001525879	0.493652344	-0.384033203	-0.824707031	878.28	41.6949105	-9.699471546	-36.97629834	-76
55768	0	0.066074371	0.260843277	0.291592598	0.999998093	-0.000150681	-7.15E-05	2.67E-05	1.651859283	6.521081924	7.289814949	-0.007534027	-0.003576279	0.001335144	0.489013672	-0.386230469	-0.82421875	878.28	41.68751252	-9.697304935	-36.9805316	-76
55769	0	0.06628418	0.25579834	0.293701172	0.999999046	6.10E-05	-6.77E-05	-7.63E-06	1.657104492	6.394958496	7.342529297	0.003051758	-0.003385544	-0.00038147	0.491455078	-0.386230469	-0.821533203	878.28	41.70438272	-9.692204381	-36.98253406	-76
55770	0	0.06640625	0.25982666	0.293395996	0.999999046	0.00030899	-3.05E-05	-4.58E-05	1.66015625	6.495666504	7.334899902	0.015449524	-0.001525879	-0.002288818	0.491455078	-0.384033203	-0.824462891	878.34	41.74946376	-9.680971569	-36.99158921	-76
55771	0	0.066040039	0.260314941	0.292114258	0.999999046	-9.92E-05	9.54E-07	6.10E-05	1.651000977	6.507873535	7.302856445	-0.004959106	4.77E-05	0.003051758	0.491455078	-0.386230469	-0.821533203	878.28	41.74558279	-9.675175007	-36.9830512	-76
55772	0	0.066253662	0.257257462	0.294117928	0.999999046	-0.000287056	-0.000146866	0.000247002	1.656341553	6.431436539	7.352948189	-0.014352799	-0.007343292	0.012350083	0.491455078	-0.386230469	-0.821533203	878.22	41.71898604	-9.696197679	-36.96889883	-76
55773	0	0.06640625	0.257324219	0.294433594	0.999999046	0.000225067	2.38E-05	0.00012207	1.66015625	6.433105469	7.360839844	0.011253357	0.001192093	0.006103516	0.489013672	-0.386230469	-0.82421875	878.22	41.75028827	-9.693061683	-36.95828628	-76
55774	0	0.065906525	0.259088516	0.294807434	0.999999046	-5.72E-06	-0.000133514	0.000114441	1.647663116	6.477212906	7.370185852	-0.000286102	-0.00667572	0.005722046	0.489013672	-0.385986328	-0.818359375	878.26	41.75697496	-9.702757602	-36.95501003	-76
55775	0	0.06652832	0.257995605	0.293029785	0.999999046	6.87E-05	-0.000102043	0.000114441	1.663208008	6.449890137	7.325744629	0.003433228	-0.005102158	0.005722046	0.489013672	-0.385986328	-0.821289063	878.28	41.77146957	-9.709756641	-36.95226135	-76
55776	0	0.066159248	0.259790421	0.293590546	0.999999046	-4.67E-05	-5.72E-05	-4.96E-05	1.653981209	6.494760513	7.339763641	-0.002336502	-0.002861023	-0.002479553	0.493652344	-0.384033203	-0.821777344	878.36	41.77429931	-9.700384426	-36.95852815	-76
55777	0	0.066223145	0.258422852	0.29486084	0.999999046	-5.72E-05	-9.82E-05	6.10E-05	1.655578613	6.460571289	7.371520996	-0.002861023	-0.004911423	0.003051758	0.491210938	-0.384033203	-0.821533203	878.28	41.77450034	-9.702918786	-36.96030474	-76
55778	0	0.066189766	0.25850296	0.293168068	0.999999046	0.000102997	-0.000101089	0.000227928	1.654744148	6.462574005	7.329201698	0.005149841	-0.005054474	0.011396408	0.491210938	-0.384033203	-0.821533203	878.22	41.79038529	-9.71841833	-36.94809529	-76
55779	0	0.066467285	0.258728027	0.292236328	0.999999046	-4.20E-05	2.38E-05	0.000141144	1.661682129	6.468200684	7.305908203	-0.002098084	0.001192093	0.00705719	0.491455078	-0.386230469	-0.818603516	878.32	41.78906339	-9.71662069	-36.92791315	-76
55780	0	0.066404343	0.258256912	0.293663979	0.999999046	7.72E-05	9.35E-05	2.29E-05	1.660108566	6.456422806	7.341599464	0.003862381	0.004673004	0.001144409	0.491455078	-0.384033203	-0.827392578	878.36	41.80192894	-9.699811626	-36.92457378	-75
55781	0	0.066101074	0.258911133	0.291625977	0.999999046	0.000301361	-4.48E-05	-6.10E-05	1.652526855	6.47277832	7.290649414	0.015068054	-0.002241135	-0.003051758	0.491455078	-0.386230469	-0.82421875	878.28	41.84331052	-9.688390822	-36.93396037	-76
55782	0	0.06628418	0.258056641	0.293334961	0.999999046	3.05E-05	4.20E-05	3.81E-06	1.657104492	6.451416016	7.333374023	0.001525879	0.002098083	0.000190735	0.491455078	-0.388427734	-0.82421875	878.26	41.85128033	-9.674508852	-36.9283589	-76
55783	0	0.066040039	0.258605957	0.291503906	0.999999046	0.000179291	1.24E-05	-2.67E-05	1.651000977	6.465148926	7.287597656	0.008964539	0.000619888	-0.001335144	0.491455078	-0.386230469	-0.82421875	878.28	41.87691938	-9.660801093	-36.93126269	-76
55784	0	0.065591812	0.260422707	0.292448997	0.999999046	0.000206947	-0.000144958	0.000118256	1.639795303	6.510567665	7.311224937	0.010347366	-0.007247925	0.005912781	0.493896484	-0.386230469	-0.824462891	878.28	41.9054987	-9.671574618	-36.93203014	-76
55785	0	0.066101074	0.259277344	0.290344238	0.999999046	-0.000377655	-7.15E-05	0.000221252	1.652526855	6.481933594	7.258605957	-0.018882752	-0.003576279	0.011062622	0.491455078	-0.386230469	-0.821533203	878.22	41.86448286	-9.683958982	-36.91670294	-76
55786	0	0.066318512	0.257315636	0.29528904	0.999999046	-0.000196457	-9.73E-05	0.00014782	1.657962799	6.432890892	7.38222599	-0.009822846	-0.004863739	0.007390976	0.491455078	-0.384033203	-0.827392578	878.32	41.84525811	-9.692902293	-36.91758543	-76
55787	0	0.066223145	0.258300781	0.293518066	0.999999046	-7.63E-05	-3.72E-05	4.58E-05	1.655578613	6.457519531	7.33795166	-0.003814697	-0.001859665	0.002288818	0.491210938	-0.384033203	-0.821533203	878.22	41.84024552	-9.688906976	-36.91690418	-76
55788	0	0.066268921	0.257944107	0.293246269	0.999999046	9.06E-05	-0.000112534	0.000132561	1.656723022	6.448602676	7.331156731	0.004529953	-0.005626679	0.006628037	0.493652344	-0.384033203	-0.824707031	878.22	41.85381982	-9.697979409	-36.91533236	-75
55789	0	0.066162109	0.259887695	0.291259766	0.999999046	4.96E-05	-1.81E-05	4.58E-05	1.654052734	6.497192383	7.281494141	0.002479553	-0.000905991	0.002288818	0.489013672	-0.384033203	-0.827148438	878.28	41.86261454	-9.692320834	-36.92096078	-75
55790	0	0.065891266	0.258384705	0.293245316	0.999999046	-9.16E-05	-2.67E-05	7.25E-05	1.647281647	6.459617615	7.331132889	-0.004577637	-0.001335144	0.003623962	0.491455078	-0.386230469	-0.821533203	878.2	41.85472122	-9.689428826	-36.91388893	-76
55791	0	0.066162109	0.258361816	0.293273926	0.999999046	1.91E-05	-1.81E-05	0.000205994	1.654052734	6.45904541	7.331848145	0.000953674	-0.000905991	0.010299683	0.491210938	-0.384033203	-0.821533203	878.32	41.85721566	-9.695994935	-36.89798539	-75
55792	0	0.066462517	0.258527756	0.292833328	0.999999046	-0.000123024	-7.63E-05	8.01E-05	1.66156292	6.463193893	7.320833206	-0.006151199	-0.003814697	0.004005432	0.491455078	-0.386230469	-0.818603516	878.26	41.84581907	-9.697911649	-36.8911106	-75
55793	0	0.066345215	0.258972168	0.293640137	0.999999046	-0.000137329	-7.92E-05	0.000125885	1.658630371	6.474304199	7.341003418	-0.006866455	-0.003957748	0.006294251	0.491455078	-0.384033203	-0.824462891	878.2	41.83194718	-9.70355243	-36.88869195	-75
55794	0	0.06639576	0.25722599	0.294431686	0.999999046	0.000150681	-4.77E-05	8.30E-05	1.65989399	6.430649757	7.36079216	0.007534027	-0.002384186	0.004148483	0.491455078	-0.386230469	-0.827148438	878.22	41.85100526	-9.703221208	-36.88758791	-75
55795	0	0.066101074	0.260314941	0.292602539	0.999999046	0.000179291	8.58E-06	8.39E-05	1.652526855	6.507873535	7.315063477	0.008964539	0.000429153	0.004196167	0.491210938	-0.384033203	-0.818603516	878.26	41.87248564	-9.698133083	-36.87756868	-75
55796	0	0.066383362	0.259309769	0.292815208	0.999999046	-0.000378609	-0.000183105	0.000171661	1.659584045	6.482744217	7.320380211	-0.018930436	-0.009155274	0.008583069	0.491455078	-0.386230469	-0.821533203	878.22	41.83110436	-9.716113738	-36.87316083	-75
55797	0	0.06640625	0.257080078	0.293884277	0.999999046	0.000110626	-3.72E-05	6.87E-05	1.66015625	6.427001953	7.347106934	0.005531311	-0.001859665	0.003433228	0.491455078	-0.384033203	-0.827392578	878.22	41.84511994	-9.71375251	-36.87527972	-75
55798	0	0.06646347	0.258600235	0.2937603	0.999999046	0.000261307	6.29E-05	-0.000115395	1.661586761	6.465005875	7.344007492	0.013065338	0.003147125	-0.00576973	0.491455078	-0.384033203	-0.824462891	878.28	41.87758141	-9.688760006	-36.88352967	-75
55799	0	0.066101074	0.25994873	0.293701172	0.999999046	-3.05E-05	-2.19E-05	7.25E-05	1.652526855	6.498718262	7.342529297	-0.001525879	-0.001096725	0.003623962	0.491210938	-0.384033203	-0.821533203	878.32	41.87482148	-9.685352996	-36.87938755	-75
55800	0	0.066151619	0.257906914	0.292553902	0.999999046	-0.000185966	3.81E-05	0.000152588	1.653790474	6.447672844	7.313847542	-0.009298325	0.001907349	0.007629395	0.491210938	-0.384033203	-0.818603516	878.28	41.85211536	-9.682945082	-36.86050861	-75
55801	0	0.065856934	0.257324219	0.293273926	0.999999046	0.000125885	-2.86E-06	9.16E-05	1.64642334	6.433105469	7.331848145	0.006294251	-0.000143051	0.004577637	0.491210938	-0.384033203	-0.821533203	878.22	41.86635189	-9.679349479	-36.85343521	-75
55802	0	0.0662117	0.25982666	0.292718887	0.999999046	-9.54E-06	-4.96E-05	8.39E-05	1.655292511	6.495666504	7.317972183	-0.000476837	-0.002479553	0.004196167	0.493652344	-0.384033203	-0.824707031	878.28	41.86568991	-9.679156168	-36.85131962	-75
55803	0	0.06640625	0.257751465	0.293640137	0.999999046	-6.10E-05	-5.25E-05	0.000125885	1.66015625	6.443786621	7.341003418	-0.003051758	-0.002622604	0.006294251	0.491455078	-0.384033203	-0.824462891	878.22	41.85834323	-9.682416443	-36.84740456	-75
55804	0	0.066502571	0.258369446	0.293602943	0.999999046	0.000132561	5.72E-06	2.19E-05	1.662564278	6.459236145	7.340073586	0.006628037	0.000286102	0.001096725	0.491210938	-0.384033203	-0.821533203	878.2	41.87375886	-9.672770356	-36.84575643	-75
55805	0	0.065734863	0.259094238	0.293457031	0.999999046	-1.14E-05	9.25E-05	2.29E-05	1.643371582	6.477355957	7.336425781	-0.000572205	0.00462532	0.001144409	0.491455078	-0.384033203	-0.824462891	878.2	41.87138284	-9.655759104	-36.8401219	-75
55806	0	0.066241264	0.257740974	0.294511795	0.999999046	-0.000349045	-8.39E-05	0.000189781	1.656031609	6.443524361	7.362794876	-0.01745224	-0.004196167	0.00948906	0.491210938	-0.381835938	-0.824707031	878.32	41.82996505	-9.666565949	-36.83590542	-75
55807	0	0.066345215	0.2578125	0.29473877	0.999999046	0.000167847	-4.86E-05	4.58E-05	1.658630371	6.4453125	7.368469238	0.008392334	-0.00243187	0.002288818	0.491210938	-0.381835938	-0.824707031	878.36	41.84920018	-9.663353882	-36.84169207	-75
55808	0	0.065970421	0.257966042	0.296171188	0.999999046	5.25E-05	-5.34E-05	4.20E-05	1.649260521	6.449151039	7.404279709	0.002622604	-0.002670288	0.002098083	0.493652344	-0.381835938	-0.822021484	878.36	41.85507317	-9.660239276	-36.84317921	-75
55809	0	0.065979004	0.2578125	0.293395996	0.999999046	0.00019455	5.05E-05	0.000118256	1.649475098	6.4453125	7.334899902	0.009727478	0.002527237	0.005912781	0.491210938	-0.381835938	-0.821777344	878.26	41.87460482	-9.654073449	-36.83280675	-75
55810	0	0.066254616	0.259253502	0.292813301	0.999999046	-0.000131607	-4.20E-05	8.01E-05	1.656365395	6.481337547	7.320332527	-0.006580353	-0.002098084	0.004005432	0.493652344	-0.381835938	-0.827636719	878.2	41.85842973	-9.652895242	-36.83577911	-75
55811	0	0.066162109	0.2578125	0.294921875	0.999999046	-3.05E-05	5.44E-05	3.05E-05	1.654052734	6.4453125	7.373046875	-0.001525879	0.002717972	0.001525879	0.493652344	-0.381835938	-0.824707031	878.28	41.85309668	-9.639702658	-36.83263166	-75
55812	0	0.066145897	0.256813049	0.293417931	0.999999046	0.000346184	-4.39E-05	-3.05E-05	1.653647423	6.420326233	7.335448265	0.017309189	-0.002193451	-0.001525879	0.493652344	-0.381835938	-0.819091797	878.28	41.89290118	-9.630241609	-36.83771697	-75
55813	0	0.066040039	0.261413574	0.291564941	0.999999046	-6.87E-05	-9.44E-05	1.91E-05	1.651000977	6.535339355	7.289123535	-0.003433228	-0.004720688	0.000953674	0.493652344	-0.384033203	-0.824707031	878.28	41.88514637	-9.628882458	-36.84460687	-75
55814	0	0.066411018	0.25752449	0.29518795	0.999999046	-0.00037384	-0.000169754	0.000175476	1.660275459	6.438112259	7.379698753	-0.018692017	-0.008487702	0.008773804	0.491210938	-0.384033203	-0.821533203	878.36	41.84090453	-9.645933299	-36.84153976	-75
55815	0	0.065979004	0.257385254	0.293212891	0.999999046	-4.20E-05	1.62E-05	9.92E-05	1.649475098	6.434631348	7.330322266	-0.002098084	0.000810623	0.004959106	0.491210938	-0.381835938	-0.815917969	878.32	41.83323836	-9.641280116	-36.82809197	-75
55816	0	0.066265106	0.257225037	0.293968201	0.999999046	-0.000121117	5.34E-05	0.000124931	1.656627655	6.430625916	7.349205017	-0.006055832	0.002670288	0.006246567	0.491210938	-0.384033203	-0.818603516	878.28	41.81547541	-9.635433236	-36.80915068	-75
55817	0	0.066040039	0.255493164	0.294433594	0.999999046	0.000240326	-6.01E-05	-0.000102997	1.651000977	6.387329102	7.360839844	0.012016297	-0.003004074	-0.005149841	0.493652344	-0.384033203	-0.824707031	878.34	41.84366311	-9.621872651	-36.82296539	-75
55818	0	0.065899849	0.258576393	0.291920662	0.999999046	0.000331879	-0.000102997	-7.63E-06	1.647496223	6.464409828	7.298016548	0.016593933	-0.005149841	-0.00038147	0.493652344	-0.381835938	-0.824707031	878.26	41.88147244	-9.619261029	-36.83545885	-75
55819	0	0.066040039	0.25793457	0.294921875	0.999999046	-0.000114441	-6.01E-05	3.05E-05	1.651000977	6.448364258	7.373046875	-0.005722046	-0.003004074	0.001525879	0.493408203	-0.379638672	-0.822021484	878.32	41.86684688	-9.615901686	-36.84125	-75
55820	0	0.065907478	0.257435799	0.293934822	0.999999046	2.77E-05	-0.000120163	6.39E-05	1.647686958	6.435894966	7.348370552	0.001382828	-0.006008148	0.003194809	0.491210938	-0.381835938	-0.827636719	878.4	41.86864319	-9.620222056	-36.85313437	-75
55821	0	0.066040039	0.258300781	0.293029785	0.999999046	0.00019455	-9.44E-05	-4.58E-05	1.651000977	6.457519531	7.325744629	0.009727478	-0.004720688	-0.002288818	0.49609375	-0.384277344	-0.824707031	878.32	41.89072847	-9.61397947	-36.86192611	-74
55822	0	0.066011429	0.257871628	0.294014931	0.999999046	-3.81E-06	-3.05E-05	0.00012207	1.650285721	6.446790695	7.350373268	-0.000190735	-0.001525879	0.006103516	0.493652344	-0.381835938	-0.824707031	878.4	41.88668255	-9.615123243	-36.85675798	-74
55823	0	0.066101074	0.256958008	0.294372559	0.999999046	-4.58E-05	-0.000151634	-3.81E-05	1.652526855	6.423950195	7.359313965	-0.002288818	-0.007581711	-0.001907349	0.493652344	-0.381835938	-0.824707031	878.32	41.88152662	-9.614356467	-36.87418768	-74
55824	0	0.065865517	0.258095741	0.293459892	0.999999046	2.38E-05	-0.000169754	7.53E-05	1.646637917	6.452393532	7.336497307	0.001192093	-0.008487701	0.003767014	0.493652344	-0.381835938	-0.822021484	878.28	41.88283893	-9.623821419	-36.88016139	-74
55825	0	0.065979004	0.256835938	0.293884277	0.999999046	0.000133514	-5.63E-05	9.16E-05	1.649475098	6.420898438	7.347106934	0.00667572	-0.002813339	0.004577637	0.491455078	-0.384033203	-0.824462891	878.26	41.89484711	-9.624847929	-36.87771421	-74
55826	0	0.066181183	0.258854866	0.292708397	0.999999046	0.000133514	1.91E-06	5.25E-05	1.654529572	6.471371651	7.317709923	0.00667572	9.54E-05	0.002622604	0.493652344	-0.384033203	-0.821777344	878.26	41.90661894	-9.617938032	-36.86980382	-75
55827	0	0.066589355	0.258483887	0.29284668	0.999999046	-0.000118256	-2.96E-05	0.00012207	1.664733887	6.462097168	7.321166992	-0.005912781	-0.001478195	0.006103516	0.493896484	-0.384033203	-0.827392578	878.22	41.88887231	-9.619073639	-36.8632742	-74
55828	0	0.066303253	0.257603645	0.29436779	0.999999046	-8.58E-06	-0.000137329	-9.54E-07	1.657581329	6.440091133	7.359194756	-0.000429153	-0.006866455	-4.77E-05	0.491210938	-0.381835938	-0.824707031	878.34	41.88672103	-9.620000282	-36.87807344	-74
55829	0	0.066040039	0.258056641	0.293762207	0.999999046	0.000259399	-0.000144005	-4.58E-05	1.651000977	6.451416016	7.344055176	0.012969971	-0.007200241	-0.002288818	0.493652344	-0.381835938	-0.822021484	878.28	41.91590879	-9.618072969	-36.89256059	-74
55830	0	0.066039085	0.258580208	0.292265892	0.999999046	-6.87E-05	0	6.87E-05	1.650977135	6.464505196	7.306647301	-0.003433228	0	0.003433228	0.493652344	-0.384033203	-0.824707031	878.26	41.90394052	-9.612633322	-36.88547766	-74
55831	0	0.066345215	0.258117676	0.294311523	0.999999046	-9.92E-05	-1.81E-05	5.72E-05	1.658630371	6.452941895	7.357788086	-0.004959106	-0.000905991	0.002861023	0.491210938	-0.384033203	-0.821533203	878.28	41.88875162	-9.607877981	-36.87959412	-74
55832	0	0.066019058	0.25707531	0.292955399	0.999999046	-7.34E-05	-0.000185013	0.000220299	1.650476456	6.426882744	7.323884964	-0.003671646	-0.009250641	0.011014939	0.491210938	-0.381835938	-0.827636719	878.28	41.87621126	-9.62984884	-36.88094358	-74
55833	0	0.066223145	0.258361816	0.295349121	0.999999046	2.29E-05	2.77E-05	9.54E-05	1.655578613	6.45904541	7.383728027	0.001144409	0.001382828	0.004768372	0.491210938	-0.384033203	-0.818603516	878.22	41.87362388	-9.624121478	-36.86470042	-74
55834	0	0.066133499	0.257019043	0.295035362	0.999999046	-4.01E-05	-4.20E-05	0.000109673	1.653337479	6.425476074	7.375884056	-0.002002716	-0.002098084	0.005483627	0.488769531	-0.381591797	-0.821777344	878.26	41.86434897	-9.625422792	-36.86121567	-74
55835	0	0.06628418	0.257873535	0.295288086	0.999999046	0.000160217	3.15E-05	-7.25E-05	1.657104492	6.446838379	7.382202148	0.008010864	0.001573563	-0.003623962	0.491210938	-0.381835938	-0.821777344	878.32	41.87956796	-9.606534441	-36.86553205	-75
55836	0	0.066105843	0.258404732	0.295331001	1	-2.10E-05	1.24E-05	1.81E-05	1.652646065	6.460118294	7.383275032	-0.001049042	0.000619888	0.000905991	0.491455078	-0.384033203	-0.824462891	878.22	41.87283889	-9.596202806	-36.86283605	-74
55837	0	0.066223145	0.257629395	0.295959473	0.999999046	-6.87E-05	-2.19E-05	0.000152588	1.655578613	6.440734863	7.398986816	-0.003433228	-0.001096725	0.007629395	0.491210938	-0.384033203	-0.821533203	878.22	41.85898283	-9.599095083	-36.84819645	-74
55838	0	0.066314697	0.257324219	0.295075417	0.999999046	1.91E-05	7.82E-05	1.14E-05	1.657867432	6.433105469	7.376885414	0.000953674	0.003910065	0.000572205	0.491210938	-0.381835938	-0.824707031	878.28	41.85578406	-9.582661143	-36.84436152	-74
55839	0	0.065979004	0.258605957	0.293640137	0.999999046	-0.000110626	-9.82E-05	9.54E-05	1.649475098	6.465148926	7.341003418	-0.005531311	-0.004911423	0.004768372	0.491210938	-0.384033203	-0.821533203	878.32	41.83875632	-9.587717705	-36.84009253	-74
55840	0	0.066207886	0.257368088	0.294293404	0.999999046	-0.000273705	3.05E-05	8.01E-05	1.655197144	6.434202194	7.357335091	-0.013685227	0.001525879	0.004005432	0.491455078	-0.384033203	-0.824462891	878.26	41.80150112	-9.580636309	-36.82913323	-74
55841	0	0.066467285	0.255981445	0.294128418	0.999999046	1.53E-05	-2.19E-05	4.96E-05	1.661682129	6.399536133	7.353210449	0.000762939	-0.001096725	0.002479553	0.491210938	-0.381835938	-0.824707031	878.32	41.79834486	-9.575745637	-36.82827468	-74
55842	0	0.066017151	0.258241653	0.293933868	0.999999046	0.000205994	6.68E-05	2.96E-05	1.650428772	6.456041336	7.34834671	0.010299683	0.00333786	0.001478195	0.491210938	-0.381835938	-0.821777344	878.32	41.81615848	-9.561761823	-36.81998927	-74
