Counter	Temperature	VelInc_X	VelInc_Y	VelInc_Z	OriInc_w	OriInc_x	OriInc_y	OriInc_z	Acc_X	Acc_Y	Acc_Z	Gyr_X	Gyr_Y	Gyr_Z	Mag_X	Mag_Y	Mag_Z	Pressure	Roll	Pitch	Yaw	RSSI
61179	0	0.365539551	-0.08996582	0.104797363	0.999984741	-0.005282402	0.000972748	-0.000709534	9.13848877	-2.249145508	2.619934082	-0.264121394	0.048637628	-0.035476858	-0.604248047	-0.06640625	-0.780273438	884.06	-41.9656105	-68.72160787	51.28812993	-66
61180	0	0.369056702	-0.099511147	0.115148544	0.999984741	-0.005290985	0.000655174	-0.000646591	9.226417542	-2.487778664	2.878713608	-0.264550527	0.03275887	-0.032329715	-0.602050781	-0.057617188	-0.786865234	884.04	-42.2717732	-68.71824314	50.97175593	-66
61181	0	0.36340332	-0.10144043	0.116455078	0.999996185	-0.002661705	0.000511169	0.0001297	9.085083008	-2.536010742	2.911376953	-0.133085414	0.025558503	0.006484993	-0.600097656	-0.051269531	-0.787353516	884.02	-42.47388817	-68.66703212	50.86345455	-66
61182	0	0.360267639	-0.101358414	0.115919113	0.999999046	-0.000112534	1.34E-05	0.000178337	9.006690979	-2.533960342	2.897977829	-0.005626679	0.000667572	0.008916855	-0.602539063	-0.049072266	-0.790283203	884.02	-42.49275358	-68.65361627	50.86933838	-66
61183	0	0.362121582	-0.102661133	0.114562988	0.999997139	0.002365112	-0.000193596	0.000278473	9.053039551	-2.56652832	2.864074707	0.118255728	-0.009679804	0.013923658	-0.602539063	-0.048828125	-0.787597656	883.92	-42.29038191	-68.64947344	50.93757576	-66
61184	0	0.363573074	-0.097238541	0.105665207	0.999993324	0.003590584	0.000133514	0.000432968	9.089326859	-2.430963516	2.641630173	0.179529582	0.006675735	0.021648454	-0.602294922	-0.055419922	-0.784179688	883.98	-41.91725918	-68.60580871	50.97685429	-66
61185	0	0.365112305	-0.090576172	0.108154297	0.999997139	0.001979828	-4.48E-05	0.001060486	9.127807617	-2.264404297	2.703857422	0.098991477	-0.002241137	0.053024337	-0.602294922	-0.057617188	-0.783935547	883.98	-41.89964721	-68.52956396	51.2003296	-67
61186	0	0.367188454	-0.090620041	0.108844757	0.999998093	0.000731468	-0.000178337	0.001335144	9.179711342	-2.265501022	2.721118927	0.036573424	-0.008916858	0.066757228	-0.602050781	-0.059814453	-0.786621094	884.04	-42.10875221	-68.44370719	51.51647354	-67
61187	0	0.366821289	-0.09362793	0.106323242	0.999999046	0.000869751	-8.30E-05	0.000461578	9.170532227	-2.340698242	2.658081055	0.043487556	-0.004148484	0.023078922	-0.602050781	-0.059814453	-0.783691406	883.98	-42.0944235	-68.41688617	51.60929717	-67
61188	0	0.365899086	-0.092372894	0.108862877	0.999997139	0.001891136	-0.000669479	0.000621796	9.14747715	-2.309322357	2.721571922	0.094556878	-0.033473993	0.031089806	-0.604492188	-0.059814453	-0.786376953	884.04	-42.11107135	-68.42778866	51.85686252	-67
61189	0	0.367675781	-0.092895508	0.107299805	0.999996185	0.002293587	-0.001144409	0.000396729	9.191894531	-2.322387695	2.682495117	0.114679465	-0.057220523	0.019836448	-0.604492188	-0.062011719	-0.783447266	883.98	-42.12595783	-68.49656895	52.15017145	-68
61190	0	0.371513367	-0.091350555	0.108211517	0.999997139	0.002180099	-0.000955582	0.000189781	9.287834167	-2.283763885	2.705287933	0.109005078	-0.047779129	0.009489068	-0.604248047	-0.06640625	-0.783203125	883.98	-42.07276387	-68.56552417	52.35671559	-68
61191	0	0.368774414	-0.092285156	0.107910156	0.999997139	0.002052307	-0.000914574	-0.000213623	9.219360352	-2.307128906	2.697753906	0.102615444	-0.045728722	-0.010681161	-0.606689453	-0.068359375	-0.777099609	884.02	-41.93879704	-68.66224029	52.46114818	-68
61192	0	0.369980812	-0.09200573	0.104010582	0.999997139	0.002120018	-0.000963211	-0.00050354	9.249520302	-2.300143242	2.600264549	0.106001001	-0.048160599	-0.025177026	-0.608642578	-0.074951172	-0.776367188	884.02	-41.74308123	-68.78570031	52.51184416	-67
61193	0	0.368530273	-0.088806152	0.102722168	0.999998093	0.001030922	-0.000919342	-0.000713348	9.213256836	-2.220153809	2.568054199	0.051546118	-0.045967121	-0.035667434	-0.606445313	-0.074951172	-0.773681641	884	-41.61653516	-68.9218294	52.49750357	-67
61194	0	0.3694067	-0.09355545	0.105165482	0.999999046	-0.000652313	-0.000802994	-0.000342369	9.235167503	-2.338886261	2.629137039	-0.032615668	-0.040149697	-0.017118457	-0.608398438	-0.079345703	-0.776123047	884.02	-41.74268325	-69.01982337	52.55415757	-67
61195	0	0.364685059	-0.094238281	0.106994629	0.999998093	-0.001391411	-0.000736237	-0.000160217	9.117126465	-2.355957031	2.674865723	-0.06957057	-0.036811844	-0.008010868	-0.608642578	-0.077148438	-0.7734375	883.96	-41.98204981	-69.09800545	52.64135081	-67
61196	0	0.369637489	-0.096867561	0.109354019	0.999999046	-0.000464439	-0.000461578	-8.49E-05	9.240937233	-2.421689034	2.733850479	-0.023221971	-0.02307892	-0.004243851	-0.611083984	-0.074951172	-0.7734375	884.04	-42.0777789	-69.14671849	52.6864842	-67
61197	0	0.368469238	-0.092224121	0.105407715	0.999999046	0.000453949	-0.000823021	-7.25E-05	9.211730957	-2.305603027	2.635192871	0.022697452	-0.041151053	-0.003623963	-0.61328125	-0.076904297	-0.773193359	884.04	-42.144424	-69.22521968	52.81507341	-67
61198	0	0.369086266	-0.093355179	0.107264519	0.999999046	0.000608444	-0.000722885	-0.000180244	9.227156639	-2.333879471	2.681612968	0.030422215	-0.036144262	-0.009012224	-0.61328125	-0.076904297	-0.773193359	883.98	-42.14937516	-69.30339759	52.89342909	-67
61199	0	0.367980957	-0.093811035	0.10546875	0.999999046	0.001125336	-0.00052166	-0.00056076	9.199523926	-2.345275879	2.63671875	0.056266802	-0.026083001	-0.028038034	-0.61328125	-0.079101563	-0.770019531	883.92	-41.96836461	-69.39363707	52.83670117	-67
61200	0	0.368865967	-0.093771935	0.104318619	0.999999046	0.000300407	-0.000240326	-0.000357628	9.22164917	-2.344298363	2.607965469	0.015020371	-0.012016297	-0.017881394	-0.615478516	-0.081298828	-0.766845703	883.96	-41.87017485	-69.44424099	52.7721771	-67
61201	0	0.366821289	-0.09387207	0.103393555	0.999999046	-0.000823975	-0.000296593	0.000106812	9.170532227	-2.346801758	2.584838867	-0.041198736	-0.014829638	0.005340577	-0.615478516	-0.081298828	-0.772705078	884.02	-42.0183211	-69.46400428	52.83187043	-67
61202	0	0.365031242	-0.097846985	0.105151176	0.999999046	-0.000881195	-0.000352859	0.000174522	9.125781059	-2.446174622	2.628779411	-0.04405976	-0.017642978	0.008726121	-0.615478516	-0.079101563	-0.772949219	883.98	-42.20078763	-69.48298844	52.91937598	-67
61203	0	0.365783691	-0.101074219	0.104858398	0.999999046	0.000724792	-0.000548363	0.000370026	9.144592285	-2.526855469	2.621459961	0.03623963	-0.027418141	0.018501285	-0.617919922	-0.076904297	-0.772949219	884.02	-42.28495636	-69.50305268	53.09382492	-67
61204	0	0.366071701	-0.094359398	0.103615761	0.999998093	0.001729965	-0.000718117	0.000323296	9.151792526	-2.358984947	2.59039402	0.086498313	-0.03590586	0.016164789	-0.615722656	-0.076904297	-0.767333984	884	-42.27893014	-69.54096874	53.29148155	-67
61205	0	0.367004395	-0.096008301	0.103881836	0.999998093	0.001111031	-0.000923157	0.000587463	9.175109863	-2.40020752	2.597045898	0.055551551	-0.046157856	0.029373181	-0.617919922	-0.081054688	-0.766845703	884.08	-42.44722587	-69.57558759	53.60491167	-67
61206	0	0.36781311	-0.098467827	0.104030609	0.999997139	0.001846313	-0.001218796	0.000891685	9.195327759	-2.461695671	2.600765228	0.092315761	-0.060939847	0.044584317	-0.620117188	-0.083251953	-0.766601563	884.04	-42.6633107	-69.61098298	54.05915919	-68
61207	0	0.369384766	-0.092407227	0.101928711	0.999996185	0.002217293	-0.001010895	0.000720978	9.234619141	-2.310180664	2.548217773	0.110864759	-0.050544793	0.036048928	-0.622558594	-0.085449219	-0.766357422	884.02	-42.75571106	-69.64177317	54.42588931	-68
61208	0	0.369940758	-0.09365654	0.100130081	0.999999046	0.000767708	-0.000862122	0.000683784	9.248518944	-2.341413498	2.503252029	0.038385403	-0.043106092	0.034189235	-0.622314453	-0.087646484	-0.763183594	884.06	-42.97554898	-69.6626913	54.75469274	-68
61209	0	0.371398926	-0.092102051	0.100402832	0.999999046	0.000640869	-0.000655174	0.000934601	9.284973145	-2.30255127	2.510070801	0.032043466	-0.032758722	0.046730055	-0.622558594	-0.085449219	-0.763427734	883.94	-43.22314182	-69.64632218	55.09284868	-68
61210	0	0.370017052	-0.091322899	0.10015583	0.999999046	0.000465393	-0.000276566	0.00057888	9.250426292	-2.283072472	2.50389576	0.023269656	-0.013828279	0.028944019	-0.622558594	-0.087402344	-0.757568359	884.06	-43.33021965	-69.62607847	55.26607207	-68
61211	0	0.372070313	-0.088745117	0.097900391	0.999999046	9.54E-05	-0.000243187	0.000278473	9.301757813	-2.21862793	2.447509766	0.004768372	-0.012159348	0.013923645	-0.624755859	-0.085205078	-0.763183594	884	-43.40490897	-69.62693996	55.35359707	-68
61212	0	0.373898506	-0.089241028	0.096086502	0.999999046	6.39E-05	-0.000276566	3.81E-05	9.347462654	-2.231025696	2.402162552	0.003194809	-0.013828278	0.001907349	-0.624755859	-0.085205078	-0.763183594	884.06	-43.43649986	-69.64988596	55.39077972	-68
61213	0	0.369934082	-0.093017578	0.099243164	0.999999046	-0.000984192	-0.000132561	4.58E-05	9.248352051	-2.325439453	2.481079102	-0.049209603	-0.006628038	0.002288819	-0.625	-0.085205078	-0.757568359	884	-43.55951097	-69.6603197	55.40346598	-68
61214	0	0.366778374	-0.096058846	0.101092339	0.999999046	-0.000549316	-0.000219345	0.000155449	9.169459343	-2.401471138	2.527308464	-0.027465822	-0.010967255	0.007772446	-0.624755859	-0.085205078	-0.763183594	884.04	-43.67602839	-69.66913309	55.46031548	-68
61215	0	0.365722656	-0.095825195	0.100769043	0.999999046	0.000553131	-0.000235558	0.000236511	9.143066406	-2.395629883	2.519226074	0.027656557	-0.011777879	0.011825562	-0.625	-0.083007813	-0.763427734	884	-43.68803153	-69.67271518	55.53504758	-69
61216	0	0.369812965	-0.09503746	0.098379135	0.999999046	0.000403404	-0.000476837	0.000190735	9.245324135	-2.375936508	2.459478378	0.020170213	-0.02384186	0.009536744	-0.627197266	-0.085205078	-0.760253906	883.92	-43.75895946	-69.69992724	55.65995622	-69
61217	0	0.37121582	-0.098388672	0.101928711	0.999999046	-0.000453949	-0.000407219	0.000240326	9.280395508	-2.459716797	2.548217773	-0.02269745	-0.020360948	0.012016297	-0.625	-0.085205078	-0.760498047	884.04	-43.92484668	-69.7171855	55.78088475	-69
61218	0	0.367281914	-0.100427628	0.100622177	0.999999046	0.000106812	-0.000543594	0.000369072	9.182047844	-2.510690689	2.515554428	0.005340577	-0.02717972	0.018453599	-0.627441406	-0.085205078	-0.757324219	884.1	-44.08539554	-69.73504583	55.96750057	-69
61219	0	0.368347168	-0.096374512	0.101989746	0.999999046	0.000892639	-0.000460625	0.000408173	9.208679199	-2.409362793	2.549743652	0.044631967	-0.023031239	0.020408634	-0.627441406	-0.083007813	-0.757568359	884.04	-44.14681709	-69.74268167	56.13786066	-69
61220	0	0.366586685	-0.097660065	0.097247124	0.999999046	0.000203133	-0.000389099	0.000415802	9.16466713	-2.441501617	2.431178093	0.010156632	-0.019454957	0.020790101	-0.629638672	-0.085205078	-0.760253906	884.04	-44.27404959	-69.74366389	56.29749499	-69
61221	0	0.368774414	-0.097900391	0.096313477	0.999999046	0.000770569	-0.00045681	0.000587463	9.219360352	-2.447509766	2.407836914	0.03852845	-0.022840504	0.029373175	-0.629638672	-0.085205078	-0.760253906	884	-44.3896322	-69.73632746	56.51225529	-69
61222	0	0.373635292	-0.094952583	0.098558426	0.999999046	0.001123428	-0.000253677	0.000266075	9.340882301	-2.373814583	2.463960648	0.05617143	-0.012683871	0.01330376	-0.629638672	-0.085205078	-0.760253906	884	-44.34932024	-69.7381612	56.6009302	-69
61223	0	0.372680664	-0.091186523	0.097839355	0.999998093	0.00174427	-0.000293732	-4.58E-05	9.317016602	-2.279663086	2.445983887	0.087213562	-0.014686592	-0.00228882	-0.629638672	-0.087158203	-0.754150391	883.94	-44.17690907	-69.76851735	56.6265046	-69
61224	0	0.370914459	-0.091365814	0.096536636	0.999999046	0.000618935	-0.000246048	-4.20E-05	9.272861481	-2.284145355	2.413415909	0.030946734	-0.0123024	-0.002098084	-0.631835938	-0.091552734	-0.75390625	883.94	-44.12373696	-69.79488997	56.64899797	-69
61225	0	0.369262695	-0.092102051	0.094116211	0.999999046	0.000331879	-0.000208855	-2.67E-05	9.231567383	-2.30255127	2.352905273	0.016593934	-0.010442734	-0.001335144	-0.631835938	-0.089355469	-0.751220703	883.94	-44.09903367	-69.81722674	56.66297867	-69
61226	0	0.370223045	-0.090554237	0.096157074	0.999999046	0.000638962	-8.20E-05	-0.000287056	9.255576134	-2.263855934	2.403926849	0.031948092	-0.0041008	-0.0143528	-0.631835938	-0.091552734	-0.750976563	883.88	-43.95303166	-69.85007359	56.58677396	-69
61227	0	0.37298584	-0.092102051	0.093322754	0.999999046	-0.00062561	-0.000159264	-0.000469208	9.324645996	-2.30255127	2.333068848	-0.031280521	-0.007963181	-0.023460391	-0.631835938	-0.091552734	-0.756591797	884.04	-43.92776411	-69.90403432	56.48163209	-69
61228	0	0.36968708	-0.093465805	0.098274231	0.999998093	-0.001480103	-0.000287056	-0.000453949	9.24217701	-2.336645126	2.456855774	-0.074005158	-0.014352804	-0.022697458	-0.634033203	-0.09375	-0.750732422	883.96	-44.03150661	-69.96733246	56.42154765	-69
61229	0	0.365844727	-0.09564209	0.097045898	0.999999046	-0.001235962	-7.92E-05	-0.000198364	9.146118164	-2.391052246	2.426147461	-0.061798112	-0.003957749	-0.009918215	-0.631835938	-0.089355469	-0.75390625	884	-44.12002505	-69.99305893	56.36625151	-69
61230	0	0.366753578	-0.098238945	0.096682549	0.999999046	-0.000968933	-0.000225067	-0.000340462	9.168839455	-2.455973625	2.417063713	-0.048446664	-0.011253359	-0.01702309	-0.631835938	-0.089355469	-0.756835938	884.04	-44.17844572	-70.04196092	56.31118581	-69
61231	0	0.372741699	-0.098999023	0.100585938	0.999999046	-0.00069809	-0.000197411	-0.000343323	9.31854248	-2.474975586	2.514648438	-0.034904484	-0.00987053	-0.01716614	-0.632080078	-0.084960938	-0.754394531	884.04	-44.19931641	-70.08857777	56.2435564	-69
61232	0	0.369873047	-0.096374512	0.100036621	0.999999046	0.000100136	-5.34E-05	-0.000354767	9.246826172	-2.409362793	2.500915527	0.00500679	-0.002670288	-0.017738343	-0.632080078	-0.087158203	-0.754150391	883.98	-44.09414765	-70.12404264	56.14230426	-69
61233	0	0.372109413	-0.092866898	0.097623825	0.999998093	0.000161171	-4.39E-05	-0.000382423	9.302735329	-2.32167244	2.440595627	0.008058548	-0.002193451	-0.019121171	-0.634277344	-0.089355469	-0.75390625	884	-43.97312116	-70.16088013	56.03590439	-69
61234	0	0.37263298	-0.092541695	0.096437454	0.999999046	-0.000593185	1.91E-06	-0.000606537	9.315824509	-2.313542366	2.410936356	-0.029659275	9.54E-05	-0.030326847	-0.631835938	-0.089355469	-0.751220703	883.98	-43.8767245	-70.21175374	55.86426222	-69
61235	0	0.36907959	-0.093811035	0.098022461	0.999999046	-0.000782013	6.96E-05	-0.000724792	9.226989746	-2.345275879	2.450561523	-0.039100654	0.003480912	-0.036239631	-0.631835938	-0.089355469	-0.75390625	884.06	-43.75912974	-70.26619137	55.64615429	-69
61236	0	0.370425224	-0.095624924	0.097496033	0.999999046	0.000384331	0.000118256	-0.000556946	9.260630608	-2.390623093	2.437400818	0.019216539	0.005912781	-0.027847292	-0.631835938	-0.089355469	-0.75390625	884.04	-43.5353792	-70.30295517	55.45500191	-69
61237	0	0.372436523	-0.08984375	0.09564209	0.999999046	0.000350952	9.25E-05	-0.000366211	9.310913086	-2.24609375	2.391052246	0.017547608	0.004625321	-0.018310548	-0.634277344	-0.089355469	-0.756591797	883.98	-43.3648175	-70.32674599	55.31441824	-69
61238	0	0.372302055	-0.090724945	0.095834732	0.999999046	-0.000156403	0.000135422	-0.000706673	9.307551384	-2.268123627	2.395868301	-0.00782013	0.006771088	-0.035333637	-0.634033203	-0.091552734	-0.756591797	884.04	-43.16304318	-70.37362963	55.08209078	-69
61239	0	0.370422363	-0.093017578	0.097595215	0.999999046	0.000167847	8.49E-05	-0.000621796	9.260559082	-2.325439453	2.439880371	0.008392335	0.004243851	-0.031089785	-0.631835938	-0.091552734	-0.756591797	884.06	-42.95441566	-70.41772351	54.87875307	-69
61240	0	0.371313095	-0.091485977	0.097931862	0.999999046	0.000584602	-1.53E-05	-0.000339508	9.282827377	-2.287149429	2.448296547	0.02923012	-0.00076294	-0.016975404	-0.631591797	-0.09375	-0.756591797	884.04	-42.78602241	-70.44793888	54.77032652	-69
61241	0	0.372680664	-0.088745117	0.095275879	0.999999046	0.00044632	4.77E-06	-0.000511169	9.317016602	-2.21862793	2.381896973	0.022315981	0.000238419	-0.025558474	-0.631591797	-0.09375	-0.756591797	883.98	-42.58800439	-70.48982758	54.61113764	-69
61242	0	0.373503685	-0.089254379	0.096822739	0.999999046	0.000364304	8.20E-05	-0.000676155	9.337592125	-2.231359482	2.420568466	0.018215181	0.0041008	-0.033807758	-0.631591797	-0.095947266	-0.756347656	884.04	-42.34236629	-70.53781078	54.39338591	-69
61243	0	0.373901367	-0.087097168	0.095825195	0.999999046	-9.54E-05	7.34E-05	-0.000743866	9.34753418	-2.177429199	2.395629883	-0.004768372	0.003671646	-0.037193302	-0.631591797	-0.098144531	-0.756103516	884	-42.13393203	-70.59160634	54.16236695	-69
61244	0	0.371398926	-0.087097168	0.094848633	0.999999046	-7.92E-05	0	-0.000537872	9.284973145	-2.177429199	2.37121582	-0.003957749	0	-0.026893617	-0.633789063	-0.098144531	-0.753173828	883.98	-41.98861898	-70.63572079	54.00244662	-69
61245	0	0.371353149	-0.085277557	0.095152855	0.999998093	0.000208855	0	-0.000605583	9.283828735	-2.131938934	2.378821373	0.010442734	0	-0.030279162	-0.631347656	-0.098144531	-0.759033203	883.98	-41.79310642	-70.68500897	53.81691538	-69
61246	0	0.36981678	-0.085084915	0.095212936	0.999999046	-0.000148773	-8.96E-05	-0.000306129	9.245419502	-2.127122879	2.38032341	-0.00743866	-0.004482269	-0.015306473	-0.631347656	-0.100341797	-0.755859375	883.94	-41.73056118	-70.71907923	53.73479457	-69
61247	0	0.373168945	-0.085083008	0.094970703	0.999999046	-0.00062561	-0.000216484	-0.000148773	9.329223633	-2.127075195	2.374267578	-0.03128052	-0.010824204	-0.00743866	-0.633789063	-0.100341797	-0.755859375	884.06	-41.78880009	-70.75214354	53.72535406	-69
61248	0	0.373723984	-0.08539772	0.095921516	0.999999046	-0.001126289	-5.15E-05	-0.00012207	9.343099594	-2.134943008	2.39803791	-0.05631448	-0.002574921	-0.006103517	-0.631591797	-0.098144531	-0.750488281	884	-41.87495154	-70.76919768	53.68543019	-69
61249	0	0.373962402	-0.087463379	0.09753418	0.999999046	-0.001239777	-7.53E-05	-5.72E-05	9.349060059	-2.186584473	2.438354492	-0.061988847	-0.003767015	-0.002861024	-0.629150391	-0.098144531	-0.753417969	884.04	-41.99532176	-70.7833289	53.6679601	-69
61250	0	0.371850967	-0.088641167	0.098112106	0.999999046	0.000293732	-2.10E-05	8.68E-05	9.296274185	-2.216029167	2.452802658	0.014686585	-0.001049042	0.004339218	-0.629150391	-0.095947266	-0.756347656	884	-41.96334226	-70.78168416	53.66818044	-69
61251	0	0.372131348	-0.081848145	0.094055176	0.999999046	0.000293732	1.24E-05	-2.67E-05	9.303283691	-2.046203613	2.351379395	0.014686585	0.000619888	-0.001335144	-0.631591797	-0.098144531	-0.756103516	884.04	-41.89602216	-70.78614024	53.63601736	-69
61252	0	0.373109818	-0.083297729	0.095943451	0.999999046	-0.000769615	-0.000114441	0.000171661	9.327745438	-2.082443237	2.398586273	-0.038480763	-0.005722047	0.00858307	-0.631591797	-0.095947266	-0.756347656	884.04	-42.02669858	-70.78636295	53.68251337	-69
61253	0	0.372558594	-0.086181641	0.09588623	0.999999046	-0.000526428	4.77E-06	9.54E-05	9.313964844	-2.154541016	2.397155762	-0.026321412	0.000238419	0.004768372	-0.631591797	-0.095947266	-0.753417969	883.98	-42.08467656	-70.78232174	53.68514717	-69
61254	0	0.373333931	-0.087026596	0.096467972	0.999999046	-0.000782013	0.000270844	0.0001297	9.333348274	-2.175664902	2.411699295	-0.039100652	0.013542177	0.006484986	-0.631591797	-0.095947266	-0.759277344	883.92	-42.12177423	-70.75303418	53.6339949	-68
61255	0	0.372497559	-0.086853027	0.097900391	0.999999046	-0.000652313	0.000370979	-8.77E-05	9.312438965	-2.171325684	2.447509766	-0.032615665	0.018548967	-0.004386902	-0.629394531	-0.09375	-0.753662109	884.06	-42.06904713	-70.73189349	53.50354726	-69
61256	0	0.371952057	-0.086976051	0.09732914	0.999999046	7.15E-05	0.000249863	0.00018692	9.298801422	-2.174401283	2.433228493	0.003576279	0.012493134	0.009346008	-0.629150391	-0.093994141	-0.759521484	884.06	-42.0269651	-70.69992054	53.46941405	-68
61257	0	0.371948242	-0.089782715	0.097900391	0.999999046	0.000606537	0.00036335	0.000205994	9.298706055	-2.244567871	2.447509766	0.030326846	0.018167497	0.010299684	-0.631591797	-0.09375	-0.756591797	884.04	-41.90387181	-70.65667834	53.41636778	-68
61258	0	0.370194435	-0.084752083	0.097172737	0.999999046	0.000362396	0.00053215	6.68E-06	9.254860878	-2.118802071	2.429318428	0.018119813	0.026607515	0.000333786	-0.626953125	-0.093994141	-0.756835938	884.04	-41.7238823	-70.6142518	53.27045844	-68
61259	0	0.370300293	-0.087097168	0.096557617	0.999999046	-0.000869751	0.000409126	0.000526428	9.257507324	-2.177429199	2.41394043	-0.043487558	0.020456318	0.026321416	-0.629394531	-0.091552734	-0.756835938	884	-41.83840019	-70.54264309	53.28832909	-68
61260	0	0.37036705	-0.090529442	0.099938393	0.999998093	-0.000955582	0.000552177	0.000587463	9.259176254	-2.263236046	2.498459816	-0.047779096	0.027608879	0.029373177	-0.627197266	-0.089599609	-0.760009766	883.98	-41.94629507	-70.45396501	53.2867246	-68
61261	0	0.371643066	-0.095336914	0.103515625	0.999999046	0.000350952	0.000432014	0.000930786	9.29107666	-2.383422852	2.587890625	0.017547611	0.021600728	0.046539316	-0.629394531	-0.089355469	-0.756835938	883.98	-42.01244322	-70.34879986	53.40439582	-68
61262	0	0.372314453	-0.090881348	0.098876953	0.999997139	0.001987457	0.000312805	0.000850677	9.307861328	-2.272033691	2.471923828	0.099372943	0.015640271	0.042533908	-0.626953125	-0.091796875	-0.756835938	883.94	-41.8973305	-70.25990462	53.52827351	-68
61263	0	0.372924805	-0.086608887	0.100280762	0.999997139	0.001972198	0.000149727	0.000762939	9.323120117	-2.165222168	2.507019043	0.098609998	0.007486349	0.038147001	-0.627197266	-0.091796875	-0.754150391	884	-41.79747313	-70.19179966	53.66422338	-68
61264	0	0.370993614	-0.086426735	0.097312927	0.999997139	0.001992226	0.000219345	0.000555992	9.274840355	-2.160668373	2.432823181	0.099611354	0.010967263	0.027799626	-0.624511719	-0.091796875	-0.762695313	883.98	-41.63154852	-70.13381174	53.72054422	-68
61265	0	0.369995117	-0.086975098	0.096557617	0.999999046	0.00069046	0.000294685	0.00030899	9.24987793	-2.174377441	2.41394043	0.034523014	0.01473427	0.015449526	-0.626953125	-0.093994141	-0.756835938	883.94	-41.54080181	-70.08839631	53.70721253	-68
61266	0	0.371405602	-0.088223457	0.102329254	0.999999046	-0.000587463	0.000602722	0.000437737	9.285140038	-2.205586433	2.558231354	-0.029373173	0.030136113	0.021886829	-0.626953125	-0.093994141	-0.762451172	884.06	-41.56231842	-70.00675871	53.65787371	-68
61267	0	0.370117188	-0.09173584	0.100708008	0.999999046	-0.000453949	0.000626564	0.000732422	9.252929688	-2.293395996	2.517700195	-0.022697453	0.031328207	0.036621101	-0.624511719	-0.093994141	-0.756835938	884.04	-41.63316259	-69.90060798	53.6835639	-68
61268	0	0.372238159	-0.090237617	0.101640701	0.999999046	0.000144005	0.000326157	0.000831604	9.305953979	-2.255940437	2.541017532	0.007200242	0.016307833	0.041580206	-0.624511719	-0.091796875	-0.762695313	884.04	-41.72059241	-69.81262915	53.79365163	-68
61269	0	0.368835449	-0.090209961	0.103088379	0.999999046	0.001091003	5.44E-05	0.000823975	9.22088623	-2.255249023	2.577209473	0.054550188	0.002717973	0.041198743	-0.624511719	-0.091796875	-0.762695313	883.98	-41.75322478	-69.74838096	53.95960934	-68
61270	0	0.364585876	-0.090532303	0.100150108	0.999999046	0.001104355	-0.000211716	0.000766754	9.114646912	-2.263307571	2.503752708	0.05521776	-0.010585788	0.038337719	-0.624511719	-0.093994141	-0.759765625	884.06	-41.82569262	-69.71117368	54.17395229	-68
61271	0	0.369140625	-0.091064453	0.100952148	0.999999046	0.000541687	-0.000105858	0.000823975	9.228515625	-2.276611328	2.523803711	0.027084355	-0.005292893	0.041198737	-0.626953125	-0.091796875	-0.756835938	883.94	-41.95343281	-69.66046876	54.37763429	-68
61272	0	0.371632576	-0.093215942	0.100912094	0.999999046	9.25E-05	1.14E-05	0.000365257	9.2908144	-2.33039856	2.522802353	0.004625321	0.000572205	0.018262864	-0.622314453	-0.092041016	-0.762939453	884.06	-42.00279435	-69.63485323	54.43664298	-68
61273	0	0.371520996	-0.094177246	0.104858398	0.999999046	-0.000465393	0.000218391	0.00050354	9.288024902	-2.354431152	2.621459961	-0.023269655	0.010919572	0.025177004	-0.622314453	-0.091796875	-0.757080078	883.94	-42.10479802	-69.58085288	54.4901494	-68
61274	0	0.365646362	-0.090859413	0.104505539	0.999999046	0.000730515	-0.000230789	0.000610352	9.141159058	-2.271485329	2.612638474	0.036525732	-0.011539461	0.030517583	-0.622314453	-0.08984375	-0.762939453	883.88	-42.18617056	-69.55667903	54.65871417	-68
61275	0	0.366882324	-0.093139648	0.101501465	0.999999046	0.000957489	-0.000250816	0.00043869	9.172058105	-2.328491211	2.537536621	0.04787446	-0.01254082	0.021934514	-0.624511719	-0.093994141	-0.759765625	884.1	-42.20653382	-69.5473346	54.79959476	-68
61276	0	0.368315697	-0.093937874	0.102654457	0.999999046	0.000807762	-0.000240326	0.000400543	9.207892418	-2.348446846	2.566361427	0.040388113	-0.012016298	0.020027164	-0.624755859	-0.091796875	-0.757080078	884	-42.23327828	-69.53995053	54.92430572	-68
61277	0	0.37121582	-0.092590332	0.10345459	0.999999046	0.00113678	-0.000411034	0.000488281	9.280395508	-2.314758301	2.586364746	0.056839005	-0.020551687	0.024414069	-0.626953125	-0.093994141	-0.756835938	883.94	-42.27737639	-69.54026186	55.11072482	-68
61278	0	0.37005043	-0.09076786	0.101646423	0.999999046	0.001075745	-2.67E-05	0.000494957	9.251260757	-2.26919651	2.541160583	0.053787244	-0.001335144	0.024747854	-0.626953125	-0.093994141	-0.759521484	884	-42.25037852	-69.50756158	55.20963073	-68
61279	0	0.366577148	-0.089294434	0.100341797	0.999999046	7.63E-06	-5.63E-05	0.000587463	9.164428711	-2.23236084	2.508544922	0.00038147	-0.002813339	0.029373171	-0.626708984	-0.096191406	-0.759277344	883.94	-42.37241787	-69.47034692	55.34281529	-68
61280	0	0.368310928	-0.092106819	0.099995613	0.999999046	-0.001330376	7.25E-05	0.000339508	9.207773209	-2.302670479	2.499890327	-0.066518805	0.003623964	0.016975408	-0.626953125	-0.093994141	-0.756835938	884.06	-42.56493292	-69.441416	55.39005045	-68
61281	0	0.370300293	-0.093933105	0.103515625	0.999998093	-0.001601219	0.000118256	0.000270844	9.257507324	-2.348327637	2.587890625	-0.080060994	0.005912783	0.013542181	-0.626953125	-0.091796875	-0.762695313	884.04	-42.76320642	-69.41387764	55.40775899	-68
61282	0	0.368757248	-0.097583771	0.105182648	0.999999046	-0.00084877	-4.39E-05	0.000243187	9.218931198	-2.439594269	2.629566193	-0.042438513	-0.002193451	0.012159349	-0.627197266	-0.087402344	-0.760009766	884.06	-42.90254641	-69.40187633	55.45076367	-68
61283	0	0.367797852	-0.096679688	0.103637695	0.999999046	0.000297546	-0.000124931	0.000362396	9.194946289	-2.416992188	2.590942383	0.01487732	-0.006246567	0.018119813	-0.624755859	-0.089599609	-0.762939453	884	-42.95395924	-69.38719804	55.54064532	-68
61284	0	0.367693901	-0.094688416	0.102929115	0.999999046	5.25E-05	-0.000141144	0.00037384	9.192347527	-2.367210388	2.573227882	0.002622604	-0.00705719	0.018692017	-0.627197266	-0.087402344	-0.760009766	884.16	-43.03918666	-69.37289326	55.63632844	-68
61285	0	0.366516113	-0.095092773	0.09979248	0.999999046	9.54E-05	-7.53E-05	1.91E-05	9.162902832	-2.377319336	2.494812012	0.004768372	-0.003767014	0.000953674	-0.624755859	-0.087402344	-0.760253906	884.04	-43.02707081	-69.38082565	55.63091959	-69
61286	0	0.369945526	-0.095454216	0.102560997	0.999999046	-0.000583649	-2.29E-05	0.000305176	9.248638153	-2.3863554	2.564024925	-0.029182436	-0.001144409	0.01525879	-0.624755859	-0.087402344	-0.763183594	884	-43.14549189	-69.36195184	55.68252977	-69
61287	0	0.370117188	-0.09564209	0.101501465	0.999999046	-0.000862122	0.000180244	0.000209808	9.252929688	-2.391052246	2.537536621	-0.043106085	0.009012224	0.010490419	-0.624755859	-0.087402344	-0.760253906	884.06	-43.23235455	-69.33357088	55.67194516	-69
61288	0	0.370771408	-0.099635124	0.101218224	0.999999046	-0.000987053	0.000190735	-0.0001688	9.269285202	-2.490878105	2.530455589	-0.049352654	0.009536745	-0.008440019	-0.622558594	-0.087646484	-0.760253906	884.1	-43.24800927	-69.33395965	55.57188116	-69
61289	0	0.364685059	-0.097717285	0.101257324	0.999999046	-0.000225067	5.05E-05	0.00012207	9.117126465	-2.442932129	2.531433105	-0.011253357	0.002527237	0.006103516	-0.625	-0.083007813	-0.7578125	884.04	-43.27018144	-69.32309057	55.56687644	-69
61290	0	0.366664886	-0.097303391	0.100578308	0.999999046	-0.00047493	-0.000114441	0.000124931	9.166622162	-2.432584763	2.514457703	-0.023746491	-0.005722046	0.006246567	-0.625	-0.083007813	-0.7578125	884.06	-43.35624782	-69.32570814	55.60112872	-69
61291	0	0.366638184	-0.100769043	0.100830078	0.999999046	-0.000270844	-4.86E-05	2.29E-05	9.16595459	-2.519226074	2.520751953	-0.013542175	-0.00243187	0.001144409	-0.625	-0.083007813	-0.763427734	884.04	-43.38328134	-69.33069453	55.59431059	-69
61292	0	0.367314339	-0.098766327	0.101349831	0.999999046	-0.000319481	-0.000226974	0.000292778	9.182858467	-2.469158173	2.533745766	-0.015974045	-0.011348725	0.014638901	-0.625	-0.083007813	-0.763427734	884.04	-43.51297418	-69.32914562	55.69257715	-69
61293	0	0.372131348	-0.098388672	0.102539063	0.999999046	0.000221252	-0.000151634	0.000156403	9.303283691	-2.459716797	2.563476563	0.011062622	-0.007581711	0.00782013	-0.625244141	-0.080810547	-0.755126953	883.98	-43.53499945	-69.33200709	55.7424407	-69
61294	0	0.368225098	-0.096507072	0.100881577	1	6.68E-06	-2.77E-05	-3.43E-05	9.205627441	-2.412676811	2.522039413	0.000333786	-0.001382828	-0.001716614	-0.625	-0.083007813	-0.7578125	883.92	-43.5137109	-69.33962246	55.72215741	-69
61295	0	0.36706543	-0.096557617	0.099060059	0.999999046	0.000415802	-0.000342369	0.000160217	9.176635742	-2.41394043	2.476501465	0.020790101	-0.017118455	0.008010865	-0.627441406	-0.080810547	-0.760742188	883.92	-43.55456405	-69.35806835	55.8119536	-69
61296	0	0.371741295	-0.09458065	0.099248886	0.999999046	0.000208855	-0.000284195	-8.39E-05	9.293532372	-2.364516258	2.481222153	0.010442734	-0.014209748	-0.004196167	-0.625	-0.083007813	-0.760498047	883.94	-43.55318413	-69.39112355	55.83287924	-69
61297	0	0.370910645	-0.096496582	0.098815918	0.999999046	0.000263214	-0.000235558	-0.000217438	9.272766113	-2.412414551	2.470397949	0.013160706	-0.011777878	-0.010871888	-0.625244141	-0.085205078	-0.757568359	883.94	-43.50606344	-69.43077457	55.8164219	-69
61298	0	0.369412422	-0.095428467	0.101071358	0.999999046	0.000701904	-0.000400543	-0.000134468	9.235310555	-2.38571167	2.526783943	0.035095219	-0.020027163	-0.006723405	-0.627441406	-0.085205078	-0.757568359	883.94	-43.46157476	-69.47760398	55.85459614	-69
61299	0	0.370727539	-0.094177246	0.098510742	0.999999046	0.00056839	-0.000227928	-0.000389099	9.268188477	-2.354431152	2.462768555	0.028419497	-0.011396409	-0.019454958	-0.627441406	-0.085205078	-0.754638672	883.98	-43.33927275	-69.5302735	55.79201642	-70
61300	0	0.369745255	-0.093230247	0.097287178	0.999999046	-0.000229836	-0.00015831	-0.000320435	9.243631363	-2.330756187	2.432179451	-0.011491776	-0.007915497	-0.016021729	-0.627441406	-0.087402344	-0.757324219	883.88	-43.30888754	-69.57189088	55.7323328	-69
61301	0	0.369689941	-0.095336914	0.098876953	0.999999046	-0.000434875	-0.000277519	-0.00019455	9.242248535	-2.383422852	2.471923828	-0.021743776	-0.013875962	-0.009727479	-0.627441406	-0.087402344	-0.757324219	884	-43.35547297	-69.61358478	55.73004363	-69
61302	0	0.371917725	-0.094913483	0.099502563	0.999999046	-0.00053978	-6.48E-05	-0.000526428	9.297943115	-2.372837067	2.487564087	-0.026988986	-0.003242493	-0.026321414	-0.629882813	-0.085205078	-0.760253906	884.06	-43.29451806	-69.66369581	55.59568635	-70
61303	0	0.368896484	-0.096374512	0.098937988	0.999999046	-4.96E-05	-8.30E-05	-0.000675201	9.222412109	-2.409362793	2.473449707	-0.002479553	-0.004148484	-0.033760073	-0.627441406	-0.087402344	-0.754638672	883.92	-43.14732249	-69.72686217	55.43421143	-70
61304	0	0.368591309	-0.094055176	0.097900391	0.999999046	-0.000288963	-0.000118256	-0.000202179	9.214782715	-2.351379395	2.447509766	-0.014448166	-0.005912781	-0.010108948	-0.627441406	-0.085205078	-0.760498047	883.98	-43.14179199	-69.75587149	55.38618573	-69
61305	0	0.369915009	-0.09365654	0.098103523	0.999998093	-0.000412941	-4.01E-05	-0.000250816	9.247875214	-2.341413498	2.452588081	-0.02064705	-0.002002716	-0.012540818	-0.629638672	-0.087158203	-0.757324219	884	-43.12285024	-69.7822047	55.31721414	-70
61306	0	0.371048927	-0.094222069	0.099104881	0.999999046	-0.000671387	-0.000177383	-2.29E-05	9.276223183	-2.35555172	2.477622032	-0.033569339	-0.008869172	-0.001144409	-0.627441406	-0.085205078	-0.757568359	884.04	-43.21458448	-69.80217408	55.33055077	-69
61307	0	0.370422363	-0.09564209	0.099487305	0.999999046	2.29E-05	-0.000105858	-0.000171661	9.260559082	-2.391052246	2.487182617	0.001144409	-0.005292892	-0.008583069	-0.629882813	-0.084960938	-0.754638672	883.92	-43.17790457	-69.82776945	55.29424691	-70
61308	0	0.369986534	-0.093985558	0.09770298	0.999999046	-8.11E-05	-3.24E-05	-0.000392914	9.249663353	-2.349638939	2.442574501	-0.004053116	-0.001621246	-0.019645691	-0.629882813	-0.084960938	-0.754638672	883.98	-43.08709062	-69.86457735	55.18673623	-70
61309	0	0.368469238	-0.09375	0.097900391	0.999999046	0.000385284	-0.000182152	-2.67E-05	9.211730957	-2.34375	2.447509766	0.019264222	-0.00910759	-0.001335144	-0.629882813	-0.087158203	-0.754394531	884.04	-43.05836198	-69.88521534	55.20533809	-70
61310	0	0.370218277	-0.092189789	0.098506927	0.999999046	-0.000343323	-7.63E-06	5.34E-05	9.255456924	-2.30474472	2.462673187	-0.017166138	-0.00038147	0.002670288	-0.629882813	-0.087158203	-0.754394531	884	-43.09408884	-69.88502364	55.20483223	-70
61311	0	0.371032715	-0.091369629	0.096679688	0.999999046	-0.000286102	8.49E-05	-0.000320435	9.275817871	-2.284240723	2.416992188	-0.014305115	0.004243851	-0.016021729	-0.629882813	-0.085205078	-0.760253906	884.04	-43.01799991	-69.90648389	55.08441909	-70
61312	0	0.369366646	-0.09338665	0.098457336	0.999999046	-0.000277519	-0.000146866	-0.000149727	9.234166145	-2.334666252	2.461433411	-0.013875962	-0.007343292	-0.007486344	-0.629638672	-0.087158203	-0.757324219	884.04	-43.02951851	-69.93397274	55.06453133	-70
61313	0	0.370605469	-0.092712402	0.099731445	0.999999046	-0.000350952	-1.81E-05	-3.05E-05	9.265136719	-2.317810059	2.493286133	-0.017547608	-0.000905991	-0.001525879	-0.627441406	-0.087402344	-0.757324219	883.94	-43.04909984	-69.94133159	55.0442268	-69
61314	0	0.367807388	-0.095080376	0.100626945	0.999999046	-0.000917435	-3.05E-05	-0.000106812	9.195184708	-2.377009392	2.515673637	-0.045871741	-0.001525879	-0.005340577	-0.629882813	-0.087158203	-0.754394531	884.12	-43.1188011	-69.9555225	55.01390859	-69
61315	0	0.366333008	-0.094116211	0.101013184	0.999999046	-0.000644684	-0.000128746	-3.81E-05	9.158325195	-2.352905273	2.52532959	-0.032234194	-0.006437302	-0.001907349	-0.629882813	-0.084960938	-0.754638672	884	-43.1939959	-69.97236812	55.0194998	-69
61316	0	0.365084648	-0.09763813	0.101646423	0.999999046	-0.000252724	-0.000102997	-0.000523567	9.127116203	-2.440953255	2.541160583	-0.012636185	-0.005149842	-0.026178362	-0.629882813	-0.084960938	-0.757324219	883.98	-43.10740829	-70.02475202	54.89813452	-69
61317	0	0.367492676	-0.099304199	0.098693848	0.999999046	-0.000778198	-0.000330925	-0.000911713	9.187316895	-2.48260498	2.467346191	-0.038909922	-0.016546254	-0.045585644	-0.629882813	-0.085205078	-0.760253906	884	-43.04060593	-70.12626352	54.73195198	-69
61318	0	0.371477127	-0.10532093	0.1045084	0.999997139	-0.001667023	-0.000612259	-0.000972748	9.286928177	-2.633023262	2.612709999	-0.083351192	-0.030612966	-0.048637423	-0.627685547	-0.083007813	-0.7578125	884.04	-43.1224067	-70.25548021	54.61278836	-69
61319	0	0.363647461	-0.109802246	0.110900879	0.999998093	-0.001223564	-0.001026154	-0.000709534	9.091186523	-2.745056152	2.772521973	-0.061178239	-0.051307704	-0.035476703	-0.629882813	-0.084960938	-0.751708984	884	-43.30625154	-70.3975454	54.66595893	-69
61320	0	0.3624506	-0.110482216	0.113182068	0.999998093	0.000795364	-0.00124073	-0.001112938	9.061264992	-2.762055397	2.829551697	0.039768242	-0.06203655	-0.055646928	-0.629882813	-0.082763672	-0.754882813	884	-43.21228027	-70.58788039	54.6551704	-70
61321	0	0.360595703	-0.110046387	0.110168457	0.999998093	0.000569344	-0.001415253	-0.001087189	9.014892578	-2.751159668	2.754211426	0.028467195	-0.070762676	-0.054359468	-0.632080078	-0.084960938	-0.757324219	884.04	-43.18937363	-70.78952097	54.68976036	-70
61322	0	0.364993095	-0.112243652	0.108103752	0.999997139	0.001232147	-0.001586914	-0.001164436	9.124827385	-2.806091309	2.702593803	0.061607416	-0.079345774	-0.058221869	-0.636962891	-0.086914063	-0.751220703	884.06	-43.11170111	-71.01036411	54.74826167	-72
61323	0	0.364196777	-0.101196289	0.109130859	0.999997139	0.000110626	-0.001460075	-0.001609802	9.104919434	-2.529907227	2.728271484	0.005531315	-0.073003827	-0.080490176	-0.63671875	-0.091308594	-0.745117188	883.98	-43.0239431	-71.25452361	54.66654627	-72
61324	0	0.360505104	-0.094518661	0.11456871	0.999987602	-0.004096031	-0.000862122	-0.002477646	9.012627602	-2.362966537	2.864217758	-0.204802367	-0.043106249	-0.123882782	-0.639160156	-0.093505859	-0.744873047	884.06	-43.06061667	-71.51544374	54.22000785	-72
61325	0	0.362304688	-0.096862793	0.132568359	0.999962807	-0.007606506	0.000542641	-0.003868103	9.057617188	-2.421569824	3.314208984	-0.380329952	0.027132365	-0.193407508	-0.639160156	-0.089111328	-0.748046875	884.04	-42.80674247	-71.76500236	53.04918134	-75
61326	0	0.362936974	-0.108251572	0.133994102	0.999938011	-0.009811401	0.003349304	-0.003649712	9.073424339	-2.706289291	3.349852562	-0.490579946	0.167468582	-0.182489255	-0.639648438	-0.080322266	-0.748779297	884.06	-42.1872884	-71.75541477	51.23796159	-71
61327	0	0.367675781	-0.111328125	0.15057373	0.999913216	-0.01096344	0.005955696	-0.004207611	9.191894531	-2.783203125	3.764343262	-0.548187838	0.297793411	-0.210386634	-0.635009766	-0.073974609	-0.758056641	884.06	-40.9673685	-71.55274004	48.66799741	-75
61328	0	0.366131783	-0.114135742	0.175028801	0.999869347	-0.012104988	0.010091782	-0.003388405	9.153294563	-2.853393555	4.375720024	-0.605275621	0.504610937	-0.169427581	-0.618896484	-0.059326172	-0.771484375	883.94	-39.2642513	-70.90231041	45.44294463	-87
61329	0	0.34942627	-0.11541748	0.188842773	0.999836922	-0.012325287	0.012803078	-0.002952576	8.735656738	-2.885437012	4.721069336	-0.616297683	0.640188517	-0.147636771	-0.603027344	-0.044433594	-0.78515625	883.98	-37.34880814	-69.93982079	41.95638669	-73
61330	0	0.353582382	-0.133119583	0.207036972	0.999880791	-0.001844406	0.0147686	-0.004073143	8.839559555	-3.327989578	5.175924301	-0.092223966	0.73845933	-0.203665233	-0.58203125	-0.032226563	-0.801513672	884	-33.91109402	-68.80966956	38.07237933	-70
61331	0	0.352233887	-0.115661621	0.205566406	0.999781609	0.008079529	0.018040657	-0.006664276	8.805847168	-2.891540527	5.139160156	0.404005745	0.902098286	-0.333237978	-0.555664063	-0.039794922	-0.813720703	883.98	-28.67087575	-67.40814175	33.41103965	-77
61332	0	0.343261719	-0.104739189	0.201131821	0.999752045	0.003816605	0.019942284	-0.009102821	8.581542969	-2.618479729	5.028295517	0.190845982	0.997196482	-0.455178634	-0.523925781	-0.060791016	-0.836669922	884.12	-23.72913592	-65.78265394	28.50575526	-66
61333	0	0.344726563	-0.121948242	0.205200195	0.999695778	0.005516052	0.021714211	-0.010276794	8.618164063	-3.048706055	5.130004883	0.275830547	1.085820492	-0.513891766	-0.489990234	-0.075195313	-0.857421875	884.04	-18.84232215	-63.85273601	23.7954516	-76
61334	0	0.331033707	-0.116548538	0.190698624	0.999653816	0.008337021	0.022233963	-0.011324883	8.275842667	-2.913713455	4.767465591	0.416899143	1.111826426	-0.566309463	-0.451416016	-0.096435547	-0.875	883.98	-14.07370433	-61.736716	19.48932083	-67
61335	0	0.317993164	-0.108642578	0.186218262	0.999652863	0.007992744	0.021923065	-0.012187958	7.949829102	-2.716064453	4.655456543	0.399683398	1.096279914	-0.609468301	-0.41015625	-0.117675781	-0.895507813	884.06	-9.82828974	-59.52798211	15.63747278	-75
61336	0	0.305033684	-0.109454155	0.190131187	0.999693871	0.005570412	0.021099091	-0.011593819	7.625842094	-2.736353874	4.753279686	0.278548937	1.055061921	-0.579749944	-0.368896484	-0.143310547	-0.909912109	884	-6.526071191	-57.28446283	12.49937266	-79
61337	0	0.283691406	-0.123840332	0.191650391	0.999702454	0.006810188	0.020370483	-0.011520386	7.092285156	-3.096008301	4.791259766	0.340543137	1.01862504	-0.576076334	-0.325683594	-0.16015625	-0.925048828	884.04	-3.522763577	-55.03661704	9.795744606	-68
61338	0	0.269925117	-0.11478138	0.18837738	0.999619484	0.014148712	0.020130157	-0.012422562	6.748127937	-2.869534492	4.709434509	0.707525215	1.006635363	-0.621206757	-0.286865234	-0.18359375	-0.939697266	884.04	0.09182113	-52.73715869	7.258722358	-89
61339	0	0.246826172	-0.097961426	0.193115234	0.999685287	0.010338783	0.0194664	-0.011974335	6.170654297	-2.449035645	4.827880859	0.51699339	0.973422108	-0.598779541	-0.248046875	-0.215576172	-0.938964844	884.06	2.875087345	-50.43720683	5.177397464	-73
61340	0	0.233938217	-0.089226723	0.212648392	0.99974823	0.004110336	0.019312859	-0.0106287	5.848455429	-2.230668068	5.316209793	0.205534043	0.965723876	-0.531479562	-0.20703125	-0.239013672	-0.947998047	884.04	4.527973849	-48.11697649	3.620058425	-72
61341	0	0.218017578	-0.101379395	0.224487305	0.999702454	0.000699043	0.022792816	-0.008617401	5.450439453	-2.534484863	5.612182617	0.034955626	1.139753712	-0.430912742	-0.164306641	-0.247070313	-0.958251953	884.06	5.345583158	-45.39757856	2.626428317	-70
61342	0	0.173541069	-0.075482368	0.259109497	0.999693871	0.004142761	0.022975922	-0.00812912	4.338526726	-1.887059212	6.477737427	0.207159166	1.148913126	-0.406497405	-0.114746094	-0.250976563	-0.966308594	884.04	6.383338739	-42.64974378	1.805859322	-72
61343	0	0.162231445	-0.046936035	0.294799805	0.999567032	0.011113167	0.024852753	-0.01108551	4.055786133	-1.173400879	7.369995117	0.555738391	1.242816654	-0.554355364	-0.066894531	-0.267822266	-0.970458984	883.94	8.364428873	-39.6263641	0.688618067	-68
61344	0	0.135491371	-0.015087128	0.313586235	0.999408722	0.004266739	0.031321526	-0.013476372	3.387284279	-0.377178192	7.839655876	0.213378954	1.566384661	-0.673951273	-0.009765625	-0.289550781	-0.96875	884.04	9.528138538	-35.80113148	-0.381393245	-70
61345	0	0.090942383	-0.028503418	0.295349121	0.998913765	0.002357483	0.042031288	-0.01997757	2.27355957	-0.712585449	7.383728027	0.117916844	2.102325669	-0.999240308	0.062988281	-0.291992188	-0.961181641	884.06	10.64820184	-30.61460591	-1.899042025	-72
61346	0	0.082807541	0.012365341	0.205956459	0.998180389	-0.011679649	0.053782463	-0.02460289	2.070188522	0.30913353	5.148911476	-0.584336772	2.690754656	-1.230890835	0.166015625	-0.291015625	-0.961181641	883.98	10.09659678	-23.99913952	-3.430241156	-82
61347	0	0.110595703	-0.081298828	0.112365723	0.997595787	0.000961304	0.063088417	-0.028640747	2.764892578	-2.032470703	2.809143066	0.048103732	3.156950576	-1.433185792	0.286132813	-0.253417969	-0.945068359	883.94	10.83644925	-16.25262436	-5.302777198	-79
61348	0	0.255279541	-0.02925396	0.03303051	0.996072769	0.044870377	0.064740181	-0.040413857	6.381988525	-0.731348991	0.825762749	2.246459969	3.241252603	-2.023341851	0.421630859	-0.264160156	-0.888671875	884.12	16.51118098	-7.9224964	-8.250276599	-65
61349	0	0.344604492	-0.071716309	-0.147033691	0.994656563	0.051425934	0.06184864	-0.064704895	8.615112305	-1.792907715	-3.675842285	2.575885614	3.097951	-3.241018603	0.562744141	-0.307617188	-0.804199219	884.04	22.62815206	1.251863826	-12.85577306	-67
61350	0	0.150510788	-0.401992798	-0.329774857	0.994328499	0.083683014	0.035015106	-0.055497169	3.762769699	-10.04981995	-8.244371414	4.192077417	1.754072052	-2.780115343	0.692626953	-0.311279297	-0.702148438	884.04	31.86649855	7.720439793	-16.88580344	-79
61351	0	-0.40612793	-0.342041016	-0.073486328	0.993282318	0.109654427	-0.012634277	0.034721375	-10.15319824	-8.551025391	-1.837158203	5.495030599	-0.633132129	1.739966377	0.764160156	-0.385253906	-0.597167969	883.98	44.69172776	4.126856442	-17.27734217	-66
61352	0	0.039123535	5.02734375	1.409362793	0.920048714	0.379311562	0.005947113	0.09796524	0.978088379	125.6835938	35.23406982	19.48775541	0.305542715	5.033125373	0.673095703	-0.733398438	-0.320556641	884.1	89.55333565	-5.981750345	-16.70279529	-76
61353	0	-0.031840324	0.895263672	-0.190991402	0.993677139	-0.100140572	0.015773773	-0.048218727	-0.79600811	22.3815918	-4.774785042	-5.017605091	0.790354633	-2.416029056	0.595214844	-0.852539063	0.122558594	884.04	77.98855579	-0.263587849	7.361325954	-77
61354	0	0.098992348	0.080289841	-0.540680885	0.868912697	-0.489299774	0.003404617	-0.074602127	2.474808693	2.007246017	-13.51702213	-25.59340639	0.178082556	-3.902152948	0.691650391	-0.733886719	-0.304199219	884.1	18.98414688	6.418348236	11.9682452	-76
61355	0	0.200805664	-0.795959473	-0.055358887	0.985619545	-0.164951324	0.019013405	-0.031349182	5.020141602	-19.89898682	-1.383972168	-8.28732837	0.955253496	-1.575015947	0.76171875	-0.112060547	-0.713867188	884.06	-0.542894721	9.054750884	4.764871279	-79
61356	0	-0.0974226	-0.267896652	-0.180467606	0.985634804	0.168192863	-0.008098602	-0.012918472	-2.435564995	-6.697416306	-4.51169014	8.450140806	-0.406880104	-0.649034136	0.784423828	-0.049072266	-0.694580078	884.1	18.32950181	8.379597573	1.500715246	-75
61357	0	-0.144592285	0.065185547	-0.069946289	0.998069763	0.051125526	-0.030685425	0.017311096	-3.614807129	1.629638672	-1.748657227	2.557921623	-1.535258746	0.866111908	0.765136719	-0.267578125	-0.672607422	884.04	24.11634067	4.433600981	1.983971817	-79
61358	0	-0.128824234	0.034351349	0.541151047	0.997650146	0.031447411	-0.045809746	0.040060997	-3.22060585	0.858783722	13.52877617	1.57360282	-2.292282379	2.004619671	0.707275391	-0.320800781	-0.7109375	884.12	27.53165218	-2.184134711	3.759080314	-81
61359	0	0.277099609	0.85736084	0.883300781	0.992090225	0.118226051	-0.02148056	0.036300659	6.927490234	21.434021	22.08251953	5.926937303	-1.0768687	1.819833519	0.599121094	-0.477294922	-0.720703125	884.12	40.98630629	-6.544909743	5.746785335	-77
61360	0	0.105666161	0.70395565	-0.066761017	0.999966621	0.007899284	-0.000276566	-0.001940727	2.641654015	17.59889126	-1.669025421	0.394968579	-0.01382843	-0.097037433	0.566650391	-0.646240234	-0.607666016	884.06	42.29538898	-6.550304809	5.61348973	-79
61361	0	0.043212891	0.265625	0.172180176	0.996183395	-0.085776329	0.009197235	-0.013214111	1.080322266	6.640625	4.304504395	-4.294279694	0.460447543	-0.661547196	0.583740234	-0.592285156	-0.64453125	884.1	32.98348212	-4.801082691	5.110095033	-83
61362	0	0.042380333	0.127885818	0.314602852	0.998648643	-0.051712036	0.003896713	-0.003361702	1.059508324	3.197145462	7.865071297	-2.586767011	0.194923466	-0.168160846	0.603027344	-0.457519531	-0.722412109	884.1	27.43034271	-4.333707919	4.958392369	-75
61363	0	-0.000244141	0.1953125	0.288391113	0.999920845	-0.010749817	-0.004508018	0.004570007	-0.006103516	4.8828125	7.209777832	-0.537504889	-0.225406814	0.228506337	0.606201172	-0.409667969	-0.755126953	884.12	26.5487151	-5.156599789	5.118657934	-69
61364	0	0.060803413	0.17479229	0.403294563	0.999735832	-0.021729469	-0.003976822	0.006323814	1.520085335	4.369807243	10.08236408	-1.086569093	-0.198858596	0.31621855	0.594238281	-0.3984375	-0.766845703	884.06	24.34133253	-5.974909252	5.534048586	-67
61365	0	0.034973145	0.109375	0.410827637	0.999734879	-0.022646904	0.003887177	-0.000488281	0.874328613	2.734375	10.27069092	-1.132444913	0.194375941	-0.024416212	0.588378906	-0.365478516	-0.786376953	884.1	21.96246158	-5.620186003	5.623181559	-66
61366	0	0.049002647	0.062078476	0.378590584	0.999992371	-0.003407478	0.001627922	-1.91E-05	1.225066185	1.551961899	9.464764595	-0.170374322	0.081396296	-0.000953677	0.596679688	-0.333007813	-0.795410156	884.1	21.67777062	-5.546888804	5.652450166	-66
61367	0	0.032897949	0.061584473	0.407165527	0.999933243	0.011231422	0.001392365	-0.002254486	0.82244873	1.539611816	10.17913818	0.561583586	0.06961977	-0.112726806	0.596679688	-0.337402344	-0.791992188	884.12	22.98376593	-5.37328552	5.451290471	-66
61368	0	0.02708149	0.141858101	0.373878479	0.999791145	0.020350456	1.14E-05	-0.001617432	0.677037239	3.546452522	9.346961975	1.017593502	0.000572244	-0.0808772	0.601806641	-0.354980469	-0.776611328	884.06	25.3186547	-5.340553737	5.265250057	-66
61369	0	0.031433105	0.195922852	0.335693359	0.999819756	0.018920898	-0.001086235	0.000389099	0.785827637	4.898071289	8.392333984	0.946101588	-0.054315006	0.019456121	0.603027344	-0.387695313	-0.765380859	884.06	27.51625125	-5.501064559	5.236462034	-66
61370	0	0.044454575	0.223236084	0.349128723	0.99993515	0.011317253	-0.000294685	-0.000385284	1.111364365	5.5809021	8.728218079	0.565874758	-0.014734583	-0.019264633	0.6015625	-0.413818359	-0.751708984	884	28.88369558	-5.538370485	5.170947237	-66
61371	0	0.038269043	0.216369629	0.330566406	0.999977112	0.006573677	0.000244141	-0.001579285	0.956726074	5.409240723	8.264160156	0.32868636	0.012207124	-0.078964836	0.602050781	-0.427001953	-0.7421875	884.06	29.73891486	-5.448612494	5.014631318	-66
61372	0	0.02902317	0.231537819	0.323475838	0.999999046	9.54E-07	-0.000606537	0.000152588	0.725579262	5.788445473	8.086895943	4.77E-05	-0.030326845	0.007629395	0.602050781	-0.431396484	-0.741699219	884.06	29.85874581	-5.527639225	4.980449426	-66
61373	0	0.036254883	0.224365234	0.327880859	0.999966621	-0.007740021	-0.001097679	0.00226593	0.90637207	5.609130859	8.197021484	-0.387005311	-0.054884563	0.11329776	0.602050781	-0.431396484	-0.741699219	884.1	29.0888064	-5.769365931	5.13147655	-66
61374	0	0.04809761	0.191129684	0.352385521	0.999948502	-0.009932518	-0.0002985	0.001603127	1.202440262	4.778242111	8.809638023	-0.496634287	-0.014925255	0.08015768	0.599365234	-0.418212891	-0.751220703	884.1	28.0453119	-5.899396149	5.26092656	-66
61375	0	0.04473877	0.176452637	0.355895996	0.99998951	-0.004417419	0.001152992	-0.000228882	1.118469238	4.411315918	8.897399902	-0.220871741	0.057649813	-0.011444132	0.598876953	-0.405029297	-0.755126953	884.12	27.61734864	-5.785091259	5.282070861	-66
61376	0	0.034692764	0.169509888	0.353154182	0.999999046	-4.48E-05	0.000566483	-0.000688553	0.867319107	4.237747192	8.828854561	-0.002241135	0.028324131	-0.034427647	0.601318359	-0.400878906	-0.761474609	884.16	27.67359999	-5.698440119	5.225836249	-66
61377	0	0.037231445	0.185058594	0.350524902	0.999988556	0.004666328	4.96E-05	-0.000350952	0.930786133	4.626464844	8.763122559	0.233317273	0.002479562	-0.017547671	0.603515625	-0.403076172	-0.752685547	884.1	28.26143261	-5.677233132	5.178795017	-66
61378	0	0.036079407	0.202868462	0.341753006	0.999996185	0.00257206	-0.00039959	6.68E-05	0.901985168	5.07171154	8.54382515	0.128603127	-0.0199795	0.003337864	0.6015625	-0.409423828	-0.754882813	884.1	28.61448359	-5.719113048	5.150432895	-66
61379	0	0.039123535	0.199035645	0.345336914	0.999999046	0.000297546	-0.00052166	0.000213623	0.978088379	4.975891113	8.633422852	0.01487732	-0.026082994	0.010681153	0.601318359	-0.409423828	-0.752197266	884.12	28.70526808	-5.779768206	5.130755987	-66
61380	0	0.0388937	0.197574615	0.342493057	0.999999046	-0.000716209	-0.00031662	0.000244141	0.972342491	4.939365387	8.562326431	-0.035810475	-0.015830995	0.012207033	0.6015625	-0.411621094	-0.751953125	884.2	28.67699643	-5.81992569	5.126665421	-66
61381	0	0.040771484	0.190795898	0.348083496	0.999999046	-0.001029968	-0.000300407	0.000179291	1.019287109	4.769897461	8.702087402	-0.051498423	-0.015020373	0.00896454	0.601318359	-0.409423828	-0.752197266	884.06	28.6054216	-5.855000335	5.116957444	-66
61382	0	0.038606644	0.189641953	0.346193314	0.999999046	0.001308441	0.00034523	-0.000191689	0.965166092	4.741048813	8.65483284	0.065422078	0.017261511	-0.00958443	0.603759766	-0.409667969	-0.755126953	884.06	28.79553057	-5.803341152	5.1047868	-66
61383	0	0.038146973	0.196350098	0.342163086	0.999999046	0.000198364	8.49E-05	-6.10E-05	0.953674316	4.908752441	8.554077148	0.009918213	0.004243851	-0.003051758	0.6015625	-0.411621094	-0.754882813	884.04	28.85761612	-5.783464902	5.09279742	-66
61384	0	0.037210464	0.195148468	0.34587574	0.999999046	0.000395775	-0.00012207	0.000156403	0.930261612	4.8787117	8.646893501	0.019788743	-0.006103516	0.00782013	0.601318359	-0.409423828	-0.749267578	884.06	28.93812102	-5.794555869	5.091566547	-66
61385	0	0.039489746	0.19720459	0.34375	0.999999046	-0.000579834	-6.01E-05	9.16E-05	0.987243652	4.930114746	8.59375	-0.028991701	-0.003004074	0.004577637	0.6015625	-0.409667969	-0.7578125	884.12	28.90583512	-5.795891054	5.086433832	-66
61386	0	0.037979126	0.188306808	0.350250244	0.999999046	-0.000356674	-0.000240326	4.48E-05	0.949478149	4.707670212	8.756256104	-0.01783371	-0.012016297	0.002241135	0.599121094	-0.409423828	-0.754882813	884.12	28.89281986	-5.811569464	5.068484704	-66
61387	0	0.038146973	0.192260742	0.345031738	0.999999046	0.001235962	-0.000201225	7.25E-05	0.953674316	4.806518555	8.625793457	0.061798112	-0.010061267	0.003623963	0.6015625	-0.409667969	-0.7578125	884.1	29.05882337	-5.824280832	5.054677857	-66
61388	0	0.039474487	0.199576378	0.344279289	0.999999046	0.000584602	-0.000171661	0.000225067	0.986862183	4.989409447	8.606982231	0.02923012	-0.008583069	0.011253358	0.6015625	-0.411621094	-0.754882813	884.1	29.14905525	-5.842441994	5.058884668	-66
61389	0	0.040161133	0.198181152	0.34552002	0.999999046	-0.001083374	-1.81E-05	0.000217438	1.00402832	4.954528809	8.638000488	-0.054168712	-0.000905991	0.010871889	0.6015625	-0.411621094	-0.751953125	884.12	29.04642208	-5.845074177	5.071752683	-66
61390	0	0.039157867	0.189229012	0.349164009	0.999999046	-0.000490189	-3.43E-05	-5.05E-05	0.978946686	4.730725288	8.729100227	-0.024509431	-0.001716614	-0.002527237	0.6015625	-0.411621094	-0.754882813	884.04	29.00913778	-5.83426659	5.056614163	-66
61391	0	0.03894043	0.193908691	0.345336914	0.999999046	0.000545502	-0.000224113	0.00018692	0.973510742	4.847717285	8.633422852	0.027275087	-0.011205674	0.009346009	0.599121094	-0.409423828	-0.754882813	884.06	29.08764306	-5.855559763	5.054115287	-66
61392	0	0.039351463	0.194394112	0.346938133	0.999999046	0.000315666	-0.000112534	8.30E-05	0.983786583	4.859852791	8.673453331	0.01578331	-0.005626679	0.004148483	0.599121094	-0.411621094	-0.751708984	884.04	29.13846152	-5.859760311	5.048645111	-66
61393	0	0.038574219	0.196228027	0.342956543	0.999999046	0.000198364	-6.01E-05	-3.05E-05	0.964355469	4.905700684	8.573913574	0.009918213	-0.003004074	-0.001525879	0.6015625	-0.411865234	-0.757568359	883.98	29.17662467	-5.852117325	5.033696272	-66
61394	0	0.037871361	0.194291115	0.344339371	0.999999046	-0.000335693	-0.00015831	5.34E-05	0.946784019	4.85727787	8.608484268	-0.016784668	-0.007915497	0.002670288	0.6015625	-0.413818359	-0.754638672	884.06	29.15200869	-5.858418147	5.023029265	-66
61395	0	0.039733887	0.193969727	0.347961426	0.999999046	3.81E-05	-9.82E-05	9.16E-05	0.993347168	4.849243164	8.699035645	0.001907349	-0.004911423	0.004577637	0.599121094	-0.409423828	-0.754882813	884.1	29.16758811	-5.861084992	5.01849937	-66
61396	0	0.039105415	0.194782257	0.344520569	0.999999046	0.000285149	-6.68E-05	-5.44E-05	0.977635384	4.869556427	8.613014221	0.014257431	-0.00333786	-0.002717972	0.599121094	-0.409423828	-0.751953125	884.06	29.21205737	-5.852462425	5.001741405	-66
61397	0	0.037597656	0.194885254	0.344543457	0.999999046	-5.34E-05	-6.39E-05	1.14E-05	0.939941406	4.872131348	8.613586426	-0.002670288	-0.003194809	0.000572205	0.599121094	-0.411621094	-0.749023438	884.12	29.21629354	-5.846688004	4.992618688	-66
61398	0	0.040270805	0.193687439	0.34614563	0.999999046	0.000301361	-6.68E-05	9.06E-05	1.006770134	4.842185974	8.653640747	0.015068054	-0.00333786	0.004529953	0.599121094	-0.411621094	-0.754638672	884	29.25903326	-5.846208871	4.99028018	-66
61399	0	0.038269043	0.196411133	0.344116211	0.999999046	-0.000137329	-2.19E-05	6.48E-05	0.956726074	4.91027832	8.602905273	-0.006866455	-0.001096725	0.003242493	0.601318359	-0.409423828	-0.749267578	884.16	29.25143911	-5.8395814	4.988288332	-66
61400	0	0.038736343	0.193441391	0.346913338	0.999999046	-7.15E-05	0.000116348	3.05E-05	0.968408585	4.836034775	8.672833443	-0.003576279	0.005817413	0.001525879	0.599121094	-0.411621094	-0.751708984	884.12	29.2494925	-5.817175727	4.990961443	-66
61401	0	0.038452148	0.194824219	0.346008301	0.999999046	0.000144958	-5.63E-05	8.77E-05	0.961303711	4.870605469	8.65020752	0.007247925	-0.002813339	0.004386902	0.599121094	-0.411621094	-0.754638672	884	29.27205495	-5.815188797	4.989301034	-66
61402	0	0.038891792	0.194978714	0.346862793	0.999999046	-1.34E-05	-9.92E-05	0.000110626	0.972294807	4.87446785	8.671569824	-0.000667572	-0.004959106	0.005531311	0.599121094	-0.409423828	-0.754882813	884.06	29.275724	-5.818864531	4.987365007	-66
61403	0	0.037902832	0.194030762	0.345947266	0.999999046	6.87E-05	-9.82E-05	1.91E-05	0.947570801	4.850769043	8.648681641	0.003433228	-0.004911423	0.000953674	0.6015625	-0.409423828	-0.754882813	884.04	29.28891386	-5.817119608	4.97661815	-66
61404	0	0.038588524	0.194869041	0.344202995	0.999999046	-8.68E-05	2.29E-05	0.000106812	0.964713097	4.871726036	8.605074883	-0.004339218	0.001144409	0.005340576	0.599121094	-0.411621094	-0.749023438	884.1	29.28244935	-5.80826922	4.98259004	-66
61405	0	0.039550781	0.193481445	0.345703125	0.999999046	-0.000350952	-5.63E-05	1.14E-05	0.988769531	4.837036133	8.642578125	-0.017547608	-0.002813339	0.000572205	0.6015625	-0.411621094	-0.751953125	884.06	29.24634728	-5.802364958	4.973956242	-66
61406	0	0.038862228	0.192320824	0.347053528	0.999999046	0.000118256	-8.96E-05	0.000136375	0.97155571	4.808020592	8.676338196	0.005912781	-0.004482269	0.006818771	0.6015625	-0.409423828	-0.754882813	884.12	29.26183493	-5.806932735	4.975390951	-66
61407	0	0.038513184	0.196044922	0.343933105	0.999999046	0.000205994	-2.86E-06	-1.91E-05	0.96282959	4.901123047	8.598327637	0.010299683	-0.000143051	-0.000953674	0.599121094	-0.411621094	-0.749023438	884.06	29.28877667	-5.794152457	4.967169017	-66
61408	0	0.038935661	0.193320274	0.346721649	0.999999046	-0.000250816	-4.96E-05	0.000164032	0.973391533	4.833006859	8.668041229	-0.012540817	-0.002479553	0.008201599	0.6015625	-0.409423828	-0.754882813	884.18	29.26100629	-5.796463775	4.973705751	-66
61409	0	0.037658691	0.195556641	0.344116211	0.999999046	-3.43E-05	-7.92E-05	0.000133514	0.941467285	4.888916016	8.602905273	-0.001716614	-0.003957748	0.00667572	0.599121094	-0.411621094	-0.754638672	884.2	29.25871541	-5.799858148	4.976155135	-66
61410	0	0.039108276	0.194789886	0.344611168	0.999999046	-0.000984192	-2.67E-05	8.01E-05	0.977706909	4.869747162	8.615279198	-0.049209603	-0.001335144	0.004005433	0.601318359	-0.409423828	-0.752197266	884.06	29.14776321	-5.795238774	4.976245023	-66
61411	0	0.039978027	0.188598633	0.349914551	0.999999046	-6.48E-05	-0.000109673	6.87E-05	0.999450684	4.71496582	8.74786377	-0.003242493	-0.005483627	0.003433228	0.598876953	-0.407226563	-0.752197266	884.1	29.14093716	-5.798665018	4.970350857	-66
61412	0	0.040019035	0.194773674	0.344742775	0.999999046	0.000384331	8.20E-05	-0.000126839	1.000475883	4.86934185	8.618569374	0.019216538	0.0041008	-0.006341934	0.599121094	-0.409423828	-0.751953125	884.12	29.1867558	-5.772368376	4.955845105	-66
61413	0	0.039001465	0.192016602	0.34753418	0.999999046	0.000339508	-1.43E-05	-3.81E-06	0.975036621	4.800415039	8.688354492	0.016975403	-0.000715256	-0.000190735	0.603759766	-0.409667969	-0.752197266	884.04	29.22604044	-5.762700991	4.948185312	-66
61414	0	0.038521767	0.195118904	0.344836235	0.999999046	0.000440598	-5.72E-06	-6.96E-05	0.963044167	4.877972603	8.620905876	0.022029877	-0.000286102	-0.003480911	0.603759766	-0.409667969	-0.7578125	884.1	29.2777401	-5.748531025	4.933924759	-66
61415	0	0.038696289	0.194641113	0.345031738	0.999999046	-0.00043869	0.000149727	-8.01E-05	0.967407227	4.866027832	8.625793457	-0.02193451	0.007486344	-0.004005432	0.6015625	-0.409667969	-0.7578125	884.1	29.22790729	-5.718335587	4.927781911	-66
61416	0	0.036913872	0.191534996	0.346369743	0.999999046	-0.000222206	6.29E-05	4.48E-05	0.922846794	4.788374901	8.659243584	-0.011110306	0.003147125	0.002241135	0.601318359	-0.407226563	-0.752197266	884.1	29.20148385	-5.703590616	4.929545219	-66
61417	0	0.038269043	0.192199707	0.344604492	0.999999046	0.000270844	-0.000132561	0.000133514	0.956726074	4.804992676	8.615112305	0.013542176	-0.006628037	0.00667572	0.6015625	-0.409667969	-0.7578125	884.06	29.23153344	-5.713487431	4.9290413	-66
61418	0	0.038229942	0.194817543	0.345647812	0.999999046	0.000112534	-4.77E-05	1.05E-05	0.955748558	4.870438576	8.641195297	0.005626678	-0.002384186	0.000524521	0.6015625	-0.409423828	-0.754882813	884.06	29.24429781	-5.708065042	4.921139976	-66
61419	0	0.038513184	0.193969727	0.34588623	0.999999046	8.39E-05	-0.000170708	0.000156403	0.96282959	4.849243164	8.647155762	0.004196167	-0.008535385	0.007820129	0.601318359	-0.409423828	-0.752197266	884.1	29.2529193	-5.723228498	4.921075693	-66
61420	0	0.038692474	0.194747925	0.345778465	0.999999046	9.82E-05	-9.73E-05	2.19E-05	0.967311859	4.86869812	8.644461632	0.004911423	-0.004863739	0.001096725	0.601318359	-0.407226563	-0.752197266	884.12	29.26415631	-5.723637132	4.911267197	-66
61421	0	0.038330078	0.192077637	0.346740723	0.999999046	-0.000164032	-5.25E-05	0.000118256	0.958251953	4.801940918	8.668518066	-0.008201599	-0.002622604	0.005912781	0.603759766	-0.407470703	-0.752441406	884.16	29.24363261	-5.725010157	4.91382743	-66
61422	0	0.03883934	0.195189476	0.34466362	0.999999046	0.000196457	-0.000108719	0.00014019	0.970983505	4.8797369	8.6165905	0.009822846	-0.005435944	0.007009506	0.6015625	-0.409667969	-0.7578125	884.04	29.26476207	-5.733379598	4.915309235	-66
61423	0	0.037902832	0.192382813	0.346496582	0.999999046	4.20E-05	4.77E-06	3.81E-05	0.947570801	4.809570313	8.662414551	0.002098083	0.000238419	0.001907349	0.6015625	-0.409667969	-0.7578125	884.04	29.26818963	-5.724644873	4.91303655	-66
61424	0	0.03736496	0.193629265	0.345808983	0.999999046	0.000189781	-0.000131607	9.54E-05	0.934123993	4.840731621	8.645224571	0.00948906	-0.006580353	0.004768372	0.601318359	-0.409423828	-0.749267578	884.12	29.28863897	-5.732632121	4.909308371	-66
61425	0	0.039123535	0.194824219	0.345275879	0.999999046	-7.63E-06	-4.86E-05	-4.58E-05	0.978088379	4.870605469	8.631896973	-0.00038147	-0.00243187	-0.002288818	0.601318359	-0.407226563	-0.749511719	884.06	29.28750803	-5.724589338	4.895618659	-66
61426	0	0.037491798	0.19366169	0.344786644	0.999999046	-0.000144958	-8.20E-05	6.48E-05	0.93729496	4.841542244	8.6196661	-0.007247925	-0.0041008	0.003242493	0.601318359	-0.407226563	-0.749511719	884.16	29.26967704	-5.726010745	4.891222787	-66
61427	0	0.038513184	0.191162109	0.346130371	0.999999046	3.43E-05	-2.86E-06	1.14E-05	0.96282959	4.779052734	8.653259277	0.001716614	-0.000143051	0.000572205	0.601318359	-0.407470703	-0.755126953	884.1	29.27201817	-5.716622291	4.8856766	-66
61428	0	0.038825035	0.194602013	0.345871925	0.999999046	0.000395775	-4.77E-05	1.81E-05	0.970625877	4.865050316	8.646798134	0.019788743	-0.002384186	0.000905991	0.601318359	-0.407470703	-0.758056641	884.1	29.31601881	-5.712208384	4.878210782	-66
61429	0	0.037658691	0.194702148	0.345031738	0.999999046	-0.00038147	-0.000124931	1.14E-05	0.941467285	4.867553711	8.625793457	-0.019073487	-0.006246567	0.000572205	0.601318359	-0.407470703	-0.755126953	884.12	29.2715333	-5.715096028	4.866141182	-66
61430	0	0.038208008	0.190612793	0.348144531	0.999999046	0.000247955	-7.63E-06	-0.000114441	0.955200195	4.765319824	8.703613281	0.012397766	-0.00038147	-0.005722046	0.601318359	-0.407470703	-0.755126953	884.04	29.29914623	-5.699233934	4.848015736	-66
61431	0	0.036865234	0.194702148	0.345458984	0.999999046	0.000411987	-0.000235558	0.00012207	0.921630859	4.867553711	8.636474609	0.020599366	-0.011777878	0.006103516	0.601318359	-0.409423828	-0.752197266	884.1	29.34457332	-5.719264331	4.841026478	-66
61432	0	0.038846016	0.194489479	0.346012115	0.999999046	6.20E-05	-0.000171661	9.92E-05	0.971150398	4.862236977	8.650302887	0.003099442	-0.008583069	0.004959106	0.603515625	-0.407470703	-0.749511719	884.16	29.34975095	-5.731747635	4.835131319	-66
61433	0	0.038391113	0.193054199	0.346313477	0.999999046	-6.48E-05	9.54E-07	5.72E-05	0.959777832	4.82635498	8.657836914	-0.003242493	4.77E-05	0.002861023	0.601318359	-0.409423828	-0.752197266	884.12	29.33963226	-5.724680171	4.834811676	-66
61434	0	0.038167953	0.192638397	0.346033096	0.999999046	0.000375748	-0.000123978	9.82E-05	0.954198837	4.81595993	8.650827408	0.018787385	-0.006198883	0.004911423	0.601318359	-0.407470703	-0.758056641	884.16	29.38008439	-5.732421766	4.831022481	-66
61435	0	0.038879395	0.195800781	0.345092773	0.999999046	-0.00019455	-2.57E-05	6.48E-05	0.971984863	4.895019531	8.627319336	-0.009727478	-0.00128746	0.003242493	0.603759766	-0.409667969	-0.755126953	884.1	29.35515722	-5.7285817	4.830025717	-66
61436	0	0.037335396	0.192059517	0.346324921	0.999999046	-0.000786781	-0.0001297	6.01E-05	0.933384895	4.801487923	8.658123016	-0.03933907	-0.006484986	0.003004074	0.603759766	-0.407470703	-0.755126953	884.12	29.26270005	-5.734775804	4.822586045	-66
61437	0	0.037719727	0.188903809	0.348083496	0.999999046	0.000362396	-7.53E-05	6.10E-05	0.942993164	4.722595215	8.702087402	0.018119812	-0.003767014	0.003051758	0.601318359	-0.407226563	-0.749511719	884.1	29.30096706	-5.735559333	4.818553103	-66
61438	0	0.039077759	0.194825172	0.345738411	0.999999046	0.000419617	-9.92E-05	0.000118256	0.97694397	4.870629311	8.643460274	0.020980836	-0.004959107	0.005912781	0.603759766	-0.409667969	-0.752197266	884.18	29.3455059	-5.742057498	4.81878391	-66
61439	0	0.039916992	0.194458008	0.346801758	0.999999046	0.000160217	4.67E-05	-7.63E-06	0.997924805	4.861450195	8.670043945	0.008010864	0.002336502	-0.00038147	0.6015625	-0.409423828	-0.754882813	884.1	29.36076303	-5.727112288	4.814413227	-66
61440	0	0.037196159	0.195362091	0.344239235	0.999999046	-0.000374794	0.000171661	4.10E-05	0.929903984	4.884052277	8.605980873	-0.018739701	0.008583069	0.0020504	0.601318359	-0.409423828	-0.749267578	884.12	29.31375549	-5.702320317	4.822314998	-66
61441	0	0.038024902	0.189086914	0.346496582	0.999999046	-0.000328064	-4.10E-05	0.000160217	0.950622559	4.727172852	8.662414551	-0.016403199	-0.0020504	0.008010864	0.601318359	-0.407470703	-0.755126953	884.06	29.27159588	-5.705497676	4.829730566	-66
61442	0	0.037688255	0.19403553	0.346193314	0.999999046	9.73E-05	-4.39E-05	2.86E-06	0.942206383	4.850888252	8.65483284	0.004863739	-0.002193451	0.000143051	0.601318359	-0.407226563	-0.752197266	884.1	29.27983476	-5.700113272	4.821420321	-66
61443	0	0.037475586	0.19128418	0.346679688	0.999999046	-0.000110626	-0.000109673	0.00012207	0.936889648	4.782104492	8.666992188	-0.005531311	-0.005483627	0.006103516	0.601318359	-0.407226563	-0.752197266	884.1	29.26319319	-5.707952859	4.821420521	-66
61444	0	0.037659645	0.192235947	0.345370293	0.999999046	9.54E-07	7.06E-05	0.000144958	0.941491127	4.805898666	8.634257317	4.77E-05	0.003528595	0.007247925	0.601318359	-0.407470703	-0.758056641	884.16	29.25805967	-5.699046564	4.833629442	-66
61445	0	0.038269043	0.191711426	0.347473145	0.999999046	0.000202179	-7.53E-05	0.000160217	0.956726074	4.792785645	8.686828613	0.010108948	-0.003767014	0.008010864	0.601318359	-0.405273438	-0.758056641	884.06	29.27645544	-5.705630657	4.839114958	-66
61446	0	0.038444519	0.195073128	0.345495224	0.999998093	0.000121117	-3.53E-05	-3.81E-05	0.961112976	4.876828194	8.6373806	0.006055832	-0.001764297	-0.001907349	0.603515625	-0.407470703	-0.749511719	884.1	29.28753797	-5.69715635	4.827561515	-66
61447	0	0.037963867	0.191345215	0.347167969	0.999999046	-0.000278473	-0.000136375	0.000133514	0.94909668	4.783630371	8.679199219	-0.013923645	-0.006818771	0.00667572	0.601318359	-0.407226563	-0.752197266	884.06	29.25145635	-5.708424117	4.827288477	-66
61448	0	0.038537979	0.191994667	0.348607063	0.999999046	0.000300407	9.54E-06	-7.72E-05	0.963449478	4.799866676	8.715176582	0.015020371	0.000476837	-0.003862381	0.601318359	-0.405273438	-0.755371094	884.22	29.28279895	-5.693349572	4.813739895	-66
61449	0	0.037902832	0.194091797	0.346923828	0.999999046	0.000293732	4.29E-05	9.16E-05	0.947570801	4.852294922	8.673095703	0.014686585	0.002145767	0.004577637	0.601318359	-0.407470703	-0.758056641	884.16	29.31156843	-5.68439808	4.819177174	-66
61450	0	0.03845787	0.193188667	0.345714569	0.999999046	0.000101089	-0.000118256	0.000167847	0.961446762	4.829716682	8.642864227	0.005054474	-0.005912781	0.008392334	0.603759766	-0.407470703	-0.752441406	884.04	29.31842327	-5.695908829	4.823442572	-66
61451	0	0.037658691	0.194030762	0.34576416	0.999999046	-3.81E-06	7.72E-05	7.63E-06	0.941467285	4.850769043	8.644104004	-0.000190735	0.003862381	0.00038147	0.603515625	-0.405273438	-0.752441406	884.06	29.31384221	-5.678878277	4.822401337	-66
61452	0	0.037597656	0.190856934	0.34753418	0.999999046	-6.01E-05	-0.000106812	9.92E-05	0.939941406	4.77142334	8.688354492	-0.003004074	-0.005340576	0.004959106	0.603759766	-0.407470703	-0.752441406	884.1	29.30266288	-5.685365649	4.820405643	-66
61453	0	0.037536621	0.194396973	0.346252441	0.999999046	4.96E-05	-0.000170708	0.00018692	0.938415527	4.859924316	8.656311035	0.002479553	-0.008535385	0.009346008	0.601318359	-0.407226563	-0.752197266	884.04	29.30364402	-5.70313475	4.823529712	-66
61454	0	0.038032532	0.191426277	0.347867966	0.999999046	0.000164032	-0.000101089	0.000151634	0.950813293	4.785656929	8.696699142	0.008201599	-0.005054474	0.007581711	0.603759766	-0.407470703	-0.755126953	884.1	29.31748865	-5.711980943	4.826900347	-66
61455	0	0.03717041	0.194580078	0.346069336	0.999999046	0.00018692	-6.39E-05	6.87E-05	0.929260254	4.864501953	8.651733398	0.009346008	-0.003194809	0.003433228	0.601318359	-0.407226563	-0.752197266	884.06	29.33470236	-5.712385005	4.824164628	-66
61456	0	0.038340569	0.193117142	0.347395897	0.999999046	-9.82E-05	-9.92E-05	0.000144958	0.958514214	4.827928543	8.684897423	-0.004911423	-0.004959106	0.007247925	0.603759766	-0.407470703	-0.752441406	884.06	29.31860948	-5.720631276	4.827094402	-66
61457	0	0.037597656	0.192749023	0.346191406	0.999999046	-1.53E-05	-0.000113487	-1.91E-05	0.939941406	4.818725586	8.654785156	-0.000762939	-0.005674362	-0.000953674	0.601318359	-0.407470703	-0.755126953	884.1	29.31371817	-5.721076707	4.812656102	-66
61458	0	0.038645744	0.191457748	0.348079681	0.999999046	9.92E-05	-0.000123978	8.68E-05	0.966143608	4.78644371	8.701992035	0.004959106	-0.006198883	0.004339218	0.603515625	-0.405273438	-0.752441406	884.1	29.32073815	-5.72856765	4.808253505	-66
61459	0	0.038146973	0.194335938	0.347167969	0.999999046	0.000217438	-6.68E-06	-3.43E-05	0.953674316	4.858398438	8.679199219	0.010871887	-0.000333786	-0.001716614	0.603759766	-0.409667969	-0.755126953	884.1	29.34192424	-5.71754286	4.798517057	-66
61460	0	0.036856651	0.193511963	0.34659481	0.999999046	-0.000166893	-6.68E-05	-3.81E-06	0.921416283	4.837799072	8.664870262	-0.00834465	-0.00333786	-0.000190735	0.603759766	-0.407470703	-0.752441406	884.1	29.31910913	-5.714141667	4.788363711	-66
61461	0	0.038146973	0.191894531	0.348388672	0.999999046	-3.81E-05	-4.10E-05	3.05E-05	0.953674316	4.797363281	8.709716797	-0.001907349	-0.0020504	0.001525879	0.601074219	-0.405029297	-0.749511719	884.06	29.31038879	-5.710114027	4.783066396	-66
61462	0	0.036905289	0.193329811	0.347728729	0.999999046	0.000112534	-0.000112534	6.77E-05	0.922632217	4.833245277	8.693218231	0.005626678	-0.005626678	0.003385544	0.603759766	-0.407470703	-0.755126953	884.06	29.31894133	-5.715235843	4.777415902	-66
61463	0	0.036621094	0.192687988	0.346130371	0.999999046	-0.000183105	-9.06E-05	8.39E-05	0.915527344	4.817199707	8.653259277	-0.009155274	-0.004529953	0.004196167	0.599121094	-0.407226563	-0.754882813	884.1	29.29332272	-5.718985873	4.774703374	-66
61464	0	0.039096832	0.193163872	0.348451614	0.999999046	0.000155449	-0.000120163	9.82E-05	0.977420807	4.829096794	8.711290359	0.007772446	-0.006008148	0.004911423	0.601318359	-0.407470703	-0.755126953	884.04	29.30647136	-5.726586086	4.771748942	-66
61465	0	0.037902832	0.192565918	0.346801758	0.999999046	2.29E-05	-2.57E-05	0.000144958	0.947570801	4.814147949	8.670043945	0.001144409	-0.00128746	0.007247925	0.603759766	-0.407470703	-0.752441406	884	29.3033984	-5.727375708	4.77890231	-66
61466	0	0.037426949	0.1918993	0.34709549	0.999999046	0.000196457	-1.72E-05	0.000128746	0.935673714	4.797482491	8.677387238	0.009822846	-0.000858307	0.006437302	0.601318359	-0.409423828	-0.752197266	884.1	29.32024414	-5.726365174	4.784984559	-66
61467	0	0.037841797	0.194213867	0.346374512	0.999999046	0.000183105	-0.000155449	3.81E-06	0.946044922	4.85534668	8.659362793	0.009155274	-0.007772446	0.000190735	0.603759766	-0.407470703	-0.755126953	884.2	29.33768573	-5.73215588	4.770381424	-66
61468	0	0.037658691	0.192687988	0.346435547	0.999999046	3.15E-05	-6.10E-05	3.81E-06	0.941467285	4.817199707	8.660888672	0.001573563	-0.003051758	0.000190735	0.603759766	-0.407470703	-0.752441406	884.16	29.33719509	-5.728499694	4.761313481	-66
61469	0	0.036804199	0.193908691	0.346923828	0.999999046	0.000156403	-2.57E-05	0	0.92010498	4.847717285	8.673095703	0.007820129	-0.00128746	0	0.603759766	-0.409667969	-0.755126953	884.06	29.35089928	-5.721020882	4.753866124	-66
61470	0	0.036822319	0.192002296	0.346128464	0.999999046	9.92E-05	-0.000114441	0.000190735	0.920557976	4.800057411	8.653211594	0.004959106	-0.005722046	0.009536743	0.606201172	-0.409667969	-0.758056641	884.1	29.35657155	-5.733052523	4.760411323	-66
61471	0	0.038208008	0.194274902	0.345825195	0.999999046	7.63E-06	-0.000159264	0.0001297	0.955200195	4.856872559	8.645629883	0.00038147	-0.007963181	0.006484985	0.601318359	-0.405273438	-0.755371094	884.16	29.35271195	-5.746164659	4.758187744	-66
61472	0	0.037902832	0.193603516	0.346862793	0.999999046	-0.00020504	-4.96E-05	7.63E-06	0.947570801	4.840087891	8.671569824	-0.010251999	-0.002479553	0.00038147	0.601318359	-0.407470703	-0.755126953	884.16	29.32509981	-5.741466214	4.75020326	-66
61473	0	0.037414551	0.192382813	0.346435547	0.999999046	4.58E-05	-0.000105858	9.54E-05	0.93536377	4.809570313	8.660888672	0.002288818	-0.005292892	0.004768372	0.603515625	-0.405273438	-0.752441406	884.06	29.32562729	-5.747287624	4.747753651	-66
61474	0	0.038013458	0.19246769	0.347507477	0.999999046	0.000116348	-4.77E-05	2.86E-06	0.950336456	4.811692238	8.68768692	0.005817413	-0.002384186	0.000143051	0.603759766	-0.407470703	-0.755126953	884.12	29.3347746	-5.742111435	4.739344511	-66
61475	0	0.038085938	0.194702148	0.345153809	0.999999046	-0.000137329	4.29E-05	8.39E-05	0.952148438	4.867553711	8.628845215	-0.006866455	0.002145767	0.004196167	0.603759766	-0.407470703	-0.752441406	884.12	29.31367879	-5.732454844	4.744263969	-66
61476	0	0.037173271	0.192036629	0.347650528	0.999999046	-8.68E-05	7.63E-06	2.86E-06	0.929331779	4.800915718	8.691263199	-0.004339218	0.00038147	0.000143051	0.601318359	-0.407470703	-0.755126953	884.1	29.29929111	-5.721730502	4.738914048	-66
61477	0	0.037475586	0.192810059	0.346435547	0.999999046	0.000102997	-3.72E-05	8.77E-05	0.936889648	4.820251465	8.660888672	0.005149841	-0.001859665	0.004386902	0.603759766	-0.407470703	-0.752441406	884.06	29.30605699	-5.720233962	4.739648667	-66
61478	0	0.037841797	0.192749023	0.347290039	0.999999046	-1.14E-05	-6.10E-05	-7.63E-06	0.946044922	4.818725586	8.682250977	-0.000572205	-0.003051758	-0.00038147	0.603759766	-0.407470703	-0.755126953	884.1	29.30076559	-5.715780726	4.729339682	-66
61479	0	0.037719727	0.192565918	0.346923828	0.999999046	0.000205994	-0.000151634	0.000164032	0.942993164	4.814147949	8.673095703	0.010299683	-0.007581711	0.008201599	0.603759766	-0.407470703	-0.755126953	884.18	29.31915594	-5.730014506	4.731169116	-66
61480	0	0.037278175	0.193916321	0.34677124	0.999999046	-0.000151634	3.05E-05	0.000137329	0.931954384	4.84790802	8.669281006	-0.007581711	0.001525879	0.006866455	0.603759766	-0.409667969	-0.752197266	884.06	29.29585992	-5.724514399	4.740863531	-66
61481	0	0.038085938	0.192199707	0.348266602	0.999999046	-7.25E-05	-8.30E-05	0.000152588	0.952148438	4.804992676	8.706665039	-0.003623962	-0.004148483	0.007629395	0.603759766	-0.407470703	-0.755126953	884.12	29.28203025	-5.731228592	4.745333337	-66
61482	0	0.037286758	0.193785667	0.346578598	0.999999046	-2.86E-05	-6.48E-05	2.57E-05	0.932168961	4.844641685	8.664464951	-0.001430511	-0.003242493	0.00128746	0.603759766	-0.407470703	-0.755126953	884.06	29.27446568	-5.728990835	4.738165736	-66
61483	0	0.038330078	0.191833496	0.34777832	0.999999046	7.25E-05	-0.000182152	0.000141144	0.958251953	4.795837402	8.694458008	0.003623962	-0.00910759	0.00705719	0.599121094	-0.407226563	-0.7578125	884.04	29.27790437	-5.74498307	4.735912706	-66
61484	0	0.037353516	0.194030762	0.347290039	0.999999046	0.00011158	-6.87E-05	8.01E-05	0.933837891	4.850769043	8.682250977	0.005578995	-0.003433228	0.004005432	0.603515625	-0.405273438	-0.752441406	884.06	29.28585853	-5.746172843	4.734030941	-66
61485	0	0.037977219	0.193264961	0.346118927	0.999998093	-5.82E-05	-0.000185013	0.000141144	0.949430466	4.831624031	8.652973175	-0.002908707	-0.009250641	0.00705719	0.601318359	-0.407226563	-0.752197266	884.04	29.27445073	-5.762424605	4.731874533	-66
61486	0	0.038470268	0.193113327	0.348793983	0.999999046	-0.000135422	-8.01E-05	2.67E-05	0.961756706	4.827833176	8.719849586	-0.006771088	-0.004005432	0.001335144	0.601318359	-0.409423828	-0.752197266	884.06	29.25470968	-5.761800524	4.724215187	-66
61487	0	0.037536621	0.192749023	0.346191406	0.999999046	9.54E-05	-0.000109673	0.000125885	0.938415527	4.818725586	8.654785156	0.004768372	-0.005483627	0.006294251	0.601318359	-0.407470703	-0.755126953	884.2	29.26061098	-5.769664013	4.724485413	-66
61488	0	0.037783623	0.193049431	0.3462677	0.999999046	9.82E-05	-0.000282288	0.000156403	0.944590569	4.826235771	8.656692505	0.004911423	-0.01411438	0.00782013	0.601318359	-0.407226563	-0.752197266	884.12	29.26754997	-5.796481256	4.718264169	-66
61489	0	0.038024902	0.194580078	0.346130371	0.999999046	0.000106812	-0.00026226	0.000205994	0.950622559	4.864501953	8.653259277	0.005340576	-0.013113022	0.010299683	0.601318359	-0.407470703	-0.755126953	884.1	29.27498024	-5.824062266	4.718024771	-66
61490	0	0.038287163	0.193844795	0.347533226	0.999999046	-0.000301361	-5.72E-05	8.01E-05	0.95717907	4.846119881	8.68833065	-0.015068054	-0.002861023	0.004005432	0.599121094	-0.409423828	-0.754882813	884.1	29.23578006	-5.824082012	4.716915673	-66
61491	0	0.038513184	0.190795898	0.347412109	0.999999046	0.000205994	-0.000182152	-4.20E-05	0.96282959	4.769897461	8.685302734	0.010299683	-0.00910759	-0.002098084	0.601318359	-0.407470703	-0.758056641	884.06	29.25656198	-5.829770669	4.696182782	-66
61492	0	0.038012505	0.193809509	0.344937325	0.999999046	0.000393867	-0.000141144	7.92E-05	0.950312614	4.845237732	8.623433113	0.019693375	-0.00705719	0.003957749	0.599121094	-0.409423828	-0.754882813	884.1	29.2975212	-5.838119297	4.690226842	-66
61493	0	0.039123535	0.194335938	0.346252441	0.999999046	1.53E-05	-3.34E-05	-1.14E-05	0.978088379	4.858398438	8.656311035	0.000762939	-0.00166893	-0.000572205	0.601318359	-0.407470703	-0.755126953	884.04	29.29548672	-5.830653975	4.681032275	-66
61494	0	0.038776398	0.192698479	0.347463608	0.999999046	-3.43E-05	-0.000167847	0.00018692	0.969409943	4.817461967	8.686590195	-0.001716614	-0.008392334	0.009346008	0.601318359	-0.407226563	-0.752197266	884.16	29.28647162	-5.847766076	4.684330421	-66
61495	0	0.038574219	0.192993164	0.347412109	0.999999046	0.000125885	-9.44E-05	0.000118256	0.964355469	4.824829102	8.685302734	0.006294251	-0.004720688	0.005912781	0.603759766	-0.407470703	-0.755126953	884.04	29.29607732	-5.853685183	4.68472482	-66
61496	0	0.039113045	0.194046974	0.346805573	0.999999046	5.25E-05	-0.000221252	0.000164032	0.977826118	4.851174355	8.670139313	0.002622604	-0.011062622	0.008201599	0.6015625	-0.409423828	-0.754882813	884.1	29.29757914	-5.87487227	4.682749638	-66
61497	0	0.038452148	0.194396973	0.345214844	0.999999046	-0.000156403	-9.82E-05	0.000144958	0.961303711	4.859924316	8.630371094	-0.007820129	-0.004911423	0.007247925	0.599121094	-0.407226563	-0.7578125	884.06	29.27474651	-5.882678223	4.685506542	-66
61498	0	0.039125443	0.19262886	0.347525597	0.999999046	-0.000179291	-3.43E-05	0.000141144	0.978136063	4.815721512	8.688139915	-0.008964539	-0.001716614	0.00705719	0.601318359	-0.405273438	-0.755371094	884.12	29.24891892	-5.883895	4.691566385	-66
61499	0	0.038085938	0.192871094	0.346618652	0.999999046	0.000354767	-0.000124931	0.000141144	0.952148438	4.821777344	8.665466309	0.017738343	-0.006246567	0.00705719	0.601318359	-0.407226563	-0.752197266	884.06	29.28482176	-5.89412434	4.692776874	-66
61500	0	0.038349152	0.193716049	0.345921516	0.999999046	0.0002985	-5.72E-06	7.15E-05	0.95872879	4.84290123	8.64803791	0.014925003	-0.000286102	0.003576279	0.599121094	-0.409423828	-0.751953125	884.1	29.3143628	-5.888506502	4.693732058	-66
61501	0	0.038452148	0.194519043	0.346069336	0.999999046	0.000106812	-0.000163078	5.72E-05	0.961303711	4.862976074	8.651733398	0.005340576	-0.008153915	0.002861023	0.599121094	-0.407226563	-0.754882813	884.06	29.32307574	-5.897783525	4.684006724	-66
61502	0	0.038770676	0.194892883	0.344976425	0.999999046	-0.000331879	-0.000102997	0.000144958	0.969266891	4.872322083	8.624410629	-0.016593933	-0.005149841	0.007247925	0.6015625	-0.409667969	-0.7578125	884.06	29.2803872	-5.905975472	4.686663491	-66
61503	0	0.038452148	0.190063477	0.349243164	0.999999046	7.63E-06	-8.68E-05	7.63E-06	0.961303711	4.751586914	8.731079102	0.00038147	-0.004339218	0.00038147	0.601318359	-0.407226563	-0.752197266	884.1	29.27769815	-5.904815476	4.676507226	-66
61504	0	0.038820267	0.194156647	0.346852303	0.999999046	0.000386238	-0.000123978	9.82E-05	0.970506668	4.853916168	8.671307564	0.019311905	-0.006198883	0.004911423	0.599121094	-0.407226563	-0.754882813	884.04	29.31772661	-5.912438134	4.673177574	-66
61505	0	0.039001465	0.194091797	0.344848633	0.999999046	0	-0.000109673	0.00019455	0.975036621	4.852294922	8.62121582	0	-0.005483627	0.009727478	0.601318359	-0.409423828	-0.752197266	884.1	29.31250344	-5.924041176	4.68061625	-66
61506	0	0.039152145	0.194075584	0.347280502	0.999998093	-7.92E-05	-7.15E-05	0.000144958	0.978803635	4.85188961	8.682012558	-0.003957748	-0.003576279	0.007247925	0.599121094	-0.409423828	-0.754882813	884.12	29.29851867	-5.929046891	4.68503481	-66
61507	0	0.040344238	0.193786621	0.346313477	0.999999046	-7.63E-05	-4.48E-05	3.43E-05	1.008605957	4.844665527	8.657836914	-0.003814697	-0.002241135	0.001716614	0.6015625	-0.409667969	-0.7578125	884.12	29.28588866	-5.925248735	4.679763124	-66
61508	0	0.039550781	0.192871094	0.347839355	0.999999046	5.82E-05	0.000125885	-9.16E-05	0.988769531	4.821777344	8.695983887	0.002908707	0.006294251	-0.004577637	0.599121094	-0.409423828	-0.754882813	884.12	29.28892853	-5.897350481	4.671618028	-66
61509	0	0.038757324	0.192626953	0.347351074	0.999999046	0.000217438	-7.53E-05	7.63E-06	0.968933105	4.815673828	8.683776855	0.010871887	-0.003767014	0.00038147	0.601318359	-0.409423828	-0.752197266	884.16	29.31031008	-5.895107704	4.662138864	-66
61510	0	0.038507462	0.194364548	0.347992897	0.999999046	0.000232697	-0.000114441	0.000110626	0.962686539	4.859113693	8.699822426	0.011634827	-0.005722046	0.005531311	0.599121094	-0.409423828	-0.757568359	884.06	29.33261734	-5.902512912	4.660515647	-66
61511	0	0.038574219	0.194519043	0.346313477	0.999999046	-0.000137329	-8.68E-05	0.0001297	0.964355469	4.862976074	8.657836914	-0.006866455	-0.004339218	0.006484985	0.599121094	-0.409423828	-0.749023438	884.06	29.31222317	-5.908200392	4.662806812	-66
61512	0	0.039112091	0.192398071	0.348373413	0.999999046	-6.01E-05	-5.53E-05	9.06E-05	0.977802277	4.809951782	8.709335327	-0.003004074	-0.002765656	0.004529953	0.601318359	-0.407470703	-0.755126953	884.16	29.30080629	-5.908547899	4.6624453	-66
61513	0	0.03918457	0.193359375	0.347229004	0.999999046	0.000102997	5.05E-05	4.20E-05	0.979614258	4.833984375	8.680725098	0.005149841	0.002527237	0.002098084	0.599121094	-0.407226563	-0.7578125	884.1	29.30795501	-5.895594669	4.663184461	-66
61514	0	0.038066864	0.194037437	0.346276283	0.999999046	-1.34E-05	3.05E-05	9.44E-05	0.9516716	4.850935936	8.656907082	-0.000667572	0.001525879	0.004720688	0.601318359	-0.407470703	-0.755126953	884.1	29.30139212	-5.887536026	4.668302399	-66
61515	0	0.039001465	0.192687988	0.346679688	0.999999046	-3.81E-05	-5.25E-05	7.25E-05	0.975036621	4.817199707	8.666992188	-0.001907349	-0.002622604	0.003623962	0.603759766	-0.409667969	-0.755126953	884.1	29.29266464	-5.88654698	4.666681443	-66
61516	0	0.039675713	0.192289352	0.346384048	0.999999046	0.000113487	-9.54E-06	-7.34E-05	0.991892815	4.80723381	8.659601212	0.005674362	-0.000476837	-0.003671646	0.599121094	-0.407226563	-0.7578125	884.04	29.3025298	-5.873134943	4.652480133	-66
61517	0	0.038330078	0.192321777	0.347229004	0.999999046	0.00037384	-7.53E-05	-1.14E-05	0.958251953	4.808044434	8.680725098	0.018692017	-0.003767014	-0.000572205	0.601318359	-0.407226563	-0.752197266	884.04	29.34190868	-5.869744145	4.641079475	-66
61518	0	0.039232254	0.194411278	0.345490456	0.999999046	0.000164032	-6.48E-05	0.000225067	0.980806351	4.860281944	8.637261391	0.008201599	-0.003242493	0.011253357	0.599121094	-0.409423828	-0.751953125	884.06	29.35482759	-5.878610502	4.654101849	-66
