Counter	Temperature	VelInc_X	VelInc_Y	VelInc_Z	OriInc_w	OriInc_x	OriInc_y	OriInc_z	Acc_X	Acc_Y	Acc_Z	Gyr_X	Gyr_Y	Gyr_Z	Mag_X	Mag_Y	Mag_Z	Pressure	Roll	Pitch	Yaw	RSSI
12393	0	0.375183105	-0.092590332	0.066711426	0.999990463	-0.002314568	-0.001167297	-0.003440857	9.379577637	-2.314758301	1.667785645	-0.115728736	-0.058365049	-0.172043379	-0.654296875	0.221679688	-0.76171875	891	-54.65931955	-73.24058449	53.18696753	-85
12394	0	0.378310204	-0.101663589	0.068465233	0.999991417	-0.002151489	-0.00123024	-0.003186226	9.457755089	-2.541589737	1.711630821	-0.107574755	-0.06151216	-0.159311727	-0.656738281	0.219726563	-0.758789063	890.84	-54.56945706	-73.62524725	52.83554183	-84
12395	0	0.381103516	-0.102783203	0.068237305	0.999993324	-0.001346588	-0.001078606	-0.003097534	9.527587891	-2.569580078	1.705932617	-0.067329548	-0.053930396	-0.154877033	-0.658935547	0.219726563	-0.758544922	890.92	-54.34752942	-73.99064242	52.44187141	-81
12396	0	0.377453804	-0.104421616	0.070374489	0.999994278	-0.000667572	-0.000966072	-0.002670288	9.4363451	-2.61054039	1.759362221	-0.033378648	-0.048303673	-0.133514594	-0.663574219	0.217773438	-0.758056641	890.9	-54.09824506	-74.30740688	52.10123641	-82
12397	0	0.375427246	-0.106628418	0.070129395	0.999996185	0.000424385	-0.001232147	-0.002056122	9.385681152	-2.665710449	1.753234863	0.021219274	-0.061607422	-0.102806193	-0.665771484	0.211181641	-0.757568359	890.78	-53.95123892	-74.58368548	51.99931824	-81
12398	0	0.375724792	-0.103988647	0.069353104	0.999996185	0.001629829	-0.001008034	-0.001459122	9.393119812	-2.599716187	1.733827591	0.081491549	-0.050401736	-0.072956156	-0.670410156	0.209228516	-0.754150391	890.82	-53.73357973	-74.78842495	51.96571999	-80
12399	0	0.379089355	-0.100463867	0.069580078	0.999998093	0.001507759	-0.000488281	-0.001106262	9.477233887	-2.51159668	1.739501953	0.075388002	-0.024414078	-0.055313145	-0.672607422	0.204833984	-0.750976563	891	-53.4380075	-74.92429657	51.83724051	-80
12400	0	0.378540039	-0.098937988	0.067687988	0.999999046	0.000226021	9.92E-05	-0.000637054	9.463500977	-2.473449707	1.692199707	0.011301042	0.004959107	-0.031852725	-0.672363281	0.200439453	-0.756347656	890.94	-53.20532743	-74.97583975	51.62455106	-81
12401	0	0.377088547	-0.099715233	0.064804077	0.999998093	-0.000239372	0.000337601	0.000326157	9.427213669	-2.492880821	1.620101929	-0.011968613	0.016880036	0.016307832	-0.667724609	0.202636719	-0.75390625	890.94	-53.19131208	-74.9217209	51.5809811	-81
12402	0	0.379979134	-0.095900536	0.064459801	0.999999046	0.000482559	9.35E-05	0.001185417	9.49947834	-2.39751339	1.611495018	0.024127967	0.004673005	0.059270875	-0.669921875	0.202636719	-0.759521484	890.92	-53.39570888	-74.80484811	51.85081132	-81
12403	0	0.37890625	-0.09173584	0.061584473	0.999998093	0.000695229	3.05E-05	0.001346588	9.47265625	-2.293395996	1.539611816	0.034761442	0.001525879	0.067329433	-0.669921875	0.202636719	-0.756591797	890.9	-53.63402057	-74.67687594	52.18150277	-82
12404	0	0.376832008	-0.089127541	0.060814857	0.999998093	0.001081467	-7.34E-05	0.001354218	9.420800209	-2.228188515	1.520371437	0.054073361	-0.003671648	0.06771091	-0.670166016	0.202636719	-0.753662109	890.92	-53.86058531	-74.55477024	52.54599064	-83
12405	0	0.378234863	-0.087402344	0.061157227	0.999998093	0.001130104	-0.000144958	0.001197815	9.455871582	-2.185058594	1.528930664	0.056505229	-0.007247928	0.059890774	-0.66796875	0.204833984	-0.751220703	890.88	-54.0631203	-74.4516171	52.8890124	-83
12406	0	0.37975502	-0.086163521	0.059897423	0.999998093	0.00127697	-0.0002985	0.001033783	9.493875504	-2.15408802	1.49743557	0.063848525	-0.01492501	0.051689172	-0.667724609	0.202636719	-0.75390625	890.94	-54.25713789	-74.37382753	53.24235282	-84
12407	0	0.381164551	-0.084899902	0.060913086	0.999998093	0.001393318	-0.000293732	0.001056671	9.52911377	-2.122497559	1.522827148	0.069665945	-0.014686592	0.052833585	-0.670166016	0.202636719	-0.753662109	890.9	-54.43856683	-74.29348174	53.59640037	-84
12408	0	0.379987717	-0.08278656	0.061346054	0.999998093	0.001188278	-0.000662804	0.000991821	9.499692917	-2.069664001	1.533651352	0.059413938	-0.033140198	0.049591088	-0.667724609	0.200439453	-0.753662109	891	-54.7471156	-74.24357411	54.05919188	-84
12409	0	0.380004883	-0.082824707	0.062316895	0.999999046	0.000675201	-0.000567436	0.000640869	9.50012207	-2.070617676	1.557922363	0.033760077	-0.028371817	0.032043463	-0.667480469	0.200195313	-0.759277344	890.98	-54.99792077	-74.2199315	54.4013767	-83
12410	0	0.380149841	-0.083900452	0.061448097	0.999999046	0.00034523	-0.000530243	0.000537872	9.503746033	-2.097511292	1.536202431	0.017261507	-0.026512149	0.026893619	-0.669921875	0.198242188	-0.756103516	890.88	-55.24871028	-74.20339099	54.70630197	-83
12411	0	0.379699707	-0.084228516	0.062744141	0.999999046	-0.000263214	-0.000372887	0.000617981	9.492492676	-2.105712891	1.568603516	-0.013160707	-0.018644335	0.030899051	-0.669921875	0.202636719	-0.756591797	890.82	-55.5334938	-74.16887617	54.97126341	-83
12412	0	0.379271507	-0.087598801	0.062047958	0.999999046	0.000105858	-0.000112534	6.68E-06	9.481787682	-2.189970016	1.551198959	0.005292892	-0.005626678	0.000333786	-0.672363281	0.202636719	-0.756347656	890.98	-55.5482541	-74.17514337	54.99981392	-83
12413	0	0.377624512	-0.082946777	0.060180664	0.999999046	-0.000434875	0.000248909	0.00018692	9.440612793	-2.073669434	1.504516602	-0.021743775	0.01244545	0.009346009	-0.670166016	0.202636719	-0.750732422	891	-55.54499373	-74.14124943	54.94520096	-83
12414	0	0.38305378	-0.089551926	0.06059742	0.999999046	-0.000637054	-1.14E-05	-0.000126839	9.57634449	-2.238798141	1.514935493	-0.031852724	-0.000572205	-0.006341935	-0.669921875	0.202636719	-0.756591797	890.94	-55.57982818	-74.15399077	54.90723098	-83
12415	0	0.380187988	-0.087646484	0.060913086	0.999999046	-4.58E-05	0.000378609	-0.00050354	9.504699707	-2.191162109	1.522827148	-0.002288819	0.018930436	-0.025177004	-0.670166016	0.204833984	-0.75390625	890.94	-55.33029011	-74.1770438	54.64122882	-83
12416	0	0.378520966	-0.087088585	0.060458183	0.999999046	-0.001145363	0.000375748	-0.000252724	9.463024139	-2.177214622	1.511454582	-0.057268157	0.018787389	-0.012636188	-0.672363281	0.202636719	-0.750732422	890.98	-55.26473491	-74.17658363	54.4391695	-83
12417	0	0.378662109	-0.08996582	0.061645508	0.999999046	-0.001094818	0.000535011	-0.000167847	9.466552734	-2.249145508	1.541137695	-0.05474092	0.026750571	-0.008392336	-0.667724609	0.202636719	-0.756591797	890.84	-55.16011946	-74.15761914	54.20348281	-84
12418	0	0.378749847	-0.089849472	0.060448647	0.999999046	-0.00075531	0.00043869	-0.00025177	9.468746185	-2.246236801	1.511216164	-0.037765508	0.021934512	-0.012588503	-0.670166016	0.204833984	-0.750976563	890.88	-55.02952748	-74.1527457	53.97976946	-83
12419	0	0.378417969	-0.090454102	0.059814453	0.999999046	-0.00069046	0.000351906	-0.00025177	9.460449219	-2.261352539	1.495361328	-0.034523014	0.017595293	-0.012588502	-0.667724609	0.204833984	-0.75390625	890.78	-54.92055514	-74.1534636	53.78665466	-84
12420	0	0.379458427	-0.090834618	0.059954643	0.999999046	-0.000304222	0.000190735	-0.000389099	9.486460686	-2.27086544	1.498866081	-0.015211106	0.009536744	-0.019454957	-0.667724609	0.206787109	-0.757080078	890.84	-54.78881592	-74.17757331	53.61406153	-84
12421	0	0.376159668	-0.091125488	0.058837891	0.999999046	-0.000152588	0.000130653	-0.000392914	9.403991699	-2.278137207	1.470947266	-0.007629395	0.006532669	-0.019645692	-0.667724609	0.206787109	-0.757080078	890.94	-54.65874845	-74.20587776	53.46085908	-84
12422	0	0.377985954	-0.09078598	0.058053017	0.999999046	-0.000125885	-0.000173569	-0.000287056	9.449648857	-2.269649506	1.451325417	-0.006294251	-0.008678436	-0.014352799	-0.66796875	0.20703125	-0.754150391	890.94	-54.65135507	-74.24442669	53.43745989	-83
12423	0	0.377807617	-0.091552734	0.057739258	0.999999046	4.20E-05	-0.000212669	-0.000267029	9.44519043	-2.288818359	1.443481445	0.002098084	-0.010633469	-0.013351441	-0.665527344	0.204589844	-0.754150391	890.84	-54.64312379	-74.2836813	53.43455916	-84
12424	0	0.378247261	-0.091468811	0.058988571	0.999999046	0.000454903	-0.000621796	-0.000184059	9.456181526	-2.286720276	1.474714279	0.022745135	-0.031089786	-0.009202958	-0.667724609	0.204833984	-0.75390625	890.88	-54.74404516	-74.3422166	53.59313969	-83
12425	0	0.378234863	-0.09197998	0.060302734	0.999999046	0.000167847	-0.000746727	0.000240326	9.455871582	-2.299499512	1.507568359	0.008392335	-0.037336353	0.012016298	-0.670166016	0.204833984	-0.75390625	890.82	-55.02107179	-74.36893507	53.90081813	-84
12426	0	0.376693726	-0.09177494	0.059952736	0.999999046	0.000164032	-0.000549316	0.000422478	9.41734314	-2.294373512	1.498818398	0.0082016	-0.027465823	0.021123888	-0.672607422	0.204833984	-0.750976563	890.9	-55.27579093	-74.3650735	54.1852947	-83
12427	0	0.382568359	-0.093994141	0.060974121	0.999999046	0.000587463	-0.00083828	0.000629425	9.564208984	-2.349853516	1.524353027	0.029373176	-0.041913996	0.03147126	-0.672363281	0.202636719	-0.750732422	890.82	-55.62758715	-74.35988216	54.62300546	-83
12428	0	0.377737999	-0.092441559	0.064231873	0.999998093	0.001087189	-0.000828743	0.000784874	9.443449974	-2.311038971	1.605796814	0.054359459	-0.041437166	0.039243714	-0.672363281	0.202636719	-0.750732422	890.88	-55.95361814	-74.33838839	55.09261355	-82
12429	0	0.377929688	-0.091003418	0.065612793	0.999998093	0.001439095	-0.000652313	0.001132965	9.448242188	-2.275085449	1.640319824	0.071954773	-0.032615682	0.05664829	-0.672607422	0.202636719	-0.747802734	890.88	-56.25600416	-74.27159102	55.57860793	-81
12430	0	0.380805016	-0.088506699	0.064758301	0.999998093	0.000962257	-0.000117302	0.001345634	9.520125389	-2.212667465	1.61895752	0.048112891	-0.0058651	0.067281754	-0.674804688	0.202880859	-0.753417969	890.9	-56.47503946	-74.14991998	55.92276373	-81
12431	0	0.382019043	-0.088439941	0.063842773	0.999999046	0.000278473	0.000336647	0.001178741	9.550476074	-2.210998535	1.596069336	0.013923649	0.016832356	0.058937088	-0.672363281	0.202636719	-0.750732422	890.84	-56.57822603	-74.01531243	56.06607723	-81
12432	0	0.38109684	-0.089365959	0.061279297	0.999999046	0.000588417	0.000471115	0.000995636	9.527420998	-2.234148979	1.531982422	0.02942086	0.023555762	0.049781812	-0.672363281	0.202636719	-0.750732422	890.88	-56.55892404	-73.88982471	56.11963278	-82
12433	0	0.379394531	-0.087158203	0.06048584	0.999999046	0.00050354	0.000466347	0.00094223	9.484863281	-2.178955078	1.512145996	0.025177008	0.023317342	0.047111522	-0.670166016	0.202636719	-0.750732422	890.82	-56.53839446	-73.77000225	56.16194932	-83
12434	0	0.377958298	-0.085003853	0.059457779	0.999999046	0.000190735	0.00069046	0.00096035	9.448957443	-2.125096321	1.486444473	0.009536745	0.034523019	0.048017513	-0.670410156	0.20703125	-0.751220703	890.84	-56.48366003	-73.63466527	56.12769671	-83
12435	0	0.379394531	-0.084106445	0.057250977	0.999999046	-0.000389099	0.00061512	0.000511169	9.484863281	-2.102661133	1.431274414	-0.019454959	0.030756001	0.025558475	-0.670410156	0.20703125	-0.751220703	890.78	-56.42350807	-73.54752968	56.02020406	-84
12436	0	0.378136635	-0.086613655	0.05770874	0.999999046	-0.000292778	0.000549316	-7.63E-06	9.453415871	-2.165341377	1.442718506	-0.014638902	0.027465822	-0.00038147	-0.66796875	0.209228516	-0.751464844	890.88	-56.26288108	-73.51441871	55.81676064	-84
12437	0	0.380004883	-0.087036133	0.057189941	0.999999046	-0.000305176	0.000290871	-0.000404358	9.50012207	-2.17590332	1.429748535	-0.01525879	0.014543534	-0.020217897	-0.667724609	0.206787109	-0.757080078	890.94	-56.10166912	-73.53584901	55.6145514	-85
12438	0	0.377173424	-0.088903427	0.058818817	0.999999046	-0.000137329	3.81E-05	-0.000462532	9.429335594	-2.222585678	1.470470428	-0.006866455	0.001907349	-0.023126603	-0.667724609	0.206787109	-0.757080078	890.82	-55.9893833	-73.57911065	55.48278866	-85
12439	0	0.378845215	-0.089538574	0.05859375	0.999999046	-0.000152588	-0.000243187	-0.000675201	9.471130371	-2.238464355	1.46484375	-0.007629395	-0.012159349	-0.033760074	-0.667724609	0.206787109	-0.757080078	890.88	-55.92265588	-73.6608021	55.39565738	-87
12440	0	0.382295609	-0.093191147	0.060759544	0.999998093	1.34E-05	-2.86E-06	-0.001102448	9.557390213	-2.329778671	1.518988609	0.000667572	-0.000143051	-0.055122387	-0.667724609	0.204833984	-0.75390625	890.82	-55.66358482	-73.76748505	55.12797508	-87
12441	0	0.376586914	-0.093383789	0.061767578	0.999999046	-0.000209808	-9.44E-05	-0.000846863	9.414672852	-2.334594727	1.544189453	-0.010490419	-0.004720688	-0.042343145	-0.667724609	0.204589844	-0.756835938	890.84	-55.51407725	-73.85556228	54.94728735	-87
12442	0	0.376880646	-0.094176292	0.063792229	0.999999046	-0.000127792	2.48E-05	-0.000286102	9.422016144	-2.35440731	1.594805717	-0.006389618	0.001239777	-0.014305115	-0.667724609	0.202636719	-0.756591797	890.88	-55.44086616	-73.88264625	54.8579254	-87
12443	0	0.379150391	-0.094909668	0.064697266	0.999999046	2.67E-05	0.000309944	-0.000202179	9.478759766	-2.372741699	1.617431641	0.001335144	0.015497208	-0.010108948	-0.667724609	0.204589844	-0.756835938	890.88	-55.27548999	-73.88294844	54.688196	-86
12444	0	0.379514694	-0.095424652	0.064265251	0.999999046	-7.72E-05	0.000436783	-8.58E-06	9.487867355	-2.385616302	1.606631279	-0.003862381	0.021839143	-0.000429153	-0.665283203	0.202392578	-0.756835938	890.94	-55.12477591	-73.8563739	54.52359042	-86
12445	0	0.378662109	-0.094177246	0.063720703	0.999999046	-1.91E-05	0.000691414	0.000148773	9.466552734	-2.354431152	1.593017578	-0.000953674	0.034570697	0.00743866	-0.667724609	0.202636719	-0.756591797	890.94	-54.92144055	-73.79798733	54.31183848	-86
12446	0	0.375740051	-0.092216492	0.063076019	0.999999046	-0.000139236	0.000637054	0.000247002	9.393501282	-2.305412292	1.576900482	-0.006961823	0.031852725	0.012350083	-0.665527344	0.204589844	-0.754150391	890.84	-54.77314746	-73.73371028	54.14036896	-85
12447	0	0.375	-0.091247559	0.060424805	0.999999046	-2.29E-05	0.000668526	0.00056839	9.375	-2.281188965	1.510620117	-0.001144409	0.033426289	0.028419498	-0.665283203	0.204589844	-0.759765625	890.84	-54.67587513	-73.63722369	54.03765235	-86
12448	0	0.375914574	-0.090946198	0.060190201	0.999999046	-5.82E-05	0.000328064	0.000277519	9.397864342	-2.273654938	1.50475502	-0.002908707	0.016403199	0.013875962	-0.663085938	0.204589844	-0.760009766	890.96	-54.6266108	-73.59056294	53.98069936	-86
12449	0	0.376403809	-0.091247559	0.059204102	0.999999046	0.000293732	0.000203133	0.000102997	9.410095215	-2.281188965	1.480102539	0.014686585	0.010156632	0.005149841	-0.663085938	0.206787109	-0.760009766	890.78	-54.53821931	-73.56861462	53.9215985	-87
12450	0	0.377459526	-0.091169357	0.059410095	0.999999046	0.000234604	-0.000221252	0.0001297	9.436488152	-2.279233932	1.48525238	0.011730194	-0.011062622	0.006484985	-0.660644531	0.204345703	-0.760009766	890.88	-54.59762955	-73.57252157	54.01164317	-87
12451	0	0.375305176	-0.090637207	0.060913086	0.999999046	0.000247955	-0.000422478	0.000228882	9.382629395	-2.265930176	1.522827148	0.012397767	-0.021123887	0.011444092	-0.663085938	0.204589844	-0.760009766	890.88	-54.74195659	-73.58054656	54.19191195	-86
12452	0	0.378855705	-0.091756821	0.062590599	0.999999046	0.000197411	-0.000774384	0.00025177	9.471392632	-2.293920517	1.564764977	0.00987053	-0.038719182	0.012588502	-0.662841797	0.202392578	-0.759765625	890.94	-55.00961016	-73.60950327	54.49728242	-86
12453	0	0.378417969	-0.091186523	0.063903809	0.999999046	0.000114441	-0.000670433	0.000179291	9.460449219	-2.279663086	1.597595215	0.005722046	-0.033521655	0.008964539	-0.665283203	0.202392578	-0.756835938	890.9	-55.23804949	-73.63811776	54.75202354	-85
12454	0	0.375850677	-0.091184616	0.067081451	0.999999046	1.14E-05	-0.000526428	0.000350952	9.396266937	-2.279615402	1.677036285	0.000572205	-0.026321413	0.017547609	-0.665527344	0.204589844	-0.757080078	891	-55.4699689	-73.64077005	54.99561306	-85
12455	0	0.378417969	-0.090820313	0.066894531	0.999999046	0	-0.000437737	0.000549316	9.460449219	-2.270507813	1.672363281	0	-0.021886827	0.027465823	-0.667724609	0.202636719	-0.75390625	890.94	-55.71738664	-73.61859332	55.25791667	-85
12456	0	0.380633354	-0.090689659	0.064667702	0.999999046	-0.000227928	-0.000205994	0.000659943	9.515833855	-2.267241478	1.616692543	-0.011396409	-0.010299684	0.032997134	-0.665283203	0.202392578	-0.759765625	890.96	-55.9389983	-73.57077628	55.46801464	-85
12457	0	0.380249023	-0.091003418	0.063232422	0.999999046	-8.39E-05	8.11E-05	0.00063324	9.506225586	-2.275085449	1.580810547	-0.004196167	0.004053116	0.031661989	-0.667724609	0.206787109	-0.757080078	890.9	-56.04445434	-73.50702437	55.56990891	-85
12458	0	0.378232002	-0.090394974	0.064986229	0.999999046	-0.000270844	8.01E-05	0.000620842	9.455800056	-2.259874344	1.624655724	-0.013542176	0.004005432	0.031042101	-0.66796875	0.20703125	-0.751220703	890.9	-56.16738441	-73.44451992	55.66853921	-85
12459	0	0.377075195	-0.090637207	0.063049316	0.999999046	-0.000202179	8.11E-05	0.000385284	9.426879883	-2.265930176	1.57623291	-0.010108948	0.004053116	0.019264222	-0.665527344	0.208984375	-0.757324219	890.94	-56.23057652	-73.40444801	55.71143774	-85
12460	0	0.377605438	-0.090648651	0.060875893	0.999999046	0.000100136	0.000246048	0.00019455	9.440135956	-2.266216278	1.521897316	0.00500679	0.012302399	0.009727478	-0.665527344	0.208984375	-0.754394531	890.9	-56.16545427	-73.37220513	55.65638721	-85
12461	0	0.378723145	-0.090637207	0.061828613	0.999999046	3.81E-05	-6.77E-05	0.000152588	9.468078613	-2.265930176	1.545715332	0.001907349	-0.003385544	0.007629395	-0.665527344	0.206787109	-0.760009766	890.94	-56.19828417	-73.36414866	55.70010955	-86
12462	0	0.377299309	-0.090930939	0.062515259	0.999999046	-9.35E-05	-4.96E-05	-0.000133514	9.432482719	-2.273273468	1.56288147	-0.004673004	-0.002479553	-0.00667572	-0.66796875	0.208984375	-0.757080078	890.96	-56.17897445	-73.38230111	55.67073369	-86
12463	0	0.377380371	-0.091491699	0.061157227	0.999999046	6.10E-05	-0.00014782	-3.43E-05	9.434509277	-2.28729248	1.528930664	0.003051758	-0.007390976	-0.001716614	-0.665527344	0.208984375	-0.762939453	890.88	-56.19438743	-73.39740752	55.69561516	-86
12464	0	0.37606144	-0.090360641	0.060323715	0.999999046	-0.000342369	-7.63E-05	0.000289917	9.401535988	-2.259016037	1.50809288	-0.017118455	-0.003814697	0.01449585	-0.665771484	0.211181641	-0.757568359	890.96	-56.30235108	-73.37723256	55.76626873	-87
12465	0	0.379455566	-0.093383789	0.060302734	0.999999046	-0.000362396	-0.000243187	-0.000141144	9.48638916	-2.334594727	1.507568359	-0.018119813	-0.012159348	-0.00705719	-0.665771484	0.211181641	-0.751708984	890.88	-56.37428285	-73.40884567	55.79650487	-86
12466	0	0.37639904	-0.094848633	0.061026573	0.999999046	-0.000200272	-0.000179291	-0.000107765	9.409976006	-2.37121582	1.52566433	-0.01001358	-0.008964539	-0.00538826	-0.66796875	0.211181641	-0.754638672	890.9	-56.41460886	-73.43318112	55.81436285	-86
12467	0	0.375793457	-0.095092773	0.062011719	0.999999046	-0.000263214	-0.000426292	0.00056076	9.394836426	-2.377319336	1.550292969	-0.013160707	-0.021314623	0.028038028	-0.665527344	0.206787109	-0.754394531	890.96	-56.68357695	-73.40911034	56.07042076	-86
12468	0	0.37872982	-0.094329834	0.060722351	0.999999046	-0.000380516	-0.00030899	0.000640869	9.468245506	-2.35824585	1.518058777	-0.019025805	-0.015449526	0.032043461	-0.66796875	0.208984375	-0.754394531	890.96	-56.94434267	-73.36970794	56.30341609	-86
12469	0	0.377990723	-0.093505859	0.061706543	0.999999046	-0.000663757	-0.000124931	0.000434875	9.449768066	-2.337646484	1.542663574	-0.03318787	-0.006246567	0.021743777	-0.665771484	0.213378906	-0.751953125	890.84	-57.13418217	-73.338423	56.42309045	-86
12470	0	0.377800941	-0.094709396	0.060752869	0.999999046	-0.000398636	-0.000192642	0.000563622	9.445023537	-2.367734909	1.518821716	-0.019931795	-0.009632111	0.028181078	-0.668212891	0.215576172	-0.754882813	890.9	-57.34139968	-73.29884259	56.59257816	-86
12471	0	0.37713623	-0.091552734	0.06060791	0.999999046	-0.000385284	-0.00039196	0.000526428	9.428405762	-2.288818359	1.515197754	-0.019264223	-0.019598009	0.026321414	-0.668212891	0.213378906	-0.754638672	890.96	-57.60232714	-73.27511252	56.82487802	-85
12472	0	0.376720428	-0.092790604	0.061216354	0.999999046	-0.000142097	-0.000339508	0.000182152	9.418010712	-2.319765091	1.530408859	-0.007104874	-0.016975403	0.00910759	-0.668212891	0.215576172	-0.751953125	890.94	-57.74741826	-73.2813697	56.96204628	-86
12473	0	0.378723145	-0.092651367	0.061523438	0.999999046	-0.000106812	-0.000407219	0.000305176	9.468078613	-2.31628418	1.538085938	-0.005340576	-0.020360948	0.01525879	-0.668212891	0.215576172	-0.751953125	890.88	-57.93484497	-73.27983033	57.14830471	-86
12474	0	0.378592491	-0.095704079	0.061742783	0.999999046	0.000127792	-0.000356674	9.06E-05	9.464812279	-2.392601967	1.543569565	0.006389618	-0.01783371	0.004529953	-0.668457031	0.215820313	-0.749267578	890.94	-58.03533981	-73.29591919	57.2708132	-86
12475	0	0.378723145	-0.095153809	0.062805176	0.999999046	0.000198364	-0.000277519	2.29E-05	9.468078613	-2.378845215	1.570129395	0.009918213	-0.013875962	0.001144409	-0.670654297	0.215820313	-0.751953125	890.82	-58.08800867	-73.31372254	57.35239596	-86
12476	0	0.377165794	-0.097222328	0.061901093	0.999999046	5.25E-05	-0.000375748	-7.63E-05	9.429144859	-2.430558205	1.547527313	0.002622604	-0.018787385	-0.003814697	-0.670654297	0.215820313	-0.751953125	890.88	-58.16921406	-73.34697753	57.44572152	-86
12477	0	0.375732422	-0.09588623	0.061828613	0.999999046	0.000347137	-0.000197411	3.81E-06	9.393310547	-2.397155762	1.545715332	0.017356873	-0.009870529	0.000190735	-0.670654297	0.215820313	-0.754638672	890.94	-58.17459128	-73.36154599	57.49449613	-87
12478	0	0.380149841	-0.099143982	0.060341835	0.999999046	0.000101089	-0.000165939	-0.000202179	9.503746033	-2.478599548	1.508545876	0.005054474	-0.008296967	-0.010108948	-0.670654297	0.213623047	-0.748779297	890.84	-58.1563976	-73.39414527	57.49092658	-87
12479	0	0.377319336	-0.096862793	0.060119629	0.999999046	0.000282288	0.000164986	-7.63E-06	9.432983398	-2.421569824	1.502990723	0.01411438	0.008249283	-0.00038147	-0.670654297	0.213623047	-0.748779297	890.88	-58.04884198	-73.38770186	57.41496527	-89
12480	0	0.376690865	-0.095359802	0.05901432	0.999999046	-2.00E-05	-6.10E-05	0.000457764	9.417271614	-2.383995056	1.475358009	-0.001001358	-0.003051758	0.022888184	-0.672851563	0.213623047	-0.751708984	890.88	-58.14403672	-73.34968431	57.51661469	-90
12481	0	0.377685547	-0.092346191	0.05682373	0.999999046	6.48E-05	-0.00026989	0.000545502	9.442138672	-2.308654785	1.420593262	0.003242493	-0.013494492	0.027275087	-0.670654297	0.213623047	-0.751708984	890.78	-58.31469537	-73.31587941	57.70715898	-90
12482	0	0.379019737	-0.092020035	0.056874275	0.999999046	-0.000150681	-0.000183105	0.00018692	9.475493431	-2.30050087	1.42185688	-0.007534027	-0.009155274	0.009346008	-0.668212891	0.213623047	-0.749023438	890.88	-58.40937862	-73.31197865	57.79182635	-91
12483	0	0.378723145	-0.093811035	0.056274414	0.999999046	0.000171661	-0.000502586	-0.00012207	9.468078613	-2.345275879	1.406860352	0.008583069	-0.025129319	-0.006103516	-0.672851563	0.213623047	-0.748779297	890.94	-58.50973466	-73.35755846	57.9216198	-91
12484	0	0.378745079	-0.094125748	0.059708595	0.999999046	0.000161171	-0.000581741	-0.000114441	9.468626976	-2.353143692	1.492714882	0.008058548	-0.029087068	-0.005722046	-0.670654297	0.215820313	-0.749023438	890.94	-58.63906859	-73.40711368	58.07492684	-89
12485	0	0.377868652	-0.096557617	0.061645508	0.999999046	0.000404358	-0.000536919	-0.000324249	9.446716309	-2.41394043	1.541137695	0.020217897	-0.026845934	-0.016212465	-0.672851563	0.211425781	-0.745605469	890.88	-58.68405761	-73.47435809	58.1747235	-89
12486	0	0.380378723	-0.096932411	0.06198597	0.999999046	0.000417709	-6.10E-05	-0.000321388	9.509468079	-2.42331028	1.549649239	0.020885469	-0.003051758	-0.016069413	-0.675292969	0.211669922	-0.748535156	890.9	-58.57065985	-73.5128246	58.10987662	-88
12487	0	0.377929688	-0.097290039	0.062927246	0.999999046	4.20E-05	0.000157356	-0.000110626	9.448242188	-2.432250977	1.573181152	0.002098084	0.007867813	-0.005531311	-0.672851563	0.211425781	-0.748535156	891	-58.46994219	-73.51737883	58.01235032	-88
12488	0	0.379639626	-0.095858574	0.061893463	0.999999046	-2.00E-05	0.000619888	1.43E-05	9.490990639	-2.396464348	1.547336578	-0.001001358	0.030994417	0.000715256	-0.675048828	0.211669922	-0.751220703	890.94	-58.24893918	-73.4817662	57.78300581	-90
12489	0	0.377990723	-0.094543457	0.061706543	0.999999046	-0.000518799	0.001042366	0.000247955	9.449768066	-2.363586426	1.542663574	-0.025939948	0.052118314	0.012397769	-0.672851563	0.209228516	-0.745605469	890.9	-57.99527969	-73.39753464	57.4644203	-91
12490	0	0.376159668	-0.094787598	0.059692383	0.999999046	-0.000522614	0.000984192	0.000465393	9.403991699	-2.369689941	1.49230957	-0.026130683	0.049209607	0.023269659	-0.66796875	0.211181641	-0.757324219	890.88	-57.80811716	-73.29537826	57.21377305	-93
12491	0	0.3786726	-0.095144272	0.057686806	0.999997139	-0.00015831	0.000786781	0.000301361	9.466814995	-2.378606796	1.442170143	-0.007915498	0.03933907	0.015068056	-0.668212891	0.213378906	-0.754638672	890.88	-57.6122942	-73.22105735	56.9947303	-91
12492	0	0.377990723	-0.093505859	0.055969238	0.999999046	0.000115395	0.000789642	0.000171661	9.449768066	-2.337646484	1.399230957	0.00576973	0.039482121	0.00858307	-0.668212891	0.213378906	-0.754638672	890.94	-57.36015949	-73.15907888	56.74972329	-93
12493	0	0.373291016	-0.09375	0.057556152	0.999999046	-4.58E-05	0.000290871	0.000469208	9.332275391	-2.34375	1.438903809	-0.002288818	0.014543534	0.023460389	-0.668212891	0.213623047	-0.751953125	890.94	-57.34760777	-73.09918893	56.73599164	-93
12494	0	0.375	-0.091918945	0.057739258	0.999999046	-6.48E-05	0.000137329	0.000602722	9.375	-2.297973633	1.443481445	-0.003242493	0.006866456	0.03013611	-0.665771484	0.213378906	-0.754882813	890.84	-57.41316615	-73.03614815	56.80295072	-92
12495	0	0.375793457	-0.091369629	0.056945801	0.999999046	-0.000774384	0.000458717	0.000350952	9.394836426	-2.284240723	1.42364502	-0.038719183	0.022935871	0.01754761	-0.665771484	0.215576172	-0.7578125	890.94	-57.4075298	-72.97788738	56.71001694	-92
12496	0	0.37713623	-0.095031738	0.05682373	0.999999046	-0.000624657	0.000102997	0.000328064	9.428405762	-2.375793457	1.420593262	-0.031232837	0.005149842	0.0164032	-0.663574219	0.217773438	-0.758056641	890.94	-57.49295224	-72.94398973	56.72783518	-92
12497	0	0.376464844	-0.095214844	0.055541992	0.999999046	-2.67E-05	-0.000243187	0.000267029	9.411621094	-2.380371094	1.388549805	-0.001335144	-0.012159348	0.013351441	-0.663818359	0.217773438	-0.752441406	890.9	-57.6072329	-72.93749804	56.84704276	-90
12498	0	0.376654625	-0.094103813	0.05681324	0.999992371	-0.000220299	-0.000452995	0.00021553	9.416365623	-2.352595329	1.420331001	-0.011014939	-0.022649766	0.01077652	-0.663818359	0.219970703	-0.755371094	890.94	-57.80000225	-72.94898446	57.02256055	-93
12499	0	0.377685547	-0.095703125	0.05871582	0.999999046	-0.0001297	-0.00070858	0.000183105	9.442138672	-2.392578125	1.467895508	-0.006484986	-0.035429004	0.009155274	-0.663574219	0.217773438	-0.755371094	890.94	-58.05747309	-72.9791013	57.28059174	-90
12500	0	0.377124786	-0.097138405	0.06071949	0.999998093	-0.000282288	-0.000697136	6.48E-05	9.428119659	-2.428460121	1.517987251	-0.014114381	-0.0348568	0.003242493	-0.666015625	0.217773438	-0.749511719	890.84	-58.30629334	-73.01970892	57.51169536	-92
12501	0	0.377685547	-0.098876953	0.060791016	0.999999046	5.34E-05	-0.000666618	0.000366211	9.442138672	-2.471923828	1.519775391	0.002670288	-0.033330921	0.018310549	-0.666259766	0.219970703	-0.749755859	890.96	-58.56700214	-73.02867882	57.79201389	-93
12502	0	0.379577637	-0.098510742	0.061706543	0.999999046	0.000217438	-0.000694275	0.000514984	9.489440918	-2.462768555	1.542663574	0.010871889	-0.03471375	0.02574921	-0.668457031	0.219970703	-0.752441406	890.9	-58.8466913	-73.02427938	58.11347387	-90
12503	0	0.379760742	-0.098754883	0.061279297	0.999999046	0.000648499	-0.000441551	0.00050354	9.494018555	-2.46887207	1.531982422	0.032424931	-0.022077564	0.025177006	-0.666259766	0.219970703	-0.752441406	890.94	-58.99301244	-73.00564634	58.34535072	-90
12504	0	0.377746582	-0.094665527	0.061157227	0.999999046	6.58E-05	-0.000133514	0.000743866	9.443664551	-2.366638184	1.528930664	0.003290177	-0.006675721	0.037193302	-0.668457031	0.219970703	-0.749511719	890.94	-59.1520621	-72.94516329	58.52274978	-90
12505	0	0.38104248	-0.098510742	0.06036377	0.999999046	0.000366211	-0.000132561	0.000331879	9.526062012	-2.462768555	1.509094238	0.018310548	-0.006628037	0.016593934	-0.668457031	0.219970703	-0.752441406	891	-59.19655951	-72.92509445	58.61644442	-90
12506	0	0.376647949	-0.094970703	0.061218262	0.999999046	0.000621796	0.000171661	8.01E-05	9.41619873	-2.374267578	1.530456543	0.031089785	0.008583069	0.004005432	-0.668457031	0.219970703	-0.752441406	890.88	-59.06547994	-72.9120062	58.55553981	-91
12507	0	0.377685547	-0.095825195	0.060913086	0.999999046	0.00038147	0.000226021	0.00012207	9.442138672	-2.395629883	1.522827148	0.019073487	0.011301041	0.006103516	-0.666259766	0.219970703	-0.749755859	890.94	-58.95226906	-72.89162048	58.48234015	-90
12508	0	0.378112793	-0.093322754	0.06048584	0.999999046	0.000279427	0.00044632	5.72E-05	9.452819824	-2.333068848	1.512145996	0.013971329	0.02231598	0.002861023	-0.668457031	0.219970703	-0.752441406	890.84	-58.76778707	-72.86468554	58.32320671	-90
12509	0	0.378723145	-0.095581055	0.060180664	0.999999046	2.67E-05	0.00042057	-0.000183105	9.468078613	-2.389526367	1.504516602	0.001335144	0.021028519	-0.009155274	-0.666259766	0.219970703	-0.752441406	890.96	-58.57412519	-72.86277796	58.12267619	-91
12510	0	0.378234863	-0.097045898	0.058105469	0.999999046	0.000389099	0.000286102	-0.000335693	9.455871582	-2.426147461	1.452636719	0.019454957	0.014305116	-0.016784669	-0.666015625	0.217773438	-0.752197266	890.94	-58.35199565	-72.88372901	57.93761443	-91
12511	0	0.37512207	-0.095947266	0.057983398	0.999999046	0.000205994	0.000252724	-0.000255585	9.378051758	-2.398681641	1.449584961	0.010299683	0.012636185	-0.012779236	-0.666015625	0.215576172	-0.752197266	890.9	-58.17686878	-72.89879732	57.78240559	-88
12512	0	0.375793457	-0.096923828	0.05871582	0.999999046	0.000172615	8.77E-05	-0.000347137	9.394836426	-2.423095703	1.467895508	0.008630753	0.004386902	-0.017356873	-0.666015625	0.215576172	-0.752197266	890.96	-58.03963511	-72.93267578	57.661265	-89
12513	0	0.377441406	-0.09765625	0.058288574	0.999999046	0.000244141	0.000180244	-0.000415802	9.436035156	-2.44140625	1.457214355	0.012207032	0.009012223	-0.020790101	-0.665771484	0.213378906	-0.751953125	890.9	-57.85113331	-72.9675322	57.49698587	-88
12514	0	0.377319336	-0.098022461	0.059753418	0.999999046	0.000213623	8.39E-05	-0.000217438	9.432983398	-2.450561523	1.493835449	0.010681153	0.004196167	-0.010871887	-0.663574219	0.213378906	-0.752197266	890.94	-57.73590885	-72.98887281	57.40338673	-88
12515	0	0.37701416	-0.096069336	0.059570313	0.999999046	0.000297546	9.54E-07	3.81E-06	9.425354004	-2.401733398	1.489257813	0.01487732	4.77E-05	0.000190735	-0.665771484	0.213378906	-0.751953125	890.96	-57.68160648	-72.99386188	57.38345754	-90
12516	0	0.377502441	-0.095825195	0.060241699	0.999999046	0.000210762	-0.000114441	-3.05E-05	9.437561035	-2.395629883	1.50604248	0.010538101	-0.005722046	-0.001525879	-0.665771484	0.211181641	-0.754638672	890.88	-57.66695151	-73.0092869	57.39807741	-87
12517	0	0.376586914	-0.095153809	0.061523438	0.999999046	0.000347137	9.54E-07	3.43E-05	9.414672852	-2.378845215	1.538085938	0.017356873	4.77E-05	0.001716614	-0.665771484	0.211181641	-0.751708984	891	-57.61291599	-73.01137181	57.38625988	-85
12518	0	0.380981445	-0.094543457	0.06060791	0.999999046	0.000160217	-0.000183105	7.25E-05	9.524536133	-2.363586426	1.515197754	0.008010864	-0.009155274	0.003623962	-0.66796875	0.211181641	-0.757324219	890.82	-57.64619491	-73.02118592	57.44462093	-83
12519	0	0.376464844	-0.094909668	0.062316895	0.999999046	0.000217438	4.77E-06	-0.00012207	9.411621094	-2.372741699	1.557922363	0.010871887	0.000238419	-0.006103516	-0.66796875	0.211181641	-0.754638672	890.9	-57.57392663	-73.03829084	57.39788116	-81
12520	0	0.375427246	-0.094360352	0.06262207	0.999999046	0.000401497	-3.43E-05	7.63E-06	9.385681152	-2.359008789	1.565551758	0.020074845	-0.001716614	0.00038147	-0.66796875	0.211181641	-0.757324219	890.9	-57.51864539	-73.04522853	57.39002797	-79
12521	0	0.378295898	-0.094116211	0.061401367	0.999999046	0.000209808	0.000245094	0.000225067	9.457397461	-2.352905273	1.53503418	0.010490418	0.012254715	0.011253357	-0.66796875	0.209228516	-0.751464844	890.9	-57.44053937	-73.01401189	57.33794176	-78
12522	0	0.377502441	-0.094787598	0.0625	0.999999046	0.000171661	0.0001297	0.000148773	9.437561035	-2.369689941	1.5625	0.008583069	0.006484985	0.00743866	-0.66796875	0.209228516	-0.751464844	890.96	-57.38779805	-72.9972744	57.30751981	-76
12523	0	0.379994392	-0.095187187	0.060916901	0.99997139	0.000636101	9.54E-06	0.000109673	9.49985981	-2.37967968	1.522922516	0.031805041	0.000476837	0.005483628	-0.665771484	0.211181641	-0.751708984	890.94	-57.3119732	-72.99179861	57.30224527	-92
12524	0	0.376543045	-0.093777657	0.062141418	0.999999046	0.00117588	3.05E-05	0.000289917	9.413576126	-2.344441414	1.553535461	0.058794036	0.001525879	0.014495853	-0.665527344	0.206787109	-0.754394531	890.84	-57.20397564	-72.96770705	57.33377117	-92
12525	0	0.376037598	-0.092529297	0.062561035	0.999999046	0.000522614	5.05E-05	0.000198364	9.400939941	-2.313232422	1.564025879	0.026130678	0.002527237	0.009918213	-0.667724609	0.206787109	-0.757080078	891	-57.1457027	-72.95129156	57.33922975	-75
12526	0	0.377868652	-0.094482422	0.061523438	0.999999046	0.000209808	0.000343323	0	9.446716309	-2.362060547	1.538085938	0.010490418	0.017166138	0	-0.665527344	0.206787109	-0.754394531	890.94	-56.99130268	-72.93578392	57.20454082	-73
12527	0	0.37713623	-0.094543457	0.059387207	0.999999046	0.000347137	0.000245094	0.000160217	9.428405762	-2.363586426	1.484680176	0.017356873	0.012254715	0.008010865	-0.665527344	0.204589844	-0.754150391	890.96	-56.88511085	-72.91105915	57.14010321	-73
12528	0	0.377624512	-0.094421387	0.059875488	0.999999046	9.25E-05	7.25E-05	0.000305176	9.440612793	-2.360534668	1.496887207	0.004625321	0.003623962	0.015258789	-0.665527344	0.206787109	-0.760009766	890.92	-56.89191843	-72.88332752	57.16034415	-72
12529	0	0.375549316	-0.09197998	0.058532715	0.999999046	-4.20E-05	-6.68E-06	0.000183105	9.38873291	-2.299499512	1.463317871	-0.002098084	-0.000333786	0.009155273	-0.665527344	0.206787109	-0.754394531	890.96	-56.91421218	-72.87249967	57.18018968	-71
12530	0	0.375244141	-0.09173584	0.057678223	0.999999046	-0.000125885	-0.000274658	8.01E-05	9.381103516	-2.293395996	1.441955566	-0.006294251	-0.01373291	0.004005432	-0.665527344	0.204589844	-0.757080078	890.9	-57.00910539	-72.88856789	57.27065314	-71
12531	0	0.37890625	-0.092712402	0.059631348	0.999999046	0.000106812	-0.000437737	-0.000118256	9.47265625	-2.317810059	1.490783691	0.005340576	-0.021886826	-0.005912781	-0.665527344	0.206787109	-0.760009766	890.9	-57.08846158	-72.93404311	57.3678156	-72
12532	0	0.374938965	-0.092712402	0.06072998	0.999999046	-0.000102043	-0.000648499	-0.000118256	9.373474121	-2.317810059	1.518249512	-0.005102158	-0.032424929	-0.005912781	-0.667724609	0.206787109	-0.757080078	890.9	-57.25850591	-72.99265098	57.53476479	-73
12533	0	0.37677002	-0.093017578	0.064025879	0.999999046	-6.10E-05	-0.000548363	9.92E-05	9.419250488	-2.325439453	1.600646973	-0.003051758	-0.027418138	0.004959107	-0.665527344	0.204589844	-0.754150391	890.96	-57.43664565	-73.02395101	57.71774192	-78
12534	0	0.378723145	-0.094787598	0.064880371	0.999999046	-0.000377655	-0.000495911	2.29E-05	9.468078613	-2.369689941	1.622009277	-0.018882753	-0.024795534	0.001144409	-0.667724609	0.204589844	-0.759765625	890.92	-57.61910729	-73.05916761	57.86977838	-83
12535	0	0.378723145	-0.094543457	0.06439209	0.999999046	-0.000148773	-0.000231743	-9.92E-05	9.468078613	-2.363586426	1.609802246	-0.00743866	-0.011587143	-0.004959107	-0.66796875	0.20703125	-0.754150391	890.9	-57.66661461	-73.08984993	57.90252426	-80
12536	0	0.378601074	-0.095397949	0.06451416	0.999999046	-0.000235558	-5.72E-05	-0.000106812	9.465026855	-2.38494873	1.612854004	-0.011777878	-0.002861023	-0.005340576	-0.670410156	0.20703125	-0.751220703	890.84	-57.66644148	-73.11046273	57.87590917	-76
12537	0	0.376953125	-0.094482422	0.064453125	0.999999046	-0.000362396	0.000130653	0.000179291	9.423828125	-2.362060547	1.611328125	-0.018119813	0.006532669	0.008964539	-0.670166016	0.20703125	-0.754150391	890.84	-57.67801715	-73.09176294	57.84812391	-75
12538	0	0.37701416	-0.095214844	0.062561035	0.999999046	-0.000469208	0.000282288	3.81E-05	9.425354004	-2.380371094	1.564025879	-0.023460389	0.014114381	0.001907349	-0.670410156	0.209228516	-0.751464844	890.92	-57.62490598	-73.07735284	57.73678489	-76
12539	0	0.377868652	-0.093444824	0.059265137	0.999999046	-0.000457764	0.000279427	-9.16E-05	9.446716309	-2.336120605	1.481628418	-0.022888185	0.013971329	-0.004577637	-0.670166016	0.20703125	-0.756835938	890.84	-57.54539922	-73.07574182	57.6051455	-79
12540	0	0.377990723	-0.094909668	0.060302734	0.999999046	-0.000460625	0.000205994	-9.54E-05	9.449768066	-2.372741699	1.507568359	-0.023031236	0.010299683	-0.004768372	-0.66796875	0.208984375	-0.757080078	890.92	-57.48887799	-73.07898705	57.49329678	-79
12541	0	0.37713623	-0.093933105	0.05847168	0.999999046	-0.00018692	9.54E-07	3.05E-05	9.428405762	-2.348327637	1.461791992	-0.009346008	4.77E-05	0.001525879	-0.665527344	0.208984375	-0.754394531	891	-57.49188359	-73.08277328	57.47522398	-72
12542	0	0.376225471	-0.091103554	0.058753967	0.999977112	-0.000475883	-6.20E-05	0.000169754	9.405636787	-2.277588844	1.468849182	-0.023794175	-0.003099442	0.008487702	-0.665527344	0.208984375	-0.757324219	890.88	-57.57615145	-73.07716335	57.50954335	-92
12543	0	0.379821777	-0.094787598	0.057800293	0.999999046	-0.000335693	-0.000357628	-0.000411987	9.495544434	-2.369689941	1.445007324	-0.016784669	-0.017881395	-0.020599367	-0.66796875	0.208984375	-0.757080078	890.86	-57.62138003	-73.14609331	57.52029353	-92
12544	0	0.377197266	-0.094238281	0.06036377	0.999999046	-0.00026226	-0.000450134	-0.000411987	9.429931641	-2.355957031	1.509094238	-0.013113023	-0.022506716	-0.020599367	-0.66796875	0.209228516	-0.748535156	890.9	-57.68804923	-73.22069092	57.55948266	-69
12545	0	0.376173019	-0.096656799	0.061440468	0.999998093	-0.000247002	-0.000448227	-0.000153542	9.404325485	-2.416419983	1.536011696	-0.012350083	-0.022411348	-0.007677079	-0.670410156	0.209228516	-0.754150391	890.92	-57.80541373	-73.26994233	57.65531001	-91
12546	0	0.378453255	-0.094154358	0.061695099	0.999999046	-0.000370026	-0.000360489	4.20E-05	9.461331367	-2.353858948	1.542377472	-0.018501283	-0.018024445	0.002098084	-0.670410156	0.209228516	-0.754150391	890.9	-57.94847258	-73.29476425	57.76400268	-90
12547	0	0.37890625	-0.095458984	0.060852051	0.999999046	-0.000450134	-0.000102043	-2.29E-05	9.47265625	-2.386474609	1.52130127	-0.022506715	-0.005102158	-0.001144409	-0.670410156	0.209228516	-0.754150391	890.9	-58.00404913	-73.31004772	57.77269309	-90
12548	0	0.378922462	-0.094825745	0.060993195	0.999999046	-0.000206947	-3.05E-05	-3.05E-05	9.473061562	-2.370643616	1.524829865	-0.010347366	-0.001525879	-0.001525879	-0.670410156	0.209228516	-0.751464844	890.84	-58.00686219	-73.32166489	57.75515183	-90
12549	0	0.37890625	-0.094482422	0.061584473	0.999999046	-0.000255585	-0.000113487	6.48E-05	9.47265625	-2.362060547	1.539611816	-0.012779236	-0.005674362	0.003242493	-0.672607422	0.209228516	-0.751220703	890.9	-58.06119647	-73.3289813	57.78715516	-90
12550	0	0.377198219	-0.09444046	0.060167313	0.999999046	-0.000205994	6.29E-05	0.000221252	9.429955482	-2.361011505	1.504182816	-0.010299683	0.003147125	0.011062622	-0.670410156	0.211425781	-0.748779297	890.9	-58.08412693	-73.31032989	57.78752097	-90
12551	0	0.376953125	-0.091369629	0.059814453	0.999999046	-0.000499725	0.000149727	0.000270844	9.423828125	-2.284240723	1.495361328	-0.024986269	0.007486344	0.013542176	-0.670410156	0.211425781	-0.751464844	890.9	-58.12221138	-73.28168736	57.77112701	-69
12552	0	0.379080772	-0.094076157	0.060199738	0.999998093	-0.000246048	0.000235558	-0.000174522	9.47701931	-2.351903915	1.504993439	-0.012302399	0.011777878	-0.00872612	-0.668212891	0.213378906	-0.754638672	890.9	-58.01345413	-73.29114844	57.62754379	-91
12553	0	0.378234863	-0.093688965	0.059509277	0.999999046	-0.000305176	-1.05E-05	-6.48E-05	9.455871582	-2.342224121	1.487731934	-0.015258789	-0.000524521	-0.003242493	-0.670410156	0.211425781	-0.754394531	890.92	-58.01317859	-73.30487139	57.59545838	-81
12554	0	0.378430367	-0.093979836	0.05785656	0.999998093	-0.000151634	-0.000149727	-1.53E-05	9.460759163	-2.349495888	1.446413994	-0.007581711	-0.007486343	-0.000762939	-0.668212891	0.213378906	-0.754638672	890.86	-58.05072186	-73.32226863	57.61642016	-91
12555	0	0.376342773	-0.091918945	0.05871582	0.999999046	-0.000110626	-0.00020504	-1.53E-05	9.408569336	-2.297973633	1.467895508	-0.005531311	-0.010251999	-0.000762939	-0.670410156	0.211425781	-0.751464844	890.92	-58.10149293	-73.34309203	57.66034139	-90
12556	0	0.380371094	-0.093811035	0.05847168	0.999999046	-6.77E-05	-0.00012207	-0.000328064	9.509277344	-2.345275879	1.461791992	-0.003385544	-0.006103516	-0.016403199	-0.672851563	0.213623047	-0.748779297	890.84	-58.05707731	-73.38935928	57.60530951	-72
12557	0	0.374884605	-0.09498024	0.058318138	0.999998093	-2.00E-05	-0.000289917	8.20E-05	9.372115135	-2.374505997	1.457953453	-0.001001358	-0.01449585	0.0041008	-0.672851563	0.211425781	-0.751464844	890.9	-58.14544078	-73.40581565	57.69922084	-91
12558	0	0.375671387	-0.092895508	0.061401367	0.999999046	0.000236511	-0.000419617	0.00063324	9.391784668	-2.322387695	1.53503418	0.011825563	-0.020980837	0.031661991	-0.672851563	0.211425781	-0.748535156	890.84	-58.35786641	-73.37623827	57.95336178	-67
12559	0	0.380249023	-0.091796875	0.059082031	0.999999046	0.000167847	-0.00026226	0.000362396	9.506225586	-2.294921875	1.477050781	0.008392334	-0.013113022	0.018119813	-0.672851563	0.211425781	-0.751464844	890.9	-58.47144937	-73.36356518	58.09676038	-70
12560	0	0.380981445	-0.090820313	0.058837891	0.999999046	-0.000124931	-6.87E-05	0.000213623	9.524536133	-2.270507813	1.470947266	-0.006246567	-0.003433228	0.010681152	-0.670654297	0.215820313	-0.749023438	890.9	-58.52499787	-73.35393852	58.13303886	-86
12561	0	0.381103516	-0.092956543	0.059326172	0.999999046	-0.000202179	-0.000159264	0.000144958	9.527587891	-2.323913574	1.483154297	-0.010108948	-0.007963181	0.007247925	-0.673095703	0.215820313	-0.74609375	890.92	-58.6030101	-73.35649661	58.18707154	-80
12562	0	0.378112793	-0.093322754	0.059997559	0.999999046	-8.39E-05	-0.000213623	9.54E-05	9.452819824	-2.333068848	1.499938965	-0.004196167	-0.010681152	0.004768372	-0.672851563	0.213623047	-0.748779297	891	-58.67507298	-73.3671226	58.25398101	-77
12563	0	0.378691673	-0.091321945	0.060052872	0.999993324	-8.58E-05	-0.000121117	0.000187874	9.467291832	-2.28304863	1.501321793	-0.004291534	-0.006055832	0.009393692	-0.670654297	0.213623047	-0.751708984	890.92	-58.73498268	-73.36323981	58.30793404	-91
12564	0	0.376281738	-0.094238281	0.058959961	0.999999046	-0.000349998	1.53E-05	9.54E-05	9.407043457	-2.355957031	1.473999023	-0.017499924	0.000762939	0.004768372	-0.672851563	0.213623047	-0.748779297	890.8	-58.76191806	-73.36024901	58.29747089	-74
12565	0	0.379962921	-0.095104218	0.057070732	0.999998093	-0.000308037	0.000217438	-7.44E-05	9.499073029	-2.377605438	1.426768303	-0.015401841	0.010871887	-0.00371933	-0.672851563	0.213623047	-0.748779297	890.9	-58.68424312	-73.36186786	58.18332598	-91
12566	0	0.378157616	-0.09553051	0.057177544	0.999999046	-0.000282288	0.000144958	0.000205994	9.453940392	-2.388262749	1.429438591	-0.01411438	0.007247925	0.010299683	-0.673095703	0.215820313	-0.749023438	890.84	-58.68354842	-73.34029507	58.14958189	-88
12567	0	0.375976563	-0.093933105	0.058288574	0.999999046	-0.000198364	-0.000178337	0.00030899	9.399414063	-2.348327637	1.457214355	-0.009918213	-0.008916855	0.015449524	-0.673095703	0.215820313	-0.751708984	890.9	-58.79941401	-73.32785071	58.2491617	-89
12568	0	0.381735802	-0.096206665	0.058174133	0.999999046	0.000247002	-0.000295639	-0.000123024	9.543395042	-2.405166626	1.454353333	0.012350083	-0.014781952	-0.0061512	-0.673095703	0.215820313	-0.749023438	890.92	-58.81715961	-73.36466265	58.29754409	-88
12569	0	0.37689209	-0.094848633	0.058776855	0.999999046	0.000106812	-0.000247002	-0.00019455	9.422302246	-2.37121582	1.469421387	0.005340576	-0.012350083	-0.009727478	-0.673095703	0.215820313	-0.749023438	890.9	-58.82083983	-73.40553562	58.31321732	-88
12570	0	0.377258301	-0.097412109	0.05859375	0.999999046	0.000522614	-0.000499725	0.000274658	9.43145752	-2.435302734	1.46484375	0.026130679	-0.02498627	0.013732912	-0.670654297	0.213623047	-0.748779297	890.9	-58.95374807	-73.41516575	58.51529399	-74
12571	0	0.379657745	-0.094735146	0.060358047	0.999998093	0.000386238	-0.000320435	0.000616074	9.491443634	-2.368378639	1.508951187	0.019311907	-0.01602173	0.030803684	-0.675292969	0.213623047	-0.751464844	890.78	-59.11028896	-73.38047007	58.72862503	-88
12572	0	0.379753113	-0.095503807	0.05846405	0.999999046	-3.34E-05	-8.39E-05	0.000553131	9.49382782	-2.387595177	1.461601257	-0.00166893	-0.004196167	0.027656557	-0.673095703	0.213623047	-0.745849609	890.92	-59.22387196	-73.33789999	58.84627512	-88
12573	0	0.379114151	-0.095129013	0.060590744	0.999999046	0.000377655	-7.72E-05	0.000384331	9.477853775	-2.378225327	1.5147686	0.018882752	-0.003862381	0.019216538	-0.675537109	0.216064453	-0.745849609	890.92	-59.25427178	-73.31144815	58.92226823	-89
12574	0	0.378746986	-0.094399452	0.059931755	0.999999046	0.000324249	0.000185013	0.000102043	9.46867466	-2.359986305	1.498293877	0.016212464	0.009250641	0.005102158	-0.675292969	0.213867188	-0.748535156	890.9	-59.14905356	-73.29739789	58.85420782	-89
12575	0	0.376324654	-0.094975471	0.061239243	0.999999046	0.000274658	0.00039959	-0.000200272	9.408116341	-2.374386787	1.530981064	0.013732911	0.019979478	-0.010013581	-0.675292969	0.213867188	-0.745849609	890.86	-58.9194875	-73.30023521	58.64844963	-89
12576	0	0.377225876	-0.09516716	0.059945107	0.999999046	0.000664711	0.000383377	-0.000383377	9.430646896	-2.379179001	1.498627663	0.033235554	0.019168856	-0.019168856	-0.673095703	0.213623047	-0.745849609	890.9	-58.61383933	-73.32162988	58.40616766	-89
12577	0	0.378778458	-0.094148636	0.056877136	0.999999046	0.000667572	0.000470161	-0.000448227	9.469461441	-2.353715897	1.421928406	0.033378606	0.023508075	-0.02241135	-0.672851563	0.211425781	-0.748535156	890.86	-58.2661303	-73.34383268	58.12175832	-89
12578	0	0.378074646	-0.095641136	0.054869652	0.999999046	0.00031662	0.00047493	-0.000383377	9.45186615	-2.391028404	1.371741295	0.015830995	0.023746492	-0.019168855	-0.670410156	0.211425781	-0.751464844	890.84	-57.97031752	-73.35901986	57.84674989	-90
12579	0	0.376385689	-0.095129013	0.055651665	0.999999046	0.000534058	0.000185966	-8.49E-05	9.40964222	-2.378225327	1.391291618	0.026702882	0.009298325	-0.004243851	-0.672607422	0.20703125	-0.75390625	890.96	-57.80466852	-73.3625459	57.7418469	-92
12580	0	0.375526428	-0.094212532	0.05594635	0.999999046	0.000355721	-0.000116348	-9.54E-05	9.388160706	-2.355313301	1.398658752	0.017786026	-0.005817413	-0.004768372	-0.66796875	0.209228516	-0.751464844	890.86	-57.75601895	-73.38552397	57.72889578	-91
12581	0	0.379462242	-0.095438957	0.056616783	0.999999046	0.000629425	-0.000237465	-0.00026226	9.486556053	-2.38597393	1.415419579	0.031471255	-0.011873246	-0.013113023	-0.670410156	0.20703125	-0.751220703	890.92	-57.68168246	-73.43209569	57.72439573	-92
12582	0	0.375447273	-0.095513344	0.058814049	0.999999046	0.000324249	-0.000391006	-0.000310898	9.386181831	-2.387833595	1.470351219	0.016212464	-0.019550325	-0.015544892	-0.672607422	0.204833984	-0.753662109	890.92	-57.68260889	-73.49266401	57.76544506	-92
12583	0	0.375491142	-0.095767021	0.060846329	0.999999046	0.00056076	-0.0004282	-8.58E-05	9.387278557	-2.394175529	1.521158218	0.028038027	-0.02140999	-0.004291535	-0.672607422	0.204833984	-0.748046875	890.92	-57.7154218	-73.53350001	57.86467356	-92
12584	0	0.3786726	-0.095309258	0.062030792	0.999999046	0.000329018	-0.00025177	-0.000372887	9.466814995	-2.382731438	1.550769806	0.016450883	-0.012588502	-0.018644334	-0.674804688	0.205078125	-0.753662109	890.92	-57.65738428	-73.59115537	57.84047671	-90
12585	0	0.379760742	-0.096130371	0.060852051	0.999999046	0.000427246	4.67E-05	-0.000484467	9.494018555	-2.403259277	1.52130127	0.021362306	0.002336502	-0.024223329	-0.672363281	0.202636719	-0.750732422	890.92	-57.4661846	-73.6410582	57.68965536	-87
12586	0	0.377773285	-0.096200943	0.060785294	0.999999046	0.00028038	5.15E-05	-0.000390053	9.444332123	-2.405023575	1.519632339	0.014019013	0.002574921	-0.019502641	-0.674560547	0.200683594	-0.753173828	890.9	-57.30939498	-73.68120278	57.5603665	-85
12587	0	0.376098633	-0.09576416	0.060791016	0.999999046	0.000461578	-7.15E-05	-0.000217438	9.40246582	-2.394104004	1.519775391	0.023078919	-0.003576279	-0.010871888	-0.672363281	0.198486328	-0.747558594	890.9	-57.20856527	-73.71201217	57.51127054	-83
12588	0	0.378772736	-0.095606804	0.05923748	0.999999046	0.000548363	-2.48E-05	-0.000393867	9.46931839	-2.390170097	1.480937004	0.027418139	-0.001239777	-0.019693376	-0.674560547	0.198486328	-0.753173828	890.92	-57.04486687	-73.75670364	57.40578767	-81
12589	0	0.37902832	-0.096313477	0.058166504	0.999999046	0.000549316	-2.19E-05	-0.000667572	9.475708008	-2.407836914	1.454162598	0.027465824	-0.001096726	-0.033378605	-0.674560547	0.196289063	-0.75	890.84	-56.82108146	-73.82723431	57.23795576	-79
12590	0	0.381175041	-0.097022057	0.059170723	0.999999046	0.000892639	-0.000183105	-0.00088501	9.52937603	-2.425551414	1.479268074	0.04463197	-0.009155276	-0.0442505	-0.674560547	0.196289063	-0.752929688	890.92	-56.56281142	-73.92831573	57.06998293	-78
12591	0	0.379516602	-0.097839355	0.057189941	0.999999046	0.000907898	-0.000117302	-0.00100708	9.487915039	-2.445983887	1.429748535	0.045394911	-0.005865099	-0.050354019	-0.676757813	0.191894531	-0.752441406	890.84	-56.25231784	-74.03641092	56.85345281	-76
12592	0	0.375145912	-0.095757484	0.058374405	0.999999046	0.000664711	-0.00022316	-0.00094223	9.378647804	-2.393937111	1.459360123	0.033235558	-0.011157992	-0.047111522	-0.676513672	0.189697266	-0.755126953	890.9	-56.01715164	-74.14452658	56.68594352	-75
12593	0	0.37713623	-0.096496582	0.059082031	0.999998093	0.000870705	-0.000408173	-0.001037598	9.428405762	-2.412414551	1.477050781	0.043535247	-0.020408637	-0.0518799	-0.676513672	0.1875	-0.755126953	890.9	-55.79693872	-74.2730581	56.55692248	-73
12594	0	0.379525185	-0.097863197	0.060041428	0.999998093	0.000872612	-0.000336647	-0.001244545	9.488129616	-2.446579933	1.50103569	0.043630618	-0.016832358	-0.062227274	-0.681152344	0.183349609	-0.748779297	890.96	-55.50241885	-74.4159719	56.35410386	-73
12595	0	0.37701416	-0.09954834	0.063720703	0.999999046	0.00043869	-0.000193596	-0.001213074	9.425354004	-2.488708496	1.593017578	0.021934515	-0.009679797	-0.060653704	-0.678710938	0.181152344	-0.754394531	890.86	-55.21268747	-74.54565493	56.10364897	-72
12596	0	0.371119499	-0.100300789	0.065312386	0.999998093	0.00079155	-0.000121117	-0.001351357	9.27798748	-2.507519722	1.632809639	0.0395775	-0.006055834	-0.067567853	-0.678710938	0.181152344	-0.751708984	890.9	-54.82040136	-74.6823064	55.78200854	-71
12597	0	0.372924805	-0.099365234	0.064208984	0.999997139	0.001491547	0.00017643	-0.001815796	9.323120117	-2.484130859	1.605224609	0.074577401	0.008821496	-0.090789879	-0.680908203	0.174560547	-0.748046875	890.86	-54.12550761	-74.84088844	55.23423425	-71
12598	0	0.377120018	-0.101778984	0.06238842	0.999996185	0.001284599	0.000308037	-0.002083778	9.42800045	-2.544474602	1.559710503	0.06423003	0.015401856	-0.104189025	-0.683105469	0.172607422	-0.750732422	890.86	-53.32973189	-75.01262912	54.55300725	-72
12599	0	0.376403809	-0.102600098	0.061462402	0.999996185	0.001420021	0.000297546	-0.002277374	9.410095215	-2.565002441	1.536560059	0.071001139	0.014877337	-0.113868852	-0.682617188	0.166015625	-0.752929688	890.84	-52.45638821	-75.19937678	53.81066813	-73
12600	0	0.374629974	-0.100111008	0.061605453	0.999996185	0.00202179	-7.34E-05	-0.00177002	9.365749359	-2.502775192	1.540136337	0.101089599	-0.003671651	-0.088501083	-0.682373047	0.161621094	-0.755615234	890.92	-51.76137236	-75.36292231	53.32217801	-78
12601	0	0.374206543	-0.096191406	0.063476563	0.999995232	0.002315521	-0.000403404	-0.001598358	9.355163574	-2.404785156	1.586914063	0.115776218	-0.020170239	-0.079918015	-0.684570313	0.157226563	-0.7578125	890.9	-51.1829188	-75.53250302	52.98728019	-83
12602	0	0.371074677	-0.091966629	0.063422203	0.999994278	0.00266552	-0.000323296	-0.001721382	9.276866913	-2.299165726	1.585555077	0.133276212	-0.016164807	-0.086069253	-0.686767578	0.148681641	-0.751464844	890.96	-50.49189908	-75.7056331	52.582418	-80
12603	0	0.373168945	-0.089355469	0.06451416	0.999995232	0.002147675	-0.000189781	-0.002037048	9.329223633	-2.233886719	1.612854004	0.107383885	-0.009489073	-0.101852566	-0.688720703	0.144287109	-0.753662109	890.9	-49.70919791	-75.89478594	52.01934904	-76
12604	0	0.370627403	-0.088358879	0.065732002	0.999995232	0.001826286	-3.62E-05	-0.002392769	9.265685081	-2.208971977	1.643300056	0.091314454	-0.001811984	-0.119638624	-0.688476563	0.137695313	-0.756103516	890.86	-48.78497964	-76.10058778	51.27398394	-75
12605	0	0.370117188	-0.085449219	0.062927246	0.999994278	0.001908302	-0.000106812	-0.002487183	9.252929688	-2.136230469	1.573181152	0.095415272	-0.005340585	-0.124359335	-0.692871094	0.129150391	-0.758056641	890.96	-47.82289416	-76.31633343	50.50612646	-76
12606	0	0.377332687	-0.084859848	0.063052177	0.999991417	0.002140045	-0.000272751	-0.003448486	9.433317184	-2.121496201	1.576304436	0.107002553	-0.01363758	-0.172424792	-0.692626953	0.126953125	-0.754882813	890.86	-46.55046357	-76.62169488	49.43452281	-79
12607	0	0.372680664	-0.082458496	0.062011719	0.999991417	0.001667023	-0.000308037	-0.003608704	9.317016602	-2.061462402	1.550292969	0.083351356	-0.015401881	-0.180435659	-0.694580078	0.118164063	-0.762695313	890.92	-45.23798356	-76.93687843	48.27080631	-79
12608	0	0.366234779	-0.080816269	0.066637039	0.999990463	0.001724243	-0.000519753	-0.003883362	9.155869484	-2.020406723	1.66592598	0.086212421	-0.025987704	-0.194168684	-0.696777344	0.111816406	-0.756347656	890.9	-43.83443933	-77.28430565	47.01878878	-72
12609	0	0.368713379	-0.08013916	0.06628418	0.999983788	0.00258255	-0.00052166	-0.005012512	9.217834473	-2.003479004	1.657104492	0.129128193	-0.026083132	-0.25062695	-0.698730469	0.100830078	-0.755371094	890.96	-41.82231711	-77.71068157	45.24658678	-69
12610	0	0.371203423	-0.081141472	0.067180634	0.99998188	0.001745224	-0.000514984	-0.005645752	9.280085564	-2.028536797	1.679515839	0.087261712	-0.025749358	-0.282289253	-0.702636719	0.090087891	-0.762695313	890.96	-39.50998627	-78.16816334	43.07352143	-68
12611	0	0.369140625	-0.083740234	0.066833496	0.999975204	0.002430916	-0.000835419	-0.006526947	9.228515625	-2.093505859	1.670837402	0.121546788	-0.041771278	-0.326350028	-0.704589844	0.079101563	-0.759033203	890.96	-36.65471192	-78.69490944	40.42652353	-69
12612	0	0.36236763	-0.082406998	0.068655968	0.999969482	0.002616882	-0.00099659	-0.007176399	9.05919075	-2.060174942	1.716399193	0.13084541	-0.049829976	-0.35882351	-0.706542969	0.066162109	-0.760742188	890.82	-33.25137964	-79.24854847	37.24548809	-81
12613	0	0.356750488	-0.07989502	0.073242188	0.999959946	0.004029274	-0.00087738	-0.007835388	8.918762207	-1.997375488	1.831054688	0.201466332	-0.043869592	-0.391774528	-0.710449219	0.051025391	-0.759277344	890.92	-28.94473189	-79.78602219	33.31243794	-72
12614	0	0.353102684	-0.075564384	0.071791649	0.999950409	0.004639626	-0.001139641	-0.008698463	8.827567101	-1.889109612	1.794791222	0.231985086	-0.056982976	-0.434930311	-0.712158203	0.033447266	-0.757568359	890.9	-23.68931897	-80.33169477	28.49023042	-67
12615	0	0.349853516	-0.071960449	0.068969727	0.999951363	0.002628326	-0.000155449	-0.00944519	8.746337891	-1.79901123	1.724243164	0.131418427	-0.00777257	-0.472267089	-0.715820313	0.013916016	-0.761474609	890.92	-17.41611958	-80.71458372	22.41408298	-70
12616	0	0.334691048	-0.074926376	0.070435524	0.999941826	0.003788948	-0.000152588	-0.010026932	8.367276192	-1.873159409	1.7608881	0.189451032	-0.007629541	-0.501356191	-0.717529297	-0.003417969	-0.760009766	890.92	-10.16351021	-80.99150531	15.48068809	-86
12617	0	0.329284668	-0.049682617	0.072875977	0.999941826	0.003108978	-0.000216484	-0.010307312	8.232116699	-1.24206543	1.821899414	0.155451918	-0.010824413	-0.515375561	-0.718994141	-0.025390625	-0.760986328	890.86	-2.466724837	-81.13268213	8.028495017	-80
12618	0	0.323359489	-0.068696976	0.0738554	0.999908447	-0.000134468	0.00171566	-0.013370514	8.083987236	-1.717424393	1.846385002	-0.006723608	0.085785603	-0.668545946	-0.720458984	-0.042724609	-0.762451172	890.86	7.00313705	-80.86272162	-1.59999917	-77
12619	0	0.289489746	-0.059509277	0.067382813	0.999899864	-0.00025177	0.003613472	-0.01367569	7.237243652	-1.487731934	1.684570313	-0.012588921	0.180679627	-0.683807296	-0.717285156	-0.0625	-0.766601563	890.92	15.52534645	-80.13977269	-10.29402477	-74
12620	0	0.273204803	-0.088166237	0.05996418	0.999848366	0.002671242	0.003866196	-0.01674366	6.830120087	-2.204155922	1.4991045	0.133568821	0.193319529	-0.837225203	-0.714111328	-0.082275391	-0.770751953	891.02	24.65353345	-79.05773556	-19.30853216	-74
12621	0	0.216003418	-0.06829834	0.046020508	0.999556541	0.019954681	0.004323006	-0.021640778	5.400085449	-1.707458496	1.150512695	0.997881328	0.216182186	-1.08219858	-0.705078125	-0.122070313	-0.779541016	890.92	35.85246908	-77.37786823	-28.51456737	-73
12622	0	0.136896133	-0.022721291	0.027005196	0.999098778	0.035558701	-0.000165939	-0.023142815	3.422403336	-0.568032265	0.67512989	1.778468853	-0.008299458	-1.157488163	-0.692871094	-0.190185547	-0.77734375	890.96	48.05375012	-75.62315166	-37.02971541	-78
12623	0	0.093688965	0.002929688	0.014709473	0.997817993	0.059185982	-0.006389618	-0.028556824	2.342224121	0.073242188	0.367736816	2.961453395	-0.319713471	-1.428880625	-0.691162109	-0.29296875	-0.760498047	891.02	63.53181859	-73.33533871	-46.30568576	-66
12624	0	0.105695724	-0.013640404	0.000752449	0.995365143	0.085256577	-0.019616127	-0.039932251	2.642393112	-0.341010094	0.018811226	4.269426806	-0.982324436	-1.999702893	-0.686035156	-0.439208984	-0.703125	890.86	83.54256211	-69.58831505	-57.47832784	-70
12625	0	0.153686523	-0.012268066	-0.089050293	0.991719246	0.112781525	-0.04292202	-0.043930054	3.842163086	-0.30670166	-2.226257324	5.654692177	-2.152044062	-2.202585324	-0.680419922	-0.624267578	-0.577148438	890.92	106.8853465	-64.1302817	-69.24335086	-83
12626	0	0.378805161	0.363797188	-0.162364006	0.970796585	0.216954231	-0.078156471	-0.066148758	9.470129013	9.094929695	-4.059100151	10.95455601	-3.946313639	-3.34001448	-0.667724609	-0.819335938	-0.305175781	890.96	137.8159623	-52.92222632	-76.48458166	-88
12627	0	0.951538086	0.484191895	-1.042480469	0.96293354	0.157413483	-0.2146101	-0.043827057	23.78845215	12.10479736	-26.06201172	7.969382889	-10.86507984	-2.218835333	-0.531738281	-0.950927734	0.260009766	890.98	163.2431112	-28.77892269	-86.80117045	-75
12628	0	0.665870667	0.179941177	-0.440507889	0.973856926	0.108366966	-0.195869446	-0.038650513	16.64676666	4.498529434	-11.01269722	5.466064545	-9.879717687	-1.949544261	-0.259521484	-0.834472656	0.723388672	891.02	175.8576621	-5.779078467	-86.50210345	-76
12629	0	-0.364929199	-0.014953613	-0.443115234	0.975669861	0.150464058	-0.158687592	0.015678406	-9.12322998	-0.373840332	-11.07788086	7.584814729	-7.999358773	0.790340262	0.069335938	-0.677734375	0.923583984	890.96	-166.6178404	12.5580961	-86.80738169	-88
12630	0	-0.505949974	-0.163016319	-1.126620293	0.987826347	0.140989304	-0.064090729	0.014543533	-12.64874935	-4.075407982	-28.16550732	7.078208731	-3.217602643	0.730141663	0.370605469	-0.330810547	1.043945313	890.96	-150.0253803	20.00450138	-85.55849685	-84
12631	0	-0.091186523	0.189941406	0.290405273	0.996032715	-0.072997093	0.043857574	-0.025806427	-2.279663086	4.748535156	7.260131836	-3.654688516	2.195782965	-1.292030248	0.378662109	-0.144775391	1.082519531	891.02	-158.258936	14.19974711	-85.05099084	-80
12632	0	0.132788658	-0.065405846	-0.470903397	0.989815712	-0.139460564	0.013910294	0.024935722	3.319716454	-1.635146141	-11.77258492	-6.996796434	0.697885409	1.25103591	0.310302734	-0.394287109	1.035400391	890.96	-175.0708985	13.30566223	-88.28595271	-76
12633	0	-0.049377441	-0.204162598	-0.515014648	0.998599052	-0.031627655	0.032906532	0.026760101	-1.234436035	-5.104064941	-12.87536621	-1.582121464	1.646095197	1.338630089	0.247314453	-0.631103516	0.94140625	890.96	-179.352949	9.681865516	-91.58865934	-78
12634	0	-0.237792969	-0.030883789	-0.369140625	0.999753952	0.008465767	0.014908791	0.014072418	-5.944824219	-0.772094727	-9.228515625	0.423323061	0.745500666	0.703678617	0.147949219	-0.660644531	0.943603516	890.92	-178.6306628	8.006634892	-93.24422623	-80
12635	0	-0.296569824	0.004638672	-0.252807617	0.999946594	0.00886631	0.004081726	-0.003108978	-7.414245605	0.115966797	-6.32019043	0.44332326	0.204089873	-0.155451632	0.118652344	-0.644287109	0.963623047	891.02	-177.5613935	7.545046034	-92.89496002	-79
12636	0	-0.108356476	-0.025295258	-0.400300026	0.999994278	-0.00296402	0.000437737	-0.000824928	-2.708911896	-0.632381439	-10.00750065	-0.148201227	0.021886861	-0.041246481	0.115722656	-0.630859375	0.971435547	891.02	-177.8818167	7.511013851	-92.79546764	-79
12637	0	-0.071899414	-0.038757324	-0.372436523	0.9998703	-0.015704155	0.002483368	0.002223969	-1.797485352	-0.968933105	-9.310913086	-0.785241481	0.12417373	0.111203202	0.109375	-0.645996094	0.967285156	890.98	-179.707238	7.252318738	-93.05145297	-81
12638	0	-0.084331512	-0.017214775	-0.369255066	0.999898911	-0.013699532	-0.00241375	0.002884865	-2.108287811	-0.430369377	-9.231376648	-0.684999621	-0.120691545	0.144248093	0.106689453	-0.678955078	0.941650391	891.04	178.688032	7.54786724	-93.3799464	-85
12639	0	-0.10345459	-0.000793457	-0.373474121	0.999978065	0.000537872	0.006440163	0.001079559	-2.586364746	-0.019836426	-9.336853027	0.026893808	0.322010437	0.053978353	0.103027344	-0.698486328	0.931884766	890.98	178.7446859	6.831340253	-93.47958366	-81
12640	0	-0.109158516	-0.008152008	-0.369592667	0.999887466	0.007982254	0.012633324	-0.000707626	-2.728962898	-0.203800201	-9.239816666	0.399127591	0.631689749	-0.035382637	0.0859375	-0.689208984	0.937744141	891.04	179.6792746	5.411397716	-93.36969485	-82
12641	0	-0.074890137	-0.016296387	-0.399963379	0.999886513	0.000469208	0.015019417	0.000190735	-1.872253418	-0.407409668	-9.999084473	0.023461271	0.75099911	0.009537102	0.062011719	-0.677490234	0.946777344	890.9	179.7414604	3.717643524	-93.37499637	-79
12642	0	-0.062212944	-0.001917839	-0.380395889	0.999720573	-0.00778389	0.022289276	0.000802994	-1.555323601	-0.047945976	-9.509897232	-0.389230696	1.114567486	0.040153424	0.034423828	-0.685302734	0.943115234	891.02	178.8557251	1.190941542	-93.42745863	-79
12643	0	-0.086853027	0.000976563	-0.412719727	0.999482155	-0.016456604	0.027646065	-0.000106812	-2.171325684	0.024414063	-10.31799316	-0.822972223	1.382541828	-0.005341498	-0.013916016	-0.701171875	0.929931641	890.96	176.9771708	-1.943076886	-93.29272196	-81
12644	0	-0.073756218	0.028951645	-0.410956383	0.999581337	-0.023838997	0.014505386	0.007590294	-1.843905449	0.723791122	-10.27390957	-1.192116048	0.725370448	0.379567613	-0.060791016	-0.737060547	0.895507813	890.98	174.2886265	-3.631110005	-94.02866234	-81
12645	0	0.099243164	0.031921387	-0.31842041	0.9998312	-0.017002106	0.006497383	0.002391815	2.481079102	0.798034668	-7.960510254	-0.850153042	0.324887406	0.119597477	-0.091064453	-0.777832031	0.854980469	890.92	172.3601562	-4.371528895	-94.21030528	-80
12646	0	0.113508224	0.035219193	-0.296283722	0.999974251	-0.003166199	-0.005062103	-0.003899574	2.837705612	0.880479813	-7.407093048	-0.158311278	-0.253107309	-0.194980367	-0.096923828	-0.795410156	0.831054688	890.9	171.9785475	-3.710440858	-93.84190089	-79
12647	0	0.05645752	0.03326416	-0.388916016	0.999849319	-0.000380516	-0.017028809	-0.003322601	1.411437988	0.831604004	-9.722900391	-0.019026758	-0.851483173	-0.166138406	-0.068847656	-0.800537109	0.835693359	890.98	171.9379706	-1.701752753	-93.73270982	-77
12648	0	0.085605621	0.070360184	-0.381081581	0.99990654	0.001514435	-0.013459206	-0.001695633	2.140140533	1.759004593	-9.527039528	0.075724092	-0.672981181	-0.08478428	-0.035888672	-0.801757813	0.831054688	890.86	172.1188627	-0.128678439	-93.74743964	-76
12649	0	0.018737793	0.09185791	-0.421447754	0.999973297	0.005013466	-0.005073547	-0.001152039	0.468444824	2.296447754	-10.53619385	0.250675475	-0.253679575	-0.05760243	-0.012939453	-0.795898438	0.840820313	890.98	172.698691	0.482198827	-93.68574727	-77
12650	0	0.025830269	0.038602829	-0.350783348	0.999992371	-0.000742912	-0.000811577	-0.003582001	0.645756721	0.965070724	-8.769583702	-0.037145702	-0.040578937	-0.179100456	-0.008544922	-0.789550781	0.842773438	890.86	172.6227988	0.64193049	-93.2834623	-77
12651	0	0.011291504	0.031799316	-0.393798828	0.99991703	-0.010837555	-0.005885124	-0.003646851	0.282287598	0.79498291	-9.844970703	-0.541892684	-0.294264322	-0.182347556	0.003417969	-0.796386719	0.842773438	891.02	171.3927748	1.381654501	-92.95649264	-77
12652	0	-0.026256561	0.057126045	-0.387304306	0.999969482	-0.007123947	-0.002635002	-0.001502037	-0.656414032	1.428151131	-9.682607651	-0.356200916	-0.131751423	-0.075102603	0.016113281	-0.814453125	0.826416016	890.96	170.5859837	1.72109484	-92.82630349	-78
12653	0	-0.063049316	0.07220459	-0.367431641	0.999999046	0.001075745	-0.000506401	9.54E-05	-1.57623291	1.805114746	-9.185791016	0.053787244	-0.025320059	0.004768373	0.023681641	-0.821289063	0.818115234	890.9	170.7141348	1.793037143	-92.83878063	-77
12654	0	-0.016361237	0.06364727	-0.375793457	0.999998093	-0.001257896	0.001021385	-0.00011158	-0.409030914	1.591181755	-9.394836426	-0.062894849	0.051069282	-0.005578997	0.021240234	-0.819091797	0.817871094	890.9	170.5761274	1.6957836	-92.79974914	-76
12655	0	-0.00994873	0.062316895	-0.383605957	0.999999046	-0.000839233	0.000264168	-6.48E-05	-0.248718262	1.557922363	-9.590148926	-0.041961675	0.013208391	-0.003242493	0.021240234	-0.823486328	0.818359375	890.9	170.4853513	1.682710992	-92.78013559	-75
12656	0	-0.016227722	0.06014061	-0.377716064	0.999994278	0.002965927	0.001519203	0.000162125	-0.405693054	1.503515244	-9.442901611	0.148296631	0.0759603	0.008106247	0.019042969	-0.823486328	0.815673828	890.92	170.8304762	1.523211604	-92.76292413	-76
12657	0	-0.009765625	0.056884766	-0.37109375	0.999983788	0.005329132	0.001439095	0.000476837	-0.244140625	1.422119141	-9.27734375	0.266457967	0.071955095	0.02384198	0.016357422	-0.816650391	0.820800781	890.96	171.4453303	1.366583481	-92.78430522	-76
12658	0	-0.010437965	0.055366516	-0.384188652	0.999987602	0.004812241	0.001010895	0.000748634	-0.260949135	1.384162903	-9.604716301	0.240613022	0.050544947	0.037431871	0.013671875	-0.810058594	0.826171875	891.08	171.9999973	1.25384071	-92.84540642	-77
12659	0	-0.008789063	0.051818848	-0.37878418	0.999984741	0.005280495	0.00094986	0.000610352	-0.219726563	1.295471191	-9.469604492	0.264026018	0.047493212	0.030517726	0.010742188	-0.801025391	0.836914063	890.98	172.6085718	1.15033648	-92.89312229	-76
12660	0	-0.009913445	0.041695595	-0.37621212	0.999988556	0.004415512	0.000323296	0.000368118	-0.247836113	1.04238987	-9.405303001	0.22077633	0.016164833	0.018405975	0.0078125	-0.792236328	0.850830078	890.96	173.1185744	1.121657695	-92.92349451	-77
12661	0	-0.010681152	0.035766602	-0.37878418	0.999996185	0.002411842	4.20E-05	7.63E-05	-0.267028809	0.894165039	-9.469604492	0.120592234	0.002098086	0.003814701	0.007324219	-0.785644531	0.855957031	890.96	173.399843	1.128845392	-92.92469975	-76
12662	0	-0.008911133	0.034118652	-0.385986328	0.999998093	0.001397133	0.000142097	-0.000198364	-0.22277832	0.852966309	-9.649658203	0.069856667	0.007104876	-0.009918216	0.007080078	-0.78125	0.858398438	890.96	173.5657999	1.127828214	-92.89333273	-76
12663	0	-0.008850098	0.036315918	-0.387207031	0.999998093	-0.001254082	0.001087189	-0.000106812	-0.221252441	0.907897949	-9.680175781	-0.062704115	0.054359461	-0.005340579	0.009521484	-0.779052734	0.852294922	890.92	173.4281126	1.017635772	-92.85988072	-77
12664	0	-0.00792408	0.038472176	-0.373457909	0.999996185	-0.002607346	0.000884056	2.86E-05	-0.198101997	0.96180439	-9.336447716	-0.130367444	0.04420286	0.001430513	0.007324219	-0.78125	0.852783203	890.92	173.1350081	0.928505911	-92.84426115	-76
12665	0	-0.005615234	0.043212891	-0.383239746	0.999996185	-0.00240612	0.000751495	9.16E-05	-0.140380859	1.080322266	-9.580993652	-0.120306143	0.037574808	0.004577642	0.005126953	-0.787597656	0.850585938	890.92	172.8647342	0.853202566	-92.83721258	-76
12666	0	-0.006750107	0.048138618	-0.37624836	0.999999046	-0.000867844	0.000368118	0.000114441	-0.16875267	1.203465462	-9.406208992	-0.043392188	0.018405917	0.005722047	0.005615234	-0.791992188	0.845214844	890.9	172.7703398	0.820834992	-92.8378941	-76
12667	0	-0.007080078	0.047668457	-0.37322998	0.999999046	0.001365662	-1.43E-05	0.000144958	-0.177001953	1.191711426	-9.330749512	0.068283103	-0.000715256	0.007247927	0.003173828	-0.791992188	0.848144531	890.92	172.9315263	0.831207786	-92.84768513	-75
12668	0	-0.006651878	0.044489861	-0.382264137	0.999998093	0.001729965	-0.000170708	0.000221252	-0.166296959	1.112246513	-9.556603432	0.086498305	-0.00853539	0.011062628	0.002929688	-0.789794922	0.847900391	890.9	173.1342301	0.858013737	-92.86829416	-76
12669	0	-0.007507324	0.040100098	-0.381774902	0.999998093	0.001358986	0.000427246	0.00019455	-0.187683105	1.002502441	-9.544372559	0.067949318	0.021362312	0.009727481	0.002929688	-0.787597656	0.850585938	890.92	173.2946744	0.816922356	-92.87764437	-75
12670	0	-0.00527668	0.039378166	-0.378714561	0.999999046	0.000299454	0.000305176	0.000170708	-0.131917	0.984454155	-9.467864037	0.014972687	0.01525879	0.008535385	0.000244141	-0.783203125	0.850341797	891.04	173.3337734	0.78968353	-92.88613256	-75
12671	0	-0.005554199	0.041687012	-0.383239746	0.999999046	-0.000301361	0.000187874	0.000164032	-0.13885498	1.042175293	-9.580993652	-0.015068055	0.009393692	0.008201599	0.000488281	-0.785400391	0.850585938	890.92	173.3039602	0.775540706	-92.89533225	-75
12672	0	-0.005094528	0.042221069	-0.378456116	0.999999046	0.000321388	0.000421524	0.000244141	-0.127363205	1.055526733	-9.461402893	0.016069413	0.021076204	0.012207032	0.002685547	-0.785400391	0.850341797	890.96	173.3453338	0.733389463	-92.91035758	-75
12673	0	-0.00378418	0.04095459	-0.379455566	0.999999046	0.000713348	0.000519753	0.000198364	-0.094604492	1.023864746	-9.48638916	0.035667424	0.025987629	0.009918214	0.000488281	-0.785400391	0.850585938	890.98	173.4316742	0.680283216	-92.91910113	-75
12674	0	-0.004716873	0.038703918	-0.380432129	0.999999046	0.000749588	0.000207901	9.16E-05	-0.117921829	0.967597961	-9.510803223	0.037479404	0.010395051	0.004577637	0.000244141	-0.783203125	0.856201172	890.98	173.5223183	0.663766025	-92.91985362	-75
12675	0	-0.005065918	0.037109375	-0.382324219	0.999999046	-6.48E-05	0.000107765	4.96E-05	-0.126647949	0.927734375	-9.558105469	-0.003242493	0.00538826	0.002479553	0.000244141	-0.781005859	0.855957031	890.92	173.5197871	0.658904208	-92.91714208	-75
12676	0	-0.003479004	0.039367676	-0.381286621	0.999999046	-0.000575066	9.92E-05	9.54E-05	-0.086975098	0.984191895	-9.532165527	-0.028753282	0.004959107	0.004768372	-0.001953125	-0.782958984	0.850585938	890.96	173.4587185	0.654065458	-92.91986897	-75
12677	0	-0.005065918	0.039550781	-0.379882813	0.999999046	-0.000362396	0.000123024	6.48E-05	-0.126647949	0.988769531	-9.497070313	-0.018119812	0.006151199	0.003242493	-0.002197266	-0.782958984	0.859130859	890.96	173.4220572	0.646642568	-92.91874561	-76
12678	0	-0.00387001	0.04061985	-0.380465508	0.999999046	-0.00030899	0.000152588	1.91E-05	-0.096750259	1.015496254	-9.511637688	-0.015449524	0.007629395	0.000953674	-0.004394531	-0.782958984	0.856201172	890.88	173.3915353	0.636137281	-92.91209924	-75
12679	0	-0.003662109	0.040771484	-0.378845215	0.999999046	-0.000774384	4.29E-05	4.20E-05	-0.091552734	1.019287109	-9.471130371	-0.038719181	0.002145767	0.002098084	0.000488281	-0.785400391	0.850585938	890.92	173.3075881	0.637502627	-92.90908616	-76
12680	0	-0.003564835	0.042883873	-0.378656387	0.999998093	-0.000112534	0.000124931	0.000114441	-0.089120865	1.072096825	-9.466409683	-0.005626679	0.006246567	0.005722046	-0.004150391	-0.787353516	0.851074219	891.02	173.2992775	0.628251754	-92.91363312	-76
12681	0	-0.00378418	0.043579102	-0.377746582	0.999999046	0.000495911	-3.72E-05	0.000144958	-0.094604492	1.089477539	-9.443664551	0.024795533	-0.001859665	0.007247925	-0.004394531	-0.78515625	0.853759766	890.92	173.3604643	0.636759908	-92.92375884	-76
12682	0	-0.004351616	0.04020977	-0.382669449	0.999999046	0.00097084	-3.24E-05	0.000128746	-0.108790398	1.005244255	-9.566736221	0.04854203	-0.001621247	0.006437303	-0.004150391	-0.78515625	0.850830078	890.92	173.4761133	0.644696233	-92.9318962	-77
12683	0	-0.00402832	0.038085938	-0.380371094	0.999999046	0.000164032	0.000206947	0.000175476	-0.100708008	0.952148438	-9.509277344	0.008201599	0.010347367	0.008773804	-0.002197266	-0.782958984	0.856201172	890.86	173.4993584	0.624514247	-92.94205718	-76
12684	0	-0.002272606	0.039243698	-0.378310204	0.999999046	-1.62E-05	2.67E-05	0.000288963	-0.056815147	0.981092453	-9.457755089	-0.000810623	0.001335144	0.014448166	-0.001953125	-0.78515625	0.859130859	891.02	173.5017765	0.623042207	-92.96751273	-76
12685	0	-0.003295898	0.039550781	-0.379699707	0.999999046	0.000217438	4.67E-05	9.54E-05	-0.082397461	0.988769531	-9.492492676	0.010871887	0.002336502	0.004768372	-0.004394531	-0.780761719	0.850341797	890.98	173.5311968	0.621519396	-92.97090218	-76
12686	0	-0.002643585	0.039507866	-0.378619194	0.999999046	-0.000152588	7.25E-05	0.000121117	-0.06608963	0.987696648	-9.465479851	-0.007629395	0.003623962	0.006055832	-0.004394531	-0.782958984	0.853515625	890.92	173.5181599	0.616425312	-92.97682469	-76
12687	0	-0.003723145	0.039794922	-0.37890625	0.999999046	-8.01E-05	0.000134468	7.63E-06	-0.093078613	0.994873047	-9.47265625	-0.004005432	0.006723404	0.00038147	-0.004394531	-0.782958984	0.853515625	890.92	173.5135417	0.605497406	-92.96899007	-76
12688	0	-0.003499985	0.038695335	-0.379572868	0.999999046	0.00014782	0.000200272	0.000141144	-0.087499619	0.967383385	-9.489321709	0.007390976	0.01001358	0.00705719	-0.004394531	-0.782958984	0.850585938	890.96	173.5349188	0.585105681	-92.97545754	-76
12689	0	-0.002990723	0.040344238	-0.38079834	0.999999046	0.000167847	6.20E-05	0.000144958	-0.074768066	1.008605957	-9.519958496	0.008392334	0.003099442	0.007247925	-0.006591797	-0.782958984	0.850830078	890.86	173.5585123	0.58015507	-92.98435179	-76
12690	0	-0.002811432	0.039179802	-0.377821922	0.999999046	-0.000141144	8.01E-05	6.68E-06	-0.070285797	0.979495049	-9.445548058	-0.00705719	0.004005432	0.000333786	-0.006835938	-0.780761719	0.856201172	890.98	173.5468388	0.574664569	-92.97723693	-76
12691	0	-0.003479004	0.04095459	-0.380371094	0.999999046	-0.000270844	0.000126839	4.20E-05	-0.086975098	1.023864746	-9.509277344	-0.013542175	0.006341934	0.002098084	-0.004394531	-0.782958984	0.856201172	890.98	173.5201772	0.563184678	-92.9732124	-76
12692	0	-0.002282143	0.039937973	-0.377726555	0.999999046	0.000319481	0.000135422	0.000152588	-0.057053566	0.998449326	-9.443163872	0.015974045	0.006771088	0.007629395	-0.004394531	-0.782958984	0.850585938	891.02	173.5609957	0.549035228	-92.98170167	-76
12693	0	-0.002319336	0.040161133	-0.378417969	0.999999046	0.000164032	-6.68E-06	0.000171661	-0.057983398	1.00402832	-9.460449219	0.008201599	-0.000333786	0.008583069	-0.004394531	-0.782958984	0.850585938	890.86	173.5838987	0.550575482	-92.99423874	-76
12694	0	-0.002861977	0.039121628	-0.38032341	0.999999046	0.000183105	2.10E-05	0.000174522	-0.071549416	0.978040695	-9.508085251	0.009155274	0.001049042	0.00872612	-0.006835938	-0.782958984	0.853515625	891	173.60898	0.548716032	-93.0070427	-76
12695	0	-0.003234863	0.038085938	-0.377990723	0.999999046	-0.000133514	0.000191689	0.000156403	-0.080871582	0.952148438	-9.449768066	-0.00667572	0.009584427	0.007820129	-0.006835938	-0.780761719	0.859130859	891.02	173.5978452	0.527458336	-93.01549926	-76
12696	0	-0.002040863	0.039163589	-0.379323959	0.999999046	1.43E-05	1.72E-05	0.000110626	-0.051021576	0.979089737	-9.483098984	0.000715256	0.000858307	0.005531311	-0.009033203	-0.782714844	0.853759766	891.04	173.6036586	0.526417086	-93.02116618	-77
12697	0	-0.002075195	0.039489746	-0.37890625	0.999999046	0.000156403	-2.86E-06	0.000167847	-0.051879883	0.987243652	-9.47265625	0.007820129	-0.000143051	0.008392334	-0.004394531	-0.782958984	0.853515625	891	173.6256531	0.52669853	-93.03293291	-77
12698	0	-0.001760483	0.039676666	-0.378858566	0.999999046	0.0004673	-1.91E-06	0.000113487	-0.04401207	0.991916656	-9.471464157	0.023365022	-9.54E-05	0.005674362	-0.006835938	-0.782958984	0.856445313	891.04	173.6832744	0.527324544	-93.03892842	-77
12699	0	-0.001708984	0.038391113	-0.380310059	0.999999046	-0.000236511	-8.68E-05	0.000102997	-0.042724609	0.959777832	-9.507751465	-0.011825562	-0.004339218	0.005149841	-0.007080078	-0.778564453	0.858886719	891.04	173.6602445	0.537512044	-93.04485071	-77
12700	0	-0.002502441	0.039489746	-0.380065918	0.999999046	-2.86E-06	5.72E-05	9.92E-05	-0.062561035	0.987243652	-9.501647949	-0.000143051	0.002861023	0.004959106	-0.006835938	-0.782958984	0.856445313	891.08	173.6639604	0.531149488	-93.04841162	-78
12701	0	-0.002075195	0.038146973	-0.379638672	0.999999046	2.67E-05	0.00011158	8.77E-05	-0.051879883	0.953674316	-9.490966797	0.001335144	0.005578995	0.004386902	-0.006835938	-0.782958984	0.853515625	891	173.6710993	0.518530009	-93.04995179	-78
12702	0	-0.001496315	0.039712906	-0.379580498	0.999999046	8.20E-05	8.20E-05	0.000183105	-0.037407875	0.992822647	-9.489512444	0.0041008	0.0041008	0.009155274	-0.009277344	-0.780517578	0.856445313	890.98	173.6844096	0.507843557	-93.06303455	-79
12703	0	-0.001602173	0.038002014	-0.379404068	0.999999046	0.000125885	6.77E-05	6.10E-05	-0.040054321	0.950050354	-9.4851017	0.006294251	0.003385544	0.003051758	-0.006835938	-0.780761719	0.853515625	890.96	173.7028867	0.500113042	-93.06195575	-78
12704	0	-0.001788139	0.039432526	-0.379841805	0.999999046	-0.000115395	-7.63E-06	8.68E-05	-0.044703484	0.985813141	-9.496045113	-0.00576973	-0.00038147	0.004339218	-0.009277344	-0.780517578	0.856445313	890.96	173.6936212	0.500440472	-93.06515861	-78
12705	0	-0.001953125	0.038696289	-0.379638672	0.999999046	-5.34E-05	-4.10E-05	4.20E-05	-0.048828125	0.967407227	-9.490966797	-0.002670288	-0.0020504	0.002098083	-0.009277344	-0.780517578	0.856445313	890.92	173.6914816	0.504949358	-93.06361571	-78
12706	0	-0.00179863	0.039896011	-0.379268646	0.999999046	-2.48E-05	-4.39E-05	4.10E-05	-0.044965744	0.997400284	-9.481716156	-0.001239777	-0.002193451	0.0020504	-0.006835938	-0.780761719	0.853515625	890.86	173.6925422	0.509607968	-93.06159137	-79
12707	0	-0.00201416	0.038146973	-0.379882813	0.999999046	0.000278473	8.49E-05	8.01E-05	-0.050354004	0.953674316	-9.497070313	0.013923645	0.004243851	0.004005432	-0.011474609	-0.780517578	0.850830078	890.88	173.7283422	0.498934014	-93.06315961	-78
12708	0	-0.001395226	0.038423538	-0.379477501	0.999999046	-1.24E-05	9.92E-05	0.000113487	-0.034880638	0.960588455	-9.486937523	-0.000619888	0.004959106	0.005674362	-0.006835938	-0.780761719	0.856201172	890.92	173.7307664	0.486018334	-93.06741856	-78
12709	0	-0.001220703	0.039001465	-0.37902832	0.999999046	0.000118256	6.58E-05	5.72E-05	-0.030517578	0.975036621	-9.475708008	0.005912781	0.003290176	0.002861023	-0.009277344	-0.780517578	0.856445313	890.98	173.7481655	0.477410528	-93.06619484	-78
12710	0	-0.001098633	0.038452148	-0.381347656	0.999999046	6.48E-05	-8.77E-05	8.77E-05	-0.02746582	0.961303711	-9.533691406	0.003242493	-0.004386902	0.004386902	-0.009277344	-0.782714844	0.859375	890.98	173.7593884	0.485716317	-93.07034218	-79
12711	0	-0.001403809	0.039733887	-0.379455566	0.999999046	1.53E-05	-1.43E-05	7.63E-05	-0.035095215	0.993347168	-9.48638916	0.000762939	-0.000715256	0.003814697	-0.009277344	-0.780517578	0.853515625	890.98	173.7648573	0.4856231	-93.07224692	-79
12712	0	-0.001831055	0.03729248	-0.377929688	0.999999046	0.000325203	-1.91E-05	6.87E-05	-0.045776367	0.932312012	-9.448242188	0.016260147	-0.000953674	0.003433228	-0.01171875	-0.778320313	0.853515625	890.92	173.8058748	0.48601767	-93.07377641	-78
12713	0	-0.001229286	0.038143158	-0.380394936	0.999998093	-6.77E-05	0	0.000141144	-0.030732155	0.953578949	-9.50987339	-0.003385544	0	0.00705719	-0.009277344	-0.780517578	0.853515625	890.98	173.801783	0.483167315	-93.08269619	-78
12714	0	-0.000975609	0.038258553	-0.378193855	0.999999046	-1.14E-05	3.81E-05	0.000109673	-0.024390221	0.956463814	-9.454846382	-0.000572205	0.001907349	0.005483627	-0.01171875	-0.780517578	0.859375	890.92	173.8041381	0.476175577	-93.0880481	-78
12715	0	-0.001647949	0.038513184	-0.379638672	0.999999046	2.67E-05	-3.34E-05	0.000175476	-0.04119873	0.96282959	-9.490966797	0.001335144	-0.00166893	0.008773804	-0.009277344	-0.778320313	0.856201172	890.96	173.8107575	0.476378001	-93.10118071	-77
12716	0	-0.001661301	0.038004875	-0.378909111	0.999999046	0.0001688	0.000123978	0.000132561	-0.041532516	0.95012188	-9.472727776	0.008440018	0.006198883	0.006628037	-0.009033203	-0.780761719	0.850585938	890.98	173.8336996	0.45904849	-93.10738153	-77
12717	0	-0.001220703	0.037841797	-0.379150391	0.999999046	0.000148773	-7.53E-05	0.000106812	-0.030517578	0.946044922	-9.478759766	0.00743866	-0.003767014	0.005340576	-0.009277344	-0.780517578	0.853515625	891.02	173.8543348	0.4645949	-93.11324606	-77
12718	0	-0.001271248	0.037607193	-0.378734589	0.999999046	-0.000276566	-0.000110626	5.34E-05	-0.031781197	0.940179825	-9.468364716	-0.013828278	-0.005531311	0.002670288	-0.01171875	-0.778320313	0.859130859	890.88	173.8262605	0.474669675	-93.114123	-77
12719	0	-0.001403809	0.040100098	-0.379821777	0.999999046	-8.01E-05	-1.05E-05	1.14E-05	-0.035095215	1.002502441	-9.495544434	-0.004005432	-0.000524521	0.000572205	-0.01171875	-0.778320313	0.856445313	890.94	173.8206256	0.473712733	-93.10888849	-76
12720	0	-0.001534462	0.038084984	-0.380670547	0.999999046	0.000575066	6.68E-05	0.000102043	-0.038361549	0.952124596	-9.516763687	0.028753282	0.00333786	0.005102158	-0.01171875	-0.778320313	0.853515625	890.9	173.8899802	0.462710709	-93.11287383	-76
12721	0	-0.001586914	0.036132813	-0.380004883	0.999999046	0.000209808	8.11E-05	3.43E-05	-0.039672852	0.903320313	-9.50012207	0.010490418	0.004053116	0.001716614	-0.009277344	-0.778320313	0.859130859	890.98	173.9176057	0.450787706	-93.10831386	-76
12722	0	-0.000242233	0.038414955	-0.378923416	0.999999046	6.68E-05	-0.000106812	0.0001297	-0.006055832	0.960373878	-9.473085403	0.00333786	-0.005340576	0.006484985	-0.009277344	-0.778320313	0.853271484	890.94	173.9286623	0.458933495	-93.11698959	-76
12723	0	-0.001220703	0.037658691	-0.38104248	0.999999046	0.000183105	5.44E-05	3.81E-05	-0.030517578	0.941467285	-9.526062012	0.009155273	0.002717972	0.001907349	-0.01171875	-0.778320313	0.856445313	891.02	173.953124	0.449693219	-93.11396019	-76
12724	0	-0.000854492	0.037902832	-0.379089355	0.999999046	3.53E-05	-6.10E-05	0.000175476	-0.021362305	0.947570801	-9.477233887	0.001764297	-0.003051758	0.008773804	-0.01171875	-0.780517578	0.859375	890.98	173.9604586	0.451804729	-93.12786088	-76
12725	0	-0.001708984	0.03692627	-0.38067627	0.999999046	0.000164032	-4.48E-05	5.72E-05	-0.042724609	0.923156738	-9.516906738	0.008201599	-0.002241135	0.002861023	-0.009277344	-0.778320313	0.859130859	891.04	173.9826589	0.453402179	-93.1274131	-76
12726	0	-0.001191139	0.036068916	-0.380932808	0.999999046	1.14E-05	-2.67E-05	0.000110626	-0.029778481	0.901722908	-9.523320198	0.000572205	-0.001335144	0.005531311	-0.009277344	-0.778320313	0.853271484	890.94	173.9873674	0.452174081	-93.13288083	-76
12727	0	-0.001159668	0.03692627	-0.379150391	0.999999046	-4.58E-05	-5.25E-05	7.25E-05	-0.028991699	0.923156738	-9.478759766	-0.002288818	-0.002622604	0.003623962	-0.009521484	-0.776123047	0.861816406	890.94	173.9855345	0.45422154	-93.1345186	-76
12728	0	-0.001317024	0.037082672	-0.380307198	0.999999046	-9.54E-07	-0.000101089	9.06E-05	-0.032925606	0.927066803	-9.507679939	-4.77E-05	-0.005054474	0.004529953	-0.01171875	-0.778320313	0.856445313	891	173.9887983	0.461486496	-93.13944816	-76
12729	0	-0.001647949	0.03704834	-0.379882813	0.999999046	0.000171661	3.15E-05	0.000144958	-0.04119873	0.926208496	-9.497070313	0.008583069	0.001573563	0.007247925	-0.01171875	-0.778320313	0.853515625	890.98	174.011789	0.45290558	-93.14880741	-76
12730	0	-0.001309395	0.036063194	-0.379163742	0.999999046	-5.53E-05	-0.000110626	0.000144958	-0.032734871	0.901579857	-9.479093552	-0.002765656	-0.005531311	0.007247925	-0.009277344	-0.778320313	0.859130859	890.98	174.0087808	0.460421425	-93.15909194	-76
12731	0	-0.001708984	0.037597656	-0.380371094	0.999999046	0.000202179	4.29E-05	6.10E-05	-0.042724609	0.939941406	-9.509277344	0.010108948	0.002145767	0.003051758	-0.01171875	-0.778320313	0.859130859	891	174.0353179	0.451360017	-93.15877717	-76
12732	0	-0.001123428	0.036222458	-0.380142212	0.999999046	0.000239372	0	0.000106812	-0.028085709	0.905561447	-9.503555298	0.011968613	0	0.005340576	-0.01171875	-0.778320313	0.859130859	890.92	174.0660839	0.446540498	-93.16408435	-76
12733	0	-0.001098633	0.037353516	-0.380004883	0.999999046	6.10E-05	-1.05E-05	-7.63E-06	-0.02746582	0.933837891	-9.50012207	0.003051758	-0.000524521	-0.00038147	-0.011962891	-0.776123047	0.861816406	890.88	174.076457	0.444170038	-93.15657074	-76
12734	0	-0.00135231	0.036025047	-0.380070686	0.999999046	7.25E-05	-9.92E-05	0.000152588	-0.033807755	0.900626183	-9.501767159	0.003623962	-0.004959106	0.007629395	-0.009277344	-0.778320313	0.856201172	890.98	174.088003	0.449929497	-93.16735629	-76
12735	0	-0.001159668	0.036804199	-0.380126953	0.999999046	0.000144958	4.77E-06	0.000179291	-0.028991699	0.92010498	-9.503173828	0.007247925	0.000238419	0.008964539	-0.01171875	-0.778320313	0.856445313	890.94	174.1078027	0.443433103	-93.18081323	-76
12736	0	-0.001403809	0.036437988	-0.38104248	0.999999046	0.000138283	-8.39E-05	5.34E-05	-0.035095215	0.910949707	-9.526062012	0.006914139	-0.004196167	0.002670288	-0.01171875	-0.778320313	0.862060547	890.88	174.1269237	0.448451183	-93.18098363	-77
12737	0	-0.001098633	0.035766602	-0.379760742	0.999999046	4.20E-05	-3.34E-05	0.000118256	-0.02746582	0.894165039	-9.494018555	0.002098084	-0.00166893	0.005912781	-0.01171875	-0.778320313	0.862060547	890.94	174.1349583	0.446854506	-93.18788092	-76
12738	0	-0.001605034	0.037137985	-0.380619049	1	-8.58E-06	-5.05E-05	1.14E-05	-0.040125847	0.928449631	-9.515476227	-0.000429153	-0.002527237	0.000572205	-0.009521484	-0.776123047	0.855957031	890.92	174.1372334	0.448401169	-93.18203621	-77
12739	0	-0.001953125	0.036315918	-0.380126953	0.999999046	0.000320435	-3.72E-05	6.48E-05	-0.048828125	0.907897949	-9.503173828	0.016021729	-0.001859665	0.003242493	-0.009521484	-0.776123047	0.858886719	890.94	174.1771408	0.447754368	-93.18222417	-77
12740	0	-0.000818253	0.035279274	-0.379295349	0.999999046	0.000105858	7.63E-06	2.57E-05	-0.020456314	0.88198185	-9.482383728	0.005292892	0.00038147	0.00128746	-0.009521484	-0.776123047	0.864501953	891	174.1925094	0.442349647	-93.17752774	-78
12741	0	-0.001403809	0.036987305	-0.380432129	0.999999046	0.000148773	-4.48E-05	0.00012207	-0.035095215	0.924682617	-9.510803223	0.00743866	-0.002241135	0.006103516	-0.01171875	-0.776123047	0.859130859	890.98	174.2126286	0.441739415	-93.18526658	-78
12742	0	-0.001186371	0.035347939	-0.380321503	0.999999046	0.0001297	-5.72E-06	9.06E-05	-0.029659271	0.883698463	-9.508037567	0.006484985	-0.000286102	0.004529953	-0.009521484	-0.776123047	0.855957031	891	174.2306002	0.436961118	-93.18797773	-77
12743	0	-0.001159668	0.036376953	-0.379455566	0.999999046	-0.000144958	6.20E-05	3.43E-05	-0.028991699	0.909423828	-9.48638916	-0.007247925	0.003099442	0.001716614	-0.01171875	-0.778320313	0.859130859	890.94	174.2170901	0.425036379	-93.18438484	-77
12744	0	-0.001416206	0.036547661	-0.379507065	0.999999046	0.000159264	0.000101089	0.000102997	-0.035405159	0.913691521	-9.48767662	0.007963181	0.005054474	0.005149841	-0.01171875	-0.776123047	0.856201172	891	174.2383255	0.407806501	-93.18801353	-76
12745	0	-0.001098633	0.035339355	-0.38092041	0.999999046	7.63E-05	1.62E-05	0.00019455	-0.02746582	0.883483887	-9.523010254	0.003814697	0.000810623	0.009727478	-0.011962891	-0.773925781	0.861572266	890.94	174.2499748	0.399138681	-93.20306759	-76
12746	0	-0.000854492	0.036560059	-0.380310059	0.999999046	-0.000152588	-9.16E-05	7.63E-05	-0.021362305	0.914001465	-9.507751465	-0.007629395	-0.004577637	0.003814697	-0.01171875	-0.776123047	0.859130859	890.98	174.2354154	0.404044694	-93.20572113	-76
12747	0	-0.001403809	0.036499023	-0.379577637	0.999999046	0.000175476	7.34E-05	0.000175476	-0.035095215	0.912475586	-9.489440918	0.008773804	0.003671646	0.008773804	-0.009521484	-0.776123047	0.861816406	890.94	174.2583271	0.388958129	-93.21662117	-76
12748	0	-0.001281738	0.035217285	-0.37890625	0.999999046	7.34E-05	-9.16E-05	4.96E-05	-0.032043457	0.880432129	-9.47265625	0.003671646	-0.004577637	0.002479553	-0.009521484	-0.773925781	0.864501953	891.06	174.2696246	0.394084772	-93.21530018	-76
12749	0	-0.000854492	0.036193848	-0.378967285	0.999999046	-0.000160217	3.53E-05	3.43E-05	-0.021362305	0.904846191	-9.474182129	-0.008010864	0.001764297	0.001716614	-0.011962891	-0.773925781	0.861572266	890.94	174.2541058	0.384856895	-93.2119951	-76
12750	0	-0.001009941	0.036314964	-0.380054474	0.999999046	-3.81E-05	8.39E-05	-1.53E-05	-0.025248528	0.907874107	-9.501361847	-0.001907349	0.004196167	-0.000762939	-0.009521484	-0.776123047	0.858886719	890.88	174.2525675	0.370599188	-93.20114857	-76
12751	0	-0.000732422	0.035827637	-0.379699707	0.999999046	0.000221252	3.91E-05	6.87E-05	-0.018310547	0.895690918	-9.492492676	0.011062622	0.001955032	0.003433228	-0.011962891	-0.776123047	0.861816406	890.92	174.280655	0.360426223	-93.20163484	-76
12752	0	-0.001309395	0.035292625	-0.380204201	0.999999046	-5.44E-05	-7.63E-06	4.86E-05	-0.032734871	0.882315636	-9.505105019	-0.002717972	-0.00038147	0.00243187	-0.009277344	-0.778320313	0.859130859	890.88	174.2771692	0.355783771	-93.19890989	-76
12753	0	-0.001098633	0.036315918	-0.380187988	0.999999046	-0.000205994	-7.15E-05	0.0001297	-0.02746582	0.907897949	-9.504699707	-0.010299683	-0.003576279	0.006484985	-0.009521484	-0.776123047	0.855957031	890.94	174.2561864	0.357463219	-93.2064303	-76
12754	0	-0.001083374	0.035678864	-0.379197121	1	1.43E-05	-3.91E-05	4.48E-05	-0.027084351	0.891971588	-9.479928017	0.000715256	-0.001955032	0.002241135	-0.01171875	-0.778320313	0.862060547	890.94	174.2604844	0.356381155	-93.20513856	-76
12755	0	-0.000915527	0.035949707	-0.379272461	0.999999046	9.54E-05	-1.43E-05	0.000125885	-0.022888184	0.898742676	-9.481811523	0.004768372	-0.000715256	0.006294251	-0.011962891	-0.773925781	0.858886719	890.92	174.2739797	0.351501074	-93.21288767	-75
12756	0	-0.001223564	0.035083771	-0.378303528	0.999999046	0.000103951	5.91E-05	7.92E-05	-0.030589104	0.877094269	-9.457588196	0.005197525	0.00295639	0.003957748	-0.011962891	-0.773925781	0.861572266	891	174.2884971	0.338759748	-93.21430947	-76
12757	0	-0.001403809	0.035644531	-0.381835938	0.999999046	-0.000179291	-6.77E-05	0.000141144	-0.035095215	0.891113281	-9.545898438	-0.008964539	-0.003385544	0.00705719	-0.011962891	-0.776123047	0.861816406	890.92	174.2704919	0.33976185	-93.22411705	-76
12758	0	-0.001019478	0.035414696	-0.37993145	0.999999046	3.81E-06	-2.10E-05	0.000105858	-0.025486946	0.885367393	-9.498286247	0.000190735	-0.001049042	0.005292892	-0.01171875	-0.773925781	0.855957031	890.94	174.2734896	0.3358085	-93.22915458	-76
12759	0	-0.000915527	0.035888672	-0.379638672	0.999999046	0.000125885	2.77E-05	0.000175476	-0.022888184	0.897216797	-9.490966797	0.006294251	0.001382828	0.008773804	-0.01171875	-0.773925781	0.855957031	890.92	174.2904008	0.325482937	-93.24138325	-76
12760	0	-0.000944138	0.035120964	-0.380746841	0.999999046	9.25E-05	1.72E-05	9.44E-05	-0.023603439	0.878024101	-9.518671036	0.00462532	0.000858307	0.004720688	-0.014160156	-0.776123047	0.862060547	891.06	174.3035416	0.317252357	-93.24585383	-76
12761	0	-0.001220703	0.034912109	-0.380859375	0.999999046	-6.48E-05	3.15E-05	0.000179291	-0.030517578	0.872802734	-9.521484375	-0.003242493	0.001573563	0.008964539	-0.011962891	-0.773925781	0.861572266	891	174.2986181	0.306416116	-93.25821846	-76
12762	0	-0.000941277	0.035937309	-0.380001068	0.999999046	-0.000148773	8.77E-05	0.000114441	-0.023531914	0.898432732	-9.500026703	-0.00743866	0.004386902	0.005722046	-0.011962891	-0.776123047	0.861816406	890.98	174.2840813	0.28988133	-93.26232762	-77
12763	0	-0.000610352	0.035522461	-0.379272461	0.999999046	8.77E-05	-0.000102043	0.000144958	-0.015258789	0.888061523	-9.481811523	0.004386902	-0.005102158	0.007247925	-0.014160156	-0.773925781	0.861816406	891	174.2965941	0.294607332	-93.27358931	-76
12764	0	-0.001106262	0.035394669	-0.381537437	0.999999046	4.86E-05	-4.01E-05	5.25E-05	-0.027656555	0.884866714	-9.538435936	0.00243187	-0.002002716	0.002622604	-0.011962891	-0.776123047	0.861816406	890.98	174.3046848	0.293313388	-93.27198541	-76
12765	0	-0.000549316	0.035583496	-0.380310059	0.999999046	3.81E-06	0.000103951	0.00018692	-0.01373291	0.889587402	-9.507751465	0.000190735	0.005197525	0.009346008	-0.011962891	-0.773925781	0.867431641	891	174.3075487	0.2740363	-93.28393558	-76
12766	0	-0.000579834	0.035824776	-0.380616188	0.999999046	-2.10E-05	-4.96E-05	0.000128746	-0.01449585	0.895619392	-9.515404701	-0.001049042	-0.002479553	0.006437302	-0.01171875	-0.778320313	0.862060547	890.98	174.3075642	0.272903673	-93.29068075	-77
12767	0	-0.000915527	0.035522461	-0.3828125	0.999999046	0.000167847	5.05E-05	8.39E-05	-0.022888184	0.888061523	-9.5703125	0.008392334	0.002527237	0.004196167	-0.011962891	-0.773925781	0.858886719	890.94	174.32924	0.260855214	-93.29142595	-76
12768	0	-0.000323296	0.035638809	-0.378369331	0.999999046	2.96E-05	2.67E-05	0.000109673	-0.00808239	0.89097023	-9.459233284	0.001478195	0.001335144	0.005483627	-0.01171875	-0.776367188	0.859130859	890.92	174.3350145	0.251201864	-93.29507521	-77
12769	0	-0.000671387	0.036193848	-0.380126953	0.999999046	0.000152588	-5.63E-05	0.000133514	-0.016784668	0.904846191	-9.503173828	0.007629395	-0.002813339	0.00667572	-0.011962891	-0.774169922	0.859130859	890.98	174.3548076	0.250730967	-93.30265406	-77
12770	0	-0.001316071	0.035223007	-0.380626678	0.999999046	0.000179291	-2.29E-05	0.000174522	-0.032901764	0.88057518	-9.515666962	0.008964539	-0.001144409	0.00872612	-0.011962891	-0.776123047	0.862060547	890.88	174.3776272	0.246018401	-93.31439061	-78
12771	0	-0.000854492	0.035095215	-0.379211426	0.999999046	-8.39E-05	-1.81E-05	-3.81E-06	-0.021362305	0.877380371	-9.480285645	-0.004196167	-0.000905991	-0.000190735	-0.014160156	-0.776123047	0.859375	891	174.370343	0.242766917	-93.30745173	-78
12772	0	-0.000686646	0.035402298	-0.379571915	0.999999046	6.20E-05	-3.62E-05	9.82E-05	-0.017166138	0.885057449	-9.489297867	0.003099442	-0.001811981	0.004911423	-0.011962891	-0.774169922	0.861816406	890.92	174.3797001	0.240427633	-93.31066449	-79
12773	0	-0.000549316	0.035888672	-0.379699707	0.999999046	0.000110626	3.53E-05	0.000110626	-0.01373291	0.897216797	-9.492492676	0.005531311	0.001764297	0.005531311	-0.011962891	-0.774169922	0.859130859	890.94	174.3945684	0.229779767	-93.31436418	-78
12774	0	-0.000882149	0.035011292	-0.37983036	0.999999046	9.54E-06	-7.25E-05	9.92E-05	-0.022053719	0.875282288	-9.49575901	0.000476837	-0.003623962	0.004959106	-0.014160156	-0.773925781	0.859130859	891	174.3978285	0.231558083	-93.31974224	-78
12775	0	-0.000244141	0.035339355	-0.379577637	0.999999046	0	-4.10E-05	6.10E-05	-0.006103516	0.883483887	-9.489440918	0	-0.0020504	0.003051758	-0.014404297	-0.773925781	0.864746094	890.92	174.3999768	0.230148052	-93.32057333	-79
12776	0	-0.000943184	0.035705566	-0.379699707	0.999999046	-0.000159264	-6.48E-05	0.000102997	-0.023579597	0.89263916	-9.492492676	-0.007963181	-0.003242493	0.005149841	-0.011962891	-0.774169922	0.859130859	890.94	174.3838064	0.230997647	-93.32432846	-78
12777	0	-0.000549316	0.03515625	-0.379333496	0.999999046	1.53E-05	-5.25E-05	0.000141144	-0.01373291	0.87890625	-9.483337402	0.000762939	-0.002622604	0.00705719	-0.011962891	-0.771972656	0.858886719	891	174.3875957	0.229995552	-93.33234925	-78
12778	0	-0.000763893	0.035449028	-0.380311966	0.999999046	2.86E-05	-0.000131607	0.000109673	-0.019097328	0.8862257	-9.507799149	0.001430511	-0.006580353	0.005483627	-0.011962891	-0.776123047	0.864990234	890.98	174.3928927	0.238375465	-93.3376646	-78
12779	0	-0.000732422	0.035339355	-0.381469727	0.999999046	0.000171661	-1.05E-05	7.25E-05	-0.018310547	0.883483887	-9.536743164	0.008583069	-0.000524521	0.003623962	-0.011962891	-0.771972656	0.858886719	890.92	174.4145822	0.23335672	-93.33747949	-78
12780	0	-0.000553131	0.034903526	-0.380261421	0.999999046	0.000124931	-5.34E-05	0.000183105	-0.013828278	0.872588158	-9.50653553	0.006246567	-0.002670288	0.009155274	-0.014404297	-0.771728516	0.858886719	891	174.4308441	0.23199105	-93.35243451	-78
12781	0	-0.000488281	0.034606934	-0.381286621	0.999999046	-1.14E-05	7.72E-05	6.48E-05	-0.012207031	0.86517334	-9.532165527	-0.000572205	0.003862381	0.003242493	-0.011962891	-0.776123047	0.864990234	890.98	174.4315499	0.217028186	-93.34982302	-78
12782	0	-0.000731468	0.035408974	-0.380310059	0.999999046	-0.000112534	-3.81E-06	0.000121117	-0.018286705	0.885224342	-9.507751465	-0.005626678	-0.000190735	0.006055832	-0.014404297	-0.773925781	0.862060547	890.94	174.420593	0.210689272	-93.35677789	-78
12783	0	-0.000732422	0.034973145	-0.381164551	0.999999046	0.000144958	-4.10E-05	3.05E-05	-0.018310547	0.874328613	-9.52911377	0.007247925	-0.0020504	0.001525879	-0.012207031	-0.771728516	0.864501953	891.04	174.439173	0.209606938	-93.35183423	-79
12784	0	-0.000640869	0.034984589	-0.379710197	0.999999046	-5.44E-05	-7.06E-05	-3.05E-05	-0.016021729	0.874614716	-9.492754936	-0.002717972	-0.003528595	-0.001525879	-0.014404297	-0.771728516	0.858886719	891	174.4349034	0.212576041	-93.3425362	-79
12785	0	-6.10E-05	0.03503418	-0.379882813	0.999999046	0.000263214	-0.000117302	7.25E-05	-0.001525879	0.875854492	-9.497070313	0.013160706	-0.005865097	0.003623962	-0.011962891	-0.774169922	0.861816406	890.9	174.4669615	0.219702159	-93.34304007	-79
12786	0	-0.000940323	0.03513813	-0.381183624	0.999999046	0.000106812	8.96E-05	1.81E-05	-0.023508072	0.878453255	-9.529590607	0.005340576	0.004482269	0.000905991	-0.014404297	-0.773925781	0.864746094	890.92	174.4810861	0.203839774	-93.33737801	-79
12787	0	-0.000671387	0.03503418	-0.380432129	0.999999046	4.20E-05	-6.01E-05	8.77E-05	-0.016784668	0.875854492	-9.510803223	0.002098084	-0.003004074	0.004386902	-0.014404297	-0.771728516	0.861816406	891.04	174.4877073	0.204293582	-93.34128528	-78
12788	0	-0.000468254	0.03494072	-0.381412506	0.999999046	9.06E-05	-9.73E-05	0.000121117	-0.011706352	0.87351799	-9.535312653	0.004529953	-0.004863739	0.006055832	-0.011962891	-0.774169922	0.859130859	890.98	174.4998663	0.208618356	-93.34669246	-78
12789	0	-0.000915527	0.034606934	-0.380432129	0.999999046	8.39E-05	-2.57E-05	6.10E-05	-0.022888184	0.86517334	-9.510803223	0.004196167	-0.00128746	0.003051758	-0.011962891	-0.774169922	0.861816406	890.98	174.5112673	0.205462473	-93.3445129	-79
12790	0	-0.000687599	0.0350914	-0.381232262	0.999999046	0.000173569	-5.53E-05	8.30E-05	-0.01718998	0.877285004	-9.530806541	0.008678436	-0.002765656	0.004148483	-0.014404297	-0.771728516	0.858886719	890.94	174.5328782	0.205445401	-93.34785214	-79
12791	0	-0.000854492	0.034790039	-0.380981445	0.999999046	-0.000106812	1.24E-05	-3.81E-06	-0.021362305	0.869750977	-9.524536133	-0.005340576	0.000619888	-0.000190735	-0.011962891	-0.771972656	0.861816406	890.88	174.5223692	0.198666589	-93.33787825	-78
12792	0	-0.000297546	0.035359383	-0.381768227	0.999999046	9.44E-05	-9.54E-06	8.30E-05	-0.00743866	0.883984566	-9.544205666	0.004720688	-0.000476837	0.004148483	-0.014404297	-0.771728516	0.864746094	890.98	174.5348184	0.193429197	-93.34067873	-78
12793	0	-0.000854492	0.034423828	-0.379150391	0.999999046	0.000118256	-2.96E-05	3.81E-05	-0.021362305	0.860595703	-9.478759766	0.005912781	-0.001478195	0.001907349	-0.011962891	-0.771972656	0.858886719	891.06	174.5500001	0.190983259	-93.33572648	-78
12794	0	-0.000448227	0.035187721	-0.381539345	0.999999046	0.000135422	-0.000131607	-3.81E-06	-0.011205673	0.879693031	-9.53848362	0.006771088	-0.006580353	-0.000190735	-0.011962891	-0.771972656	0.858886719	891.06	174.5671038	0.200630557	-93.32741637	-78
12795	0	-0.000671387	0.034240723	-0.379760742	0.999999046	0.000236511	-9.06E-05	0.000141144	-0.016784668	0.856018066	-9.494018555	0.011825562	-0.004529953	0.00705719	-0.012207031	-0.771728516	0.864501953	891.04	174.5957131	0.204035083	-93.33549356	-78
12796	0	-0.000487328	0.034609795	-0.381120682	0.999999046	-0.000126839	-0.000225067	8.01E-05	-0.012183189	0.865244865	-9.528017044	-0.006341934	-0.011253357	0.004005432	-0.012207031	-0.76953125	0.8671875	890.94	174.5826597	0.223436662	-93.33856912	-77
12797	0	-0.001159668	0.034545898	-0.381103516	0.999999046	7.63E-06	5.44E-05	-6.10E-05	-0.028991699	0.863647461	-9.527587891	0.00038147	0.002717972	-0.003051758	-0.014648438	-0.76953125	0.864501953	890.9	174.5850452	0.212510741	-93.32539657	-77
12798	0	-0.000330925	0.034844398	-0.378785133	0.999999046	0.000181198	-3.05E-05	2.67E-05	-0.008273125	0.871109962	-9.469628334	0.009059906	-0.001525879	0.001335144	-0.011962891	-0.771972656	0.858886719	891.06	174.6072282	0.210300272	-93.3195833	-77
12799	0	-0.000671387	0.034667969	-0.382019043	0.999999046	0.000144958	-7.53E-05	0.000160217	-0.016784668	0.866699219	-9.550476074	0.007247925	-0.003767014	0.008010864	-0.012207031	-0.769775391	0.861572266	891.12	174.6251579	0.211769383	-93.32981623	-78
12800	0	-0.000963211	0.034374237	-0.381297112	0.999999046	0.000178337	-6.29E-05	1.81E-05	-0.024080276	0.859355927	-9.532427788	0.008916855	-0.003147125	0.000905991	-0.012207031	-0.771728516	0.864501953	891	174.6469376	0.213367282	-93.32371348	-77
12801	0	-0.000549316	0.034790039	-0.381103516	0.999999046	1.14E-05	-2.86E-06	9.16E-05	-0.01373291	0.869750977	-9.527587891	0.000572205	-0.000143051	0.004577637	-0.011962891	-0.771972656	0.861816406	890.94	174.6495019	0.207318922	-93.32483844	-77
12802	0	-0.000912666	0.034719467	-0.380921364	0.999999046	0.000196457	-2.48E-05	7.15E-05	-0.022816658	0.867986679	-9.523034096	0.009822846	-0.001239777	0.003576279	-0.014648438	-0.76953125	0.864501953	890.9	174.6732045	0.204004247	-93.32746306	-77
12803	0	-0.000976563	0.034545898	-0.381958008	0.999999046	-0.000183105	-2.96E-05	3.05E-05	-0.024414063	0.863647461	-9.548950195	-0.009155273	-0.001478195	0.001525879	-0.014404297	-0.771728516	0.867431641	890.98	174.6533774	0.201689614	-93.32494267	-77
12804	0	-0.000693321	0.034745216	-0.380114555	0.999999046	-3.72E-05	-9.54E-06	0.000102043	-0.017333031	0.868630409	-9.502863884	-0.001859665	-0.000476837	0.005102158	-0.011962891	-0.773925781	0.864746094	890.94	174.6501894	0.19633067	-93.32670451	-77
12805	0	-0.000610352	0.034790039	-0.379089355	0.999999046	0.000164032	-9.82E-05	9.54E-05	-0.015258789	0.869750977	-9.477233887	0.008201599	-0.004911423	0.004768372	-0.011962891	-0.773925781	0.864746094	890.94	174.6699912	0.201166012	-93.32872225	-78
12806	0	-0.001168251	0.034420967	-0.37922287	0.999999046	7.06E-05	-9.54E-05	6.10E-05	-0.029206276	0.860524178	-9.480571747	0.003528595	-0.004768372	0.003051758	-0.009765625	-0.769775391	0.858642578	890.9	174.6790502	0.206070422	-93.3241641	-78
12807	0	-0.000488281	0.034362793	-0.379943848	0.999999046	-6.48E-05	-6.39E-05	4.58E-05	-0.012207031	0.859069824	-9.498596191	-0.003242493	-0.003194809	0.002288818	-0.010009766	-0.769775391	0.8671875	890.86	174.6725474	0.207538751	-93.31819013	-77
12808	0	-0.000840187	0.035265923	-0.379940033	0.999999046	0.000107765	-6.29E-05	0.000193596	-0.021004677	0.881648064	-9.498500824	0.00538826	-0.003147125	0.009679794	-0.011962891	-0.771972656	0.861816406	890.98	174.6856664	0.207338399	-93.33142829	-78
12809	0	-0.001342773	0.034423828	-0.381103516	0.999999046	0.000114441	-0.00014782	4.20E-05	-0.033569336	0.860595703	-9.527587891	0.005722046	-0.007390976	0.002098084	-0.009765625	-0.771972656	0.864501953	890.98	174.6995722	0.218468268	-93.32548302	-78
12810	0	-0.001148224	0.034397125	-0.380562782	0.999999046	-4.58E-05	6.48E-05	5.63E-05	-0.028705597	0.859928131	-9.514069557	-0.002288818	0.003242493	0.002813339	-0.009765625	-0.769775391	0.864257813	890.98	174.6950706	0.20520139	-93.3189402	-77
12811	0	-0.000549316	0.034729004	-0.37902832	0.999999046	0.000102997	8.11E-05	1.14E-05	-0.01373291	0.868225098	-9.475708008	0.005149841	0.004053116	0.000572205	-0.012207031	-0.769775391	0.864257813	891.06	174.7075549	0.190554118	-93.31054108	-78