Counter	Temperature	VelInc_X	VelInc_Y	VelInc_Z	OriInc_w	OriInc_x	OriInc_y	OriInc_z	Acc_X	Acc_Y	Acc_Z	Gyr_X	Gyr_Y	Gyr_Z	Mag_X	Mag_Y	Mag_Z	Pressure	Roll	Pitch	Yaw	RSSI
14286	0	0.374597549	-0.101680756	0.062774658	0.999996185	-0.001971245	0.001517296	-0.000868797	9.364938736	-2.54201889	1.569366455	-0.098562355	0.07586488	-0.043439915	-0.72265625	0.073730469	-0.735839844	890.8	-59.93914924	-73.59949964	68.96756437	-74
14287	0	0.370422363	-0.100524902	0.055908203	0.999997139	0.000740051	0.001599312	-0.001358032	9.260559082	-2.513122559	1.397705078	0.037002594	0.079965657	-0.067901667	-0.717529297	0.066894531	-0.738525391	890.9	-59.01987816	-73.64315095	68.08703073	-74
14288	0	0.379059792	-0.097218513	0.054639816	0.999996185	0.001375198	0.001835823	-0.001331329	9.476494789	-2.430462837	1.365995407	0.068759999	0.091791261	-0.066566545	-0.715087891	0.064697266	-0.741210938	890.8	-57.9509852	-73.66577522	67.12505737	-74
14289	0	0.381408691	-0.095092773	0.05456543	0.999998093	-0.000105858	0.0014534	-0.000549316	9.535217285	-2.377319336	1.364135742	-0.005292895	0.072670012	-0.027465831	-0.712646484	0.062255859	-0.749755859	890.86	-57.34164691	-73.63235985	66.46609983	-74
14290	0	0.382881165	-0.098163605	0.055778503	0.999996185	-0.002186775	0.001200676	0.00043869	9.572029114	-2.454090118	1.394462585	-0.109338877	0.060033862	0.021934533	-0.710205078	0.060058594	-0.746826172	890.86	-57.26580082	-73.51822234	66.12105494	-75
14291	0	0.371826172	-0.093139648	0.057678223	0.999996185	-0.001952171	0.000743866	0.001377106	9.295654297	-2.328491211	1.441955566	-0.097608668	0.037193337	0.068855357	-0.708007813	0.064453125	-0.744628906	890.96	-57.50897351	-73.34190395	66.13726287	-76
14292	0	0.373986244	-0.091117859	0.062275887	0.999997139	-0.001912117	0.000431061	0.001166344	9.349656105	-2.277946472	1.556897163	-0.095605933	0.021553058	0.058317235	-0.708496094	0.071044922	-0.748046875	890.9	-57.80186901	-73.20524578	66.20810527	-76
14293	0	0.373840332	-0.090454102	0.06036377	0.999995232	-0.002693176	0.001221657	0.000667572	9.346008301	-2.261352539	1.509094238	-0.13465902	0.061082934	0.033378652	-0.706298828	0.077392578	-0.751464844	890.98	-57.82860214	-73.06886213	65.90571423	-76
14294	0	0.377286911	-0.093490601	0.062431335	0.999992371	-0.003670692	0.001015663	0.0008564	9.432172775	-2.337265015	1.560783386	-0.183535088	0.050783286	0.042820086	-0.704101563	0.081787109	-0.751953125	890.9	-58.07134978	-72.92699487	65.71425895	-76
14295	0	0.377990723	-0.093383789	0.063232422	0.999993324	-0.003376007	0.000531197	0.001087189	9.449768066	-2.334594727	1.580810547	-0.168800716	0.026559887	0.054359553	-0.702148438	0.088378906	-0.749755859	890.98	-58.47686297	-72.79230899	65.72843583	-76
14296	0	0.377889633	-0.100367546	0.06259346	0.999997139	-0.002179146	1.91E-05	0.000497818	9.447240829	-2.509188652	1.564836502	-0.108957381	0.000953675	0.02489092	-0.699951172	0.094726563	-0.753417969	890.98	-58.790599	-72.74574909	65.78659039	-76
14297	0	0.375549316	-0.100585938	0.060546875	0.999999046	4.20E-05	-0.000166893	0.000595093	9.38873291	-2.514648438	1.513671875	0.002098084	-0.008344651	0.029754641	-0.700195313	0.096923828	-0.750732422	890.96	-58.92641704	-72.70056481	65.92389566	-77
14298	0	0.375388145	-0.101577759	0.063053131	0.999999046	0.0007267	-0.000677109	0.000494957	9.384703636	-2.53944397	1.576328278	0.036334999	-0.033855445	0.024747854	-0.704833984	0.097167969	-0.753173828	890.86	-59.12495371	-72.69506748	66.20927217	-76
14299	0	0.381103516	-0.105712891	0.058532715	0.999998093	0.001786232	-0.000686646	0.000289917	9.527587891	-2.642822266	1.463317871	0.089311655	-0.034332297	0.014495859	-0.702636719	0.097167969	-0.747558594	891.04	-59.16723866	-72.71003795	66.45544771	-77
14300	0	0.376670837	-0.100773811	0.059839249	0.999997139	0.001879692	-0.000650406	0.000136375	9.416770935	-2.519345284	1.495981216	0.093984666	-0.032520316	0.006818776	-0.702392578	0.092773438	-0.750244141	890.92	-59.1588385	-72.73798469	66.66097326	-79
14301	0	0.374023438	-0.101501465	0.061035156	0.999998093	0.001629829	-7.63E-05	-0.000160217	9.350585938	-2.537536621	1.525878906	0.081491507	-0.003814699	-0.008010868	-0.704589844	0.090576172	-0.75	890.86	-58.9412608	-72.76128079	66.6177866	-79
14302	0	0.378275871	-0.099653244	0.062034607	0.999998093	0.001740456	-0.00011158	-0.000270844	9.456896782	-2.4913311	1.550865173	0.087022827	-0.005578998	-0.013542182	-0.706787109	0.088378906	-0.746826172	890.86	-58.7004347	-72.79749437	66.56395506	-79
14303	0	0.378112793	-0.09942627	0.06262207	0.999997139	0.001914978	-0.000201225	-0.000499725	9.452819824	-2.485656738	1.565551758	0.095748965	-0.010061271	-0.024986284	-0.704345703	0.086181641	-0.749511719	891.02	-58.42280936	-72.8613832	66.48984316	-78
14304	0	0.377562523	-0.097352982	0.060707092	0.999996185	0.002458572	0.000226021	-6.58E-05	9.439063072	-2.433824539	1.517677307	0.122928744	0.011301052	-0.00329018	-0.704345703	0.081787109	-0.746337891	890.8	-58.03149601	-72.85721226	66.3635903	-76
14305	0	0.378601074	-0.09161377	0.064025879	0.999997139	0.002098083	0.000779152	0.000473022	9.465026855	-2.290344238	1.600646973	0.104904266	0.03895763	0.023651144	-0.703857422	0.077392578	-0.751708984	890.86	-57.6138932	-72.76704895	66.16847249	-75
14306	0	0.379520416	-0.089827538	0.06102562	0.999999046	0.000299454	0.000553131	0.000716209	9.488010406	-2.245688438	1.525640488	0.014972689	0.027656559	0.035810476	-0.701660156	0.077392578	-0.754638672	890.98	-57.52257699	-72.66746381	66.0990879	-76
14307	0	0.379272461	-0.093566895	0.058776855	0.999999046	-0.000137329	0.000660896	0.000946045	9.481811523	-2.339172363	1.469421387	-0.006866457	0.033044823	0.047302257	-0.701660156	0.077392578	-0.751708984	890.86	-57.49423554	-72.53938513	66.0461372	-75
14308	0	0.37584877	-0.090023041	0.06089592	0.999998093	0.000499725	0.001063347	0.00094223	9.396219254	-2.250576019	1.522397995	0.024986277	0.053167363	0.047111529	-0.69921875	0.077148438	-0.751953125	890.92	-57.27014969	-72.38723176	65.86544533	-76
14309	0	0.374694824	-0.088623047	0.06048584	0.999999046	-0.000591278	0.000691414	0.000526428	9.367370605	-2.215576172	1.512145996	-0.029563909	0.0345707	0.026321416	-0.697021484	0.079345703	-0.755126953	890.94	-57.2047523	-72.29861536	65.718525	-76
14310	0	0.377447128	-0.093666077	0.057355881	0.999999046	-0.001045227	0.000583649	-1.62E-05	9.436178207	-2.341651917	1.433897018	-0.052261365	0.029182441	-0.000810623	-0.699462891	0.081542969	-0.755126953	890.8	-57.11970932	-72.26935572	65.49682259	-76
14311	0	0.375915527	-0.092712402	0.058898926	0.999999046	-0.000892639	0.000576973	-7.63E-06	9.397888184	-2.317810059	1.472473145	-0.044631966	0.028848654	-0.00038147	-0.697021484	0.081542969	-0.755371094	890.92	-57.02164073	-72.24002356	65.28086491	-76
14312	0	0.375665665	-0.093544006	0.058858871	0.999998093	-0.001407623	-0.000208855	-2.86E-05	9.391641617	-2.338600159	1.471471786	-0.070381188	-0.010442737	-0.001430512	-0.697265625	0.083740234	-0.752685547	890.92	-57.21510885	-72.26205811	65.3092349	-76
14313	0	0.377441406	-0.096374512	0.060180664	0.999998093	-0.001296043	-0.000740051	-0.000259399	9.436035156	-2.409362793	1.504516602	-0.064802195	-0.037002578	-0.012969976	-0.697265625	0.0859375	-0.755615234	890.92	-57.51247068	-72.33941643	65.45804611	-76
14314	0	0.373962402	-0.096801758	0.061706543	0.999999046	-0.000862122	-0.000789642	-0.000396729	9.349060059	-2.420043945	1.542663574	-0.04310609	-0.039482127	-0.019836431	-0.699462891	0.083740234	-0.758056641	890.82	-57.75068043	-72.43300853	65.60013171	-74
14315	0	0.374916077	-0.095885277	0.063978195	0.999998093	-0.00061512	-0.000684738	-0.000309944	9.372901917	-2.39713192	1.59945488	-0.030756002	-0.034236913	-0.01549721	-0.699707031	0.0859375	-0.752685547	890.86	-57.94655617	-72.51169969	65.72581616	-75
14316	0	0.374629021	-0.097060204	0.065671921	0.999999046	-0.000908852	-0.000743866	-0.000386238	9.365725517	-2.426505089	1.641798019	-0.045442593	-0.037193308	-0.01931191	-0.697509766	0.090332031	-0.750244141	890.92	-58.18063653	-72.60120597	65.85074979	-74
14317	0	0.380859375	-0.101379395	0.066589355	0.999999046	-0.000411987	-0.000571251	-0.000797272	9.521484375	-2.534484863	1.664733887	-0.020599369	-0.028562551	-0.039863594	-0.702148438	0.088378906	-0.752685547	890.86	-58.22555816	-72.7200412	65.8397119	-74
14318	0	0.375353813	-0.095955849	0.0685215	0.999999046	-0.000364304	-0.000263214	-0.00082016	9.383845329	-2.398896217	1.713037491	-0.018215182	-0.013160707	-0.041008002	-0.702148438	0.086181641	-0.749755859	890.82	-58.16255408	-72.8223732	65.7238375	-73
14319	0	0.373779297	-0.098144531	0.067382813	0.999999046	-0.000831604	-0.00033474	-0.000457764	9.344482422	-2.453613281	1.684570313	-0.041580207	-0.016736987	-0.022888187	-0.701904297	0.086181641	-0.752441406	890.92	-58.24533267	-72.89348892	65.70440345	-73
14320	0	0.37696743	-0.099926949	0.067512512	0.999999046	-0.000184059	-8.39E-05	-0.000618935	9.424185753	-2.498173714	1.687812805	-0.009202958	-0.004196167	-0.030946734	-0.704345703	0.086181641	-0.752441406	890.86	-58.14192488	-72.96485869	65.56788386	-73
14321	0	0.37902832	-0.102355957	0.065917969	0.999999046	-0.00043869	0.000267982	-0.00063324	9.475708008	-2.558898926	1.647949219	-0.021934512	0.013399126	-0.031661991	-0.704345703	0.086181641	-0.752441406	890.88	-57.95180894	-73.01583976	65.31007875	-73
14322	0	0.377044678	-0.100349426	0.065420151	0.999999046	-0.000337601	0.000379562	8.77E-05	9.426116943	-2.508735657	1.635503769	-0.016880036	0.01897812	0.004386902	-0.701904297	0.083984375	-0.749511719	890.94	-57.85752239	-72.98956788	65.16832794	-73
14323	0	0.380004883	-0.105163574	0.065917969	0.999999046	3.05E-05	5.82E-05	0.000335693	9.50012207	-2.629089355	1.647949219	0.001525879	0.002908707	0.016784668	-0.702148438	0.086181641	-0.749755859	890.96	-57.87279519	-72.95836685	65.18292631	-73
14324	0	0.372300148	-0.100344658	0.064379692	0.999998093	0.001396179	0.00045681	0.000717163	9.3075037	-2.508616447	1.609492302	0.069808991	0.02284051	0.03585817	-0.702148438	0.086181641	-0.746826172	890.82	-57.68180584	-72.86555506	65.14507517	-72
14325	0	0.37322998	-0.096496582	0.06439209	0.999999046	-4.58E-05	0.000359535	0.001037598	9.330749512	-2.412414551	1.609802246	-0.002288819	0.017976764	0.051879893	-0.701904297	0.083984375	-0.749511719	890.92	-57.75017264	-72.74757161	65.21050235	-72
14326	0	0.376399994	-0.09826088	0.06166172	0.999999046	-0.000232697	0.000511169	0.001044273	9.409999847	-2.456521988	1.541543007	-0.011634829	0.025558478	0.052213681	-0.701904297	0.086181641	-0.752441406	890.88	-57.79356366	-72.61967174	65.2266469	-73
14327	0	0.377929688	-0.096984863	0.0625	0.999999046	0.000156403	0.000191689	0.000591278	9.448242188	-2.424621582	1.5625	0.00782013	0.009584428	0.029563906	-0.702148438	0.088378906	-0.747070313	890.86	-57.80267915	-72.55531794	65.25277242	-73
14328	0	0.376084328	-0.096190453	0.059987068	0.999999046	0.000460625	7.82E-05	0.000492096	9.402108192	-2.404761314	1.499676704	0.023031237	0.003910065	0.024604799	-0.702148438	0.088378906	-0.752685547	890.86	-57.79286973	-72.50771615	65.2944511	-72
14329	0	0.373718262	-0.095581055	0.060180664	0.999999046	0.000659943	-0.000308037	0.000804901	9.342956543	-2.389526367	1.504516602	0.032997138	-0.015401843	0.040245064	-0.699707031	0.088134766	-0.75	890.98	-57.93925822	-72.45348757	65.52372635	-73
14330	0	0.377449036	-0.094156265	0.060132027	0.999999046	0.000516891	-0.000341415	0.000404358	9.436225891	-2.353906631	1.503300667	0.025844576	-0.017070772	0.020217897	-0.699707031	0.088134766	-0.75	890.86	-58.0346019	-72.44039066	65.68169228	-73
14331	0	0.377624512	-0.093811035	0.061767578	0.999999046	6.87E-05	-0.000128746	8.77E-05	9.440612793	-2.345275879	1.544189453	0.003433228	-0.006437302	0.004386902	-0.699707031	0.088134766	-0.75	890.94	-58.05492746	-72.44543135	65.70699299	-73
14332	0	0.377257347	-0.096859932	0.062720299	0.999999046	-5.82E-05	-0.000183105	3.43E-05	9.431433678	-2.421498299	1.568007469	-0.002908707	-0.009155273	0.001716614	-0.699707031	0.088134766	-0.75	890.88	-58.09617001	-72.4590897	65.7389613	-73
14333	0	0.379760742	-0.097961426	0.06262207	0.999999046	0.000587463	-0.000575066	0.000114441	9.494018555	-2.449035645	1.565551758	0.029373172	-0.028753284	0.005722047	-0.702148438	0.088378906	-0.747070313	890.92	-58.19965555	-72.48876344	65.91352062	-73
14334	0	0.376331329	-0.095837593	0.062727928	0.999999046	0.00079155	-0.000459671	-6.96E-05	9.408283234	-2.395939827	1.568198204	0.03957749	-0.022983554	-0.003480912	-0.702148438	0.086181641	-0.749755859	890.94	-58.20902581	-72.52948736	66.01414204	-73
14335	0	0.373596191	-0.094543457	0.065979004	0.999999046	0.000442505	-0.00020504	-1.14E-05	9.339904785	-2.363586426	1.649475098	0.022125245	-0.010251999	-0.000572205	-0.704345703	0.086181641	-0.752441406	890.88	-58.19005716	-72.54922626	66.0422604	-74
14336	0	0.377958298	-0.09557724	0.064320564	0.999999046	7.34E-05	-1.91E-05	0.000159264	9.448957443	-2.389431	1.608014107	0.003671646	-0.000953674	0.007963181	-0.704345703	0.083984375	-0.746582031	890.92	-58.18810194	-72.5412194	66.04863802	-75
14337	0	0.378601074	-0.096496582	0.062988281	0.999999046	0.000217438	1.62E-05	0.000190735	9.465026855	-2.412414551	1.574707031	0.010871887	0.000810623	0.009536743	-0.702148438	0.086181641	-0.749755859	890.88	-58.16457254	-72.52813254	66.0445805	-75
14338	0	0.380270958	-0.095760345	0.063467979	0.999999046	2.29E-05	9.54E-05	0.000212669	9.506773949	-2.394008636	1.586699486	0.001144409	0.004768372	0.010633469	-0.701904297	0.086181641	-0.752441406	890.92	-58.14278193	-72.50828431	66.01870444	-75
14339	0	0.374450684	-0.095214844	0.060852051	0.999999046	-0.00044632	0.000416756	0.000343323	9.36126709	-2.380371094	1.52130127	-0.022315981	0.020837786	0.017166139	-0.702148438	0.088378906	-0.747070313	890.94	-58.1008263	-72.45642978	65.91550164	-75
14340	0	0.374515533	-0.095223427	0.062787056	0.999999046	-0.000359535	0.000267029	0.000231743	9.362888336	-2.38058567	1.569676399	-0.017976762	0.013351441	0.011587143	-0.702148438	0.086181641	-0.749755859	890.94	-58.07368353	-72.42460474	65.84244	-79
14341	0	0.377380371	-0.096679688	0.062011719	0.999999046	-0.000305176	0.000172615	-0.00031662	9.434509277	-2.416992188	1.550292969	-0.01525879	0.008630753	-0.015830994	-0.699707031	0.0859375	-0.749755859	890.94	-57.96428495	-72.45192065	65.68893577	-81
14342	0	0.378274918	-0.098248482	0.061898232	0.999999046	-0.000234604	0.000226974	-0.000183105	9.45687294	-2.456212044	1.547455788	-0.011730194	0.011348725	-0.009155274	-0.701904297	0.088134766	-0.755615234	890.92	-57.85568285	-72.46295322	65.54119781	-83
14343	0	0.37487793	-0.099487305	0.061828613	0.999999046	-0.000339508	-0.000227928	0.000331879	9.371948242	-2.487182617	1.545715332	-0.016975404	-0.011396409	0.016593934	-0.701904297	0.0859375	-0.755371094	890.92	-57.99832993	-72.45164164	65.64895967	-84
14344	0	0.377830505	-0.100636482	0.06402874	0.999999046	0.000102043	-0.000268936	0.000197411	9.445762634	-2.515912056	1.600718498	0.005102158	-0.013446808	0.009870529	-0.699707031	0.088134766	-0.752929688	890.92	-58.0771901	-72.45574575	65.73888439	-84
14345	0	0.372802734	-0.100463867	0.063232422	0.999999046	-8.77E-05	-9.82E-05	0.000179291	9.320068359	-2.51159668	1.580810547	-0.004386902	-0.004911423	0.008964539	-0.702148438	0.088378906	-0.749755859	890.88	-58.1219792	-72.45111372	65.77218871	-84
14346	0	0.373999596	-0.10097599	0.065215111	0.999999046	-0.000141144	-0.000101089	0.000694275	9.349989891	-2.524399757	1.630377769	-0.007057191	-0.005054474	0.034713748	-0.699951172	0.090332031	-0.750244141	890.88	-58.27176543	-72.39630389	65.90674027	-83
14347	0	0.377807617	-0.101196289	0.063293457	0.999999046	1.53E-05	-0.000113487	0.000610352	9.44519043	-2.529907227	1.582336426	0.00076294	-0.005674363	0.03051758	-0.702148438	0.090576172	-0.75	890.94	-58.39088386	-72.35026969	66.02981867	-82
14348	0	0.379347801	-0.10062027	0.065406799	0.999999046	-0.000103951	-0.000221252	0.000602722	9.48369503	-2.515506744	1.635169983	-0.005197525	-0.011062623	0.030136111	-0.702148438	0.090332031	-0.752929688	890.94	-58.55435864	-72.31129965	66.18612337	-81
14349	0	0.376281738	-0.101196289	0.064453125	0.999999046	0.000137329	-0.000239372	0.000774384	9.407043457	-2.529907227	1.611328125	0.006866456	-0.011968614	0.038719182	-0.702148438	0.090576172	-0.75	890.86	-58.72688466	-72.25639637	66.38245391	-81
14350	0	0.373961449	-0.099256516	0.064055443	0.999999046	0.000293732	-0.000291824	0.000987053	9.349036217	-2.481412888	1.60138607	0.014686587	-0.01459122	0.049352655	-0.699951172	0.092529297	-0.750244141	890.88	-58.93529675	-72.18355438	66.63233057	-80
14351	0	0.375549316	-0.099243164	0.06451416	0.999999046	9.16E-05	0.000126839	0.000682831	9.38873291	-2.481079102	1.612854004	0.004577637	0.006341935	0.034141543	-0.702148438	0.092529297	-0.752929688	890.98	-58.98149031	-72.11571105	66.68939545	-80
14352	0	0.376831055	-0.097961426	0.063720703	0.999999046	-6.77E-05	9.54E-05	0.000274658	9.420776367	-2.449035645	1.593017578	-0.003385544	0.004768372	0.01373291	-0.702392578	0.094970703	-0.750244141	890.92	-58.98021605	-72.08995671	66.67513967	-79
14353	0	0.375669479	-0.09899807	0.064613342	0.999998093	-2.86E-06	0.000137329	0.000113487	9.391736984	-2.474951744	1.615333557	-0.000143051	0.006866455	0.005674362	-0.699951172	0.092529297	-0.744628906	890.88	-58.9289104	-72.07761909	66.62067039	-79
14354	0	0.379189491	-0.102129936	0.066498756	0.999999046	0.000299454	-0.000249863	9.54E-05	9.479737282	-2.553248405	1.66246891	0.014972687	-0.012493134	0.004768372	-0.702392578	0.094726563	-0.753173828	890.94	-58.95681219	-72.0899019	66.68042054	-79
14355	0	0.375305176	-0.10144043	0.066589355	0.999999046	0.000614166	-0.00020504	-0.000144958	9.382629395	-2.536010742	1.664733887	0.030708315	-0.010252	-0.007247925	-0.699951172	0.092529297	-0.750244141	890.88	-58.89059048	-72.12304773	66.68021732	-77
14356	0	0.373347282	-0.102290154	0.065095901	0.999999046	0.000760078	-0.000366211	-8.39E-05	9.33368206	-2.557253838	1.627397537	0.038003926	-0.018310549	-0.004196167	-0.702148438	0.090576172	-0.747070313	890.88	-58.86771234	-72.15963691	66.74573129	-79
14357	0	0.37512207	-0.099182129	0.062683105	0.999999046	0.000507355	-0.000182152	0.000141144	9.378051758	-2.479553223	1.567077637	0.025367738	-0.00910759	0.00705719	-0.704589844	0.090576172	-0.747070313	890.88	-58.85911569	-72.16334161	66.79582144	-79
14358	0	0.377502441	-0.101318359	0.061706543	0.999999046	0.000152588	3.05E-05	-0.000102997	9.437561035	-2.532958984	1.542663574	0.007629395	0.001525879	-0.005149841	-0.702148438	0.088378906	-0.749755859	890.92	-58.7815855	-72.17843449	66.73173914	-77
14359	0	0.376647949	-0.100952148	0.062438965	0.999999046	0.000549316	0.000275612	-0.000228882	9.41619873	-2.523803711	1.560974121	0.027465822	0.013780595	-0.011444093	-0.702148438	0.088378906	-0.747070313	891	-58.56056527	-72.19122867	66.56368313	-75
14360	0	0.373363495	-0.100408554	0.062387466	0.999999046	-7.34E-05	-5.34E-05	9.54E-05	9.334087372	-2.510213852	1.559686661	-0.003671646	-0.002670288	0.004768372	-0.702148438	0.088378906	-0.747070313	890.88	-58.5714102	-72.19188916	66.56441608	-77
14361	0	0.374694824	-0.101257324	0.06060791	0.999999046	-4.96E-05	1.62E-05	0.000320435	9.367370605	-2.531433105	1.515197754	-0.002479553	0.000810623	0.016021729	-0.704345703	0.088378906	-0.752685547	891	-58.60064541	-72.16641112	66.58765107	-79
14362	0	0.375483513	-0.099001884	0.063111305	0.999999046	-0.000164032	6.10E-05	0.000125885	9.387087822	-2.475047112	1.577782631	-0.008201599	0.003051758	0.006294251	-0.702148438	0.088378906	-0.747070313	890.92	-58.59314561	-72.15736417	66.55959523	-80
14363	0	0.37701416	-0.1015625	0.061279297	0.999999046	-0.000419617	-0.000212669	0.000164032	9.425354004	-2.5390625	1.531982422	-0.020980836	-0.010633469	0.008201599	-0.702148438	0.088378906	-0.752685547	890.94	-58.70559413	-72.16095467	66.62623924	-81
14364	0	0.374016762	-0.09844017	0.060242653	0.999999046	-0.000208855	-0.000135422	0.000529289	9.350419044	-2.461004257	1.506066322	-0.010442734	-0.006771088	0.026464464	-0.702148438	0.088378906	-0.747070313	890.94	-58.83793352	-72.12427354	66.742191	-81
14365	0	0.379211426	-0.101135254	0.061889648	0.999999046	-0.000453949	-0.000235558	0.000423431	9.480285645	-2.528381348	1.547241211	-0.02269745	-0.011777879	0.021171571	-0.699951172	0.090332031	-0.750244141	890.88	-59.00909848	-72.10390077	66.8658	-81
14366	0	0.373723984	-0.100534439	0.064612389	0.999999046	-0.000326157	-0.0001297	0.00012207	9.343099594	-2.513360977	1.615309715	-0.016307831	-0.006484986	0.006103516	-0.702392578	0.092773438	-0.750244141	890.88	-59.07786024	-72.10678603	66.89514323	-79
14367	0	0.374755859	-0.102050781	0.06463623	0.999999046	-0.000190735	-9.82E-05	0.000301361	9.368896484	-2.551269531	1.615905762	-0.009536743	-0.004911423	0.015068055	-0.702148438	0.090576172	-0.747070313	891.04	-59.15394141	-72.0900943	66.95401692	-78
14368	0	0.376355171	-0.100715637	0.063729286	0.999999046	-0.000365257	1.53E-05	0.000392914	9.40887928	-2.51789093	1.593232155	-0.018262864	0.000762939	0.019645692	-0.702392578	0.092773438	-0.747314453	890.92	-59.23173046	-72.05773559	66.99168718	-76
14369	0	0.378112793	-0.103027344	0.062255859	0.999999046	-0.000526428	0.000180244	0.000263214	9.452819824	-2.575683594	1.556396484	-0.026321413	0.009012223	0.013160706	-0.702392578	0.092773438	-0.747314453	890.92	-59.25440397	-72.02847629	66.9540253	-75
14370	0	0.377486229	-0.103048325	0.062526703	0.999999046	-0.000301361	0.000246048	0.000209808	9.437155724	-2.576208115	1.563167572	-0.015068055	0.012302399	0.010490418	-0.702392578	0.094970703	-0.750244141	890.86	-59.22186492	-72.00061416	66.88218201	-75
14371	0	0.374145508	-0.102844238	0.063781738	0.999999046	-0.000335693	0.000191689	0.000480652	9.353637695	-2.571105957	1.594543457	-0.016784669	0.009584427	0.024032594	-0.702392578	0.092773438	-0.750244141	890.88	-59.25856089	-71.94920396	66.88497447	-75
14372	0	0.376523972	-0.102639198	0.064222336	0.999999046	-0.000161171	0.000177383	0.000499725	9.413099289	-2.565979958	1.605558395	-0.008058548	0.008869172	0.024986268	-0.702392578	0.097167969	-0.750488281	890.82	-59.28276078	-71.89673925	66.88957141	-75
14373	0	0.377502441	-0.102539063	0.061950684	0.999999046	-0.000301361	0.000443459	0.000270844	9.437561035	-2.563476563	1.54876709	-0.015068055	0.022172929	0.013542176	-0.700195313	0.096923828	-0.750732422	890.94	-59.20221401	-71.85130426	66.76805872	-74
14374	0	0.37586689	-0.101437569	0.061855316	0.999999046	-0.000370026	0.000696182	0.000389099	9.396672249	-2.535939217	1.546382904	-0.018501284	0.034809117	0.019454959	-0.700195313	0.099121094	-0.748046875	890.92	-59.07574892	-71.77942977	66.58934029	-74
14375	0	0.372619629	-0.101806641	0.063110352	0.999999046	-9.54E-05	0.000317574	0.000541687	9.315490723	-2.545166016	1.577758789	-0.004768372	0.015878678	0.027084352	-0.697998047	0.099121094	-0.748046875	890.98	-59.05883417	-71.71483111	66.55970606	-73
14376	0	0.37650013	-0.101127625	0.060582161	0.999999046	0.000279427	0.000497818	2.29E-05	9.412503242	-2.528190613	1.514554024	0.013971329	0.024890901	0.001144409	-0.697753906	0.099121094	-0.75390625	890.84	-58.853481	-71.69071546	66.37485324	-73
14377	0	0.373718262	-0.102416992	0.060302734	0.999999046	-0.000236511	0.000271797	7.63E-06	9.342956543	-2.560424805	1.507568359	-0.011825562	0.013589859	0.00038147	-0.700195313	0.099121094	-0.750732422	890.82	-58.77229839	-71.68149469	66.2614516	-73
14378	0	0.375819206	-0.101719856	0.061677933	0.999999046	-0.000150681	1.72E-05	0.000483513	9.395480156	-2.542996407	1.541948318	-0.007534027	0.000858307	0.024175645	-0.695556641	0.099121094	-0.750976563	890.82	-58.84220785	-71.64089113	66.31638565	-73
14379	0	0.375183105	-0.102050781	0.06060791	0.999999046	-0.00012207	-4.10E-05	0.000274658	9.379577637	-2.551269531	1.515197754	-0.006103516	-0.0020504	0.01373291	-0.697998047	0.099121094	-0.750976563	890.88	-58.88894556	-71.62437537	66.35247455	-74
14380	0	0.377327919	-0.102882385	0.0613451	0.999998093	-0.000423431	-5.63E-05	0.000221252	9.433197975	-2.572059631	1.53362751	-0.021171571	-0.002813339	0.011062622	-0.697998047	0.101318359	-0.748291016	890.94	-58.96548201	-71.61414512	66.38169999	-73
14381	0	0.375305176	-0.103271484	0.063049316	0.999999046	-0.000183105	-0.000227928	8.01E-05	9.382629395	-2.581787109	1.57623291	-0.009155274	-0.011396408	0.004005432	-0.697998047	0.101318359	-0.75390625	890.88	-59.04022317	-71.62795925	66.43676966	-74
14382	0	0.373657227	-0.101928711	0.061645508	0.999999046	-0.000125885	-0.000431061	0.000175476	9.341430664	-2.548217773	1.541137695	-0.006294251	-0.02155304	0.008773804	-0.700439453	0.103515625	-0.751220703	890.88	-59.18577208	-71.64443022	66.5715315	-74
14383	0	0.375061035	-0.104003906	0.062927246	0.999999046	0.000259399	-0.000395775	-0.0001297	9.376525879	-2.600097656	1.573181152	0.012969971	-0.019788743	-0.006484986	-0.700439453	0.101318359	-0.750976563	890.88	-59.22306835	-71.6888208	66.64110027	-74
14384	0	0.376786232	-0.104301453	0.063353539	0.999999046	0.000346184	-0.000299454	-0.000317574	9.4196558	-2.607536316	1.583838463	0.01730919	-0.014972688	-0.015878678	-0.697998047	0.101318359	-0.748291016	890.94	-59.188621	-71.74605823	66.64257343	-75
14385	0	0.374023438	-0.104919434	0.06451416	0.999999046	2.29E-05	-0.000201225	0.000114441	9.350585938	-2.62298584	1.612854004	0.001144409	-0.010061264	0.005722046	-0.700195313	0.099121094	-0.748046875	890.92	-59.23871789	-71.75489555	66.69922497	-75
14386	0	0.37976265	-0.104149818	0.06503582	0.999999046	1.53E-05	-0.000362396	0.000270844	9.494066238	-2.603745461	1.6258955	0.000762939	-0.018119813	0.013542176	-0.700195313	0.099121094	-0.748046875	890.98	-59.36548308	-71.75772209	66.83569753	-75
14387	0	0.374694824	-0.103942871	0.06463623	0.999999046	-5.34E-05	1.62E-05	0.000118256	9.367370605	-2.598571777	1.615905762	-0.002670288	0.000810623	0.005912781	-0.700195313	0.099121094	-0.748046875	890.86	-59.35964458	-71.75337381	66.82452085	-75
14388	0	0.373690605	-0.105931282	0.065551758	0.999999046	-3.91E-05	4.39E-05	0.000629425	9.342265129	-2.648282051	1.638793945	-0.001955032	0.002193451	0.031471255	-0.700195313	0.099121094	-0.748046875	890.94	-59.43406189	-71.69681459	66.90120804	-75
14389	0	0.374389648	-0.102722168	0.064758301	0.999999046	-1.53E-05	0.000245094	0.000701904	9.359741211	-2.568054199	1.61895752	-0.00076294	0.012254716	0.035095218	-0.700195313	0.099121094	-0.750732422	890.88	-59.45784059	-71.62136783	66.92872178	-75
14390	0	0.376654625	-0.104046822	0.062436104	0.999999046	-0.00018692	0.00030899	0.00032711	9.416365623	-2.60117054	1.560902596	-0.009346009	0.015449525	0.016355515	-0.700439453	0.101318359	-0.750976563	890.94	-59.4167514	-71.57924756	66.86463471	-74
14391	0	0.378417969	-0.106323242	0.061096191	0.999999046	-0.000450134	0.000405312	0.000595093	9.460449219	-2.658081055	1.527404785	-0.022506717	0.020265582	0.029754642	-0.700195313	0.101318359	-0.75390625	890.88	-59.42488211	-71.50511692	66.82273467	-74
14392	0	0.374882698	-0.106948853	0.062706947	0.999999046	-0.000340462	7.44E-05	0.001238823	9.372067451	-2.673721313	1.567673683	-0.017023091	0.003719331	0.061941164	-0.698242188	0.105712891	-0.751464844	890.88	-59.62940623	-71.38661472	66.99665498	-73
14393	0	0.373535156	-0.102539063	0.061157227	0.999999046	-0.000377655	-0.000124931	0.001094818	9.338378906	-2.563476563	1.528930664	-0.018882756	-0.006246568	0.054740918	-0.698242188	0.107910156	-0.748779297	890.84	-59.86970857	-71.29385414	67.20421941	-73
14394	0	0.374180794	-0.102796555	0.062999725	0.999999046	-0.000705719	0.000175476	0.000160217	9.354519844	-2.569913864	1.574993134	-0.035285953	0.008773805	0.008010865	-0.696044922	0.107910156	-0.749023438	890.84	-59.89956369	-71.27648202	67.15099955	-73
14395	0	0.375793457	-0.106689453	0.061767578	0.999999046	-0.000415802	0.000138283	-0.000530243	9.394836426	-2.667236328	1.544189453	-0.020790102	0.006914139	-0.026512148	-0.698242188	0.107910156	-0.751708984	890.92	-59.78983313	-71.32971993	66.98569703	-73
14396	0	0.374300003	-0.104636192	0.062515259	0.999999046	0.000290871	-0.000354767	-0.000264168	9.357500076	-2.615904808	1.56288147	0.014543534	-0.017738343	-0.01320839	-0.696044922	0.109863281	-0.751953125	890.92	-59.78867773	-71.3850737	67.01327056	-72
14397	0	0.379699707	-0.106933594	0.066101074	0.999999046	0.000930786	-0.000555992	-0.000492096	9.492492676	-2.673339844	1.652526855	0.046539318	-0.027799613	-0.024604803	-0.695800781	0.107666016	-0.751708984	890.92	-59.73408927	-71.47458885	67.06116999	-73
14398	0	0.373223305	-0.10424614	0.066368103	0.999999046	0.000822067	-0.000284195	-0.000569344	9.330582619	-2.606153488	1.659202576	0.04110337	-0.01420975	-0.028467183	-0.698242188	0.103515625	-0.745605469	890.92	-59.59744698	-71.55599745	67.01603746	-73
14399	0	0.374694824	-0.104980469	0.06854248	0.999999046	0.000102997	-1.81E-05	-0.000167847	9.367370605	-2.624511719	1.713562012	0.005149841	-0.000905991	-0.008392334	-0.697998047	0.103515625	-0.751220703	890.94	-59.53297741	-71.58212511	66.95754839	-74
14400	0	0.374915123	-0.10587883	0.065680504	0.999999046	-0.0001688	0.000307083	-0.000145912	9.372878075	-2.646970749	1.642012596	-0.008440018	0.015354157	-0.007295609	-0.700439453	0.103515625	-0.748291016	890.88	-59.40668196	-71.58701691	66.8036087	-74
14401	0	0.377441406	-0.106750488	0.065490723	0.999999046	-0.00018692	0.000504494	-0.000217438	9.436035156	-2.668762207	1.637268066	-0.009346009	0.025224687	-0.010871888	-0.700439453	0.103515625	-0.751220703	890.88	-59.21132843	-71.58716965	66.5742469	-74
14402	0	0.374187469	-0.106184959	0.064789772	0.999999046	6.48E-05	0.000534058	-0.000324249	9.354686737	-2.654623985	1.619744301	0.003242493	0.026702883	-0.016212464	-0.697998047	0.103515625	-0.754150391	890.9	-58.95949882	-71.59568517	66.31293248	-75
14403	0	0.369873047	-0.104736328	0.065124512	0.999999046	0.000396729	0.000584602	-0.000228882	9.246826172	-2.618408203	1.628112793	0.019836428	0.02923012	-0.011444093	-0.695556641	0.101074219	-0.754150391	890.78	-58.67158278	-71.59134053	66.05572227	-75
14404	0	0.37216568	-0.104821205	0.063383102	0.999999046	0.000439644	0.000394821	-0.000602722	9.304141998	-2.620530128	1.58457756	0.021982196	0.019741061	-0.030136112	-0.697998047	0.101318359	-0.751220703	890.92	-58.3673745	-71.63442172	65.78569647	-76
14405	0	0.374023438	-0.105712891	0.063171387	0.999999046	4.20E-05	0.000657082	-0.00050354	9.350585938	-2.642822266	1.579284668	0.002098084	0.032854084	-0.025177005	-0.695556641	0.098876953	-0.75390625	890.98	-58.04918146	-71.65148932	65.45455843	-77
14406	0	0.372522354	-0.105821609	0.062020302	0.999999046	-8.96E-05	0.000490189	-0.000237465	9.313058853	-2.645540237	1.550507545	-0.00448227	0.024509431	-0.011873246	-0.695556641	0.098876953	-0.75390625	890.94	-57.84413098	-71.65232313	65.22668971	-79
14407	0	0.377990723	-0.106689453	0.063171387	0.999999046	-5.34E-05	5.44E-05	7.25E-05	9.449768066	-2.667236328	1.579284668	-0.002670288	0.002717972	0.003623962	-0.695556641	0.098876953	-0.75390625	890.94	-57.82017556	-71.6494992	65.19414183	-79
14408	0	0.371438026	-0.105163574	0.06185627	0.999999046	0.000359535	5.91E-05	-0.000118256	9.285950661	-2.629089355	1.546406746	0.017976761	0.00295639	-0.005912781	-0.6953125	0.096679688	-0.753662109	890.88	-57.71314694	-71.66481866	65.12651755	-81
14409	0	0.370666504	-0.101318359	0.063049316	0.999999046	-0.000293732	1.24E-05	0.000324249	9.266662598	-2.532958984	1.57623291	-0.014686585	0.000619888	0.016212464	-0.693115234	0.096679688	-0.75390625	890.98	-57.77656014	-71.64017168	65.15971229	-79
14410	0	0.373588562	-0.103002548	0.064156532	0.999999046	-0.000341415	-2.48E-05	0.000388145	9.33971405	-2.575063705	1.603913307	-0.017070771	-0.001239777	0.019407273	-0.693115234	0.098876953	-0.754150391	890.92	-57.86818042	-71.61160375	65.21431967	-76
14411	0	0.377197266	-0.101318359	0.065185547	0.999999046	7.63E-06	-0.000155449	-0.000106812	9.429931641	-2.532958984	1.629638672	0.00038147	-0.007772446	-0.005340576	-0.695556641	0.098876953	-0.75390625	890.94	-57.867042	-71.63914807	65.21413067	-76
14412	0	0.376628876	-0.102641106	0.063970566	0.999999046	-0.000163078	-0.000299454	-9.54E-05	9.415721893	-2.566027641	1.599264145	-0.008153916	-0.014972687	-0.004768372	-0.695556641	0.098876953	-0.75390625	890.88	-57.93001346	-71.67443769	65.26044928	-75
14413	0	0.373046875	-0.101135254	0.066833496	0.999999046	0.000160217	-0.000292778	7.63E-05	9.326171875	-2.528381348	1.670837402	0.008010864	-0.014638901	0.003814697	-0.695556641	0.101074219	-0.757080078	890.84	-57.98538625	-71.6926307	65.33185999	-75
14414	0	0.372764587	-0.101049423	0.06621933	0.999999046	0.000116348	-0.000226974	-1.53E-05	9.319114685	-2.52623558	1.655483246	0.005817413	-0.011348724	-0.000762939	-0.6953125	0.098876953	-0.756835938	890.84	-58.00951321	-71.71572299	65.36850594	-74
14415	0	0.376831055	-0.101196289	0.065551758	0.999999046	-9.92E-05	0.000172615	-0.000492096	9.420776367	-2.529907227	1.638793945	-0.004959107	0.008630753	-0.024604799	-0.693115234	0.096679688	-0.750976563	890.88	-57.8526698	-71.76090289	65.19211208	-74
14416	0	0.377215385	-0.103280067	0.064500809	0.999999046	-0.000462532	0.000219345	-0.000397682	9.430384636	-2.582001686	1.612520218	-0.023126604	0.010967255	-0.019884111	-0.6953125	0.096679688	-0.756591797	890.92	-57.74073532	-71.79394989	65.01920083	-73
14417	0	0.375793457	-0.102783203	0.063049316	0.999999046	-7.63E-06	-0.000128746	7.63E-06	9.394836426	-2.569580078	1.57623291	-0.00038147	-0.006437302	0.00038147	-0.6953125	0.098876953	-0.759765625	891	-57.7547912	-71.80898329	65.0282755	-73
14418	0	0.375868797	-0.102241516	0.061973572	0.999999046	-3.24E-05	3.81E-06	-9.54E-05	9.396719933	-2.556037903	1.549339294	-0.001621246	0.000190735	-0.004768372	-0.6953125	0.096679688	-0.756591797	890.98	-57.71390906	-71.82597002	64.98132508	-73
14419	0	0.370849609	-0.102844238	0.063964844	0.999999046	-0.000427246	0.000302315	0.000110626	9.271240234	-2.571105957	1.599121094	-0.021362306	0.015115739	0.005531311	-0.697753906	0.099121094	-0.756591797	890.92	-57.66893033	-71.80462343	64.88079678	-73
14420	0	0.374693871	-0.103591919	0.063551903	0.999999046	-0.000226021	6.29E-05	0.000403404	9.367346764	-2.589797974	1.588797569	-0.011301041	0.003147125	0.020170213	-0.693115234	0.098876953	-0.756835938	890.94	-57.72641949	-71.76954375	64.91171985	-73
14421	0	0.376647949	-0.102783203	0.062072754	0.999999046	-0.000164032	1.24E-05	0.000331879	9.41619873	-2.569580078	1.551818848	-0.008201599	0.000619888	0.016593933	-0.693115234	0.098876953	-0.756835938	890.94	-57.7787699	-71.74455837	64.94592135	-72
14422	0	0.378409386	-0.102078438	0.061436653	0.999999046	-0.000360489	-3.81E-05	0.000292778	9.460234642	-2.551960945	1.535916328	-0.018024445	-0.001907349	0.014638901	-0.695556641	0.101074219	-0.754150391	890.94	-57.86164685	-71.72659692	64.98801008	-72
14423	0	0.373718262	-0.10333252	0.063720703	0.999999046	-0.000247955	-0.000201225	0.000499725	9.342956543	-2.583312988	1.593017578	-0.012397767	-0.010061265	0.024986269	-0.693359375	0.101074219	-0.751464844	890.88	-58.01774282	-71.69840767	65.12186401	-72
14424	0	0.372665405	-0.101906776	0.064922333	0.999999046	0.000189781	-0.000490189	0.000636101	9.316635132	-2.547669411	1.623058319	0.009489061	-0.024509433	0.031805042	-0.695556641	0.101074219	-0.754150391	890.82	-58.23302894	-71.67429889	65.3719486	-72
14425	0	0.375549316	-0.101379395	0.063842773	0.999999046	0.000213623	-0.000361443	0.000293732	9.38873291	-2.534484863	1.596069336	0.010681153	-0.018072129	0.014686585	-0.695800781	0.103271484	-0.751464844	890.84	-58.34503293	-71.67568841	65.51220088	-72
14426	0	0.376389503	-0.102733612	0.063490868	0.999999046	-0.000205994	-6.48E-05	0.000133514	9.409737587	-2.568340302	1.58727169	-0.010299683	-0.003242493	0.00667572	-0.697998047	0.101318359	-0.75390625	890.88	-58.38875978	-71.67489515	65.53511298	-72
14427	0	0.374511719	-0.102416992	0.062805176	0.999999046	-0.000171661	-0.000247002	0.00037384	9.362792969	-2.560424805	1.570129395	-0.008583069	-0.012350083	0.018692017	-0.695556641	0.101074219	-0.751220703	890.82	-58.52584066	-71.66160658	65.66121504	-72
14428	0	0.377807617	-0.102050781	0.063232422	0.999999046	0.000191689	-0.000549316	0.000354767	9.44519043	-2.551269531	1.580810547	0.009584428	-0.027465822	0.017738344	-0.697998047	0.103515625	-0.754150391	890.94	-58.70696323	-71.66823954	65.87293028	-72
14429	0	0.373901367	-0.100830078	0.064331055	0.999999046	-0.000164032	-7.92E-05	-0.000221252	9.34753418	-2.520751953	1.608276367	-0.008201599	-0.003957748	-0.011062622	-0.697998047	0.101318359	-0.751220703	890.98	-58.6860992	-71.70326895	65.83361574	-72
14430	0	0.373957634	-0.104348183	0.065152168	0.999999046	-0.000427246	-8.96E-05	0.000164032	9.348940849	-2.608704567	1.628804207	-0.021362305	-0.004482269	0.008201599	-0.697998047	0.103515625	-0.751220703	890.94	-58.76769866	-71.70109019	65.86743688	-72
14431	0	0.376498222	-0.104223251	0.066583633	0.999999046	-2.67E-05	-0.000161171	0.000174522	9.412455559	-2.605581284	1.664590836	-0.001335144	-0.008058548	0.00872612	-0.697998047	0.103515625	-0.751220703	890.88	-58.82610505	-71.70203004	65.92535392	-73
14432	0	0.37770462	-0.105520248	0.067248344	0.999999046	0.000203133	-0.000108719	0.000319481	9.442615509	-2.63800621	1.681208611	0.010156632	-0.005435944	0.015974045	-0.695556641	0.101074219	-0.751220703	890.92	-58.8682211	-71.68549752	65.99719945	-72
14433	0	0.376159668	-0.101867676	0.067993164	0.999999046	0.000434875	-0.000136375	0.000579834	9.403991699	-2.546691895	1.699829102	0.021743776	-0.006818772	0.028991702	-0.697998047	0.103515625	-0.754150391	890.98	-58.93756219	-71.64501333	66.1215831	-73
14434	0	0.373923302	-0.101389885	0.066268921	0.999999046	-0.000183105	0.000225067	-0.000138283	9.348082542	-2.534747124	1.656723022	-0.009155274	0.011253357	-0.006914139	-0.697998047	0.101318359	-0.748291016	890.84	-58.84196404	-71.65362214	66.00378857	-73
14435	0	0.373718262	-0.10559082	0.066162109	0.999999046	-0.000289917	0.000458717	-0.000328064	9.342956543	-2.639770508	1.654052734	-0.014495851	0.022935869	-0.016403199	-0.697998047	0.103515625	-0.748535156	890.88	-58.65521772	-71.66667417	65.77280946	-73
14436	0	0.37409687	-0.106724739	0.06278038	0.999999046	0.000378609	0.000411987	-0.00037384	9.352421761	-2.668118477	1.569509506	0.018930437	0.020599367	-0.018692018	-0.697998047	0.103515625	-0.754150391	890.94	-58.39749689	-71.68659548	65.54433244	-73
14437	0	0.375549316	-0.106811523	0.061523438	0.999999046	0.000427246	0.000378609	-0.000236511	9.38873291	-2.670288086	1.538085938	0.021362306	0.018930436	-0.011825562	-0.697998047	0.099121094	-0.750976563	890.84	-58.1693345	-71.69478295	65.36078015	-73
14438	0	0.371464729	-0.104815483	0.059268951	0.999999046	5.91E-05	8.77E-05	0.000216484	9.286618233	-2.620387077	1.481723785	0.00295639	0.004386902	0.010824204	-0.695556641	0.099121094	-0.748291016	890.82	-58.15257925	-71.67633766	65.35484944	-74
14439	0	0.376831055	-0.106872559	0.059631348	0.999999046	0.000164032	0.000206947	-0.000114441	9.420776367	-2.671813965	1.490783691	0.008201599	0.010347366	-0.005722046	-0.695556641	0.099121094	-0.750976563	890.92	-58.02936714	-71.68286645	65.24774581	-73
14440	0	0.37267971	-0.105914116	0.05920887	0.999999046	-5.05E-05	3.43E-05	0.000365257	9.31699276	-2.647852898	1.480221748	-0.002527237	0.001716614	0.018262864	-0.693115234	0.101074219	-0.754150391	890.88	-58.07029308	-71.65318129	65.28225783	-73
14441	0	0.375	-0.106811523	0.062133789	0.999999046	-0.000183105	-0.000311852	0.000919342	9.375	-2.670288086	1.553344727	-0.009155275	-0.015592578	0.04596711	-0.695556641	0.098876953	-0.75390625	890.88	-58.32892836	-71.59034577	65.53871458	-73
14442	0	0.376315117	-0.103316307	0.063508034	0.999999046	-1.53E-05	-0.000284195	0.000899315	9.407877922	-2.582907677	1.587700844	-0.00076294	-0.014209749	0.044965751	-0.697998047	0.101318359	-0.751220703	890.9	-58.55504734	-71.52755718	65.78052596	-73
14443	0	0.377319336	-0.101623535	0.066162109	0.999999046	-0.000278473	-0.000224113	0.000679016	9.432983398	-2.540588379	1.654052734	-0.013923646	-0.011205674	0.033950809	-0.695556641	0.103271484	-0.754394531	890.88	-58.75259488	-71.48258967	65.95643799	-72
14444	0	0.375257492	-0.102293015	0.067461967	0.999999046	-0.000144005	-0.000135422	0.000529289	9.381437302	-2.557325363	1.686549187	-0.007200241	-0.006771088	0.026464464	-0.695556641	0.103271484	-0.754394531	890.9	-58.88084513	-71.44692421	66.07716372	-72
14445	0	0.374389648	-0.10144043	0.06842041	0.999999046	0.000423431	-7.53E-05	0.000263214	9.359741211	-2.536010742	1.710510254	0.021171571	-0.003767014	0.013160706	-0.693359375	0.103271484	-0.748779297	890.88	-58.87839831	-71.43380949	66.12796435	-72
14446	0	0.376238823	-0.100605011	0.068020821	0.999999046	7.63E-05	7.06E-05	-0.000100136	9.405970573	-2.515125275	1.700520515	0.003814697	0.003528595	-0.00500679	-0.695800781	0.10546875	-0.754394531	890.88	-58.80808222	-71.44780543	66.06022278	-72
14447	0	0.375488281	-0.104736328	0.065734863	0.999999046	-0.000247955	0.000393867	-0.000469208	9.387207031	-2.618408203	1.643371582	-0.012397767	0.019693376	-0.02346039	-0.695556641	0.103271484	-0.754394531	890.88	-58.61460292	-71.4786484	65.82738856	-72
14448	0	0.374559402	-0.104477882	0.063596725	0.999999046	-2.38E-05	0.000442505	-0.000141144	9.363985062	-2.61194706	1.589918137	-0.001192093	0.022125245	-0.00705719	-0.695800781	0.10546875	-0.754394531	890.82	-58.43950449	-71.47430153	65.63673443	-73
14449	0	0.375305176	-0.105529785	0.061279297	0.999999046	-8.01E-05	0.000107765	-0.000331879	9.382629395	-2.638244629	1.531982422	-0.004005432	0.00538826	-0.016593933	-0.695556641	0.103271484	-0.757080078	890.9	-58.33468114	-71.50858895	65.51615167	-73
14450	0	0.374323845	-0.105413437	0.060670853	0.999999046	7.06E-05	0.000389099	-0.000495911	9.358096123	-2.635335922	1.516771317	0.003528595	0.019454957	-0.024795534	-0.693115234	0.101074219	-0.754150391	890.88	-58.10109469	-71.54181204	65.28026632	-73
14451	0	0.371154785	-0.10949707	0.0625	0.999999046	-0.000324249	-2.96E-05	8.77E-05	9.278869629	-2.737426758	1.5625	-0.016212464	-0.001478195	0.004386902	-0.693359375	0.101074219	-0.751464844	890.94	-58.14108822	-71.54322369	65.2867932	-74
14452	0	0.372848511	-0.107954979	0.062101364	0.999999046	6.96E-05	-0.000127792	0.000628471	9.321212769	-2.698874474	1.552534103	0.003480911	-0.006389618	0.031423571	-0.693359375	0.103271484	-0.757324219	890.84	-58.26302934	-71.49777674	65.42242913	-73
14453	0	0.37322998	-0.105285645	0.061889648	0.999999046	-0.000583649	-6.39E-05	0.000686646	9.330749512	-2.632141113	1.547241211	-0.029182438	-0.003194809	0.03433228	-0.693359375	0.103271484	-0.757324219	890.88	-58.45140359	-71.44272042	65.5526424	-73
14454	0	0.375225067	-0.108500481	0.063850403	0.999999046	-0.000831604	-1.91E-05	0.000675201	9.380626678	-2.712512016	1.596260071	-0.041580208	-0.000953674	0.033760077	-0.693359375	0.10546875	-0.751708984	890.88	-58.65257233	-71.38585574	65.66754007	-74
14455	0	0.373718262	-0.108703613	0.064575195	0.999999046	-0.000331879	-0.000288963	0.000778198	9.342956543	-2.717590332	1.614379883	-0.016593935	-0.014448168	0.038909917	-0.695800781	0.107666016	-0.757568359	890.88	-58.89228496	-71.33465648	65.88177536	-74
14456	0	0.3718853	-0.104627609	0.066060066	0.999999046	-1.81E-05	-0.000268936	0.000826836	9.297132492	-2.615690231	1.651501656	-0.000905991	-0.01344681	0.041341787	-0.693603516	0.109863281	-0.751953125	890.88	-59.09711994	-71.27721693	66.09473346	-75
14457	0	0.37512207	-0.107299805	0.065429688	0.999999046	-0.000167847	-0.000372887	0.000183105	9.378051758	-2.682495117	1.635742188	-0.008392334	-0.018644334	0.009155274	-0.693603516	0.109863281	-0.751953125	890.84	-59.23679398	-71.28898108	66.22117203	-75
14458	0	0.376533508	-0.107765198	0.063646317	0.999999046	7.63E-06	-0.000196457	0.00026226	9.413337708	-2.694129944	1.591157913	0.00038147	-0.009822846	0.013113022	-0.696044922	0.109863281	-0.754882813	890.88	-59.31890961	-71.282549	66.30914969	-75
14459	0	0.374511719	-0.102844238	0.063903809	0.999999046	-0.000473022	-0.000277519	0.000595093	9.362792969	-2.571105957	1.597595215	-0.023651126	-0.013875963	0.029754642	-0.693603516	0.112060547	-0.752197266	890.9	-59.53636526	-71.24810222	66.47919708	-75
14460	0	0.37979126	-0.106897354	0.063896179	0.999999046	-0.000290871	-0.000205994	2.57E-05	9.494781494	-2.672433853	1.59740448	-0.014543534	-0.010299683	0.00128746	-0.696044922	0.109863281	-0.754882813	890.88	-59.61428604	-71.26572747	66.52977118	-75
14461	0	0.373291016	-0.104858398	0.06439209	0.999999046	-0.000389099	-2.96E-05	-9.16E-05	9.332275391	-2.621459961	1.609802246	-0.019454957	-0.001478195	-0.004577637	-0.698486328	0.112304688	-0.754882813	890.88	-59.63166791	-71.28476647	66.50173963	-75
14462	0	0.374168396	-0.108565331	0.066115379	0.999999046	-8.01E-05	-0.000162125	0.000239372	9.3542099	-2.714133263	1.652884483	-0.004005432	-0.008106232	0.011968613	-0.698486328	0.112304688	-0.746337891	890.82	-59.70857329	-71.27862118	66.57656636	-75
14463	0	0.375488281	-0.104797363	0.065368652	0.999999046	0.000328064	-1.43E-05	-0.000175476	9.387207031	-2.619934082	1.634216309	0.016403199	-0.000715256	-0.008773804	-0.698486328	0.112304688	-0.754882813	890.88	-59.62416532	-71.30501798	66.52658944	-75
14464	0	0.377481461	-0.109137535	0.067259789	0.999999046	-0.000153542	0.000146866	-0.000267982	9.437036514	-2.728438377	1.681494713	-0.007677078	0.007343292	-0.013399124	-0.698486328	0.112304688	-0.749267578	890.88	-59.5313831	-71.33104092	66.41057818	-74
14465	0	0.376525879	-0.111083984	0.06451416	0.999999046	0.000629425	8.11E-05	-9.54E-05	9.413146973	-2.777099609	1.612854004	0.031471255	0.004053116	-0.004768372	-0.696044922	0.112060547	-0.7578125	890.82	-59.39778863	-71.3436056	66.34072555	-73
14466	0	0.373483658	-0.108184814	0.06550312	0.999999046	0.000829697	0.000141144	5.25E-05	9.337091446	-2.704620361	1.637578011	0.041484838	0.007057191	0.002622605	-0.698486328	0.110107422	-0.749023438	890.94	-59.24906394	-71.33791623	66.28456365	-73
14467	0	0.373474121	-0.105834961	0.064880371	0.999999046	0.000148773	0.000435829	0	9.336853027	-2.645874023	1.622009277	0.00743866	0.021791459	0	-0.696044922	0.107910156	-0.754882813	890.88	-59.08334895	-71.32002279	66.12944978	-73
14468	0	0.376471519	-0.108380318	0.062493324	0.999999046	0.000229836	0.000478745	-0.000217438	9.411787987	-2.709507942	1.562333107	0.011491776	0.023937227	-0.010871888	-0.696044922	0.107910156	-0.751953125	890.84	-58.85855466	-71.320773	65.92149839	-73
14469	0	0.37689209	-0.106872559	0.063171387	0.999999046	0.000232697	0.000435829	-0.000114441	9.422302246	-2.671813965	1.579284668	0.011634827	0.021791459	-0.005722046	-0.693603516	0.107666016	-0.751953125	890.9	-58.66426149	-71.31378619	65.74429683	-73
14470	0	0.371489525	-0.103096008	0.063481331	0.999999046	0.000146866	0.000183105	5.34E-05	9.287238121	-2.577400208	1.587033272	0.007343292	0.009155274	0.002670288	-0.696044922	0.107910156	-0.751953125	890.82	-58.58258568	-71.30543408	65.67638529	-75
14471	0	0.37689209	-0.104248047	0.065490723	0.999999046	0.000400543	0.000180244	-0.000694275	9.422302246	-2.606201172	1.637268066	0.020027163	0.009012223	-0.034713749	-0.693603516	0.107666016	-0.751953125	890.94	-58.33976202	-71.37031204	65.46479093	-73
14472	0	0.369995117	-0.104721069	0.063998222	0.999999046	0.000561714	0.000171661	-0.000919342	9.24987793	-2.618026733	1.599955559	0.028085714	0.008583071	-0.045967111	-0.695800781	0.10546875	-0.757568359	890.9	-58.03889582	-71.45729165	65.21160895	-73
14473	0	0.374572754	-0.104003906	0.066467285	0.999999046	0.000579834	8.58E-06	-0.000602722	9.364318848	-2.600097656	1.661682129	0.028991703	0.000429153	-0.030136112	-0.693359375	0.103271484	-0.757324219	890.76	-57.83845689	-71.52308639	65.06599164	-74
14474	0	0.374573708	-0.103051186	0.06415081	0.999999046	0.000335693	-7.82E-05	-0.001022339	9.36434269	-2.57627964	1.603770256	0.016784671	-0.003910065	-0.051116953	-0.695800781	0.101318359	-0.754150391	890.9	-57.61287556	-71.63475101	64.86649017	-75
14475	0	0.377624512	-0.105407715	0.063537598	0.999999046	0.000255585	8.11E-05	-0.00120163	9.440612793	-2.635192871	1.588439941	0.012779239	0.004053117	-0.060081497	-0.695556641	0.099121094	-0.754150391	890.84	-57.31427236	-71.7536311	64.58041387	-75
14476	0	0.374508858	-0.104475975	0.064444542	0.999999046	7.34E-05	-0.000135422	-0.001117706	9.362721443	-2.611899376	1.611113548	0.003671647	-0.006771089	-0.055885327	-0.695556641	0.096923828	-0.75390625	890.9	-57.11277933	-71.87738994	64.37541391	-75
14477	0	0.37097168	-0.102966309	0.067565918	0.999999046	-0.000137329	-0.000216484	-0.001155853	9.274291992	-2.574157715	1.689147949	-0.006866457	-0.010824206	-0.057792677	-0.695556641	0.092529297	-0.750732422	890.84	-56.94925376	-72.00947697	64.19147331	-76
14478	0	0.37160778	-0.103469849	0.068901062	0.999998093	-0.000210762	-0.000157356	-0.001480103	9.290194511	-2.586746216	1.72252655	-0.010538105	-0.007867816	-0.074005155	-0.6953125	0.092285156	-0.759277344	890.96	-56.71052182	-72.16846292	63.91367426	-76
14479	0	0.373168945	-0.106323242	0.069763184	0.999998093	-0.000731468	6.10E-05	-0.001743317	9.329223633	-2.658081055	1.74407959	-0.036573432	0.00305176	-0.087165884	-0.697753906	0.092529297	-0.756347656	890.82	-56.40936546	-72.33797541	63.50659265	-75
14480	0	0.374762535	-0.108962059	0.067328453	0.999997139	-0.001263618	0.000310898	-0.001758575	9.369063377	-2.724051476	1.683211327	-0.063180974	0.015544904	-0.087928842	-0.699951172	0.090332031	-0.756103516	890.88	-56.08503636	-72.49185023	63.01626925	-75
14481	0	0.386779785	-0.113586426	0.067138672	0.999997139	-0.00125885	0.000149727	-0.001934052	9.669494629	-2.839660645	1.678466797	-0.062942561	0.00748635	-0.096702662	-0.697509766	0.090332031	-0.756103516	890.84	-55.76679334	-72.67134051	62.52985632	-75
14482	0	0.379312515	-0.109852791	0.068742752	0.999997139	-0.000902176	0.000301361	-0.002185822	9.482812881	-2.746319771	1.718568802	-0.045108838	0.015068068	-0.10929118	-0.6953125	0.088134766	-0.753173828	890.94	-55.30041956	-72.86318214	61.9320385	-75
14483	0	0.370117188	-0.11126709	0.072143555	0.999996185	-0.002245903	0.000354767	-0.001415253	9.252929688	-2.781677246	1.803588867	-0.112295285	0.017738363	-0.070762719	-0.697265625	0.0859375	-0.758544922	890.88	-55.12737668	-72.97708547	61.48780023	-76
14484	0	0.363214493	-0.103257179	0.07584095	0.999997139	-0.000229836	0.000495911	-0.001982689	9.08036232	-2.581429482	1.89602375	-0.011491784	0.02479555	-0.099134515	-0.697509766	0.088134766	-0.750244141	890.9	-54.55033502	-73.13311341	60.85569954	-76
14485	0	0.369262695	-0.101257324	0.072265625	0.999995232	-0.001075745	0.000370979	-0.00283432	9.231567383	-2.531433105	1.806640625	-0.053787315	0.018548994	-0.141716224	-0.697265625	0.083740234	-0.758544922	890.94	-53.90610001	-73.37411688	60.05516548	-78
14486	0	0.372217178	-0.098936081	0.071288109	0.999992371	-0.000285149	0.000460625	-0.003852844	9.305429459	-2.473402023	1.782202721	-0.014257467	0.023031293	-0.192642698	-0.697265625	0.081542969	-0.758300781	890.88	-52.88218292	-73.69878631	58.94874493	-78
14487	0	0.3671875	-0.099487305	0.071044922	0.999990463	-0.0010252	-0.000110626	-0.004066467	9.1796875	-2.487182617	1.776123047	-0.051260145	-0.005531327	-0.203323961	-0.69921875	0.074951172	-0.754882813	890.88	-52.02905666	-74.07690005	57.94018437	-78
14488	0	0.363856316	-0.104861259	0.073003769	0.999991417	-0.002297401	-3.81E-05	-0.003406525	9.09640789	-2.621531487	1.825094223	-0.114870395	-0.001907354	-0.170326712	-0.697021484	0.072753906	-0.751953125	890.9	-51.42655795	-74.38578253	57.04312571	-78
14489	0	0.361694336	-0.106445313	0.072875977	0.999990463	0.000344276	0.000545502	-0.00421524	9.042358398	-2.661132813	1.821899414	0.017213874	0.027275168	-0.210762663	-0.69921875	0.070556641	-0.754394531	890.88	-50.0857499	-74.7186631	55.68729286	-76
14490	0	0.367605209	-0.092684746	0.065772057	0.999986649	0.001589775	0.000164986	-0.004878998	9.190130234	-2.317118645	1.644301414	0.079489103	0.008249319	-0.243950962	-0.696533203	0.063964844	-0.756835938	891	-48.47731856	-75.12774249	54.19708183	-73
14491	0	0.372497559	-0.094726563	0.065551758	0.999988556	-0.001376152	-6.87E-05	-0.004577637	9.312438965	-2.368164063	1.638793945	-0.068807864	-0.003433241	-0.228882708	-0.700683594	0.055419922	-0.755859375	890.84	-47.29724489	-75.51904785	52.81186578	-73
14492	0	0.376220703	-0.104045868	0.06716156	0.999985695	-0.001597404	-0.000261307	-0.005005836	9.405517578	-2.601146698	1.679039001	-0.079870592	-0.013065398	-0.250292979	-0.702880859	0.048828125	-0.755371094	890.94	-46.00401873	-75.95247195	51.29086198	-77
14493	0	0.364624023	-0.103515625	0.068664551	0.999987602	-0.000617981	-0.000601768	-0.004901886	9.115600586	-2.587890625	1.71661377	-0.030899175	-0.030088549	-0.245095311	-0.702636719	0.044433594	-0.751953125	890.88	-44.66094567	-76.39474148	49.8332906	-91
14494	0	0.363793373	-0.103648186	0.074016571	0.999988556	0.000124931	-0.001214027	-0.004532814	9.094834328	-2.591204643	1.850414276	0.00624659	-0.060701593	-0.226641534	-0.702392578	0.040039063	-0.757324219	890.88	-43.48010835	-76.84855972	48.62562353	-80
14495	0	0.36706543	-0.100646973	0.075805664	0.999986649	0.001999855	-0.001049042	-0.00446701	9.176635742	-2.516174316	1.895141602	0.09999317	-0.052452306	-0.223351458	-0.706787109	0.031494141	-0.753662109	890.88	-41.9694022	-77.27504636	47.3019877	-72
14496	0	0.364233971	-0.094292641	0.074266434	0.999987602	0.002429008	-0.000875473	-0.004170418	9.105849266	-2.357316017	1.856660843	0.121450911	-0.043773827	-0.208521725	-0.708740234	0.022705078	-0.752929688	890.88	-40.37529181	-77.65449931	45.94398376	-71
14497	0	0.367431641	-0.08996582	0.077880859	0.99998951	0.002399445	-0.000582695	-0.0038414	9.185791016	-2.249145508	1.947021484	0.119972646	-0.029134852	-0.192070675	-0.713134766	0.011962891	-0.751708984	890.88	-38.73528793	-77.97408175	44.54255328	-72
14498	0	0.360794067	-0.084270477	0.075796127	0.999991417	0.001543045	-0.000461578	-0.003662109	9.019851685	-2.106761932	1.894903183	0.077152458	-0.02307898	-0.183105957	-0.712646484	0.000976563	-0.753662109	890.84	-37.15496332	-78.26023954	43.11017499	-74
14499	0	0.35369873	-0.077941895	0.078369141	0.999992371	0.000763893	-0.000598907	-0.003543854	8.842468262	-1.948547363	1.959228516	0.038194742	-0.029945441	-0.177193087	-0.71484375	-0.003417969	-0.753173828	890.94	-35.69298402	-78.54161539	41.70555065	-84
14500	0	0.348319054	-0.079449654	0.075939178	0.999985695	0.001000404	-0.001012802	-0.005069733	8.707976341	-1.986241341	1.898479462	0.050020449	-0.05064034	-0.253487805	-0.716796875	-0.009765625	-0.755371094	890.88	-33.53235479	-78.95084657	39.61213433	-72
14501	0	0.337585449	-0.079467773	0.072570801	0.99997139	0.003666878	-0.001255035	-0.006408691	8.43963623	-1.986694336	1.81427002	0.183345601	-0.062752357	-0.320437566	-0.718994141	-0.018554688	-0.748779297	890.94	-30.27877468	-79.4435791	36.70885444	-68
14502	0	0.338316917	-0.072862625	0.077280045	0.999965668	0.003426552	-0.00206852	-0.007210732	8.457922935	-1.821565628	1.932001114	0.171329533	-0.103427152	-0.360540662	-0.725097656	-0.035888672	-0.752929688	890.9	-26.54303619	-80.02658486	33.2960795	-71
14503	0	0.350097656	-0.081665039	0.076293945	0.999956131	0.001828194	-0.001186371	-0.0090065	8.752441406	-2.041625977	1.907348633	0.091410991	-0.059319391	-0.450331457	-0.726806641	-0.053222656	-0.748535156	890.9	-21.20711494	-80.5492789	28.08486229	-83
14504	0	0.302762985	-0.07344532	0.075856209	0.999951363	0.000443459	-0.000640869	-0.009797096	7.569074631	-1.836133003	1.89640522	0.022173285	-0.032043973	-0.489862699	-0.728759766	-0.064208984	-0.744628906	890.88	-14.83240251	-80.94654135	21.65991464	-77
14505	0	0.299560547	-0.07019043	0.076477051	0.999926567	0.001533508	-0.003764153	-0.011405945	7.489013672	-1.754760742	1.91192627	0.076677289	-0.188212226	-0.570311178	-0.73046875	-0.081542969	-0.743164063	890.9	-6.94859318	-81.59839495	13.83915109	-73
14506	0	0.281594276	-0.072386742	0.08289814	0.999876022	0.005394936	-0.003436089	-0.014388084	7.039856911	-1.809668541	2.072453499	0.269757928	-0.171811528	-0.719433951	-0.736328125	-0.107666016	-0.740478516	890.96	4.905901974	-82.00484893	2.457062504	-72
14507	0	0.231079102	-0.090087891	0.086975098	0.999782562	0.008763313	-0.000965118	-0.018867493	5.776977539	-2.252197266	2.174377441	0.438197344	-0.048259409	-0.943442839	-0.737548828	-0.138183594	-0.738037109	890.94	20.54621764	-81.61910914	-12.38618104	-78
14508	0	0.178150177	-0.087757111	0.0952034	0.999432564	0.027813911	0.00021553	-0.018968582	4.453754425	-2.193927765	2.380084991	1.390958424	0.010778557	-0.948608368	-0.737792969	-0.186523438	-0.736816406	890.88	35.65046938	-80.5604118	-24.56902981	-73
14509	0	0.109924316	-0.060852051	0.065185547	0.998786926	0.044816017	-0.003299713	-0.020103455	2.74810791	-1.52130127	1.629638672	2.241706947	-0.16505237	-1.005579181	-0.734863281	-0.260986328	-0.725097656	890.94	51.38884021	-79.24348219	-35.53556068	-72
14510	0	0.125279427	-0.05090332	0.062810898	0.997587204	0.066426277	-0.003005028	-0.019917488	3.131985664	-1.272583008	1.570272446	3.323986776	-0.150372307	-0.996675862	-0.730712891	-0.372558594	-0.687744141	890.96	65.96165364	-77.47860649	-42.8976653	-79
14511	0	0.198059082	-0.301513672	0.175170898	0.99617672	0.084884644	-0.005389214	-0.019931793	4.951477051	-7.537841797	4.379272461	4.249649269	-0.269804602	-0.99786165	-0.724121094	-0.499511719	-0.629150391	890.9	80.63543296	-75.49367575	-48.35028719	-76
14512	0	0.088814735	0.456708908	-0.24542141	0.982168198	0.181825638	-0.027386665	-0.039173126	2.220368385	11.4177227	-6.13553524	9.145707487	-1.377530877	-1.970381944	-0.71484375	-0.656494141	-0.505126953	890.94	110.3538819	-70.72413324	-58.37610675	-76
14513	0	1.766540527	0.891906738	-1.232055664	0.979990005	0.098534584	-0.167179108	-0.044284821	44.16351318	22.29766846	-30.8013916	4.959855327	-8.415158959	-2.229129044	-0.685302734	-0.873535156	-0.068847656	891	145.4858164	-54.45668449	-84.85809585	-81
14514	0	0.488916397	-0.427566528	0.561368942	0.983030319	0.027211189	-0.16801548	-0.068419456	12.22290993	-10.68916321	14.03422356	1.368308052	-8.448617657	-3.440455772	-0.607666016	-0.90234375	0.249267578	890.94	151.9165601	-33.83740276	-89.53647483	-83
14515	0	-0.567687988	0.326599121	-0.398681641	0.959468842	0.12744236	-0.237796783	-0.081420898	-14.19219971	8.164978027	-9.967041016	6.459626685	-12.05312307	-4.126952832	-0.299560547	-0.972167969	0.495361328	891	167.3162381	-4.726841697	-90.37955474	-84
14516	0	0.160521507	0.026602745	-1.278176308	0.980337143	0.149816513	-0.125206947	-0.028578758	4.013037682	0.665068626	-31.95440769	7.54031136	-6.301704318	-1.438377726	0.100830078	-0.774902344	0.840087891	890.96	-175.1891437	9.853467875	-88.06370662	-80
14517	0	-0.127746582	0.047790527	-0.699707031	0.9953022	0.074147224	-0.062225342	0.001651764	-3.193664551	1.194763184	-17.49267578	3.713177011	-3.116147778	0.082717753	0.349365234	-0.504150391	0.975830078	890.96	-166.431539	16.92532725	-87.05300449	-76
14518	0	-0.092934608	0.095979691	0.100465775	0.996934891	-0.077052116	0.013213158	0.002879143	-2.323365211	2.399492264	2.511644363	-3.856546279	0.661333606	0.144104378	0.391601563	-0.452880859	0.983642578	890.94	-175.4285941	15.48616846	-87.62302423	-76
14519	0	-0.012207031	-0.062316895	-0.404846191	0.995318413	-0.091369629	0.021565437	0.022968292	-0.305175781	-1.557922363	-10.12115479	-4.575623888	1.079957655	1.150210063	0.352050781	-0.642822266	0.892822266	890.94	173.4319066	12.96878638	-90.28012797	-78
14520	0	-0.133103371	-0.087547302	-0.453566551	0.998807907	-0.042158127	0.010991096	0.02199173	-3.327584267	-2.188682556	-11.33916378	-2.10874399	0.549773209	1.100023445	0.282714844	-0.792480469	0.797363281	890.94	168.1197362	11.32428595	-92.60612776	-83
14521	0	-0.211120605	0.057678223	-0.381469727	0.999895096	-0.011458397	-0.004043579	0.007850647	-5.278015137	1.441955566	-9.536743164	-0.572939831	-0.202186008	0.392546041	0.239013672	-0.850341797	0.758789063	891	166.6224339	11.59019012	-93.59519073	-86
14522	0	-0.2161026	0.106408119	-0.282611847	0.999848366	-0.015918732	-0.003866196	0.005849838	-5.402565002	2.66020298	-7.065296173	-0.795976728	-0.193319534	0.292506665	0.230712891	-0.867675781	0.737792969	890.94	164.6522775	11.87138691	-94.36051283	-85
14523	0	-0.163269043	0.098876953	-0.325134277	0.999684334	-0.023166656	0.002724648	0.009254456	-4.081726074	2.471923828	-8.128356934	-1.158454438	0.136246679	0.46277136	0.225585938	-0.8984375	0.709228516	890.84	161.8182338	11.28937124	-95.2938342	-83
14524	0	-0.071850777	0.099057198	-0.362383842	0.999850273	-0.014828682	0.006361008	0.006236076	-1.796269417	2.476429939	-9.059596062	-0.74147108	0.318066249	0.311819371	0.199462891	-0.932861328	0.667724609	890.94	160.0460193	10.38945687	-95.72821152	-81
14525	0	-0.114013672	0.106811523	-0.353515625	0.999961853	0.003087044	0.007785797	0.002349854	-2.850341797	2.670288086	-8.837890625	0.154354135	0.389294766	0.117494158	0.184082031	-0.947998047	0.652832031	890.9	160.4196312	9.483049779	-95.66816525	-81
14526	0	-0.148973465	0.120181084	-0.35400486	0.999798775	0.00677681	0.018476486	0.003860474	-3.724336624	3.004527092	-8.850121498	0.338863203	0.92388625	0.193036623	0.169433594	-0.940673828	0.664306641	890.96	161.2485782	7.36561671	-95.37603437	-83
14527	0	-0.085693359	0.099365234	-0.391052246	0.9995718	-0.003314972	0.028492928	0.005695343	-2.142333984	2.484130859	-9.776306152	-0.165772232	1.424849533	0.284807759	0.131347656	-0.932617188	0.682861328	890.96	160.9249985	4.093425839	-94.92156779	-81
14528	0	-0.076714516	0.092864037	-0.388827324	0.999207497	-0.022841454	0.032083511	0.005680084	-1.917862892	2.321600914	-9.720683098	-1.142374275	1.604599197	0.284079211	0.078369141	-0.948486328	0.666992188	891	158.3461013	0.449797324	-94.24202337	-84
14529	0	-0.06451416	0.13671875	-0.372314453	0.999233246	-0.031104088	0.023681641	0.001880646	-1.612854004	3.41796875	-9.307861328	-1.555601715	1.18438454	0.094056311	0.029052734	-0.982421875	0.615478516	890.96	154.7813361	-2.09329524	-93.35307014	-81
14530	0	-0.019777298	0.167354584	-0.332263947	0.999574661	-0.025618553	0.013642311	0.002543449	-0.494432449	4.183864594	-8.306598663	-1.281108956	0.682212099	0.12719047	0.001220703	-1.016845703	0.551269531	890.96	151.8360541	-3.587146649	-92.90403027	-76
14531	0	0.119262695	0.156616211	-0.23223877	0.999791145	-0.02041626	9.25E-05	-0.000843048	2.981567383	3.915405273	-5.805969238	-1.020884041	0.004625642	-0.042155339	-0.006103516	-1.041259766	0.499267578	890.9	149.5018303	-3.521002797	-92.80800435	-73
14532	0	0.028149605	0.17692852	-0.305894852	0.999793053	-0.006972313	-0.016721725	-0.009198189	0.70374012	4.423213005	-7.647371292	-0.348639638	-0.836143812	-0.459941089	0.004394531	-1.054931641	0.468505859	890.96	148.7169861	-1.308170045	-92.88193428	-72
14533	0	0.063476563	0.208374023	-0.366455078	0.999663353	-0.018154144	-0.01778698	-0.005104065	1.586914063	5.209350586	-9.161376953	-0.907808908	-0.889448621	-0.255231839	0.042724609	-1.062988281	0.444091797	890.94	146.6503646	0.751207417	-93.46895341	-71
14534	0	0.032590866	0.234875679	-0.318533897	0.999753952	-0.019249916	-0.010806084	-0.001919746	0.814771652	5.871891975	-7.963347435	-0.962574588	-0.54034841	-0.095995177	0.062988281	-1.083740234	0.404785156	890.96	144.4419163	1.918688499	-93.97902587	-71
14535	0	-0.017944336	0.243103027	-0.321777344	0.999893188	-0.014517784	0.001369476	-4.20E-05	-0.448608398	6.077575684	-8.044433594	-0.725914934	0.068476243	-0.002098158	0.075927734	-1.097412109	0.368164063	891	142.7903176	1.817113795	-93.87204843	-70
14536	0	-0.003547668	0.231197357	-0.290845871	0.999946594	-0.009870529	0.002720833	-0.000386238	-0.088691711	5.779933929	-7.271146774	-0.493535094	0.136044022	-0.019312243	0.069580078	-1.104003906	0.337402344	891.02	141.6742126	1.618848668	-93.63707929	-71
14537	0	-0.002380371	0.240600586	-0.286621094	0.999937057	-0.011019707	-0.001327515	-0.001598358	-0.059509277	6.015014648	-7.165527344	-0.550996885	-0.066377124	-0.079919583	0.0703125	-1.110839844	0.312255859	890.94	140.4202599	1.872584103	-93.58168223	-71
14538	0	-0.015906334	0.259116173	-0.277275085	0.999937057	-0.010199547	-0.003640175	-0.002800941	-0.397658348	6.47790432	-6.931877136	-0.509987977	-0.182012539	-0.140049994	0.075927734	-1.120117188	0.289794922	891.02	139.25659	2.418509775	-93.59694291	-71
14539	0	-0.042907715	0.261169434	-0.289367676	0.999998093	-0.000864983	-0.000858307	-0.001052856	-1.072692871	6.52923584	-7.234191895	-0.043249149	-0.042915363	-0.052642845	0.085693359	-1.122558594	0.272460938	891	139.1640598	2.592865451	-93.56074194	-71
14540	0	-0.02548027	0.248601913	-0.280472755	0.999991417	0.00373745	0.001138687	0.000721931	-0.63700676	6.215047836	-7.011818886	0.186872974	0.056934506	0.036096668	0.085693359	-1.122558594	0.278076172	890.96	139.5982845	2.460917354	-93.52955273	-71
14541	0	-0.01574707	0.242919922	-0.297851563	0.999985695	0.00510025	0.000729561	0.000587463	-0.393676758	6.072998047	-7.446289063	0.255013655	0.036478206	0.029373301	0.085449219	-1.118164063	0.280761719	890.94	140.187992	2.373924078	-93.5182257	-71
14542	0	-0.016734123	0.24244976	-0.300548553	0.999987602	0.004804611	0.000352859	0.00049305	-0.418353081	6.061244011	-7.513713837	0.240231499	0.017643044	0.024652577	0.082763672	-1.115722656	0.291992188	891	140.7430832	2.326538736	-93.52733245	-72
14543	0	-0.019165039	0.237915039	-0.302246094	0.999999046	0.000854492	-0.000121117	0.000144958	-0.479125977	5.947875977	-7.556152344	0.042724615	-0.006055833	0.007247926	0.082519531	-1.115722656	0.303466797	891	140.8455087	2.34619707	-93.54026791	-71
14544	0	-0.01953125	0.241027832	-0.300720215	0.999997139	-0.002058983	-0.000213623	0.000225067	-0.48828125	6.025695801	-7.518005371	-0.102949217	-0.01068116	0.011253365	0.080078125	-1.115722656	0.303710938	890.94	140.6134287	2.367943177	-93.567158	-72
14545	0	-0.019714355	0.243530273	-0.291320801	0.999999046	-0.000865936	-0.000308037	3.05E-05	-0.492858887	6.088256836	-7.28302002	-0.04329682	-0.015401842	0.001525879	0.080078125	-1.115722656	0.30078125	890.96	140.5180847	2.411859373	-93.58365011	-72
14546	0	-0.020068169	0.241179466	-0.298215866	0.999997139	0.002307892	0.000169754	0.000243187	-0.501704216	6.029486656	-7.455396652	0.115394696	0.008487709	0.012159359	0.082519531	-1.117919922	0.30078125	890.96	140.7870661	2.397740644	-93.58401186	-71
14547	0	-0.018371582	0.241394043	-0.301025391	0.999993324	0.003566742	0.000515938	0.000366211	-0.459289551	6.034851074	-7.525634766	0.178337487	0.025796947	0.018310587	0.080078125	-1.115722656	0.303710938	890.9	141.2008396	2.343576967	-93.57070477	-71
14548	0	-0.017822266	0.235961914	-0.306945801	0.999994278	0.003074646	0.000847816	0.000419617	-0.445556641	5.899047852	-7.67364502	0.153732565	0.042390896	0.020980871	0.079833984	-1.111328125	0.311767578	890.94	141.5591791	2.255438743	-93.53884067	-71
14549	0	-0.015258789	0.233886719	-0.300476074	0.999999046	-0.001041412	9.63E-05	0.000209808	-0.381469727	5.847167969	-7.511901855	-0.052070628	0.004816056	0.010490419	0.077148438	-1.108886719	0.317382813	890.94	141.4444273	2.249162868	-93.54220128	-70
14550	0	-0.019007683	0.23916626	-0.303645134	0.999995232	-0.002973557	-0.000499725	-0.000290871	-0.47519207	5.979156494	-7.591128349	-0.148678053	-0.024986305	-0.014543556	0.077392578	-1.111083984	0.314697266	890.96	141.1082545	2.33181268	-93.5434291	-70
14551	0	-0.018798828	0.241333008	-0.29473877	0.999998093	-0.001418114	0.000328064	-3.43E-05	-0.469970703	6.033325195	-7.368469238	-0.07090571	0.016403204	-0.001716614	0.080078125	-1.115722656	0.306396484	890.96	140.9514624	2.321957209	-93.50791369	-70
14552	0	-0.018070221	0.238329887	-0.297431946	0.999998093	0.000310898	0.000115395	0	-0.451755524	5.958247185	-7.435798645	0.015544892	0.00576973	0	0.080078125	-1.115722656	0.306396484	890.96	140.9919804	2.328301257	-93.49086244	-70
14553	0	-0.017944336	0.241088867	-0.297668457	0.999999046	0.000236511	8.11E-05	0.00043869	-0.448608398	6.02722168	-7.441711426	0.011825562	0.004053116	0.02193451	0.077636719	-1.115478516	0.309326172	890.96	141.0220966	2.305770678	-93.51552599	-70
14554	0	-0.018540382	0.241208076	-0.297602654	0.999997139	0.001972198	0.000173569	0.000350952	-0.46350956	6.030201912	-7.440066338	0.098609991	0.008678442	0.017547619	0.080078125	-1.113525391	0.300537109	890.96	141.2514843	2.281108938	-93.52555819	-70
14555	0	-0.017456055	0.237731934	-0.29888916	0.999999046	0.001296997	6.58E-05	0.000259399	-0.436401367	5.94329834	-7.472229004	0.064849872	0.003290177	0.012969974	0.077636719	-1.11328125	0.312011719	890.96	141.4034154	2.27239669	-93.53547733	-70
14556	0	-0.018087387	0.23842144	-0.302624702	0.999999046	0.000618935	0.000255585	0.00020504	-0.452184677	5.960536003	-7.565617561	0.030946734	0.012779237	0.010252	0.077636719	-1.11328125	0.312011719	891	141.4783178	2.25033435	-93.52695132	-70
14557	0	-0.016723633	0.235473633	-0.298706055	0.999999046	0.000267029	0.000245094	0.000198364	-0.41809082	5.88684082	-7.467651367	0.013351441	0.012254715	0.009918213	0.075195313	-1.11328125	0.315185547	890.94	141.5127994	2.229386764	-93.51873764	-70
14558	0	-0.016666412	0.237273216	-0.299818039	0.999999046	0.000299454	-7.44E-05	0.000213623	-0.416660309	5.931830406	-7.495450974	0.014972687	-0.00371933	0.010681153	0.077392578	-1.11328125	0.317871094	890.88	141.5499184	2.235726157	-93.53451808	-70
14559	0	-0.016845703	0.236877441	-0.302612305	0.999999046	0.000530243	0.000210762	8.39E-05	-0.421142578	5.921936035	-7.565307617	0.026512147	0.010538102	0.004196167	0.077392578	-1.111083984	0.320556641	890.96	141.6146906	2.225439247	-93.51837581	-70
14560	0	-0.017089844	0.235717773	-0.302490234	0.999999046	-0.000670433	0.000106812	3.43E-05	-0.427246094	5.892944336	-7.562255859	-0.033521655	0.005340577	0.001716614	0.077392578	-1.111083984	0.314697266	890.9	141.5417465	2.227765841	-93.5052084	-70
14561	0	-0.017089844	0.236755371	-0.299987793	0.999999046	-0.000480652	0.000184059	0.000133514	-0.427246094	5.918884277	-7.499694824	-0.024032594	0.009202958	0.006675721	0.074951172	-1.111083984	0.314941406	891	141.4903092	2.215861642	-93.49556397	-70
14562	0	-0.016672134	0.237903595	-0.300925255	0.999999046	-0.00028038	0.000200272	0.00018692	-0.41680336	5.947589874	-7.523131371	-0.014019013	0.010013581	0.009346009	0.077392578	-1.11328125	0.314941406	890.94	141.4615731	2.19844381	-93.48932853	-70
14563	0	-0.016662598	0.238464355	-0.299499512	0.999999046	0.000171661	2.38E-05	0.000125885	-0.416564941	5.961608887	-7.487487793	0.008583069	0.001192093	0.006294251	0.077636719	-1.11328125	0.312011719	890.9	141.4842017	2.200957788	-93.49026243	-70
14564	0	-0.016712189	0.236838341	-0.301169395	0.999999046	0.000542641	7.44E-05	9.82E-05	-0.417804718	5.920958519	-7.529234886	0.027132036	0.00371933	0.004911423	0.074951172	-1.108886719	0.314697266	890.94	141.5495279	2.200676777	-93.48530229	-70
14565	0	-0.016174316	0.236694336	-0.302246094	0.999999046	-0.000106812	0.000264168	0.000190735	-0.40435791	5.917358398	-7.556152344	-0.005340576	0.01320839	0.009536743	0.072753906	-1.110839844	0.317871094	890.9	141.5406032	2.176513673	-93.47517801	-70
14566	0	-0.01556015	0.23694706	-0.300434113	0.999999046	-0.000471115	6.10E-05	0.000128746	-0.389003754	5.923676491	-7.510852814	-0.023555757	0.003051758	0.006437302	0.072509766	-1.110839844	0.320800781	890.9	141.4894997	2.174726936	-93.47389255	-70
14567	0	-0.016723633	0.238464355	-0.299804688	0.999999046	6.87E-05	4.29E-05	9.92E-05	-0.41809082	5.961608887	-7.495117188	0.003433228	0.002145767	0.004959106	0.077392578	-1.111083984	0.312011719	890.96	141.5001489	2.176471564	-93.47088669	-70
14568	0	-0.015370369	0.236533165	-0.301609039	0.999999046	0.000260353	0.000284195	0.000231743	-0.384259224	5.913329124	-7.540225983	0.013017655	0.014209748	0.011587143	0.072753906	-1.110839844	0.317871094	890.96	141.5329472	2.146849769	-93.46298487	-70
14569	0	-0.01550293	0.237731934	-0.300048828	0.999999046	0.000125885	7.72E-05	7.25E-05	-0.387573242	5.94329834	-7.501220703	0.006294251	0.003862381	0.003623962	0.075195313	-1.11328125	0.315185547	890.9	141.5501912	2.146901665	-93.45533753	-70
14570	0	-0.016216278	0.236314774	-0.30365181	0.999999046	0.000406265	3.24E-05	3.43E-05	-0.405406952	5.907869339	-7.591295242	0.020313264	0.001621246	0.001716614	0.075195313	-1.111083984	0.312011719	890.88	141.5996164	2.153484841	-93.44750464	-70
14571	0	-0.015319824	0.237426758	-0.30065918	0.999999046	-0.000862122	-6.39E-05	9.54E-05	-0.382995605	5.935668945	-7.516479492	-0.043106085	-0.003194809	0.004768372	0.074951172	-1.111083984	0.317871094	890.96	141.5031161	2.16412263	-93.45208001	-70
14572	0	-0.01622963	0.237581253	-0.300431252	0.999999046	5.05E-05	0.000104904	4.58E-05	-0.405740738	5.939531326	-7.510781288	0.002527237	0.005245209	0.002288818	0.075195313	-1.11328125	0.315185547	890.9	141.5117304	2.162959417	-93.44014291	-70
14573	0	-0.015319824	0.238037109	-0.300292969	0.999999046	-0.000682831	-1.43E-05	0.000125885	-0.382995605	5.950927734	-7.507324219	-0.034141543	-0.000715256	0.006294251	0.075195313	-1.11328125	0.312255859	890.9	141.4355985	2.166536377	-93.44390392	-70
14574	0	-0.015940666	0.238751411	-0.29709816	0.999999046	0.000524521	-2.48E-05	5.25E-05	-0.398516655	5.968785286	-7.427453995	0.026226045	-0.001239777	0.002622604	0.074951172	-1.111083984	0.317871094	890.96	141.4978236	2.176100732	-93.44187362	-70
14575	0	-0.015625	0.237487793	-0.30645752	0.999999046	0.000164032	2.77E-05	2.67E-05	-0.390625	5.937194824	-7.661437988	0.008201599	0.001382828	0.001335144	0.072753906	-1.110839844	0.314941406	890.96	141.5190861	2.18257352	-93.43394108	-70
14576	0	-0.015413284	0.238366127	-0.30104351	0.999999046	-0.000502586	6.87E-05	0.000109673	-0.385332108	5.959153175	-7.526087761	-0.025129319	0.003433228	0.005483628	0.075195313	-1.111083984	0.312011719	890.94	141.4636867	2.17923032	-93.43024259	-70
14577	0	-0.015136719	0.237365723	-0.300292969	0.999999046	0.000125885	3.91E-05	-7.63E-06	-0.378417969	5.934143066	-7.507324219	0.006294251	0.001955032	-0.00038147	0.072998047	-1.11328125	0.309570313	890.96	141.4805633	2.186684017	-93.41837822	-70
14578	0	-0.016460419	0.238326073	-0.301819801	0.999999046	-0.000192642	9.54E-05	0.000201225	-0.411510468	5.958151817	-7.545495033	-0.009632111	0.004768372	0.010061264	0.072753906	-1.111083984	0.312255859	890.96	141.4603216	2.174026809	-93.42116798	-70
14579	0	-0.014892578	0.237915039	-0.298950195	0.999999046	0.000320435	0.000157356	0.000167847	-0.372314453	5.947875977	-7.473754883	0.016021729	0.007867813	0.008392334	0.072753906	-1.113037109	0.315185547	890.9	141.4990314	2.157969441	-93.41650147	-70
14580	0	-0.014657974	0.237298012	-0.302769661	0.999999046	5.05E-05	0.000125885	5.25E-05	-0.366449356	5.932450294	-7.569241524	0.002527237	0.006294251	0.002622604	0.075195313	-1.11328125	0.317871094	890.9	141.5071302	2.152732911	-93.4035099	-70
14581	0	-0.015136719	0.238525391	-0.301086426	0.999999046	-0.000720978	-5.25E-05	0.000106812	-0.378417969	5.963134766	-7.527160645	-0.036048892	-0.002622605	0.005340577	0.075195313	-1.11328125	0.309326172	891.02	141.4260641	2.159411808	-93.4081998	-70
14582	0	-0.014996529	0.237738609	-0.298851013	0.999999046	0.000213623	7.44E-05	0.000102997	-0.374913216	5.943465233	-7.47127533	0.010681152	0.00371933	0.005149841	0.072753906	-1.111083984	0.312255859	890.96	141.4523468	2.154797799	-93.40376104	-70
14583	0	-0.015258789	0.237670898	-0.301635742	0.999999046	-0.00043869	-7.53E-05	0.000110626	-0.381469727	5.941772461	-7.540893555	-0.02193451	-0.003767014	0.005531311	0.072753906	-1.11328125	0.312255859	890.9	141.4034326	2.162872687	-93.41065541	-70
14584	0	-0.014946938	0.239278793	-0.298311234	1	-1.53E-05	-4.77E-06	2.19E-05	-0.373673439	5.981969833	-7.457780838	-0.000762939	-0.000238419	0.001096725	0.072753906	-1.11328125	0.312255859	890.96	141.4033603	2.170772483	-93.40453719	-70
14585	0	-0.015625	0.238037109	-0.30090332	0.999999046	0	-0.000113487	4.96E-05	-0.390625	5.950927734	-7.522583008	0	-0.005674362	0.002479553	0.075195313	-1.11328125	0.315185547	890.96	141.4046136	2.186275041	-93.40842189	-70
14586	0	-0.014953613	0.238525391	-0.302001953	0.999999046	-0.000286102	9.54E-05	0.000209808	-0.373840332	5.963134766	-7.550048828	-0.014305115	0.004768372	0.010490418	0.072998047	-1.115478516	0.306884766	890.96	141.3730859	2.171423169	-93.41197257	-70
14587	0	-0.014526367	0.238647461	-0.29864502	0.999999046	-3.81E-06	-2.86E-06	0.000133514	-0.36315918	5.966186523	-7.466125488	-0.000190735	-0.000143051	0.00667572	0.072998047	-1.115478516	0.3125	890.96	141.3737802	2.170620326	-93.41569516	-70
14588	0	-0.01550293	0.238897324	-0.301634789	0.999999046	0.000130653	3.62E-05	0.000185966	-0.387573242	5.97243309	-7.540869713	0.006532669	0.001811981	0.009298325	0.075195313	-1.11328125	0.309326172	890.94	141.3897807	2.162415608	-93.421024	-70
14589	0	-0.014892578	0.238830566	-0.300048828	0.999999046	3.05E-05	0.00011158	0.000190735	-0.372314453	5.97076416	-7.501220703	0.001525879	0.005578995	0.009536743	0.072753906	-1.111083984	0.309326172	890.9	141.3944113	2.14695157	-93.42172124	-70
14590	0	-0.015407562	0.237657547	-0.301165581	0.999999046	0.000265121	-9.73E-05	9.92E-05	-0.385189056	5.941438675	-7.529139519	0.013256073	-0.004863739	0.004959107	0.072998047	-1.115478516	0.3125	890.92	141.4256721	2.156601672	-93.42912724	-70
14591	0	-0.014770508	0.239868164	-0.301696777	0.999999046	-0.000663757	-0.000105858	0.000236511	-0.369262695	5.996704102	-7.542419434	-0.033187869	-0.005292893	0.011825563	0.070556641	-1.113037109	0.315429688	890.88	141.3499208	2.157025106	-93.4496947	-70
14592	0	-0.014294624	0.238988876	-0.298142433	0.999999046	0.000546455	8.58E-05	0.000128746	-0.357365608	5.974721909	-7.453560829	0.027322771	0.004291535	0.006437302	0.070556641	-1.113037109	0.3125	890.9	141.413597	2.14780598	-93.44675985	-70
14593	0	-0.014099121	0.238464355	-0.302429199	0.999999046	-0.000175476	-5.25E-05	0.000164032	-0.352478027	5.961608887	-7.56072998	-0.008773804	-0.002622604	0.008201599	0.0703125	-1.110839844	0.315185547	890.96	141.3940627	2.14825479	-93.45684131	-70
14594	0	-0.014417648	0.239305496	-0.297886848	0.999998093	0.000142097	9.82E-05	7.63E-05	-0.360441208	5.982637405	-7.447171211	0.007104874	0.004911423	0.003814697	0.072753906	-1.111083984	0.312255859	891	141.4114544	2.141314304	-93.44793901	-70
14595	0	-0.014892578	0.238464355	-0.302246094	0.999999046	-3.05E-05	-4.10E-05	0.000110626	-0.372314453	5.961608887	-7.556152344	-0.001525879	-0.0020504	0.005531311	0.070556641	-1.113037109	0.315429688	890.9	141.4085847	2.144248298	-93.45244506	-70
14596	0	-0.014681816	0.24007225	-0.299789429	0.999999046	-0.000357628	-3.81E-05	0.00019455	-0.367045403	6.001806259	-7.494735718	-0.017881394	-0.001907349	0.009727478	0.070556641	-1.113037109	0.3125	890.96	141.3678222	2.140776053	-93.4641914	-70
14597	0	-0.014648438	0.239257813	-0.298583984	0.999999046	0.000484467	-1.05E-05	8.01E-05	-0.366210938	5.981445313	-7.464599609	0.024223329	-0.000524521	0.004005432	0.070556641	-1.113037109	0.309570313	891.02	141.4238908	2.142869987	-93.46368507	-70
14598	0	-0.014434814	0.238965034	-0.304247856	0.999999046	-6.10E-05	7.63E-05	0.000163078	-0.360870361	5.974125862	-7.606196404	-0.003051758	0.003814697	0.008153915	0.072998047	-1.115234375	0.315429688	890.92	141.4174558	2.131103778	-93.46407314	-70
14599	0	-0.014038086	0.238342285	-0.299743652	0.999999046	0.000362396	7.34E-05	0.000152588	-0.350952148	5.958557129	-7.493591309	0.018119812	0.003671646	0.007629395	0.068115234	-1.113037109	0.309814453	891.02	141.4595048	2.120181132	-93.46444533	-70
14600	0	-0.014104843	0.238126755	-0.30266571	0.999999046	-0.000195503	-0.000114441	9.16E-05	-0.352621078	5.953168869	-7.566642761	-0.009775162	-0.005722046	0.004577637	0.070556641	-1.113037109	0.3125	891.06	141.4373516	2.130300208	-93.47231609	-70
14601	0	-0.014343262	0.239685059	-0.300476074	0.999999046	-0.000217438	7.72E-05	8.39E-05	-0.358581543	5.992126465	-7.511901855	-0.010871887	0.003862381	0.004196167	0.072998047	-1.11328125	0.309570313	890.86	141.4131185	2.123648195	-93.46544841	-70
14602	0	-0.01389122	0.239146233	-0.301534653	0.999999046	0.000375748	1.34E-05	0.00012207	-0.347280502	5.978655815	-7.538366318	0.018787385	0.000667572	0.006103516	0.070556641	-1.113037109	0.3125	890.92	141.4565284	2.119836367	-93.46705047	-70
14603	0	-0.014099121	0.237792969	-0.303833008	0.999999046	8.39E-05	5.44E-05	0.000110626	-0.352478027	5.944824219	-7.595825195	0.004196167	0.002717972	0.005531311	0.072753906	-1.11328125	0.312255859	890.92	141.4667222	2.113023175	-93.46431566	-70
14604	0	-0.013648033	0.239027023	-0.300884247	0.999999046	-0.000386238	-0.000118256	6.77E-05	-0.341200829	5.975675583	-7.522106171	-0.019311905	-0.005912781	0.003385544	0.070556641	-1.115234375	0.309814453	890.9	141.4226556	2.124585846	-93.47052125	-70
14605	0	-0.01361084	0.238830566	-0.301818848	0.999999046	-8.77E-05	8.58E-06	6.10E-05	-0.340270996	5.97076416	-7.545471191	-0.004386902	0.000429153	0.003051758	0.070556641	-1.113037109	0.3125	890.92	141.4131364	2.125100196	-93.46702241	-70
14606	0	-0.013638496	0.239677429	-0.299580574	0.999999046	0.000242233	-0.000104904	-6.20E-05	-0.34096241	5.99193573	-7.489514351	0.012111664	-0.005245209	-0.003099442	0.070556641	-1.113037109	0.309570313	890.98	141.4414224	2.144417914	-93.46063195	-70
14607	0	-0.014526367	0.238830566	-0.301025391	0.999999046	0.000362396	-0.000121117	0.000102997	-0.36315918	5.97076416	-7.525634766	0.018119812	-0.006055832	0.005149841	0.070556641	-1.110839844	0.309326172	890.9	141.4828381	2.153294749	-93.47014181	-70
14608	0	-0.014613152	0.238674164	-0.303331375	0.999999046	0.000134468	3.43E-05	6.01E-05	-0.365328789	5.966854095	-7.583284378	0.006723404	0.001716614	0.003004074	0.070556641	-1.113037109	0.3125	890.86	141.4987187	2.151189344	-93.46469933	-70
14609	0	-0.014160156	0.238220215	-0.300231934	0.999999046	4.58E-05	0.000115395	9.54E-05	-0.354003906	5.955505371	-7.50579834	0.002288818	0.00576973	0.004768372	0.070556641	-1.113037109	0.315429688	890.92	141.5044705	2.139171162	-93.45660829	-70
14610	0	-0.013375282	0.238438606	-0.300806999	0.999999046	0.000232697	0.000104904	-7.63E-06	-0.334382057	5.960965157	-7.52017498	0.011634827	0.005245209	-0.00038147	0.070556641	-1.113037109	0.3125	890.9	141.5319044	2.135277149	-93.44001827	-70
14611	0	-0.014038086	0.238830566	-0.302856445	0.999999046	0	-6.01E-05	7.63E-06	-0.350952148	5.97076416	-7.571411133	0	-0.003004074	0.00038147	0.072753906	-1.113037109	0.315185547	890.92	141.5321716	2.144971302	-93.43618408	-70
14612	0	-0.013888359	0.238220215	-0.299803734	0.999999046	0.000195503	-3.62E-05	2.57E-05	-0.347208977	5.955505371	-7.495093346	0.009775162	-0.001811981	0.00128746	0.070556641	-1.113037109	0.315429688	890.96	141.5547598	2.151108678	-93.43281299	-70
14613	0	-0.013977051	0.23840332	-0.301513672	0.999999046	0.000263214	-7.92E-05	0.000148773	-0.34942627	5.960083008	-7.537841797	0.013160706	-0.003957748	0.00743866	0.072753906	-1.111083984	0.309326172	890.96	141.584535	2.15221296	-93.44300119	-70
14614	0	-0.013466835	0.238125801	-0.302125931	0.999999046	0.00075531	2.10E-05	-4.77E-06	-0.336670876	5.953145027	-7.55314827	0.037765507	0.001049042	-0.000238419	0.070556641	-1.113037109	0.315429688	890.96	141.6714634	2.155108381	-93.43285233	-70
14615	0	-0.01348877	0.237304688	-0.303100586	0.999999046	4.20E-05	-1.05E-05	0.0001297	-0.337219238	5.932617188	-7.577514648	0.002098084	-0.000524521	0.006484985	0.067871094	-1.110839844	0.318115234	890.96	141.6761209	2.15112691	-93.43750289	-70
14616	0	-0.014472008	0.238503456	-0.301960945	0.999999046	0.000126839	5.53E-05	0.000132561	-0.361800194	5.962586403	-7.549023628	0.006341934	0.002765656	0.006628037	0.072753906	-1.110839844	0.317871094	890.98	141.6905995	2.140940525	-93.4365036	-70
14617	0	-0.012756348	0.237365723	-0.302429199	0.999999046	0.000228882	-1.05E-05	0.000125885	-0.318908691	5.934143066	-7.56072998	0.011444092	-0.000524521	0.006294251	0.0703125	-1.110839844	0.318115234	890.96	141.7166018	2.13697839	-93.4402001	-70
14618	0	-0.013558388	0.237535477	-0.302415848	0.999999046	0.000329971	-6.68E-05	0.000141144	-0.338959694	5.938386917	-7.560396194	0.016498566	-0.00333786	0.00705719	0.0703125	-1.113037109	0.318115234	890.96	141.753956	2.136877211	-93.44923141	-71
14619	0	-0.01373291	0.236450195	-0.300842285	0.999999046	0.000526428	9.54E-07	6.87E-05	-0.343322754	5.911254883	-7.521057129	0.026321412	4.77E-05	0.003433228	0.0703125	-1.108642578	0.314941406	890.92	141.8141952	2.135720553	-93.44686766	-70
14620	0	-0.014249802	0.237230301	-0.303717613	0.999999046	0.000128746	-0.00012207	8.39E-05	-0.356245041	5.930757523	-7.592940331	0.006437302	-0.006103516	0.004196167	0.0703125	-1.110839844	0.315185547	890.96	141.8284767	2.144482684	-93.45462218	-70
14621	0	-0.013549805	0.236755371	-0.301513672	0.999999046	0.000114441	0.000107765	5.34E-05	-0.338745117	5.918884277	-7.537841797	0.005722046	0.00538826	0.002670288	0.0703125	-1.110839844	0.318115234	890.9	141.8417652	2.134586622	-93.44334047	-70
14622	0	-0.01358223	0.236625671	-0.302242279	0.999999046	-5.91E-05	-6.87E-05	9.92E-05	-0.33955574	5.915641785	-7.556056976	-0.00295639	-0.003433228	0.004959106	0.0703125	-1.110839844	0.320800781	890.9	141.8345044	2.137238391	-93.44869016	-70
14623	0	-0.013427734	0.236755371	-0.30291748	0.999999046	0.000392914	-2.57E-05	9.16E-05	-0.335693359	5.918884277	-7.572937012	0.019645691	-0.00128746	0.004577637	0.072509766	-1.110839844	0.320800781	890.9	141.8791641	2.136450915	-93.44974001	-70
14624	0	-0.013767242	0.23560524	-0.301210403	0.999999046	0.000477791	-1.91E-06	0.000102043	-0.344181061	5.890130997	-7.530260086	0.023889543	-9.54E-05	0.005102158	0.0703125	-1.110839844	0.318115234	890.9	141.9335343	2.13268385	-93.4506749	-70
14625	0	-0.01348877	0.235168457	-0.304748535	0.999999046	7.25E-05	-0.000132561	2.67E-05	-0.337219238	5.879211426	-7.618713379	0.003623962	-0.006628037	0.001335144	0.0703125	-1.110839844	0.320800781	890.9	141.941437	2.145923615	-93.4540815	-70
14626	0	-0.014350891	0.237321854	-0.302765846	0.999999046	-0.000465393	-8.77E-05	0.000125885	-0.358772278	5.933046341	-7.569146156	-0.023269654	-0.004386902	0.006294251	0.070068359	-1.108642578	0.320800781	890.92	141.8874026	2.148046882	-93.463283	-70
14627	0	-0.013183594	0.236877441	-0.301696777	0.999999046	0.000595093	5.82E-05	0.000114441	-0.329589844	5.921936035	-7.542419434	0.029754641	0.002908707	0.005722046	0.0703125	-1.110839844	0.323730469	890.9	141.9552374	2.137700179	-93.46103083	-70
14628	0	-0.013461113	0.236639977	-0.304239273	0.999999046	0.000597954	1.72E-05	3.05E-05	-0.336527824	5.915999413	-7.605981827	0.029897692	0.000858307	0.001525879	0.0703125	-1.110839844	0.320800781	890.92	142.0235638	2.136874422	-93.454086	-70
14629	0	-0.01361084	0.235107422	-0.305908203	0.999999046	-3.81E-06	-4.10E-05	0.000148773	-0.340270996	5.877685547	-7.647705078	-0.000190735	-0.0020504	0.00743866	0.072753906	-1.110839844	0.317871094	890.98	142.0224631	2.132869908	-93.46116315	-70
14630	0	-0.012955666	0.236333847	-0.302548409	0.999999046	-0.000684738	-4.20E-05	7.25E-05	-0.32389164	5.908346176	-7.563710213	-0.034236911	-0.002098084	0.003623963	0.0703125	-1.113037109	0.321044922	890.9	141.9435101	2.134213213	-93.46229842	-70
14631	0	-0.013916016	0.237792969	-0.302185059	0.999999046	0.000167847	2.00E-05	9.16E-05	-0.347900391	5.944824219	-7.554626465	0.008392334	0.001001358	0.004577637	0.072753906	-1.110839844	0.317871094	890.92	141.96224	2.128548024	-93.45996585	-70
14632	0	-0.013244629	0.23626709	-0.300842285	0.999999046	0.000515938	6.87E-05	0.000179291	-0.331115723	5.906677246	-7.521057129	0.025796892	0.003433228	0.008964539	0.0703125	-1.110839844	0.320800781	890.98	142.0205881	2.112205786	-93.46290696	-70
14633	0	-0.013366699	0.23626709	-0.304138184	0.999999046	0.000236511	-1.43E-05	6.48E-05	-0.33416748	5.906677246	-7.60345459	0.011825562	-0.000715256	0.003242493	0.0703125	-1.110839844	0.320800781	890.92	142.0470666	2.11134502	-93.4613433	-70
14634	0	-0.012918472	0.236002922	-0.303822517	0.999999046	0.000110626	2.86E-05	-8.58E-06	-0.322961807	5.900073051	-7.595562935	0.005531311	0.001430511	-0.000429153	0.070068359	-1.108642578	0.320800781	890.92	142.0594526	2.111676375	-93.45019534	-70
14635	0	-0.013916016	0.235778809	-0.303894043	0.999999046	-0.000492096	4.77E-06	0.000160217	-0.347900391	5.894470215	-7.597351074	-0.024604798	0.000238419	0.008010865	0.067871094	-1.110595703	0.326660156	890.86	142.0021305	2.102215068	-93.45666732	-70
14636	0	-0.012860298	0.237175941	-0.300181389	0.999998093	6.10E-05	5.63E-05	0.000175476	-0.321507454	5.929398537	-7.504534721	0.003051758	0.002813339	0.008773804	0.0703125	-1.110839844	0.320800781	890.98	142.0081114	2.086928742	-93.45979878	-70
14637	0	-0.013183594	0.235717773	-0.302124023	0.999999046	0.000324249	9.54E-07	5.34E-05	-0.329589844	5.892944336	-7.553100586	0.016212464	4.77E-05	0.002670288	0.0703125	-1.110839844	0.320800781	890.92	142.0444683	2.085174853	-93.45583703	-70
14638	0	-0.012548447	0.236497879	-0.303925514	0.999999046	-8.96E-05	-8.77E-05	0.000102997	-0.313711166	5.912446976	-7.598137856	-0.004482269	-0.004386902	0.005149841	0.067871094	-1.110839844	0.318115234	890.96	142.0329708	2.087831929	-93.46344531	-70
14639	0	-0.013122559	0.23626709	-0.303161621	0.999999046	-0.00043869	8.58E-06	0.000102997	-0.328063965	5.906677246	-7.579040527	-0.02193451	0.000429153	0.005149841	0.067871094	-1.108642578	0.320800781	890.9	141.9816811	2.081713388	-93.46413243	-71
14640	0	-0.013924599	0.236901283	-0.302466393	0.999999046	-0.000199318	-6.68E-05	0.000136375	-0.348114967	5.922532082	-7.561659813	-0.009965897	-0.00333786	0.006818771	0.0703125	-1.110839844	0.320800781	890.92	141.9574509	2.080010404	-93.47216763	-70
14641	0	-0.012817383	0.236999512	-0.301696777	0.999999046	0.00044632	-2.86E-06	0.000148773	-0.32043457	5.924987793	-7.542419434	0.02231598	-0.000143051	0.00743866	0.067871094	-1.110839844	0.318115234	890.96	142.0072381	2.07158401	-93.47767199	-70
14642	0	-0.013727188	0.235144615	-0.304715157	0.999999046	0.00021553	-7.63E-06	8.77E-05	-0.343179703	5.878615379	-7.617878914	0.01077652	-0.00038147	0.004386902	0.0703125	-1.113037109	0.321044922	891.02	142.0308348	2.06786303	-93.47702695	-70
14643	0	-0.013549805	0.237304688	-0.304016113	0.999999046	-0.000350952	4.77E-06	9.16E-05	-0.338745117	5.932617188	-7.600402832	-0.017547608	0.000238419	0.004577637	0.0703125	-1.110839844	0.320800781	890.96	141.9894837	2.062711932	-93.47586881	-70
14644	0	-0.012955666	0.236114502	-0.301836967	1	-3.81E-06	3.15E-05	-1.14E-05	-0.32389164	5.902862549	-7.545924187	-0.000190735	0.001573563	-0.000572205	0.0703125	-1.110839844	0.323730469	890.9	141.9882563	2.062353806	-93.46366585	-70
14645	0	-0.012695313	0.236999512	-0.302612305	0.999999046	-0.000167847	-2.86E-06	7.63E-05	-0.317382813	5.924987793	-7.565307617	-0.008392334	-0.000143051	0.003814697	0.068115234	-1.113037109	0.321289063	890.98	141.9677905	2.058826171	-93.46272976	-70
14646	0	-0.013699532	0.236979485	-0.300580025	0.999999046	0.000204086	-2.48E-05	0.000178337	-0.342488289	5.924487114	-7.514500618	0.010204315	-0.001239777	0.008916855	0.0703125	-1.110839844	0.315185547	891.08	141.9894412	2.050055499	-93.47139422	-70
14647	0	-0.014160156	0.235900879	-0.302612305	0.999999046	1.53E-05	-0.000128746	-3.81E-06	-0.354003906	5.897521973	-7.565307617	0.000762939	-0.006437302	-0.000190735	0.068115234	-1.113037109	0.318359375	890.96	141.9897592	2.063530895	-93.47208238	-71
14648	0	-0.013142586	0.237600327	-0.303166389	0.999999046	-6.39E-05	-1.53E-05	0.000171661	-0.328564644	5.940008163	-7.579159737	-0.003194809	-0.000762939	0.008583069	0.068115234	-1.113037109	0.318359375	891.04	141.9806567	2.054322261	-93.48043812	-70
14649	0	-0.013244629	0.23626709	-0.301025391	0.999999046	0.000217438	0.000103951	0.000179291	-0.331115723	5.906677246	-7.525634766	0.010871887	0.005197525	0.008964539	0.068115234	-1.110839844	0.315185547	891.02	142.0039937	2.033772893	-93.48080953	-71
14650	0	-0.013219833	0.236384392	-0.301985741	0.999999046	-0.000188828	-1.91E-05	0.000197411	-0.330495834	5.909609795	-7.549643517	-0.009441376	-0.000953674	0.009870529	0.068115234	-1.110839844	0.315185547	890.9	141.9803533	2.023018106	-93.49135327	-71
14651	0	-0.012878418	0.23626709	-0.301025391	0.999999046	-4.58E-05	1.24E-05	0.000114441	-0.321960449	5.906677246	-7.525634766	-0.002288818	0.000619888	0.005722046	0.0703125	-1.108642578	0.317871094	891.08	141.9733785	2.015229831	-93.49110296	-70
14652	0	-0.012634277	0.236357689	-0.302225113	0.999999046	-0.000443459	-0.000144958	0.000113487	-0.315856934	5.908942223	-7.555627823	-0.022172929	-0.007247925	0.005674362	0.067871094	-1.110839844	0.321044922	890.86	141.9204048	2.021651138	-93.50319341	-70
14653	0	-0.012756348	0.237548828	-0.301635742	0.999999046	9.54E-05	2.38E-05	-3.81E-05	-0.318908691	5.938720703	-7.540893555	0.004768372	0.001192093	-0.001907349	0.068115234	-1.110839844	0.315185547	890.9	141.9299976	2.023504823	-93.48952867	-70
14654	0	-0.013005257	0.237123489	-0.302781105	0.999999046	4.77E-05	6.10E-05	8.30E-05	-0.325131416	5.928087234	-7.569527626	0.002384186	0.003051758	0.004148483	0.067871094	-1.108642578	0.317871094	890.9	141.9338016	2.013404541	-93.48422424	-70
14655	0	-0.012756348	0.237487793	-0.301818848	0.999999046	0.000202179	-7.15E-05	0.000148773	-0.318908691	5.937194824	-7.545471191	0.010108948	-0.003576279	0.00743866	0.067871094	-1.110839844	0.318115234	890.92	141.9546956	2.010569616	-93.49414691	-70
14656	0	-0.012486458	0.236208916	-0.303805351	0.999999046	0.000218391	4.01E-05	6.77E-05	-0.312161446	5.905222893	-7.595133781	0.010919571	0.002002716	0.003385544	0.0703125	-1.110839844	0.318115234	890.84	141.9780173	2.003331272	-93.4875147	-70
14657	0	-0.012023926	0.236999512	-0.303894043	0.999999046	-0.000411987	-3.34E-05	0.0001297	-0.300598145	5.924987793	-7.597351074	-0.020599366	-0.00166893	0.006484986	0.0703125	-1.113037109	0.321044922	890.86	141.9287203	1.99826316	-93.49175934	-70
14658	0	-0.01295948	0.237920761	-0.300096512	0.999999046	1.72E-05	-6.29E-05	0.000163078	-0.323987007	5.948019028	-7.502412796	0.000858307	-0.003147125	0.008153915	0.067871094	-1.110839844	0.318115234	890.96	141.9282751	1.993477316	-93.50236343	-70
14659	0	-0.012634277	0.236206055	-0.302734375	0.999999046	0.000141144	-9.06E-05	0.000164032	-0.315856934	5.905151367	-7.568359375	0.00705719	-0.004529953	0.008201599	0.072753906	-1.110839844	0.317871094	890.92	141.9419862	1.991079722	-93.51212419	-70
14660	0	-0.012368202	0.236978531	-0.30286026	0.999999046	7.72E-05	9.16E-05	0.000144005	-0.309205055	5.924463272	-7.5715065	0.003862381	0.004577637	0.007200241	0.0703125	-1.110839844	0.315185547	890.9	141.9488605	1.973610814	-93.50863355	-70
14661	0	-0.012817383	0.235656738	-0.302856445	0.999999046	5.72E-05	6.96E-05	8.77E-05	-0.32043457	5.891418457	-7.571411133	0.002861023	0.003480911	0.004386902	0.067871094	-1.110839844	0.318115234	890.9	141.9535864	1.962074371	-93.50310451	-70
14662	0	-0.012307167	0.236966133	-0.302702904	0.999999046	-0.000448227	1.91E-05	0.000113487	-0.307679176	5.924153328	-7.567572594	-0.022411347	0.000953674	0.005674362	0.067871094	-1.110839844	0.318115234	890.92	141.9001606	1.953236304	-93.50335819	-70
14663	0	-0.012939453	0.237426758	-0.301696777	0.999999046	-7.63E-05	9.54E-07	9.16E-05	-0.323486328	5.935668945	-7.542419434	-0.003814697	4.77E-05	0.004577637	0.067871094	-1.110839844	0.318115234	890.9	141.8893189	1.94757623	-93.50283385	-70
14664	0	-0.012408257	0.236375809	-0.3030653	0.999999046	2.19E-05	-8.58E-05	8.68E-05	-0.310206413	5.909395218	-7.5766325	0.001096725	-0.004291534	0.004339218	0.068115234	-1.113037109	0.315429688	890.9	141.8895701	1.950045868	-93.50780867	-70
14665	0	-0.012451172	0.237365723	-0.302307129	0.999999046	-6.10E-05	-0.000109673	6.87E-05	-0.311279297	5.934143066	-7.557678223	-0.003051758	-0.005483627	0.003433228	0.065673828	-1.112792969	0.315673828	891.06	141.8802724	1.955916774	-93.51439023	-70
14666	0	-0.01321888	0.238807678	-0.304045677	0.999999046	-0.000106812	-0.000139236	0.000141144	-0.330471992	5.970191956	-7.60114193	-0.005340576	-0.006961823	0.00705719	0.067871094	-1.110839844	0.318115234	890.86	141.8654045	1.959327091	-93.52801309	-70
14667	0	-0.011657715	0.235839844	-0.30255127	0.999999046	0.000492096	0.000123024	6.48E-05	-0.291442871	5.895996094	-7.563781738	0.024604798	0.0061512	0.003242493	0.067871094	-1.111083984	0.318115234	890.92	141.9200793	1.94441885	-93.51609773	-70
14668	0	-0.013079643	0.235726357	-0.302298546	0.999999046	-0.000401497	-1.14E-05	7.92E-05	-0.326991081	5.893158913	-7.557463646	-0.020074845	-0.000572205	0.003957749	0.065673828	-1.110839844	0.315429688	890.9	141.8720051	1.940632184	-93.51636492	-70
14669	0	-0.012390137	0.237731934	-0.301269531	0.999999046	1.91E-05	3.15E-05	5.34E-05	-0.309753418	5.94329834	-7.531738281	0.000953674	0.001573563	0.002670288	0.0703125	-1.111083984	0.318115234	890.96	141.8722394	1.934771222	-93.5080642	-70
14670	0	-0.012408257	0.237355232	-0.302622795	1	-2.00E-05	-1.43E-05	3.72E-05	-0.310206413	5.933880806	-7.565569878	-0.001001358	-0.000715256	0.001859665	0.068115234	-1.11328125	0.321289063	890.96	141.8679114	1.934159971	-93.50329976	-70
14671	0	-0.012084961	0.238464355	-0.301635742	0.999999046	0.000110626	4.67E-05	0.000156403	-0.302124023	5.961608887	-7.540893555	0.005531311	0.002336502	0.007820129	0.065673828	-1.110839844	0.312744141	890.9	141.8782451	1.919573163	-93.50628902	-70
14672	0	-0.012166977	0.237118721	-0.302300453	0.999999046	0.000235558	-2.86E-05	0.000198364	-0.304174423	5.927968025	-7.55751133	0.011777878	-0.001430511	0.009918213	0.065673828	-1.113037109	0.318603516	890.96	141.9025751	1.908783504	-93.51821197	-70
14673	0	-0.011657715	0.237304688	-0.30065918	0.999999046	-0.000255585	-9.44E-05	0.000125885	-0.291442871	5.932617188	-7.516479492	-0.012779236	-0.004720688	0.006294251	0.065673828	-1.110839844	0.318359375	890.98	141.8706053	1.909003715	-93.5280637	-70
14674	0	-0.012266159	0.237522125	-0.301634789	0.999999046	0.000377655	6.68E-05	7.53E-05	-0.306653976	5.938053131	-7.540869713	0.018882752	0.00333786	0.003767014	0.068115234	-1.111083984	0.315429688	890.92	141.9116889	1.898248678	-93.51995322	-70
14675	0	-0.012268066	0.237121582	-0.304443359	0.999999046	-0.000106812	-8.30E-05	6.48E-05	-0.30670166	5.928039551	-7.611083984	-0.005340576	-0.004148483	0.003242493	0.068115234	-1.11328125	0.318359375	890.96	141.8969797	1.901719625	-93.52165712	-70
14676	0	-0.012349129	0.237736702	-0.301888466	0.999999046	-0.000164986	-4.20E-05	3.81E-05	-0.308728218	5.943417549	-7.547211647	-0.008249283	-0.002098084	0.001907349	0.068115234	-1.111083984	0.315429688	890.96	141.8757227	1.903370054	-93.51805681	-70
14677	0	-0.012207031	0.237060547	-0.302246094	0.999999046	-0.000144958	-0.000102043	0.0001297	-0.305175781	5.926513672	-7.556152344	-0.007247925	-0.005102158	0.006484985	0.065673828	-1.110839844	0.318359375	890.92	141.8563289	1.90394079	-93.52885839	-70
14678	0	-0.011841774	0.23830986	-0.300344467	1	1.43E-05	-3.91E-05	4.48E-05	-0.29604435	5.957746506	-7.508611679	0.000715256	-0.001955032	0.002241135	0.068115234	-1.111083984	0.3125	891.02	141.8554808	1.904808519	-93.52547582	-70
14679	0	-0.011962891	0.237609863	-0.302368164	0.999999046	-0.000125885	9.54E-07	0.000171661	-0.299072266	5.940246582	-7.559204102	-0.006294251	4.77E-05	0.008583069	0.065673828	-1.110839844	0.318359375	890.98	141.8382587	1.893058468	-93.53258504	-70
14680	0	-0.011698723	0.237322807	-0.300416946	0.999999046	7.53E-05	-8.58E-05	-3.91E-05	-0.292468071	5.933070183	-7.51042366	0.003767014	-0.004291534	-0.001955032	0.068115234	-1.11328125	0.318359375	891.04	141.8444647	1.904012402	-93.52503753	-70
14681	0	-0.013305664	0.238525391	-0.303833008	0.999999046	1.91E-05	-6.39E-05	7.63E-05	-0.332641602	5.963134766	-7.595825195	0.000953674	-0.003194809	0.003814697	0.063232422	-1.113037109	0.318603516	890.82	141.843915	1.904858766	-93.53034922	-70
14682	0	-0.012516022	0.237538338	-0.301887512	0.999999046	0.00025177	5.91E-05	0.000193596	-0.312900543	5.938458443	-7.547187805	0.012588501	0.00295639	0.009679794	0.067871094	-1.111083984	0.321044922	890.96	141.8699569	1.886314346	-93.53318331	-70
14683	0	-0.01159668	0.237182617	-0.301635742	0.999999046	0.000289917	-6.68E-06	0.000118256	-0.289916992	5.92956543	-7.540893555	0.01449585	-0.000333786	0.005912781	0.068115234	-1.111083984	0.315429688	890.98	141.9004166	1.878993386	-93.5334715	-70
14684	0	-0.012277603	0.2376194	-0.303483009	1	-4.01E-05	-6.68E-06	5.34E-05	-0.306940079	5.940485001	-7.587075233	-0.002002716	-0.000333786	0.002670288	0.068115234	-1.11328125	0.318359375	890.98	141.8932602	1.876253674	-93.5280875	-70
14685	0	-0.011474609	0.237487793	-0.30065918	0.999999046	0.00030899	-1.81E-05	5.72E-05	-0.286865234	5.937194824	-7.516479492	0.015449524	-0.000905991	0.002861023	0.065673828	-1.113037109	0.315673828	890.9	141.9259811	1.874235337	-93.5259438	-70
14686	0	-0.012496948	0.236812592	-0.30452919	0.999999046	-6.68E-05	-0.000148773	7.63E-05	-0.312423706	5.920314789	-7.613229752	-0.00333786	-0.00743866	0.003814697	0.067871094	-1.111083984	0.321044922	891.02	141.9153529	1.882661622	-93.53290686	-70
14687	0	-0.012756348	0.236694336	-0.301086426	0.999999046	2.67E-05	-2.86E-06	0.000141144	-0.318908691	5.917358398	-7.527160645	0.001335144	-0.000143051	0.00705719	0.068115234	-1.111083984	0.315429688	890.9	141.9155441	1.873365734	-93.5349095	-70
14688	0	-0.012387276	0.236497879	-0.303113937	0.999999046	2.96E-05	-5.15E-05	2.57E-05	-0.309681892	5.912446976	-7.577848434	0.001478195	-0.002574921	0.00128746	0.065673828	-1.110839844	0.315429688	890.98	141.9163192	1.876618339	-93.53226508	-70
14689	0	-0.012329102	0.238464355	-0.301391602	0.999999046	-0.000205994	-9.82E-05	8.01E-05	-0.308227539	5.961608887	-7.534790039	-0.010299683	-0.004911423	0.004005432	0.067871094	-1.111083984	0.321044922	890.9	141.8897367	1.880242032	-93.53592304	-69
14690	0	-0.012654305	0.238101006	-0.299946785	0.999997139	0.000518799	6.29E-05	0.000163078	-0.316357613	5.952525139	-7.498669624	0.025939943	0.003147125	0.008153916	0.067871094	-1.111083984	0.318115234	890.98	141.9462197	1.863483648	-93.5353345	-70
14691	0	-0.011535645	0.236022949	-0.303161621	0.999999046	0.000473022	-0.000128746	0.000164032	-0.288391113	5.90057373	-7.579040527	0.023651124	-0.006437302	0.008201599	0.067871094	-1.111083984	0.318115234	890.9	141.9970632	1.863926864	-93.54824093	-69
14692	0	-0.011963844	0.236167908	-0.302467346	0.999999046	-9.63E-05	-9.54E-05	0.000106812	-0.299096107	5.904197693	-7.561683655	-0.004816055	-0.004768372	0.005340576	0.068115234	-1.111083984	0.315429688	890.92	141.9829133	1.865386823	-93.55329952	-70
14693	0	-0.01184082	0.236572266	-0.303161621	0.999999046	4.20E-05	-9.44E-05	4.20E-05	-0.296020508	5.914306641	-7.579040527	0.002098084	-0.004720688	0.002098084	0.065429688	-1.108642578	0.318115234	890.86	141.984807	1.871317297	-93.55520314	-70
14694	0	-0.012245178	0.236730576	-0.302508354	0.999999046	-0.000135422	-7.63E-06	-2.67E-05	-0.306129456	5.918264389	-7.562708855	-0.006771088	-0.00038147	-0.001335144	0.065673828	-1.113037109	0.315673828	890.98	141.9667631	1.874259965	-93.54461749	-70
14695	0	-0.012145996	0.237121582	-0.303833008	0.999999046	4.20E-05	-2.57E-05	8.77E-05	-0.303649902	5.928039551	-7.595825195	0.002098083	-0.00128746	0.004386902	0.065673828	-1.113037109	0.315673828	890.92	141.9686844	1.870751358	-93.5454941	-70
14696	0	-0.012365341	0.236792564	-0.300618172	0.999999046	0.000126839	-1.34E-05	5.63E-05	-0.30913353	5.91981411	-7.515454292	0.006341934	-0.000667572	0.002813339	0.067871094	-1.111083984	0.321044922	890.96	141.9803868	1.868353265	-93.54047566	-70
14697	0	-0.01159668	0.236755371	-0.302307129	0.999999046	-0.000133514	-5.25E-05	0.000114441	-0.289916992	5.918884277	-7.557678223	-0.00667572	-0.002622604	0.005722046	0.065429688	-1.110839844	0.323974609	890.96	141.9619679	1.865346421	-93.54599177	-70
14698	0	-0.012429237	0.237387657	-0.30126667	0.999999046	3.62E-05	-0.00015831	5.25E-05	-0.310730934	5.934691429	-7.531666756	0.001811981	-0.007915497	0.002622604	0.068115234	-1.11328125	0.318359375	891.04	141.9628781	1.876281773	-93.55044331	-70
14699	0	-0.012451172	0.236450195	-0.303405762	0.999999046	6.48E-05	-6.68E-06	6.87E-05	-0.311279297	5.911254883	-7.585144043	0.003242493	-0.000333786	0.003433228	0.065673828	-1.110839844	0.315429688	890.96	141.9673986	1.872395609	-93.5480913	-70
