Counter	Temperature	VelInc_X	VelInc_Y	VelInc_Z	OriInc_w	OriInc_x	OriInc_y	OriInc_z	Acc_X	Acc_Y	Acc_Z	Gyr_X	Gyr_Y	Gyr_Z	Mag_X	Mag_Y	Mag_Z	Pressure	Roll	Pitch	Yaw	RSSI
52412	0	0.388850212	0.058787346	0.03966713	0.999999046	-0.000382423	-0.000255585	-3.15E-05	9.721255302	1.469683647	0.991678238	-0.019121171	-0.012779236	-0.001573563	-0.918457031	0.469726563	0.068115234	891.58	56.25016534	-79.29309461	-163.4005798	-52
52413	0	0.38861084	0.061401367	0.0390625	0.999999046	-0.000118256	-6.68E-06	0.000160217	9.715270996	1.53503418	0.9765625	-0.005912781	-0.000333786	0.008010864	-0.916259766	0.469726563	0.070800781	891.56	56.20401685	-79.29723182	-163.3733598	-52
52414	0	0.387410164	0.061144829	0.03943634	0.999999046	-3.43E-05	3.62E-05	0.000179291	9.685254097	1.52862072	0.985908508	-0.001716614	0.001811981	0.008964539	-0.918701172	0.472167969	0.067871094	891.5	56.13967827	-79.3004445	-163.3114307	-52
52415	0	0.387329102	0.062011719	0.039306641	0.999999046	-3.81E-06	-2.86E-06	0.000167847	9.683227539	1.550292969	0.982666016	-0.000190735	-0.000143051	0.008392334	-0.918457031	0.469970703	0.071044922	891.58	56.10281558	-79.30502526	-163.2811879	-52
52416	0	0.386982918	0.061148643	0.042294502	0.999999046	-9.25E-05	-0.000144958	0.000128746	9.674572945	1.528716087	1.057362556	-0.00462532	-0.007247925	0.006437302	-0.918457031	0.469726563	0.068115234	891.46	56.14025797	-79.31488022	-163.3306941	-53
52417	0	0.388427734	0.060546875	0.040527344	0.999999046	-0.000102997	-0.000361443	0.000167847	9.710693359	1.513671875	1.013183594	-0.005149841	-0.018072129	0.008392334	-0.916259766	0.469726563	0.073730469	891.62	56.27279545	-79.34224635	-163.4874118	-52
52418	0	0.38731575	0.060225487	0.038732529	0.999999046	-2.29E-05	-0.000463486	0.000243187	9.682893753	1.505637169	0.968313217	-0.001144409	-0.023174287	0.012159348	-0.918701172	0.472167969	0.067871094	891.5	56.44201605	-79.38325223	-163.6582813	-53
52419	0	0.388183594	0.058837891	0.039733887	0.999999046	-1.14E-05	-0.00045681	0.000137329	9.704589844	1.470947266	0.993347168	-0.000572205	-0.022840501	0.006866455	-0.918457031	0.469970703	0.071044922	891.5	56.64593819	-79.41367889	-163.8688451	-52
52420	0	0.388235092	0.060317039	0.038768768	0.999999046	0.000336647	-0.000455856	0.000231743	9.705877304	1.507925987	0.969219208	0.016832353	-0.022792818	0.011587144	-0.918701172	0.472167969	0.070800781	891.52	56.85889735	-79.45297485	-164.0457021	-52
52421	0	0.390319824	0.058776855	0.03729248	0.999999046	0.00038147	-0.000407219	0.000350952	9.757995605	1.469421387	0.932312012	0.019073488	-0.020360948	0.017547609	-0.918701172	0.469970703	0.073730469	891.46	57.01332279	-79.50070528	-164.1641242	-53
52422	0	0.389780045	0.058774948	0.036746025	0.999999046	0.000606537	-1.72E-05	0.000437737	9.744501114	1.469373703	0.918650627	0.030326846	-0.000858307	0.021886828	-0.916259766	0.469726563	0.073730469	891.58	56.96261519	-79.53252702	-164.0488986	-52
52423	0	0.388366699	0.058166504	0.039855957	0.999999046	0.000789642	0.000164986	0.000614166	9.70916748	1.454162598	0.996398926	0.039482123	0.008249284	0.030708318	-0.918701172	0.474365234	0.073486328	891.52	56.77685783	-79.56986187	-163.7751526	-53
52424	0	0.387693405	0.059159279	0.041658401	0.999999046	0.000912666	0.000219345	0.000308037	9.692335129	1.478981972	1.041460037	0.045633323	0.010967256	0.015401843	-0.916259766	0.474121094	0.064697266	891.5	56.67964643	-79.5742492	-163.5626645	-52
52425	0	0.385864258	0.058288574	0.039489746	0.999999046	0.00044632	-0.000189781	7.25E-05	9.646606445	1.457214355	0.987243652	0.02231598	-0.00948906	0.003623963	-0.916503906	0.476318359	0.067382813	891.56	56.82217941	-79.58178524	-163.652858	-53
52426	0	0.388327599	0.057715416	0.037153244	0.999999046	0.00031662	-0.000461578	0.000236511	9.708189964	1.442885399	0.9288311	0.015830995	-0.02307892	0.011825562	-0.918701172	0.474365234	0.070556641	891.62	57.03662609	-79.62212598	-163.8378505	-52
52427	0	0.388977051	0.060302734	0.035827637	0.999999046	0.000331879	-0.00039959	0.000118256	9.72442627	1.507568359	0.895690918	0.016593934	-0.019979478	0.005912781	-0.918701172	0.474365234	0.067626953	891.56	57.2625408	-79.64712949	-164.0262751	-53
52428	0	0.389202118	0.056816101	0.03621006	0.999999046	6.01E-05	-0.000457764	8.39E-05	9.730052948	1.420402527	0.905251503	0.003004074	-0.022888184	0.004196167	-0.918945313	0.4765625	0.073242188	891.52	57.50073935	-79.67242769	-164.267282	-52
52429	0	0.390991211	0.056091309	0.036132813	0.999999046	-0.000331879	-0.000189781	-1.91E-05	9.774780273	1.402282715	0.903320313	-0.016593934	-0.00948906	-0.000953674	-0.916503906	0.4765625	0.0703125	891.56	57.58710444	-79.67135827	-164.3922185	-52
52430	0	0.388928413	0.055713654	0.039195061	0.999999046	-0.00022316	0.000185013	3.81E-06	9.723210335	1.392841339	0.979876518	-0.01115799	0.009250641	0.000190735	-0.9140625	0.474121094	0.0703125	891.5	57.47848222	-79.64955281	-164.3074568	-52
52431	0	0.38671875	0.055969238	0.038269043	0.999999046	-1.53E-05	0.000134468	-0.000118256	9.66796875	1.399230957	0.956726074	-0.000762939	0.006723404	-0.005912781	-0.916503906	0.4765625	0.073242188	891.52	57.46119054	-79.6191528	-164.2964319	-52
52432	0	0.386389732	0.055814743	0.038372993	0.999999046	-0.000250816	-5.72E-06	-5.05E-05	9.659743309	1.395368576	0.959324837	-0.012540817	-0.000286102	-0.002527237	-0.916259766	0.474121094	0.067626953	891.5	57.46739258	-79.60404368	-164.3264212	-52
52433	0	0.388427734	0.055969238	0.03729248	0.999999046	-0.000469208	0.000199318	-4.20E-05	9.710693359	1.399230957	0.932312012	-0.023460389	0.009965897	-0.002098084	-0.916259766	0.474121094	0.070556641	891.56	57.33756696	-79.5772655	-164.2491001	-53
52434	0	0.390361786	0.056334496	0.035851479	0.999999046	-0.000299454	0.000370026	-4.96E-05	9.759044647	1.408362389	0.896286964	-0.014972687	0.018501282	-0.002479553	-0.918701172	0.472167969	0.073730469	891.5	57.14121859	-79.53932778	-164.0923784	-53
52435	0	0.389160156	0.056274414	0.036987305	0.999999046	-0.000301361	0.000729561	-0.000164032	9.729003906	1.406860352	0.924682617	-0.015068056	0.036478047	-0.0082016	-0.916259766	0.474121094	0.070556641	891.56	56.79847718	-79.46796849	-163.7812812	-52
52436	0	0.387252808	0.05588913	0.039477348	0.999999046	-0.000433922	0.000505447	-0.000138283	9.68132019	1.397228241	0.986933708	-0.021696092	0.025272371	-0.006914139	-0.916259766	0.471923828	0.067626953	891.46	56.55015736	-79.4130118	-163.577833	-52
52437	0	0.388000488	0.056335449	0.038024902	0.999999046	-0.000232697	0.000584602	-0.00025177	9.700012207	1.40838623	0.950622559	-0.011634828	0.02923012	-0.012588502	-0.916259766	0.471923828	0.067626953	891.5	56.3251811	-79.34221628	-163.3760292	-54
52438	0	0.388656616	0.058037758	0.040519714	0.999999046	7.06E-05	0.000518799	-0.000133514	9.716415405	1.450943947	1.012992859	0.003528595	0.025939943	-0.006675721	-0.918457031	0.471923828	0.064941406	891.56	56.13042878	-79.28679228	-163.1665155	-53
52439	0	0.390197754	0.062072754	0.040344238	0.999999046	-0.000236511	0.000393867	-0.000205994	9.754943848	1.551818848	1.008605957	-0.011825562	0.019693375	-0.010299683	-0.918457031	0.469726563	0.065185547	891.52	55.98980279	-79.23227988	-163.0502024	-53
52440	0	0.387700081	0.059771538	0.040066719	0.999999046	-0.000620842	0.000406265	-0.00024128	9.692502022	1.494288445	1.001667976	-0.031042102	0.020313265	-0.012063981	-0.918457031	0.469726563	0.065185547	891.52	55.81235406	-79.17358496	-162.941247	-53
52441	0	0.385986328	0.060180664	0.042297363	0.999999046	-0.000457764	0.000565529	-0.000267029	9.649658203	1.504516602	1.057434082	-0.022888186	0.028276446	-0.013351442	-0.918457031	0.467529297	0.065429688	891.56	55.58514191	-79.10204256	-162.7650065	-53
52442	0	0.385416031	0.061994553	0.043276787	0.999999046	-0.000488281	0.00063324	-0.000442505	9.635400772	1.549863815	1.08191967	-0.024414066	0.031661992	-0.022125247	-0.920654297	0.467773438	0.0625	891.62	55.38288872	-79.00927494	-162.6130599	-52
52443	0	0.387207031	0.063537598	0.043212891	0.999999046	-0.000423431	0.000317574	-0.000240326	9.680175781	1.588439941	1.080322266	-0.021171571	0.015878678	-0.012016297	-0.918212891	0.467529297	0.0625	891.52	55.27564347	-78.95591872	-162.5502278	-52
52444	0	0.388005257	0.061796188	0.041496277	0.999999046	-0.000288963	0.000366211	-0.000431061	9.700131416	1.544904709	1.037406921	-0.014448167	0.018310548	-0.021553041	-0.918212891	0.463134766	0.065673828	891.56	55.225082	-78.88141715	-162.5381038	-53
52445	0	0.387084961	0.063293457	0.041992188	0.999999046	-0.00019455	0.000489235	-0.000469208	9.677124023	1.582336426	1.049804688	-0.009727479	0.024461748	-0.02346039	-0.920654297	0.465576172	0.065673828	891.56	55.14035367	-78.79522106	-162.4799569	-53
52446	0	0.38539505	0.063454628	0.043857574	0.999999046	-0.000276566	0.000368118	-0.000325203	9.634876251	1.5863657	1.096439362	-0.013828278	0.018405915	-0.016260148	-0.920654297	0.465332031	0.062744141	891.5	55.05715123	-78.73038483	-162.4277346	-52
52447	0	0.385375977	0.063415527	0.041931152	0.999999046	0.000213623	0.000401497	-0.000247955	9.634399414	1.585388184	1.048278809	0.010681153	0.020074845	-0.012397767	-0.922851563	0.463378906	0.062988281	891.56	54.99026987	-78.67057999	-162.3381395	-53
52448	0	0.387809753	0.064785957	0.045265198	0.999999046	0.000266075	0.000179291	1.14E-05	9.695243835	1.619648933	1.131629944	0.013303757	0.008964539	0.000572205	-0.922851563	0.463378906	0.065917969	891.46	54.94891911	-78.64959217	-162.2751308	-53
52449	0	0.387145996	0.064575195	0.043212891	0.999999046	-4.20E-05	8.87E-05	-3.05E-05	9.678649902	1.614379883	1.080322266	-0.002098083	0.004434586	-0.001525879	-0.922851563	0.463378906	0.062988281	891.46	54.92894749	-78.63057462	-162.2642541	-53
52450	0	0.389086723	0.065265656	0.044262886	0.999999046	0.000217438	9.92E-05	-0.0001297	9.727168083	1.631641388	1.106572151	0.010871887	0.004959107	-0.006484985	-0.922851563	0.463378906	0.062988281	891.56	54.96656837	-78.60148156	-162.282299	-52
52451	0	0.387878418	0.063293457	0.044921875	0.999999046	0.000328064	0.000107765	-3.05E-05	9.696960449	1.582336426	1.123046875	0.016403199	0.00538826	-0.001525879	-0.922607422	0.461181641	0.060302734	891.56	54.9803176	-78.58111049	-162.2598035	-52
52452	0	0.386704445	0.06560421	0.044960976	0.999999046	0.000596046	0.000249863	-0.000115395	9.667611122	1.640105247	1.124024391	0.029802325	0.012493134	-0.00576973	-0.922607422	0.461181641	0.060302734	891.62	54.98667912	-78.54331188	-162.2002389	-53
52453	0	0.386657715	0.064880371	0.04498291	0.999999046	0.00069809	0.000626564	4.58E-05	9.666442871	1.622009277	1.124572754	0.034904485	0.031328206	0.002288819	-0.922607422	0.461181641	0.060302734	891.64	54.77919486	-78.49569311	-161.9139818	-53
52454	0	0.385447502	0.067715645	0.045431137	0.999999046	0.000858307	0.000555038	-3.43E-05	9.636187553	1.692891121	1.135778427	0.042915352	0.027751927	-0.001716614	-0.922607422	0.4609375	0.054443359	891.52	54.65126547	-78.44495088	-161.6822858	-53
52455	0	0.385742188	0.06652832	0.045593262	0.999999046	0.000495911	0.000508308	0.000144958	9.643554688	1.663208008	1.139831543	0.024795534	0.025415423	0.007247925	-0.922607422	0.4609375	0.051757813	891.64	54.44673949	-78.41379268	-161.412435	-52
52456	0	0.386568069	0.065974236	0.047018051	0.999999046	8.68E-05	0.000324249	0.000113487	9.664201736	1.649355888	1.175451279	0.004339218	0.016212464	0.005674362	-0.922607422	0.4609375	0.054443359	891.56	54.29018063	-78.39170104	-161.2460508	-53
52457	0	0.38494873	0.066467285	0.045532227	0.999999046	0.000423431	0.000370979	6.10E-05	9.623718262	1.661682129	1.138305664	0.021171571	0.018548966	0.003051758	-0.925048828	0.461181641	0.0546875	891.52	54.16922148	-78.36141629	-161.0793852	-53
52458	0	0.384189606	0.065909386	0.046309471	0.999999046	0.000455856	0.000392914	0.00025177	9.604740143	1.647734642	1.157736778	0.022792818	0.019645692	0.012588502	-0.922607422	0.463134766	0.054443359	891.5	53.9808201	-78.34716449	-160.8405959	-52
52459	0	0.383300781	0.065063477	0.047668457	0.999999046	0.000663757	0.000237465	0.000408173	9.582519531	1.626586914	1.191711426	0.03318787	0.011873247	0.020408633	-0.922607422	0.4609375	0.048828125	891.5	53.83496766	-78.3576403	-160.6134973	-52
52460	0	0.384366989	0.063959122	0.048314095	0.999999046	0.000117302	-2.29E-05	0.00025177	9.609174728	1.598978043	1.207852364	0.005865097	-0.001144409	0.012588501	-0.922607422	0.463134766	0.051513672	891.5	53.79413571	-78.37112032	-160.5620956	-52
52461	0	0.385314941	0.064819336	0.047485352	0.999999046	0.000160217	-0.000220299	0.000392914	9.632873535	1.620483398	1.187133789	0.008010865	-0.011014939	0.019645692	-0.922607422	0.463134766	0.045654297	891.5	53.8003892	-78.41093652	-160.5422581	-52
52462	0	0.388618469	0.061415672	0.047780991	0.999999046	0.000389099	-0.000261307	0.000533104	9.715461731	1.535391808	1.194524765	0.019454958	-0.013065339	0.026655199	-0.922851563	0.465332031	0.051269531	891.52	53.80438618	-78.46656738	-160.5036926	-52
52463	0	0.389038086	0.061584473	0.046875	0.999999046	0.000423431	-0.000212669	0.000465393	9.725952148	1.539611816	1.171875	0.021171571	-0.010633469	0.023269655	-0.920410156	0.465332031	0.051269531	891.46	53.81218623	-78.5127247	-160.4650964	-52
52464	0	0.387832642	0.060592651	0.048244476	0.999999046	0.000416756	-0.000104904	0.000395775	9.69581604	1.514816284	1.206111908	0.020837785	-0.005245209	0.019788743	-0.922851563	0.465332031	0.051269531	891.58	53.79234842	-78.54519788	-160.4002389	-52
52465	0	0.387634277	0.061950684	0.045532227	0.999999046	0.000492096	-0.000220299	0.000106812	9.690856934	1.54876709	1.138305664	0.024604799	-0.011014939	0.005340576	-0.920410156	0.465332031	0.048339844	891.62	53.93031074	-78.55879987	-160.4817001	-52
52466	0	0.387666702	0.060935974	0.0458498	0.999999046	0.000255585	-0.000289917	0.000255585	9.691667557	1.523399353	1.146245003	0.012779236	-0.01449585	0.012779236	-0.920410156	0.465332031	0.051269531	891.62	54.02349948	-78.59093095	-160.5505594	-52
52467	0	0.38873291	0.060180664	0.043334961	0.999999046	0.000396729	-0.00014782	9.16E-05	9.718322754	1.504516602	1.083374023	0.019836426	-0.007390976	0.004577637	-0.920410156	0.467529297	0.048095703	891.5	54.12264814	-78.59845004	-160.6020203	-53
52468	0	0.388085365	0.061120987	0.044757843	0.999999046	0.000142097	-8.39E-05	0.000240326	9.702134132	1.528024673	1.118946075	0.007104874	-0.004196167	0.012016297	-0.922851563	0.467529297	0.051025391	891.62	54.1135822	-78.6155727	-160.5791858	-52
52469	0	0.390014648	0.06072998	0.04296875	0.999999046	-1.53E-05	0.00049305	0.000228882	9.750366211	1.518249512	1.07421875	-0.000762939	0.024652482	0.011444092	-0.920410156	0.465332031	0.051269531	891.62	53.82504132	-78.59290234	-160.2927042	-52
52470	0	0.387740135	0.060489655	0.044511795	0.999999046	-3.81E-06	0.00066185	0.000255585	9.69350338	1.512241364	1.112794876	-0.000190735	0.033092502	0.012779237	-0.920410156	0.467529297	0.045166016	891.56	53.45304271	-78.56101426	-159.9093156	-52
52471	0	0.387695313	0.062194824	0.044799805	0.999999046	-9.92E-05	0.00049305	0.000102997	9.692382813	1.554870605	1.119995117	-0.004959107	0.024652482	0.005149842	-0.920410156	0.469726563	0.045166016	891.52	53.20045038	-78.52629512	-159.6595634	-52
52472	0	0.387600899	0.059358597	0.046535492	0.999999046	-0.000290871	0.000354767	9.82E-05	9.690022469	1.48396492	1.163387299	-0.014543534	0.017738343	0.004911423	-0.920410156	0.467529297	0.042236328	891.52	52.99077517	-78.5005777	-159.4722948	-52
52473	0	0.38684082	0.062072754	0.047668457	0.999999046	-0.000293732	0.000451088	0.000217438	9.671020508	1.551818848	1.191711426	-0.014686585	0.022554399	0.010871888	-0.920410156	0.467529297	0.051025391	891.58	52.69783173	-78.47889887	-159.2188218	-52
52474	0	0.383954048	0.060594559	0.048903465	0.999999046	-3.24E-05	0.000349045	0.000289917	9.598851204	1.514863968	1.222586632	-0.001621246	0.017452241	0.01449585	-0.920410156	0.467529297	0.045166016	891.58	52.45593859	-78.47065283	-158.9768065	-52
52475	0	0.386962891	0.061706543	0.04888916	0.999999046	8.77E-05	-4.48E-05	0.000354767	9.674072266	1.542663574	1.222229004	0.004386902	-0.002241135	0.017738343	-0.920410156	0.467529297	0.045166016	891.62	52.38079607	-78.49565413	-158.8912883	-52
52476	0	0.386096954	0.064553261	0.04829216	0.999999046	-6.20E-05	-0.000221252	0.000392914	9.652423859	1.61383152	1.207304001	-0.003099442	-0.011062622	0.019645692	-0.920410156	0.467529297	0.042236328	891.56	52.3541588	-78.53630093	-158.8665818	-52
52477	0	0.385742188	0.061584473	0.04901123	0.999999046	-0.000465393	-0.000273705	0.000324249	9.643554688	1.539611816	1.225280762	-0.023269655	-0.013685227	0.016212464	-0.920654297	0.471923828	0.047851563	891.58	52.32813247	-78.57432376	-158.8970522	-52
52478	0	0.38342762	0.060435295	0.048856735	0.999999046	-0.000383377	-0.000137329	9.92E-05	9.585690498	1.510882378	1.221418381	-0.019168854	-0.006866455	0.004959107	-0.920410156	0.467529297	0.045166016	891.5	52.32792187	-78.58233427	-158.9400498	-52
52479	0	0.385620117	0.060913086	0.05065918	0.999999046	-0.000442505	-0.00020504	3.81E-05	9.64050293	1.522827148	1.266479492	-0.022125245	-0.010251999	0.001907349	-0.922851563	0.467529297	0.048339844	891.5	52.37189957	-78.58944023	-159.0401317	-52
52480	0	0.387108803	0.061390877	0.047135353	0.999999046	-0.000313759	-0.000179291	-3.53E-05	9.67772007	1.534771919	1.178383827	-0.015687943	-0.008964539	-0.001764298	-0.920410156	0.469726563	0.047851563	891.44	52.44466143	-78.58805997	-159.1507863	-51
52481	0	0.388000488	0.060791016	0.047851563	0.999999046	-0.000289917	-0.000323296	6.10E-05	9.700012207	1.519775391	1.196289063	-0.01449585	-0.01616478	0.003051758	-0.920410156	0.467529297	0.048095703	891.52	52.55166751	-78.60545963	-159.2935437	-51
52482	0	0.386207581	0.060898781	0.048185349	0.999999046	-2.10E-05	4.20E-05	-0.000125885	9.655189514	1.522469521	1.204633713	-0.001049042	0.002098084	-0.006294251	-0.920410156	0.469726563	0.047851563	891.56	52.5891042	-78.58034822	-159.3323375	-51
52483	0	0.383605957	0.061462402	0.047607422	0.999999046	-9.16E-05	0.000172615	-1.91E-05	9.590148926	1.536560059	1.190185547	-0.004577637	0.008630753	-0.000953674	-0.920654297	0.469726563	0.053710938	891.44	52.52277168	-78.55580483	-159.2853638	-51
52484	0	0.385417938	0.060795784	0.048727036	0.999999046	-0.000309944	8.96E-05	9.44E-05	9.635448456	1.5198946	1.218175888	-0.015497208	0.004482269	0.004720688	-0.920654297	0.469726563	0.05078125	891.56	52.42943851	-78.54732448	-159.2303653	-51
52485	0	0.384765625	0.061645508	0.047607422	0.999999046	1.14E-05	0.000153542	0.000102997	9.619140625	1.541137695	1.190185547	0.000572205	0.007677078	0.005149841	-0.920410156	0.467529297	0.045166016	891.62	52.34153291	-78.5351073	-159.1341312	-52
52486	0	0.385678291	0.060223579	0.048211098	0.999999046	0	0.000104904	1.43E-05	9.641957283	1.505589485	1.205277443	0	0.005245209	0.000715256	-0.920410156	0.467529297	0.048095703	891.56	52.30457476	-78.51825467	-159.0974049	-52
52487	0	0.385803223	0.05859375	0.047180176	0.999999046	0.000152588	0.000496864	-0.000144958	9.645080566	1.46484375	1.179504395	0.007629395	0.024843217	-0.007247925	-0.920410156	0.467529297	0.045166016	891.48	52.16559032	-78.45958078	-158.9349431	-52
52488	0	0.387081146	0.059818268	0.047972679	0.999999046	0.000315666	0.000328064	-4.58E-05	9.677028656	1.495456696	1.199316978	0.01578331	0.016403199	-0.002288818	-0.922851563	0.467529297	0.045410156	891.56	52.08683615	-78.42177506	-158.8175133	-52
52489	0	0.388000488	0.062255859	0.047424316	0.999999046	0.000701904	0.000184059	0.000141144	9.700012207	1.556396484	1.18560791	0.035095218	0.009202958	0.007057191	-0.922607422	0.465332031	0.045654297	891.5	52.05234788	-78.41100701	-158.703715	-51
52490	0	0.387511253	0.060137749	0.048091888	0.999999046	0.000709534	0.000436783	0.000121117	9.687781334	1.503443718	1.202297211	0.035476689	0.021839144	0.006055833	-0.920166016	0.465332031	0.045410156	891.56	51.91464659	-78.38064282	-158.4857157	-51
52491	0	0.386962891	0.061462402	0.048217773	0.999999046	0.000686646	0.000542641	0	9.674072266	1.536560059	1.205444336	0.03433228	0.027132038	0	-0.920166016	0.465332031	0.045410156	891.5	51.7708527	-78.33179131	-158.2672369	-51
52492	0	0.388009071	0.061039925	0.048309326	0.999999046	0.000544548	0.000389099	0.000259399	9.700226784	1.525998116	1.207733154	0.027227404	0.019454958	0.012969972	-0.920410156	0.467529297	0.045166016	891.52	51.5897224	-78.31711291	-158.0282259	-53
52493	0	0.388793945	0.061523438	0.047607422	0.999999046	0.000484467	0.000393867	0.000400543	9.719848633	1.538085938	1.190185547	0.02422333	0.019693376	0.020027162	-0.920166016	0.467529297	0.039550781	891.58	51.35168872	-78.314651	-157.7297272	-53
52494	0	0.385811806	0.060285568	0.050109863	0.999999046	0.000524521	0.000333786	0.000362396	9.645295143	1.507139206	1.252746582	0.026226046	0.016689302	0.018119814	-0.922607422	0.467529297	0.039550781	891.52	51.15724811	-78.31288491	-157.4740186	-54
52495	0	0.385986328	0.062316895	0.049987793	0.999999046	0.000213623	0.000287056	0.000133514	9.649658203	1.557922363	1.249694824	0.010681153	0.014352799	0.00667572	-0.922607422	0.469726563	0.039306641	891.56	51.02726869	-78.29387556	-157.3204547	-54
52496	0	0.385728836	0.061929703	0.050852776	0.999999046	6.77E-05	0.000144958	0.000231743	9.643220901	1.548242569	1.271319389	0.003385544	0.007247925	0.011587143	-0.920410156	0.469726563	0.039306641	891.46	50.90768285	-78.2937402	-157.1950069	-54
52497	0	0.385986328	0.060119629	0.051513672	0.999999046	0.000263214	0.0001688	0.000278473	9.649658203	1.502990723	1.287841797	0.013160706	0.008440018	0.013923645	-0.920166016	0.469726563	0.036376953	891.46	50.78352499	-78.29597515	-157.0376087	-54
52498	0	0.386551857	0.060235977	0.050878525	0.999999046	0.000240326	0.000200272	0.000159264	9.663796425	1.505899429	1.27196312	0.012016297	0.010013581	0.007963181	-0.920166016	0.467529297	0.039550781	891.5	50.68480095	-78.2853073	-156.9174266	-53
52499	0	0.385925293	0.061279297	0.049865723	0.999999046	0.000232697	0.000130653	0	9.648132324	1.531982422	1.246643066	0.011634827	0.006532669	0	-0.920166016	0.467529297	0.033691406	891.56	50.67105619	-78.26555885	-156.8742765	-51
52500	0	0.385789871	0.061607361	0.051156998	0.999999046	0.000250816	0.000110626	8.77E-05	9.64474678	1.540184021	1.278924942	0.012540817	0.005531311	0.004386902	-0.922607422	0.469726563	0.036621094	891.52	50.63732683	-78.25499503	-156.8146654	-52
52501	0	0.386962891	0.062133789	0.050109863	0.999999046	-1.53E-05	0.000145912	2.67E-05	9.674072266	1.553344727	1.252746582	-0.000762939	0.007295609	0.001335144	-0.920166016	0.469726563	0.036376953	891.56	50.57981855	-78.23643849	-156.7614348	-51
52502	0	0.386584282	0.061073303	0.051260948	0.999999046	-0.00018692	0.000205994	-5.05E-05	9.664607048	1.526832581	1.281523705	-0.009346008	0.010299683	-0.002527237	-0.922607422	0.467529297	0.033691406	891.46	50.5042471	-78.20665569	-156.7064061	-51
52503	0	0.386352539	0.060668945	0.05090332	0.999999046	-0.000453949	0.000267982	-7.63E-06	9.658813477	1.516723633	1.272583008	-0.02269745	0.013399125	-0.00038147	-0.920166016	0.467529297	0.036621094	891.46	50.35725879	-78.17614879	-156.615039	-51
52504	0	0.386140823	0.061300278	0.050432205	0.999999046	-0.00026989	2.29E-05	-8.11E-05	9.653520584	1.532506943	1.26080513	-0.013494492	0.001144409	-0.004053116	-0.922607422	0.469726563	0.027832031	891.46	50.36077571	-78.15708772	-156.6375945	-51
52505	0	0.387145996	0.062255859	0.051879883	0.999999046	-0.000221252	0.000222206	-1.14E-05	9.678649902	1.556396484	1.29699707	-0.011062622	0.011110306	-0.000572205	-0.920166016	0.465087891	0.033935547	891.48	50.26193736	-78.12954789	-156.5641803	-51
52506	0	0.387671471	0.060959816	0.050186157	0.999999046	-0.000488281	0.00037384	-0.000126839	9.691786766	1.523995399	1.254653931	-0.024414064	0.018692018	-0.006341935	-0.922607422	0.467529297	0.036621094	891.5	50.11005868	-78.08077534	-156.4725548	-51
52507	0	0.390563965	0.062133789	0.049621582	0.999999046	-0.000476837	0.000317574	-1.53E-05	9.764099121	1.553344727	1.240539551	-0.023841859	0.015878678	-0.000762939	-0.917724609	0.467285156	0.030761719	891.46	49.94552683	-78.04599291	-156.3545804	-51
52508	0	0.386805534	0.065696716	0.052492142	0.999999046	-0.000626564	0.000520706	0.000297546	9.670138359	1.642417908	1.312303543	-0.031328205	0.026035312	0.014877321	-0.922607422	0.467529297	0.033691406	891.52	49.57238036	-78.02327261	-156.0484765	-51
52509	0	0.379333496	0.061767578	0.055297852	0.999999046	-0.000995636	0.000309944	5.72E-05	9.483337402	1.544189453	1.382446289	-0.049781808	0.01549721	0.002861023	-0.920166016	0.467529297	0.033691406	891.44	49.32846271	-77.99482428	-155.9165446	-51
52510	0	0.381626129	0.063140869	0.054499626	0.999999046	-0.001346588	-0.000118256	-0.000199318	9.540653229	1.578521729	1.362490654	-0.067329428	-0.005912783	-0.0099659	-0.922363281	0.465332031	0.033935547	891.56	49.30983054	-77.97585559	-156.0549073	-51
52511	0	0.386108398	0.062561035	0.051147461	0.999999046	-0.001194	-0.000411034	-0.000110626	9.652709961	1.564025879	1.278686523	-0.059700028	-0.020551687	-0.005531313	-0.922363281	0.465332031	0.036865234	891.56	49.39764211	-77.986473	-156.2861092	-51
52512	0	0.386930466	0.06124115	0.051463127	0.999999046	-0.001132011	-0.000598907	-0.000149727	9.673261642	1.531028748	1.286578178	-0.056600586	-0.029945382	-0.007486345	-0.922363281	0.465332031	0.036865234	891.52	49.58393747	-78.00763494	-156.6062948	-51
52513	0	0.386047363	0.061645508	0.0546875	0.999999046	-0.000610352	-0.000849724	-0.000137329	9.651184082	1.541137695	1.3671875	-0.030517584	-0.042486199	-0.006866456	-0.922607422	0.465332031	0.039794922	891.5	49.93011003	-78.04807793	-157.030259	-51
52514	0	0.3864851	0.062114716	0.052152634	0.999999046	-0.000406265	-0.00087738	-0.000237465	9.662127495	1.552867889	1.303815842	-0.020313266	-0.043869026	-0.011873247	-0.925048828	0.467529297	0.039794922	891.46	50.34865889	-78.08115016	-157.4994173	-52
52515	0	0.387084961	0.063537598	0.050537109	0.999999046	-0.000469208	-0.000887871	-2.29E-05	9.677124023	1.588439941	1.263427734	-0.023460392	-0.044393547	-0.001144409	-0.922607422	0.465332031	0.042724609	891.58	50.69340257	-78.13329633	-157.9028922	-51
52516	0	0.385949135	0.063630104	0.049178123	0.999999046	-0.000128746	-0.000921249	8.30E-05	9.648728371	1.590752602	1.229453087	-0.006437303	-0.046062476	0.004148484	-0.922363281	0.4609375	0.045898438	891.62	51.0589586	-78.19674021	-158.2927113	-51
52517	0	0.38671875	0.063049316	0.048278809	0.999999046	-0.000240326	-0.000758171	8.39E-05	9.66796875	1.57623291	1.206970215	-0.012016298	-0.037908558	0.004196167	-0.922607422	0.463134766	0.051513672	891.52	51.34575021	-78.24813608	-158.6217216	-51
52518	0	0.386926651	0.062227249	0.04985714	0.999999046	-0.000150681	-0.000778198	3.34E-05	9.673166275	1.555681229	1.24642849	-0.007534028	-0.038909916	0.00166893	-0.922607422	0.463134766	0.051513672	891.52	51.6715353	-78.29607365	-158.9768207	-51
52519	0	0.384643555	0.062683105	0.049499512	0.999999046	-4.96E-05	-0.000620842	3.81E-06	9.616088867	1.567077637	1.237487793	-0.002479553	-0.031042101	0.000190735	-0.925048828	0.465576172	0.048583984	891.58	51.95300571	-78.32977357	-159.2658125	-51
52520	0	0.38684082	0.060904503	0.049206734	0.999999046	7.34E-05	-0.000463486	5.63E-05	9.671020508	1.522612572	1.230168343	0.003671646	-0.023174287	0.002813339	-0.922851563	0.465576172	0.057128906	891.44	52.16291698	-78.35691202	-159.4821547	-51
52521	0	0.387268066	0.063903809	0.048095703	0.999999046	0.000293732	-0.000487328	7.63E-05	9.68170166	1.597595215	1.202392578	0.014686585	-0.02436638	0.003814697	-0.920166016	0.463134766	0.051269531	891.44	52.40311206	-78.38732644	-159.6917791	-51
52522	0	0.386469841	0.061737061	0.04841423	0.999999046	0.000259399	-0.000602722	0.00018692	9.661746025	1.543426514	1.210355759	0.012969972	-0.030136111	0.009346009	-0.922851563	0.463134766	0.057373047	891.52	52.65414238	-78.43567283	-159.9272722	-51
52523	0	0.386779785	0.063049316	0.046630859	0.999999046	0.000350952	-0.000426292	-8.77E-05	9.669494629	1.57623291	1.165771484	0.017547608	-0.021314622	-0.004386902	-0.922851563	0.465332031	0.054199219	891.56	52.93197575	-78.44651457	-160.1709042	-51
52524	0	0.387052536	0.06406498	0.046926498	0.999999046	0.000107765	-0.000324249	6.87E-05	9.6763134	1.601624489	1.17316246	0.00538826	-0.016212464	0.003433228	-0.922851563	0.463134766	0.057373047	891.52	53.08423109	-78.46439976	-160.3211743	-51
52525	0	0.387817383	0.064086914	0.045959473	0.999999046	0.000232697	-0.000487328	4.20E-05	9.69543457	1.602172852	1.148986816	0.011634827	-0.02436638	0.002098084	-0.920410156	0.463134766	0.060058594	891.62	53.33423453	-78.49090376	-160.5599798	-52
52526	0	0.385487556	0.063526154	0.046102524	0.999999046	-8.77E-05	-0.00044632	0.000114441	9.637188911	1.588153839	1.152563095	-0.004386902	-0.02231598	0.005722046	-0.920410156	0.465332031	0.056884766	891.56	53.50589759	-78.52107341	-160.747116	-51
52527	0	0.385314941	0.063659668	0.045288086	0.999999046	-0.000209808	-0.000414848	2.29E-05	9.632873535	1.591491699	1.132202148	-0.010490418	-0.020742417	0.001144409	-0.922607422	0.4609375	0.057373047	891.58	53.68116795	-78.54051804	-160.953857	-52
52528	0	0.386819839	0.06368351	0.045419693	0.999999046	-0.000102043	-0.000520706	3.72E-05	9.670495987	1.592087746	1.135492325	-0.005102158	-0.02603531	0.001859665	-0.920410156	0.463134766	0.060058594	891.58	53.91337934	-78.56828115	-161.2077193	-51
52529	0	0.387084961	0.06237793	0.045166016	0.999999046	-0.000209808	-0.000529289	8.77E-05	9.677124023	1.559448242	1.129150391	-0.010490418	-0.026464464	0.004386902	-0.922607422	0.461181641	0.060302734	891.62	54.12155444	-78.60114744	-161.4491497	-51
52530	0	0.387385368	0.06210804	0.043437958	0.999999046	-2.48E-05	-0.000576019	-5.44E-05	9.684634209	1.552700996	1.085948944	-0.001239777	-0.028800966	-0.002717972	-0.922851563	0.463134766	0.057373047	891.52	54.42130398	-78.62379465	-161.7533848	-51
52531	0	0.386047363	0.062561035	0.043334961	0.999999046	-6.87E-05	-0.000479698	-1.14E-05	9.651184082	1.564025879	1.083374023	-0.003433228	-0.02398491	-0.000572205	-0.920410156	0.4609375	0.065917969	891.62	54.65847815	-78.64379835	-162.0145145	-52
52532	0	0.387003899	0.060976028	0.044496536	0.999999046	9.63E-05	-0.000524521	5.25E-05	9.675097466	1.524400711	1.112413406	0.004816056	-0.026226045	0.002622604	-0.922851563	0.463378906	0.062988281	891.62	54.91508464	-78.67260763	-162.2676499	-52
52533	0	0.38885498	0.062988281	0.04284668	0.999999046	0.000144958	-0.000315666	-1.91E-05	9.721374512	1.574707031	1.071166992	0.007247925	-0.01578331	-0.000953674	-0.922851563	0.463378906	0.068847656	891.58	55.10404378	-78.68083133	-162.456505	-52
52534	0	0.387230873	0.063563347	0.041361809	0.999999046	8.01E-05	-7.63E-06	4.10E-05	9.680771828	1.589083672	1.034045219	0.004005432	-0.00038147	0.0020504	-0.922851563	0.463378906	0.062988281	891.56	55.12195684	-78.67449646	-162.4669749	-52
52535	0	0.388061523	0.062255859	0.041687012	0.999999046	-1.53E-05	8.58E-06	0.000110626	9.701538086	1.556396484	1.042175293	-0.000762939	0.000429153	0.005531311	-0.922851563	0.463378906	0.065917969	891.56	55.0988415	-78.67374172	-162.4524853	-52
52536	0	0.386854172	0.064975739	0.041511536	0.999999046	-1.43E-05	0.000135422	0.000167847	9.671354294	1.624393463	1.037788391	-0.000715256	0.006771088	0.008392334	-0.922851563	0.463378906	0.062988281	891.56	54.99835726	-78.67000945	-162.3537263	-52
52537	0	0.386779785	0.061828613	0.041564941	0.999999046	-4.58E-05	0.000126839	0.000259399	9.669494629	1.545715332	1.039123535	-0.002288818	0.006341934	0.012969971	-0.922607422	0.461181641	0.060302734	891.48	54.86849386	-78.67549735	-162.2251612	-52
52538	0	0.386861801	0.062111855	0.043498993	0.999999046	7.25E-05	0.000204086	0.000102997	9.671545029	1.552796364	1.087474823	0.003623962	0.010204315	0.005149841	-0.922851563	0.461181641	0.066162109	891.48	54.7675441	-78.66122278	-162.1246406	-52
52539	0	0.385559082	0.062194824	0.042358398	0.999999046	1.14E-05	0.000264168	8.77E-05	9.638977051	1.554870605	1.058959961	0.000572205	0.013208389	0.004386902	-0.920410156	0.463134766	0.062988281	891.48	54.63717272	-78.64155647	-161.994499	-52
52540	0	0.388598442	0.062310219	0.042988777	0.999999046	0.000132561	0.000238419	0.000225067	9.714961052	1.55775547	1.074719429	0.006628037	0.011920929	0.011253357	-0.922851563	0.461181641	0.063232422	891.56	54.48776879	-78.63642876	-161.8338398	-51
52541	0	0.386657715	0.065124512	0.043029785	0.999999046	0.000213623	0.000226021	0.000244141	9.666442871	1.628112793	1.075744629	0.010681153	0.011301041	0.012207032	-0.920410156	0.463134766	0.060058594	891.56	54.34780652	-78.63375822	-161.66706	-51
52542	0	0.385569572	0.063245773	0.044762611	0.999999046	-0.000102997	0.000293732	0.000254631	9.639239311	1.581144333	1.119065285	-0.005149841	0.014686585	0.012731552	-0.922851563	0.461181641	0.063232422	891.58	54.13686432	-78.62738172	-161.4734975	-52
52543	0	0.385925293	0.063171387	0.044311523	0.999999046	-0.000221252	0.000180244	0.0001297	9.648132324	1.579284668	1.107788086	-0.011062622	0.009012222	0.006484985	-0.920410156	0.463134766	0.060058594	891.56	54.00685061	-78.6169013	-161.3688879	-51
52544	0	0.386779785	0.063660622	0.044843674	0.999999046	-0.000271797	2.86E-05	0.000193596	9.669494629	1.591515541	1.121091843	-0.013589859	0.001430512	0.009679794	-0.920410156	0.465332031	0.056884766	891.62	53.91974024	-78.62247813	-161.3063445	-52
52545	0	0.387207031	0.06060791	0.04296875	0.999999046	-0.00019455	0.000161171	0.000118256	9.680175781	1.515197754	1.07421875	-0.009727478	0.008058548	0.005912781	-0.920410156	0.463134766	0.062988281	891.52	53.80591827	-78.61224015	-161.2209424	-51
52546	0	0.38659668	0.062085152	0.044764519	0.999999046	-1.72E-05	0.000120163	0.000179291	9.664916992	1.552128792	1.119112968	-0.000858307	0.006008148	0.008964539	-0.922851563	0.465576172	0.057128906	891.56	53.71085605	-78.61040511	-161.1220128	-51
52547	0	0.387390137	0.06262207	0.044433594	0.999999046	0.000152588	0.000172615	0.000106812	9.684753418	1.565551758	1.110839844	0.007629395	0.008630753	0.005340576	-0.920410156	0.463134766	0.060058594	891.58	53.63588783	-78.59830427	-161.0314065	-52
52548	0	0.386654854	0.061453819	0.044974327	0.999999046	0.000306129	0.000326157	0.00012207	9.666371346	1.536345482	1.124358177	0.015306473	0.016307831	0.006103516	-0.920410156	0.463134766	0.060058594	891.48	53.50339743	-78.57716992	-160.8659078	-51
52549	0	0.386657715	0.062316895	0.045898438	0.999999046	0.000110626	0.000321388	0.000247955	9.666442871	1.557922363	1.147460938	0.005531311	0.016069413	0.012397766	-0.922851563	0.465576172	0.057128906	891.44	53.30855863	-78.56783316	-160.6545018	-52
52550	0	0.385987282	0.063355446	0.04643631	0.999999046	0.00019455	0.000417709	0.000240326	9.649682045	1.583886147	1.160907745	0.009727478	0.020885468	0.012016297	-0.922851563	0.465576172	0.057128906	891.48	53.08269068	-78.5509562	-160.4036844	-51
52551	0	0.386474609	0.062194824	0.046691895	0.999999046	0.000240326	0.000245094	0.000156403	9.661865234	1.554870605	1.167297363	0.012016297	0.012254715	0.00782013	-0.920410156	0.465332031	0.054199219	891.52	52.96904007	-78.53812186	-160.2574794	-52
52552	0	0.38677597	0.061729431	0.045934677	0.999999046	0.000332832	0.000368118	0.000174522	9.669399261	1.543235779	1.148366928	0.016641618	0.018405915	0.00872612	-0.922851563	0.467773438	0.053955078	891.48	52.80477223	-78.5183944	-160.0495458	-52
52553	0	0.387634277	0.062561035	0.044677734	0.999999046	0.000331879	0.000329018	0.000282288	9.690856934	1.564025879	1.116943359	0.016593934	0.016450883	0.014114381	-0.920410156	0.465332031	0.054199219	891.52	52.6220932	-78.51112923	-159.8263781	-51
52554	0	0.387760162	0.060602188	0.046051025	0.999999046	0.000419617	0.000219345	0.000171661	9.694004059	1.515054703	1.151275635	0.020980836	0.010967255	0.008583069	-0.920410156	0.465332031	0.056884766	891.56	52.5365935	-78.50141381	-159.6989885	-52
52555	0	0.388183594	0.061645508	0.046508789	0.999999046	0.000564575	0.000519753	0.0001297	9.704589844	1.541137695	1.162719727	0.028228763	0.025987628	0.006484986	-0.922851563	0.465332031	0.054199219	891.56	52.3485254	-78.46687426	-159.4479424	-52
52556	0	0.388027191	0.061537743	0.048184395	0.999999046	0.000567436	0.000461578	0.000247955	9.700679779	1.538443565	1.204609871	0.028371814	0.023078921	0.012397767	-0.922607422	0.465332031	0.048339844	891.52	52.14686576	-78.446955	-159.1740479	-52
52557	0	0.385131836	0.061767578	0.047241211	0.999999046	0.000457764	0.000454903	0.00018692	9.628295898	1.544189453	1.181030273	0.022888185	0.022745134	0.009346009	-0.922607422	0.465332031	0.048339844	891.48	51.95748362	-78.42180184	-158.9281619	-51
52558	0	0.386756897	0.059775352	0.049184799	0.999999046	0.000423431	0.000555038	0.000124931	9.668922424	1.494383812	1.22961998	0.021171572	0.027751925	0.006246567	-0.922851563	0.467529297	0.045410156	891.58	51.74206829	-78.38383997	-158.6557715	-52
52559	0	0.387268066	0.063049316	0.049072266	0.999999046	0.000686646	0.000489235	0.000228882	9.68170166	1.57623291	1.226806641	0.03433228	0.024461749	0.011444093	-0.922607422	0.465332031	0.045654297	891.48	51.55101749	-78.35963986	-158.3822924	-52
52560	0	0.384990692	0.064283371	0.049664497	0.999999046	0.000254631	0.00025177	0.000365257	9.624767303	1.607084274	1.241612434	0.012731553	0.012588502	0.018262864	-0.922851563	0.467529297	0.045410156	891.46	51.36729849	-78.36428989	-158.1669622	-51
52561	0	0.387451172	0.061706543	0.048400879	0.999999046	0.000164032	0.000309944	0.000289917	9.686279297	1.542663574	1.210021973	0.008201599	0.015497208	0.01449585	-0.922607422	0.465332031	0.042724609	891.52	51.17418287	-78.35791029	-157.950149	-51
52562	0	0.385930061	0.061803818	0.048923492	0.999999046	-2.29E-05	0.000396729	0.000163078	9.648251534	1.545095444	1.223087311	-0.001144409	0.019836426	0.008153916	-0.922607422	0.467529297	0.039550781	891.56	50.96685904	-78.33380862	-157.7349149	-51
52563	0	0.386352539	0.06262207	0.049682617	0.999999046	-0.000106812	0.000382423	0.000286102	9.658813477	1.565551758	1.24206543	-0.005340576	0.019121171	0.014305115	-0.922851563	0.469726563	0.042236328	891.56	50.71387719	-78.32144801	-157.488572	-51
52564	0	0.385861397	0.060986519	0.049257278	0.999999046	-2.00E-05	0.000185013	0.000267029	9.64653492	1.524662971	1.231431961	-0.001001358	0.009250641	0.013351441	-0.920410156	0.467529297	0.042236328	891.48	50.56251574	-78.32159039	-157.3374305	-52
52565	0	0.383850098	0.061157227	0.051025391	0.999999046	-0.000106812	0.000222206	0.000209808	9.596252441	1.528930664	1.275634766	-0.005340576	0.011110306	0.010490418	-0.922607422	0.467529297	0.042480469	891.48	50.4052838	-78.31381654	-157.1920767	-51
52566	0	0.383913994	0.062327385	0.051635742	0.999999046	-0.000108719	-4.01E-05	0.000315666	9.597849846	1.558184624	1.290893555	-0.005435944	-0.002002716	0.01578331	-0.920410156	0.467529297	0.042236328	891.52	50.32226402	-78.33437003	-157.1217867	-52
52567	0	0.386779785	0.062011719	0.049621582	0.999999046	-0.000324249	-0.000109673	0.000274658	9.669494629	1.550292969	1.240539551	-0.016212464	-0.005483627	0.013732911	-0.920410156	0.469726563	0.042236328	891.5	50.25885567	-78.35636523	-157.0948379	-51
52568	0	0.385481834	0.063354492	0.049515724	0.999999046	-0.000105858	2.67E-05	8.39E-05	9.63704586	1.583862305	1.237893105	-0.005292892	0.001335144	0.004196167	-0.920410156	0.469726563	0.042236328	891.56	50.23040392	-78.35146904	-157.0779639	-51
52569	0	0.384887695	0.06060791	0.051147461	0.999999046	-0.00037384	8.58E-06	0.000144958	9.622192383	1.515197754	1.278686523	-0.018692017	0.000429153	0.007247925	-0.920410156	0.469726563	0.045166016	891.44	50.15703039	-78.35323326	-157.051734	-51
52570	0	0.386185646	0.059602737	0.051380157	0.999999046	-0.00034523	-0.000225067	4.86E-05	9.654641151	1.490068436	1.284503937	-0.017261506	-0.011253357	0.00243187	-0.920410156	0.469726563	0.045166016	891.48	50.2206212	-78.36366611	-157.160479	-51
52571	0	0.386352539	0.060058594	0.049316406	0.999999046	5.34E-05	-0.000182152	8.77E-05	9.658813477	1.501464844	1.232910156	0.002670288	-0.00910759	0.004386902	-0.920410156	0.469726563	0.045166016	891.52	50.29779854	-78.37442554	-157.2358918	-52
52572	0	0.385953903	0.059568405	0.051304817	0.999999046	9.82E-05	-0.000169754	7.92E-05	9.64884758	1.489210129	1.28262043	0.004911423	-0.008487701	0.003957748	-0.91796875	0.467529297	0.045166016	891.52	50.37751958	-78.38349903	-157.3089635	-51
52573	0	0.385253906	0.060058594	0.049865723	0.999999046	0.000293732	-7.53E-05	4.58E-05	9.631347656	1.501464844	1.246643066	0.014686585	-0.003767014	0.002288818	-0.920410156	0.469726563	0.039306641	891.56	50.45090352	-78.38272636	-157.3408289	-51
52574	0	0.386364937	0.059503555	0.051602364	0.999999046	0.000299454	-0.000144958	9.92E-05	9.659123421	1.487588882	1.29005909	0.014972687	-0.007247925	0.004959107	-0.91796875	0.469726563	0.041992188	891.46	50.53538607	-78.39173207	-157.3884768	-51
52575	0	0.387512207	0.06036377	0.050109863	0.999999046	0.000492096	-0.000170708	0.000114441	9.687805176	1.509094238	1.252746582	0.024604799	-0.008535386	0.005722046	-0.920410156	0.471923828	0.0390625	891.48	50.64760462	-78.4039597	-157.4359883	-52
52576	0	0.385955811	0.059652328	0.04997921	0.999999046	0.000599861	-0.00018692	0.000189781	9.648895264	1.491308212	1.249480247	0.029993059	-0.009346009	0.00948906	-0.91796875	0.467529297	0.045166016	891.46	50.75242269	-78.42405	-157.4778867	-52
52577	0	0.385986328	0.059753418	0.050964355	0.999999046	0.000652313	-0.000411034	0.00018692	9.649658203	1.493835449	1.274108887	0.032615665	-0.020551684	0.009346009	-0.920410156	0.469726563	0.045166016	891.48	50.96152861	-78.46006137	-157.6192274	-52
52578	0	0.388978958	0.060283661	0.049954414	0.999999046	0.00060463	-0.000579834	0.000244141	9.724473953	1.507091522	1.248860359	0.03023148	-0.028991703	0.012207033	-0.91796875	0.467529297	0.042236328	891.46	51.21983654	-78.51322486	-157.8105763	-51
52579	0	0.388305664	0.061523438	0.047607422	0.999999046	0.000553131	-0.000365257	0	9.707641602	1.538085938	1.190185547	0.027656557	-0.018262864	0	-0.920410156	0.469726563	0.042236328	891.48	51.46579677	-78.52902409	-157.994341	-51
52580	0	0.387608528	0.059073448	0.048111916	0.999999046	0.000382423	-0.000335693	0.00019455	9.690213203	1.476836205	1.20279789	0.019121171	-0.016784669	0.009727479	-0.920410156	0.469726563	0.045166016	891.56	51.61105674	-78.56012545	-158.1007769	-51
52581	0	0.385498047	0.059997559	0.050170898	0.999999046	0.000473022	-0.000288963	3.81E-06	9.637451172	1.499938965	1.254272461	0.023651124	-0.014448167	0.000190735	-0.920410156	0.469726563	0.042236328	891.56	51.81294802	-78.5706365	-158.2484812	-52
52582	0	0.38650322	0.060650826	0.048851013	0.999999046	0.000144958	-0.00050354	0.000171661	9.66258049	1.516270638	1.22127533	0.007247925	-0.025177003	0.008583069	-0.920410156	0.469726563	0.042236328	891.56	52.01461597	-78.61131686	-158.4330071	-52
52583	0	0.387512207	0.061828613	0.047302246	0.999999046	0.0001297	-0.000517845	-7.25E-05	9.687805176	1.545715332	1.182556152	0.006484986	-0.025892259	-0.003623963	-0.918212891	0.469726563	0.047851563	891.56	52.30779372	-78.63071298	-158.7216154	-52
52584	0	0.38608551	0.060370445	0.045359612	0.999999046	3.91E-05	-0.00047493	-1.53E-05	9.652137756	1.509261131	1.133990288	0.001955032	-0.023746491	-0.000762939	-0.920410156	0.469726563	0.047851563	891.58	52.55248318	-78.65210671	-158.9699202	-52
52585	0	0.386901855	0.060974121	0.046081543	0.999999046	4.96E-05	-0.000449181	-6.10E-05	9.672546387	1.524353027	1.152038574	0.002479553	-0.022459031	-0.003051758	-0.920654297	0.469726563	0.05078125	891.56	52.80348308	-78.6673464	-159.2274961	-52
52586	0	0.387911797	0.062429428	0.046214104	0.999999046	7.82E-05	-0.000423431	-8.11E-05	9.697794914	1.560735703	1.155352592	0.003910065	-0.021171571	-0.004053116	-0.920410156	0.467529297	0.048095703	891.48	53.05374137	-78.67871874	-159.4751611	-53
52587	0	0.387817383	0.061035156	0.045532227	0.999999046	-0.000160217	-0.00014019	-0.000114441	9.69543457	1.525878906	1.138305664	-0.008010864	-0.007009506	-0.005722046	-0.920410156	0.469726563	0.045166016	891.52	53.15875908	-78.66742757	-159.5947678	-51
52588	0	0.386289597	0.062146187	0.044649124	0.999999046	-0.000197411	-0.000352859	2.86E-06	9.657239914	1.553654671	1.116228104	-0.009870529	-0.017642975	0.000143051	-0.920410156	0.467529297	0.048095703	891.56	53.31706297	-78.68143408	-159.7783539	-52
52589	0	0.386962891	0.062805176	0.044250488	0.999999046	-0.000278473	-0.000308037	6.10E-05	9.674072266	1.570129395	1.106262207	-0.013923645	-0.015401841	0.003051758	-0.920410156	0.467529297	0.053955078	891.52	53.42647051	-78.69762869	-159.9313801	-52
52590	0	0.386692047	0.062793732	0.043802261	0.999999046	-0.000497818	-0.000141144	-6.10E-05	9.667301178	1.569843292	1.095056534	-0.024890901	-0.00705719	-0.003051758	-0.920410156	0.467529297	0.051025391	891.5	53.47625128	-78.69115103	-160.0417847	-52
52591	0	0.38659668	0.062255859	0.043701172	0.999999046	-0.000720978	-0.000544548	5.72E-05	9.664916992	1.556396484	1.092529297	-0.036048894	-0.027227405	0.002861023	-0.920654297	0.469726563	0.053710938	891.52	53.64687717	-78.72300949	-160.3023237	-52
52592	0	0.385247231	0.065260887	0.043741226	0.999999046	-0.00083065	-0.000429153	0.000137329	9.631180763	1.631522179	1.093530655	-0.041532523	-0.021457675	0.006866456	-0.920410156	0.467529297	0.051025391	891.46	53.72601694	-78.75419454	-160.4751773	-52
52593	0	0.386047363	0.061889648	0.042175293	0.999999046	-0.001155853	-0.000372887	3.05E-05	9.651184082	1.547241211	1.054382324	-0.057792678	-0.018644337	0.001525879	-0.920410156	0.465332031	0.054199219	891.48	53.77929598	-78.77170882	-160.6635442	-52
52594	0	0.390782356	0.062376976	0.042758942	0.999998093	-0.001297951	-0.000517845	-6.20E-05	9.769558907	1.5594244	1.068973541	-0.064897558	-0.025892266	-0.003099443	-0.920654297	0.467529297	0.056884766	891.52	53.91640159	-78.79045603	-160.9536849	-52
52595	0	0.387817383	0.061706543	0.041503906	0.999999046	-0.000797272	-0.000338554	-1.91E-05	9.69543457	1.542663574	1.037597656	-0.039863591	-0.016927721	-0.000953674	-0.922851563	0.463378906	0.060058594	891.48	54.01358302	-78.80105814	-161.1505347	-52
52596	0	0.385705948	0.062875748	0.040975571	0.999999046	-0.000418663	-0.000509262	0.000144005	9.642648697	1.571893692	1.024389267	-0.020933153	-0.025463106	0.007200242	-0.920410156	0.465332031	0.056884766	891.48	54.18025127	-78.83820514	-161.3638005	-52
52597	0	0.38671875	0.061340332	0.042114258	0.999999046	-0.000228882	-0.000445366	9.54E-05	9.66796875	1.533508301	1.052856445	-0.011444092	-0.022268296	0.004768372	-0.920410156	0.465332031	0.059814453	891.56	54.35651357	-78.86647266	-161.5684937	-52
52598	0	0.386585236	0.062101364	0.042651176	0.999999046	-6.29E-05	-0.000347137	2.86E-06	9.66463089	1.552534103	1.066279411	-0.003147125	-0.017356873	0.000143051	-0.920654297	0.467773438	0.0625	891.48	54.53761123	-78.87943557	-161.7612962	-52
52599	0	0.387329102	0.059875488	0.042480469	0.999999046	-0.000179291	-0.000468254	0.000133514	9.683227539	1.496887207	1.062011719	-0.008964539	-0.023412706	0.006675721	-0.922851563	0.463378906	0.065917969	891.44	54.71932963	-78.91261137	-161.975665	-52
52600	0	0.387018204	0.058901787	0.04238224	0.999999046	7.34E-05	-0.000104904	6.39E-05	9.675455093	1.47254467	1.059556007	0.003671646	-0.005245209	0.003194809	-0.920654297	0.465332031	0.062744141	891.56	54.78031516	-78.91527145	-162.0295803	-52
52601	0	0.387878418	0.05871582	0.042114258	0.999999046	0.000492096	-6.68E-06	0.000102997	9.696960449	1.467895508	1.052856445	0.024604798	-0.000333786	0.005149842	-0.920654297	0.467773438	0.065429688	891.48	54.82882136	-78.91523084	-162.026781	-52
52602	0	0.388989449	0.061237335	0.039606094	0.999999046	0.000751495	0.000289917	0.000212669	9.724736214	1.53093338	0.990152359	0.037574772	0.014495851	0.01063347	-0.923095703	0.465576172	0.068603516	891.52	54.72898555	-78.90596839	-161.852697	-52
52603	0	0.388916016	0.061340332	0.039916992	0.999999046	0.000804901	0.000306129	0.00043869	9.722900391	1.533508301	0.997924805	0.040245062	0.015306475	0.021934513	-0.920654297	0.467529297	0.059570313	891.48	54.55169256	-78.91676648	-161.5771863	-53
52604	0	0.387173653	0.061068535	0.042617798	0.999999046	0.00073719	0.000513077	0.000189781	9.679341316	1.526713371	1.065444946	0.036859518	0.025653843	0.009489061	-0.920654297	0.467529297	0.056884766	891.54	54.3527777	-78.89040829	-161.2856951	-52
52605	0	0.385864258	0.06060791	0.043212891	0.999999046	0.000450134	0.000515938	0.000171661	9.646606445	1.515197754	1.080322266	0.022506716	0.025796892	0.00858307	-0.920654297	0.467773438	0.0625	891.52	54.12682672	-78.86197649	-161.0138329	-53
52606	0	0.388221741	0.061244011	0.042336464	0.999999046	0.000465393	0.000318527	-3.05E-05	9.705543518	1.531100273	1.058411598	0.023269655	0.015926362	-0.001525879	-0.920410156	0.467529297	0.053955078	891.48	54.06580221	-78.82794801	-160.8933874	-52
52607	0	0.388305664	0.061523438	0.041015625	0.999999046	0.000469208	0.000359535	0.000118256	9.707641602	1.538085938	1.025390625	0.02346039	0.017976762	0.005912781	-0.920654297	0.467529297	0.059570313	891.44	53.93642189	-78.80499219	-160.7160721	-52
52608	0	0.389021873	0.06061554	0.041725159	0.999999046	0.000388145	0.000370026	0.000159264	9.725546837	1.515388489	1.043128967	0.019407273	0.018501283	0.007963181	-0.920410156	0.467529297	0.053955078	891.52	53.7797851	-78.78514046	-160.5113997	-52
52609	0	0.387878418	0.062744141	0.041809082	0.999999046	0.00030899	0.000699043	4.58E-05	9.696960449	1.568603516	1.045227051	0.015449525	0.034952167	0.002288819	-0.920654297	0.469970703	0.059570313	891.48	53.5017804	-78.73232721	-160.2049414	-52
52610	0	0.386663437	0.061452866	0.043409348	0.999999046	0.000112534	0.000717163	0.000144005	9.666585922	1.53632164	1.085233688	0.005626679	0.035858158	0.007200242	-0.922851563	0.465332031	0.054199219	891.44	53.16225442	-78.68699275	-159.8534868	-52
52611	0	0.386230469	0.063110352	0.044372559	0.999999046	-0.000144958	0.000790596	-4.20E-05	9.655761719	1.577758789	1.109313965	-0.007247926	0.039529805	-0.002098084	-0.920410156	0.465332031	0.054199219	891.56	52.82714237	-78.61910309	-159.5384388	-52
52612	0	0.387009621	0.064044952	0.044391632	0.999999046	-0.000369072	0.000806808	-6.20E-05	9.675240517	1.60112381	1.109790802	-0.0184536	0.040340429	-0.003099442	-0.920410156	0.467529297	0.051025391	891.58	52.47055995	-78.54781347	-159.2221033	-52
52613	0	0.386474609	0.063659668	0.043029785	0.999999046	-0.000564575	0.000832558	-9.92E-05	9.661865234	1.591491699	1.075744629	-0.028228765	0.041627891	-0.004959107	-0.922607422	0.465332031	0.048339844	891.48	52.09816184	-78.47095938	-158.910269	-52
52614	0	0.386572838	0.063382149	0.043560982	0.999999046	-0.000709534	0.000831604	-0.000264168	9.664320946	1.584553719	1.089024544	-0.035476692	0.041580209	-0.013208392	-0.922607422	0.465332031	0.048339844	891.56	51.77196029	-78.37894478	-158.6636395	-52
52615	0	0.386779785	0.063659668	0.042541504	0.999999046	-0.00094223	0.000821114	-0.000217438	9.669494629	1.591491699	1.063537598	-0.047111524	0.04105569	-0.01087189	-0.922607422	0.465332031	0.042724609	891.48	51.41335166	-78.29166564	-158.4008709	-51
52616	0	0.388451576	0.063137054	0.043357849	0.999998093	-0.001096725	0.000853539	-0.000210762	9.711289406	1.578426361	1.083946228	-0.054836291	0.04267694	-0.010538105	-0.925048828	0.463378906	0.048828125	891.48	51.02653306	-78.20245302	-158.1413681	-51
52617	0	0.387939453	0.062072754	0.043151855	0.999998093	-0.001193047	0.001117706	-0.00025177	9.698486328	1.551818848	1.078796387	-0.059652356	0.05588534	-0.012588507	-0.925048828	0.463378906	0.048828125	891.52	50.53765217	-78.09025004	-157.7899444	-52
52618	0	0.387871742	0.063079834	0.04362011	0.999998093	-0.001122475	0.001347542	-0.000236511	9.696793556	1.57699585	1.090502739	-0.056123763	0.067377126	-0.011825568	-0.922607422	0.463134766	0.042724609	891.48	49.96586648	-77.96205608	-157.3353172	-52
52619	0	0.385925293	0.064025879	0.044433594	0.999998093	-0.001128197	0.001541138	-8.77E-05	9.648132324	1.600646973	1.110839844	-0.05640987	0.077056932	-0.004386905	-0.925048828	0.465332031	0.042724609	891.48	49.27594615	-77.83159586	-156.7627166	-51
52620	0	0.385409355	0.061794281	0.045516968	0.999998093	-0.001091003	0.001587868	-0.000228882	9.635233879	1.544857025	1.137924194	-0.054550205	0.079393437	-0.011444099	-0.922363281	0.4609375	0.040039063	891.48	48.63517704	-77.68426841	-156.2356273	-51
52621	0	0.38684082	0.062866211	0.045959473	0.999997139	-0.001121521	0.001740456	-8.01E-05	9.671020508	1.571655273	1.148986816	-0.05607609	0.087022844	-0.004005435	-0.924804688	0.463134766	0.040039063	891.64	47.89552769	-77.53692912	-155.6136483	-51
52622	0	0.386492729	0.064109802	0.045005798	0.999997139	-0.001062393	0.001665115	-5.72E-05	9.66231823	1.602745056	1.125144958	-0.053119694	0.083255822	-0.002861025	-0.927001953	0.463134766	0.034423828	891.56	47.20073955	-77.39595851	-155.0235147	-51
52623	0	0.387390137	0.061767578	0.042480469	0.999997139	-0.000930786	0.001919746	-2.29E-05	9.684753418	1.544189453	1.062011719	-0.046539342	0.095987393	-0.00114441	-0.924560547	0.4609375	0.037353516	891.58	46.43158606	-77.23677578	-154.3526101	-51
52624	0	0.385627747	0.06377697	0.045604706	0.999997139	-0.001143456	0.001964569	-2.77E-05	9.640693665	1.594424248	1.140117645	-0.057172825	0.098228539	-0.001382829	-0.927001953	0.4609375	0.028808594	891.54	45.64366444	-77.07197444	-153.6754717	-51
52625	0	0.386047363	0.063598633	0.045349121	0.999996185	-0.000945091	0.002281189	-1.14E-05	9.651184082	1.58996582	1.133728027	-0.04725461	0.114059564	-0.000572205	-0.926757813	0.458740234	0.031982422	891.46	44.78322039	-76.88122119	-152.9135004	-51
52626	0	0.386949539	0.062244415	0.043631554	0.999996185	-0.000889778	0.00228405	4.58E-05	9.67373848	1.556110382	1.090788841	-0.044488951	0.114202614	0.002288821	-0.924316406	0.460693359	0.020019531	891.52	43.93392943	-76.69285127	-152.1371731	-51
52627	0	0.386108398	0.061828613	0.047973633	0.999996185	-0.000674248	0.002624512	0.000118256	9.652709961	1.545715332	1.19934082	-0.033712428	0.131225747	0.005912788	-0.929199219	0.4609375	0.026123047	891.48	42.99730788	-76.47968518	-151.2658391	-50
52628	0	0.385753632	0.061245918	0.048067093	0.999995232	-0.000561714	0.002840042	0.000179291	9.64384079	1.531147957	1.201677322	-0.028085748	0.142002305	0.008964551	-0.924316406	0.460693359	0.017089844	891.52	42.01473305	-76.25023249	-150.3233515	-50
52629	0	0.386169434	0.061706543	0.045837402	0.999994278	-0.000559807	0.003139496	3.43E-05	9.65423584	1.542663574	1.145935059	-0.027990389	0.156975059	0.001716617	-0.926513672	0.458496094	0.008789063	891.52	41.02637726	-75.98102399	-149.3692481	-50
52630	0	0.385706902	0.06156826	0.04631424	0.999992371	-0.000611305	0.003821373	0.000205994	9.642672539	1.539206505	1.157855988	-0.030565338	0.191069128	0.010299708	-0.926269531	0.458496094	0.005859375	891.64	39.8154247	-75.66155673	-148.1970183	-50
52631	0	0.38659668	0.059997559	0.045776367	0.99998951	-0.000740051	0.004403114	0.000270844	9.664916992	1.499938965	1.14440918	-0.037002687	0.22015645	0.01354222	-0.928710938	0.458496094	-0.002685547	891.56	38.46377646	-75.28970239	-146.8912573	-50
52632	0	0.386418343	0.060941696	0.046462059	0.999982834	-0.000827789	0.005772591	0.00018692	9.660458565	1.523542404	1.161551476	-0.0413897	0.28863117	0.009346061	-0.926269531	0.460693359	-0.008789063	891.56	36.8500635	-74.78040644	-145.3269057	-51
52633	0	0.381896973	0.059875488	0.052185059	0.999979019	-0.000788689	0.006286621	0.000190735	9.547424316	1.496887207	1.304626465	-0.039434697	0.31433316	0.009536807	-0.928222656	0.458496094	-0.017089844	891.56	35.22462023	-74.21343929	-143.7482569	-50
52634	0	0.379635811	0.05739212	0.052902222	0.999977112	-0.000741005	0.006661415	0.000328064	9.490895271	1.434803009	1.322555542	-0.037050525	0.333073255	0.016403321	-0.928222656	0.460693359	-0.028808594	891.48	33.59280566	-73.60923353	-142.1509156	-50
52635	0	0.378051758	0.057189941	0.055297852	0.999978065	-0.000713348	0.006566048	0.000225067	9.451293945	1.429748535	1.382446289	-0.035667679	0.328304773	0.011253439	-0.927978516	0.462646484	-0.040527344	891.46	32.13348225	-72.99725899	-140.7231937	-50
52636	0	0.377929688	0.060180664	0.051818848	0.999977112	-0.001113892	0.006623268	-7.63E-06	9.448242188	1.504516602	1.295471191	-0.055694999	0.331165896	-0.000381473	-0.927490234	0.458007813	-0.057617188	891.46	30.79444957	-72.35738677	-139.4553935	-51
52637	0	0.375	0.060913086	0.053649902	0.999973297	-0.001402855	0.007137299	-1.91E-05	9.375	1.522827148	1.341247559	-0.070143365	0.356868076	-0.000953683	-0.927490234	0.460205078	-0.069335938	891.62	29.43280628	-71.65873995	-138.1924004	-51
52638	0	0.374584198	0.060041428	0.057339668	0.999972343	-0.001928329	0.007148743	9.92E-05	9.36460495	1.50103569	1.433491707	-0.096417355	0.3574404	0.004959152	-0.927246094	0.460205078	-0.080810547	891.44	28.07446145	-70.95804069	-136.9909631	-51
52639	0	0.37286377	0.056945801	0.057617188	0.999968529	-0.002285004	0.007576942	-0.000156403	9.321594238	1.42364502	1.440429688	-0.114251376	0.378851078	-0.007820211	-0.927001953	0.459960938	-0.092529297	891.48	26.78013337	-70.19344851	-135.8953606	-52
52640	0	0.372367859	0.058272362	0.058588028	0.999959946	-0.003007889	0.008385658	-0.000152588	9.309196472	1.456809044	1.464700699	-0.15039643	0.419288461	-0.007629495	-0.924560547	0.459960938	-0.104003906	891.44	25.38806878	-69.33948587	-134.7791353	-53
52641	0	0.365478516	0.054992676	0.061584473	0.999955177	-0.002925873	0.008965492	-0.000217438	9.136962891	1.374816895	1.539611816	-0.14629581	0.448281261	-0.010872048	-0.926513672	0.459960938	-0.118408203	891.48	24.05456003	-68.41518152	-133.7089406	-53
52642	0	0.35581398	0.052429199	0.061078072	0.999948502	-0.002530098	0.009819984	-0.000207901	8.895349503	1.31072998	1.52695179	-0.126507067	0.491007641	-0.010395228	-0.924072266	0.459716797	-0.130126953	891.46	22.77109796	-67.39510806	-132.6433151	-52
52643	0	0.35168457	0.051086426	0.052001953	0.999934196	-0.003261566	0.01095295	-0.000709534	8.792114258	1.277160645	1.300048828	-0.163081872	0.547659444	-0.03547746	-0.921386719	0.461669922	-0.147705078	891.46	21.52164129	-66.22728591	-131.6927455	-52
52644	0	0.350977898	0.049393654	0.049769402	0.999921799	-0.002029419	0.012228966	-0.000932693	8.774447441	1.234841347	1.244235039	-0.101473561	0.611464038	-0.046635875	-0.920898438	0.459228516	-0.165039063	891.48	20.45557412	-64.90969443	-130.7866445	-54
52645	0	0.337585449	0.051269531	0.062438965	0.999908447	-0.001070976	0.013454437	-0.000900269	8.43963623	1.281738281	1.560974121	-0.053550446	0.67274238	-0.045014801	-0.918212891	0.458984375	-0.185302734	891.46	19.49446298	-63.45764136	-129.8694465	-54
52646	0	0.32649231	0.059004784	0.05892086	0.99988842	-0.003145218	0.014526367	-0.001198769	8.162307739	1.475119591	1.473021507	-0.157266723	0.726345278	-0.059940652	-0.913085938	0.458740234	-0.211425781	891.46	18.38905405	-61.87411817	-129.0363108	-55
52647	0	0.327453613	0.059204102	0.032958984	0.999871254	-0.002891541	0.015641212	-0.001609802	8.186340332	1.480102539	0.823974609	-0.144583186	0.782093943	-0.080493542	-0.909912109	0.454101563	-0.234375	891.48	17.42872154	-60.15225861	-128.32997	-56
52648	0	0.30987072	0.053927422	0.034739494	0.999855995	-0.003052711	0.01660347	-0.001179695	7.746767998	1.348185539	0.868487358	-0.152642861	0.830213123	-0.058987572	-0.907226563	0.455810547	-0.260742188	891.48	16.41384564	-58.33780877	-127.5696441	-55
52649	0	0.272460938	0.041015625	0.031066895	0.999814987	-0.004969597	0.018547058	-0.00069046	6.811523438	1.025390625	0.776672363	-0.248495134	0.927409973	-0.034525135	-0.899658203	0.453125	-0.286865234	891.46	15.10884425	-56.32052682	-126.7179644	-57
52650	0	0.235537529	0.039821625	0.016160965	0.999785423	-0.003458023	0.020376205	-0.001214981	5.888438225	0.995540619	0.404024124	-0.172913508	1.018883067	-0.060753395	-0.892089844	0.457275391	-0.316650391	891.56	14.10329283	-54.08003377	-126.0015208	-60
52651	0	0.192565918	0.032287598	0.021118164	0.999724388	-0.002532959	0.023304939	-3.43E-05	4.814147949	0.807189941	0.527954102	-0.126659552	1.165353714	-0.001716771	-0.879394531	0.456542969	-0.354736328	891.58	13.03337762	-51.54048591	-125.0525453	-64
52652	0	0.086769104	0.017481804	0.02216053	0.999727249	-0.005451202	0.022696495	-0.000528336	2.1692276	0.437045097	0.554013252	-0.272584889	1.134927882	-0.026419179	-0.869628906	0.460449219	-0.387451172	891.48	11.84252203	-49.04558853	-124.3557002	-71
52653	0	-0.010437012	0.030944824	0.032592773	0.999497414	-0.013031006	0.028813362	-0.002075195	-0.260925293	0.773620605	0.814819336	-0.651659403	1.440909365	-0.103777142	-0.857421875	0.468505859	-0.426269531	891.52	9.958089685	-45.81306584	-123.8712199	-67
52654	0	-0.045911789	0.00549984	0.054678917	0.998965263	-0.015958786	0.042572021	-0.001029968	-1.147794724	0.137495995	1.366972923	-0.798214596	2.129335459	-0.05151618	-0.838134766	0.478515625	-0.465820313	891.52	7.564952042	-41.02247556	-123.1720952	-62
52655	0	-0.038452148	-0.028808594	0.116821289	0.997995377	-0.023127556	0.058830261	0.002891541	-0.961303711	-0.720214844	2.920532227	-1.157150923	2.943479697	0.144673688	-0.802246094	0.499023438	-0.530029297	891.52	4.145243752	-34.39025255	-122.132893	-67
52656	0	0.113873482	-0.05887413	0.322654724	0.99648571	-0.028948784	0.078279495	0.007047653	2.846837044	-1.471853256	8.066368103	-1.449136948	3.918565607	0.352795983	-0.736083984	0.540527344	-0.612304688	891.46	0.169893288	-25.48681519	-121.1472311	-68
52657	0	0.495056152	-0.154907227	1.17791748	0.994971275	-0.016460419	0.098736763	0.003429413	12.37640381	-3.872680664	29.44793701	-0.824403228	4.945129744	0.171758633	-0.622558594	0.593505859	-0.721191406	891.68	-1.807982473	-14.18549901	-121.2135036	-68
52658	0	-0.007670403	0.047073364	1.728176117	0.998229027	-0.014110565	0.057771683	-0.001190186	-0.191760063	1.176834106	43.20440292	-0.70594496	2.890290201	-0.059544425	-0.49609375	0.6171875	-0.819580078	891.62	-3.340011358	-7.588113594	-121.7558866	-71
52659	0	-0.151123047	0.110473633	1.135925293	0.998519897	-0.034518242	0.041553497	0.006229401	-3.778076172	2.76184082	28.39813232	-1.726763817	2.078700181	0.31162374	-0.418701172	0.647705078	-0.849609375	891.64	-7.312331287	-2.778064861	-121.5531314	-74
52660	0	-0.058105469	-0.092956543	0.636474609	0.998408318	-0.037554741	0.034328461	0.024299622	-1.452636719	-2.323913574	15.91186523	-1.878733445	1.717333835	1.215625795	-0.35546875	0.714355469	-0.829589844	891.64	-11.63289374	1.566737335	-119.500355	-72
52661	0	-0.110286713	-0.208704948	0.410200119	0.999010086	-0.024271965	0.030256271	0.021716118	-2.757167816	-5.217623711	10.25500298	-1.213998318	1.513312272	1.086163832	-0.264404297	0.786865234	-0.797363281	891.62	-14.31194184	5.513729974	-117.8644924	-76
52662	0	-0.186530113	-0.129878998	0.313632011	0.999804497	-0.010040283	0.015151978	0.007730484	-4.663252831	-3.246974945	7.840800285	-0.502046809	0.757648148	0.386549339	-0.201904297	0.8203125	-0.780517578	891.68	-15.41651885	7.434942773	-117.4582274	-72
52663	0	-0.17956543	-0.079956055	0.19543457	0.999858856	-0.012633324	0.010719299	-0.002490997	-4.489135742	-1.998901367	4.885864258	-0.63169574	0.535990044	-0.124555694	-0.181640625	0.835449219	-0.765625	891.7	-16.95310684	8.55775059	-118.0913874	-72
52664	0	-0.141359329	-0.108633041	0.201125145	0.999959946	-0.00847435	0.002783775	3.91E-05	-3.533983231	-2.715826035	5.028128624	-0.423723118	0.139190612	0.001955058	-0.175537109	0.853027344	-0.744140625	891.56	-17.94304591	8.890668396	-118.1957066	-72
52665	0	-0.1171875	-0.13079834	0.232421875	0.999991417	0.001598358	0.001961708	0.003250122	-2.9296875	-3.269958496	5.810546875	0.079918134	0.098085681	0.162506563	-0.168701172	0.859375	-0.7421875	891.56	-17.72179168	9.249034733	-117.9191856	-73
52666	0	-0.1302948	-0.149450302	0.260532379	0.999930382	0.01086998	-0.004497528	-0.00084877	-3.257369995	-3.736257553	6.513309479	0.543511594	-0.224881618	-0.042439491	-0.166259766	0.854980469	-0.741943359	891.56	-16.47741799	8.761693713	-117.8722708	-74
52667	0	-0.196105957	-0.166687012	0.341491699	0.999811172	0.014397621	-0.010749817	-0.007289886	-4.902648926	-4.167175293	8.53729248	0.719926177	-0.537524533	-0.364517169	-0.179199219	0.835205078	-0.768554688	891.64	-14.90771809	7.389998037	-118.3605393	-76
52668	0	-0.119322777	-0.203278542	0.503804207	0.999686241	0.018679619	-0.014831543	-0.007632256	-2.98306942	-5.081963539	12.59510517	0.934078594	-0.741654684	-0.381652677	-0.2109375	0.807373047	-0.784667969	891.62	-12.83353855	5.572232512	-118.8178699	-74
52669	0	-0.049255371	-0.102539063	0.457519531	0.99984169	0.011780739	-0.010902405	-0.007621765	-1.231384277	-2.563476563	11.43798828	0.589067943	-0.545148929	-0.381108314	-0.2421875	0.777099609	-0.812255859	891.62	-11.55001682	4.207937658	-119.4236791	-72
52670	0	0.038823128	-0.029662132	0.423666	0.999904633	-8.30E-05	-0.013743401	0.00079155	0.970578194	-0.741553307	10.59165001	-0.004148614	-0.687191735	0.039578734	-0.265136719	0.760253906	-0.815429688	891.58	-11.54778561	2.719886123	-119.0329714	-71
52671	0	0.038818359	-0.076965332	0.37878418	0.999878883	4.20E-05	-0.013689995	0.007343292	0.970458984	-1.924133301	9.469604492	0.002098168	-0.684527277	0.367179382	-0.282226563	0.767578125	-0.806396484	891.64	-11.51392791	1.38401667	-117.9077798	-71
52672	0	-0.018222809	-0.108086586	0.411528587	0.999980927	0.003860474	-0.004191399	0.002217293	-0.455570221	-2.70216465	10.28821468	0.193024884	-0.209571237	0.11086533	-0.284667969	0.765380859	-0.794433594	891.58	-11.07654062	0.995636297	-117.5772922	-71
52673	0	-0.014770508	-0.026550293	0.285339355	0.999965668	0.006146431	0.001758575	-0.005271912	-0.369262695	-0.663757324	7.133483887	0.307325066	0.087929778	-0.263598598	-0.289306641	0.761230469	-0.799560547	891.6	-10.3942882	1.113709747	-118.2209024	-73
52674	0	0.095925331	-0.004631042	0.340210915	0.999966621	0.003395081	0.005653381	-0.004733086	2.398133278	-0.115776062	8.505272865	0.169755893	0.282672172	-0.236656881	-0.293212891	0.745605469	-0.809814453	891.52	-10.02885698	1.681737705	-118.8829243	-74
52675	0	0.105712891	-0.032226563	0.42199707	0.999979973	0.002437592	0.005513191	0.001384735	2.642822266	-0.805664063	10.54992676	0.121880355	0.275661319	0.069237197	-0.285644531	0.740966797	-0.818359375	891.52	-9.753704722	2.351338397	-118.8482479	-73
52676	0	0.036364555	-0.062596321	0.428349495	0.999974251	0.005135536	0.002002716	0.004447937	0.909113884	-1.564908028	10.70873737	0.256778957	0.100136641	0.22239871	-0.275878906	0.73828125	-0.830322266	891.58	-9.150080008	2.678256462	-118.395556	-72
52677	0	-0.030639648	-0.069641113	0.417785645	0.999977112	0.005410194	0.002906799	0.002750397	-0.765991211	-1.741027832	10.44464111	0.270511762	0.145341063	0.137520874	-0.268310547	0.731445313	-0.8359375	891.58	-8.522379006	3.072952131	-118.1477631	-71
52678	0	-0.067311287	-0.052526474	0.397669792	0.999984741	0.003088951	0.004342079	-0.000526428	-1.682782173	-1.31316185	9.941744804	0.154448294	0.217104996	-0.026321537	-0.260742188	0.724365234	-0.847167969	891.56	-8.181072336	3.575650597	-118.2927147	-71
52679	0	-0.052734375	-0.043457031	0.40637207	0.999982834	-0.001536369	0.005126953	-0.002155304	-1.318359375	-1.086425781	10.15930176	-0.076818892	0.256349079	-0.107765796	-0.255615234	0.719726563	-0.853027344	891.56	-8.383704108	4.141558563	-118.6354523	-70
52680	0	-0.038787842	-0.05062294	0.392717361	0.999991417	-0.001633644	0.002981186	-0.001954079	-0.969696045	-1.265573502	9.817934036	-0.081682415	0.149059678	-0.097704184	-0.248779297	0.723876953	-0.850830078	891.6	-8.59555558	4.466464329	-118.9206532	-70
52681	0	-0.046508789	-0.065246582	0.379638672	0.999998093	-0.001070976	-0.000854492	-0.000476837	-1.162719727	-1.631164551	9.490966797	-0.053548832	-0.042724624	-0.023841866	-0.248779297	0.723876953	-0.853759766	891.56	-8.725951738	4.381840329	-118.972696	-70
52682	0	-0.04724884	-0.079292297	0.380526543	0.999997139	-3.05E-05	-0.00230217	0.000348091	-1.181221008	-1.982307434	9.513163567	-0.00152588	-0.115108594	0.017404572	-0.248779297	0.723876953	-0.847900391	891.52	-8.729132636	4.147938484	-118.9055783	-71
52683	0	-0.039123535	-0.080200195	0.399475098	0.999996185	-5.63E-05	-0.002456665	0.000228882	-0.978088379	-2.005004883	9.986877441	-0.002813342	-0.122833377	0.011444103	-0.255859375	0.724121094	-0.847412109	891.6	-8.737171345	3.894470823	-118.8496604	-71
52684	0	-0.023197174	-0.069739342	0.41576004	0.999997139	-0.000473976	-0.002326965	-0.000151634	-0.579929352	-1.743483543	10.39400101	-0.023698829	-0.116348376	-0.007581718	-0.255859375	0.724121094	-0.847412109	891.56	-8.796504951	3.648307298	-118.8388201	-71
52685	0	-0.006347656	-0.060791016	0.399414063	0.999997139	-0.000160217	-0.002177238	-4.20E-05	-0.158691406	-1.519775391	9.985351563	-0.008010871	-0.10886201	-0.002098085	-0.263427734	0.726806641	-0.841552734	891.62	-8.819171849	3.419570696	-118.8181633	-71
52686	0	0.001948357	-0.057010651	0.390173912	0.999998093	0.000981331	-0.001217842	0.000515938	0.048708916	-1.425266266	9.754347801	0.049066566	-0.060892133	0.025796902	-0.263427734	0.726806641	-0.841552734	891.58	-8.708105349	3.307482524	-118.7510112	-71
52687	0	0.001464844	-0.054504395	0.39050293	0.999997139	0.001850128	0.000634193	0.000724792	0.036621094	-1.362609863	9.762573242	0.092506476	0.031709694	0.03623965	-0.268066406	0.726806641	-0.844238281	891.56	-8.497627164	3.407006286	-118.6926868	-71
52688	0	-0.015292168	-0.053378105	0.397825241	0.999996185	0.002017975	0.001349449	0.000543594	-0.382304192	-1.334452629	9.945631027	0.100898847	0.067472527	0.027179746	-0.263183594	0.722167969	-0.843994141	891.56	-8.26935938	3.583578445	-118.6663289	-71
52689	0	-0.027160645	-0.052185059	0.397766113	0.999998093	0.00137043	0.001087189	0.000205994	-0.679016113	-1.304626465	9.944152832	0.068521535	0.054359464	0.010299688	-0.260253906	0.717529297	-0.85546875	891.6	-8.11701388	3.724576961	-118.6735789	-71
52690	0	-0.033005714	-0.052713394	0.404066086	0.999999046	0.000495911	0.000631332	-0.000115395	-0.82514286	-1.317834854	10.10165215	0.024795535	0.031566623	-0.00576973	-0.258056641	0.717529297	-0.852539063	891.48	-8.066504046	3.808691288	-118.7095429	-71
52691	0	-0.03302002	-0.056213379	0.403564453	0.999999046	-0.000133514	-0.000609398	-0.000324249	-0.825500488	-1.405334473	10.08911133	-0.006675721	-0.030469897	-0.016212465	-0.260253906	0.715332031	-0.852294922	891.56	-8.088287095	3.748661316	-118.7493817	-71
52692	0	-0.028347015	-0.057925224	0.398151398	0.999999046	-0.000346184	-0.001050949	-0.000335693	-0.708675385	-1.448130608	9.953784943	-0.017309193	-0.052547467	-0.016784672	-0.262695313	0.717773438	-0.855224609	891.62	-8.134036782	3.638110228	-118.7832561	-71
52693	0	-0.022338867	-0.05645752	0.394042969	0.999999046	-0.000228882	-0.001242638	-0.000247955	-0.55847168	-1.411437988	9.851074219	-0.011444095	-0.062131899	-0.01239777	-0.260253906	0.717529297	-0.852539063	891.62	-8.165426908	3.50675069	-118.8035872	-71
52694	0	-0.017112732	-0.057014465	0.396989822	0.999999046	-0.000125885	-0.001161575	2.96E-05	-0.427818298	-1.425361633	9.92474556	-0.006294252	-0.058078779	0.001478196	-0.265136719	0.717773438	-0.849365234	891.58	-8.183111649	3.388417444	-118.7939759	-71
52695	0	-0.015563965	-0.058105469	0.398803711	0.999999046	-4.20E-05	-0.000987053	8.39E-05	-0.389099121	-1.452636719	9.970092773	-0.002098084	-0.049352654	0.004196168	-0.265136719	0.717773438	-0.849365234	891.58	-8.19100152	3.290062932	-118.7808986	-72
52696	0	-0.0151577	-0.058686256	0.396265984	0.999999046	-9.25E-05	-0.00056839	2.29E-05	-0.37894249	-1.46715641	9.90664959	-0.004625321	-0.028419496	0.001144409	-0.267578125	0.717773438	-0.852050781	891.58	-8.205526874	3.237533961	-118.7817857	-71
52697	0	-0.015075684	-0.059204102	0.393920898	0.999999046	0.000114441	-0.000395775	-7.63E-05	-0.37689209	-1.480102539	9.848022461	0.005722046	-0.019788743	-0.003814697	-0.267578125	0.718017578	-0.846435547	891.58	-8.197212281	3.202334883	-118.7965806	-71
52698	0	-0.017378807	-0.056859016	0.395046234	0.999999046	0.000160217	-0.000278473	-2.38E-05	-0.434470177	-1.42147541	9.876155853	0.008010864	-0.013923645	-0.001192093	-0.269775391	0.718017578	-0.852050781	891.56	-8.183376451	3.180816429	-118.8075576	-71
52699	0	-0.019042969	-0.05670166	0.393981934	0.999999046	3.43E-05	-0.000254631	-0.000190735	-0.476074219	-1.417541504	9.84954834	0.001716614	-0.012731552	-0.009536743	-0.270019531	0.718017578	-0.849121094	891.56	-8.18499641	3.15890505	-118.8377511	-71
52700	0	-0.02064991	-0.0560112	0.396742821	0.999999046	2.38E-05	-0.000137329	6.68E-06	-0.516247749	-1.400279999	9.918570518	0.001192093	-0.006866455	0.000333786	-0.270019531	0.718017578	-0.849121094	891.58	-8.186591093	3.15323464	-118.8474086	-71
52701	0	-0.017456055	-0.056091309	0.395751953	0.999999046	-7.63E-06	-0.000128746	-1.91E-05	-0.436401367	-1.402282715	9.893798828	-0.00038147	-0.006437302	-0.000953674	-0.270019531	0.715820313	-0.843261719	891.48	-8.191880652	3.147683339	-118.8601471	-70
52702	0	-0.015826225	-0.055853844	0.39593792	0.999999046	-7.06E-05	-0.000200272	-9.16E-05	-0.395655632	-1.396346092	9.89844799	-0.003528595	-0.01001358	-0.004577637	-0.272216797	0.715820313	-0.851806641	891.68	-8.204674955	3.132330061	-118.8802019	-70
52703	0	-0.014648438	-0.055969238	0.394897461	0.999999046	-0.000205994	9.63E-05	0.000133514	-0.366210938	-1.399230957	9.872436523	-0.010299683	0.004816055	0.00667572	-0.269775391	0.715820313	-0.848876953	891.48	-8.231773708	3.153752881	-118.8792425	-70
52704	0	-0.016998291	-0.057350159	0.397738457	0.999999046	1.62E-05	8.20E-05	4.58E-05	-0.424957275	-1.433753967	9.943461418	0.000810623	0.0041008	0.002288818	-0.270019531	0.718017578	-0.849121094	891.58	-8.233905846	3.171690421	-118.8879619	-70
52705	0	-0.017272949	-0.057250977	0.395812988	0.999999046	0.000114441	8.11E-05	-3.81E-06	-0.43182373	-1.431274414	9.895324707	0.005722046	0.004053116	-0.000190735	-0.272216797	0.718017578	-0.848876953	891.56	-8.225064514	3.188307751	-118.9025325	-70
52706	0	-0.018923759	-0.057222366	0.39588356	0.999999046	-9.54E-06	0.000139236	-1.62E-05	-0.473093987	-1.430559158	9.897089005	-0.000476837	0.006961823	-0.000810623	-0.270019531	0.718017578	-0.849121094	891.58	-8.230539085	3.211008487	-118.9192216	-71
52707	0	-0.01776123	-0.058105469	0.39453125	0.999999046	-1.91E-05	0.000264168	-7.63E-06	-0.444030762	-1.452636719	9.86328125	-0.000953674	0.013208389	-0.00038147	-0.269775391	0.715820313	-0.848876953	891.62	-8.237200073	3.247650641	-118.9371561	-71
52708	0	-0.01748085	-0.057694435	0.396472931	0.999999046	-7.53E-05	0.000112534	-3.53E-05	-0.437021255	-1.442360878	9.911823273	-0.003767014	0.005626678	-0.001764297	-0.270019531	0.718017578	-0.849121094	891.58	-8.250341443	3.266249371	-118.9556461	-71
52709	0	-0.016662598	-0.057189941	0.396240234	0.999999046	9.16E-05	-1.43E-05	0.000102997	-0.416564941	-1.429748535	9.906005859	0.004577637	-0.000715256	0.005149841	-0.270019531	0.718017578	-0.846191406	891.58	-8.243305589	3.272309376	-118.9563096	-71
52710	0	-0.016174316	-0.058335304	0.397593498	0.999999046	0.000247955	0.000108719	7.15E-05	-0.40435791	-1.458382607	9.939837456	0.012397766	0.005435944	0.003576279	-0.270019531	0.718017578	-0.849121094	891.58	-8.218676603	3.291359637	-118.9626286	-71
52711	0	-0.018737793	-0.056945801	0.396240234	0.999999046	0.000350952	0.000275612	0.000141144	-0.468444824	-1.42364502	9.906005859	0.017547608	0.013780594	0.00705719	-0.267333984	0.715576172	-0.852050781	891.56	-8.181906069	3.330173539	-118.9636828	-72
52712	0	-0.020009041	-0.056418419	0.396024704	0.999999046	0.00014019	0.0001297	0.000128746	-0.500226021	-1.410460472	9.900617599	0.007009506	0.006484985	0.006437302	-0.272216797	0.713623047	-0.848632813	891.6	-8.169174756	3.351989153	-118.9643959	-71
52713	0	-0.018676758	-0.055969238	0.395629883	0.999999046	0.000148773	0.000123024	0.000160217	-0.466918945	-1.399230957	9.89074707	0.00743866	0.006151199	0.008010864	-0.267333984	0.715576172	-0.854736328	891.64	-8.155177298	3.373244695	-118.9606922	-71
52714	0	-0.018975258	-0.05560112	0.397350311	0.999999046	1.14E-05	0.000183105	0.000102043	-0.474381447	-1.390028	9.933757782	0.000572205	0.009155274	0.005102158	-0.267333984	0.715576172	-0.854736328	891.62	-8.157271208	3.400065933	-118.9646664	-71
52715	0	-0.018676758	-0.055541992	0.397094727	0.999999046	-3.05E-05	0.000210762	-1.14E-05	-0.466918945	-1.388549805	9.927368164	-0.001525879	0.010538101	-0.000572205	-0.267333984	0.715576172	-0.849121094	891.56	-8.164879466	3.427858365	-118.9819498	-71
52716	0	-0.01749897	-0.055139542	0.394763947	0.999999046	8.87E-05	0.000354767	-4.20E-05	-0.437474251	-1.378488541	9.869098663	0.004434586	0.017738343	-0.002098084	-0.267333984	0.715576172	-0.852050781	891.58	-8.159093451	3.471115095	-119.0051569	-71
52717	0	-0.019226074	-0.055541992	0.39642334	0.999999046	4.20E-05	0.000470161	0.000160217	-0.480651855	-1.388549805	9.910583496	0.002098084	0.023508073	0.008010865	-0.267333984	0.715576172	-0.852050781	891.58	-8.157312619	3.530454084	-119.0073604	-71
52718	0	-0.020350456	-0.057761192	0.397019386	0.999999046	0.00021553	9.73E-05	9.16E-05	-0.508761406	-1.444029808	9.925484657	0.01077652	0.004863739	0.004577637	-0.267333984	0.713378906	-0.851806641	891.6	-8.135777794	3.546125028	-119.0113893	-71
52719	0	-0.020568848	-0.057006836	0.396850586	0.999999046	-7.63E-06	8.49E-05	4.58E-05	-0.514221191	-1.425170898	9.921264648	-0.00038147	0.004243851	0.002288818	-0.264892578	0.715576172	-0.852050781	891.52	-8.140124325	3.559405353	-119.0199333	-71
52720	0	-0.021190643	-0.05719471	0.398859978	0.999999046	-0.000107765	-1.91E-05	-4.77E-06	-0.529766083	-1.429867744	9.971499443	-0.00538826	-0.000953674	-0.000238419	-0.264892578	0.713378906	-0.849121094	891.56	-8.156189663	3.559856457	-119.0327032	-72
52721	0	-0.020446777	-0.055419922	0.396240234	0.999999046	-3.81E-06	5.05E-05	9.54E-05	-0.511169434	-1.385498047	9.906005859	-0.000190735	0.002527237	0.004768372	-0.264892578	0.713378906	-0.854736328	891.62	-8.1596226	3.569592019	-119.0353698	-71
52722	0	-0.019459724	-0.055114746	0.396359444	1	-2.57E-05	5.44E-05	2.96E-05	-0.486493111	-1.377868652	9.908986092	-0.00128746	0.002717972	0.001478195	-0.262695313	0.715576172	-0.854980469	891.48	-8.165940028	3.578403091	-119.0451256	-71
52723	0	-0.020019531	-0.055603027	0.395690918	0.999999046	0.00018692	0.000275612	1.14E-05	-0.500488281	-1.390075684	9.892272949	0.009346008	0.013780594	0.000572205	-0.264892578	0.715576172	-0.852050781	891.62	-8.148175978	3.611766541	-119.0609111	-71
52724	0	-0.021032333	-0.055333138	0.396065712	0.999999046	0.00014019	0.000171661	0.000209808	-0.525808334	-1.383328438	9.901642799	0.007009506	0.008583069	0.010490418	-0.264892578	0.715576172	-0.852050781	891.52	-8.134163983	3.63635536	-119.0525027	-72
52725	0	-0.020019531	-0.055786133	0.397216797	0.999999046	0.000270844	0.000210762	8.01E-05	-0.500488281	-1.39465332	9.930419922	0.013542176	0.010538101	0.004005432	-0.262695313	0.715576172	-0.854980469	891.66	-8.10609807	3.663012733	-119.059212	-71
52726	0	-0.021231651	-0.054776192	0.394612312	0.999999046	6.29E-05	7.25E-05	0.000155449	-0.530791283	-1.369404793	9.865307808	0.003147125	0.003623962	0.007772446	-0.262451172	0.715576172	-0.857910156	891.56	-8.101089013	3.675004426	-119.0552164	-71
52727	0	-0.021362305	-0.0546875	0.395263672	0.999999046	-3.05E-05	0.000245094	-3.81E-06	-0.534057617	-1.3671875	9.881591797	-0.001525879	0.012254715	-0.000190735	-0.262451172	0.713378906	-0.854980469	891.62	-8.108050418	3.703814642	-119.0722946	-71
52728	0	-0.02143383	-0.055627823	0.396714211	0.999999046	-3.15E-05	0.000200272	7.92E-05	-0.535845757	-1.390695572	9.917855263	-0.001573563	0.01001358	0.003957748	-0.262695313	0.715576172	-0.854980469	891.6	-8.114424533	3.728681498	-119.0791134	-71
52729	0	-0.021850586	-0.055541992	0.397766113	0.999999046	-2.67E-05	0.000187874	0	-0.546264648	-1.388549805	9.944152832	-0.001335144	0.009393692	0	-0.262695313	0.715576172	-0.854980469	891.58	-8.120769788	3.750676535	-119.0947653	-71
52730	0	-0.020167351	-0.055624962	0.394824982	0.999999046	5.34E-05	0.00030899	-4.58E-05	-0.504183769	-1.390624046	9.870624542	0.002670288	0.015449524	-0.002288818	-0.262451172	0.713134766	-0.857910156	891.58	-8.118379501	3.785407502	-119.1178298	-71
52731	0	-0.022460938	-0.054443359	0.397216797	0.999999046	1.53E-05	0.000382423	6.87E-05	-0.561523438	-1.361083984	9.930419922	0.000762939	0.019121171	0.003433228	-0.262695313	0.715576172	-0.852294922	891.52	-8.119481353	3.830162189	-119.1288094	-71
52732	0	-0.022712708	-0.05619812	0.399092674	0.999999046	2.19E-05	4.77E-05	0.000167847	-0.567817688	-1.404953003	9.977316856	0.001096725	0.002384186	0.008392334	-0.260253906	0.713134766	-0.852050781	891.58	-8.118673979	3.838383105	-119.1229364	-71
52733	0	-0.023132324	-0.056091309	0.397460938	0.999999046	0.000125885	3.91E-05	8.77E-05	-0.578308105	-1.402282715	9.936523438	0.006294251	0.001955032	0.004386902	-0.260009766	0.713134766	-0.854980469	891.58	-8.106530405	3.844197507	-119.1260808	-71
52734	0	-0.023233414	-0.055010796	0.39686203	0.999999046	4.77E-05	-7.44E-05	1.53E-05	-0.580835342	-1.37526989	9.921550751	0.002384186	-0.00371933	0.000762939	-0.260253906	0.715332031	-0.858154297	891.56	-8.103706692	3.835838973	-119.1355197	-71
52735	0	-0.022155762	-0.055480957	0.395690918	0.999999046	4.20E-05	-0.000102043	4.20E-05	-0.553894043	-1.387023926	9.892272949	0.002098084	-0.005102158	0.002098084	-0.260253906	0.715332031	-0.858154297	891.58	-8.101269266	3.824602489	-119.1414725	-71
52736	0	-0.022445679	-0.055080414	0.396737099	0.999999046	1.62E-05	-0.000110626	8.77E-05	-0.561141968	-1.377010345	9.918427467	0.000810623	-0.005531311	0.004386902	-0.260009766	0.713134766	-0.857910156	891.64	-8.101364835	3.812979357	-119.1422423	-70
52737	0	-0.022338867	-0.054321289	0.394836426	0.999999046	2.67E-05	-4.10E-05	3.43E-05	-0.55847168	-1.358032227	9.870910645	0.001335144	-0.0020504	0.001716614	-0.260253906	0.715332031	-0.855224609	891.64	-8.100652381	3.808249102	-119.1499597	-70
52738	0	-0.022920609	-0.055031776	0.396794319	0.999999046	-8.77E-05	-9.16E-05	6.48E-05	-0.573015213	-1.375794411	9.919857979	-0.004386902	-0.004577637	0.003242493	-0.2578125	0.713134766	-0.852294922	891.58	-8.112708259	3.79816245	-119.1531479	-71
52739	0	-0.023254395	-0.055664063	0.396179199	0.999999046	8.77E-05	1.62E-05	6.10E-05	-0.581359863	-1.391601563	9.90447998	0.004386902	0.000810623	0.003051758	-0.2578125	0.713134766	-0.855224609	891.58	-8.104774204	3.800150222	-119.1586781	-71
52740	0	-0.023029327	-0.055897713	0.395272255	0.999999046	-1.24E-05	-7.25E-05	6.48E-05	-0.575733185	-1.397442818	9.881806374	-0.000619888	-0.003623962	0.003242493	-0.260009766	0.7109375	-0.857666016	891.58	-8.108187542	3.792041826	-119.1630532	-71
52741	0	-0.022460938	-0.055664063	0.395385742	0.999999046	4.20E-05	-7.15E-05	1.91E-05	-0.561523438	-1.391601563	9.884643555	0.002098083	-0.003576279	0.000953674	-0.2578125	0.713134766	-0.855224609	891.68	-8.105696292	3.783182246	-119.1718314	-71
52742	0	-0.022954941	-0.055508614	0.397712708	0.999999046	3.81E-06	0	9.06E-05	-0.57387352	-1.38771534	9.942817688	0.000190735	0	0.004529953	-0.2578125	0.715332031	-0.855224609	891.58	-8.107073925	3.783496762	-119.173502	-71
52743	0	-0.023193359	-0.056152344	0.397766113	0.999999046	-7.63E-06	7.34E-05	9.92E-05	-0.579833984	-1.403808594	9.944152832	-0.00038147	0.003671646	0.004959106	-0.260009766	0.713134766	-0.854980469	891.58	-8.109770243	3.792198304	-119.1761704	-71
52744	0	-0.022529602	-0.055849075	0.39568615	0.999999046	9.54E-07	0.000104904	8.30E-05	-0.563240051	-1.396226883	9.89215374	4.77E-05	0.005245209	0.004148483	-0.260009766	0.713134766	-0.854980469	891.6	-8.111629678	3.804098292	-119.1811786	-71
52745	0	-0.021728516	-0.054992676	0.39453125	0.999999046	1.53E-05	0.000184059	4.96E-05	-0.543212891	-1.374816895	9.86328125	0.000762939	0.009202957	0.002479553	-0.2578125	0.713134766	-0.855224609	891.54	-8.112142989	3.824290998	-119.1908291	-71
52746	0	-0.024260521	-0.05473423	0.397941589	0.999999046	0.000101089	6.29E-05	0.000133514	-0.606513023	-1.368355751	9.948539734	0.005054474	0.003147125	0.00667572	-0.255371094	0.713134766	-0.855224609	891.46	-8.101972603	3.83206709	-119.1885195	-71
52747	0	-0.024108887	-0.056213379	0.397888184	0.999999046	0.000102997	-8.68E-05	7.63E-05	-0.602722168	-1.405334473	9.94720459	0.005149841	-0.004339218	0.003814697	-0.2578125	0.715332031	-0.852539063	891.58	-8.091856044	3.821889295	-119.1905374	-71
52748	0	-0.025024414	-0.054785728	0.398025513	0.999999046	3.91E-05	-7.63E-06	4.48E-05	-0.625610352	-1.369643211	9.950637817	0.001955032	-0.00038147	0.002241135	-0.257568359	0.7109375	-0.854980469	891.58	-8.089316103	3.820192047	-119.1979924	-71
52749	0	-0.023254395	-0.054504395	0.39831543	0.999999046	0	-0.00014019	3.05E-05	-0.581359863	-1.362609863	9.957885742	0	-0.007009506	0.001525879	-0.257568359	0.713134766	-0.860839844	891.64	-8.091137093	3.803142626	-119.2047449	-71
52750	0	-0.023328781	-0.054381371	0.399785995	0.999999046	6.10E-05	-0.00022316	0.000155449	-0.583219528	-1.359534264	9.994649887	0.003051758	-0.01115799	0.007772446	-0.260009766	0.7109375	-0.854736328	891.58	-8.084836647	3.77861897	-119.1964974	-71
52751	0	-0.022766113	-0.055358887	0.397888184	0.999999046	-1.14E-05	-0.000395775	0.000125885	-0.569152832	-1.383972168	9.94720459	-0.000572205	-0.019788743	0.006294251	-0.2578125	0.715332031	-0.858154297	891.54	-8.0868516	3.73394806	-119.1876492	-71
52752	0	-0.02374649	-0.054080963	0.39790535	0.999999046	1.05E-05	-0.000253677	-2.38E-05	-0.593662262	-1.352024078	9.947633743	0.000524521	-0.012683869	-0.001192093	-0.260009766	0.713134766	-0.857910156	891.58	-8.087517716	3.702965834	-119.1988635	-71
52753	0	-0.022399902	-0.055236816	0.396362305	0.999999046	-6.10E-05	-0.000445366	-5.72E-05	-0.559997559	-1.38092041	9.909057617	-0.003051758	-0.022268296	-0.002861023	-0.257568359	0.713134766	-0.858154297	891.54	-8.096389879	3.649626775	-119.2099615	-71
52754	0	-0.0227108	-0.055532455	0.397657394	0.999999046	-6.48E-05	-0.000547409	0.000121117	-0.567770004	-1.388311386	9.94143486	-0.003242493	-0.027370454	0.006055832	-0.260009766	0.713134766	-0.854980469	891.56	-8.104283498	3.587550126	-119.1995455	-71
52755	0	-0.022094727	-0.05456543	0.395446777	0.999999046	-3.05E-05	-0.000525475	-1.14E-05	-0.552368164	-1.364135742	9.886169434	-0.001525879	-0.026273729	-0.000572205	-0.262451172	0.713378906	-0.854980469	891.58	-8.109155601	3.525781292	-119.204907	-72
52756	0	-0.021431923	-0.054530144	0.396747589	0.999999046	-4.48E-05	-0.00047493	6.48E-05	-0.535798073	-1.363253593	9.918689728	-0.002241135	-0.023746491	0.003242493	-0.260009766	0.713134766	-0.857910156	891.54	-8.115113141	3.470926025	-119.2017301	-71
52757	0	-0.02142334	-0.054992676	0.399597168	0.999999046	-1.53E-05	-0.000338554	0.000148773	-0.535583496	-1.374816895	9.989929199	-0.000762939	-0.01692772	0.00743866	-0.262451172	0.713378906	-0.854980469	891.58	-8.117180644	3.432856757	-119.1916825	-71
52758	0	-0.021292686	-0.055853844	0.397229195	0.999999046	1.34E-05	-0.000310898	5.25E-05	-0.532317162	-1.396346092	9.930729866	0.000667572	-0.015544892	0.002622604	-0.262451172	0.713378906	-0.854980469	891.52	-8.116651417	3.396339176	-119.1928969	-71
52759	0	-0.020690918	-0.05480957	0.396606445	0.999999046	-6.48E-05	-0.000174522	1.91E-05	-0.517272949	-1.370239258	9.915161133	-0.003242493	-0.00872612	0.000953674	-0.264892578	0.713378906	-0.851806641	891.6	-8.125386889	3.374709733	-119.2005781	-71
52760	0	-0.020371437	-0.054067612	0.39642334	0.999999046	6.20E-05	-0.000104904	3.72E-05	-0.509285927	-1.351690292	9.910583496	0.003099442	-0.005245209	0.001859665	-0.264892578	0.715576172	-0.852050781	891.54	-8.119440132	3.361222939	-119.2068919	-71
52761	0	-0.021728516	-0.056030273	0.40032959	0.999999046	8.39E-05	-0.000308037	0.000164032	-0.543212891	-1.400756836	10.00823975	0.004196167	-0.015401841	0.008201599	-0.262451172	0.713134766	-0.857910156	891.64	-8.109930408	3.326758569	-119.1953107	-71
52762	0	-0.022600174	-0.055956841	0.397972107	0.999999046	-5.91E-05	-0.000423431	-4.58E-05	-0.565004349	-1.398921013	9.949302673	-0.00295639	-0.02117157	-0.002288818	-0.262451172	0.713378906	-0.854980469	891.64	-8.11808914	3.275887264	-119.2053755	-71
52763	0	-0.022460938	-0.054870605	0.397155762	0.999999046	-0.000205994	-0.000338554	-4.58E-05	-0.561523438	-1.371765137	9.928894043	-0.010299683	-0.01692772	-0.002288818	-0.264892578	0.713378906	-0.857666016	891.58	-8.143098846	3.234730095	-119.2175347	-71
52764	0	-0.020112038	-0.054914474	0.396352768	0.999999046	-0.000239372	-0.000207901	1.14E-05	-0.502800941	-1.372861862	9.908819199	-0.011968613	-0.01039505	0.000572205	-0.264892578	0.713378906	-0.851806641	891.66	-8.171629921	3.209302716	-119.2250106	-71
52765	0	-0.020263672	-0.055786133	0.398620605	0.999999046	-0.000114441	-0.000330925	6.48E-05	-0.506591797	-1.39465332	9.965515137	-0.005722046	-0.01654625	0.003242493	-0.264892578	0.715576172	-0.852050781	891.58	-8.185359756	3.170784052	-119.2239724	-71
52766	0	-0.018420219	-0.056485176	0.397704124	0.999999046	2.10E-05	-0.000255585	-2.77E-05	-0.460505486	-1.412129402	9.942603111	0.001049042	-0.012779236	-0.001382828	-0.264892578	0.713378906	-0.851806641	891.66	-8.184225954	3.139219049	-119.2349163	-71
52767	0	-0.019287109	-0.055236816	0.398193359	0.999999046	0	-0.000159264	2.67E-05	-0.482177734	-1.38092041	9.954833984	0	-0.007963181	0.001335144	-0.264892578	0.713378906	-0.854736328	891.54	-8.185181579	3.119440179	-119.2413182	-71
52768	0	-0.019895554	-0.057127953	0.39758873	0.999999046	9.06E-05	-0.000349045	4.48E-05	-0.49738884	-1.428198814	9.939718246	0.004529953	-0.01745224	0.002241135	-0.267333984	0.715576172	-0.852050781	891.58	-8.175515659	3.078444836	-119.2426599	-70
52769	0	-0.021057129	-0.055725098	0.39642334	0.999999046	0.000102997	-0.000231743	2.67E-05	-0.526428223	-1.393127441	9.910583496	0.005149841	-0.011587143	0.001335144	-0.264892578	0.715576172	-0.857910156	891.68	-8.164621428	3.050551196	-119.2473042	-70
52770	0	-0.019656181	-0.056070328	0.395100594	0.999999046	-2.67E-05	-0.000305176	4.58E-05	-0.491404533	-1.401758194	9.877514839	-0.001335144	-0.015258789	0.002288818	-0.267333984	0.715576172	-0.852050781	891.58	-8.168423947	3.014668922	-119.2490756	-70
52771	0	-0.01953125	-0.055358887	0.395080566	0.999999046	-3.81E-06	-0.000224113	1.14E-05	-0.48828125	-1.383972168	9.87701416	-0.000190735	-0.011205673	0.000572205	-0.267333984	0.713378906	-0.851806641	891.54	-8.169852877	2.987458374	-119.2563369	-71
52772	0	-0.018439293	-0.055972099	0.395759583	0.999999046	1.24E-05	4.39E-05	0.000136375	-0.460982323	-1.399302483	9.893989563	0.000619888	0.002193451	0.006818771	-0.267333984	0.713378906	-0.848876953	891.58	-8.168912795	2.992666519	-119.2537182	-71
52773	0	-0.018005371	-0.055419922	0.398193359	0.999999046	0.0001297	0.000115395	-2.67E-05	-0.450134277	-1.385498047	9.954833984	0.006484985	0.00576973	-0.001335144	-0.264892578	0.713378906	-0.849121094	891.58	-8.155515117	3.003292852	-119.2699526	-71
52774	0	-0.017910957	-0.054830551	0.396554947	0.999999046	0.000116348	0.00030899	0.000189781	-0.447773933	-1.370763779	9.913873672	0.005817413	0.015449524	0.00948906	-0.267333984	0.713378906	-0.854736328	891.58	-8.142473409	3.039353805	-119.2661295	-71
52775	0	-0.020568848	-0.05657959	0.399597168	0.999999046	0.000225067	0.000267982	0.000282288	-0.514221191	-1.414489746	9.989929199	0.011253357	0.013399125	0.01411438	-0.264892578	0.713378906	-0.851806641	891.64	-8.116390877	3.072330045	-119.250267	-72
52776	0	-0.02209568	-0.056388855	0.398145676	0.999999046	0.000212669	4.01E-05	0.000110626	-0.552392006	-1.409721375	9.953641891	0.010633469	0.002002716	0.005531311	-0.264892578	0.713378906	-0.851806641	891.6	-8.092599636	3.07680557	-119.2502073	-72
52777	0	-0.02166748	-0.055236816	0.397094727	0.999999046	-0.000118256	2.00E-05	0.000114441	-0.541687012	-1.38092041	9.927368164	-0.005912781	0.001001358	0.005722046	-0.264892578	0.713378906	-0.857666016	891.66	-8.106675029	3.079183748	-119.2497944	-72
52778	0	-0.020292282	-0.054655075	0.397751808	0.999999046	5.53E-05	-2.48E-05	0.000117302	-0.507307053	-1.366376877	9.943795204	0.002765656	-0.001239777	0.005865097	-0.264892578	0.713378906	-0.857666016	891.58	-8.100750837	3.076561218	-119.248314	-72
52779	0	-0.019714355	-0.054931641	0.397705078	0.999999046	2.29E-05	-6.77E-05	0.000198364	-0.492858887	-1.373291016	9.942626953	0.001144409	-0.003385544	0.009918213	-0.262451172	0.713378906	-0.854980469	891.6	-8.097973079	3.070387934	-119.2359053	-72
52780	0	-0.019071579	-0.054784775	0.396855354	1	2.48E-05	-9.54E-07	-5.05E-05	-0.476789474	-1.36961937	9.921383858	0.001239777	-4.77E-05	-0.002527237	-0.264892578	0.713378906	-0.851806641	891.58	-8.096516141	3.067750113	-119.2536529	-71
52781	0	-0.020568848	-0.054626465	0.398681641	0.999999046	-4.96E-05	4.29E-05	-1.53E-05	-0.514221191	-1.365661621	9.967041016	-0.002479553	0.002145767	-0.000762939	-0.264648438	0.711181641	-0.857421875	891.48	-8.103352457	3.070711066	-119.268755	-71
52782	0	-0.020235062	-0.055949211	0.397392273	1	-2.00E-05	2.96E-05	1.05E-05	-0.505876541	-1.398730278	9.934806824	-0.001001358	0.001478195	0.000524521	-0.264892578	0.713378906	-0.851806641	891.64	-8.106650456	3.072609598	-119.2799917	-71
52783	0	-0.022094727	-0.055603027	0.39630127	0.999999046	6.10E-05	3.91E-05	7.25E-05	-0.552368164	-1.390075684	9.907531738	0.003051758	0.001955032	0.003623962	-0.264892578	0.713378906	-0.854736328	891.6	-8.100299179	3.076724225	-119.2845179	-71
52784	0	-0.020973206	-0.055064201	0.39526844	0.999999046	-8.11E-05	-3.43E-05	7.15E-05	-0.524330139	-1.376605034	9.881711006	-0.004053116	-0.001716614	0.003576279	-0.262451172	0.713378906	-0.852050781	891.6	-8.110160952	3.072567021	-119.2868535	-71
52785	0	-0.020812988	-0.05480957	0.397583008	0.999999046	0.000106812	8.49E-05	0.000190735	-0.520324707	-1.370239258	9.939575195	0.005340576	0.004243851	0.009536743	-0.264892578	0.713378906	-0.851806641	891.64	-8.097832159	3.083917235	-119.2787748	-71
52786	0	-0.020413399	-0.055815697	0.398872375	0.999999046	8.39E-05	9.35E-05	0.000132561	-0.510334969	-1.395392418	9.971809387	0.004196167	0.004673004	0.006628037	-0.264892578	0.713378906	-0.851806641	891.66	-8.088493837	3.095329977	-119.2775016	-71
52787	0	-0.020874023	-0.056152344	0.398071289	0.999999046	1.53E-05	0.000206947	4.58E-05	-0.521850586	-1.403808594	9.951782227	0.000762939	0.010347366	0.002288818	-0.262695313	0.715576172	-0.854980469	891.64	-8.087685005	3.118269379	-119.2867543	-71
52788	0	-0.019333839	-0.055650711	0.395379066	0.999999046	9.44E-05	0.000413895	0.000133514	-0.483345985	-1.391267776	9.884476662	0.004720688	0.020694733	0.00667572	-0.262451172	0.715576172	-0.857910156	891.58	-8.077474108	3.166071497	-119.2898308	-71
52789	0	-0.02130127	-0.0546875	0.398193359	0.999999046	0.000137329	0.000386238	0.000171661	-0.532531738	-1.3671875	9.954833984	0.006866455	0.019311906	0.008583069	-0.262451172	0.713378906	-0.854980469	891.54	-8.062042816	3.211395466	-119.288805	-71
52790	0	-0.021932602	-0.055364609	0.398313522	0.999999046	0.000127792	8.20E-05	8.01E-05	-0.548315048	-1.384115219	9.957838058	0.006389618	0.0041008	0.004005432	-0.262451172	0.7109375	-0.857666016	891.64	-8.048013021	3.220790998	-119.2940169	-71
52791	0	-0.023193359	-0.055969238	0.399047852	0.999999046	0.000175476	0.00017643	7.25E-05	-0.579833984	-1.399230957	9.976196289	0.008773804	0.008821488	0.003623962	-0.262451172	0.713134766	-0.857910156	891.66	-8.028681551	3.240895491	-119.3010399	-71
52792	0	-0.022425652	-0.054118156	0.398020744	0.999999046	-4.29E-05	7.25E-05	7.92E-05	-0.560641289	-1.352953911	9.950518608	-0.002145767	0.003623962	0.003957748	-0.262451172	0.713134766	-0.857910156	891.58	-8.034189215	3.249383669	-119.3056819	-71
52793	0	-0.02142334	-0.054504395	0.397766113	0.999999046	3.43E-05	0.000130653	3.05E-05	-0.535583496	-1.362609863	9.944152832	0.001716614	0.006532669	0.001525879	-0.262451172	0.713134766	-0.857910156	891.64	-8.031182355	3.263709625	-119.3167954	-71
52794	0	-0.021347046	-0.055269241	0.397886276	0.999999046	0.000101089	1.91E-06	9.92E-05	-0.533676147	-1.381731033	9.947156906	0.005054474	9.54E-05	0.004959106	-0.262451172	0.7109375	-0.857666016	891.52	-8.019975487	3.264532167	-119.3185152	-71
52795	0	-0.021911621	-0.05480957	0.397094727	0.999999046	3.81E-05	0.000199318	2.29E-05	-0.547790527	-1.370239258	9.927368164	0.001907349	0.009965897	0.001144409	-0.260009766	0.713134766	-0.854980469	891.64	-8.016648127	3.286573692	-119.3301699	-71
52796	0	-0.022194862	-0.055145264	0.398921013	0.999999046	3.72E-05	0.000179291	0.000137329	-0.554871559	-1.378631592	9.973025322	0.001859665	0.008964539	0.006866455	-0.260009766	0.713134766	-0.857910156	891.58	-8.012670112	3.308208128	-119.3289591	-71
52797	0	-0.022827148	-0.055664063	0.397338867	0.999999046	9.92E-05	0.000164986	5.72E-05	-0.570678711	-1.391601563	9.93347168	0.004959106	0.008249283	0.002861023	-0.260009766	0.7109375	-0.857666016	891.6	-8.002143304	3.327004256	-119.3373067	-71
52798	0	-0.023208618	-0.055155754	0.396792412	0.999999046	-5.72E-06	0.000118256	6.77E-05	-0.580215454	-1.378893852	9.919810295	-0.000286102	0.005912781	0.003385544	-0.260009766	0.713134766	-0.854980469	891.58	-8.003545805	3.340743342	-119.3430264	-71
52799	0	-0.022644043	-0.054504395	0.396972656	0.999999046	-2.29E-05	6.20E-05	3.81E-05	-0.566101074	-1.362609863	9.924316406	-0.001144409	0.003099442	0.001907349	-0.260009766	0.713134766	-0.854980469	891.54	-8.00704553	3.347666645	-119.3512867	-71
52800	0	-0.022697449	-0.054521561	0.397516251	0.999999046	0.000163078	6.29E-05	0.000102997	-0.567436218	-1.363039017	9.937906265	0.008153915	0.003147125	0.005149841	-0.257568359	0.7109375	-0.857910156	891.64	-7.988786492	3.355772332	-119.3517634	-71
52801	0	-0.023071289	-0.055114746	0.396911621	0.999999046	0.000167847	0.000134468	0	-0.576782227	-1.377868652	9.922790527	0.008392334	0.006723404	0	-0.257568359	0.713134766	-0.860839844	891.54	-7.970756464	3.370412671	-119.364695	-71
52802	0	-0.023300171	-0.05479908	0.397411346	0.999999046	-3.43E-05	0.000131607	-3.91E-05	-0.582504272	-1.369976997	9.935283661	-0.001716614	0.006580353	-0.001955032	-0.260009766	0.7109375	-0.857666016	891.58	-7.976169901	3.384166348	-119.383861	-71
52803	0	-0.023071289	-0.053955078	0.397644043	0.999999046	3.81E-06	9.25E-05	1.91E-05	-0.576782227	-1.348876953	9.941101074	0.000190735	0.00462532	0.000953674	-0.257568359	0.7109375	-0.860839844	891.6	-7.976747797	3.394448408	-119.3946827	-71
52804	0	-0.023695946	-0.054256439	0.397212029	0.999999046	2.57E-05	0.000120163	4.96E-05	-0.592398643	-1.35641098	9.930300713	0.00128746	0.006008148	0.002479553	-0.257568359	0.713134766	-0.858154297	891.54	-7.974614704	3.408423646	-119.401736	-71
52805	0	-0.023620605	-0.054870605	0.397705078	0.999999046	6.48E-05	-2.86E-06	4.96E-05	-0.590515137	-1.371765137	9.942626953	0.003242493	-0.000143051	0.002479553	-0.257568359	0.713134766	-0.858154297	891.52	-7.967895983	3.408494488	-119.4068636	-71
52806	0	-0.024416924	-0.0548172	0.398077965	0.999999046	3.81E-06	5.34E-05	7.92E-05	-0.610423088	-1.370429993	9.95194912	0.000190735	0.002670288	0.003957748	-0.2578125	0.713134766	-0.855224609	891.6	-7.968032422	3.415514745	-119.4095838	-71
52807	0	-0.023193359	-0.054992676	0.393798828	0.999999046	-7.25E-05	0.000195503	-3.43E-05	-0.579833984	-1.374816895	9.844970703	-0.003623962	0.009775162	-0.001716614	-0.257568359	0.713134766	-0.860839844	891.64	-7.977865849	3.43689609	-119.4279814	-71
52808	0	-0.023710251	-0.054197311	0.395978928	0.999999046	1.81E-05	0.000291824	8.01E-05	-0.592756271	-1.354932785	9.89947319	0.000905991	0.014591217	0.004005432	-0.255371094	0.712890625	-0.858154297	891.58	-7.976618625	3.471078753	-119.4338133	-71
52809	0	-0.024414063	-0.0546875	0.397644043	0.999999046	0.000259399	6.58E-05	0.000148773	-0.610351563	-1.3671875	9.941101074	0.012969971	0.003290176	0.00743866	-0.255371094	0.712890625	-0.861083984	891.58	-7.947034532	3.48077062	-119.4285642	-71
52810	0	-0.025276184	-0.054046631	0.398340225	0.999999046	0.000188828	-0.000101089	7.63E-05	-0.631904602	-1.351165771	9.95850563	0.009441376	-0.005054474	0.003814697	-0.255126953	0.710693359	-0.860839844	891.52	-7.925850465	3.470476987	-119.429324	-71
52811	0	-0.025390625	-0.054443359	0.398071289	0.999999046	0.000164032	-0.000151634	0.000167847	-0.634765625	-1.361083984	9.951782227	0.008201599	-0.007581711	0.008392334	-0.255126953	0.710693359	-0.857910156	891.58	-7.906833083	3.456004156	-119.4185406	-71
52812	0	-0.024860382	-0.054426193	0.399194717	0.999999046	0.000155449	-0.000265121	9.16E-05	-0.621509552	-1.360654831	9.979867935	0.007772446	-0.013256073	0.004577637	-0.257568359	0.7109375	-0.858154297	891.54	-7.889220231	3.427528518	-119.4158151	-71
52813	0	-0.025268555	-0.054016113	0.398620605	0.999999046	3.05E-05	-0.000319481	3.05E-05	-0.631713867	-1.350402832	9.965515137	0.001525879	-0.015974045	0.001525879	-0.257568359	0.7109375	-0.858154297	891.58	-7.886276816	3.392037087	-119.41879	-71
52814	0	-0.023859024	-0.053380966	0.396258354	0.999999046	-0.000123978	-0.000339508	-1.91E-05	-0.596475601	-1.334524155	9.906458855	-0.006198883	-0.016975403	-0.000953674	-0.255126953	0.708740234	-0.863769531	891.64	-7.901322764	3.353551949	-119.4264367	-71
52815	0	-0.024108887	-0.053894043	0.397521973	0.999999046	3.81E-06	-0.000498772	1.53E-05	-0.602722168	-1.347351074	9.938049316	0.000190735	-0.024938584	0.000762939	-0.257568359	0.7109375	-0.858154297	891.58	-7.90133297	3.297610233	-119.4274637	-71
52816	0	-0.022859573	-0.055539131	0.397361755	0.999999046	4.77E-06	-0.000513077	0.000121117	-0.571489334	-1.388478279	9.934043884	0.000238419	-0.02565384	0.006055832	-0.255126953	0.7109375	-0.861083984	891.6	-7.900601783	3.241748019	-119.4144933	-70
52817	0	-0.023376465	-0.054504395	0.396911621	0.999999046	-4.58E-05	-0.000460625	1.53E-05	-0.584411621	-1.362609863	9.922790527	-0.002288818	-0.023031236	0.000762939	-0.260009766	0.711181641	-0.854980469	891.48	-7.906420192	3.190251761	-119.4166495	-71
52818	0	-0.022341728	-0.05472374	0.396438599	0.999999046	-4.77E-05	-0.000469208	-1.91E-05	-0.558543205	-1.368093491	9.910964966	-0.002384186	-0.023460389	-0.000953674	-0.2578125	0.711181641	-0.855224609	891.52	-7.912691858	3.137287506	-119.4205885	-70
52819	0	-0.022216797	-0.055541992	0.398010254	0.999999046	-5.72E-05	-0.000472069	8.77E-05	-0.555419922	-1.388549805	9.950256348	-0.002861023	-0.02360344	0.004386902	-0.257568359	0.7109375	-0.858154297	891.58	-7.919449229	3.085736579	-119.4122208	-70
52820	0	-0.022277832	-0.054424286	0.397536278	0.999999046	-6.96E-05	-0.000350952	3.43E-05	-0.556945801	-1.360607147	9.938406944	-0.003480911	-0.017547608	0.001716614	-0.260253906	0.711181641	-0.852050781	891.6	-7.928064403	3.047163363	-119.4128222	-70
52821	0	-0.022216797	-0.054931641	0.396911621	0.999999046	3.81E-06	-0.000319481	3.81E-06	-0.555419922	-1.373291016	9.922790527	0.000190735	-0.015974045	0.000190735	-0.262451172	0.711181641	-0.857910156	891.64	-7.928506662	3.011763645	-119.4191074	-71
52822	0	-0.021718979	-0.054135323	0.396437645	0.999999046	-0.000148773	-0.000297546	0.000133514	-0.542974472	-1.353383064	9.910941124	-0.00743866	-0.01487732	0.00667572	-0.262451172	0.713378906	-0.857910156	891.58	-7.945668911	2.980976899	-119.4099895	-70
52823	0	-0.020568848	-0.055053711	0.395202637	0.999999046	-0.000118256	-0.000243187	4.20E-05	-0.514221191	-1.376342773	9.880065918	-0.005912781	-0.012159348	0.002098084	-0.264892578	0.713623047	-0.857910156	891.54	-7.959966012	2.954934199	-119.4136317	-70
52824	0	-0.021722794	-0.054963112	0.397397041	0.999999046	-0.000103951	-0.000144958	-3.81E-06	-0.543069839	-1.374077797	9.934926033	-0.005197525	-0.007247925	-0.000190735	-0.264892578	0.713623047	-0.852050781	891.52	-7.972984456	2.939398554	-119.4232713	-70
52825	0	-0.019470215	-0.054504395	0.393859863	0.999999046	-1.53E-05	-1.05E-05	-4.20E-05	-0.486755371	-1.362609863	9.846496582	-0.000762939	-0.000524521	-0.002098083	-0.262451172	0.711181641	-0.852050781	891.6	-7.976180794	2.938500751	-119.4384177	-70
52826	0	-0.020860672	-0.055251122	0.398923874	0.999999046	-5.72E-06	5.91E-05	9.06E-05	-0.5215168	-1.381278038	9.973096848	-0.000286102	0.00295639	0.004529953	-0.262695313	0.713378906	-0.854980469	891.54	-7.977581662	2.947654058	-119.4393373	-70
52827	0	-0.02130127	-0.055603027	0.39831543	0.999999046	4.20E-05	4.77E-06	6.48E-05	-0.532531738	-1.390075684	9.957885742	0.002098083	0.000238419	0.003242493	-0.262695313	0.713378906	-0.854980469	891.54	-7.973659221	2.950291514	-119.4423494	-70
52828	0	-0.022898674	-0.055810928	0.398319244	0.999999046	0.000170708	-8.20E-05	7.63E-05	-0.57246685	-1.395273209	9.95798111	0.008535385	-0.0041008	0.003814697	-0.264892578	0.713623047	-0.857910156	891.64	-7.954894094	2.943402789	-119.4444175	-70
52829	0	-0.021911621	-0.055541992	0.398071289	0.999999046	0.00012207	-0.000247002	0.000160217	-0.547790527	-1.388549805	9.951782227	0.006103516	-0.012350083	0.008010864	-0.262695313	0.713378906	-0.852294922	891.66	-7.941114895	2.919211514	-119.4317891	-70
52830	0	-0.021853447	-0.054095268	0.39962101	0.999999046	9.54E-06	-0.000255585	7.63E-05	-0.546336174	-1.352381706	9.990525246	0.000476837	-0.012779236	0.003814697	-0.267333984	0.713623047	-0.857666016	891.64	-7.940678419	2.892804127	-119.4325317	-70
52831	0	-0.019592285	-0.054382324	0.399475098	0.999999046	-5.72E-05	-0.000388145	1.91E-05	-0.489807129	-1.359558105	9.986877441	-0.002861023	-0.019407273	0.000953674	-0.262451172	0.711181641	-0.852050781	891.6	-7.948080852	2.850430555	-119.4335218	-70
52832	0	-0.02044487	-0.053084373	0.397226334	0.999999046	2.19E-05	-0.000225067	-0.000107765	-0.51112175	-1.327109337	9.93065834	0.001096725	-0.011253357	-0.00538826	-0.264892578	0.711181641	-0.857666016	891.6	-7.947179605	2.824601781	-119.453661	-70
52833	0	-0.020751953	-0.0546875	0.399291992	0.999999046	-2.67E-05	-0.000288963	7.63E-05	-0.518798828	-1.3671875	9.982299805	-0.001335144	-0.014448166	0.003814697	-0.264892578	0.711181641	-0.857666016	891.66	-7.950758726	2.794503494	-119.4515044	-70
52834	0	-0.021202087	-0.054888725	0.396431923	0.999999046	-5.53E-05	-0.000339508	-3.05E-05	-0.530052185	-1.372218132	9.910798073	-0.002765656	-0.016975403	-0.001525879	-0.264892578	0.711181641	-0.857666016	891.54	-7.958186623	2.757079781	-119.4601224	-70
52835	0	-0.020751953	-0.054077148	0.395568848	0.999999046	-0.000102997	-0.000224113	-4.96E-05	-0.518798828	-1.351928711	9.889221191	-0.005149841	-0.011205673	-0.002479553	-0.264892578	0.711425781	-0.851806641	891.6	-7.971246292	2.73254212	-119.4716227	-70
52836	0	-0.01965332	-0.05556488	0.395932198	0.999999046	-0.000138283	-0.000196457	-6.48E-05	-0.491333008	-1.389122009	9.898304939	-0.006914139	-0.009822846	-0.003242493	-0.267333984	0.711425781	-0.854736328	891.6	-7.9885024	2.710939026	-119.4875309	-70
52837	0	-0.020080566	-0.05670166	0.396484375	0.999999046	-4.96E-05	1.24E-05	3.05E-05	-0.50201416	-1.417541504	9.912109375	-0.002479553	0.000619888	0.001525879	-0.267333984	0.711425781	-0.854736328	891.64	-7.995335289	2.714622498	-119.4959434	-70
52838	0	-0.01893425	-0.055641174	0.39495182	0.999999046	-5.72E-06	-4.39E-05	6.39E-05	-0.473356247	-1.391029358	9.873795509	-0.000286102	-0.002193451	0.003194809	-0.267333984	0.711425781	-0.851806641	891.64	-7.996969033	2.712465082	-119.4992663	-70
52839	0	-0.018615723	-0.056152344	0.396606445	0.999999046	8.77E-05	-3.34E-05	0.000183105	-0.465393066	-1.403808594	9.915161133	0.004386902	-0.00166893	0.009155274	-0.267333984	0.711425781	-0.851806641	891.54	-7.987322629	2.713390159	-119.4892726	-70
52840	0	-0.019403458	-0.056625366	0.395884514	0.999999046	1.62E-05	8.58E-05	6.01E-05	-0.485086441	-1.415634155	9.897112846	0.000810623	0.004291534	0.003004074	-0.267333984	0.713623047	-0.852050781	891.6	-7.986716508	2.725917806	-119.4941792	-70
52841	0	-0.01953125	-0.05480957	0.395324707	0.999999046	9.16E-05	0.000145912	3.43E-05	-0.48828125	-1.370239258	9.883117676	0.004577637	0.007295609	0.001716614	-0.267333984	0.711425781	-0.854736328	891.58	-7.977670241	2.744891089	-119.5045476	-70
52842	0	-0.020810127	-0.054553032	0.397098541	0.999999046	0.000261307	0.000255585	0.000202179	-0.520253181	-1.363825798	9.927463531	0.013065339	0.012779236	0.010108948	-0.262451172	0.711181641	-0.854980469	891.58	-7.948315833	2.779070837	-119.4933518	-70
52843	0	-0.02142334	-0.055419922	0.399291992	0.999999046	0.000198364	4.29E-05	0.000110626	-0.535583496	-1.385498047	9.982299805	0.009918213	0.002145767	0.005531311	-0.264892578	0.711181641	-0.857666016	891.54	-7.926537372	2.787762176	-119.4919665	-70
52844	0	-0.022018433	-0.054404259	0.396137238	0.999999046	-3.15E-05	3.81E-06	0.000121117	-0.550460815	-1.360106468	9.903430939	-0.001573563	0.000190735	0.006055832	-0.262451172	0.713378906	-0.860839844	891.54	-7.931001847	2.792316346	-119.4857311	-70
52845	0	-0.021484375	-0.054321289	0.397949219	0.999999046	3.81E-06	0.000107765	0.000110626	-0.537109375	-1.358032227	9.948730469	0.000190735	0.00538826	0.005531311	-0.262451172	0.711181641	-0.857910156	891.54	-7.931543419	2.808598976	-119.4835744	-70
52846	0	-0.020971298	-0.054252625	0.396784782	0.999999046	-1.91E-06	-4.77E-05	0.000102043	-0.524282455	-1.356315613	9.91961956	-9.54E-05	-0.002384186	0.005102158	-0.264892578	0.711425781	-0.854736328	891.58	-7.932656413	2.807167703	-119.4819692	-71
52847	0	-0.020690918	-0.054626465	0.396057129	0.999999046	-1.14E-05	8.58E-06	0.000179291	-0.517272949	-1.365661621	9.901428223	-0.000572205	0.000429153	0.008964539	-0.262451172	0.711181641	-0.852050781	891.54	-7.934480959	2.8133965	-119.4700249	-70
52848	0	-0.020899773	-0.054018021	0.394712448	0.999999046	0.000123024	0.00015831	6.10E-05	-0.522494316	-1.350450516	9.867811203	0.006151199	0.007915497	0.003051758	-0.264892578	0.711181641	-0.857666016	891.54	-7.921665819	2.834809786	-119.4773976	-71
52849	0	-0.02130127	-0.055358887	0.398193359	0.999999046	4.96E-05	0.000115395	0.000183105	-0.532531738	-1.383972168	9.954833984	0.002479553	0.00576973	0.009155274	-0.264892578	0.711425781	-0.851806641	891.54	-7.916580356	2.853345071	-119.4696509	-71
52850	0	-0.022023201	-0.055312157	0.396484375	0.999999046	0.000127792	5.15E-05	0.000118256	-0.550580025	-1.382803917	9.912109375	0.006389618	0.002574921	0.005912781	-0.262451172	0.711181641	-0.860595703	891.54	-7.902892924	2.863701484	-119.467041	-71
52851	0	-0.022399902	-0.054870605	0.395874023	0.999999046	1.14E-05	-2.19E-05	0.000106812	-0.559997559	-1.371765137	9.896850586	0.000572205	-0.001096725	0.005340576	-0.262451172	0.711181641	-0.854980469	891.52	-7.902575332	2.865654243	-119.4639014	-71
52852	0	-0.021417618	-0.054796219	0.396791458	0.999999046	3.15E-05	2.48E-05	0.000113487	-0.535440445	-1.369905472	9.919786453	0.001573563	0.001239777	0.005674362	-0.262451172	0.711181641	-0.854980469	891.6	-7.899982338	2.87307165	-119.4609236	-71
52853	0	-0.021728516	-0.05456543	0.397094727	0.999999046	9.92E-05	9.25E-05	0.000167847	-0.543212891	-1.364135742	9.927368164	0.004959106	0.00462532	0.008392334	-0.262451172	0.711181641	-0.857910156	891.7	-7.889381309	2.889096461	-119.4535557	-71
52854	0	-0.021026611	-0.053931236	0.396430016	0.999999046	2.86E-05	1.14E-05	0.000133514	-0.525665283	-1.348280907	9.910750389	0.001430511	0.000572205	0.00667572	-0.262451172	0.713378906	-0.857910156	891.6	-7.886980068	2.895405167	-119.4476588	-71
52855	0	-0.021850586	-0.054016113	0.39654541	0.999999046	-3.81E-05	1.24E-05	4.96E-05	-0.546264648	-1.350402832	9.913635254	-0.001907349	0.000619888	0.002479553	-0.260009766	0.711181641	-0.854980469	891.52	-7.892697135	2.90056659	-119.4496426	-71
52856	0	-0.021621704	-0.053983688	0.396174431	0.999999046	-6.01E-05	3.62E-05	8.39E-05	-0.540542603	-1.349592209	9.904360771	-0.003004074	0.001811981	0.004196167	-0.260009766	0.711181641	-0.857910156	891.64	-7.900738258	2.909023452	-119.4488494	-71
52857	0	-0.022155762	-0.05456543	0.397583008	0.999999046	0.000114441	4.77E-06	1.14E-05	-0.553894043	-1.364135742	9.939575195	0.005722046	0.000238419	0.000572205	-0.264892578	0.711181641	-0.857666016	891.54	-7.889185826	2.912834789	-119.4612065	-70
52858	0	-0.021061897	-0.05410862	0.393688202	0.999999046	0.000106812	0.000198364	2.96E-05	-0.526547432	-1.352715492	9.842205048	0.005340576	0.009918213	0.001478195	-0.264892578	0.711181641	-0.857666016	891.7	-7.878573632	2.93892835	-119.4746579	-70
52859	0	-0.022399902	-0.054321289	0.397277832	0.999999046	0.000247955	0.000187874	0.000198364	-0.559997559	-1.358032227	9.931945801	0.012397766	0.009393692	0.009918213	-0.260009766	0.711181641	-0.857910156	891.54	-7.850790164	2.966552595	-119.4633561	-70
52860	0	-0.023058891	-0.054786682	0.397662163	0.999999046	0.000296593	1.91E-06	0.000137329	-0.576472282	-1.369667053	9.94155407	0.014829636	9.54E-05	0.006866455	-0.260009766	0.711181641	-0.854980469	891.6	-7.817670449	2.972198028	-119.455516	-70
52861	0	-0.023376465	-0.054626465	0.396179199	0.999999046	0.000205994	-4.48E-05	8.39E-05	-0.584411621	-1.365661621	9.90447998	0.010299683	-0.002241135	0.004196167	-0.260009766	0.711181641	-0.860839844	891.6	-7.795255636	2.971810554	-119.4537179	-70
52862	0	-0.022678375	-0.053544044	0.396203041	0.999999046	-3.05E-05	4.96E-05	7.15E-05	-0.566959381	-1.338601112	9.905076027	-0.001525879	0.002479553	0.003576279	-0.260009766	0.711181641	-0.863769531	891.58	-7.800091075	2.982017075	-119.4555143	-70
52863	0	-0.022705078	-0.054016113	0.396362305	0.999999046	2.29E-05	0.000164986	3.81E-05	-0.567626953	-1.350402832	9.909057617	0.001144409	0.008249283	0.001907349	-0.262451172	0.711181641	-0.857910156	891.54	-7.799121743	3.004867686	-119.4652818	-70
52864	0	-0.021252632	-0.053630829	0.396967888	0.999999046	2.19E-05	0.000152588	5.34E-05	-0.531315804	-1.340770721	9.924197197	0.001096725	0.007629395	0.002670288	-0.262451172	0.711181641	-0.860595703	891.52	-7.798160052	3.026526132	-119.4738053	-70
52865	0	-0.022216797	-0.053466797	0.396118164	0.999999046	5.34E-05	0.000126839	-3.43E-05	-0.555419922	-1.336669922	9.902954102	0.002670288	0.006341934	-0.001716614	-0.260009766	0.708984375	-0.857666016	891.6	-7.794092309	3.043920637	-119.4898894	-70
52866	0	-0.02316761	-0.054098129	0.397215843	0.999999046	-7.82E-05	7.25E-05	0.000124931	-0.579190254	-1.352453232	9.93039608	-0.003910065	0.003623962	0.006246567	-0.257568359	0.7109375	-0.860839844	891.54	-7.804116235	3.057680544	-119.483642	-70
52867	0	-0.0234375	-0.05456543	0.396789551	0.999999046	-2.67E-05	0.000184059	4.20E-05	-0.5859375	-1.364135742	9.91973877	-0.001335144	0.009202957	0.002098084	-0.257568359	0.708740234	-0.860839844	891.58	-7.808880962	3.082884878	-119.4906024	-69
52868	0	-0.024258614	-0.053730965	0.396166801	0.999999046	2.86E-06	8.96E-05	8.01E-05	-0.60646534	-1.343274117	9.904170036	0.000143051	0.004482269	0.004005432	-0.259765625	0.706542969	-0.860351563	891.7	-7.809954961	3.098064563	-119.4962561	-69
52869	0	-0.023132324	-0.053833008	0.396850586	0.999999046	-7.63E-05	0.000206947	8.77E-05	-0.578308105	-1.345825195	9.921264648	-0.003814697	0.010347366	0.004386902	-0.257568359	0.7109375	-0.858154297	891.64	-7.820146835	3.126715226	-119.4972534	-69
52870	0	-0.023000717	-0.053768158	0.397503853	0.999999046	-1.91E-06	4.39E-05	8.39E-05	-0.575017929	-1.344203949	9.937596321	-9.54E-05	0.002193451	0.004196167	-0.257568359	0.7109375	-0.858154297	891.58	-7.82169067	3.136806935	-119.4964191	-69
52871	0	-0.02331543	-0.053588867	0.397094727	0.999999046	-7.63E-06	0.000153542	0.000102997	-0.582885742	-1.33972168	9.927368164	-0.00038147	0.007677078	0.005149841	-0.257568359	0.7109375	-0.858154297	891.66	-7.823849475	3.159674454	-119.4956799	-68
52872	0	-0.02320385	-0.054201126	0.396597862	0.999999046	2.57E-05	5.15E-05	4.20E-05	-0.580096245	-1.355028152	9.914946556	0.00128746	0.002574921	0.002098083	-0.257568359	0.708740234	-0.863769531	891.52	-7.822499517	3.170019563	-119.5029282	-68
52873	0	-0.024536133	-0.053833008	0.396606445	0.999999046	7.63E-06	0.000203133	1.91E-05	-0.61340332	-1.345825195	9.915161133	0.00038147	0.010156632	0.000953674	-0.257568359	0.708740234	-0.863769531	891.52	-7.823503508	3.197300385	-119.5155051	-69
52874	0	-0.024271965	-0.053032875	0.396474838	0.999999046	4.39E-05	4.77E-05	0.000156403	-0.606799126	-1.325821877	9.911870956	0.002193451	0.002384186	0.007820129	-0.255126953	0.7109375	-0.864013672	891.6	-7.819303717	3.209130374	-119.5055524	-69
52875	0	-0.024902344	-0.054321289	0.397888184	0.999999046	1.14E-05	5.44E-05	9.92E-05	-0.622558594	-1.358032227	9.94720459	0.000572205	0.002717972	0.004959106	-0.257568359	0.7109375	-0.863769531	891.6	-7.819209561	3.220900815	-119.5057493	-69
52876	0	-0.024345398	-0.054368973	0.394956589	0.999999046	-0.000113487	0.000106812	-2.38E-05	-0.608634949	-1.359224319	9.873914719	-0.005674362	0.005340576	-0.001192093	-0.257568359	0.708740234	-0.860839844	891.64	-7.834306491	3.236755121	-119.5221039	-69
52877	0	-0.024658203	-0.053955078	0.396057129	0.999999046	-1.14E-05	0.000248909	4.58E-05	-0.616455078	-1.348876953	9.901428223	-0.000572205	0.01244545	0.002288818	-0.255126953	0.708740234	-0.863769531	891.54	-7.8373956	3.269881625	-119.5305512	-69
52878	0	-0.025592804	-0.054328918	0.396653175	0.999999046	0.00015831	8.58E-05	0.000225067	-0.639820099	-1.358222961	9.916329384	0.007915497	0.004291534	0.011253357	-0.255371094	0.713134766	-0.858398438	891.54	-7.819737535	3.287383004	-119.5125871	-69
52879	0	-0.02557373	-0.053833008	0.397460938	0.999999046	8.77E-05	-1.43E-05	0.000205994	-0.639343262	-1.345825195	9.936523438	0.004386902	-0.000715256	0.010299683	-0.255126953	0.708740234	-0.857910156	891.6	-7.810194419	3.29329156	-119.498426	-69
52880	0	-0.026133537	-0.053752899	0.398324966	0.999999046	-8.11E-05	-6.48E-05	7.63E-06	-0.653338432	-1.343822479	9.958124161	-0.004053116	-0.003242493	0.00038147	-0.255126953	0.706542969	-0.863525391	891.64	-7.821233186	3.290468465	-119.508641	-69
52881	0	-0.025085449	-0.053344727	0.397949219	0.999999046	2.67E-05	-2.86E-06	0.0001297	-0.62713623	-1.333618164	9.948730469	0.001335144	-0.000143051	0.006484985	-0.255126953	0.7109375	-0.864013672	891.46	-7.819141608	3.296630144	-119.5028344	-69
52882	0	-0.02564621	-0.05343914	0.398928642	0.999999046	8.58E-05	-2.86E-05	0.000163078	-0.641155243	-1.335978508	9.973216057	0.004291534	-0.001430511	0.008153915	-0.255126953	0.7109375	-0.864013672	891.52	-7.809996489	3.300454914	-119.4929695	-69
52883	0	-0.024658203	-0.05279541	0.398010254	0.999999046	-3.81E-06	-0.00014019	0.000114441	-0.616455078	-1.319885254	9.950256348	-0.000190735	-0.007009506	0.005722046	-0.255126953	0.708740234	-0.860839844	891.64	-7.811285195	3.290870339	-119.4878843	-69
52884	0	-0.026267052	-0.05328083	0.399176598	0.999999046	-6.68E-06	-0.000162125	0.000166893	-0.656676292	-1.33202076	9.97941494	-0.000333786	-0.008106232	0.00834465	-0.255126953	0.708740234	-0.866699219	891.7	-7.812501293	3.279709696	-119.4775364	-69
52885	0	-0.026123047	-0.054870605	0.396911621	0.999999046	-9.92E-05	-0.000266075	0.000225067	-0.653076172	-1.371765137	9.922790527	-0.004959107	-0.013303757	0.011253357	-0.255126953	0.706542969	-0.857910156	891.54	-7.823906211	3.257752779	-119.4589634	-70
52886	0	-0.025508881	-0.054144859	0.397097588	0.999999046	-6.29E-05	-0.000337601	0.000159264	-0.637722015	-1.353621483	9.92743969	-0.003147125	-0.016880036	0.007963181	-0.257568359	0.7109375	-0.863769531	891.58	-7.831538615	3.226722584	-119.4475045	-70
52887	0	-0.024597168	-0.054138184	0.39642334	0.999999046	-0.00012207	-0.000441551	0.000141144	-0.614929199	-1.35345459	9.910583496	-0.006103516	-0.022077561	0.00705719	-0.255126953	0.708740234	-0.863769531	891.58	-7.845988132	3.183646938	-119.4340341	-69
52888	0	-0.022918701	-0.054106712	0.396918297	0.999999046	-3.15E-05	-0.000391006	0.000102043	-0.572967529	-1.352667809	9.92295742	-0.001573563	-0.019550324	0.005102158	-0.255126953	0.708740234	-0.863769531	891.54	-7.850353908	3.145662637	-119.4250963	-70
52889	0	-0.02355957	-0.054077148	0.397827148	0.999999046	-6.48E-05	-0.000224113	8.01E-05	-0.588989258	-1.351928711	9.945678711	-0.003242493	-0.011205673	0.004005432	-0.257568359	0.708740234	-0.860839844	891.54	-7.858823444	3.126288389	-119.4239975	-70
52890	0	-0.023450851	-0.053393364	0.397158623	0.999999046	-0.000108719	-0.000411987	-1.62E-05	-0.586271286	-1.334834099	9.928965569	-0.005435944	-0.020599366	-0.000810623	-0.257568359	0.708740234	-0.860839844	891.64	-7.872713283	3.084089297	-119.4299028	-70
52891	0	-0.024108887	-0.053405762	0.397277832	0.999999046	-0.000125885	-0.00032711	8.39E-05	-0.602722168	-1.335144043	9.931945801	-0.006294251	-0.016355515	0.004196167	-0.257568359	0.708740234	-0.857910156	891.64	-7.887982586	3.053155449	-119.4247075	-70
