Counter	Temperature	VelInc_X	VelInc_Y	VelInc_Z	OriInc_w	OriInc_x	OriInc_y	OriInc_z	Acc_X	Acc_Y	Acc_Z	Gyr_X	Gyr_Y	Gyr_Z	Mag_X	Mag_Y	Mag_Z	Pressure	Roll	Pitch	Yaw	RSSI
25644	0	0.387054443	-0.073246002	0.076216698	0.99995327	0.007193565	0.002309799	0.005904198	9.676361084	-1.831150055	1.905417442	0.35968378	0.11549173	0.295214409	-0.603759766	0.202880859	0.765380859	895.74	-40.12126179	-75.73558628	-121.9294887	-73
25645	0	0.383056641	-0.064697266	0.078369141	0.99992466	0.010513306	0.003136635	0.005470276	9.576416016	-1.617431641	1.959228516	0.525678451	0.15683567	0.273520646	-0.602050781	0.224609375	0.7578125	895.8	-39.85643383	-75.05251422	-120.9775522	-74
25646	0	0.376775742	-0.049581528	0.072228432	0.999914169	0.010859489	0.00366497	0.006252289	9.419393539	-1.239538193	1.805710793	0.542989898	0.183253726	0.312623323	-0.609863281	0.251220703	0.741699219	895.68	-39.62314619	-74.26745914	-119.9444652	-74
25647	0	0.376953125	-0.047668457	0.068481445	0.999967575	0.000779152	0.004039764	0.006816864	9.423828125	-1.191711426	1.712036133	0.038958007	0.201990354	0.340846802	-0.610595703	0.270751953	0.734375	895.8	-40.54815459	-73.40754485	-118.8904431	-74
25648	0	0.377375603	-0.058092117	0.066983223	0.999958038	-0.004411697	0.002728462	0.007472038	9.434390068	-1.452302933	1.674580574	-0.220587911	0.136424992	0.373607066	-0.613525391	0.281738281	0.730957031	895.76	-42.45565498	-72.6047882	-117.4166342	-74
25649	0	0.373657227	-0.08013916	0.07611084	0.999974251	-0.000823975	0.000287056	0.007030487	9.341430664	-2.003479004	1.902770996	-0.041199075	0.014352919	0.351527294	-0.611083984	0.281738281	0.725097656	895.76	-44.29926778	-72.02706313	-115.5809236	-75
25650	0	0.382708549	-0.07145977	0.092513084	0.999934196	0.009408951	-0.002094269	0.006093025	9.567713737	-1.786494255	2.31282711	0.470457737	-0.10471571	0.304657864	-0.606933594	0.296875	0.7265625	895.76	-45.23200597	-71.70595615	-113.4744957	-75
25651	0	0.38092041	-0.060852051	0.098632813	0.999936104	0.010784149	-0.001574516	0.002773285	9.523010254	-1.52130127	2.465820313	0.539218825	-0.078727474	0.138667169	-0.600830078	0.316162109	0.724609375	895.86	-45.03454789	-71.60903587	-112.3892014	-75
25652	0	0.378807068	-0.050265312	0.095836639	0.999996185	0.002494812	-0.000351906	0.000525475	9.470176697	-1.256632805	2.395915985	0.124740738	-0.017595311	0.026273756	-0.601318359	0.333740234	0.711669922	895.8	-44.93347291	-71.59723148	-112.1813411	-75
25653	0	0.375915527	-0.065795898	0.089172363	0.999978065	-0.006481171	0.001019478	-0.000507355	9.397888184	-1.644897461	2.229309082	-0.324060872	0.05097426	-0.02536792	-0.601318359	0.3359375	0.714355469	895.72	-45.27308535	-71.55906786	-112.5762826	-75
25654	0	0.376865387	-0.079847336	0.082134247	0.999943733	-0.01008606	0.002212524	-0.002132416	9.421634674	-1.996183395	2.053356171	-0.504312323	0.110628271	-0.106622764	-0.60546875	0.320800781	0.712890625	895.8	-45.34149878	-71.55820411	-113.6887298	-75
25655	0	0.371887207	-0.091796875	0.080749512	0.999940872	-0.010596275	0.001583099	-0.001544952	9.297180176	-2.294921875	2.018737793	-0.529824114	0.079156514	-0.077249128	-0.607177734	0.303222656	0.720214844	895.76	-45.76547467	-71.56147229	-114.489649	-75
25656	0	0.375040054	-0.096320152	0.080450058	0.999956131	-0.009090424	0.000613213	-0.00193119	9.376001358	-2.408003807	2.01125145	-0.45452775	0.030661073	-0.096560921	-0.611083984	0.285888672	0.724609375	895.74	-46.16383057	-71.67574115	-115.1395243	-75
25657	0	0.372070313	-0.1015625	0.082397461	0.99998188	-0.00567627	-0.000437737	-0.001682281	9.301757813	-2.5390625	2.059936523	-0.283815144	-0.021886954	-0.084114569	-0.613037109	0.272949219	0.734375	895.8	-46.49365422	-71.85359751	-115.4555168	-74
25658	0	0.371512413	-0.103020668	0.081754684	0.999998093	-0.000563622	-0.001156807	-0.001345634	9.287810326	-2.575516701	2.043867111	-0.028181092	-0.057840381	-0.067281762	-0.612792969	0.266357422	0.734863281	895.68	-46.50244242	-72.06011458	-115.4992775	-74
25659	0	0.37512207	-0.095031738	0.081115723	0.999995232	0.002601624	-0.001368523	-0.000843048	9.378051758	-2.375793457	2.027893066	0.13008138	-0.068426239	-0.04215247	-0.610351563	0.264160156	0.737792969	895.82	-46.32575408	-72.24151357	-115.3648068	-73
25660	0	0.378304482	-0.090003967	0.08109951	0.999993324	0.003331184	-0.001398087	-0.000313759	9.457612038	-2.250099182	2.027487755	0.166559584	-0.069904481	-0.015687977	-0.610595703	0.266357422	0.740478516	895.88	-46.20470209	-72.38159207	-115.089401	-73
25661	0	0.375793457	-0.083557129	0.080627441	0.999995232	0.002750397	-0.000994682	-0.000370026	9.394836426	-2.088928223	2.015686035	0.137520036	-0.049734188	-0.018501309	-0.608398438	0.272949219	0.737060547	895.74	-46.03142317	-72.49470472	-114.932993	-74
25662	0	0.376933098	-0.080381393	0.082700729	0.999999046	0.001155853	-0.000593185	-0.000164032	9.423327446	-2.009534836	2.067518234	0.05779268	-0.02965928	-0.008201601	-0.608398438	0.270751953	0.734375	895.74	-45.98707844	-72.55919517	-114.8384942	-73
25663	0	0.376953125	-0.080749512	0.081237793	0.999999046	-0.000991821	-4.48E-05	-0.000324249	9.423828125	-2.018737793	2.030944824	-0.049591073	-0.002241135	-0.016212466	-0.608398438	0.275146484	0.734130859	895.7	-46.00391112	-72.5934945	-114.927524	-73
25664	0	0.376161575	-0.085913658	0.07981205	0.999998093	-0.00160408	0.000182152	-0.000343323	9.404039383	-2.147841454	1.995301247	-0.080204046	0.009107594	-0.017166145	-0.608398438	0.270751953	0.737304688	895.8	-46.02652347	-72.61139872	-115.0871866	-73
25665	0	0.375305176	-0.08605957	0.078125	0.999999046	-0.000415802	-0.000124931	-0.000286102	9.382629395	-2.151489258	1.953125	-0.020790101	-0.006246567	-0.014305115	-0.608154297	0.268554688	0.734619141	895.74	-46.00871592	-72.64913827	-115.1478503	-73
25666	0	0.377142906	-0.084933281	0.078752518	0.999999046	0.000263214	-0.000347137	-0.000271797	9.428572655	-2.123332024	1.968812943	0.013160706	-0.017356873	-0.01358986	-0.608398438	0.268554688	0.743164063	895.76	-45.97550744	-72.70352225	-115.1454425	-73
25667	0	0.375366211	-0.08190918	0.078613281	0.999999046	0.000404358	-0.000384331	-0.00038147	9.384155273	-2.047729492	1.965332031	0.020217897	-0.019216539	-0.019073488	-0.605957031	0.268554688	0.740234375	895.76	-45.90763362	-72.77010399	-115.1610021	-73
25668	0	0.376526833	-0.08009243	0.08027935	0.999999046	-0.000481606	-0.00028801	-0.000339508	9.413170815	-2.002310753	2.006983757	-0.024080278	-0.014400483	-0.016975404	-0.608398438	0.268554688	0.740234375	895.76	-45.92584913	-72.82575071	-115.1917903	-72
25669	0	0.37689209	-0.082580566	0.081848145	0.999998093	-0.001879692	0.000209808	-0.000385284	9.422302246	-2.06451416	2.046203613	-0.093984662	0.010490424	-0.019264233	-0.608154297	0.266357422	0.737548828	895.82	-45.95940082	-72.84554937	-115.371285	-72
25670	0	0.377108574	-0.088701248	0.081550598	0.999997139	-0.001874924	0.000370026	-0.000614166	9.427714348	-2.217531204	2.038764954	-0.093746248	0.018501294	-0.030708334	-0.608154297	0.259765625	0.743896484	895.86	-45.89065645	-72.8712353	-115.6636011	-72
25671	0	0.373413086	-0.088867188	0.080505371	0.999999046	-0.000686646	6.96E-05	-0.000743866	9.335327148	-2.221679688	2.012634277	-0.034332281	0.003480912	-0.037193305	-0.610351563	0.2578125	0.744140625	895.76	-45.73199643	-72.93120156	-115.9082482	-72
25672	0	0.373655319	-0.088485718	0.082204819	0.999999046	-0.000117302	-0.000114441	-0.000706673	9.34138298	-2.212142944	2.055120468	-0.005865098	-0.005722046	-0.035333637	-0.610351563	0.257568359	0.741210938	895.88	-45.56590692	-73.00240217	-116.0901532	-72
25673	0	0.374633789	-0.088195801	0.081359863	0.999999046	-1.91E-05	-0.00014019	-0.000236511	9.365844727	-2.20489502	2.033996582	-0.000953674	-0.007009506	-0.011825562	-0.607910156	0.255371094	0.744140625	895.82	-45.51850434	-73.03688913	-116.139108	-73
25674	0	0.376102448	-0.088570595	0.081677437	0.999999046	0.000488281	-0.000240326	-7.72E-05	9.402561188	-2.21426487	2.041935921	0.024414064	-0.012016297	-0.003862381	-0.607910156	0.253173828	0.747070313	895.86	-45.48212051	-73.06615844	-116.1215943	-73
25675	0	0.374267578	-0.086853027	0.082702637	0.999999046	0.001335144	-0.000285149	0.000183105	9.356689453	-2.171325684	2.067565918	0.066757223	-0.014257436	0.009155276	-0.607666016	0.255371094	0.738525391	895.82	-45.42959514	-73.07753487	-116.0175956	-72
25676	0	0.3748312	-0.087078094	0.081682205	0.999998093	0.001522064	-0.00026989	0.000212669	9.370779991	-2.176952362	2.04205513	0.076103241	-0.013494497	0.010633473	-0.607910156	0.255371094	0.747070313	895.86	-45.35972132	-73.08509749	-115.916277	-72
25677	0	0.374816895	-0.081848145	0.081176758	0.999998093	0.001633644	-0.000457764	0.000240326	9.370422363	-2.046203613	2.029418945	0.081682245	-0.022888195	0.012016302	-0.605712891	0.257568359	0.743896484	895.74	-45.33461015	-73.1055615	-115.7541215	-72
25678	0	0.376193047	-0.08384037	0.08080101	0.999999046	0.001003265	-0.000572205	0.000366211	9.404826164	-2.096009254	2.020025253	0.050163281	-0.028610236	0.018310551	-0.605712891	0.261962891	0.737792969	895.76	-45.44618776	-73.12488941	-115.5186164	-72
25679	0	0.376281738	-0.083679199	0.080505371	0.999999046	0.000831604	-0.000266075	0.000274658	9.407043457	-2.09197998	2.012634277	0.041580206	-0.013303759	0.013732912	-0.605957031	0.264160156	0.743408203	895.82	-45.47102422	-73.12697755	-115.3948767	-72
25680	0	0.376950264	-0.080824852	0.079461098	0.999999046	0.000412941	3.05E-05	0.000235558	9.423756599	-2.0206213	1.986527443	0.02064705	0.001525879	0.011777878	-0.605957031	0.266357422	0.743164063	895.72	-45.45342225	-73.10853708	-115.3630397	-72
25681	0	0.374694824	-0.082458496	0.079162598	0.999999046	-0.000331879	5.05E-05	0.000370026	9.367370605	-2.061462402	1.979064941	-0.016593934	0.002527237	0.018501283	-0.603515625	0.266113281	0.742919922	895.74	-45.5513172	-73.07753365	-115.2987794	-72
25682	0	0.375846863	-0.081813812	0.080244064	0.999999046	-0.000192642	-1.14E-05	0.000201225	9.39617157	-2.045345306	2.006101608	-0.009632111	-0.000572205	0.010061264	-0.603515625	0.266113281	0.740234375	895.8	-45.60507105	-73.06534986	-115.2630681	-72
25683	0	0.377197266	-0.082580566	0.079772949	0.999999046	-0.000713348	0.000107765	0.000175476	9.429931641	-2.06451416	1.99432373	-0.035667423	0.00538826	0.008773805	-0.601318359	0.266113281	0.739990234	895.82	-45.67957287	-73.04578523	-115.2651278	-72
25684	0	0.377820969	-0.084841728	0.079548836	0.999999046	-0.00077343	0.000270844	-3.05E-05	9.445524216	-2.121043205	1.988720894	-0.038671498	0.013542177	-0.001525879	-0.603515625	0.263916016	0.743164063	895.82	-45.66329523	-73.03005942	-115.3729845	-71
25685	0	0.37487793	-0.08416748	0.080444336	0.999999046	-0.000946045	0.000412941	-6.48E-05	9.371948242	-2.104187012	2.011108398	-0.047302255	0.020647053	-0.003242493	-0.608154297	0.261962891	0.743652344	895.8	-45.61990404	-73.00571033	-115.5327723	-71
25686	0	0.374028206	-0.085860252	0.081504822	0.999999046	-0.000951767	0.000165939	0.000113487	9.350705147	-2.14650631	2.037620544	-0.047588356	0.008296968	0.005674363	-0.603271484	0.26171875	0.740478516	895.82	-45.69042532	-72.98641417	-115.5685722	-71
25687	0	0.375854492	-0.086669922	0.080505371	0.999999046	-0.000362396	-0.000113487	0.00018692	9.396362305	-2.166748047	2.012634277	-0.018119813	-0.005674362	0.009346009	-0.608154297	0.261962891	0.746582031	895.76	-45.78782323	-72.98336643	-115.5086435	-70
25688	0	0.375535011	-0.086625099	0.080416679	0.999999046	-0.000214577	-0.000173569	0.000185966	9.388375282	-2.16562748	2.010416985	-0.010728836	-0.008678436	0.009298325	-0.605712891	0.259765625	0.740722656	895.76	-45.88445842	-72.98507791	-115.4331862	-70
25689	0	0.375305176	-0.084533691	0.079650879	0.999999046	-9.16E-05	-0.000174522	0.000259399	9.382629395	-2.113342285	1.991271973	-0.004577637	-0.00872612	0.012969971	-0.605712891	0.259765625	0.746582031	895.76	-45.98648049	-72.98079029	-115.3393088	-70
25690	0	0.375167847	-0.084560394	0.081822395	0.999999046	-0.000116348	-0.000171661	0.000133514	9.379196167	-2.114009857	2.045559883	-0.005817413	-0.008583069	0.00667572	-0.605712891	0.259765625	0.746582031	895.88	-46.05762154	-72.98654872	-115.2805716	-70
25691	0	0.37512207	-0.085754395	0.081115723	0.999999046	-0.000572205	-6.68E-06	6.10E-05	9.378051758	-2.143859863	2.027893066	-0.028610231	-0.000333786	0.003051758	-0.603271484	0.257324219	0.740966797	895.76	-46.11770914	-72.98507465	-115.2883507	-70
25692	0	0.376942635	-0.089250565	0.080640793	0.999999046	-0.000271797	-0.000118256	-0.000130653	9.423565865	-2.231264114	2.016019821	-0.013589859	-0.005912781	-0.006532669	-0.607910156	0.257568359	0.746826172	895.74	-46.12419085	-73.00813538	-115.3183513	-71
25693	0	0.375305176	-0.088195801	0.079833984	0.999998093	0.00143528	-0.00031662	-2.67E-05	9.382629395	-2.20489502	1.995849609	0.071764018	-0.015830999	-0.001335145	-0.605712891	0.259765625	0.740966797	895.74	-46.01605232	-73.03825289	-115.2608368	-71
25694	0	0.376397133	-0.082821846	0.079283714	0.999999046	0.001344681	-0.000246048	-0.0001688	9.409928322	-2.07054615	1.982092857	0.067234061	-0.012302403	-0.00844002	-0.605712891	0.259765625	0.740966797	895.8	-45.86177898	-73.07456635	-115.2661414	-72
25695	0	0.375305176	-0.081054688	0.079162598	0.999999046	0.001060486	-7.53E-05	-0.000106812	9.382629395	-2.026367188	1.979064941	0.053024302	-0.003767014	-0.005340577	-0.605957031	0.261962891	0.743652344	895.76	-45.70963965	-73.09226526	-115.3025258	-72
25696	0	0.37533474	-0.080803871	0.080679893	0.999999046	0.000535011	-0.000146866	-0.000148773	9.383368492	-2.020096779	2.016997337	0.026750566	-0.007343293	-0.00743866	-0.605957031	0.264160156	0.740722656	895.88	-45.62533925	-73.11918342	-115.3265998	-72
25697	0	0.378051758	-0.082519531	0.078918457	0.999999046	-7.63E-06	-0.000109673	-0.00019455	9.451293945	-2.062988281	1.972961426	-0.00038147	-0.005483627	-0.009727478	-0.606201172	0.266357422	0.743408203	895.88	-45.58096163	-73.14696335	-115.3697012	-72
25698	0	0.376636505	-0.084938049	0.078589439	0.999999046	0.000123978	-2.67E-05	-0.000481606	9.415912628	-2.123451233	1.964735985	0.006198883	-0.001335144	-0.024080277	-0.606201172	0.264160156	0.746337891	895.76	-45.42299296	-73.19150861	-115.5202711	-72
25699	0	0.374633789	-0.082458496	0.080322266	0.999999046	0.000892639	-0.00039196	-0.000434875	9.365844727	-2.061462402	2.008056641	0.044631966	-0.019598011	-0.021743779	-0.605957031	0.264160156	0.740722656	895.8	-45.28722175	-73.26151824	-115.5554086	-72
25700	0	0.376292229	-0.081074715	0.079317093	0.999999046	0.001069069	-0.000473022	-0.000335693	9.407305717	-2.026867867	1.982927322	0.053453459	-0.023651129	-0.016784672	-0.605957031	0.264160156	0.740722656	895.8	-45.17912426	-73.33003162	-115.5431076	-73
25701	0	0.377868652	-0.08190918	0.079162598	0.999999046	0.001041412	-0.000426292	-0.000278473	9.446716309	-2.047729492	1.979064941	0.052070629	-0.021314626	-0.013923648	-0.603759766	0.266357422	0.740234375	895.76	-45.07666496	-73.39015933	-115.5249115	-73
25702	0	0.376455307	-0.079518318	0.080226898	0.999999046	0.000627518	-0.000148773	-0.000130653	9.411382675	-1.987957954	2.005672455	0.031375887	-0.00743866	-0.00653267	-0.606201172	0.266357422	0.743408203	895.8	-44.98567637	-73.41586716	-115.5481758	-73
25703	0	0.376098633	-0.080871582	0.079650879	0.999999046	-2.29E-05	1.24E-05	-5.34E-05	9.40246582	-2.021789551	1.991271973	-0.001144409	0.000619888	-0.002670288	-0.603759766	0.266357422	0.74609375	895.76	-44.94625909	-73.42224057	-115.594588	-73
25704	0	0.375983238	-0.080591202	0.079594612	0.999999046	0.000361443	1.53E-05	0.000156403	9.399580956	-2.014780045	1.989865303	0.018072129	0.000762939	0.00782013	-0.605957031	0.266357422	0.740478516	895.68	-44.9191222	-73.41139664	-115.5828838	-73
25705	0	0.376831055	-0.079650879	0.080200195	0.999999046	-7.63E-06	-0.000128746	0.000225067	9.420776367	-1.991271973	2.005004883	-0.00038147	-0.006437302	0.011253357	-0.603759766	0.268554688	0.742919922	895.82	-44.99184273	-73.40670406	-115.5065592	-73
25706	0	0.377058029	-0.082202911	0.078392029	0.999999046	-0.000328064	5.34E-05	0.000289917	9.426450729	-2.055072784	1.95980072	-0.016403199	0.002670288	0.01449585	-0.603759766	0.268554688	0.742919922	895.8	-45.06959065	-73.38198639	-115.4629314	-73
25707	0	0.377258301	-0.082824707	0.080383301	0.999999046	-0.000106812	1.24E-05	0.000102997	9.43145752	-2.070617676	2.00958252	-0.005340576	0.000619888	0.005149841	-0.605957031	0.266357422	0.737548828	895.8	-45.08245478	-73.37567311	-115.4643881	-73
25708	0	0.376140594	-0.08298111	0.080862045	0.999999046	0.000346184	-3.62E-05	9.82E-05	9.403514862	-2.07452774	2.021551132	0.017309189	-0.001811981	0.004911423	-0.608642578	0.268554688	0.74609375	895.74	-45.05537718	-73.37357836	-115.4543147	-72
25709	0	0.376281738	-0.080932617	0.079467773	0.999999046	0.000976563	-0.000208855	8.77E-05	9.407043457	-2.02331543	1.986694336	0.048828133	-0.010442736	0.004386903	-0.606201172	0.268554688	0.743164063	895.8	-45.00006316	-73.38633391	-115.3994162	-72
25710	0	0.377094269	-0.080353737	0.080381393	0.999999046	0.000581741	-8.96E-05	-0.000187874	9.42735672	-2.008843422	2.009534836	0.029087069	-0.00448227	-0.009393693	-0.606201172	0.268554688	0.743164063	895.86	-44.88242952	-73.41176655	-115.45796	-70
25711	0	0.37878418	-0.080322266	0.079345703	0.999999046	0.000282288	-6.68E-06	-0.000156403	9.469604492	-2.008056641	1.983642578	0.01411438	-0.000333786	-0.00782013	-0.604003906	0.270751953	0.739990234	895.76	-44.78491845	-73.42795674	-115.5244545	-69
25712	0	0.378504753	-0.080891609	0.079445839	0.999999046	0.000258446	6.68E-05	-0.000325203	9.462618828	-2.02229023	1.986145973	0.012922287	0.00333786	-0.016260148	-0.606201172	0.268554688	0.740234375	895.8	-44.6238564	-73.45175609	-115.6659291	-69
25713	0	0.374572754	-0.078796387	0.078674316	0.999999046	0.000331879	-4.10E-05	-0.000289917	9.364318848	-1.969909668	1.96685791	0.016593934	-0.0020504	-0.01449585	-0.606201172	0.270751953	0.739990234	895.74	-44.49278701	-73.48148529	-115.7624873	-68
25714	0	0.376395226	-0.07986927	0.079366684	0.999999046	0.000127792	-3.62E-05	-0.000293732	9.409880638	-1.996731758	1.984167099	0.006389618	-0.001811981	-0.014686585	-0.608642578	0.270751953	0.743164063	895.8	-44.38241451	-73.51108825	-115.8637901	-67
25715	0	0.377502441	-0.081787109	0.079711914	0.999999046	-0.000133514	0.000115395	-0.000164032	9.437561035	-2.044677734	1.992797852	-0.00667572	0.00576973	-0.008201599	-0.608398438	0.268554688	0.740478516	895.7	-44.29687664	-73.51777191	-115.9729302	-68
25716	0	0.37525177	-0.07979393	0.079836845	0.999999046	0.000136375	6.68E-05	0.000225067	9.38129425	-1.994848251	1.995921135	0.006818771	0.00333786	0.011253357	-0.608642578	0.270751953	0.737304688	895.8	-44.30141201	-73.49726457	-115.9508592	-69
25717	0	0.376525879	-0.078063965	0.079528809	0.999999046	0.000541687	-0.000105858	0.000362396	9.413146973	-1.951599121	1.988220215	0.027084353	-0.005292893	0.018119813	-0.608642578	0.270751953	0.737304688	895.76	-44.34390561	-73.4799814	-115.8435977	-70
25718	0	0.376852036	-0.077823639	0.079836845	0.999999046	0.000207901	-9.73E-05	0.000133514	9.421300888	-1.945590973	1.995921135	0.01039505	-0.004863739	0.00667572	-0.608642578	0.270751953	0.743164063	895.82	-44.35878141	-73.48039118	-115.8082266	-72
25719	0	0.37677002	-0.078125	0.079406738	0.999999046	-0.000427246	-8.30E-05	0.00019455	9.419250488	-1.953125	1.985168457	-0.021362305	-0.004148483	0.009727478	-0.606201172	0.270751953	0.737304688	895.7	-44.45927842	-73.47481092	-115.7547002	-75
25720	0	0.377544403	-0.081514359	0.079944611	0.999999046	-0.000342369	5.91E-05	0.000213623	9.438610077	-2.037858963	1.998615265	-0.017118454	0.00295639	0.010681153	-0.608642578	0.268554688	0.743164063	895.76	-44.51701641	-73.45601603	-115.7433631	-76
25721	0	0.376831055	-0.080627441	0.079345703	0.999999046	0.000209808	-3.72E-05	9.54E-05	9.420776367	-2.015686035	1.983642578	0.010490418	-0.001859665	0.004768372	-0.608642578	0.272949219	0.742919922	895.76	-44.50509815	-73.45460437	-115.7295522	-74
25722	0	0.376272202	-0.079567909	0.079593658	0.999999046	0.0004673	-0.000108719	0.000175476	9.406805038	-1.989197731	1.989841461	0.023365022	-0.005435944	0.008773804	-0.606201172	0.270751953	0.742919922	895.76	-44.50501895	-73.45262407	-115.6782244	-71
25723	0	0.376525879	-0.077758789	0.080322266	0.999999046	3.43E-05	-0.000144005	0.000106812	9.413146973	-1.943969727	2.008056641	0.001716614	-0.007200241	0.005340576	-0.608642578	0.275146484	0.734130859	895.76	-44.54485874	-73.45911367	-115.6252892	-69
25724	0	0.377264023	-0.078383446	0.079973221	0.999999046	-0.000300407	-0.00012207	0.000244141	9.431600571	-1.959586143	1.999330521	-0.015020371	-0.006103516	0.012207032	-0.606445313	0.275146484	0.739746094	895.74	-44.65463767	-73.45281229	-115.5401869	-69
25725	0	0.378967285	-0.07989502	0.078613281	0.999999046	-0.000507355	9.25E-05	4.58E-05	9.474182129	-1.997375488	1.965332031	-0.025367738	0.004625321	0.002288818	-0.606445313	0.272949219	0.739990234	895.8	-44.67562145	-73.44506093	-115.575809	-68
25726	0	0.376992226	-0.080498695	0.078905106	0.999999046	-6.48E-05	1.91E-05	-0.000347137	9.424805641	-2.012467384	1.97262764	-0.003242493	0.000953674	-0.017356873	-0.608642578	0.268554688	0.74609375	895.86	-44.55801888	-73.47493053	-115.7151657	-67
25727	0	0.374938965	-0.079101563	0.079467773	0.999999046	-3.43E-05	-0.000189781	-0.000183105	9.373474121	-1.977539063	1.986694336	-0.001716614	-0.00948906	-0.009155274	-0.606201172	0.270751953	0.739990234	895.76	-44.53830256	-73.50864572	-115.7391074	-67
25728	0	0.37823391	-0.080922127	0.08023262	0.999999046	-0.000130653	-7.44E-05	-0.000301361	9.45584774	-2.023053169	2.005815506	-0.006532669	-0.00371933	-0.015068054	-0.603759766	0.270507813	0.734375	895.76	-44.46551544	-73.54238503	-115.8253912	-67
25729	0	0.37713623	-0.07989502	0.080383301	0.999999046	-0.000167847	-6.77E-05	-0.000152588	9.428405762	-1.997375488	2.00958252	-0.008392334	-0.003385544	-0.007629395	-0.606201172	0.270751953	0.739990234	895.76	-44.43608258	-73.5635775	-115.8728674	-67
25730	0	0.374973297	-0.079503059	0.080609322	0.999999046	-0.000125885	-0.000169754	-7.34E-05	9.374332428	-1.987576485	2.01523304	-0.006294251	-0.008487701	-0.003671646	-0.608398438	0.268554688	0.740478516	895.82	-44.45138083	-73.58669175	-115.8743544	-68
25731	0	0.377319336	-0.079528809	0.079650879	0.999999046	-0.000137329	-0.000166893	-0.000263214	9.432983398	-1.988220215	1.991271973	-0.006866455	-0.00834465	-0.013160706	-0.606201172	0.268554688	0.737304688	895.8	-44.4144023	-73.62479091	-115.9277712	-67
25732	0	0.37647438	-0.082344055	0.081027031	0.999999046	3.72E-05	1.14E-05	-0.00042057	9.411859512	-2.058601379	2.025675774	0.001859665	0.000572205	-0.021028519	-0.608398438	0.268554688	0.740478516	895.8	-44.26468099	-73.66066999	-116.0790466	-68
25733	0	0.375915527	-0.081542969	0.079284668	0.999999046	0.000549316	-0.00026226	-0.00019455	9.397888184	-2.038574219	1.982116699	0.027465822	-0.013113023	-0.009727479	-0.608398438	0.266357422	0.740478516	895.8	-44.19414984	-73.70076073	-116.0929638	-68
25734	0	0.376903534	-0.079600334	0.079295158	0.999999046	0.000858307	-0.000331879	4.10E-05	9.422588348	-1.990008354	1.98237896	0.04291535	-0.016593935	0.0020504	-0.608642578	0.268554688	0.743164063	895.74	-44.17348015	-73.72771722	-116.0172704	-68
25735	0	0.377380371	-0.078674316	0.080627441	0.999999046	0.000888824	-0.000300407	-3.05E-05	9.434509277	-1.96685791	2.015686035	0.04444123	-0.015020373	-0.001525879	-0.606201172	0.268554688	0.740234375	895.8	-44.1204346	-73.75775046	-115.9720159	-68
25736	0	0.376577377	-0.078267097	0.079013824	0.999999046	0.000798225	-9.16E-05	0.000124931	9.414434433	-1.956677437	1.975345612	0.039911275	-0.004577637	0.006246567	-0.606201172	0.270751953	0.742919922	895.86	-44.06447016	-73.75820603	-115.939717	-68
25737	0	0.37713623	-0.07623291	0.078552246	0.999999046	0.000545502	-0.000212669	0.000137329	9.428405762	-1.905822754	1.963806152	0.027275087	-0.010633469	0.006866455	-0.604003906	0.272949219	0.742675781	895.76	-44.07393739	-73.76773971	-115.8652858	-67
25738	0	0.378125191	-0.076616287	0.079938889	0.999999046	-8.58E-05	-0.000204086	-8.39E-05	9.453129768	-1.915407181	1.998472214	-0.004291534	-0.010204315	-0.004196167	-0.606445313	0.272949219	0.742675781	895.88	-44.09057299	-73.79423547	-115.8593906	-68
25739	0	0.378845215	-0.078613281	0.079101563	0.999999046	-0.000209808	-5.25E-05	-7.25E-05	9.471130371	-1.965332031	1.977539063	-0.010490418	-0.002622604	-0.003623962	-0.604003906	0.272949219	0.742675781	895.88	-44.08312967	-73.80733801	-115.8908868	-67
25740	0	0.377583504	-0.079325676	0.080553055	0.999999046	0.000788689	-0.000144958	-0.000237465	9.439587593	-1.983141899	2.01382637	0.039434438	-0.007247926	-0.011873247	-0.604003906	0.272949219	0.742675781	895.8	-43.9396502	-73.84108394	-115.9469462	-67
25741	0	0.374816895	-0.076721191	0.078430176	0.999999046	0.000423431	-0.000193596	3.81E-05	9.370422363	-1.918029785	1.960754395	0.021171571	-0.009679795	0.001907349	-0.606445313	0.272949219	0.739990234	895.68	-43.92961848	-73.85691942	-115.9093511	-67
25742	0	0.377831459	-0.078575134	0.079264641	0.999999046	0.000408173	-0.000175476	0.000220299	9.445786476	-1.964378357	1.98161602	0.020408631	-0.008773804	0.011014939	-0.606201172	0.272949219	0.737060547	895.76	-43.96840312	-73.85672799	-115.8233318	-67
25743	0	0.380493164	-0.076538086	0.078369141	0.999999046	0.000629425	-9.06E-05	0.000133514	9.512329102	-1.913452148	1.959228516	0.031471255	-0.004529953	0.006675721	-0.606445313	0.275146484	0.734130859	895.82	-43.93369641	-73.85653561	-115.7836905	-67
25744	0	0.376581192	-0.075014114	0.079004288	0.999999046	1.24E-05	5.34E-05	0.000144005	9.4145298	-1.875352859	1.975107193	0.000619888	0.002670288	0.007200241	-0.606445313	0.272949219	0.742675781	895.76	-43.93280077	-73.84369122	-115.791597	-67
25745	0	0.377746582	-0.075500488	0.079589844	0.999999046	-0.000431061	0.000134468	0.000133514	9.443664551	-1.887512207	1.989746094	-0.02155304	0.006723404	0.00667572	-0.604003906	0.277099609	0.736572266	895.76	-43.95714515	-73.82505789	-115.8109105	-67
25746	0	0.377276421	-0.077136993	0.081088066	0.999999046	-0.000530243	0.00018692	8.39E-05	9.431910515	-1.928424835	2.027201653	-0.026512147	0.009346009	0.004196167	-0.606445313	0.275146484	0.736816406	895.76	-43.96410408	-73.80598552	-115.8644103	-67
25747	0	0.376708984	-0.077758789	0.08001709	0.999999046	-2.29E-05	8.11E-05	6.87E-05	9.417724609	-1.943969727	2.000427246	-0.001144409	0.004053116	0.003433228	-0.604003906	0.274902344	0.736816406	895.76	-43.93755382	-73.79681745	-115.8914719	-67
25748	0	0.378088951	-0.077265739	0.080073357	0.999999046	9.06E-05	2.86E-05	4.20E-05	9.452223778	-1.931643486	2.001833916	0.004529953	0.001430511	0.002098083	-0.606201172	0.272949219	0.737060547	895.7	-43.90464869	-73.79408941	-115.9178396	-68
25749	0	0.377624512	-0.077697754	0.081359863	0.999999046	0.000160217	-1.05E-05	0.000324249	9.440612793	-1.942443848	2.033996582	0.008010864	-0.000524521	0.016212464	-0.606445313	0.275146484	0.739746094	895.82	-43.95433101	-73.77208073	-115.8474598	-68
25750	0	0.376904488	-0.077062607	0.081192017	0.999999046	0.000650406	-0.000112534	0.000366211	9.42261219	-1.92656517	2.029800415	0.032520297	-0.005626679	0.018310549	-0.606445313	0.275146484	0.736816406	895.88	-43.9871488	-73.75509125	-115.738184	-68
25751	0	0.377746582	-0.077697754	0.080078125	0.999999046	0.000671387	-0.000227928	0.000293732	9.443664551	-1.942443848	2.001953125	0.033569339	-0.011396409	0.014686586	-0.604003906	0.277099609	0.736572266	895.8	-44.02838365	-73.75335884	-115.6148014	-68
25752	0	0.374685287	-0.077261925	0.07964325	0.999999046	0.000834465	-0.000329971	0.000350952	9.367132187	-1.931548119	1.991081238	0.041723258	-0.016498568	0.01754761	-0.606445313	0.27734375	0.736816406	895.8	-44.0948905	-73.75541444	-115.450654	-68
25753	0	0.374938965	-0.075561523	0.080627441	0.999999046	0.000770569	-0.000422478	0.000289917	9.373474121	-1.889038086	2.015686035	0.038528448	-0.021123889	0.014495852	-0.604248047	0.281494141	0.736328125	895.7	-44.17642978	-73.76990135	-115.2708595	-68
25754	0	0.378256798	-0.080051422	0.080918312	0.999999046	1.91E-05	-0.0001297	0.000228882	9.456419945	-2.001285553	2.022957802	0.000953674	-0.006484985	0.011444092	-0.604248047	0.281494141	0.739013672	895.76	-44.24668676	-73.76503885	-115.1945077	-68
25755	0	0.377746582	-0.078979492	0.081604004	0.999999046	0.000728607	-7.15E-05	0.000331879	9.443664551	-1.974487305	2.040100098	0.036430363	-0.003576279	0.016593935	-0.604248047	0.281494141	0.733398438	895.76	-44.24843018	-73.747049	-115.1057918	-69
25756	0	0.374838829	-0.074780464	0.079155922	0.999999046	0.000567436	-0.000137329	0.000328064	9.370970726	-1.869511604	1.978898048	0.028371813	-0.006866456	0.016403199	-0.602050781	0.281494141	0.736083984	895.74	-44.28508152	-73.73484783	-115.0029132	-69
25757	0	0.377746582	-0.075744629	0.079772949	0.999999046	0.000408173	-0.000220299	0.000179291	9.443664551	-1.893615723	1.99432373	0.020408631	-0.011014939	0.008964539	-0.602050781	0.281494141	0.736083984	895.76	-44.32049331	-73.74142189	-114.9221829	-69
25758	0	0.380989075	-0.076548576	0.080581665	0.999999046	-0.000656128	3.81E-06	1.91E-05	9.524726868	-1.913714409	2.014541626	-0.032806399	0.000190735	0.000953674	-0.602294922	0.285888672	0.738525391	895.76	-44.37094046	-73.74252482	-114.9411034	-70
25759	0	0.375488281	-0.079162598	0.080078125	0.999999046	-0.000926971	0.000424385	0.000274658	9.387207031	-1.979064941	2.001953125	-0.04634858	0.021219257	0.013732913	-0.602050781	0.281494141	0.739013672	895.76	-44.408754	-73.68861987	-115.0132316	-70
25760	0	0.376536369	-0.079213142	0.080310822	0.999999046	-0.000985146	0.000318527	0.000433922	9.413409233	-1.98032856	2.007770538	-0.049257289	0.015926364	0.021696095	-0.602050781	0.281494141	0.739013672	895.76	-44.52664813	-73.6305625	-115.0062764	-72
25761	0	0.374938965	-0.08001709	0.080505371	0.999999046	-0.000976563	0.000123024	0.000286102	9.373474121	-2.000427246	2.012634277	-0.048828134	0.0061512	0.014305117	-0.601806641	0.279296875	0.739257813	895.8	-44.65563456	-73.60025742	-114.9889643	-73
25762	0	0.37560463	-0.081855774	0.080986023	0.999999046	-0.000799179	3.43E-05	0.000227928	9.390115738	-2.046394348	2.024650574	-0.039958958	0.001716614	0.011396409	-0.604248047	0.279541016	0.7421875	895.76	-44.77241455	-73.58170784	-114.9629397	-75
25763	0	0.377258301	-0.084533691	0.082763672	0.999999046	-0.000473022	6.58E-05	0.000259399	9.43145752	-2.113342285	2.069091797	-0.023651124	0.003290177	0.012969971	-0.604248047	0.279541016	0.7421875	895.7	-44.85197189	-73.55777859	-114.9356386	-77
25764	0	0.375434875	-0.082426071	0.082001686	0.999999046	0.000185966	1.91E-06	0.000293732	9.385871887	-2.060651779	2.050042152	0.009298325	9.54E-05	0.014686585	-0.604492188	0.281494141	0.741943359	895.82	-44.8828491	-73.53607749	-114.8773106	-76
25765	0	0.375976563	-0.081481934	0.080627441	0.999999046	0.000259399	-0.00014019	0.00019455	9.399414063	-2.03704834	2.015686035	0.012969971	-0.007009506	0.009727478	-0.604248047	0.279541016	0.7421875	895.86	-44.9169367	-73.533839	-114.8129801	-74
25766	0	0.374990463	-0.081708908	0.079586983	0.999999046	0.000343323	-0.000175476	0.000296593	9.374761581	-2.042722702	1.989674568	0.017166138	-0.008773804	0.014829636	-0.604248047	0.27734375	0.745117188	895.76	-44.97923944	-73.5261158	-114.7177219	-73
25767	0	0.37701416	-0.08001709	0.080749512	0.999999046	0.000823975	-0.000395775	4.96E-05	9.425354004	-2.000427246	2.018737793	0.041198736	-0.019788745	0.002479554	-0.604492188	0.281738281	0.744873047	895.76	-44.97894184	-73.55623251	-114.6229969	-72
25768	0	0.37786293	-0.080777168	0.080460548	0.999999046	0.000445366	-0.000268936	-0.000137329	9.446573257	-2.019429207	2.01151371	0.022268296	-0.013446809	-0.006866455	-0.604248047	0.283691406	0.738769531	895.76	-44.9358645	-73.59118539	-114.61164	-72
25769	0	0.378723145	-0.082763672	0.079040527	0.999999046	0.000595093	-0.000266075	-0.000270844	9.468078613	-2.069091797	1.976013184	0.029754641	-0.013303758	-0.013542176	-0.601806641	0.281494141	0.741699219	895.7	-44.83824478	-73.63665477	-114.6457226	-71
25770	0	0.375878334	-0.079292297	0.079666138	0.999998093	0.001339912	-0.000338554	-0.000309944	9.396958351	-1.982307434	1.991653442	0.066995643	-0.016927725	-0.015497213	-0.604248047	0.283691406	0.735839844	895.7	-44.66377261	-73.69115152	-114.6682839	-71
25771	0	0.377441406	-0.076965332	0.079223633	0.999999046	0.001094818	-0.000437737	-0.00031662	9.436035156	-1.924133301	1.98059082	0.054740919	-0.021886831	-0.015830998	-0.604248047	0.283691406	0.738769531	895.74	-44.54197548	-73.75435075	-114.6696152	-70
25772	0	0.378231049	-0.077896118	0.078879356	0.999999046	0.000876427	-0.000333786	-0.000386238	9.455776215	-1.947402954	1.97198391	0.043821342	-0.016689303	-0.019311908	-0.602050781	0.285888672	0.738525391	895.9	-44.39634188	-73.81470295	-114.7171642	-70
25773	0	0.378967285	-0.076477051	0.078491211	0.999999046	0.000644684	-0.000277519	-0.000293732	9.474182129	-1.91192627	1.962280273	0.032234195	-0.013875963	-0.014686586	-0.602050781	0.285888672	0.735595703	895.76	-44.28707603	-73.86311541	-114.7543889	-69
25774	0	0.377039909	-0.074507713	0.077888489	0.999999046	4.58E-05	-0.000192642	-0.000141144	9.425997734	-1.862692833	1.947212219	0.002288818	-0.009632111	-0.00705719	-0.602294922	0.288085938	0.744140625	895.74	-44.26567891	-73.89249984	-114.7704573	-70
25775	0	0.378356934	-0.076171875	0.08013916	0.999999046	-0.000484467	5.44E-05	-0.000320435	9.45892334	-1.904296875	2.003479004	-0.024223329	0.002717972	-0.016021729	-0.602050781	0.288085938	0.73828125	895.86	-44.18514038	-73.91595294	-114.905286	-69
25776	0	0.378092766	-0.078572273	0.081201553	0.999999046	-0.000498772	1.72E-05	-0.000309944	9.452319145	-1.964306831	2.030038834	-0.024938585	0.000858307	-0.015497209	-0.602050781	0.283691406	0.741455078	895.74	-44.11910923	-73.94146039	-115.0356851	-70
25777	0	0.377746582	-0.079406738	0.078613281	0.999999046	-0.000282288	3.91E-05	-0.000175476	9.443664551	-1.985168457	1.965332031	-0.01411438	0.001955032	-0.008773804	-0.604248047	0.283691406	0.741699219	895.82	-44.06076077	-73.9543449	-115.1318302	-70
25778	0	0.377767563	-0.078220367	0.078841209	0.999999046	0.000289917	-0.000137329	-8.49E-05	9.444189072	-1.955509186	1.971030235	0.01449585	-0.006866455	-0.004243851	-0.604248047	0.283691406	0.741699219	895.74	-44.01173501	-73.97449335	-115.150701	-71
25779	0	0.377746582	-0.076171875	0.079284668	0.999999046	0.000465393	-0.000182152	-0.000289917	9.443664551	-1.904296875	1.982116699	0.023269655	-0.00910759	-0.01449585	-0.601806641	0.281494141	0.741699219	895.74	-43.89577286	-74.01465557	-115.2226368	-72
25780	0	0.378551483	-0.07520771	0.079460144	0.999999046	0.000283241	-0.000114441	-9.54E-05	9.463787079	-1.880192757	1.986503601	0.014162064	-0.005722046	-0.004768372	-0.602050781	0.283691406	0.741455078	895.88	-43.83743948	-74.03379131	-115.2516739	-72
25781	0	0.377502441	-0.076171875	0.078735352	0.999999046	-0.00025177	0.000107765	-1.53E-05	9.437561035	-1.904296875	1.968383789	-0.012588501	0.00538826	-0.000762939	-0.604248047	0.283691406	0.735839844	895.76	-43.8018764	-74.02820677	-115.3179955	-73
25782	0	0.378342628	-0.076016426	0.076885223	0.999999046	-0.000375748	2.10E-05	1.43E-05	9.458565712	-1.900410652	1.922130585	-0.018787384	0.001049042	0.000715256	-0.604248047	0.283691406	0.738769531	895.76	-43.81336709	-74.02754809	-115.3501391	-75
25783	0	0.378051758	-0.075439453	0.079833984	0.999999046	-0.000598907	8.58E-06	0.00012207	9.451293945	-1.885986328	1.995849609	-0.029945375	0.000429153	0.006103516	-0.602050781	0.283691406	0.741455078	895.7	-43.88475172	-74.01937417	-115.3446823	-75
25784	0	0.379434586	-0.07806778	0.078464508	0.999999046	-0.000479698	7.63E-05	-5.34E-05	9.485864639	-1.951694489	1.961612701	-0.02398491	0.003814697	-0.002670288	-0.604248047	0.281494141	0.741699219	895.82	-43.87335439	-74.01953035	-115.4155477	-76
25785	0	0.378723145	-0.076904297	0.078674316	0.999999046	0.000499725	-6.39E-05	-0.000377655	9.468078613	-1.922607422	1.96685791	0.024986269	-0.003194809	-0.018882753	-0.604248047	0.281494141	0.739013672	895.82	-43.69479644	-74.05697169	-115.5426977	-75
25786	0	0.376286507	-0.073858261	0.076990128	0.999999046	0.000488281	-4.96E-05	-0.000184059	9.407162666	-1.846456528	1.924753189	0.024414064	-0.002479553	-0.009202958	-0.604248047	0.283691406	0.741699219	895.82	-43.56918591	-74.07795089	-115.6134433	-74
25787	0	0.378295898	-0.074462891	0.078735352	0.999999046	-0.000209808	0.000123024	-0.000205994	9.457397461	-1.861572266	1.968383789	-0.010490418	0.006151199	-0.010299683	-0.604248047	0.281494141	0.739013672	895.8	-43.46905622	-74.08633495	-115.7430532	-73
25788	0	0.380870819	-0.075072289	0.079528809	0.999999046	-0.001252174	0.000341415	-0.000172615	9.521770477	-1.876807213	1.988220215	-0.062608737	0.017070775	-0.008630755	-0.604248047	0.281494141	0.741699219	895.76	-43.4376343	-74.0739265	-115.9213238	-72
25789	0	0.37677002	-0.076599121	0.079040527	0.999999046	-0.001075745	0.000512123	0.000175476	9.419250488	-1.914978027	1.976013184	-0.053787244	0.025606162	0.008773806	-0.606445313	0.279296875	0.739257813	895.8	-43.44084418	-74.01983032	-116.0440985	-71
25790	0	0.375930786	-0.075434685	0.078164101	0.999999046	-0.000169754	4.01E-05	0.000231743	9.398269653	-1.885867119	1.954102516	-0.008487702	0.002002716	0.011587143	-0.606445313	0.277099609	0.739501953	895.8	-43.48676354	-74.00060758	-116.01967	-71
25791	0	0.37689209	-0.074523926	0.079711914	0.999999046	9.16E-05	-0.000163078	-5.72E-05	9.422302246	-1.863098145	1.992797852	0.004577637	-0.008153915	-0.002861023	-0.604003906	0.274902344	0.742431641	895.74	-43.47453707	-74.02108319	-116.0296513	-70
25792	0	0.378757477	-0.07629776	0.080150604	0.999999046	-0.000458717	4.01E-05	-1.91E-05	9.46893692	-1.907444	2.003765106	-0.022935868	0.002002716	-0.000953674	-0.606445313	0.279296875	0.739257813	895.74	-43.48045528	-74.02163876	-116.0738352	-71
25793	0	0.378845215	-0.079162598	0.080993652	0.999999046	0.000293732	8.58E-06	0.000125885	9.471130371	-1.979064941	2.024841309	0.014686585	0.000429153	0.006294251	-0.606445313	0.275146484	0.742675781	895.82	-43.45116313	-74.01321949	-116.0776697	-71
25794	0	0.376443863	-0.075427055	0.079456329	0.999999046	0.001089096	-0.000150681	7.25E-05	9.411096573	-1.885676384	1.986408234	0.054454814	-0.007534029	0.003623963	-0.604003906	0.274902344	0.733886719	895.8	-43.35893566	-74.02226404	-116.0509286	-72
25795	0	0.376647949	-0.072692871	0.079711914	0.999999046	0.000717163	-0.000193596	-0.000102997	9.41619873	-1.817321777	1.992797852	0.035858158	-0.009679795	-0.005149842	-0.606689453	0.279541016	0.739501953	895.8	-43.26950579	-74.04877878	-116.0611149	-70
25796	0	0.378464699	-0.074391365	0.081196785	0.999999046	0.000119209	-0.000249863	-2.67E-05	9.46161747	-1.859784126	2.029919624	0.005960465	-0.012493134	-0.001335144	-0.604248047	0.277099609	0.739501953	895.8	-43.28592611	-74.0739752	-116.0369125	-70
25797	0	0.37713623	-0.077026367	0.081787109	0.999999046	-0.000434875	2.00E-05	0.000141144	9.428405762	-1.92565918	2.044677734	-0.021743775	0.001001358	0.00705719	-0.606445313	0.279541016	0.736572266	895.76	-43.34054146	-74.06332342	-116.0315591	-69
25798	0	0.375950813	-0.078180313	0.080756187	0.999999046	0.000394821	-2.86E-05	0.000178337	9.398770332	-1.954507828	2.018904686	0.019741059	-0.001430512	0.008916855	-0.604248047	0.279296875	0.736328125	895.74	-43.32451305	-74.05363813	-116.0018877	-69
25799	0	0.378234863	-0.07409668	0.078735352	0.999999046	0.000255585	-0.000185966	1.53E-05	9.455871582	-1.852416992	1.968383789	0.012779236	-0.009298325	0.000762939	-0.606445313	0.279541016	0.736572266	895.68	-43.32006855	-74.06998051	-115.9783897	-69
25800	0	0.377713203	-0.077240944	0.080708504	0.999999046	0.000239372	-0.000188828	-0.000408173	9.442830086	-1.931023598	2.017712593	0.011968613	-0.009441376	-0.020408631	-0.604248047	0.277099609	0.739501953	895.8	-43.19432914	-74.11971201	-116.0883162	-68
25801	0	0.375549316	-0.076721191	0.081726074	0.999999046	2.29E-05	-0.000132561	-4.96E-05	9.38873291	-1.918029785	2.043151855	0.001144409	-0.006628037	-0.002479553	-0.606689453	0.279541016	0.739501953	895.8	-43.18273682	-74.13642023	-116.1005997	-67
25802	0	0.374419212	-0.078268051	0.082300186	0.999999046	-0.00037384	1.91E-06	0.000278473	9.360480309	-1.956701279	2.057504654	-0.018692017	9.54E-05	0.013923646	-0.604003906	0.277099609	0.736572266	895.76	-43.27593664	-74.11589589	-116.0531132	-68
25803	0	0.372802734	-0.079040527	0.080566406	0.999999046	0	-0.000174522	0.000247955	9.320068359	-1.976013184	2.014160156	0	-0.00872612	0.012397766	-0.604248047	0.279296875	0.739257813	895.76	-43.36630904	-74.11222934	-115.9609648	-69
25804	0	0.37609005	-0.077457428	0.084950447	0.999999046	0.00026226	-0.000555038	1.05E-05	9.402251244	-1.936435699	2.123761177	0.013113023	-0.027751924	0.000524521	-0.606689453	0.279541016	0.7421875	895.76	-43.46216645	-74.15861508	-115.8350812	-70
25805	0	0.372741699	-0.079528809	0.090148926	0.999999046	-0.000324249	-0.000338554	-9.16E-05	9.31854248	-1.988220215	2.253723145	-0.016212464	-0.01692772	-0.004577637	-0.604248047	0.279541016	0.7421875	895.7	-43.53475752	-74.19441255	-115.8001131	-70
25806	0	0.374647141	-0.080739021	0.088926315	0.999996185	0.002449989	-0.000845909	-0.000120163	9.366178513	-2.018475533	2.223157883	0.122499603	-0.042295503	-0.006008155	-0.606689453	0.279541016	0.739501953	895.76	-43.4222028	-74.27409046	-115.6358496	-70
25807	0	0.372131348	-0.064575195	0.084594727	0.999991417	0.003665924	-0.001513481	-0.000801086	9.303283691	-1.614379883	2.114868164	0.183296704	-0.075674263	-0.040054431	-0.602050781	0.283691406	0.735839844	895.7	-43.15303468	-74.4632038	-115.4862613	-69
25808	0	0.37603569	-0.054392815	0.091000557	0.999993324	-0.002932549	-0.000629425	-0.002053261	9.400892258	-1.359820366	2.275013924	-0.146627749	-0.031471322	-0.102663266	-0.602294922	0.288085938	0.738525391	895.76	-43.0047926	-74.67667812	-115.9692204	-70
25809	0	0.375732422	-0.068359375	0.104675293	0.999939919	-0.010585785	0.000523567	-0.002601624	9.393310547	-1.708984375	2.616882324	-0.529299753	0.02617888	-0.130083759	-0.606689453	0.279541016	0.745117188	895.76	-43.22438457	-74.83586222	-116.9574039	-70
25810	0	0.37771225	-0.08753109	0.115427971	0.999881744	-0.015114784	0.00142765	-0.002335548	9.442806244	-2.188277245	2.885699272	-0.755768935	0.07138533	-0.116782013	-0.610351563	0.255615234	0.750244141	895.76	-43.77532922	-74.89876	-118.1363962	-70
25811	0	0.360778809	-0.097839355	0.110839844	0.999941826	-0.010509491	0.000412941	-0.002353668	9.019470215	-2.445983887	2.770996094	-0.525484722	0.020647449	-0.117685689	-0.616699219	0.233886719	0.752197266	895.76	-44.08652491	-75.04688506	-119.0261533	-70
25812	0	0.334055901	-0.11122036	0.100543022	0.99998951	0.001690865	-0.002792358	-0.003085136	8.351397514	-2.780508995	2.513575554	0.084543512	-0.139618389	-0.154257339	-0.620849609	0.220947266	0.753417969	895.76	-43.72218351	-75.51490792	-119.1993884	-69
25813	0	0.281860352	-0.107177734	0.10949707	0.999897003	0.011471748	-0.00560379	-0.006477356	7.046508789	-2.679443359	2.737426758	0.573607013	-0.280199086	-0.323878862	-0.618896484	0.225341797	0.764404297	895.74	-41.92738669	-76.47891945	-119.7088615	-67
25814	0	0.276486397	-0.118803024	0.10395813	0.999833107	0.012109756	-0.008871078	-0.01034832	6.91215992	-2.970075607	2.598953247	0.605521376	-0.443578503	-0.517444672	-0.6171875	0.240722656	0.763183594	895.64	-39.44749388	-78.00697355	-120.8200135	-64
25815	0	0.434082031	-0.199645996	0.116210938	0.99926281	0.030536652	-0.011115074	-0.020397186	10.85205078	-4.991149902	2.905273438	1.527207431	-0.55589015	-1.020109698	-0.613037109	0.249267578	0.773681641	895.76	-29.6135162	-80.3625074	-127.3018524	-63
25816	0	0.498387337	-0.196685791	0.136817932	0.998792648	0.039461136	-0.00726223	-0.028320313	12.45968342	-4.917144775	3.420448303	1.973850811	-0.363257623	-1.416585473	-0.614257813	0.280029297	0.768310547	895.7	-6.661992011	-82.15826144	-145.971601	-62
25817	0	0.408813477	-0.145141602	0.171081543	0.999279976	0.033565521	-0.003386497	-0.017353058	10.22033691	-3.628540039	4.277038574	1.678678897	-0.169365518	-0.867861155	-0.631347656	0.306640625	0.744140625	895.68	11.88253958	-82.42528351	-160.8387809	-62
25818	0	0.312468529	-0.072502136	0.172091484	0.99982357	0.018493652	-0.001310349	0.002753258	7.811713219	-1.812553406	4.302287102	0.924736768	-0.065521262	0.137670949	-0.641601563	0.339599609	0.719238281	895.86	11.66577775	-82.60110374	-158.5010174	-63
25819	0	0.303588867	-0.054992676	0.127075195	0.999863625	0.006809235	0.00142765	0.014961243	7.58972168	-1.374816895	3.176879883	0.340477181	0.071385762	0.74809608	-0.642822266	0.37890625	0.696044922	895.76	-1.008288774	-82.55439846	-144.8988407	-66
25820	0	0.328558922	-0.055218697	0.085189819	0.999827385	-0.001530647	0.005926132	0.017532349	8.213973045	-1.380467415	2.129745483	-0.076536763	0.296323643	0.876667822	-0.641601563	0.413574219	0.673339844	895.74	-14.91666466	-81.54721429	-130.9255918	-64
25821	0	0.350830078	-0.055053711	0.083435059	0.999787331	-0.010368347	0.010727882	0.014209747	8.770751953	-1.376342773	2.085876465	-0.518454044	0.536432077	0.710537643	-0.642089844	0.4375	0.651367188	895.74	-23.09954727	-79.79922283	-123.6377075	-63
25822	0	0.413354874	-0.058639526	0.073190689	0.999484062	-0.027254105	0.014572144	0.00874424	10.33387184	-1.465988159	1.829767227	-1.362939633	0.728732507	0.437287196	-0.651611328	0.446533203	0.639648438	895.8	-27.24597369	-77.81018781	-122.2994039	-67
25823	0	0.551696777	-0.070617676	0.065856934	0.998772621	-0.046276093	0.017140388	0.004207611	13.79241943	-1.765441895	1.64642334	-2.314751622	0.857370186	0.210466659	-0.668945313	0.418457031	0.625732422	895.76	-30.34980044	-75.80850987	-124.2836045	-70
25824	0	0.5496912	-0.056430817	0.058114052	0.997891426	-0.061528206	0.019834518	0.005768776	13.74228001	-1.410770416	1.452851295	-3.078574247	0.992423504	0.288641685	-0.692382813	0.368896484	0.616943359	895.76	-35.001743	-73.49589712	-126.6290456	-71
25825	0	0.491760254	-0.026000977	0.061096191	0.99770546	-0.063361168	0.019371033	0.01391983	12.29400635	-0.650024414	1.527404785	-3.170483606	0.969293081	0.696524311	-0.712890625	0.301757813	0.612060547	895.76	-41.89901529	-70.7302379	-126.9918365	-75
25826	0	0.493966103	0.02974987	0.001320839	0.998058319	-0.058438301	0.014634132	0.015822411	12.34915257	0.743746758	0.033020973	-2.923807642	0.732180562	0.791632955	-0.729492188	0.256347656	0.599609375	895.76	-48.8446485	-68.23808506	-126.7326423	-72
25827	0	0.317565918	0.025024414	0.045898438	0.999180794	-0.039264679	0.009400368	-0.002532959	7.939147949	0.625610352	1.147460938	-1.963769814	0.470146679	-0.126682518	-0.739257813	0.212890625	0.586669922	895.76	-50.86633957	-67.74912293	-129.4115778	-70
25828	0	0.32592392	0.005442619	0.082558632	0.999629021	-0.014725685	0.005056381	-0.022321701	8.148097992	0.136065483	2.063965797	-0.736375177	0.252850281	-1.116222874	-0.750732422	0.162841797	0.571289063	895.76	-47.19186772	-69.29181011	-135.1800723	-68
25829	0	0.464538574	0.022827148	0.071899414	0.9992342	-0.007751465	-0.000247002	-0.038330078	11.61346436	0.570678711	1.797485352	-0.387672099	-0.012353232	-1.916992741	-0.764648438	0.110595703	0.556396484	895.76	-38.90666247	-72.31915536	-144.8929773	-73
25830	0	0.471191406	0.002814293	0.08798027	0.998733521	-0.002720833	-0.004691124	-0.05000782	11.77978516	0.070357323	2.19950676	-0.136099075	-0.234655223	-2.50144662	-0.770751953	0.036376953	0.551513672	895.74	-22.91144049	-75.76345352	-161.8412852	-74
25831	0	0.354309082	-0.018432617	0.103271484	0.998560905	0.005599976	-0.005942345	-0.052993774	8.857727051	-0.46081543	2.581787109	0.28013312	-0.297259787	-2.650960014	-0.764892578	-0.046875	0.552246094	895.82	2.670831244	-77.54483951	172.5476495	-66
25832	0	0.260789871	-0.010435104	0.060789108	0.998695374	0.012880325	-0.00508213	-0.049139023	6.51974678	-0.260877609	1.519727707	0.644296352	-0.254217034	-2.458019684	-0.752685547	-0.119384766	0.5546875	895.64	28.64090328	-76.56032671	147.4321991	-65
25833	0	0.263122559	0.038208008	0.033691406	0.998890877	0.000610352	-0.004717827	-0.046829224	6.578063965	0.955200195	0.842285156	0.030528859	-0.235978536	-2.342326671	-0.735839844	-0.183349609	0.556152344	895.7	46.09938736	-73.69476177	129.4525387	-73
25834	0	0.318581581	0.010562897	0.07543087	0.998793602	-0.018558502	-0.003307343	-0.04532814	7.964539528	0.264072418	1.885771751	-0.928298231	-0.165433621	-2.267318341	-0.709228516	-0.260986328	0.552490234	895.7	54.93152902	-69.9055521	117.9205957	-68
25835	0	0.404296875	-0.064086914	0.125427246	0.998914719	-0.017115593	-0.001838684	-0.04327774	10.10742188	-1.602172852	3.135681152	-0.856089356	-0.091967475	-2.164670137	-0.679443359	-0.349609375	0.535400391	895.58	59.95874821	-65.83426525	110.3733853	-69
25836	0	0.461133957	-0.119974136	0.161480904	0.99921608	-0.002086639	0.000683784	-0.039509773	11.52834892	-2.999353409	4.037022591	-0.104359217	0.034198153	-1.976004577	-0.645507813	-0.425048828	0.516845703	895.76	63.88225347	-61.81516401	105.7235751	-69
25837	0	0.476623535	-0.118347168	0.157775879	0.999570847	0.005806923	0.001167297	-0.028675079	11.91558838	-2.958679199	3.944396973	0.290387649	0.058373211	-1.433958916	-0.610107422	-0.476806641	0.499267578	895.86	66.69618613	-58.80323204	103.2256261	-73
25838	0	0.503005028	-0.076367378	0.154881477	0.999934196	-0.000562668	0.000118256	-0.011445045	12.57512569	-1.909184456	3.872036934	-0.028134008	0.00591291	-0.572264799	-0.582763672	-0.508300781	0.486083984	895.8	67.37793659	-57.63378184	102.3091037	-69
25839	0	0.456542969	-0.057495117	0.156799316	0.999827385	-0.017276764	-0.001311302	0.006664276	11.41357422	-1.43737793	3.91998291	-0.863887819	-0.065568876	0.333232948	-0.572021484	-0.528564453	0.458740234	895.82	65.05176163	-58.44760396	102.6675387	-69
25840	0	0.381155968	-0.099749565	0.14966011	0.999365807	-0.025086403	0.000656128	0.025259972	9.528899193	-2.493739128	3.741502762	-1.254585339	0.032813333	1.26326561	-0.575439453	-0.544189453	0.414550781	895.7	59.66340133	-61.04090588	105.5018991	-69
25841	0	0.390808105	-0.112182617	0.112304688	0.998926163	-0.008341789	0.000854492	0.045562744	9.770202637	-2.80456543	2.807617188	-0.417238805	0.042739907	2.278952915	-0.597900391	-0.543701172	0.361572266	895.76	52.64247935	-65.39954575	112.1640581	-67
25842	0	0.4977808	-0.063639641	0.083497047	0.997761726	0.018091202	0.001001358	0.064361572	12.44452	-1.59099102	2.087426186	0.905235452	0.050105283	3.220481298	-0.640869141	-0.509765625	0.335449219	895.8	41.77924608	-70.84114341	125.907881	-64
25843	0	0.57434082	-0.014099121	0.079284668	0.996614456	0.028122902	0.003536224	0.07717514	14.35852051	-0.352478027	1.982116699	1.407734051	0.177011016	3.863117445	-0.705078125	-0.433105469	0.343994141	895.7	18.76718499	-75.11153047	153.1083469	-66
25844	0	0.481833458	0.00767231	0.08132267	0.996041298	0.017296791	0.00733757	0.086875916	12.04583645	0.191807747	2.03306675	0.865982391	0.367363319	4.349535859	-0.779785156	-0.33203125	0.351074219	895.7	-16.97847316	-74.36719672	-168.0547684	-70
25845	0	0.428955078	-0.009765625	0.070861816	0.995718002	0.006134987	0.006149292	0.092025757	10.72387695	-0.244140625	1.77154541	0.307187853	0.307904131	4.607865545	-0.853515625	-0.196044922	0.364013672	895.76	-42.83255591	-68.25050444	-140.2492634	-69
25846	0	0.431694984	-0.020051956	0.065012932	0.995859146	0.004031181	0.006072044	0.090615273	10.79237461	-0.501298904	1.625323296	0.201837727	0.304021955	4.537027508	-0.902832031	-0.034667969	0.373291016	895.68	-55.41463857	-59.79028465	-125.888418	-66
25847	0	0.484985352	-0.006713867	0.068359375	0.996469498	0.004532814	0.012882233	0.082832336	12.12463379	-0.16784668	1.708984375	0.226907765	0.644870627	4.146497123	-0.919433594	0.138671875	0.380126953	895.76	-60.43789258	-50.8668547	-119.2201774	-69
25848	0	0.437461853	0.001579285	0.03146553	0.997362137	-0.007263184	0.018090248	0.069918633	10.93654633	0.039482117	0.78663826	-0.36347883	0.905308551	3.499008719	-0.905273438	0.306396484	0.365478516	895.8	-63.37525863	-42.75495744	-116.3529972	-65
25849	0	0.470947266	-0.03314209	0.068786621	0.998454094	-0.015979767	0.015751839	0.050842285	11.77368164	-0.828552246	1.719665527	-0.799400182	0.7879979	2.543424595	-0.877685547	0.434570313	0.353515625	895.72	-65.94433614	-36.67238257	-115.2045218	-66
25850	0	0.473568916	-0.047382355	0.120306015	0.999315262	-0.011342049	0.015845299	0.031434059	11.83922291	-1.184558868	3.007650375	-0.567231794	0.792445662	1.572061478	-0.846191406	0.516601563	0.353515625	895.76	-67.09700789	-32.62091423	-115.4656721	-65
25851	0	0.329284668	-0.025146484	0.147338867	0.999787331	-0.004482269	0.014943123	0.013439178	8.232116699	-0.628662109	3.68347168	-0.224129305	0.747208952	0.672006417	-0.834228516	0.570800781	0.345703125	895.82	-67.01450457	-30.52459339	-116.605067	-66
25852	0	0.335337639	0.02455616	0.123305321	0.999860764	-0.002758026	0.005789757	-0.015356064	8.383440971	0.613903999	3.082633018	-0.137907672	0.289501202	-0.767838635	-0.834716797	0.590332031	0.326904297	895.76	-66.53772595	-31.88446197	-118.1297719	-67
25853	0	0.401672363	-0.047790527	0.135192871	0.998738289	-0.008090973	-0.00322628	-0.049449921	10.04180908	-1.194763184	3.379821777	-0.404718827	-0.161381871	-2.473536143	-0.865966797	0.549804688	0.334716797	895.8	-66.1197791	-37.24472053	-120.4882488	-65
25854	0	0.420804024	-0.096260071	0.180877686	0.997146606	-0.006306648	-0.010178566	-0.074523926	10.52010059	-2.40650177	4.521942139	-0.315632601	-0.509412786	-3.729743534	-0.924804688	0.438232422	0.361328125	895.76	-64.61316896	-45.5343918	-123.8369641	-63
25855	0	0.58380127	-0.107116699	0.152648926	0.996042252	0.002049446	-0.014030457	-0.087738037	14.59503174	-2.67791748	3.816223145	0.102607692	-0.702449682	-4.39269785	-0.977294922	0.284912109	0.388183594	895.74	-60.44028189	-55.26033372	-128.9094514	-60
25856	0	0.518597603	-0.079084396	0.101667404	0.995853424	0.007833481	-0.005999565	-0.090435028	12.96494007	-1.977109909	2.541685104	0.392216303	-0.300393567	-4.528011637	-1.007568359	0.104736328	0.410400391	895.82	-50.28744674	-64.27346358	-139.561331	-60
25857	0	0.376098633	-0.024902344	0.07623291	0.996214867	-0.007152557	-0.000727654	-0.086624146	9.40246582	-0.622558594	1.905822754	-0.358079745	-0.036428646	-4.336679926	-1.011962891	-0.076660156	0.425537109	895.76	-32.89903502	-71.06932731	-159.1720439	-61
25858	0	0.33717823	-0.054200172	0.042398453	0.996263504	-0.033667564	0.003582954	-0.079443932	8.429455757	-1.355004311	1.059961319	-1.685477622	0.179371142	-3.977150451	-0.989746094	-0.267822266	0.420166016	895.8	-8.662757899	-74.03214344	171.4450777	-60
25859	0	0.389648438	-0.085144043	0.037719727	0.996344566	-0.046417236	0.00647068	-0.071418762	9.741210938	-2.128601074	0.942993164	-2.323693707	0.323928785	-3.57529533	-0.94140625	-0.453369141	0.381347656	895.76	13.94746836	-72.86981396	142.3542808	-63
25860	0	0.518164635	-0.158621788	0.065618515	0.996725082	-0.04863739	0.009900093	-0.06384182	12.95411587	-3.965544701	1.640462875	-2.434527826	0.495545752	-3.195580318	-0.874755859	-0.615722656	0.316894531	895.76	27.34304667	-69.15050197	122.3172928	-64
25861	0	0.571350098	-0.190551758	0.056884766	0.997426033	-0.04366684	0.011475563	-0.055698395	14.28375244	-4.763793945	1.422119141	-2.185217006	0.574270906	-2.787311391	-0.799804688	-0.75	0.232421875	895.76	33.7699238	-64.72895515	109.902252	-60
25862	0	0.522219658	-0.198624611	0.07388401	0.997927666	-0.041044235	0.00812912	-0.048884392	13.05549145	-4.965615273	1.847100258	-2.053630568	0.406736999	-2.445909412	-0.723876953	-0.849365234	0.153808594	895.68	36.91605344	-60.70942797	101.0704174	-63
25863	0	0.481384277	-0.239135742	0.084350586	0.998504639	-0.040518761	0.003765106	-0.036483765	12.03460693	-5.978393555	2.108764648	-2.026947975	0.188349156	-1.8250976	-0.646972656	-0.924804688	0.075927734	895.7	37.43914072	-57.84345826	95.05064338	-66
25864	0	0.424553871	-0.231150627	0.079133987	0.999185562	-0.037590027	-0.004174232	-0.014033318	10.61384678	-5.778765678	1.978349686	-1.88001149	-0.208768274	-0.701856329	-0.599365234	-0.966308594	-0.000244141	895.74	35.59309302	-57.29433838	92.11383839	-64
25865	0	0.373352051	-0.238342285	0.093994141	0.999863625	-0.012733459	-0.008086205	0.006603241	9.33380127	-5.958557129	2.349853516	-0.636701747	-0.404328499	0.33017697	-0.590820313	-0.978027344	-0.051025391	895.7	33.94434151	-58.52320689	92.2995583	-69
25866	0	0.333292007	-0.23807621	0.038033485	0.999094009	0.028506279	-0.013257027	0.028658867	8.332300186	-5.951905251	0.950837135	1.425744195	-0.663051422	1.433375893	-0.626708984	-0.965820313	-0.038818359	895.82	33.87833998	-61.66539393	96.07643865	-62
25867	0	0.49822998	-0.157897949	0.01184082	0.996426582	0.065174103	-0.017504692	0.050792694	12.45574951	-3.94744873	0.296020508	3.262592218	-0.876278609	2.542664055	-0.700683594	-0.918701172	0.066894531	895.76	33.54458705	-66.63639791	104.6595003	-64
25868	0	0.631469727	-0.073348999	0.03815937	0.993268967	0.090881348	-0.014456749	0.070336342	15.78674316	-1.833724976	0.953984261	4.55428946	-0.724463502	3.524728326	-0.803955078	-0.811035156	0.226318359	895.76	27.42999199	-72.27657598	122.2108365	-58
25869	0	0.52142334	0.004516602	0.079406738	0.992266655	0.086994171	-0.003962517	0.088447571	13.0355835	0.112915039	1.985168457	4.36095579	-0.198638142	4.433813679	-0.915527344	-0.618164063	0.387695313	895.7	2.998503025	-75.55529828	157.8836677	-61
25870	0	0.426062584	0.061817169	0.075393677	0.993280411	0.052832603	0.003592491	0.102899551	10.6515646	1.54542923	1.884841919	2.647562336	0.18002793	5.156531362	-1.012451172	-0.349609375	0.470703125	895.76	-31.19519911	-72.01864884	-160.3519705	-61
25871	0	0.479003906	0.061889648	0.101745605	0.993881226	0.014924049	0.013080597	0.108654022	11.97509766	1.547241211	2.543640137	0.747728078	0.655367009	5.443808258	-1.071289063	-0.069824219	0.473876953	895.76	-50.04395573	-62.52838023	-138.1606828	-63
25872	0	0.525696754	0.052999496	0.086603165	0.994293213	-0.010795593	0.025202751	0.103093147	13.14241886	1.324987411	2.165079117	-0.540808717	1.262539925	5.16448437	-1.072265625	0.192138672	0.432373047	895.82	-58.35773687	-51.15522952	-129.7382383	-64
25873	0	0.559265137	-0.008544922	0.049194336	0.995483398	-0.021544456	0.025901794	0.088752747	13.98162842	-0.213623047	1.229858398	-1.078847431	1.297042903	4.444329924	-1.03125	0.409179688	0.375244141	895.68	-63.31144428	-40.77302286	-126.2999217	-63
25874	0	0.521892548	-0.015479088	0.101484299	0.997135162	-0.006943703	0.025353432	0.070913315	13.04731369	-0.386977196	2.537107468	-0.347516956	1.268883158	3.5490545	-0.960693359	0.583496094	0.334228516	895.8	-64.81709204	-32.16931598	-125.1102802	-71
25875	0	0.433044434	0.031433105	0.108276367	0.998637199	0.000396729	0.024159431	0.04624939	10.82611084	0.785827637	2.70690918	0.019845439	1.208520432	2.313520185	-0.885742188	0.711914063	0.282470703	895.76	-64.6401492	-26.19419049	-125.3796787	-70
25876	0	0.293292046	0.0418396	0.10385704	0.999727249	-0.006877899	0.016840935	0.014633179	7.33230114	1.04598999	2.59642601	-0.343926206	0.84212325	0.731725417	-0.83203125	0.786376953	0.239257813	895.82	-64.94397947	-23.87039546	-126.5198386	-65
25877	0	0.335205078	-0.060119629	0.13079834	0.999557495	-0.009119987	0.003154755	-0.028133392	8.380126953	-1.502990723	3.269958496	-0.456066632	0.157760997	-1.406877093	-0.831787109	0.790527344	0.221923828	895.76	-65.18462664	-26.67064189	-128.3905464	-63
25878	0	0.355007172	-0.102719307	0.1739645	0.998166084	-0.002008438	-0.007116318	-0.060078621	8.875179291	-2.567982674	4.349112511	-0.100483333	-0.356033538	-3.005768536	-0.885253906	0.724609375	0.232910156	895.74	-64.12066786	-33.28683355	-130.9506754	-62
25879	0	0.437744141	-0.092224121	0.179321289	0.996687889	-0.000675201	-0.015410423	-0.079841614	10.94360352	-2.305603027	4.483032227	-0.033797389	-0.771372895	-3.996493518	-0.971679688	0.598632813	0.250976563	895.76	-62.17812241	-42.31237291	-134.2041203	-58
25880	0	0.580432892	-0.086176872	0.132227898	0.995371819	0.006999016	-0.018320084	-0.094071388	14.5108223	-2.154421806	3.305697441	0.350491617	-0.917419807	-4.710838481	-1.048828125	0.424316406	0.275146484	895.76	-57.35433467	-52.77480544	-139.5935145	-58
25881	0	0.449768066	-0.079772949	0.109802246	0.995177269	0.000953674	-0.012454033	-0.097293854	11.24420166	-1.99432373	2.745056152	0.047760518	-0.623704611	-4.872528094	-1.104003906	0.216552734	0.315185547	895.76	-48.24002463	-62.63935235	-150.1682699	-63
25882	0	0.335515976	-0.049040794	0.104476929	0.995779991	-0.013666153	-0.005590439	-0.090569496	8.387899399	-1.226019859	2.611923218	-0.684270305	-0.279915738	-4.534854614	-1.123046875	-0.005859375	0.334472656	895.82	-32.42191884	-70.00456363	-169.0703188	-64
25883	0	0.33782959	-0.060791016	0.073059082	0.996495247	-0.020069122	-0.000361443	-0.081199646	8.445739746	-1.519775391	1.826477051	-1.004629892	-0.018093268	-4.064731398	-1.104492188	-0.222900391	0.33984375	895.74	-7.788381083	-73.37066504	162.6316928	-60
25884	0	0.420592308	-0.083154678	0.081373215	0.996918678	-0.028552055	0.00419426	-0.072933197	10.5148077	-2.078866959	2.034330368	-1.429070619	0.209928608	-3.650409321	-1.058837891	-0.410400391	0.32421875	895.76	16.32312432	-72.22281234	134.0221125	-56
25885	0	0.551025391	-0.147644043	0.078186035	0.996972084	-0.040710449	0.006871223	-0.065887451	13.77563477	-3.691101074	1.954650879	-2.037579091	0.343908296	-3.297701093	-0.994628906	-0.585449219	0.286621094	895.76	30.44066571	-68.41384031	114.1066192	-62
25886	0	0.586839676	-0.202250481	0.093099594	0.997068405	-0.049393654	0.008627892	-0.057786942	14.6709919	-5.056262016	2.327489853	-2.472098445	0.431816551	-2.892173328	-0.919433594	-0.730712891	0.211669922	895.7	36.18395648	-63.89120721	101.6509296	-58
25887	0	0.53729248	-0.285583496	0.131103516	0.998065948	-0.040095329	0.008777618	-0.046672821	13.43231201	-7.139587402	3.277587891	-2.00605946	0.439163981	-2.335146159	-0.837890625	-0.845703125	0.116943359	895.6	38.4368921	-59.81882351	93.88333808	-63
25888	0	0.446169853	-0.317106247	0.09269619	0.999500275	-0.017961502	0.004406929	-0.025635719	11.15424633	-7.927656174	2.317404747	-0.898224734	0.220383163	-1.281999527	-0.772705078	-0.916259766	0.042236328	895.72	39.60410527	-57.57182021	90.09632599	-60
25889	0	0.433898926	-0.285522461	0.098999023	0.999937057	0.011002541	-0.000732422	-0.001911163	10.84747314	-7.138061523	2.474975586	0.550138513	-0.036621858	-0.095560161	-0.738525391	-0.943847656	0.019775391	895.76	41.18061923	-57.5064397	89.69649173	-60
25890	0	0.368803978	-0.214805603	0.042480469	0.999065399	0.033875465	-0.003802299	0.026566505	9.220099449	-5.370140076	1.062011719	1.69430098	-0.190174207	1.328739124	-0.753662109	-0.929931641	0.053710938	895.8	41.73309916	-59.87574618	93.5533671	-60
25891	0	0.456237793	-0.121826172	0.017272949	0.997272491	0.051236153	-0.007507324	0.052577972	11.40594482	-3.045654297	0.43182373	2.564138594	-0.375707753	2.631290627	-0.818603516	-0.865966797	0.131835938	895.76	39.94394396	-64.51655606	102.160975	-61
25892	0	0.611693382	-0.042629242	0.052390099	0.995279312	0.06411171	-0.007040977	0.072518349	15.29233456	-1.065731049	1.309752464	3.210639055	-0.352603876	3.63163366	-0.910400391	-0.737304688	0.24609375	895.7	32.1536723	-70.15644594	118.4984344	-58
25893	0	0.573913574	0.014892578	0.088989258	0.994757652	0.046344757	-0.000472069	0.091144562	14.34783936	0.372314453	2.224731445	2.321294909	-0.023644765	4.565206952	-1.004638672	-0.545654297	0.34375	895.72	6.52243808	-73.83146958	150.9180286	-60
25894	0	0.460116386	0.034051895	0.088564873	0.994034767	0.014627457	0.001493454	0.108062744	11.50290966	0.851297379	2.214121819	0.732830442	0.07482152	5.413905535	-1.083251953	-0.30859375	0.3828125	895.64	-30.86566572	-70.84646432	-168.2725886	-66
25895	0	0.48425293	0.033691406	0.073303223	0.993252754	-0.002422333	0.00067234	0.115940094	12.10632324	0.842285156	1.832580566	-0.121389766	0.033692829	5.810077399	-1.122558594	-0.051269531	0.406738281	895.7	-53.7155367	-61.58948834	-143.7661143	-69
25896	0	0.541627884	-0.000216484	0.056934357	0.993456841	0.001822472	0.001905441	0.114171028	13.5406971	-0.005412102	1.423358917	0.091322824	0.095480378	5.721033266	-1.101318359	0.210693359	0.426757813	895.7	-63.41918415	-50.19760626	-131.8798018	-68
25897	0	0.569030762	-0.024902344	0.056884766	0.994415283	0.017834663	0.006443024	0.103816986	14.22576904	-0.622558594	1.422119141	0.893396809	0.322752197	5.20053348	-1.032470703	0.457763672	0.439941406	895.76	-65.78893856	-39.08028124	-125.6281483	-64
25898	0	0.525735855	-0.013028145	0.076491356	0.995913506	0.028318405	0.01439476	0.084539413	13.14339638	-0.325703621	1.912283897	1.417852076	0.720719985	4.232737764	-0.929199219	0.683837891	0.418457031	895.7	-64.31954955	-29.58552773	-122.478984	-68
25899	0	0.394104004	0.04876709	0.087036133	0.997898102	0.025055885	0.017692566	0.057079315	9.852600098	1.219177246	2.17590332	1.253672647	0.885248542	2.855966782	-0.830322266	0.857421875	0.367431641	895.72	-62.01332873	-22.84588282	-121.1995793	-66
25900	0	0.233633041	0.08257103	0.120577812	0.9995718	0.006894112	0.016065598	0.02344799	5.840826035	2.064275742	3.014445305	0.344754746	0.803394447	1.172566738	-0.756591797	0.955078125	0.321289063	895.7	-61.09002023	-19.63315228	-121.5635681	-67
25901	0	0.30279541	-0.03704834	0.132385254	0.999835014	-0.002216339	0.00407505	-0.01750946	7.569885254	-0.926208496	3.309631348	-0.110823016	0.203763661	-0.875520903	-0.739013672	0.987304688	0.314697266	895.76	-60.82239021	-21.20016488	-123.0370115	-66
25902	0	0.391553879	-0.122941017	0.181193352	0.998249054	0.005057335	-0.011935234	-0.057713509	9.78884697	-3.073525429	4.529833794	0.253014436	-0.597110252	-2.887360855	-0.796142578	0.945556641	0.335693359	895.76	-59.26319311	-27.670853	-125.3567514	-60
25903	0	0.360717773	-0.074768066	0.210144043	0.99648571	0.009254456	-0.02319622	-0.07995224	9.017944336	-1.86920166	5.253601074	0.463265576	-1.161171539	-4.002301408	-0.904541016	0.840087891	0.364501953	895.74	-56.50900935	-36.92020826	-128.4554261	-64
25904	0	0.504952431	-0.036625862	0.181809425	0.994970322	0.006174088	-0.030789375	-0.095119476	12.62381077	-0.915646553	4.545235634	0.309222969	-1.542054918	-4.763963374	-1.016113281	0.684570313	0.426025391	895.76	-52.5790898	-47.94720843	-133.1416426	-59
25905	0	0.549621582	-0.048278809	0.11505127	0.994152069	-0.012915611	-0.025432587	-0.10414505	13.74053955	-1.206970215	2.876281738	-0.647042142	-1.274113552	-5.217425241	-1.101806641	0.471435547	0.496582031	895.82	-46.45981579	-59.0539014	-142.4904977	-62
25906	0	0.43102932	-0.044607162	0.095430374	0.993378639	-0.054178238	-0.013719559	-0.100376129	10.77573299	-1.115179062	2.385759354	-2.714906669	-0.687495993	-5.029912985	-1.150390625	0.206787109	0.569580078	895.8	-37.3038454	-68.08726709	-159.5437597	-66
25907	0	0.395629883	-0.111633301	0.092285156	0.993308067	-0.07585907	-8.30E-05	-0.087078094	9.89074707	-2.79083252	2.307128906	-3.801435728	-0.004157761	-4.363641425	-1.149658203	-0.103515625	0.609130859	895.8	-20.6966988	-73.11586913	173.7108925	-72
25908	0	0.444263458	-0.124595642	0.059523582	0.994970322	-0.070009232	0.009062767	-0.071066856	11.10658646	-3.114891052	1.488089561	-3.506342064	0.453899586	-3.559312141	-1.115966797	-0.384765625	0.573486328	895.8	-0.632657119	-73.62052813	144.4385263	-64
25909	0	0.508483887	-0.156677246	0.055419922	0.996631622	-0.057898521	0.015014648	-0.056091309	12.71209717	-3.916931152	1.385498047	-2.898180132	0.751576288	-2.80771792	-1.062988281	-0.605957031	0.483154297	895.7	12.67867067	-71.16397806	123.5218694	-58
25910	0	0.497478485	-0.185791016	0.040730476	0.998051643	-0.040208817	0.015911102	-0.04497242	12.43696213	-4.644775391	1.018261909	-2.011747366	0.796072128	-2.250082315	-1.0078125	-0.763916016	0.384765625	895.76	20.12368354	-67.89876856	110.6572924	-72
25911	0	0.49206543	-0.208679199	0.044006348	0.998716354	-0.027785301	0.013061523	-0.040283203	12.30163574	-5.21697998	1.100158691	-1.389859742	0.653355724	-2.015022327	-0.950195313	-0.871337891	0.302001953	895.76	25.41411671	-64.68460033	101.404817	-60
25912	0	0.45512104	-0.248475075	0.038011551	0.999194145	-0.022805214	0.007652283	-0.032103539	11.37802601	-6.211876869	0.950288773	-1.14056675	0.382716832	-1.605607766	-0.891845703	-0.956787109	0.243164063	895.6	28.60671086	-62.2022579	94.91367493	-59
25913	0	0.501464844	-0.270324707	0.045654297	0.999661446	-0.021598816	-0.001631737	-0.014358521	12.53662109	-6.758117676	1.141357422	-1.080062387	-0.081596024	-0.718006857	-0.846679688	-1.015625	0.211181641	895.74	29.00566012	-61.56241521	91.64804142	-60
25914	0	0.442341805	-0.244648933	0.068419456	0.999920845	-0.003915787	-0.007623672	0.0091362	11.05854511	-6.116223335	1.710486412	-0.195794458	-0.381193594	0.456821946	-0.838623047	-1.037841797	0.201171875	895.76	27.57375579	-62.83075158	92.7444834	-72
25915	0	0.364685059	-0.176696777	0.058410645	0.998888969	0.031066895	-0.014288902	0.032405853	9.117126465	-4.417419434	1.460266113	1.5539199	-0.714709659	1.620892627	-0.875976563	-1.003173828	0.254638672	895.7	25.6900881	-65.97485805	98.75724778	-60
25916	0	0.474040985	-0.15140152	0.039110184	0.996273994	0.067463875	-0.016895294	0.050984383	11.85102463	-3.785037994	0.977754593	3.377388435	-0.845815206	2.552389182	-0.950927734	-0.894775391	0.395263672	895.72	21.99977225	-70.14965092	111.0448464	-57
25917	0	0.569702148	-0.098266602	0.039245605	0.993534088	0.092030525	-0.013454437	0.065109253	14.24255371	-2.456665039	0.981140137	4.611469545	-0.674175525	3.262497267	-1.028564453	-0.687255859	0.58203125	895.76	11.67786925	-73.8699872	132.9630591	-59
25918	0	0.457854271	-0.013788223	0.074311256	0.993356705	0.084462166	-0.003472328	0.078069687	11.44635677	-0.344705582	1.85778141	4.232483811	-0.174001847	3.912150282	-1.088378906	-0.378173828	0.708251953	895.82	-10.70039473	-74.36040143	166.2577081	-53
25919	0	0.414367676	0.056640625	0.097290039	0.994750023	0.049114227	0.004731178	0.0896492	10.35919189	1.416015625	2.432250977	2.460017547	0.236973729	4.490320183	-1.114501953	-0.049072266	0.734130859	895.76	-34.24398665	-69.74339397	-163.1362333	-55
25920	0	0.506662369	0.115666389	0.106428146	0.995092392	0.003944397	0.018679619	0.097081184	12.66655922	2.891659737	2.660703659	0.197543047	0.935511522	4.862013905	-1.09765625	0.234375	0.689941406	895.7	-48.86820789	-60.63299353	-146.5837753	-55
25921	0	0.498535156	0.073120117	0.059570313	0.994030952	-0.036640167	0.023236275	0.100097656	12.46337891	1.82800293	1.489257813	-1.835662048	1.164130812	5.014864357	-1.042236328	0.450683594	0.623535156	895.76	-59.65594256	-49.71274851	-138.6212163	-58
25922	0	0.48515892	-0.01673317	0.100523949	0.994894028	-0.033038139	0.017157555	0.093804359	12.12897301	-0.418329239	2.513098717	-1.654724054	0.859340717	4.698216455	-0.952636719	0.607177734	0.603027344	895.76	-66.52680225	-39.2181046	-134.264331	-58
25923	0	0.434875488	-0.064086914	0.124694824	0.997099876	0.001781464	0.015240669	0.074531555	10.87188721	-1.602172852	3.117370605	0.089159368	0.762770799	3.730183561	-0.841064453	0.741210938	0.583007813	895.82	-67.52664799	-30.68086064	-132.165762	-60
25924	0	0.352027893	-0.094408035	0.141958237	0.998385429	0.031779289	0.016809464	0.043960571	8.800697327	-2.360200882	3.548955917	1.589819776	0.840925588	2.199211727	-0.746337891	0.855712891	0.520019531	895.7	-64.03647891	-25.32304694	-131.8212565	-60
25925	0	0.241088867	-0.042541504	0.158203125	0.998820305	0.043872833	0.016816139	0.012199402	6.02722168	-1.063537598	3.955078125	2.194504106	0.841137529	0.610209906	-0.696289063	0.938476563	0.402099609	895.76	-58.5319568	-23.20698686	-132.9452566	-63
25926	0	0.26354599	-0.001626015	0.121799469	0.999361038	0.021256447	0.001496315	-0.028676987	6.58864975	-0.040650368	3.044986725	1.063048578	0.074831676	-1.434154548	-0.702392578	0.959716797	0.292236328	895.74	-55.18592301	-25.91076155	-135.0847367	-63
25927	0	0.342956543	-0.032348633	0.156799316	0.997756004	-0.007476807	-0.017565727	-0.064163208	8.573913574	-0.80871582	3.91998291	-0.374120116	-0.878943676	-3.210561407	-0.774169922	0.894042969	0.270263672	895.74	-54.54460961	-33.14533725	-138.065744	-58
25928	0	0.394061089	-0.045208931	0.200713158	0.995827675	-0.032454491	-0.023706436	-0.081922531	9.851527214	-1.130223274	5.017828941	-1.624984974	-1.18697295	-4.101832423	-0.879394531	0.753662109	0.3359375	895.8	-55.78831292	-42.48384579	-142.0543675	-59
25929	0	0.585083008	-0.08416748	0.185852051	0.995056152	-0.027667046	-0.021011353	-0.093032837	14.6270752	-2.104187012	4.64630127	-1.385636212	-1.052302128	-4.659321766	-0.968505859	0.558349609	0.427978516	895.76	-54.35414008	-52.7073263	-148.2229457	-61
25930	0	0.522200584	-0.066538811	0.11150074	0.995154381	-0.023975372	-0.008674622	-0.094960213	13.05501461	-1.663470268	2.787518501	-1.200708585	-0.434432987	-4.755694349	-1.034667969	0.329101563	0.484863281	895.76	-47.44778759	-61.9114484	-159.610425	-64
25931	0	0.37902832	-0.049560547	0.12310791	0.995337486	-0.036739349	0.000477791	-0.089179993	9.475708008	-1.239013672	3.077697754	-1.839827701	0.023926739	-4.465942476	-1.069824219	0.096679688	0.511474609	895.74	-34.46966688	-68.72453684	-178.4349488	-67
25932	0	0.365595818	-0.091158867	0.093029022	0.996023178	-0.039598465	0.007847786	-0.079423904	9.139895439	-2.278971672	2.325725555	-1.982552016	0.392910277	-3.976467824	-1.066894531	-0.137695313	0.501953125	895.68	-14.35086697	-71.76984345	155.4426847	-67
25933	0	0.434997559	-0.122924805	0.05859375	0.996623993	-0.037322044	0.014217377	-0.071731567	10.87493896	-3.073120117	1.46484375	-1.868205009	0.711669868	-3.590619854	-1.040771484	-0.344482422	0.457763672	895.86	6.357843464	-70.67161458	129.110409	-63
25934	0	0.502027512	-0.18112278	0.057754517	0.99734211	-0.03494072	0.017213821	-0.061571121	12.55068779	-4.528069496	1.443862915	-1.748585279	0.861454345	-3.081286172	-0.989746094	-0.526123047	0.386962891	895.76	19.30940093	-67.09519911	110.9597221	-66
25935	0	0.499450684	-0.217285156	0.066955566	0.998186111	-0.030409813	0.016605377	-0.049221039	12.48626709	-5.432128906	1.67388916	-1.521410322	0.830771052	-2.462540519	-0.931152344	-0.666259766	0.312744141	895.76	25.6162893	-63.11985073	100.172442	-60
25936	0	0.495545387	-0.293150902	0.087636948	0.999102592	-0.014994621	0.01373291	-0.037156105	12.38863468	-7.328772545	2.190923691	-0.749955416	0.686850982	-1.858361187	-0.873779297	-0.76953125	0.235351563	895.76	29.53930324	-59.71411095	93.74161866	-63
25937	0	0.416564941	-0.312194824	0.059448242	0.999827385	0.005691528	0.005162239	-0.016891479	10.41412354	-7.804870605	1.486206055	0.284592752	0.25812677	-0.844622456	-0.828613281	-0.828125	0.191894531	895.76	32.44999908	-58.19053518	91.09020155	-60
25938	0	0.483103752	-0.244551659	0.068312645	0.999751091	0.020954132	-0.004402161	0.006240845	12.0775938	-6.113791466	1.707816124	1.047793479	-0.220126283	0.312068111	-0.804443359	-0.844238281	0.192138672	895.76	34.31043648	-59.00205945	91.70354232	-63
25939	0	0.384155273	-0.163391113	0.06036377	0.999044418	0.025132179	-0.010047913	0.034317017	9.603881836	-4.084777832	1.509094238	1.257009379	-0.502555717	1.716397583	-0.825195313	-0.814941406	0.236328125	895.76	32.45399173	-62.13851999	97.11678619	-57
25940	0	0.455783844	-0.104649544	0.056241035	0.99738121	0.040203094	-0.014718056	0.058288574	11.3945961	-2.616238594	1.406025887	2.011911203	-0.73654582	2.916975347	-0.881103516	-0.731689453	0.289550781	895.74	26.50924451	-66.93462691	108.7661933	-58
25941	0	0.594238281	-0.060180664	0.03692627	0.995113373	0.060368538	-0.016021729	0.076465607	14.85595703	-1.504516602	0.923156738	3.023352493	-0.802393673	3.829519326	-0.956787109	-0.58203125	0.372802734	895.76	12.96671121	-71.7260783	130.5756247	-55
25942	0	0.551451683	-0.033787727	0.048512459	0.994265556	0.057815552	-0.011110306	0.089272499	13.78629208	-0.844693184	1.21281147	2.896315792	-0.556579556	4.472176447	-1.028076172	-0.368896484	0.453369141	895.7	-13.31356058	-73.02990196	165.0080935	-54
25943	0	0.475585938	0.007446289	0.083129883	0.993860245	0.045453072	-0.007591248	0.100585938	11.88964844	0.186157227	2.07824707	2.277315953	-0.380341054	5.039614532	-1.067382813	-0.118164063	0.483398438	895.72	-39.41904656	-68.48460862	-161.9423974	-55
25944	0	0.465330124	0.043257713	0.068117142	0.994286537	0.022629738	-0.003204346	0.104261398	11.6332531	1.081442833	1.702928543	1.133646452	-0.160523076	5.223019598	-1.059814453	0.146240234	0.481201172	895.74	-54.43245724	-59.85433371	-142.4707982	-58
25945	0	0.518188477	-0.002563477	0.065124512	0.994998932	0.012257576	0.000133514	0.099124908	12.95471191	-0.064086914	1.628112793	0.613902416	0.00668687	4.964523232	-1.006103516	0.3828125	0.461669922	895.86	-61.65936422	-50.14302005	-131.9855101	-58
25946	0	0.479885101	-0.020166397	0.065512657	0.995821953	0.013893127	0.006387711	0.090021133	11.99712753	-0.504159927	1.637816429	0.695625309	0.319831022	4.507334944	-0.911132813	0.582763672	0.42578125	895.8	-64.18755316	-40.60123908	-126.2228634	-55
25947	0	0.440612793	-0.022583008	0.065185547	0.997001648	0.013894081	0.008247375	0.07566452	11.01531982	-0.564575195	1.629638672	0.695399034	0.412781306	3.787010732	-0.8046875	0.744873047	0.375244141	895.74	-64.73962482	-32.37371587	-122.6341328	-57
25948	0	0.40296936	-0.005838394	0.094864845	0.998332024	0.019719124	0.010484695	0.05322361	10.07423401	-0.145959854	2.371621132	0.986504471	0.524526293	2.662660348	-0.696289063	0.856933594	0.3203125	895.7	-63.37641337	-26.3902495	-120.8137012	-55
25949	0	0.301208496	0.02154541	0.094055176	0.999568939	0.013978004	0.008846283	0.024246216	7.530212402	0.538635254	2.351379395	0.699000614	0.442377683	1.21248493	-0.623291016	0.926269531	0.265136719	895.86	-61.94887368	-23.49874805	-120.4003021	-57
25950	0	0.321905136	-0.036125183	0.137556076	0.999937057	0.004229546	0.001454353	-0.010213852	8.047628403	-0.903129578	3.438901901	0.211481662	0.072719174	-0.510703179	-0.599853516	0.942626953	0.225341797	895.82	-61.14477334	-24.50291388	-121.1678174	-55
25951	0	0.407775879	-0.10168457	0.162231445	0.998815536	0.003163338	-0.010444641	-0.047416687	10.19439697	-2.542114258	4.055786133	0.15822936	-0.522438334	-2.371770816	-0.640625	0.911132813	0.21875	895.76	-59.92974127	-29.893412	-122.9899038	-54
25952	0	0.372943878	-0.063658714	0.178201675	0.997425079	-0.005168915	-0.016659737	-0.069556236	9.323596954	-1.591467857	4.455041885	-0.258667756	-0.833702405	-3.480799411	-0.735595703	0.826904297	0.236572266	895.8	-58.87418175	-37.81337078	-125.8922574	-56
25953	0	0.474121094	-0.057006836	0.156433105	0.996254921	-0.012802124	-0.023638725	-0.082176208	11.85302734	-1.425170898	3.910827637	-0.640906427	-1.183413856	-4.113947036	-0.840820313	0.697265625	0.28125	895.7	-57.87559026	-47.35799381	-129.4784175	-53
25954	0	0.559236526	-0.078764915	0.133568764	0.995355606	-0.010512352	-0.020964622	-0.093360901	13.98091316	-1.969122887	3.339219093	-0.526432757	-1.04985678	-4.67528451	-0.930908203	0.530273438	0.345703125	895.8	-53.73606344	-57.68737175	-136.1295206	-53
25955	0	0.453186035	-0.077941895	0.086608887	0.99516964	-0.020816803	-0.012019157	-0.095180511	11.32965088	-1.948547363	2.165222168	-1.042519226	-0.601927332	-4.766702805	-1.002685547	0.329589844	0.388916016	895.76	-44.2523997	-66.98947112	-149.4342716	-54
25956	0	0.426652908	-0.091238022	0.093830109	0.995105743	-0.036466599	-0.006705284	-0.091587067	10.66632271	-2.280950546	2.345752716	-1.826309887	-0.335812145	-4.586837604	-1.036132813	0.107910156	0.428710938	895.8	-24.87273788	-73.810587	-174.3286986	-52
25957	0	0.481933594	-0.135986328	0.08380127	0.996193886	-0.027683258	0.000466347	-0.082641602	12.04833984	-3.399658203	2.095031738	-1.38592132	0.023346959	-4.137329403	-1.033935547	-0.115234375	0.44140625	895.8	6.916437418	-75.32728782	149.4959532	-50
25958	0	0.455900192	-0.145561218	0.079468727	0.997266769	-0.028363228	0.005145073	-0.068024635	11.39750481	-3.639030457	1.986718178	-1.419454695	0.257488251	-3.404333545	-1.004394531	-0.306640625	0.427001953	895.76	29.10799437	-72.23901626	123.041414	-50
25959	0	0.401306152	-0.149475098	0.100280762	0.99816227	-0.035324097	0.005692482	-0.048900604	10.03265381	-3.736877441	2.507019043	-1.767287383	0.284798553	-2.44652883	-0.959716797	-0.463623047	0.39453125	895.76	37.42623152	-68.53985905	109.9154787	-53
25960	0	0.425231934	-0.146288872	0.097951889	0.99883461	-0.035398483	0.003743172	-0.032581329	10.63079834	-3.657221794	2.448797226	-1.770611794	0.187231297	-1.629699373	-0.921386719	-0.574462891	0.344482422	895.8	39.78194526	-65.8154297	102.9525514	-55
25961	0	0.432617188	-0.200500488	0.088623047	0.99930191	-0.032225609	0.002159119	-0.018737793	10.81542969	-5.012512207	2.215576172	-1.611655099	0.107981035	-0.937107496	-0.886962891	-0.652587891	0.297851563	895.8	39.36641193	-64.21152156	99.32933654	-56
25962	0	0.363911629	-0.202715874	0.086504936	0.999778748	-0.020543098	-0.000144005	-0.004508972	9.097790718	-5.067896843	2.162623405	-1.027230668	-0.007200772	-0.225465234	-0.865478516	-0.697509766	0.249023438	895.82	37.8955964	-63.86859875	98.33612839	-55
25963	0	0.411376953	-0.220703125	0.093200684	0.999967575	-0.000700951	-0.002754211	0.007461548	10.28442383	-5.517578125	2.33001709	-0.035047904	-0.137712035	0.373081357	-0.857421875	-0.7109375	0.226806641	895.88	36.80940991	-64.61782499	99.44016715	-55
25964	0	0.442400932	-0.186049461	0.075973511	0.999425888	0.022321701	-0.004359245	0.025086403	11.06002331	-4.651236534	1.899337769	1.116298444	-0.218003939	1.254559967	-0.870117188	-0.6953125	0.237548828	895.76	34.84328692	-66.69902737	104.390108	-57
25965	0	0.460693359	-0.071716309	0.07244873	0.998383522	0.032196045	-0.005038261	0.04655838	11.51733398	-1.792907715	1.811218262	1.610670025	-0.252048867	2.329173892	-0.901611328	-0.630371094	0.273925781	895.74	27.75511139	-69.97938965	115.9662666	-49
25966	0	0.511948586	-0.000797272	0.062283516	0.997121811	0.030972481	-0.006398201	0.068890572	12.79871464	-0.019931793	1.557087898	1.550110989	-0.320217219	3.447835931	-0.956054688	-0.521240234	0.313476563	895.82	9.262110664	-73.24809974	139.1487902	-48
25967	0	0.574157715	0.028381348	0.068359375	0.995863914	0.022567749	-0.008067131	0.08763504	14.35394287	0.709533691	1.708984375	1.129945584	-0.403913527	4.387802552	-1.010253906	-0.359375	0.354492188	895.76	-22.07821918	-73.03452002	174.5036311	-51
25968	0	0.589571953	0.015408516	0.094564438	0.994914055	0.016819954	-0.006263733	0.099107742	14.73929882	0.385212898	2.364110947	0.842426142	-0.313718597	4.963803908	-1.054443359	-0.162841797	0.389404297	895.76	-47.3251726	-66.9634653	-156.6886373	-49
25969	0	0.561096191	-0.003356934	0.090881348	0.994822502	0.01783371	-0.004729271	0.09992981	14.02740479	-0.08392334	2.272033691	0.893227308	-0.236872418	5.005129957	-1.061523438	0.058349609	0.400146484	895.82	-59.34878618	-58.01155241	-140.8959101	-49
25970	0	0.505076408	0.021881104	0.085521698	0.995811462	0.020785332	-0.002848625	0.088980675	12.62691021	0.547027588	2.13804245	1.040719705	-0.142630409	4.455254447	-1.03125	0.278076172	0.403076172	895.88	-63.9480901	-49.17529579	-132.2489254	-48
25971	0	0.393737793	0.043518066	0.087036133	0.997265816	0.021018982	0.000721931	0.070835114	9.843444824	1.08795166	2.17590332	1.051907806	0.036129501	3.544986578	-0.971191406	0.464111328	0.398925781	895.88	-65.0240612	-41.83117356	-127.368729	-48
25972	0	0.33725071	0.048131943	0.087317467	0.998661041	0.0091362	0.001135826	0.050898552	8.431267738	1.203298569	2.182936668	0.457013937	0.05681666	2.546063758	-0.908691406	0.604248047	0.375488281	895.82	-65.85307456	-36.5098495	-124.3967537	-49
25973	0	0.333251953	0.035949707	0.089294434	0.999523163	0.00325489	0.000957489	0.030685425	8.331298828	0.898742676	2.23236084	0.162770385	0.047882059	1.534515065	-0.853759766	0.691894531	0.368164063	895.8	-66.39629103	-33.30345792	-122.783635	-49
25974	0	0.333842278	0.006484985	0.090924263	0.999950409	0.004382133	0.001152992	0.008771896	8.346056938	0.162124634	2.273106575	0.219110234	0.057650549	0.438601944	-0.818115234	0.734375	0.365478516	895.8	-66.06690958	-32.39671884	-122.4394909	-51
25975	0	0.342590332	-0.045532227	0.077514648	0.999862671	0.00389576	-0.001434326	-0.016021729	8.564758301	-1.138305664	1.937866211	0.194796873	-0.071719583	-0.801123004	-0.816162109	0.743164063	0.361816406	895.8	-65.20705299	-34.21469356	-123.1514	-49
25976	0	0.35992527	-0.11522007	0.112467766	0.999001503	0.006270409	-0.007408142	-0.043589592	8.998131752	-2.880501747	2.811694145	0.313624732	-0.370530329	-2.180204655	-0.846923828	0.700439453	0.358398438	895.76	-63.42314224	-39.1723427	-124.8779178	-47
25977	0	0.332763672	-0.121032715	0.135253906	0.997915268	0.006554604	-0.011920929	-0.063083649	8.319091797	-3.025817871	3.381347656	0.327958085	-0.596460943	-3.156375875	-0.906738281	0.612792969	0.374511719	895.72	-60.61499131	-46.29480991	-127.8424229	-46
25978	0	0.326980591	-0.137318611	0.136816025	0.997480392	0.003666878	-0.015065193	-0.069218636	8.174514771	-3.432965279	3.42040062	0.183497989	-0.75389278	-3.463840721	-0.969482422	0.486083984	0.394042969	895.74	-56.97624535	-54.07577569	-131.9787678	-45
25979	0	0.414245605	-0.143676758	0.117614746	0.997283936	0.009572029	-0.018299103	-0.070690155	10.35614014	-3.591918945	2.940368652	0.479035137	-0.915784219	-3.537710521	-1.010986328	0.345458984	0.425048828	895.8	-50.85600743	-61.9640748	-137.8544751	-45
25980	0	0.504385948	-0.150939941	0.122428894	0.997280121	0.019254684	-0.017424583	-0.06897831	12.6096487	-3.773498535	3.060722351	0.963608014	-0.872019912	-3.452045768	-1.033935547	0.208740234	0.463134766	895.76	-39.32730327	-69.08884511	-148.0500194	-45
25981	0	0.502380371	-0.146972656	0.124572754	0.997987747	0.016972542	-0.013904572	-0.05947876	12.55950928	-3.674316406	3.114318848	0.849196578	-0.695695123	-2.975933706	-1.036132813	0.082275391	0.493652344	895.8	-21.91998745	-74.05089854	-164.3154872	-45
25982	0	0.436572075	-0.113054276	0.148441315	0.998994827	0.008564949	-0.010806084	-0.042634964	10.91430187	-2.826356888	3.711032867	0.428390892	-0.540485158	-2.132462224	-1.025146484	-0.018554688	0.515625	895.7	-3.494892162	-76.40298042	177.6535974	-45
25983	0	0.380249023	-0.079772949	0.145690918	0.999657631	-6.87E-05	-0.008093834	-0.024852753	9.506225586	-1.99432373	3.642272949	-0.003433619	-0.404737789	-1.242779167	-1.010986328	-0.088867188	0.540527344	895.76	9.221023679	-77.20600919	164.581611	-45
25984	0	0.357953072	-0.079551697	0.131755829	0.999904633	-0.00736618	-0.005490303	-0.010296822	8.94882679	-1.988792419	3.293895721	-0.368320711	-0.274523865	-0.514857421	-0.997558594	-0.135253906	0.552246094	895.76	14.47451795	-77.5779902	158.3276543	-44
25985	0	0.351806641	-0.080932617	0.120239258	0.999918938	-0.012290955	-0.003092766	0.00044632	8.795166016	-2.02331543	3.005981445	-0.614564204	-0.154642436	0.022316577	-0.989501953	-0.161621094	0.556884766	895.8	13.56215278	-77.92695083	157.8166853	-43
25986	0	0.365841866	-0.09995079	0.119894028	0.999946594	-0.006115913	-0.002434731	0.007958412	9.146046638	-2.49876976	2.997350693	-0.305801106	-0.121738691	0.397927683	-0.987060547	-0.168212891	0.562988281	895.82	9.163863802	-78.37438758	161.5912788	-43
25987	0	0.381469727	-0.107910156	0.118652344	0.999821663	0.010421753	-0.002463341	0.015525818	9.536743164	-2.697753906	2.966308594	0.521118546	-0.123174342	0.776336926	-0.987792969	-0.150878906	0.564453125	895.68	1.979965318	-78.82832766	170.1299133	-43
25988	0	0.42274189	-0.079818726	0.098763466	0.999295235	0.029465675	-0.002664566	0.02306366	10.56854725	-1.99546814	2.469086647	1.473629535	-0.13325957	1.153453626	-0.990234375	-0.095947266	0.577148438	895.7	-7.97737945	-79.00394707	-176.2915869	-43
25989	0	0.448425293	-0.024047852	0.06640625	0.998941422	0.036751747	-0.00213623	0.027572632	11.21063232	-0.601196289	1.66015625	1.838235878	-0.106849219	1.379118139	-0.989501953	-0.006103516	0.586914063	895.76	-19.33221224	-78.51068131	-160.4252364	-43
25990	0	0.342365265	-0.030254364	0.057713509	0.998894691	0.035751343	-0.002128601	0.030421257	8.559131622	-0.7563591	1.442837715	1.78822566	-0.106469261	1.521623195	-0.984375	0.092041016	0.587158203	895.76	-30.34772044	-77.28561804	-144.9726419	-42
25991	0	0.342590332	0.042053223	0.026000977	0.997356415	0.067517281	-0.005367279	0.026298523	8.564758301	1.051330566	0.650024414	3.378841307	-0.268600631	1.316085821	-0.970458984	0.209716797	0.576660156	895.8	-34.69857941	-76.21660706	-132.5517473	-42
25992	0	0.395928383	0.076971054	0.038193703	0.999132156	0.04076004	8.68E-05	0.008467674	9.898209572	1.924276352	0.954842567	2.038591147	0.004340472	0.423506102	-0.953613281	0.322509766	0.549316406	895.82	-33.11270453	-75.71291956	-129.3547107	-42
25993	0	0.425476074	0.006469727	0.061401367	0.999943733	0.009567261	0.001461983	-0.004295349	10.63690186	0.161743164	1.53503418	0.478371977	0.073100502	-0.21477147	-0.952636719	0.359619141	0.529052734	895.8	-29.89530393	-75.87488662	-131.5209727	-42
25994	0	0.388195992	0.02009201	0.069092751	0.999949455	-0.002988815	-0.000116348	-0.009533882	9.704899788	0.502300262	1.727318764	-0.149443252	-0.00581751	-0.47670204	-0.957275391	0.357666016	0.529541016	895.76	-26.20772056	-76.44769764	-135.6519514	-42
25995	0	0.366333008	0.004699707	0.070861816	0.999650955	-0.024546623	-0.001106262	-0.00963974	9.158325195	0.117492676	1.77154541	-1.227473717	-0.055319535	-0.482042983	-0.963134766	0.329345703	0.53515625	895.74	-24.84710837	-77.08327581	-139.9206872	-42
25996	0	0.37819767	-0.053548813	0.044995308	0.99946785	-0.031965256	-0.00458622	-0.004516602	9.45494175	-1.338720322	1.124882698	-1.598546137	-0.229351643	-0.225870115	-0.966064453	0.277099609	0.559570313	895.8	-27.28378843	-77.82627898	-141.1705306	-43
25997	0	0.392333984	-0.073913574	0.064941406	0.999759674	-0.021204948	-0.004543304	-0.003017426	9.808349609	-1.847839355	1.623535156	-1.060332153	-0.227183376	-0.150883334	-0.96484375	0.238037109	0.588378906	895.74	-29.26138202	-78.49059595	-141.6321387	-43
25998	0	0.386505127	-0.082565308	0.079807281	0.999983788	-0.003793716	-0.003490448	-0.002285957	9.662628174	-2.06413269	1.995182037	-0.189686827	-0.174523325	-0.114298473	-0.961425781	0.209472656	0.598876953	895.86	-29.35708405	-79.00700236	-141.9829827	-43
25999	0	0.38861084	-0.069335938	0.083190918	0.999956131	0.008683205	-0.002246857	-0.002487183	9.715270996	-1.733398438	2.079772949	0.434166502	-0.112344457	-0.124360927	-0.95703125	0.209472656	0.607421875	895.8	-27.5146028	-79.40561259	-142.848649	-43
26000	0	0.389531136	-0.064657211	0.076855659	0.999867439	0.016142845	-0.001592636	0.00062561	9.738278389	-1.616430283	1.921391487	0.807177711	-0.079635303	0.031281892	-0.955078125	0.218017578	0.609375	895.82	-26.28199632	-79.56988525	-142.2249532	-43
26001	0	0.388366699	-0.003417969	0.051818848	0.999917984	0.012726784	0.001182556	0.000667572	9.70916748	-0.085449219	1.295471191	0.636356563	0.059129422	0.033379512	-0.953613281	0.241943359	0.598632813	895.8	-24.70713903	-79.44876946	-142.3418327	-43
26002	0	0.381929398	-0.022844315	0.051299095	0.999958038	0.008728981	-0.000231743	0.002599716	9.54823494	-0.571107864	1.282477379	0.436455089	-0.011587303	0.129987608	-0.954101563	0.255126953	0.594726563	895.74	-25.04471722	-79.38165352	-140.9799686	-43
26003	0	0.387634277	-0.028198242	0.054443359	0.999999046	9.54E-05	0.000603676	0.000984192	9.690856934	-0.704956055	1.361083984	0.004768373	0.030183799	0.049209606	-0.951904297	0.263671875	0.588378906	895.76	-25.2591089	-79.305271	-140.7474185	-43
26004	0	0.396137238	-0.017859459	0.05644989	0.999999046	-0.000967979	0.000225067	-6.96E-05	9.903430939	-0.446486473	1.411247253	-0.04839898	0.011253359	-0.003480912	-0.954345703	0.268310547	0.588134766	895.7	-25.11359702	-79.31945315	-141.0046579	-43
26005	0	0.390197754	-0.020080566	0.067443848	0.999997139	-0.002258301	-6.68E-06	-0.000534058	9.754943848	-0.50201416	1.686096191	-0.11291514	-0.000333786	-0.026702905	-0.954345703	0.266113281	0.588134766	895.72	-24.91722771	-79.37933698	-141.4649248	-43
26006	0	0.392794609	-0.030329704	0.078164101	0.999994278	-0.00314045	0.001204491	-0.000371933	9.819865227	-0.758242607	1.954102516	-0.157022776	0.060224648	-0.018596685	-0.951904297	0.263671875	0.585449219	895.8	-24.60195924	-79.30358177	-142.1491877	-43
26007	0	0.387145996	-0.050964355	0.071838379	0.999992371	-0.002558708	0.002887726	0.000305176	9.678649902	-1.274108887	1.795959473	-0.127935729	0.144386652	0.015258827	-0.956298828	0.257324219	0.589111328	895.76	-24.19308828	-79.01772367	-142.8635913	-43
26008	0	0.384266853	-0.050704956	0.071358681	0.99998951	0.003914833	0.001707077	0.001293182	9.606671333	-1.267623901	1.783967018	0.195742303	0.085354135	0.064659333	-0.958740234	0.257324219	0.586425781	895.8	-23.8835946	-78.80717296	-142.7227966	-43
26009	0	0.38494873	-0.041442871	0.079345703	0.999973297	0.007016182	0.001319885	0.001373291	9.623718262	-1.036071777	1.983642578	0.350812188	0.065994844	0.068665156	-0.958984375	0.266113281	0.579833984	895.74	-23.36051306	-78.6326161	-142.4365871	-43
26010	0	0.384379387	-0.035745621	0.086295128	0.999976158	0.00668335	0.001022339	0.000905037	9.609484673	-0.893640518	2.157378197	0.334170072	0.05111734	0.045252197	-0.961425781	0.277099609	0.570556641	895.74	-22.70595525	-78.50975966	-142.322201	-43
26011	0	0.378051758	-0.03692627	0.078369141	0.999991417	0.003974915	0.000554085	0.000980377	9.451293945	-0.923156738	1.959228516	0.198746293	0.027704318	0.049018999	-0.961669922	0.283691406	0.567138672	895.76	-22.50971487	-78.43232928	-142.056859	-43
26012	0	0.379055023	-0.040413857	0.069830894	0.999992371	0.003751755	-0.000748634	0.000611305	9.47637558	-1.010346413	1.745772362	0.187588207	-0.037431811	0.030565338	-0.961914063	0.290039063	0.561035156	895.8	-22.4336322	-78.50852133	-141.694779	-43
26013	0	0.381286621	-0.038696289	0.07244873	0.999993324	0.003261566	-0.001162529	-0.000289917	9.532165527	-0.967407227	1.811218262	0.163078636	-0.058126567	-0.014495879	-0.959716797	0.294433594	0.560546875	895.76	-22.03595536	-78.66728395	-141.7183745	-43
26014	0	0.382893562	-0.036987305	0.077965736	0.999998093	0.000781059	-0.001215935	-0.000775337	9.572339058	-0.924682617	1.94914341	0.039052981	-0.060796765	-0.038766878	-0.957519531	0.298828125	0.562988281	895.68	-21.67207478	-78.85140976	-141.9969193	-43
26015	0	0.385131836	-0.04119873	0.08001709	0.999998093	-0.000929832	-0.00094223	-0.000488281	9.628295898	-1.029968262	2.000427246	-0.046491638	-0.047111527	-0.024414071	-0.955322266	0.294433594	0.568847656	895.86	-21.59757385	-78.99280435	-142.1814802	-43
26016	0	0.385631561	-0.043842316	0.080490112	0.999999046	2.00E-05	-0.000631332	0.000113487	9.640789032	-1.096057892	2.012252808	0.001001358	-0.031566622	0.005674363	-0.955078125	0.292236328	0.569091797	895.76	-21.67988569	-79.07433446	-142.0958287	-43
26017	0	0.383666992	-0.040710449	0.078613281	0.999999046	0.000934601	-0.000254631	0.000720978	9.591674805	-1.01776123	1.965332031	0.046730053	-0.012731555	0.036048898	-0.957519531	0.292236328	0.572021484	895.7	-21.91486692	-79.08871854	-141.7484283	-43
26018	0	0.382487297	-0.041056633	0.077273369	0.999998093	0.001444817	-0.000283241	0.000700951	9.562182426	-1.026415825	1.931834221	0.072240861	-0.01416207	0.035047547	-0.955566406	0.298828125	0.57421875	895.76	-22.09162178	-79.1056827	-141.4002065	-43
26019	0	0.382263184	-0.038391113	0.076599121	0.999998093	0.001366615	-0.000202179	0.000476837	9.55657959	-0.959777832	1.914978027	0.068330789	-0.010108951	0.023841866	-0.955566406	0.298828125	0.57421875	895.8	-22.13947744	-79.12259297	-141.1929241	-43
26020	0	0.382627487	-0.033061981	0.073726654	0.999997139	-0.001746178	0.00041008	-0.000946999	9.56568718	-0.82654953	1.843166351	-0.087308944	0.020504012	-0.047349962	-0.955322266	0.30078125	0.565429688	895.86	-21.62143472	-79.13461404	-141.9240645	-43
26021	0	0.384033203	-0.048156738	0.078796387	0.999999046	-0.000812531	-7.53E-05	8.01E-05	9.600830078	-1.203918457	1.969909668	-0.04062653	-0.003767014	0.004005433	-0.955078125	0.294433594	0.565917969	895.7	-21.67775093	-79.15309441	-141.9626601	-43
26022	0	0.386480331	-0.036875725	0.080630302	0.999999046	0.000249863	-4.20E-05	-0.000424385	9.662008286	-0.92189312	2.015757561	0.012493134	-0.002098084	-0.021219254	-0.957519531	0.296630859	0.568847656	895.76	-21.32570163	-79.1881222	-142.292884	-43
26023	0	0.385131836	-0.037902832	0.077575684	0.999999046	0.00120163	-2.19E-05	-1.14E-05	9.628295898	-0.947570801	1.93939209	0.060081496	-0.001096726	-0.000572205	-0.955322266	0.294433594	0.571777344	895.82	-21.09267526	-79.20264825	-142.3914253	-43
26024	0	0.383365631	-0.038934708	0.075331688	0.999999046	0.000805855	0.000118256	0.000308037	9.584140778	-0.973367691	1.883292198	0.040292745	0.005912782	0.015401842	-0.955322266	0.294433594	0.568847656	895.8	-21.05708506	-79.1881483	-142.335098	-43
26025	0	0.382507324	-0.037353516	0.076721191	0.999999046	0.000377655	0.000218391	0.00038147	9.562683105	-0.933837891	1.918029785	0.018882753	0.010919572	0.019073487	-0.955322266	0.298828125	0.571289063	895.86	-21.09279758	-79.15906467	-142.2559096	-43
26026	0	0.382385254	-0.036672592	0.07612133	0.999999046	-0.000778198	0.000278473	0.000300407	9.559631348	-0.916814804	1.903033257	-0.038909917	0.013923647	0.015020372	-0.955322266	0.30078125	0.565429688	895.7	-21.20499135	-79.12610428	-142.2335454	-43
26027	0	0.38269043	-0.040771484	0.076843262	0.999998093	-0.001372337	9.54E-05	0.000255585	9.567260742	-1.019287109	1.921081543	-0.068616889	0.004768373	0.01277924	-0.957763672	0.298828125	0.568603516	895.68	-21.40284911	-79.11367566	-142.1937461	-43
26028	0	0.385705948	-0.040086746	0.078699112	0.999998093	-0.001564026	0.000157356	0.000255585	9.642648697	-1.002168655	1.967477798	-0.078201327	0.007867816	0.012779241	-0.957763672	0.298828125	0.565673828	895.76	-21.61164641	-79.09372069	-142.1651173	-43
26029	0	0.382507324	-0.038330078	0.080688477	0.999997139	-0.002090454	0.000348091	0.000759125	9.562683105	-0.958251953	2.017211914	-0.104522793	0.017404571	0.03795627	-0.957519531	0.294433594	0.571777344	895.74	-22.11694825	-79.03100179	-141.8964716	-43
26030	0	0.3852005	-0.04039669	0.077004433	0.999995232	-0.002819061	0.000465393	0.000675201	9.630012512	-1.009917259	1.925110817	-0.140953266	0.023269687	0.033760119	-0.957519531	0.296630859	0.565917969	895.76	-22.63172175	-78.95830914	-141.7027278	-43
26031	0	0.385009766	-0.045043945	0.078369141	0.999997139	-0.002250671	0.000416756	0.000205994	9.625244141	-1.126098633	1.959228516	-0.112533668	0.020837802	0.010299692	-0.957519531	0.292236328	0.569091797	895.72	-22.83867643	-78.91043931	-141.7566754	-43
26032	0	0.381690025	-0.04501152	0.079766273	0.999999046	-0.000853539	9.16E-05	-0.00023365	9.542250633	-1.12528801	1.994156837	-0.042676931	0.004577637	-0.011682512	-0.957519531	0.290039063	0.572265625	895.7	-22.7250485	-78.91552753	-141.9743215	-43
26033	0	0.383789063	-0.046325684	0.080566406	0.999998093	0.00150013	-0.000415802	-0.000488281	9.594726563	-1.15814209	2.014160156	0.075006518	-0.020790109	-0.024414073	-0.957275391	0.287841797	0.569580078	895.7	-22.32018207	-78.98437962	-142.2140414	-43
26034	0	0.385604858	-0.042415619	0.079275131	0.999996185	0.00259304	-0.000361443	-0.000733376	9.64012146	-1.060390472	1.981878281	0.129652183	-0.018072151	-0.036668823	-0.957275391	0.290039063	0.569335938	895.74	-21.64153119	-79.05676221	-142.6049928	-43
26035	0	0.383605957	-0.041625977	0.078063965	0.999998093	0.001858711	-0.000137329	-0.000576019	9.590148926	-1.040649414	1.951599121	0.092935621	-0.006866459	-0.028800983	-0.959716797	0.292236328	0.56640625	895.76	-21.08226169	-79.0971328	-142.9599804	-43
26036	0	0.383364677	-0.037604332	0.076634407	0.999999046	0.001286507	-0.000110626	-4.96E-05	9.584116936	-0.940108299	1.915860176	0.064325351	-0.005531313	-0.002479554	-0.955078125	0.292236328	0.569091797	895.76	-20.87519994	-79.11202298	-143.0232246	-43
26037	0	0.383300781	-0.037902832	0.077026367	0.999999046	0.000839233	-0.000193596	-0.000167847	9.582519531	-0.947570801	1.92565918	0.041961675	-0.009679796	-0.008392335	-0.957519531	0.292236328	0.569091797	895.74	-20.6726635	-79.13997844	-143.1341324	-43
26038	0	0.380168915	-0.03807354	0.076881409	0.999999046	0.001188278	-0.000429153	-0.000480652	9.50422287	-0.951838493	1.922035217	0.059413928	-0.021457679	-0.0240326	-0.957519531	0.292236328	0.569091797	895.74	-20.30493071	-79.20505453	-143.3725459	-42
26039	0	0.384277344	-0.039489746	0.076416016	0.999999046	0.000846863	-0.000502586	-0.00056076	9.606933594	-0.987243652	1.910400391	0.042343149	-0.025129324	-0.028038031	-0.957519531	0.294433594	0.566162109	895.76	-19.94513678	-79.28033078	-143.6425431	-42
26040	0	0.3832407	-0.04020977	0.077868462	0.999999046	0.001168251	-0.000331879	-0.000370979	9.581017494	-1.005244255	1.94671154	0.058412568	-0.016593938	-0.01854897	-0.957519531	0.292236328	0.569091797	895.74	-19.62066722	-79.32886168	-143.8393929	-42
26041	0	0.383239746	-0.035705566	0.077453613	0.999999046	0.00075531	-0.000132561	-0.000423431	9.580993652	-0.89263916	1.936340332	0.037765508	-0.006628037	-0.021171573	-0.957519531	0.292236328	0.56640625	895.8	-19.27250816	-79.35706529	-144.1084432	-42
26042	0	0.387260437	-0.039107323	0.076737404	0.999997139	-0.002008438	0.000436783	-0.000626564	9.681510925	-0.977683067	1.918435097	-0.100421983	0.021839159	-0.031328225	-0.959716797	0.292236328	0.56640625	895.76	-19.0125138	-79.33046056	-144.6099571	-42
26043	0	0.38470459	-0.033325195	0.076721191	0.999999046	0.000198364	-4.48E-05	0.000301361	9.617614746	-0.833129883	1.918029785	0.009918213	-0.002241135	0.015068055	-0.959716797	0.290039063	0.572265625	895.8	-19.13085653	-79.3207078	-144.4695356	-42
26044	0	0.384446144	-0.034564018	0.078103065	0.999999046	-0.00061512	-2.67E-05	1.91E-05	9.611153603	-0.864100456	1.952576637	-0.030755999	-0.001335144	0.000953674	-0.957275391	0.290039063	0.56640625	895.72	-19.17808085	-79.31904598	-144.4961873	-42
26045	0	0.383789063	-0.038024902	0.076660156	0.999999046	-0.000976563	-6.01E-05	-0.000152588	9.594726563	-0.950622559	1.916503906	-0.048828133	-0.003004075	-0.007629396	-0.959472656	0.287841797	0.566894531	895.68	-19.177286	-79.32696079	-144.614007	-42
26046	0	0.384299278	-0.041053772	0.079156876	0.999999046	-0.00062561	-0.000173569	9.82E-05	9.607481956	-1.026344299	1.97892189	-0.03128052	-0.008678437	0.004911423	-0.957275391	0.287841797	0.575195313	895.8	-19.30598322	-79.33705374	-144.5592819	-42
26047	0	0.384094238	-0.039611816	0.07824707	0.999999046	0.000350952	-2.57E-05	0.000102997	9.602355957	-0.99029541	1.956176758	0.017547608	-0.00128746	0.005149841	-0.957275391	0.287841797	0.572265625	895.76	-19.29835064	-79.33038849	-144.5294331	-42
26048	0	0.383724213	-0.037500381	0.078313828	0.999999046	0.000697136	-6.68E-05	-0.000152588	9.593105316	-0.937509537	1.957845688	0.034856799	-0.00333786	-0.007629395	-0.959472656	0.285888672	0.572753906	895.74	-19.11430636	-79.33726376	-144.638924	-42
26049	0	0.3828125	-0.037109375	0.07800293	0.999999046	0.000736237	-0.000124931	2.29E-05	9.5703125	-0.927734375	1.950073242	0.036811832	-0.006246567	0.001144409	-0.957275391	0.287841797	0.569580078	895.82	-19.03995381	-79.34330446	-144.6321174	-42
26050	0	0.383745193	-0.036829948	0.077471733	0.999999046	0.000616074	4.39E-05	-0.000317574	9.593629837	-0.920748711	1.936793327	0.030803683	0.002193451	-0.015878679	-0.959472656	0.287841797	0.566894531	895.76	-18.75156083	-79.34321662	-144.8571901	-42
26051	0	0.387268066	-0.037719727	0.079284668	0.999999046	0.001132965	-5.63E-05	-0.000457764	9.68170166	-0.942993164	1.982116699	0.056648269	-0.00281334	-0.022888189	-0.959472656	0.287841797	0.563964844	895.82	-18.34406638	-79.35834308	-145.1432549	-42
26052	0	0.386024475	-0.032001495	0.078336716	0.999998093	0.001386642	8.68E-05	-0.000645638	9.650611877	-0.800037384	1.958417892	0.06933215	0.00433922	-0.032281888	-0.959716797	0.287841797	0.569580078	895.8	-17.77106086	-79.3637107	-145.5683171	-42
26053	0	0.385131836	-0.028686523	0.07635498	0.999999046	0.000675201	9.25E-05	-0.000511169	9.628295898	-0.717163086	1.908874512	0.033760075	0.004625321	-0.025558475	-0.957275391	0.287841797	0.569580078	895.82	-17.35647428	-79.36288303	-145.9151044	-42
26054	0	0.386059761	-0.026053429	0.075789452	0.999999046	-0.000936508	0.000181198	-0.00011158	9.651494026	-0.651335716	1.89473629	-0.046825416	0.009059907	-0.005578996	-0.959472656	0.287841797	0.563964844	895.74	-17.34297993	-79.33831445	-146.0415859	-42
26055	0	0.382385254	-0.030090332	0.077514648	0.999997139	-0.002246857	0.000252724	3.81E-05	9.559631348	-0.752258301	1.937866211	-0.11234293	0.012636195	0.00190735	-0.961914063	0.288085938	0.569824219	895.8	-17.5542589	-79.30052972	-146.0922194	-42
26056	0	0.380756378	-0.033338547	0.077861786	0.999997139	-0.002289772	0.000167847	6.68E-06	9.518909454	-0.833463669	1.946544647	-0.114488702	0.008392341	0.000333786	-0.961669922	0.281494141	0.5703125	895.86	-17.76880402	-79.27279728	-146.1448263	-42
26057	0	0.383117676	-0.036621094	0.078796387	0.999998093	-0.001677513	-7.25E-05	-6.48E-05	9.577941895	-0.915527344	1.969909668	-0.083875696	-0.003623964	-0.003242494	-0.959228516	0.279296875	0.5703125	895.82	-17.91830028	-79.27342188	-146.1922029	-42
26058	0	0.384598732	-0.03909874	0.07995224	0.999999046	-0.00063324	-0.000230789	-2.00E-05	9.6149683	-0.977468491	1.998806	-0.03166199	-0.01153946	-0.001001358	-0.961669922	0.279296875	0.573242188	895.68	-18.00597251	-79.28925598	-146.1807712	-42
26059	0	0.38482666	-0.038330078	0.08001709	0.999999046	0.001102448	-0.000285149	0.00025177	9.620666504	-0.958251953	2.000427246	0.055122388	-0.014257434	0.012588504	-0.959228516	0.274902344	0.573486328	895.7	-18.06376828	-79.30087991	-145.9976638	-42
26060	0	0.38418293	-0.034564972	0.079262733	0.999997139	0.002076149	-0.000284195	0.00026226	9.60457325	-0.864124298	1.981568336	0.103807527	-0.014209758	0.013113032	-0.959228516	0.279296875	0.573242188	895.74	-18.0169564	-79.31161321	-145.8072801	-42
26061	0	0.385192871	-0.034912109	0.07623291	0.999996185	0.002484322	-0.000301361	0.00018692	9.629821777	-0.872802734	1.905822754	0.12421621	-0.01506807	0.009346018	-0.961669922	0.283691406	0.564453125	895.82	-17.88433641	-79.32666693	-145.6564602	-42
26062	0	0.385775566	-0.030896187	0.075665474	0.999997139	0.00195694	-9.73E-05	6.01E-05	9.644389153	-0.772404671	1.891636848	0.097847048	-0.004863742	0.003004076	-0.95703125	0.283447266	0.566894531	895.76	-17.70084119	-79.3237985	-145.6191592	-42
26063	0	0.382080078	-0.029296875	0.077270508	0.999999046	0.00100708	-9.82E-05	0.000228882	9.552001953	-0.732421875	1.931762695	0.050354013	-0.004911424	0.011444094	-0.959716797	0.287841797	0.569580078	895.76	-17.72383574	-79.31491956	-145.4823793	-42
26064	0	0.383545876	-0.029868126	0.076338768	0.999999046	0.00026989	-0.000198364	0.000247955	9.588646889	-0.746703148	1.9084692	0.013494492	-0.009918213	0.012397766	-0.959716797	0.290039063	0.569335938	895.76	-17.86089614	-79.31609691	-145.3154411	-42
26065	0	0.385803223	-0.031860352	0.076171875	0.999999046	-0.00056076	-6.68E-06	0.00018692	9.645080566	-0.796508789	1.904296875	-0.028038027	-0.000333786	0.009346009	-0.959716797	0.287841797	0.569580078	895.82	-18.02261866	-79.29829921	-145.2204401	-42
26066	0	0.384081841	-0.034473419	0.078629494	0.999999046	-0.000713348	8.58E-05	0.000301361	9.602046013	-0.86183548	1.965737343	-0.035667423	0.004291535	0.015068056	-0.959716797	0.287841797	0.569580078	895.76	-18.25082587	-79.26597985	-145.0755541	-42
26067	0	0.383422852	-0.037536621	0.078552246	0.999999046	-0.000595093	2.00E-05	0.000675201	9.585571289	-0.938415527	1.963806152	-0.029754643	0.001001358	0.033760075	-0.957275391	0.287841797	0.569580078	895.74	-18.692331	-79.22674361	-144.6998051	-42
26068	0	0.382022858	-0.040463448	0.076565742	0.999999046	-0.000250816	0.000112534	0.000469208	9.550571442	-1.011586189	1.914143562	-0.012540818	0.005626679	0.023460389	-0.959716797	0.287841797	0.569580078	895.76	-18.95903947	-79.18437021	-144.4618794	-42
26069	0	0.383178711	-0.037719727	0.077636719	0.999999046	0.000476837	-6.68E-06	0.000789642	9.579467773	-0.942993164	1.940917969	0.023841861	-0.000333786	0.039482122	-0.954833984	0.290039063	0.563476563	895.76	-19.34622898	-79.14232765	-144.0162133	-42
26070	0	0.387153625	-0.034292221	0.075282097	0.999999046	0.000135422	-4.96E-05	0.00043869	9.678840637	-0.857305527	1.882052422	0.006771088	-0.002479553	0.02193451	-0.957519531	0.292236328	0.56640625	895.7	-19.58160392	-79.11781769	-143.7649942	-42
26071	0	0.387939453	-0.034667969	0.075012207	0.999999046	0.000358582	1.24E-05	-6.87E-05	9.698486328	-0.866699219	1.875305176	0.017929078	0.000619888	-0.003433228	-0.959716797	0.290039063	0.569335938	895.7	-19.49421843	-79.10597037	-143.8166556	-42
26072	0	0.382997513	-0.032059669	0.075104713	0.999999046	1.24E-05	-1.34E-05	-0.000205994	9.57493782	-0.801491737	1.877617836	0.000619888	-0.000667572	-0.010299683	-0.957519531	0.292236328	0.569091797	895.76	-19.37463375	-79.10210069	-143.9412222	-42
26073	0	0.386352539	-0.036132813	0.075805664	0.999999046	-0.000682831	-1.43E-05	-0.000137329	9.658813477	-0.903320313	1.895141602	-0.034141543	-0.000715256	-0.006866456	-0.957275391	0.290039063	0.56640625	895.76	-19.37458169	-79.09561806	-144.0252851	-42
26074	0	0.384227753	-0.034790039	0.07678318	0.999999046	-0.000581741	0.000104904	7.63E-05	9.605693817	-0.869750977	1.919579506	-0.029087068	0.005245209	0.003814697	-0.957275391	0.290039063	0.56640625	895.86	-19.45983354	-79.06801025	-144.0106848	-42
26075	0	0.382995605	-0.034729004	0.078308105	0.999999046	-0.000137329	8.87E-05	0.000362396	9.574890137	-0.868225098	1.957702637	-0.006866455	0.004434586	0.018119812	-0.957275391	0.287841797	0.563720703	895.8	-19.65703208	-79.03097738	-143.8303698	-42
26076	0	0.38344574	-0.034479141	0.075008392	0.999999046	-0.000618935	-3.43E-05	0.00033474	9.586143494	-0.861978531	1.875209808	-0.030946734	-0.001716614	0.016736986	-0.957519531	0.290039063	0.572265625	895.82	-19.91793121	-79.00813573	-143.6413255	-42
26077	0	0.384277344	-0.036071777	0.077453613	0.999999046	-0.000682831	-4.86E-05	3.81E-05	9.606933594	-0.901794434	1.936340332	-0.034141543	-0.00243187	0.001907349	-0.957275391	0.287841797	0.569580078	895.76	-20.02464819	-78.99819682	-143.6168174	-42
26078	0	0.382267952	-0.036759377	0.079318047	0.999999046	-0.000513077	-9.92E-05	-0.000126839	9.556698799	-0.918984413	1.982951164	-0.02565384	-0.004959107	-0.006341935	-0.957275391	0.287841797	0.572265625	895.7	-20.03129063	-78.99992669	-143.674427	-42
26079	0	0.384155273	-0.039001465	0.079284668	0.999999046	-0.000785828	0.000130653	-0.000267029	9.603881836	-0.975036621	1.982116699	-0.039291386	0.00653267	-0.013351442	-0.957275391	0.287841797	0.566650391	895.8	-19.94652174	-78.98213736	-143.8568262	-42
26080	0	0.384461403	-0.041606903	0.079379082	0.999999046	6.68E-06	0.000148773	-1.14E-05	9.611535072	-1.040172577	1.984477043	0.000333786	0.00743866	-0.000572205	-0.954833984	0.285644531	0.566650391	895.76	-19.91078341	-78.95208312	-143.8970833	-42
26081	0	0.384887695	-0.039855957	0.079223633	0.999999046	0.00087738	0.000126839	0.000171661	9.622192383	-0.996398926	1.98059082	0.043869025	0.006341935	0.00858307	-0.957275391	0.285644531	0.572509766	895.82	-19.88190252	-78.91699461	-143.8289705	-42
26082	0	0.381619453	-0.037222862	0.08005619	0.999998093	0.001467705	-6.39E-05	0.000488281	9.540486336	-0.930571556	2.001404762	0.073385268	-0.00319481	0.024414072	-0.957275391	0.287841797	0.569580078	895.76	-19.99725132	-78.88979342	-143.5447943	-42
26083	0	0.381958008	-0.035705566	0.077880859	0.999998093	0.001347542	0.00019455	0.000434875	9.548950195	-0.89263916	1.947021484	0.067377113	0.009727481	0.021743782	-0.954833984	0.290039063	0.563476563	895.74	-20.04445395	-78.83665077	-143.3438957	-42
26084	0	0.386351585	-0.035650253	0.077577591	0.999999046	0.000489235	0.000282288	0.000273705	9.658789635	-0.891256332	1.939439774	0.024461748	0.014114381	0.013685227	-0.959716797	0.290039063	0.569335938	895.74	-20.08379232	-78.78032788	-143.2515719	-42
26085	0	0.386108398	-0.035461426	0.076782227	0.999999046	0.000278473	0.000313759	0.000347137	9.652709961	-0.886535645	1.919555664	0.013923646	0.015687943	0.017356873	-0.957275391	0.290039063	0.569335938	895.68	-20.18012666	-78.7177316	-143.1256792	-42
26086	0	0.38335228	-0.030679703	0.078259468	0.999999046	0.001089096	0.000177383	0.000282288	9.583806992	-0.766992569	1.956486702	0.054454815	0.008869173	0.014114383	-0.957275391	0.292236328	0.563476563	895.74	-20.1736014	-78.67237813	-143.009667	-42
26087	0	0.382751465	-0.030700684	0.077209473	0.999999046	0.000988007	-7.53E-05	0.000236511	9.568786621	-0.76751709	1.930236816	0.049400338	-0.003767014	0.011825564	-0.957519531	0.294433594	0.563232422	895.8	-20.20247702	-78.65609113	-142.8693301	-42
26088	0	0.384150505	-0.033536911	0.07794857	0.999999046	0.000533104	-7.44E-05	4.20E-05	9.603762627	-0.838422775	1.948714256	0.026655198	-0.00371933	0.002098084	-0.959960938	0.298828125	0.562988281	895.82	-20.17846052	-78.6474164	-142.8358668	-42
26089	0	0.388000488	-0.032714844	0.076599121	0.999999046	-0.00019455	9.54E-07	0.000225067	9.700012207	-0.817871094	1.914978027	-0.009727478	4.77E-05	0.011253357	-0.957519531	0.296630859	0.560302734	895.76	-20.32041159	-78.62352384	-142.7184192	-42
26090	0	0.386886597	-0.033896446	0.077806473	0.999999046	-0.00050354	0.000221252	-0.000164032	9.672164917	-0.847411156	1.945161819	-0.025177003	0.011062623	-0.0082016	-0.957519531	0.296630859	0.565917969	895.74	-20.24625443	-78.59147474	-142.8576072	-42
26091	0	0.382385254	-0.032836914	0.079101563	0.999999046	-0.000598907	0.000199318	-0.000255585	9.559631348	-0.820922852	1.977539063	-0.029945376	0.009965897	-0.012779237	-0.959716797	0.294433594	0.563476563	895.7	-20.13872337	-78.56536821	-143.0420257	-42
26092	0	0.383348465	-0.035848618	0.078722	0.999999046	-0.000575066	4.39E-05	-0.0001688	9.583711624	-0.896215439	1.968050003	-0.028753282	0.002193451	-0.008440018	-0.959716797	0.296630859	0.560302734	895.76	-20.10571455	-78.55251442	-143.1472865	-42
26093	0	0.385437012	-0.035339355	0.079284668	0.999999046	-0.000602722	7.72E-05	-6.48E-05	9.635925293	-0.883483887	1.982116699	-0.03013611	0.003862381	-0.003242493	-0.957519531	0.292236328	0.56640625	895.8	-20.12489318	-78.53196639	-143.2031283	-42
26094	0	0.383109093	-0.034714699	0.07917881	0.999999046	-0.000774384	7.63E-05	-0.000130653	9.577727318	-0.86786747	1.979470253	-0.038719181	0.003814698	-0.00653267	-0.962158203	0.292236328	0.563720703	895.76	-20.12917557	-78.51411944	-143.2939842	-42
26095	0	0.382141113	-0.034790039	0.07824707	0.999999046	-0.001354218	5.82E-05	0.000213623	9.553527832	-0.869750977	1.956176758	-0.067710898	0.002908708	0.010681156	-0.961914063	0.290039063	0.561035156	895.76	-20.38551839	-78.48464867	-143.19544	-42
26096	0	0.383153915	-0.035964012	0.079658508	0.999998093	-0.001825333	8.49E-05	0.000282288	9.578847885	-0.899100304	1.991462708	-0.091266684	0.004243853	0.014114388	-0.959472656	0.287841797	0.561035156	895.76	-20.72598007	-78.44943744	-143.0661448	-42
26097	0	0.382385254	-0.038024902	0.079711914	0.999997139	-0.002033234	-2.57E-05	0.000156403	9.559631348	-0.950622559	1.992797852	-0.101661753	-0.001287461	0.007820135	-0.959472656	0.287841797	0.563964844	895.82	-21.04591049	-78.43102708	-142.9819968	-42
26098	0	0.383657455	-0.042628288	0.081654549	0.999998093	-0.001904488	1.62E-05	0.000125885	9.591436386	-1.065707207	2.041363716	-0.095224438	0.000810624	0.006294254	-0.961669922	0.283691406	0.561523438	895.8	-21.32759455	-78.40911835	-142.9220653	-42
26099	0	0.383605957	-0.044128418	0.080993652	0.999999046	-0.001010895	7.72E-05	0.000164032	9.590148926	-1.103210449	2.024841309	-0.050544748	0.003862382	0.008201601	-0.959472656	0.281494141	0.570068359	895.8	-21.5153975	-78.37886657	-142.8537263	-42
26100	0	0.383273125	-0.043750763	0.082733154	0.999999046	-0.000134468	-9.54E-06	0.000479698	9.581828117	-1.093769073	2.068328857	-0.006723404	-0.000476837	0.02398491	-0.961669922	0.283691406	0.564453125	895.7	-21.78425345	-78.34419077	-142.5997132	-42
26101	0	0.383239746	-0.041137695	0.080871582	0.999999046	0.000328064	2.38E-05	0.000541687	9.580993652	-1.028442383	2.021789551	0.016403199	0.001192093	0.027084352	-0.959472656	0.283447266	0.570068359	895.66	-22.02403306	-78.30295685	-142.3215748	-42
26102	0	0.383009911	-0.039608002	0.080304146	0.999999046	0.000205994	8.01E-05	0.000575066	9.575247765	-0.990200043	2.007603645	0.010299683	0.004005432	0.028753282	-0.959472656	0.285644531	0.564208984	895.76	-22.28131379	-78.25400118	-142.0394619	-42
26103	0	0.382141113	-0.03894043	0.079345703	0.999999046	-0.000167847	0.000119209	0.00050354	9.553527832	-0.973510742	1.983642578	-0.008392334	0.005960465	0.025177003	-0.959472656	0.285644531	0.566894531	895.8	-22.5346009	-78.20377983	-141.8053454	-42
26104	0	0.382019043	-0.041610718	0.080337524	0.999999046	-0.00049305	0.000114441	0.000693321	9.550476074	-1.040267944	2.00843811	-0.024652484	0.005722047	0.034666066	-0.959472656	0.285644531	0.564208984	895.76	-22.92000517	-78.14532908	-141.4742391	-42
26105	0	0.382263184	-0.043518066	0.080200195	0.999999046	0.000293732	-4.86E-05	0.000701904	9.55657959	-1.08795166	2.005004883	0.014686586	-0.00243187	0.035095218	-0.959472656	0.287841797	0.566894531	895.76	-23.25195952	-78.10318135	-141.1055794	-42
26106	0	0.38349247	-0.042910576	0.080675125	0.999999046	0.000722885	-7.06E-05	0.000670433	9.587311745	-1.072764397	2.016878128	0.036144262	-0.003528596	0.033521658	-0.959716797	0.292236328	0.569335938	895.74	-23.52176403	-78.06430195	-140.7499495	-42
26107	0	0.381591797	-0.039916992	0.079162598	0.999998093	0.001275063	3.43E-05	0.000717163	9.539794922	-0.997924805	1.979064941	0.063753151	0.001716614	0.035858167	-0.957275391	0.290039063	0.560791016	895.76	-23.72616798	-78.01199923	-140.3967604	-42
26108	0	0.382143021	-0.037338257	0.077512741	0.999998093	0.001272202	-7.15E-05	0.000762939	9.553575516	-0.933456421	1.937818527	0.0636101	-0.00357628	0.038146987	-0.957275391	0.292236328	0.560546875	895.7	-23.9731895	-77.96856775	-140.000212	-42
26109	0	0.385986328	-0.037902832	0.079406738	0.999999046	0.00112915	6.96E-05	0.000694275	9.649658203	-0.947570801	1.985168457	0.056457536	0.003480912	0.034713755	-0.957519531	0.296630859	0.560302734	895.76	-24.16864695	-77.91340227	-139.6727576	-42
26110	0	0.386719704	-0.035086632	0.079904556	0.999999046	0.000938416	8.96E-05	0.000460625	9.667992592	-0.877165794	1.997613907	0.046920785	0.00448227	0.023031239	-0.957519531	0.298828125	0.560058594	895.8	-24.26402327	-77.86715841	-139.4699228	-42
26111	0	0.386047363	-0.035583496	0.078063965	0.999999046	-4.20E-05	0.000119209	0.000167847	9.651184082	-0.889587402	1.951599121	-0.002098084	0.005960465	0.008392334	-0.957519531	0.298828125	0.560058594	895.76	-24.32097242	-77.83186921	-139.421297	-42
26112	0	0.384979248	-0.034804344	0.079677582	0.999999046	1.05E-05	4.77E-05	0.000232697	9.624481201	-0.870108604	1.991939545	0.000524521	0.002384186	0.011634827	-0.957763672	0.301025391	0.559814453	895.76	-24.41704401	-77.80120893	-139.3262241	-42
26113	0	0.38482666	-0.037353516	0.078308105	0.999999046	-0.000514984	4.77E-06	0.00037384	9.620666504	-0.933837891	1.957702637	-0.025749208	0.000238419	0.018692018	-0.955322266	0.30078125	0.559814453	895.76	-24.64928156	-77.76850859	-139.153485	-42
26114	0	0.38339138	-0.04059124	0.079245567	0.999999046	-0.00053978	-3.81E-05	0.000227928	9.584784508	-1.014780998	1.981139183	-0.026988985	-0.001907349	0.011396409	-0.957763672	0.301025391	0.562744141	895.74	-24.82274166	-77.74728571	-139.0438991	-42
26115	0	0.384155273	-0.040649414	0.081787109	0.999999046	-0.000778198	2.38E-05	0.000209808	9.603881836	-1.016235352	2.044677734	-0.038909916	0.001192093	0.010490419	-0.955322266	0.298583984	0.560058594	895.74	-25.00011339	-77.72046584	-138.9583242	-42
26116	0	0.382850647	-0.0439291	0.082345963	0.999999046	5.63E-05	-2.86E-05	5.63E-05	9.571266174	-1.098227501	2.058649063	0.002813339	-0.001430511	0.002813339	-0.957763672	0.301025391	0.559814453	895.8	-25.02006404	-77.70643762	-138.9356763	-42
26117	0	0.385314941	-0.04284668	0.080200195	0.999999046	0.000488281	-3.34E-05	0.000144958	9.632873535	-1.071166992	2.005004883	0.024414064	-0.00166893	0.007247925	-0.957519531	0.298828125	0.560058594	895.7	-25.03372297	-77.68868141	-138.8693225	-42
26118	0	0.38457489	-0.042635918	0.080458641	0.999999046	0.000759125	0.000150681	5.25E-05	9.614372253	-1.065897942	2.011466026	0.037956242	0.007534028	0.002622605	-0.957763672	0.301025391	0.562744141	895.76	-24.93139889	-77.65635681	-138.8897325	-41
