Counter	Temperature	VelInc_X	VelInc_Y	VelInc_Z	OriInc_w	OriInc_x	OriInc_y	OriInc_z	Acc_X	Acc_Y	Acc_Z	Gyr_X	Gyr_Y	Gyr_Z	Mag_X	Mag_Y	Mag_Z	Pressure	Roll	Pitch	Yaw	RSSI
28214	0	0.382226944	-0.027284622	0.088375092	0.999999046	0.00044632	4.96E-05	0.000266075	9.555673599	-0.682115555	2.209377289	0.02231598	0.002479553	0.013303757	-0.613769531	0.497558594	0.616455078	895.64	-17.42927347	-76.27448946	-120.2656183	-64
28215	0	0.381530762	-0.028747559	0.087463379	0.999999046	0.000751495	8.58E-06	0.000423431	9.538269043	-0.718688965	2.186584473	0.037574773	0.000429153	0.021171572	-0.616210938	0.499755859	0.619140625	895.76	-17.49451574	-76.25678081	-120.125444	-64
28216	0	0.382604599	-0.027049065	0.087265015	0.999999046	0.000607491	4.01E-05	0.000285149	9.565114975	-0.676226616	2.181625366	0.030374529	0.002002716	0.014257432	-0.613769531	0.501953125	0.615966797	895.82	-17.50950506	-76.24054806	-120.0470551	-64
28217	0	0.381408691	-0.026916504	0.087097168	0.999999046	-4.96E-05	-4.48E-05	0.0001297	9.535217285	-0.672912598	2.177429199	-0.002479553	-0.002241135	0.006484985	-0.614013672	0.501953125	0.618896484	895.76	-17.54198746	-76.23911305	-120.0320466	-64
28218	0	0.384216309	-0.028673172	0.087791443	0.999999046	-0.000354767	-7.63E-06	6.87E-05	9.605407715	-0.7168293	2.194786072	-0.017738343	-0.00038147	0.003433228	-0.614013672	0.504150391	0.618652344	895.72	-17.5769478	-76.2358666	-120.0446237	-63
28219	0	0.381469727	-0.029663086	0.088989258	0.999999046	-8.39E-05	-7.53E-05	-0.00012207	9.536743164	-0.741577148	2.224731445	-0.004196167	-0.003767014	-0.006103516	-0.614013672	0.501953125	0.618896484	895.64	-17.50542818	-76.24663806	-120.13823	-63
28220	0	0.379170418	-0.027632713	0.089231491	0.999999046	-0.000338554	-6.68E-05	8.77E-05	9.479260445	-0.690817833	2.230787277	-0.016927719	-0.00333786	0.004386902	-0.613769531	0.501953125	0.615966797	895.72	-17.55519442	-76.24925014	-120.1314549	-63
28221	0	0.381835938	-0.029541016	0.091796875	0.999999046	-0.000286102	-9.82E-05	8.01E-05	9.545898438	-0.738525391	2.294921875	-0.014305115	-0.004911423	0.004005432	-0.614013672	0.501953125	0.618896484	895.82	-17.59992718	-76.25546293	-120.1266426	-63
28222	0	0.382702827	-0.028861046	0.090666771	0.999999046	-0.000301361	5.34E-05	3.43E-05	9.567570686	-0.721526146	2.266669273	-0.015068054	0.002670288	0.001716614	-0.614013672	0.501953125	0.618896484	895.72	-17.60434391	-76.24667601	-120.1638975	-63
28223	0	0.380493164	-0.028076172	0.088623047	0.999999046	-0.000499725	0.000245094	9.54E-05	9.512329102	-0.701904297	2.215576172	-0.024986268	0.012254716	0.004768372	-0.611328125	0.499511719	0.61328125	895.76	-17.63141061	-76.2149046	-120.195234	-63
28224	0	0.382274628	-0.029643059	0.089694977	0.999999046	-0.000676155	0.000102997	9.82E-05	9.556865692	-0.741076469	2.24237442	-0.033807757	0.005149842	0.004911423	-0.613769531	0.499755859	0.618896484	895.72	-17.70011791	-76.1985719	-120.2107048	-63
28225	0	0.381347656	-0.029602051	0.09197998	0.999999046	-0.000423431	1.62E-05	6.48E-05	9.533691406	-0.74005127	2.299499512	-0.02117157	0.000810623	0.003242493	-0.614013672	0.501953125	0.621582031	895.8	-17.73717989	-76.19278604	-120.2270771	-63
28226	0	0.382012367	-0.028813362	0.091051102	0.999999046	-0.000429153	-5.15E-05	0.000170708	9.550309181	-0.720334053	2.276277542	-0.021457673	-0.002574921	0.008535385	-0.613769531	0.499755859	0.616210938	895.82	-17.83127528	-76.19066437	-120.1805951	-63
28227	0	0.38269043	-0.030273438	0.090820313	0.999999046	-0.000366211	-6.39E-05	5.72E-05	9.567260742	-0.756835938	2.270507813	-0.018310547	-0.003194809	0.002861023	-0.614013672	0.499755859	0.624755859	895.8	-17.86962085	-76.19383585	-120.1945501	-63
28228	0	0.382453918	-0.030138016	0.088367462	0.999999046	-0.000153542	-9.16E-05	-4.29E-05	9.561347961	-0.753450394	2.209186554	-0.007677078	-0.004577637	-0.002145767	-0.615966797	0.497558594	0.619384766	895.88	-17.84325404	-76.20363148	-120.2465201	-63
28229	0	0.381469727	-0.029052734	0.087646484	0.999999046	0.000377655	-2.96E-05	0.0001297	9.536743164	-0.726318359	2.191162109	0.018882752	-0.001478195	0.006484986	-0.615966797	0.495361328	0.619384766	895.8	-17.82380636	-76.20071826	-120.2341407	-63
28230	0	0.382870674	-0.02810955	0.087582588	0.999999046	-3.81E-06	6.10E-05	1.81E-05	9.571766853	-0.702738762	2.189564705	-0.000190735	0.003051758	0.000905991	-0.616210938	0.499755859	0.616210938	895.8	-17.78539574	-76.19199029	-120.2736213	-64
28231	0	0.381835938	-0.028564453	0.084594727	0.999999046	-0.000411987	8.87E-05	-0.000118256	9.545898438	-0.714111328	2.114868164	-0.020599366	0.004434586	-0.005912781	-0.615966797	0.497558594	0.619384766	895.82	-17.72947175	-76.18527076	-120.3858052	-63
28232	0	0.38201046	-0.029827118	0.085918427	0.999999046	-0.000557899	0.000162125	-0.000160217	9.550261497	-0.745677948	2.147960663	-0.027894975	0.008106232	-0.008010865	-0.615966797	0.497558594	0.616455078	895.68	-17.66166364	-76.17216085	-120.5208804	-63
28233	0	0.381958008	-0.028625488	0.087463379	0.999999046	-0.00069046	0.0002985	-0.000411987	9.548950195	-0.715637207	2.186584473	-0.034523014	0.014925005	-0.020599368	-0.615966797	0.493164063	0.619628906	895.8	-17.47850401	-76.15291813	-120.7995107	-63
28234	0	0.382656097	-0.026363373	0.092781067	0.999999046	-0.001272202	0.000219345	-0.00011158	9.566402435	-0.65908432	2.319526672	-0.063610095	0.010967258	-0.005578996	-0.615966797	0.495361328	0.619384766	895.8	-17.50589356	-76.13182463	-120.9204406	-63
28235	0	0.386474609	-0.021240234	0.090026855	0.999992371	-0.003573418	0.00087738	0.000144958	9.661865234	-0.531005859	2.250671387	-0.178671287	0.043869118	0.007247941	-0.615966797	0.493164063	0.622558594	895.82	-17.81641656	-76.03024585	-121.0179207	-63
28236	0	0.384910583	-0.025636673	0.08722496	0.999979973	-0.006093025	0.001329422	0.00051403	9.622764587	-0.640916824	2.180624008	-0.304653249	0.066471534	0.025701691	-0.620361328	0.486816406	0.626220703	895.8	-18.50860401	-75.86676601	-121.0190893	-63
28237	0	0.37677002	-0.036437988	0.087280273	0.999979973	-0.006225586	0.001049995	0.000125885	9.419250488	-0.910949707	2.182006836	-0.311281366	0.05250012	0.006294292	-0.620117188	0.478271484	0.632568359	895.8	-19.08458182	-75.74801823	-121.159041	-63
28238	0	0.376694679	-0.043009758	0.088885307	0.999992371	-0.003855705	0.000161171	-0.000125885	9.417366982	-1.07524395	2.222132683	-0.192785742	0.008058568	-0.006294266	-0.617675781	0.473632813	0.6328125	895.8	-19.41320697	-75.73513857	-121.2678872	-63
28239	0	0.380493164	-0.043457031	0.094360352	0.999999046	-0.000495911	-0.000288963	-6.10E-05	9.512329102	-1.086425781	2.359008789	-0.024795534	-0.014448167	-0.003051758	-0.622070313	0.467285156	0.636474609	895.82	-19.45359367	-75.76821146	-121.2938005	-63
28240	0	0.38092041	-0.03758812	0.097886086	0.999999046	0.000893593	-0.000350952	9.06E-05	9.523010254	-0.939702988	2.447152138	0.044679649	-0.01754761	0.004529954	-0.619873047	0.469482422	0.635986328	895.76	-19.40905808	-75.8018253	-121.2400175	-63
28241	0	0.381347656	-0.03125	0.096008301	0.999999046	0.001106262	2.38E-05	0.000411987	9.533691406	-0.78125	2.40020752	0.055313123	0.001192093	0.02059937	-0.622070313	0.467285156	0.636474609	895.82	-19.42018995	-75.78250291	-121.1144643	-63
28242	0	0.382110596	-0.031481743	0.093043327	0.999999046	0.00075531	9.73E-05	0.000121117	9.552764893	-0.787043571	2.326083183	0.037765507	0.004863739	0.006055833	-0.619873047	0.471679688	0.633056641	895.8	-19.33585021	-75.76629979	-121.1175842	-63
28243	0	0.380615234	-0.033691406	0.088806152	0.999999046	0.000717163	0.00023365	-0.000209808	9.515380859	-0.842285156	2.220153809	0.035858158	0.011682512	-0.010490419	-0.619873047	0.473876953	0.6328125	895.76	-19.09499478	-75.74794203	-121.2842107	-63
28244	0	0.382539749	-0.034500122	0.090742111	0.999999046	0.000878334	1.72E-05	-0.000423431	9.563493729	-0.862503052	2.26855278	0.043916709	0.000858307	-0.021171573	-0.622314453	0.471679688	0.635986328	895.76	-18.77695036	-75.76083168	-121.5228131	-63
28245	0	0.383422852	-0.029846191	0.090637207	0.999999046	0.001262665	4.67E-05	-0.000415802	9.585571289	-0.746154785	2.265930176	0.063133258	0.002336503	-0.020790106	-0.617675781	0.471679688	0.635742188	895.7	-18.41295862	-75.77002669	-121.7638549	-63
28246	0	0.381728172	-0.027955055	0.091780663	0.999999046	3.24E-05	0.000265121	-0.000397682	9.543204308	-0.698876381	2.294516563	0.001621246	0.013256074	-0.01988411	-0.622070313	0.469482422	0.633300781	895.82	-18.16588024	-75.75458443	-122.031469	-63
28247	0	0.380859375	-0.026977539	0.092285156	0.999999046	-0.001289368	0.000370979	-0.000263214	9.521484375	-0.674438477	2.307128906	-0.064468404	0.018548971	-0.01316071	-0.624511719	0.471679688	0.630371094	895.7	-18.11273862	-75.72272615	-122.2427094	-63
28248	0	0.381784439	-0.030489922	0.09084034	0.999995232	-0.002919197	0.000566483	-0.00023365	9.544610977	-0.762248039	2.271008492	-0.145960071	0.028324169	-0.011682528	-0.622070313	0.469482422	0.630615234	895.8	-18.23212644	-75.66866443	-122.4611163	-64
28249	0	0.380432129	-0.032165527	0.090454102	0.999996185	-0.002520561	0.000591278	-0.000301361	9.510803223	-0.804138184	2.261352539	-0.126028204	0.029563937	-0.015068071	-0.624267578	0.465332031	0.63671875	895.88	-18.27444249	-75.61450707	-122.7195088	-64
28250	0	0.381623268	-0.030201912	0.092035294	0.999996185	-0.002575874	0.000632286	1.53E-05	9.540581703	-0.755047798	2.300882339	-0.128793867	0.031614341	0.00076294	-0.624267578	0.463134766	0.639648438	895.76	-18.45176079	-75.54466801	-122.8441904	-64
28251	0	0.383239746	-0.024658203	0.09387207	0.999990463	-0.00423336	0.000881195	0.000221252	9.580993652	-0.616455078	2.346801758	-0.211668676	0.044059891	0.011062657	-0.626464844	0.458740234	0.640136719	895.72	-18.86808111	-75.44054797	-122.9141812	-65
28252	0	0.385505676	-0.027017593	0.092861176	0.999978065	-0.006539345	0.000928879	0.000494003	9.637641907	-0.675439835	2.321529388	-0.32696963	0.046444279	0.024700345	-0.626220703	0.449951172	0.640869141	895.72	-19.65024257	-75.32136989	-122.8755108	-65
28253	0	0.380249023	-0.026062012	0.09173584	0.999958992	-0.009021759	0.000721931	0.000125885	9.506225586	-0.651550293	2.293395996	-0.451094111	0.036097066	0.006294336	-0.628417969	0.443603516	0.647216797	895.72	-20.58876409	-75.23912093	-122.9588265	-66
28254	0	0.377058029	-0.034320831	0.090455055	0.999940872	-0.010827065	0.000462532	-0.000400543	9.426450729	-0.858020782	2.261376381	-0.541363837	0.023127055	-0.020027553	-0.627929688	0.428222656	0.659912109	895.8	-21.55652917	-75.20688584	-123.2314852	-66
28255	0	0.37677002	-0.036804199	0.093688965	0.999930382	-0.011711121	0.000157356	-0.000843048	9.419250488	-0.92010498	2.342224121	-0.585569488	0.007867994	-0.042153374	-0.629638672	0.413085938	0.669677734	895.72	-22.49519535	-75.22726404	-123.6366821	-66
28256	0	0.380905151	-0.04592514	0.095802307	0.999957085	-0.009190559	0.000240326	-0.001135826	9.522628784	-1.14812851	2.395057678	-0.459534542	0.012016468	-0.056792118	-0.631591797	0.395751953	0.677001953	895.8	-23.01509238	-75.25295289	-124.1841893	-66
28257	0	0.379699707	-0.043457031	0.094360352	0.999980927	-0.006026268	0.00063324	-0.001091003	9.492492676	-1.086425781	2.359008789	-0.301315304	0.031662187	-0.054550516	-0.635742188	0.385009766	0.680908203	895.82	-23.12427064	-75.23581444	-124.7850085	-66
28258	0	0.382171631	-0.042254448	0.095923424	0.99998951	-0.004365921	0.000663757	-0.000842094	9.554290771	-1.056361198	2.398085594	-0.218296786	0.033187978	-0.042104863	-0.635498047	0.376220703	0.684570313	895.8	-23.13848738	-75.20424682	-125.2912305	-66
28259	0	0.379821777	-0.043395996	0.091796875	0.999988556	-0.00455761	0.000751495	-0.00044632	9.495544434	-1.084899902	2.294921875	-0.227881296	0.037574903	-0.022316059	-0.637451172	0.367675781	0.688232422	895.8	-23.31917929	-75.14574733	-125.6529525	-66
28260	0	0.379543304	-0.04822731	0.09174633	0.999990463	-0.004283905	0.00049305	-0.000589371	9.488582611	-1.205682755	2.293658257	-0.214195928	0.024652559	-0.029468629	-0.642089844	0.361328125	0.691894531	895.76	-23.45798975	-75.12109526	-126.0274782	-66
28261	0	0.379455566	-0.051391602	0.089294434	0.999995232	-0.002864838	0.000229836	-0.00044632	9.48638916	-1.284790039	2.23236084	-0.143242084	0.011491792	-0.02231601	-0.641845703	0.354736328	0.697998047	895.76	-23.53836044	-75.11770751	-126.3020118	-67
28262	0	0.3793993	-0.051381111	0.089112282	0.999997139	-0.002300262	-5.72E-06	-0.000164986	9.484982491	-1.284527779	2.227807045	-0.115013225	-0.000286103	-0.00824929	-0.641601563	0.350341797	0.698486328	895.76	-23.7079329	-75.12624809	-126.4175894	-67
28263	0	0.377441406	-0.05090332	0.085449219	0.999996185	-0.002383232	-0.000362396	0.00038147	9.436035156	-1.272583008	2.136230469	-0.119161724	-0.01811983	0.019073505	-0.639160156	0.348144531	0.695556641	895.72	-24.16738708	-75.14699846	-126.2357282	-67
28264	0	0.378626823	-0.055978775	0.094614029	0.999985695	0.004992485	-0.001541138	0.000226974	9.465670586	-1.399469376	2.365350723	0.24962539	-0.077057236	0.011348776	-0.641357422	0.34375	0.696044922	895.82	-23.93244412	-75.29778193	-125.9256041	-67
28265	0	0.384216309	-0.013122559	0.100219727	0.99998951	0.004364014	-0.000697136	-0.000480652	9.605407715	-0.328063965	2.505493164	0.218201402	-0.034856911	-0.024032672	-0.636962891	0.354492188	0.695068359	895.8	-23.32962655	-75.39330291	-126.0573888	-67
28266	0	0.384432793	-0.019102097	0.097657204	0.999992371	-0.003781319	0.000266075	-0.000872612	9.610819817	-0.477552414	2.441430092	-0.18906641	0.01330379	-0.04363071	-0.636962891	0.354492188	0.692138672	895.64	-23.32718134	-75.4052939	-126.5134539	-67
28267	0	0.382446289	-0.046203613	0.089904785	0.999984741	-0.005400658	0.000617981	-0.000617981	9.561157227	-1.155090332	2.247619629	-0.27003423	0.030899202	-0.030899202	-0.634521484	0.345703125	0.698486328	895.8	-23.55322281	-75.36887645	-126.9276102	-67
28268	0	0.378749847	-0.061281204	0.088553429	0.999999046	4.48E-05	0.000253677	0.000119209	9.468746185	-1.532030106	2.213835716	0.002241135	0.012683869	0.005960465	-0.641357422	0.339355469	0.705078125	895.76	-23.52018923	-75.3368584	-126.9876549	-67
28269	0	0.376464844	-0.050720215	0.093688965	0.999988556	0.004624367	-0.000282288	0.00082016	9.411621094	-1.268005371	2.342224121	0.231219191	-0.014114432	0.041008147	-0.639160156	0.34375	0.701660156	895.82	-23.33909116	-75.32888199	-126.6626901	-67
28270	0	0.38225174	-0.039950371	0.097322464	0.999985695	0.005292892	-0.000385284	0.000404358	9.556293488	-0.99875927	2.4330616	0.264645872	-0.019264312	0.020217991	-0.639404297	0.350341797	0.698242188	895.66	-22.93119654	-75.35070798	-126.4947525	-67
28271	0	0.381164551	-0.034973145	0.094909668	0.999992371	0.003796577	-0.0001297	5.72E-05	9.52911377	-0.874328613	2.372741699	0.189829329	-0.006485001	0.00286103	-0.637207031	0.356689453	0.691894531	895.82	-22.50934664	-75.36121452	-126.5104317	-67
28272	0	0.37935257	-0.037864685	0.091255188	0.999994278	0.00333786	-2.96E-05	0.00052166	9.48381424	-0.946617126	2.2813797	0.166893323	-0.001478198	0.026083042	-0.637207031	0.36328125	0.685791016	895.72	-22.31102821	-75.34089008	-126.3420817	-67
28273	0	0.379638672	-0.034912109	0.090026855	0.999992371	0.003674507	-0.000255585	0.000801086	9.490966797	-0.872802734	2.250671387	0.183725792	-0.012779266	0.040054416	-0.635009766	0.367431641	0.685302734	895.7	-22.22423012	-75.33268623	-126.0230311	-67
28274	0	0.38005352	-0.035837173	0.08997345	0.999997139	0.002218246	-0.000387192	0.00038147	9.501338005	-0.895929337	2.249336243	0.110912419	-0.019359605	0.019073503	-0.635498047	0.374023438	0.6875	895.7	-22.15562216	-75.35688839	-125.8549691	-67
28275	0	0.380187988	-0.038085938	0.092529297	0.999998093	0.001519203	-0.000320435	2.67E-05	9.504699707	-0.952148438	2.313232422	0.07596019	-0.016021735	0.001335145	-0.633300781	0.376220703	0.687255859	895.64	-22.01178886	-75.38937205	-125.8462826	-67
28276	0	0.381403923	-0.04002285	0.092406273	0.999999046	0.00114727	-0.000253677	-0.00025177	9.535098076	-1.000571251	2.310156822	0.057363524	-0.012683871	-0.012588504	-0.635498047	0.378417969	0.684326172	895.8	-21.78581574	-75.42665794	-125.9624031	-67
28277	0	0.380126953	-0.03894043	0.093383789	0.999998093	0.001584053	-0.000125885	-0.000183105	9.503173828	-0.973510742	2.334594727	0.079202686	-0.006294253	-0.009155277	-0.630859375	0.378417969	0.684082031	895.82	-21.51639157	-75.44723841	-126.0736574	-67
28278	0	0.378455162	-0.038380623	0.094753265	0.999997139	0.002044678	-0.000202179	-3.05E-05	9.461379051	-0.959515572	2.368831635	0.102233959	-0.010108955	-0.00152588	-0.633300781	0.3828125	0.683837891	895.72	-21.26868775	-75.46931409	-126.1065018	-67
28279	0	0.378723145	-0.037353516	0.096557617	0.999997139	0.002296448	-0.000266075	0.000282288	9.468078613	-0.933837891	2.41394043	0.114822491	-0.013303769	0.014114393	-0.635742188	0.385009766	0.678222656	895.76	-21.13075299	-75.4850124	-125.9946328	-67
28280	0	0.38229084	-0.040429115	0.095135689	0.999998093	0.001840591	-0.000214577	0.000170708	9.557271004	-1.010727882	2.37839222	0.092029625	-0.010728842	0.00853539	-0.633544922	0.387207031	0.68359375	895.74	-20.99118581	-75.49970062	-125.9455557	-67
28281	0	0.380432129	-0.041870117	0.093017578	0.999994278	0.003312111	-0.000297546	-6.48E-05	9.510803223	-1.04675293	2.325439453	0.16560585	-0.014877347	-0.003242499	-0.633544922	0.389404297	0.680419922	895.8	-20.59913384	-75.53281535	-125.9857218	-67
28282	0	0.378905296	-0.034300804	0.094120026	0.999992371	0.003777504	-0.00039196	0.000255585	9.472632408	-0.857520103	2.353000641	0.188875654	-0.019598055	0.012779267	-0.631347656	0.395751953	0.671386719	895.8	-20.30056833	-75.56314364	-125.8632586	-67
28283	0	0.380126953	-0.034301758	0.092773438	0.999995232	0.003025055	-0.000365257	0.000312805	9.503173828	-0.857543945	2.319335938	0.151252983	-0.018262892	0.015640283	-0.631591797	0.400146484	0.668212891	895.8	-20.10749098	-75.58847571	-125.7194513	-67
28284	0	0.38285923	-0.032945633	0.092265129	0.999997139	0.002022743	-0.000324249	0.000335693	9.571480751	-0.823640823	2.306628227	0.101137234	-0.016212475	0.01678468	-0.634033203	0.40234375	0.670898438	895.72	-20.0321674	-75.60865187	-125.5800903	-67
28285	0	0.379760742	-0.034362793	0.091247559	0.999998093	0.00167942	-0.000274658	0.000183105	9.494018555	-0.859069824	2.281188965	0.083971065	-0.013732917	0.009155278	-0.631835938	0.406738281	0.667480469	895.86	-19.92457027	-75.62957761	-125.5066391	-67
28286	0	0.379797935	-0.033223152	0.090234756	0.999998093	0.001782417	-0.00033474	0.000465393	9.494948387	-0.830578804	2.255868912	0.089120917	-0.016736994	0.023269667	-0.629638672	0.410888672	0.666992188	895.7	-19.93298693	-75.64607735	-125.2985775	-66
28287	0	0.380615234	-0.031799316	0.092712402	0.999998093	0.001549721	-0.000518799	0.000339508	9.515380859	-0.79498291	2.317810059	0.077486074	-0.025939953	0.016975411	-0.632080078	0.413085938	0.664306641	895.58	-19.94299283	-75.68733405	-125.1155561	-66
28288	0	0.382945061	-0.032754898	0.09076786	0.999999046	0.000962257	-0.000324249	0.000495911	9.573626518	-0.818872452	2.26919651	0.04811288	-0.016212467	0.024795538	-0.629882813	0.415283203	0.666748047	895.86	-20.05675121	-75.7015689	-124.896923	-66
28289	0	0.381713867	-0.03515625	0.090454102	0.999999046	0.000953674	-0.00026226	0.00025177	9.54284668	-0.87890625	2.261352539	0.047683724	-0.013113024	0.012588503	-0.629882813	0.415283203	0.666748047	895.76	-20.05926693	-75.71872761	-124.7975204	-66
28290	0	0.379547119	-0.031149864	0.088970184	0.999999046	0.001251221	-0.000207901	0.000250816	9.488677979	-0.778746605	2.224254608	0.062561053	-0.010395053	0.012540821	-0.627441406	0.417480469	0.663574219	895.7	-20.0185029	-75.73024618	-124.7027093	-66
28291	0	0.382568359	-0.028991699	0.087890625	0.999999046	0.000667572	-0.000178337	0.000408173	9.564208984	-0.72479248	2.197265625	0.033378605	-0.008916856	0.020408633	-0.627685547	0.421875	0.660400391	895.82	-20.1059223	-75.73267174	-124.5353571	-66
28292	0	0.381295204	-0.028269768	0.088279724	0.999999046	-0.000777245	-1.14E-05	0.000278473	9.532380104	-0.706744194	2.206993103	-0.038862233	-0.000572205	0.013923647	-0.625488281	0.421630859	0.666015625	895.82	-20.27714696	-75.72243718	-124.4567139	-66
28293	0	0.38482666	-0.033569336	0.088134766	0.999997139	-0.001972198	0.000309944	-0.00030899	9.620666504	-0.839233398	2.203369141	-0.098609991	0.015497218	-0.015449534	-0.629882813	0.417480469	0.663818359	895.76	-20.28714548	-75.70117559	-124.6849812	-66
28294	0	0.379725456	-0.035710335	0.091463089	0.999998093	-0.001345634	0.000145912	-0.000466347	9.493136406	-0.892758369	2.286577225	-0.067281746	0.007295611	-0.023317345	-0.627441406	0.417480469	0.663574219	895.86	-20.18491205	-75.70370837	-124.9473655	-66
28295	0	0.379089355	-0.034423828	0.094299316	0.999999046	-0.000858307	-5.25E-05	-4.96E-05	9.477233887	-0.860595703	2.35748291	-0.04291535	-0.002622605	-0.002479554	-0.629638672	0.413085938	0.666992188	895.72	-20.23329473	-75.71088156	-125.0070103	-66
28296	0	0.381483078	-0.036013603	0.094623566	0.999999046	-0.000884056	-0.00015831	4.10E-05	9.53707695	-0.90034008	2.365589142	-0.044202811	-0.007915498	0.0020504	-0.632080078	0.411132813	0.670166016	895.66	-20.33948373	-75.72568013	-125.0153417	-66
28297	0	0.38092041	-0.038269043	0.094055176	0.999999046	-0.00069809	-3.34E-05	-4.96E-05	9.523010254	-0.956726074	2.351379395	-0.034904483	-0.00166893	-0.002479553	-0.629638672	0.410888672	0.672851563	895.8	-20.36710843	-75.73047787	-125.0823515	-66
28298	0	0.380502701	-0.038359642	0.091716766	0.999999046	0.000541687	1.91E-06	0.000178337	9.51256752	-0.958991051	2.292919159	0.027084352	9.54E-05	0.008916855	-0.629638672	0.408691406	0.667236328	895.76	-20.34407083	-75.72231334	-125.0541871	-66
28299	0	0.380615234	-0.032348633	0.088806152	0.999999046	0.001098633	-0.000163078	0.00025177	9.515380859	-0.80871582	2.220153809	0.054931652	-0.008153917	0.012588504	-0.627441406	0.413085938	0.666748047	895.7	-20.31374678	-75.72911767	-124.9617441	-66
28300	0	0.37989521	-0.03276825	0.090766907	0.999999046	0.0001688	-6.48E-05	0.000270844	9.497380257	-0.819206238	2.269172668	0.008440018	-0.003242493	0.013542176	-0.627441406	0.415283203	0.663818359	895.82	-20.38231104	-75.72464679	-124.8703565	-65
28301	0	0.38269043	-0.03326416	0.091125488	0.999999046	-0.000240326	-5.63E-05	0.000144958	9.567260742	-0.831604004	2.278137207	-0.012016297	-0.002813339	0.007247925	-0.627441406	0.413085938	0.669677734	895.76	-20.44297288	-75.72431144	-124.8464269	-65
28302	0	0.380980492	-0.036653519	0.091124535	0.999999046	-0.000310898	1.14E-05	-0.00012207	9.524512291	-0.916337967	2.278113365	-0.015544892	0.000572205	-0.006103516	-0.629882813	0.415283203	0.669677734	895.72	-20.38872986	-75.72735534	-124.9446385	-65
28303	0	0.380859375	-0.035644531	0.090026855	0.999999046	0.000301361	4.77E-06	-5.72E-05	9.521484375	-0.891113281	2.250671387	0.015068054	0.000238419	-0.002861023	-0.629638672	0.413085938	0.6640625	895.66	-20.29299073	-75.72854369	-125.0109109	-65
28304	0	0.380984306	-0.033776283	0.091392517	0.999999046	0.000180244	-0.000102997	0.000205994	9.524607658	-0.844407082	2.284812927	0.009012222	-0.005149841	0.010299683	-0.627441406	0.413085938	0.669677734	895.74	-20.33901499	-75.7308394	-124.9521992	-65
28305	0	0.382568359	-0.036071777	0.088684082	0.999999046	3.05E-05	0.000180244	1.53E-05	9.564208984	-0.901794434	2.217102051	0.001525879	0.009012222	0.000762939	-0.627441406	0.415283203	0.666748047	895.8	-20.27779724	-75.71040142	-125.0140047	-65
28306	0	0.379971504	-0.03485775	0.089798927	0.999999046	0.000518799	6.68E-05	-0.000232697	9.499287605	-0.871443748	2.244973183	0.025939943	0.00333786	-0.011634827	-0.629638672	0.413085938	0.666992188	895.82	-20.07389911	-75.71198573	-125.171906	-66
28307	0	0.380493164	-0.033325195	0.091003418	0.999999046	-5.34E-05	3.15E-05	0.000152588	9.512329102	-0.833129883	2.275085449	-0.002670288	0.001573563	0.007629395	-0.632080078	0.413330078	0.666992188	895.76	-20.10364017	-75.70217524	-125.1569669	-65
28308	0	0.381574631	-0.036442757	0.092121124	0.999999046	0.000170708	-8.20E-05	0.000224113	9.539365768	-0.911068916	2.303028107	0.008535385	-0.0041008	0.011205673	-0.629638672	0.413085938	0.669677734	895.76	-20.15577073	-75.7016899	-125.0959518	-66
28309	0	0.382507324	-0.035339355	0.088867188	0.999999046	0.000530243	-0.000132561	0.00050354	9.562683105	-0.883483887	2.221679688	0.026512148	-0.006628037	0.025177004	-0.627441406	0.415283203	0.669433594	895.8	-20.29273311	-75.69566569	-124.9021453	-66
28310	0	0.381031036	-0.035200119	0.090450287	0.999999046	0.000947952	-0.000162125	9.06E-05	9.525775909	-0.880002975	2.261257172	0.047397621	-0.008106233	0.004529954	-0.629638672	0.415283203	0.663818359	895.74	-20.21241067	-75.70920715	-124.8801551	-66
28311	0	0.381591797	-0.034851074	0.091674805	0.999999046	0.001125336	-1.81E-05	-0.000370026	9.539794922	-0.871276855	2.291870117	0.056266798	-0.000905991	-0.018501286	-0.629882813	0.417480469	0.663818359	895.72	-19.89460922	-75.7253509	-125.0809087	-66
28312	0	0.383331299	-0.037111282	0.09021759	0.999999046	0.001296043	0.000202179	-0.000370979	9.583282471	-0.927782059	2.255439758	0.06480219	0.010108951	-0.018548971	-0.627685547	0.419677734	0.663330078	895.8	-19.52360752	-75.71750054	-125.3141914	-67
28313	0	0.382263184	-0.033691406	0.087890625	0.999999046	0.001274109	0.000386238	-0.000366211	9.55657959	-0.842285156	2.197265625	0.063705465	0.019311911	-0.018310553	-0.632324219	0.419677734	0.666503906	895.8	-19.13053005	-75.68936101	-125.5828755	-67
28314	0	0.380386353	-0.032086372	0.089791298	0.999999046	0.000930786	0.000209808	-0.000255585	9.509658813	-0.802159309	2.244782448	0.046539314	0.010490419	-0.012779238	-0.629882813	0.421875	0.657714844	895.7	-18.85050406	-75.67594678	-125.7612952	-67
28315	0	0.38092041	-0.029052734	0.088684082	0.999999046	0.000480652	-8.30E-05	-0.000125885	9.523010254	-0.726318359	2.217102051	0.024032594	-0.004148483	-0.006294251	-0.632324219	0.421875	0.657714844	895.72	-18.71924677	-75.68955856	-125.8417025	-67
28316	0	0.380760193	-0.030578613	0.091456413	0.999999046	-0.000309944	5.15E-05	7.53E-05	9.519004822	-0.764465332	2.286410332	-0.015497208	0.002574921	0.003767014	-0.632324219	0.421875	0.663574219	895.7	-18.74441943	-75.68119833	-125.8607661	-68
28317	0	0.384216309	-0.03527832	0.090270996	0.999999046	-0.000709534	-0.00014019	9.16E-05	9.605407715	-0.881958008	2.256774902	-0.035476688	-0.007009507	0.004577637	-0.632080078	0.419677734	0.657958984	895.8	-18.85067625	-75.69311462	-125.837416	-68
28318	0	0.381793976	-0.036882401	0.091636658	1	1.05E-05	-4.86E-05	-4.77E-06	9.544849396	-0.922060013	2.290916443	0.000524521	-0.00243187	-0.000238419	-0.629882813	0.419677734	0.663574219	895.8	-18.82108888	-75.69860666	-125.8752193	-69
28319	0	0.378112793	-0.033996582	0.093200684	0.999999046	0.000572205	-0.000105858	0.000202179	9.452819824	-0.849914551	2.33001709	0.028610231	-0.005292893	0.010108948	-0.629882813	0.419677734	0.657958984	895.8	-18.82366235	-75.70252515	-125.8082834	-69
28320	0	0.378911018	-0.035387039	0.093037605	0.999999046	0.000290871	0	0.00039959	9.472775459	-0.88467598	2.325940132	0.014543534	0	0.019979478	-0.629882813	0.419677734	0.660644531	895.66	-18.92748356	-75.68749699	-125.6755757	-69
28321	0	0.381286621	-0.036560059	0.093383789	0.999999046	0.000766754	0.000130653	0.000228882	9.532165527	-0.914001465	2.334594727	0.038337712	0.00653267	0.011444093	-0.629882813	0.421875	0.660400391	895.82	-18.88569324	-75.66449619	-125.6356439	-69
28322	0	0.380513191	-0.035739899	0.091461182	0.999998093	0.001418114	0.000159264	0.000320435	9.512829781	-0.893497467	2.286529541	0.070905711	0.007963183	0.016021734	-0.632324219	0.421875	0.660644531	895.66	-18.80453592	-75.634985	-125.5665906	-69
28323	0	0.37902832	-0.031066895	0.093261719	0.999998093	0.001511574	0.000240326	0.000518799	9.475708008	-0.776672363	2.331542969	0.075578722	0.012016302	0.025939953	-0.630126953	0.426269531	0.657226563	895.88	-18.78432664	-75.58933158	-125.4164143	-69
28324	0	0.380234718	-0.030024529	0.092008591	0.999999046	0.000845909	0.000179291	0.000681877	9.505867958	-0.750613213	2.300214767	0.042295464	0.00896454	0.034093864	-0.627929688	0.428222656	0.659912109	895.76	-18.91669242	-75.5442833	-125.1910514	-69
28325	0	0.381835938	-0.033508301	0.092102051	0.999999046	0.000858307	0.000172615	0.000484467	9.545898438	-0.83770752	2.30255127	0.042915351	0.008630754	0.024223332	-0.627929688	0.428222656	0.656982422	895.76	-18.96486993	-75.50724818	-125.0514266	-69
28326	0	0.381528854	-0.031768799	0.091493607	0.999999046	0.001010895	0.000143051	0.000354767	9.538221359	-0.794219971	2.287340164	0.050544749	0.007152559	0.017738346	-0.630126953	0.430664063	0.654052734	895.8	-18.94489992	-75.47834056	-124.9610744	-69
28327	0	0.381835938	-0.038024902	0.091247559	0.999996185	0.002591133	0.000614166	9.54E-05	9.545898438	-0.950622559	2.281188965	0.129556809	0.030708349	0.004768377	-0.630371094	0.434814453	0.650878906	895.82	-18.56967112	-75.40797834	-125.04877	-69
28328	0	0.380369186	-0.035470963	0.095133781	0.999984741	0.005443573	0.000540733	0.00015831	9.50922966	-0.886774063	2.378344536	0.272180009	0.027036802	0.007915536	-0.6328125	0.437255859	0.647949219	895.72	-17.90713891	-75.34303066	-125.1084303	-69
28329	0	0.380432129	-0.028503418	0.095397949	0.999990463	0.004254341	-4.20E-05	0.000282288	9.510803223	-0.712585449	2.38494873	0.212717701	-0.00209809	0.014114423	-0.630615234	0.443603516	0.64453125	895.74	-17.51188817	-75.33726414	-125.0305805	-69
28330	0	0.380182266	-0.023345947	0.093552589	0.999995232	0.002977371	-0.00044632	-0.000349998	9.504556656	-0.583648682	2.338814735	0.148868789	-0.022316013	-0.01749995	-0.628417969	0.450195313	0.638183594	895.72	-17.04953668	-75.39760743	-125.1600642	-68
28331	0	0.380371094	-0.020324707	0.088806152	0.999999046	0.00019455	-0.000319481	-0.000411987	9.509277344	-0.508117676	2.220153809	0.009727479	-0.015974046	-0.020599366	-0.628417969	0.450195313	0.638183594	895.82	-16.86026085	-75.44634962	-125.3357455	-68
28332	0	0.380208969	-0.028277397	0.091625214	0.999999046	-0.001179695	-0.000154495	-0.000267029	9.505224228	-0.706934929	2.290630341	-0.058984771	-0.007724764	-0.013351444	-0.630615234	0.447998047	0.641357422	895.82	-16.86775622	-75.47225276	-125.4749425	-68
28333	0	0.381408691	-0.028259277	0.090087891	0.999998093	-0.001475334	-8.39E-05	-0.000343323	9.535217285	-0.706481934	2.252197266	-0.073766737	-0.004196169	-0.017166144	-0.628417969	0.447998047	0.646972656	895.82	-16.86752637	-75.49317962	-125.6572699	-67
28334	0	0.379551888	-0.029618263	0.093598366	0.999997139	-0.002174377	-7.44E-05	-9.54E-05	9.488797188	-0.740456581	2.339959145	-0.108718958	-0.003719333	-0.004768375	-0.630615234	0.445800781	0.644287109	895.8	-17.05121062	-75.50484952	-125.725305	-68
28335	0	0.379821777	-0.033813477	0.095214844	0.999999046	-0.000926971	1.24E-05	-0.000232697	9.495544434	-0.845336914	2.380371094	-0.046348579	0.000619888	-0.011634828	-0.630615234	0.44140625	0.647460938	895.76	-17.02318969	-75.51150498	-125.8726943	-68
28336	0	0.381908417	-0.030092239	0.096754074	1	-2.10E-05	9.54E-07	-7.34E-05	9.547710419	-0.752305984	2.418851852	-0.001049042	4.77E-05	-0.003671646	-0.630371094	0.439208984	0.642089844	895.8	-16.96018913	-75.51392306	-125.9448289	-68
28337	0	0.378479004	-0.030517578	0.097106934	0.999999046	-0.000331879	0.000195503	-4.58E-05	9.461975098	-0.762939453	2.42767334	-0.016593934	0.009775162	-0.002288818	-0.630371094	0.44140625	0.641845703	895.76	-16.91940316	-75.49388174	-126.0251586	-68
28338	0	0.380579948	-0.033110619	0.096134186	0.999999046	0.000141144	0.000141144	-6.87E-05	9.514498711	-0.827765465	2.403354645	0.00705719	0.00705719	-0.003433228	-0.630371094	0.44140625	0.641845703	895.8	-16.82243243	-75.48038785	-126.1079589	-68
28339	0	0.380615234	-0.031799316	0.094787598	0.999999046	0.001094818	2.77E-05	-0.000148773	9.515380859	-0.79498291	2.369689941	0.054740917	0.001382828	-0.007438661	-0.6328125	0.439208984	0.642089844	895.8	-16.59724713	-75.4818637	-126.2192689	-67
28340	0	0.379457474	-0.026473999	0.09523201	0.999998093	0.001428604	4.29E-05	1.05E-05	9.486436844	-0.661849976	2.380800247	0.071430231	0.002145768	0.000524521	-0.635253906	0.443847656	0.641845703	895.76	-16.39883115	-75.4763619	-126.260588	-67
28341	0	0.381530762	-0.024597168	0.091918945	0.999999046	0.000396729	-8.30E-05	2.67E-05	9.538269043	-0.614929199	2.297973633	0.019836426	-0.004148483	0.001335144	-0.6328125	0.443603516	0.638916016	895.76	-16.34058062	-75.48434819	-126.2755586	-67
28342	0	0.38233757	-0.027229309	0.093218803	0.999999046	-0.000600815	5.53E-05	-0.000579834	9.558439255	-0.680732727	2.330470085	-0.030040744	0.002765656	-0.028991703	-0.637451172	0.443847656	0.639160156	895.76	-16.12134901	-75.49663791	-126.57315	-67
28343	0	0.379638672	-0.028808594	0.094787598	0.999999046	-0.000457764	-0.000174522	-0.000293732	9.490966797	-0.720214844	2.369689941	-0.022888185	-0.00872612	-0.014686585	-0.635253906	0.441650391	0.642089844	895.66	-16.03539223	-75.52491584	-126.7204177	-67
28344	0	0.379015923	-0.027331352	0.095178604	0.999999046	-2.96E-05	-0.000217438	-0.0001688	9.475398064	-0.683283806	2.379465103	-0.001478195	-0.010871887	-0.008440018	-0.635009766	0.441650391	0.639160156	895.8	-15.9583294	-75.5538728	-126.8025553	-66
28345	0	0.381835938	-0.028381348	0.096252441	0.999999046	-0.000190735	-7.53E-05	-0.000114441	9.545898438	-0.709533691	2.406311035	-0.009536743	-0.003767014	-0.005722046	-0.635009766	0.439453125	0.639404297	895.7	-15.90537015	-75.56534444	-126.8820463	-66
28346	0	0.380085945	-0.027171135	0.094413757	0.999999046	-9.54E-05	2.10E-05	8.77E-05	9.502148628	-0.679278374	2.360343933	-0.004768372	0.001049042	0.004386902	-0.637451172	0.439453125	0.639404297	895.86	-15.91609871	-75.55983065	-126.885365	-67
28347	0	0.380249023	-0.026245117	0.09387207	0.999999046	-7.25E-05	-3.34E-05	0.000152588	9.506225586	-0.65612793	2.346801758	-0.003623962	-0.00166893	0.007629395	-0.637451172	0.439453125	0.639404297	895.8	-15.95829284	-75.55829713	-126.8533688	-66
28348	0	0.379514694	-0.026313782	0.095184326	0.999999046	-0.000245094	-0.000217438	9.82E-05	9.487867355	-0.657844543	2.379608154	-0.012254715	-0.010871887	0.004911423	-0.637451172	0.439453125	0.642333984	895.7	-16.0192315	-75.57870496	-126.8254225	-66
28349	0	0.381774902	-0.026855469	0.092834473	0.999999046	-0.000495911	-0.000155449	0.000209808	9.544372559	-0.671386719	2.320861816	-0.024795534	-0.007772446	0.010490418	-0.635009766	0.437255859	0.642333984	895.82	-16.14908691	-75.58881702	-126.7572214	-66
28350	0	0.381119728	-0.028940201	0.093540192	0.999999046	-0.00034523	-0.000133514	6.39E-05	9.527993202	-0.72350502	2.338504791	-0.017261506	-0.00667572	0.003194809	-0.6328125	0.439453125	0.645019531	895.74	-16.19673542	-75.60115534	-126.7531538	-65
28351	0	0.379577637	-0.028015137	0.093994141	0.999999046	-0.000240326	-7.15E-05	-0.000106812	9.489440918	-0.700378418	2.349853516	-0.012016297	-0.003576279	-0.005340576	-0.635009766	0.437255859	0.645263672	895.76	-16.15142399	-75.61209493	-126.8366239	-65
28352	0	0.380695343	-0.028773308	0.095511436	0.999999046	-0.000250816	-2.86E-05	3.81E-06	9.517383575	-0.719332695	2.387785912	-0.012540817	-0.001430511	0.000190735	-0.6328125	0.439453125	0.645019531	895.8	-16.14943213	-75.61468416	-126.8698956	-64
28353	0	0.380432129	-0.028198242	0.095397949	0.999999046	3.81E-06	-3.72E-05	0.000110626	9.510803223	-0.704956055	2.38494873	0.000190735	-0.001859665	0.005531311	-0.635009766	0.437255859	0.639648438	895.66	-16.16510391	-75.61472903	-126.8525681	-63
28354	0	0.38269043	-0.028283119	0.093598366	0.999999046	-0.000104904	-5.72E-05	0.00012207	9.567260742	-0.70707798	2.339959145	-0.005245209	-0.002861023	0.006103516	-0.637451172	0.439453125	0.642333984	895.76	-16.20069051	-75.61664162	-126.8281344	-63
28355	0	0.382141113	-0.02923584	0.093994141	0.999999046	0.000324249	-6.68E-06	-0.000293732	9.553527832	-0.730895996	2.349853516	0.016212464	-0.000333786	-0.014686585	-0.635009766	0.437255859	0.642333984	895.72	-16.00247138	-75.62619999	-126.9974695	-63
28356	0	0.379106522	-0.027000427	0.092845917	0.999999046	0.000464439	3.05E-05	-0.000386238	9.47766304	-0.675010681	2.321147919	0.023221971	0.001525879	-0.019311906	-0.637451172	0.437255859	0.645507813	895.86	-15.74348265	-75.63442136	-127.2189416	-63
28357	0	0.381774902	-0.027404785	0.093505859	0.999999046	0.000274658	-6.01E-05	-0.000175476	9.544372559	-0.685119629	2.337646484	0.01373291	-0.003004074	-0.008773804	-0.635009766	0.435058594	0.645507813	895.76	-15.60780417	-75.64595373	-127.3385757	-64
28358	0	0.381246567	-0.027769089	0.094389915	0.999999046	0.000581741	1.14E-05	-0.000203133	9.531164169	-0.694227219	2.359747887	0.029087068	0.000572205	-0.010156632	-0.637207031	0.437255859	0.639648438	895.76	-15.41633008	-75.65032901	-127.4693387	-65
28359	0	0.37890625	-0.024353027	0.094299316	0.999999046	0.000759125	6.20E-05	0.000171661	9.47265625	-0.608825684	2.35748291	0.037956242	0.003099442	0.00858307	-0.637451172	0.439453125	0.639404297	895.76	-15.35980362	-75.63763903	-127.4385774	-65
28360	0	0.380595207	-0.024954796	0.09236908	0.999999046	0.000247002	-7.25E-05	0.000133514	9.51488018	-0.623869896	2.30922699	0.012350083	-0.003623962	0.00667572	-0.637451172	0.439453125	0.639404297	895.82	-15.36120527	-75.64106484	-127.4096089	-66
28361	0	0.381408691	-0.024353027	0.092529297	0.999999046	0.00038147	-6.77E-05	4.58E-05	9.535217285	-0.608825684	2.313232422	0.019073487	-0.003385544	0.002288818	-0.635009766	0.441650391	0.636474609	895.8	-15.30836868	-75.64673243	-127.4125594	-66
28362	0	0.38080883	-0.022668839	0.094325066	0.999999046	-0.000556946	2.67E-05	9.92E-05	9.520220757	-0.566720963	2.35812664	-0.027847292	0.001335144	0.004959107	-0.639892578	0.441650391	0.639404297	895.76	-15.37417155	-75.64037509	-127.4087604	-66
28363	0	0.380981445	-0.026794434	0.095214844	0.999999046	-0.000904083	-3.34E-05	0.000137329	9.524536133	-0.66986084	2.380371094	-0.045204169	-0.00166893	0.006866456	-0.637451172	0.439453125	0.639404297	895.8	-15.50332225	-75.63942814	-127.3805712	-66
28364	0	0.381040573	-0.029087067	0.095562935	0.999999046	-0.000123024	-0.000326157	3.34E-05	9.526014328	-0.727176666	2.389073372	-0.006151199	-0.016307831	0.00166893	-0.637207031	0.437255859	0.639648438	895.72	-15.53359903	-75.67387821	-127.3656004	-65
28365	0	0.379516602	-0.028076172	0.094848633	0.999999046	0.00120163	-0.000380516	0.000263214	9.487915039	-0.701904297	2.37121582	0.060081499	-0.019025808	0.013160709	-0.635009766	0.437255859	0.645263672	895.72	-15.51836521	-75.70718505	-127.2522565	-65
28366	0	0.380002022	-0.024876595	0.093885422	0.999997139	0.00204277	-0.000707626	0.000232697	9.500050545	-0.621914864	2.347135544	0.1021386	-0.035381345	0.011634836	-0.637207031	0.437255859	0.639648438	895.8	-15.43279554	-75.77756839	-127.1119271	-65
28367	0	0.382995605	-0.022399902	0.092163086	0.999998093	0.001629829	-0.000694275	-1.14E-05	9.574890137	-0.559997559	2.304077148	0.081491513	-0.034713763	-0.000572205	-0.6328125	0.44140625	0.639160156	895.76	-15.28566362	-75.85408328	-127.0779181	-64
28368	0	0.383424759	-0.020573616	0.089439392	0.999999046	-0.000264168	-0.000188828	-0.000419617	9.585618973	-0.514340401	2.235984802	-0.01320839	-0.009441376	-0.020980836	-0.6328125	0.44140625	0.636230469	895.82	-15.11432923	-75.8872469	-127.2857289	-64
28369	0	0.383911133	-0.024841309	0.088684082	0.999999046	-0.00056076	-0.000117302	-0.00038147	9.59777832	-0.621032715	2.217102051	-0.028038027	-0.005865098	-0.019073488	-0.6328125	0.44140625	0.639160156	895.82	-14.98461912	-75.91144657	-127.4863872	-64
28370	0	0.381142616	-0.0241642	0.090274811	0.999999046	-0.000562668	0	-0.00043869	9.528565407	-0.604104996	2.25687027	-0.028133395	0	-0.021934511	-0.6328125	0.44140625	0.639160156	895.76	-14.81546524	-75.92432033	-127.7244326	-64
28371	0	0.381530762	-0.023803711	0.093444824	0.999999046	-0.00094223	-4.10E-05	-0.000396729	9.538269043	-0.595092773	2.336120605	-0.047111519	-0.0020504	-0.019836429	-0.632568359	0.437255859	0.645263672	895.72	-14.71249978	-75.9403241	-127.9507581	-64
28372	0	0.382169724	-0.026424408	0.093605995	0.999999046	-0.000620842	-0.000144958	-0.000351906	9.554243088	-0.660610199	2.340149879	-0.031042102	-0.007247925	-0.017595293	-0.637207031	0.437255859	0.642578125	895.76	-14.60444558	-75.96637438	-128.1388594	-64
28373	0	0.38104248	-0.025390625	0.092468262	0.999999046	-0.00018692	8.11E-05	-0.000228882	9.526062012	-0.634765625	2.311706543	-0.009346008	0.004053116	-0.011444092	-0.635009766	0.435058594	0.645507813	895.76	-14.47504906	-75.96368346	-128.3035266	-64
28374	0	0.380184174	-0.025434494	0.092640877	0.999999046	-0.000310898	0.000131607	9.82E-05	9.50460434	-0.63586235	2.316021919	-0.015544892	0.006580353	0.004911423	-0.634765625	0.435058594	0.639648438	895.82	-14.49946819	-75.94592246	-128.314772	-64
28375	0	0.381347656	-0.024841309	0.093200684	0.999999046	8.01E-05	-0.000117302	-3.81E-05	9.533691406	-0.621032715	2.33001709	0.004005432	-0.005865097	-0.001907349	-0.632568359	0.437011719	0.642333984	895.76	-14.44715556	-75.95963373	-128.3578909	-64
28376	0	0.381797791	-0.023271561	0.093174934	0.999999046	0.000248909	-2.29E-05	8.30E-05	9.544944763	-0.581789017	2.32937336	0.01244545	-0.001144409	0.004148483	-0.632568359	0.435058594	0.645263672	895.82	-14.41815941	-75.95936873	-128.3659012	-64
28377	0	0.381469727	-0.024841309	0.095031738	0.999999046	0.00030899	3.53E-05	5.72E-05	9.536743164	-0.621032715	2.375793457	0.015449524	0.001764298	0.002861023	-0.637207031	0.435058594	0.6484375	895.8	-14.3642216	-75.95323669	-128.4001359	-64
28378	0	0.38170433	-0.0236063	0.09397316	0.999999046	0.000465393	1.72E-05	-7.25E-05	9.542608261	-0.590157509	2.349328995	0.023269654	0.000858307	-0.003623963	-0.634765625	0.432861328	0.639892578	895.86	-14.23670117	-75.95271642	-128.4836358	-64
28379	0	0.381835938	-0.024291992	0.093994141	0.999999046	0.000442505	-9.82E-05	-0.000198364	9.545898438	-0.607299805	2.349853516	0.022125245	-0.004911423	-0.009918213	-0.632568359	0.435058594	0.648193359	895.76	-14.06875519	-75.96842172	-128.6187034	-64
28380	0	0.380825996	-0.025341034	0.093269348	0.999999046	0.000823021	-4.58E-05	-0.000203133	9.52064991	-0.633525848	2.331733704	0.041151052	-0.002288819	-0.010156633	-0.634765625	0.432861328	0.639892578	895.8	-13.84926471	-75.97826026	-128.7571872	-65
28381	0	0.381774902	-0.024169922	0.094238281	0.999999046	0.001266479	-8.68E-05	-0.000362396	9.544372559	-0.604248047	2.355957031	0.063323993	-0.004339219	-0.018119817	-0.630126953	0.434814453	0.63671875	895.7	-13.51211134	-75.99673935	-128.9572548	-65
28382	0	0.379549026	-0.022621155	0.093496323	0.999998093	0.001425743	-4.48E-05	-0.00024128	9.488725662	-0.56552887	2.337408066	0.07128718	-0.002241135	-0.012063984	-0.632568359	0.437011719	0.636474609	895.82	-13.20571887	-76.00699273	-129.1076585	-65
28383	0	0.380371094	-0.019287109	0.093078613	0.999999046	0.00088501	-6.39E-05	-0.000171661	9.509277344	-0.482177734	2.326965332	0.044250494	-0.003194809	-0.00858307	-0.632568359	0.439208984	0.639160156	895.76	-12.99354098	-76.01740089	-129.2269438	-66
28384	0	0.382770538	-0.020882607	0.093370438	0.999999046	0.000264168	-0.000112534	-9.16E-05	9.569263458	-0.522065163	2.334260941	0.013208389	-0.005626679	-0.004577637	-0.635009766	0.439453125	0.642333984	895.72	-12.89303383	-76.03109988	-129.3099809	-66
28385	0	0.382629395	-0.024108887	0.094299316	0.999999046	0.000183105	9.54E-07	-0.000408173	9.565734863	-0.602722168	2.35748291	0.009155274	4.77E-05	-0.020408631	-0.634765625	0.437255859	0.633789063	895.82	-12.64817088	-76.0399922	-129.5421231	-66
28386	0	0.379595757	-0.022421837	0.094795227	0.999999046	0.000679016	-4.96E-05	-0.000408173	9.489893913	-0.560545921	2.369880676	0.033950809	-0.002479553	-0.020408633	-0.635009766	0.437255859	0.639648438	895.76	-12.35131642	-76.05413393	-129.7789953	-66
28387	0	0.380371094	-0.020690918	0.095214844	0.999999046	0.000911713	-8.30E-05	0	9.509277344	-0.517272949	2.380371094	0.045585639	-0.004148484	0	-0.632568359	0.437011719	0.636474609	895.82	-12.2146441	-76.06172483	-129.8208708	-67
28388	0	0.382705688	-0.022654533	0.094703674	0.999999046	0.000899315	-0.000110626	7.63E-06	9.567642212	-0.566363335	2.367591858	0.04496575	-0.005531312	0.00038147	-0.634765625	0.437255859	0.633789063	895.76	-12.08578065	-76.07211339	-129.8555864	-67
28389	0	0.383178711	-0.019714355	0.092956543	0.999999046	0.000896454	-0.000201225	0.000637054	9.579467773	-0.492858887	2.323913574	0.044822702	-0.010061266	0.031852729	-0.635009766	0.441650391	0.636474609	895.76	-12.25027951	-76.07747272	-129.5885309	-66
28390	0	0.378186226	-0.018814087	0.090211868	0.999999046	0.000469208	-2.10E-05	0.000319481	9.454655647	-0.470352173	2.255296707	0.023460389	-0.001049042	0.015974046	-0.635009766	0.44140625	0.633544922	895.7	-12.3023794	-76.07036632	-129.4860915	-66
28391	0	0.380737305	-0.018066406	0.091491699	0.999999046	0.000305176	-6.77E-05	0.000255585	9.518432617	-0.451660156	2.28729248	0.015258789	-0.003385544	0.012779236	-0.635009766	0.441650391	0.636474609	895.86	-12.34851127	-76.07011058	-129.4144141	-66
28392	0	0.38031292	-0.018144608	0.090961456	0.999999046	-0.00039196	-6.87E-05	0.000347137	9.50782299	-0.453615189	2.274036407	-0.019598008	-0.003433228	0.017356873	-0.6328125	0.44140625	0.636230469	895.8	-12.51547227	-76.06776574	-129.2985567	-66
28393	0	0.38104248	-0.021118164	0.091430664	0.999999046	-0.000915527	-3.72E-05	0.00050354	9.526062012	-0.527954102	2.285766602	-0.045776376	-0.001859665	0.025177007	-0.630371094	0.443603516	0.633056641	895.86	-12.80970763	-76.05790962	-129.100872	-66
28394	0	0.381820679	-0.021918297	0.093497276	0.999999046	-0.000997543	-0.000137329	0.000338554	9.545516968	-0.54795742	2.337431908	-0.049877176	-0.006866456	0.016927722	-0.635009766	0.441650391	0.639160156	895.82	-13.04930785	-76.06320264	-128.9810086	-66
28395	0	0.382385254	-0.022827148	0.09362793	0.999999046	-0.000743866	-0.000216484	0.000347137	9.559631348	-0.570678711	2.340698242	-0.037193303	-0.010824205	0.017356875	-0.630371094	0.439208984	0.639160156	895.82	-13.27236841	-76.0769257	-128.8482967	-65
28396	0	0.381310463	-0.023842812	0.093853951	0.999999046	-0.000123024	-0.000284195	0.000403404	9.532761574	-0.59607029	2.346348763	-0.0061512	-0.014209748	0.020170213	-0.6328125	0.44140625	0.641845703	895.82	-13.45748838	-76.09649198	-128.6821598	-65
28397	0	0.382141113	-0.021911621	0.092468262	0.999999046	-0.000320435	-5.25E-05	0.000434875	9.553527832	-0.547790527	2.311706543	-0.016021729	-0.002622604	0.021743775	-0.630615234	0.443603516	0.638916016	895.8	-13.65445455	-76.08926033	-128.5171336	-65
28398	0	0.380299568	-0.022912025	0.091619492	0.999999046	-0.000667572	-2.67E-05	0.000457764	9.507489204	-0.572800636	2.290487289	-0.033378605	-0.001335144	0.022888186	-0.627929688	0.439208984	0.636230469	895.8	-13.89849433	-76.07839714	-128.3464345	-65
28399	0	0.381347656	-0.023803711	0.09161377	0.999999046	-0.000564575	-3.34E-05	0.000411987	9.533691406	-0.595092773	2.290344238	-0.028228762	-0.00166893	0.020599367	-0.627929688	0.439208984	0.641845703	895.7	-14.11081382	-76.06939552	-128.2032658	-65
28400	0	0.382188797	-0.023124695	0.091927528	0.999999046	-0.000939369	-6.10E-05	0.000365257	9.554719925	-0.578117371	2.29818821	-0.046968468	-0.003051758	0.018262866	-0.625732422	0.44140625	0.64453125	895.8	-14.34799619	-76.06466376	-128.0744023	-65
28401	0	0.382873535	-0.025695801	0.093200684	0.999999046	-0.000740051	-6.68E-06	9.54E-05	9.571838379	-0.64239502	2.33001709	-0.037002567	-0.000333786	0.004768372	-0.627929688	0.437011719	0.639160156	895.76	-14.43560484	-76.06143584	-128.0750083	-65
28402	0	0.379756927	-0.024561882	0.091937065	0.999999046	-0.000238419	7.63E-06	-6.10E-05	9.493923187	-0.61404705	2.298426628	-0.011920929	0.00038147	-0.003051758	-0.628173828	0.439208984	0.644775391	895.68	-14.39423592	-76.06105771	-128.1520126	-65
28403	0	0.38067627	-0.024780273	0.09362793	0.999999046	-0.000286102	-0.00014782	0.000175476	9.516906738	-0.619506836	2.340698242	-0.014305115	-0.007390976	0.008773804	-0.625488281	0.436767578	0.639160156	895.72	-14.48206022	-76.07108765	-128.0957327	-65
28404	0	0.382098198	-0.026555061	0.09337616	0.999999046	7.92E-05	-0.000211716	0.000220299	9.552454948	-0.663876534	2.334403992	0.003957748	-0.010585785	0.011014939	-0.630371094	0.437011719	0.645019531	895.7	-14.55601589	-76.08680687	-128.0214887	-65
28405	0	0.380615234	-0.024047852	0.092590332	0.999999046	0.000225067	-0.000166893	0.000244141	9.515380859	-0.601196289	2.314758301	0.011253357	-0.00834465	0.012207032	-0.625732422	0.439208984	0.647460938	895.8	-14.61874799	-76.09680226	-127.9395902	-65
28406	0	0.381793976	-0.023887634	0.092350006	0.999999046	-0.00044632	-3.05E-05	0.000534058	9.544849396	-0.597190857	2.308750153	-0.022315981	-0.001525879	0.026702883	-0.627929688	0.439208984	0.641845703	895.76	-14.87203544	-76.08315785	-127.732892	-65
28407	0	0.380981445	-0.027282715	0.093200684	0.999999046	-0.000244141	-0.000151634	0.000167847	9.524536133	-0.682067871	2.33001709	-0.012207031	-0.007581711	0.008392334	-0.627929688	0.437011719	0.642089844	895.82	-14.95310199	-76.09347534	-127.683553	-65
28408	0	0.380268097	-0.025868416	0.091851234	0.999999046	3.15E-05	-0.000108719	0.000540733	9.506702423	-0.646710396	2.296280861	0.001573563	-0.005435944	0.027036668	-0.625488281	0.436767578	0.641845703	895.82	-15.16432732	-76.08787932	-127.4677691	-65
28409	0	0.381958008	-0.026184082	0.09185791	0.999999046	0.000106812	-7.15E-05	0.000366211	9.548950195	-0.654602051	2.296447754	0.005340576	-0.003576279	0.018310547	-0.625732422	0.439208984	0.647460938	895.72	-15.2845113	-76.08325565	-127.3414957	-65
28410	0	0.381890297	-0.026322365	0.091380119	0.999999046	0.000143051	-0.000116348	0	9.547257423	-0.65805912	2.284502983	0.007152557	-0.005817413	0	-0.625732422	0.439208984	0.647460938	895.8	-15.24272744	-76.09462234	-127.3778066	-64
28411	0	0.381347656	-0.026123047	0.091247559	0.999999046	-1.91E-05	-7.15E-05	0.000167847	9.533691406	-0.653076172	2.281188965	-0.000953674	-0.003576279	0.008392334	-0.625732422	0.437011719	0.644775391	895.72	-15.28914204	-76.0959782	-127.3426334	-65
28412	0	0.380741119	-0.026498795	0.091496468	0.999999046	0.000128746	-0.000150681	0.00020504	9.518527985	-0.662469864	2.28741169	0.006437302	-0.007534027	0.010251999	-0.625732422	0.438964844	0.641845703	895.76	-15.3451064	-76.10493291	-127.2725748	-65
28413	0	0.37890625	-0.024902344	0.092895508	0.999999046	-0.000297546	8.58E-06	-6.48E-05	9.47265625	-0.622558594	2.322387695	-0.01487732	0.000429153	-0.003242493	-0.625732422	0.439208984	0.650390625	895.76	-15.30963454	-76.10436594	-127.3574814	-65
28414	0	0.382204056	-0.02905941	0.093615532	0.999999046	1.53E-05	-0.000221252	-0.00042057	9.555101395	-0.726485252	2.340388298	0.000762939	-0.011062622	-0.021028519	-0.625732422	0.439208984	0.64453125	895.72	-15.10756562	-76.13974118	-127.5666927	-65
28415	0	0.379455566	-0.028381348	0.094604492	0.999992371	0.003540993	-0.000904083	-0.000720978	9.48638916	-0.709533691	2.365112305	0.177050046	-0.045204267	-0.036048973	-0.625732422	0.439208984	0.647460938	895.8	-14.4453937	-76.25895251	-127.8478819	-65
28416	0	0.376420021	-0.018989563	0.094550133	0.999984741	0.004878998	-0.00174427	-0.001456261	9.410500526	-0.474739075	2.363753319	0.243951068	-0.087213937	-0.072813386	-0.625976563	0.443359375	0.641357422	895.7	-13.3757658	-76.49072546	-128.3849475	-64
28417	0	0.370605469	-0.008117676	0.096008301	0.999990463	0.003163338	-0.002246857	-0.001811981	9.265136719	-0.202941895	2.40020752	0.158167369	-0.112343178	-0.090599337	-0.625976563	0.447753906	0.641113281	895.7	-12.35791204	-76.78514863	-129.0649215	-64
28418	0	0.383254051	-0.011518478	0.10095787	0.999994278	-0.001654625	-0.001513481	-0.002475739	9.58135128	-0.28796196	2.523946762	-0.082731401	-0.075674198	-0.123787156	-0.625976563	0.447753906	0.643798828	895.86	-11.46095182	-77.00989454	-130.1754688	-64
28419	0	0.395202637	-0.017028809	0.108581543	0.999977112	-0.006392479	-0.001152039	-0.001838684	9.880065918	-0.425720215	2.714538574	-0.319626375	-0.057602366	-0.091934902	-0.625976563	0.44140625	0.647216797	895.8	-11.35683678	-77.1765148	-131.0151859	-64
28420	0	0.382261276	-0.014211655	0.108556747	0.999972343	-0.007294655	-0.000577927	-0.001266479	9.556531906	-0.355291367	2.713918686	-0.364736095	-0.028896597	-0.063324557	-0.630126953	0.430664063	0.651367188	895.88	-11.57239912	-77.26478951	-131.6297189	-63
28421	0	0.362182617	-0.003540039	0.107849121	0.999941826	-0.010677338	-0.000647545	-0.001365662	9.05456543	-0.088500977	2.696228027	-0.53387723	-0.032377871	-0.068284405	-0.632080078	0.417480469	0.663818359	895.76	-12.1276352	-77.36303331	-132.2928866	-63
28422	0	0.357789993	-0.01703167	0.108317375	0.999909401	-0.013254166	-0.001342773	-0.001879692	8.944749832	-0.42579174	2.70793438	-0.662728277	-0.067140697	-0.093987439	-0.634033203	0.40234375	0.66796875	895.76	-12.79310227	-77.55204117	-133.1254213	-63
28423	0	0.367370605	-0.028808594	0.11126709	0.999887466	-0.014544487	-0.00283432	-0.002094269	9.184265137	-0.720214844	2.781677246	-0.727251498	-0.141721294	-0.104717349	-0.635742188	0.3828125	0.686767578	895.76	-13.6702192	-77.9140567	-133.8938005	-63
28424	0	0.371663094	-0.046681404	0.108010292	0.999911308	-0.012511253	-0.004123688	-0.001597404	9.291577339	-1.167035103	2.700257301	-0.625581028	-0.206190439	-0.079872568	-0.635009766	0.358886719	0.703125	895.8	-14.75718889	-78.40657754	-134.2227825	-62
28425	0	0.359436035	-0.04510498	0.108215332	0.999931335	-0.01047039	-0.004089355	-0.003307343	8.985900879	-1.127624512	2.705383301	-0.523531496	-0.204472452	-0.165370911	-0.636962891	0.34375	0.71875	895.76	-14.66955209	-78.94386083	-135.5088987	-62
28426	0	0.350165367	-0.058925629	0.115415573	0.999937057	-0.010180473	-0.004517555	-0.001006126	8.754134178	-1.473140717	2.885389328	-0.509034277	-0.22588247	-0.050307369	-0.636474609	0.328613281	0.725585938	895.76	-15.92315654	-79.45888966	-135.3879142	-62
28427	0	0.303955078	-0.076782227	0.138305664	0.999984741	6.96E-05	-0.005382538	-6.48E-05	7.598876953	-1.919555664	3.457641602	0.003480928	-0.269128192	-0.003242508	-0.631591797	0.317626953	0.740478516	895.8	-16.79663608	-80.03376133	-134.4950673	-61
28428	0	0.357466698	-0.090390205	0.131608963	0.999910355	0.010515213	-0.007790565	-0.002524376	8.936667442	-2.259755135	3.290224075	0.525776217	-0.389539808	-0.126222533	-0.629882813	0.326171875	0.748291016	895.76	-15.38007714	-80.94858225	-134.7304953	-60
28429	0	0.446777344	-0.118591309	0.153076172	0.999529839	0.026767731	-0.009493828	-0.011493683	11.16943359	-2.964782715	3.826904297	1.338596026	-0.474765692	-0.574774095	-0.625976563	0.347900391	0.743408203	895.72	-4.834213963	-82.22511979	-142.3228122	-60
28430	0	0.46213913	-0.105695724	0.153933525	0.999253273	0.033065796	-0.008768082	-0.017949104	11.55347824	-2.642393112	3.848338127	1.653701299	-0.438513202	-0.897678592	-0.629394531	0.378662109	0.732421875	895.72	15.45118818	-83.01152076	-158.9849233	-60
28431	0	0.383422852	-0.091125488	0.171569824	0.999382973	0.032581329	-0.003203392	-0.012657166	9.585571289	-2.278137207	4.289245605	1.629401157	-0.160202508	-0.632988296	-0.641845703	0.407226563	0.708007813	895.8	30.82538847	-82.7454224	-170.7529682	-61
28432	0	0.31642437	-0.063822746	0.179843903	0.999480247	0.031991005	0.003856659	0.000669479	7.910609245	-1.595568657	4.496097565	1.599827298	0.192866346	0.033479766	-0.654785156	0.451171875	0.673828125	895.76	31.95229874	-82.3736739	-168.2383515	-59
28433	0	0.331726074	-0.034973145	0.153259277	0.999653816	0.022636414	0.010613441	0.008136749	8.293151855	-0.874328613	3.831481934	1.131951116	0.530733231	0.40688435	-0.66796875	0.50390625	0.627441406	895.82	24.29558606	-81.69619649	-157.8882995	-60
28434	0	0.36145401	-0.021968842	0.125450134	0.999804497	0.004522324	0.017698288	0.007444382	9.03635025	-0.549221039	3.136253357	0.226130847	0.884971795	0.372243228	-0.682861328	0.547607422	0.573242188	895.72	15.3437567	-80.02225885	-148.1724116	-60
28435	0	0.397766113	-0.025024414	0.087219238	0.999528885	-0.020079613	0.022777557	0.004325867	9.944152832	-0.625610352	2.180480957	-1.004138114	1.139056505	0.216327261	-0.701660156	0.565429688	0.530029297	895.86	7.822213318	-77.50991505	-142.6180499	-61
28436	0	0.477121353	-0.040140152	0.076620102	0.998705864	-0.044238091	0.024805069	0.003624916	11.92803383	-1.003503799	1.915502548	-2.212858761	1.240788505	0.181323995	-0.728515625	0.548828125	0.507080078	895.7	0.177458423	-74.65224271	-139.7811998	-63
28437	0	0.51776123	0.005737305	0.033874512	0.996775627	-0.075199127	0.026646614	0.008529663	12.94403076	0.143432617	0.846862793	-3.764002341	1.333764387	0.426942081	-0.75	0.5078125	0.491699219	895.82	-10.79140037	-71.47712752	-137.2376601	-65
28438	0	0.500790596	-0.01551342	0.024195671	0.993242264	-0.112278938	0.024403572	0.016305923	12.5197649	-0.387835503	0.604891777	-5.626625323	1.222934227	0.817137419	-0.766113281	0.440673828	0.506591797	895.64	-26.15894995	-68.19739189	-134.5723301	-65
28439	0	0.425476074	-0.059082031	0.077514648	0.992990494	-0.113856316	0.022331238	0.022506714	10.63690186	-1.477050781	1.937866211	-5.706153135	1.119177815	1.127972174	-0.774658203	0.349365234	0.545898438	895.72	-40.96892344	-64.61043158	-132.6900466	-69
28440	0	0.387227058	-0.048960686	0.086326599	0.996297836	-0.08147049	0.01680851	0.021679878	9.68067646	-1.224017143	2.158164978	-4.078558447	0.841464071	1.085333488	-0.778808594	0.27734375	0.552001953	895.82	-51.02601079	-61.46367196	-131.9132834	-66
28441	0	0.343933105	-0.036254883	0.127746582	0.998981476	-0.04329586	0.011314392	0.005752563	8.598327637	-0.90637207	3.193664551	-2.165528144	0.565911714	0.287725848	-0.781494141	0.235839844	0.544189453	895.72	-54.87613147	-60.14048188	-133.2034819	-65
28442	0	0.33022213	-0.064264297	0.169075966	0.999763489	-0.012883186	0.006369591	-0.016292572	8.255553246	-1.606607437	4.226899147	-0.644210001	0.318504597	-0.814692698	-0.788818359	0.200927734	0.519042969	895.82	-53.36918693	-61.21339577	-136.6365437	-69
28443	0	0.421447754	-0.044799805	0.154602051	0.999515533	0.005303383	0.001731873	-0.030609131	10.53619385	-1.119995117	3.86505127	0.265211945	0.086607605	-1.530703576	-0.801025391	0.161865234	0.497070313	895.72	-48.21034135	-63.80145774	-141.7732036	-66
28444	0	0.432794571	-0.010462761	0.114975929	0.999247551	0.008500099	-0.000967026	-0.037810326	10.81986427	-0.261569023	2.874398232	0.425111481	-0.048363406	-1.890990115	-0.805664063	0.115966797	0.481201172	895.8	-40.6503106	-66.91939013	-149.0195684	-66
28445	0	0.340576172	-0.042541504	0.120422363	0.999238968	0.00464344	-0.001411438	-0.038684845	8.514404297	-1.063537598	3.010559082	0.232230872	-0.070589791	-1.934732615	-0.810302734	0.061279297	0.46875	895.7	-31.32329706	-69.66460258	-158.4844313	-68
28446	0	0.266774178	-0.043017387	0.062493324	0.999383926	0.001591682	-0.000498772	-0.035031319	6.669354439	-1.075434685	1.562333107	0.079600445	-0.024943699	-1.751925196	-0.812255859	0.004394531	0.459472656	895.7	-20.96196387	-71.49317837	-169.2773762	-65
28447	0	0.264709473	-0.039306641	0.05682373	0.999447823	-0.007045746	0.002594948	-0.032360077	6.617736816	-0.982666016	1.420593262	-0.352352119	0.129771266	-1.618301585	-0.809570313	-0.056884766	0.452880859	895.76	-10.60089533	-72.22012769	178.9685802	-66
28448	0	0.296084404	-0.022536278	0.076221466	0.999343872	-0.013219833	0.004324913	-0.033418655	7.4021101	-0.563406944	1.905536652	-0.661136101	0.216292903	-1.671297882	-0.804199219	-0.118652344	0.429199219	895.8	-0.093778717	-72.08372572	166.3378506	-73
28449	0	0.364440918	-0.096191406	0.117431641	0.999317169	-0.014979362	0.002937317	-0.033630371	9.111022949	-2.404785156	2.935791016	-0.749138496	0.146899253	-1.681901058	-0.798583984	-0.188964844	0.406005859	895.8	9.770392218	-71.42045966	154.1410846	-65
28450	0	0.385290146	-0.120451927	0.135391235	0.99939537	-0.004038811	0.001620293	-0.034478188	9.632253647	-3.01129818	3.384780884	-0.201981205	0.081030949	-1.724256556	-0.779052734	-0.255371094	0.387695313	895.82	20.14045957	-70.2180461	142.6665203	-77
28451	0	0.401489258	-0.116210938	0.142944336	0.999411583	-0.000991821	8.11E-05	-0.034267426	10.03723145	-2.905273438	3.573608398	-0.049600783	0.00405391	-1.71370706	-0.757324219	-0.315185547	0.368652344	895.7	29.46863696	-68.56257797	132.5705675	-65
28452	0	0.503752708	-0.140509605	0.154491425	0.999447823	-0.003121376	-0.003614426	-0.032879829	12.59381771	-3.512740135	3.862285614	-0.15609753	-0.180754549	-1.644294085	-0.729003906	-0.37109375	0.3515625	895.7	37.29134743	-66.84593446	123.7151952	-63
28453	0	0.509094238	-0.148742676	0.159118652	0.999689102	-0.00392437	-0.004016876	-0.024261475	12.72735596	-3.718566895	3.977966309	-0.196238777	-0.200864576	-1.213199148	-0.696044922	-0.424804688	0.337158203	895.76	42.26878012	-65.44559898	117.7560776	-64
28454	0	0.486019135	-0.131580353	0.160961151	0.999886513	-0.010761261	-0.005336761	-0.009066582	12.15047836	-3.28950882	4.024028778	-0.538083362	-0.266848147	-0.4533462	-0.663330078	-0.469726563	0.310546875	895.7	43.51087364	-65.22356828	114.9905288	-65
28455	0	0.346374512	-0.128173828	0.175048828	0.999803543	-0.015891075	-0.003185272	0.01140213	8.659362793	-3.204345703	4.376220703	-0.794605767	-0.159274036	0.570143825	-0.642822266	-0.494873047	0.271484375	895.76	39.94598045	-66.40758112	116.8397677	-64
28456	0	0.407795906	-0.124314308	0.13318634	0.999469757	0.001745224	-0.003464699	0.03231144	10.19489765	-3.107857704	3.329658508	0.08727661	-0.173265532	1.615857281	-0.648681641	-0.503662109	0.229736328	895.8	33.32127302	-68.9846756	124.1164718	-66
28457	0	0.52734375	-0.108276367	0.108764648	0.998263359	0.031635284	-0.00183773	0.0496521	13.18359375	-2.70690918	2.719116211	1.582680307	-0.091939737	2.484042793	-0.668212891	-0.479003906	0.220214844	895.76	22.82734847	-71.91120763	138.9615234	-66
28458	0	0.531068802	-0.051552773	0.103840828	0.99666214	0.051362038	0.00272274	0.063384056	13.27672005	-1.288819313	2.596020699	2.57096235	0.136288644	3.172732804	-0.719970703	-0.424560547	0.238525391	895.76	5.421795115	-73.42978794	163.1959151	-67
28459	0	0.387268066	0.018981934	0.098693848	0.996366501	0.040764809	0.008892059	0.074245453	9.68170166	0.47454834	2.467346191	2.04071248	0.445142196	3.716775014	-0.785400391	-0.336914063	0.277587891	895.76	-16.93135607	-71.4803713	-168.6322515	-64
28460	0	0.306635857	0.032643318	0.071871758	0.99650383	0.013462067	0.011841774	0.081598282	7.665896416	0.816082954	1.796793938	0.673888816	0.592779642	4.084675182	-0.856201172	-0.214111328	0.294189453	895.68	-35.69736825	-65.96728925	-146.9871515	-67
28461	0	0.342468262	0.005249023	0.055419922	0.996414185	-0.00631237	0.010704041	0.083683014	8.561706543	0.131225586	1.385498047	-0.315996227	0.535842522	4.189158022	-0.913574219	-0.072265625	0.288574219	895.7	-48.52234298	-58.51066693	-133.4248671	-65
28462	0	0.386209488	-0.027332306	0.04718399	0.996955872	-0.006487846	0.00997448	0.07704258	9.655237198	-0.683307648	1.179599762	-0.324721784	0.499230506	3.856041347	-0.943603516	0.08203125	0.291748047	895.78	-55.70323473	-50.76259387	-125.5988364	-69
28463	0	0.418579102	-0.053100586	0.048522949	0.998165131	0.002305031	0.009326935	0.059780121	10.46447754	-1.327514648	1.21307373	0.115322076	0.466632147	2.990835328	-0.940673828	0.232910156	0.296386719	895.68	-58.55862757	-44.37687621	-121.3987409	-67
28464	0	0.431738853	-0.065032005	0.080937386	0.999264717	0.006848335	0.009441376	0.036518097	10.79347134	-1.625800133	2.023434639	0.342500689	0.472184489	1.82635237	-0.927001953	0.356933594	0.285400391	895.76	-58.92869594	-40.20511002	-119.6914372	-69
28465	0	0.426513672	-0.058654785	0.112243652	0.999844551	0.009799957	0.007790565	0.01240921	10.6628418	-1.466369629	2.806091309	0.490023243	0.38954845	0.620492646	-0.916015625	0.433105469	0.275878906	895.82	-57.80848011	-38.50812035	-119.6937201	-69
28466	0	0.348290443	-0.036612511	0.147590637	0.999913216	0.008676529	0.005718231	-0.008061409	8.707261086	-0.915312767	3.68976593	0.433838954	0.285919803	-0.40308207	-0.914794922	0.465820313	0.26171875	895.7	-55.9771704	-38.91703849	-121.0368632	-68
28467	0	0.388244629	-0.020141602	0.151123047	0.999487877	0.002292633	-0.000872612	-0.031898499	9.706115723	-0.503540039	3.778076172	0.114651217	-0.043638046	-1.595197128	-0.937744141	0.453369141	0.255371094	895.76	-53.99476346	-41.9747738	-123.6877206	-66
28468	0	0.402064323	-0.025250435	0.149499893	0.998485565	-0.015024185	-0.008925438	-0.052158356	10.05160809	-0.631260872	3.73749733	-0.751588621	-0.446497265	-2.609234789	-0.974853516	0.386962891	0.268554688	895.8	-53.00104222	-47.40954337	-127.5443811	-68
28469	0	0.41595459	-0.040222168	0.194763184	0.997648239	-0.023802757	-0.014152527	-0.06268692	10.39886475	-1.005554199	4.86907959	-1.191071421	-0.708181413	-3.136804625	-1.010253906	0.268066406	0.302978516	895.76	-51.91523713	-54.12815949	-132.4579925	-65
28470	0	0.567519188	-0.066102028	0.17220974	0.99751091	-0.013157845	-0.014710426	-0.067690849	14.1879797	-1.652550697	4.305243492	-0.658438577	-0.736132134	-3.387353177	-1.030517578	0.122558594	0.347412109	895.8	-47.47158452	-61.1842549	-139.4813502	-69
28471	0	0.515563965	-0.06439209	0.125915527	0.997397423	-0.012371063	-0.008765221	-0.070484161	12.88909912	-1.609802246	3.147888184	-0.619090281	-0.438641595	-3.527268306	-1.031738281	-0.030273438	0.377197266	895.64	-37.83178577	-67.46841801	-151.7168338	-66
28472	0	0.353248596	-0.047513008	0.13418293	0.997398376	-0.028755188	-0.003312111	-0.066013336	8.831214905	-1.187825203	3.35457325	-1.439007321	-0.165749284	-3.303531665	-1.013671875	-0.186279297	0.388916016	895.7	-23.97215853	-71.75866686	-169.9840236	-65
28473	0	0.264099121	-0.067871094	0.096313477	0.997694969	-0.037273407	0.00225544	-0.056659698	6.602478027	-1.696777344	2.407836914	-1.8651036	0.112858715	-2.835163623	-0.980957031	-0.344726563	0.380371094	895.72	-7.881634496	-73.32672175	168.6948824	-68
28474	0	0.26382637	-0.069791794	0.065358162	0.99808979	-0.037927628	0.008684158	-0.047981262	6.595659256	-1.744794846	1.633954048	-1.897589591	0.434484557	-2.400591589	-0.946533203	-0.477539063	0.340820313	895.72	5.893519261	-72.40774462	149.7474633	-68
28475	0	0.356689453	-0.083496094	0.048706055	0.997950554	-0.046878815	0.012078285	-0.04183197	8.917236328	-2.087402344	1.217651367	-2.345542811	0.604327034	-2.093028112	-0.910400391	-0.590820313	0.285400391	895.7	13.90924859	-70.18969192	135.6219817	-62
28476	0	0.488710403	-0.12406826	0.036447525	0.997470856	-0.05632782	0.011309624	-0.041838646	12.21776009	-3.101706505	0.911188126	-2.818767424	0.565958331	-2.093697441	-0.8671875	-0.691162109	0.202880859	895.7	18.52345304	-67.5815534	123.7589292	-81
28477	0	0.520141602	-0.214477539	0.084594727	0.997333527	-0.058745384	0.008815765	-0.042388916	13.00354004	-5.361938477	2.114868164	-2.939882578	0.44118045	-2.121331529	-0.814697266	-0.783447266	0.099121094	895.8	21.42877065	-64.95789564	113.2272252	-67
28478	0	0.50209713	-0.26890564	0.125588417	0.998577118	-0.030339241	0.0041399	-0.043658257	12.55242825	-6.722640991	3.139710426	-1.517681925	0.20709324	-2.183948727	-0.753662109	-0.858398438	-0.000732422	895.76	26.81091513	-62.4774094	103.3401842	-69
28479	0	0.459777832	-0.287780762	0.109375	0.999570847	0.003914833	-0.001075745	-0.028987885	11.4944458	-7.194519043	2.734375	0.195769615	-0.053794915	-1.449601275	-0.687255859	-0.922119141	-0.027587891	895.76	32.70076628	-60.95301543	97.14033655	-72
28480	0	0.431453705	-0.166502953	0.102109909	0.999835968	0.016918182	-0.006157875	0.00174427	10.78634262	-4.162573814	2.552747726	0.845955254	-0.307910545	0.087218273	-0.658691406	-0.948974609	0.001464844	895.72	35.00172177	-61.68069699	96.69222761	-75
28481	0	0.379211426	-0.158874512	0.088745117	0.999322891	0.026146889	-0.007453918	0.024776459	9.480285645	-3.971862793	2.21862793	1.307639443	-0.372780023	1.239102481	-0.685302734	-0.941162109	0.045166016	895.72	34.31175916	-64.03734302	100.7865174	-76
28482	0	0.459382057	-0.156597137	0.042618752	0.997700691	0.048620224	-0.008932114	0.046349525	11.48455143	-3.914928436	1.065468788	2.432875584	-0.446948192	2.319253585	-0.749755859	-0.888183594	0.118408203	895.7	30.98029807	-67.82239705	110.4711157	-66
28483	0	0.575195313	-0.084777832	0.035217285	0.995708466	0.066033363	-0.007801056	0.064361572	14.37988281	-2.119445801	0.880432129	3.306398822	-0.390611666	3.2226895	-0.845214844	-0.783447266	0.234863281	895.8	21.27164328	-71.96663187	128.7875724	-67
28484	0	0.512944221	-0.030490875	0.060544014	0.994449615	0.070581436	-0.002737999	0.077973366	12.82360554	-0.762271881	1.513600349	3.53561505	-0.137153774	3.905896799	-0.945556641	-0.617431641	0.352294922	895.76	0.214018757	-74.02688452	159.1664125	-69
28485	0	0.406677246	-0.016967773	0.06439209	0.99375248	0.066230774	0.001919746	0.089809418	10.16693115	-0.424194336	1.609802246	3.318452235	0.096187714	4.499845696	-1.033935547	-0.386474609	0.426513672	895.7	-25.16697522	-71.44583799	-166.418522	-65
28486	0	0.459344864	0.061431885	0.089119911	0.993591309	0.049170494	0.011839867	0.101079941	11.4836216	1.535797119	2.22799778	2.463789667	0.593261093	5.064820241	-1.090576172	-0.106689453	0.452148438	895.76	-41.51610241	-63.72406622	-142.7259979	-66
28487	0	0.533325195	0.140075684	0.070251465	0.994155884	0.005177498	0.031837463	0.1030159	13.33312988	3.50189209	1.756286621	0.259380313	1.594981099	5.160851255	-1.102050781	0.182128906	0.403564453	895.7	-50.06530632	-52.6063455	-132.0049053	-65
28488	0	0.507202148	0.051606178	0.022870064	0.994322777	-0.040877342	0.033679962	0.092284203	12.68005371	1.290154457	0.571751595	-2.047743559	1.687192019	4.62296155	-1.058837891	0.412109375	0.328125	895.8	-58.12551844	-41.72241853	-127.4446482	-70
28489	0	0.48449707	-0.018554688	0.094360352	0.99600029	-0.039004326	0.027362823	0.075584412	12.11242676	-0.463867188	2.359008789	-1.952820443	1.369968071	3.784267025	-0.983642578	0.584228516	0.295654297	895.76	-63.73780809	-32.60511924	-125.5874665	-68
28490	0	0.406110764	-0.040603638	0.140221596	0.998117447	-0.01608181	0.024518013	0.053852081	10.15276909	-1.015090942	3.505539894	-0.804595225	1.226670144	2.694294203	-0.897216797	0.705810547	0.281005859	895.76	-65.64372986	-25.8242665	-125.4697099	-77
28491	0	0.274841309	-0.038024902	0.148925781	0.999473572	0.003617287	0.018520355	0.026386261	6.871032715	-0.950622559	3.723144531	0.18089607	0.92618025	1.31954455	-0.832519531	0.788818359	0.250488281	895.76	-64.93161883	-22.20319562	-126.197996	-80
28492	0	0.250155449	-0.046737671	0.156925201	0.999788284	0.014282227	0.008109093	-0.012324333	6.253886223	-1.168441772	3.923130035	0.714161519	0.405483133	-0.61625997	-0.804931641	0.824707031	0.197753906	895.76	-62.67851223	-23.0831911	-127.7824466	-83
28493	0	0.292114258	-0.092285156	0.15625	0.998580933	0.009999275	-0.0063591	-0.0519104	7.302856445	-2.307128906	3.90625	0.500200305	-0.318105449	-2.596748019	-0.842773438	0.792724609	0.165283203	895.64	-60.45056008	-28.69692368	-130.2267795	-68
28494	0	0.313562393	-0.070869446	0.164720535	0.996890068	-0.002906799	-0.019874573	-0.076201439	7.83905983	-1.771736145	4.118013382	-0.145490817	-0.99476005	-3.814026499	-0.9296875	0.690673828	0.166992188	895.7	-59.17700011	-37.44248873	-133.1317428	-64
28495	0	0.511474609	-0.078491211	0.161193848	0.995016098	-0.006434441	-0.028957367	-0.095191956	12.78686523	-1.962280273	4.029846191	-0.322257493	-1.450278126	-4.767519478	-1.01953125	0.5234375	0.214111328	895.86	-57.12455275	-48.53819013	-137.1747272	-63
28496	0	0.62553978	-0.117077827	0.126433372	0.993900299	-0.007577896	-0.023148537	-0.107556343	15.63849449	-2.926945686	3.160834312	-0.379667037	-1.159785803	-5.388777763	-1.091064453	0.305664063	0.281494141	895.76	-50.75346796	-60.18168889	-146.0048003	-77
28497	0	0.442565918	-0.077636719	0.119262695	0.994576454	-0.020130157	-0.009306908	-0.101608276	11.06414795	-1.940917969	2.981567383	-1.008331174	-0.466188361	-5.089617047	-1.123291016	0.051025391	0.329833984	895.7	-36.55187724	-69.1691226	-164.1755353	-68
28498	0	0.295801163	-0.074810028	0.08600235	0.995961189	-0.032926559	8.77E-05	-0.083524704	7.395029068	-1.870250702	2.150058746	-1.64854775	0.004392817	-4.181866101	-1.110839844	-0.189941406	0.340332031	895.86	-14.25335025	-73.41831782	168.3671333	-60
28499	0	0.318969727	-0.059448242	0.060241699	0.997314453	-0.030741692	0.002639771	-0.066417694	7.974243164	-1.486206055	1.50604248	-1.538461888	0.132106794	-3.323860392	-1.069335938	-0.385986328	0.317138672	895.8	8.409154497	-73.5024256	141.0875687	-59
28500	0	0.452363014	-0.114068031	0.080016136	0.997907639	-0.037664413	0.006501198	-0.052139282	11.30907536	-2.851700783	2.000403404	-1.884534928	0.325286742	-2.60878345	-1.017578125	-0.541259766	0.275634766	895.76	21.87625434	-71.16424228	122.4389902	-83
28501	0	0.515197754	-0.158447266	0.053344727	0.998200417	-0.04253006	0.009160042	-0.041267395	12.87994385	-3.961181641	1.333618164	-2.127779439	0.458277009	-2.064608303	-0.964599609	-0.659423828	0.211181641	895.66	27.55680562	-68.18797735	111.1903698	-58
28502	0	0.499061584	-0.204835892	0.068515778	0.998556137	-0.038529396	0.007851601	-0.036586761	12.47653961	-5.120897293	1.71289444	-1.927397239	0.392769027	-1.830218749	-0.917236328	-0.751220703	0.133544922	895.8	30.72188356	-65.32831696	102.9434008	-61
28503	0	0.54888916	-0.239807129	0.078063965	0.999149323	-0.02710247	0.002529144	-0.030963898	13.722229	-5.995178223	1.951599121	-1.355507698	0.126493065	-1.5486338	-0.868652344	-0.821289063	0.068115234	895.72	33.5561889	-63.17956214	96.34675619	-64
28504	0	0.498608589	-0.271012306	0.106015205	0.999599457	-0.020532608	-0.002034187	-0.019331932	12.46521473	-6.775307655	2.650380135	-1.026767241	-0.101722923	-0.966725441	-0.823730469	-0.87109375	0.018310547	895.82	34.98969173	-62.1258684	92.07416417	-59
28505	0	0.422424316	-0.28326416	0.116271973	0.999984741	0.002209663	-0.004314423	0.002471924	10.56060791	-7.081604004	2.906799316	0.110483715	-0.215722195	0.123596801	-0.801269531	-0.891845703	-0.006835938	895.76	35.30479146	-62.70808193	91.98204653	-62
28506	0	0.401767731	-0.205988884	0.035399437	0.998583794	0.04236412	-0.00815773	0.031107903	10.04419327	-5.149722099	0.884985924	2.119206021	-0.408079067	1.556129422	-0.823730469	-0.87109375	0.021240234	895.7	35.20217221	-65.55863556	97.45249631	-57
28507	0	0.532348633	-0.109741211	-0.004272461	0.99547863	0.075538635	-0.009711266	0.056755066	13.30871582	-2.743530273	-0.106811523	3.782633894	-0.486296346	2.842037525	-0.887451172	-0.793945313	0.129638672	895.76	31.936083	-70.14543593	110.2774247	-57
28508	0	0.59191227	-0.031924248	0.025342941	0.993434906	0.087198257	-0.004473686	0.073904991	14.79780674	-0.798106194	0.633573532	4.369477908	-0.224175043	3.703356416	-0.970947266	-0.643554688	0.26171875	895.72	18.31298657	-74.33032149	135.0131778	-57
28509	0	0.482727051	-0.008483887	0.070251465	0.993457794	0.075333595	0.003307343	0.085762024	12.06817627	-0.212097168	1.756286621	3.774915199	0.165728684	4.297476662	-1.049804688	-0.42578125	0.364990234	895.72	-9.486732979	-74.7277583	172.7254827	-57
28510	0	0.411832809	0.020876884	0.072155952	0.993502617	0.05821228	0.008163452	0.097447395	10.29582024	0.521922112	1.803898811	2.916933624	0.409058844	4.882948797	-1.105957031	-0.169677734	0.412597656	895.72	-34.41885723	-69.43053728	-154.1669379	-60
28511	0	0.480895996	0.05645752	0.053161621	0.99413681	0.030240059	0.011737823	0.103145599	12.0223999	1.411437988	1.329040527	1.514964755	0.588040815	5.167382385	-1.117675781	0.101806641	0.419433594	895.72	-48.22666832	-60.44356344	-135.1763955	-61
28512	0	0.534376144	0.030986786	0.031435013	0.994779587	0.008491516	0.015463829	0.100502014	13.35940361	0.774669647	0.78587532	0.425316052	0.774539509	5.033861953	-1.078613281	0.351806641	0.396728516	895.72	-55.57316328	-50.20474834	-125.1075038	-58
28513	0	0.517456055	-0.015197754	0.002319336	0.99580574	0.003029823	0.014602661	0.090263367	12.93640137	-0.379943848	0.057983398	0.151703293	0.731155435	4.519487956	-1.005615234	0.5703125	0.383544922	895.8	-59.45286047	-40.54353601	-119.197406	-60
28514	0	0.519054413	-0.027885437	0.020433426	0.997123718	0.009612083	0.009598732	0.074558258	12.97636032	-0.697135925	0.510835648	0.48106542	0.480397207	3.731490678	-0.905273438	0.74609375	0.375	895.74	-60.81310987	-32.58071069	-115.0832442	-59
28515	0	0.429992676	0.043579102	0.065917969	0.998321533	0.015812874	0.01001358	0.054794312	10.74981689	1.089477539	1.647949219	0.791086163	0.500959213	2.741248814	-0.801025391	0.886962891	0.360595703	895.76	-60.19333398	-26.5701867	-112.6762276	-62
28516	0	0.282058716	0.084399223	0.087842941	0.9997015	0.009207726	0.010248184	0.020163536	7.051467896	2.109980583	2.196073532	0.460432049	0.512460155	1.008277039	-0.720458984	0.982421875	0.331298828	895.76	-59.20917957	-24.01906095	-112.5073827	-65
28517	0	0.354919434	-0.016052246	0.08001709	0.999614716	-0.000723839	0.000576019	-0.027721405	8.87298584	-0.401306152	2.000427246	-0.036196583	0.028804659	-1.386248038	-0.711914063	1.00390625	0.326171875	895.72	-58.4802819	-26.75495605	-114.3798039	-68
28518	0	0.345192909	-0.021558762	0.134140015	0.997528076	-0.016324043	-0.010022163	-0.067597389	8.629822731	-0.53896904	3.353500366	-0.816875166	-0.50152136	-3.382656345	-0.789550781	0.947753906	0.354980469	895.66	-58.53719537	-34.03147163	-117.919419	-64
28519	0	0.428588867	-0.059936523	0.183288574	0.995384216	-0.026125908	-0.018444061	-0.09047699	10.71472168	-1.498413086	4.582214355	-1.308308658	-0.923624364	-4.530821647	-0.913574219	0.803710938	0.43359375	895.86	-58.57427441	-44.07464343	-122.5547357	-60
28520	0	0.610630989	-0.082346916	0.174898148	0.994195938	-0.011392593	-0.020253181	-0.105043411	15.26577473	-2.058672905	4.37245369	-0.570734257	-1.014622754	-5.262355223	-1.032470703	0.591796875	0.522949219	895.76	-54.19486187	-55.51192598	-129.909266	-62
28521	0	0.530334473	-0.06262207	0.127807617	0.993674278	-0.016838074	-0.013747215	-0.110168457	13.25836182	-1.565551758	3.19519043	-0.843683147	-0.688813579	-5.520065535	-1.111816406	0.336914063	0.585205078	895.72	-43.0575193	-66.21610259	-144.7467878	-66
28522	0	0.436107635	-0.055464745	0.125826836	0.993988037	-0.037129402	-0.005908012	-0.102830887	10.90269089	-1.386618614	3.145670891	-1.860199392	-0.295994021	-5.151872694	-1.145019531	0.058349609	0.621337891	895.68	-20.52030073	-73.27729194	-173.1644386	-65
28523	0	0.44720459	-0.090637207	0.082336426	0.9948349	-0.047587395	0.003322601	-0.089588165	11.18011475	-2.265930176	2.058410645	-2.383474025	0.166416632	-4.487135012	-1.125976563	-0.230957031	0.626953125	895.7	9.891709223	-73.88464673	149.5459222	-71
28524	0	0.50780201	-0.106655121	0.059754372	0.995821953	-0.046269417	0.009778976	-0.07811451	12.69505024	-2.666378021	1.493859291	-2.316698058	0.48963089	-3.911173841	-1.072265625	-0.484619141	0.58203125	895.76	29.5426622	-69.65725498	123.3255005	-80
28525	0	0.541015625	-0.163208008	0.057983398	0.996713638	-0.044978142	0.014011383	-0.065887451	13.52539063	-4.080200195	1.449584961	-2.251373373	0.701337438	-3.297985361	-1.000976563	-0.699707031	0.504638672	895.7	37.25075577	-64.06428037	109.3520384	-63
28526	0	0.521723747	-0.15559864	0.032909393	0.997162819	-0.053007126	0.012784958	-0.051886559	13.04309368	-3.889966011	0.822734833	-2.65286526	0.63985304	-2.596783855	-0.922119141	-0.864990234	0.416992188	895.82	38.29817955	-59.2052213	101.2630717	-77
28527	0	0.500061035	-0.189208984	0.039611816	0.997241974	-0.063059807	0.008354187	-0.038234711	12.50152588	-4.730224609	0.99029541	-3.155892103	0.418093777	-1.913494944	-0.849121094	-0.992919922	0.295166016	895.76	35.69476848	-55.76904958	95.77751381	-65
28528	0	0.421023369	-0.247132301	0.035739899	0.997819901	-0.062206268	0.001103401	-0.021979332	10.52558422	-6.178307533	0.893497467	-3.112574863	0.055210172	-1.099765635	-0.793945313	-1.083251953	0.168212891	895.72	31.47626879	-54.25595065	92.21636759	-69
28529	0	0.425964355	-0.28704834	0.05065918	0.999269485	-0.037276268	-0.007369995	-0.003910065	10.64910889	-7.176208496	1.266479492	-1.864266954	-0.368589429	-0.19555081	-0.764404297	-1.128662109	0.064941406	895.78	28.33256104	-54.76858201	90.81565213	-69
28530	0	0.348175049	-0.264328003	0.014746666	0.999653816	0.007602692	-0.016876221	0.018667221	8.704376221	-6.608200073	0.368666649	0.38017838	-0.843908255	0.93346859	-0.784912109	-1.134765625	0.052246094	895.72	27.71576482	-57.49978227	92.57916682	-69
28531	0	0.443847656	-0.173828125	0.00970459	0.997088432	0.055953979	-0.02729702	0.044017792	11.09619141	-4.345703125	0.242614746	2.800416847	-1.366176906	2.203027679	-0.852050781	-1.094238281	0.180908203	895.66	28.94156014	-62.68652967	98.52523755	-64
28532	0	0.599282265	-0.104621887	0.056300163	0.992846489	0.09232235	-0.02901268	0.069922447	14.98205662	-2.61554718	1.407504082	4.627155012	-1.454102594	3.50448189	-0.956054688	-0.948974609	0.419921875	895.7	26.97117238	-69.46942134	112.2207489	-63
28533	0	0.594787598	0.008117676	0.090393066	0.99029541	0.096539497	-0.019561768	0.09803772	14.86968994	0.202941895	2.25982666	4.842649464	-0.981264517	4.91780384	-1.059814453	-0.646240234	0.663085938	895.72	5.608831334	-75.04018132	146.1833314	-66
28534	0	0.52170372	0.053937912	0.067188263	0.989861488	0.071525574	-0.009635925	0.122332573	13.042593	1.3484478	1.679706573	3.58841383	-0.483431111	6.137383788	-1.131591797	-0.220703125	0.791992188	895.7	-35.2725116	-72.23044968	-162.862502	-60
28535	0	0.555175781	0.072692871	0.058837891	0.989542007	0.054181099	-0.001800537	0.133666992	13.87939453	1.817321777	1.470947266	2.718537967	-0.090341994	6.706744608	-1.103271484	0.217773438	0.785644531	895.7	-54.94699459	-61.14297263	-134.8169143	-58
28536	0	0.570494652	0.050490379	0.045125961	0.991513252	0.0373106	0.009683609	0.124158859	14.26236629	1.262259483	1.128149033	1.870825361	0.485554807	6.225564341	-0.977783203	0.600097656	0.710449219	895.7	-60.2192988	-48.4201357	-123.1577307	-59
28537	0	0.512329102	-0.019165039	0.063964844	0.99461937	0.024342537	0.019134521	0.098854065	12.80822754	-0.479125977	1.599121094	1.219314219	0.958445465	4.951586081	-0.802001953	0.860351563	0.605224609	895.72	-60.84893944	-37.4404731	-118.1324674	-61
28538	0	0.446357727	-0.016970634	0.065107346	0.997117043	0.008556366	0.024627686	0.071253777	11.15894318	-0.424265862	1.62768364	0.428229845	1.232568828	3.566116015	-0.642822266	1.009521484	0.507324219	895.72	-60.86156208	-28.9311887	-116.318368	-60
28539	0	0.376464844	0.020690918	0.055725098	0.998833656	-0.00951004	0.022492409	0.041637421	9.411621094	0.517272949	1.393127441	-0.475686863	1.125057628	2.08268035	-0.529785156	1.077392578	0.438720703	895.72	-61.96401447	-23.52818213	-116.2960156	-57
28540	0	0.27170372	0.033470154	0.094285011	0.999667168	-0.018788338	0.015407562	0.008612633	6.792593002	0.836753845	2.357125282	-0.939520968	0.770463467	0.430679349	-0.476074219	1.086425781	0.429199219	895.76	-63.64547538	-21.87740882	-117.5110621	-60
28541	0	0.265380859	-0.033996582	0.158203125	0.999440193	-0.013767242	0.007813454	-0.029464722	6.634521484	-0.849914551	3.955078125	-0.688490538	0.390745565	-1.473510921	-0.489257813	1.056396484	0.446777344	895.76	-64.23016984	-24.56198376	-120.0001983	-63
28542	0	0.388083458	-0.111754417	0.166825294	0.997541428	-0.004513741	-0.007660866	-0.069500923	9.702086449	-2.793860435	4.170632362	-0.225872102	-0.383357405	-3.47789588	-0.575439453	0.985107422	0.457275391	895.68	-63.24660323	-32.15750844	-123.1090477	-60
28543	0	0.417785645	-0.10369873	0.225646973	0.995326996	0.004868507	-0.018821716	-0.094581604	10.44464111	-2.592468262	5.641174316	0.243805234	-0.942554376	-4.736459911	-0.713378906	0.8671875	0.474365234	895.86	-60.15085929	-42.81111641	-127.2041087	-60
28544	0	0.549407005	-0.051073074	0.187098503	0.994479179	-0.000416756	-0.022201538	-0.102555275	13.73517513	-1.276826859	4.677462578	-0.020876214	-1.112124179	-5.137220697	-0.844970703	0.705810547	0.500488281	895.88	-55.4567344	-54.2240147	-133.4502091	-57
28545	0	0.596801758	-0.06262207	0.076477051	0.994400978	-0.010875702	-0.016570091	-0.103790283	14.92004395	-1.565551758	1.91192627	-0.544802132	-0.830054107	-5.199220062	-0.944824219	0.501708984	0.545654297	895.8	-46.27331928	-64.80117003	-145.4554738	-57
28546	0	0.436932564	-0.053112984	0.078741074	0.995195389	-0.023638725	-0.00681591	-0.094759941	10.92331409	-1.327824593	1.96852684	-1.183832537	-0.341342282	-4.745598595	-1.010742188	0.276611328	0.581787109	895.8	-27.75194989	-72.17380645	-168.1692424	-56
28547	0	0.359680176	-0.092956543	0.075195313	0.996468544	-0.029159546	0.000935555	-0.078731537	8.992004395	-2.323913574	1.879882813	-1.459695829	0.046832863	-3.941216931	-1.034423828	0.050048828	0.604736328	895.72	-1.128562631	-74.42269047	160.619412	-56
28548	0	0.394488335	-0.091467857	0.046284676	0.997664452	-0.023861885	0.002506256	-0.063946724	9.862208366	-2.286696434	1.15711689	-1.194023808	0.125410438	-3.199827281	-1.028320313	-0.142578125	0.591552734	895.66	21.06710699	-72.80617641	134.6665543	-59
28549	0	0.484130859	-0.103637695	0.06463623	0.99812603	-0.030071259	0.003666878	-0.053150177	12.10327148	-2.590942383	1.615905762	-1.5045024	0.183458446	-2.659169344	-1.007324219	-0.298828125	0.574707031	895.82	33.24143883	-69.57305782	118.1860789	-63
28550	0	0.537693024	-0.135363579	0.065384865	0.998006821	-0.042819023	0.004620552	-0.046124458	13.44232559	-3.38408947	1.63462162	-2.142374688	0.231181215	-2.307756338	-0.970214844	-0.446777344	0.541992188	895.72	38.22353301	-65.99292071	107.5169537	-69
28551	0	0.517700195	-0.179870605	0.080078125	0.99784565	-0.049484253	0.003266335	-0.042934418	12.94250488	-4.496765137	2.001953125	-2.4759904	0.163434072	-2.148263333	-0.928222656	-0.579833984	0.4765625	895.82	40.05496215	-62.54804682	99.19485739	-65
28552	0	0.440750122	-0.274123192	0.107068062	0.998534203	-0.040312767	0.002403259	-0.036011696	11.01875305	-6.853079796	2.676701546	-2.016623193	0.120221676	-1.801464559	-0.874755859	-0.709228516	0.401611328	895.7	40.82408797	-59.63086497	93.03238532	-63
28553	0	0.40637207	-0.298034668	0.101501465	0.999760628	-0.017082214	-0.003298759	-0.013263702	10.15930176	-7.450866699	2.537536621	-0.854178863	-0.164951133	-0.663238032	-0.825683594	-0.792236328	0.337158203	895.7	41.20408073	-58.90797479	90.2965995	-75
28554	0	0.425476074	-0.260268211	0.107521057	0.999623299	0.021621704	-0.006710052	0.015486717	10.63690186	-6.506705284	2.688026428	1.081220812	-0.335544709	0.774432991	-0.812988281	-0.810302734	0.326660156	895.72	42.25003113	-60.66771074	91.92671895	-61
28555	0	0.418212891	-0.125915527	0.074279785	0.997476578	0.053116798	-0.007926941	0.046424866	10.45532227	-3.147888184	1.856994629	2.658075678	-0.396680702	2.323197371	-0.837402344	-0.752197266	0.377441406	895.8	41.76956819	-64.92631116	99.27824714	-63
28556	0	0.56911087	-0.047879219	0.074409485	0.995280266	0.06607914	-0.005041122	0.070884705	14.22777176	-1.196980476	1.860237122	3.309164371	-0.252453389	3.549821319	-0.905517578	-0.613769531	0.458251953	895.66	34.48735382	-70.4694223	115.2883043	-55
28557	0	0.612182617	0.013427734	0.069030762	0.993930817	0.063660622	0.001834869	0.089687347	15.30456543	0.335693359	1.725769043	3.189485327	0.091929498	4.49346034	-0.981201172	-0.400634766	0.524658203	895.76	10.97422495	-74.40941398	147.511036	-54
28558	0	0.485187531	0.025271416	0.090497017	0.993665695	0.042170525	0.007916451	0.103856087	12.12968826	0.631785393	2.262425423	2.112989068	0.39666031	5.203795256	-1.045898438	-0.146728516	0.535888672	895.76	-24.10300089	-71.97127544	-170.9500727	-54
28559	0	0.473205566	0.05291748	0.081542969	0.993481636	0.021331787	0.01213932	0.111312866	11.83013916	1.322937012	2.038574219	1.068912658	0.608288145	5.577766694	-1.066162109	0.122558594	0.500488281	895.76	-45.52888116	-63.29248012	-145.2687422	-50
28560	0	0.475605965	0.018895149	0.049434662	0.994088173	0.00596714	0.013538361	0.107557297	11.89014912	0.472378731	1.235866547	0.298946287	0.678254992	5.388486509	-1.024414063	0.376708984	0.448974609	895.72	-55.54727164	-52.69038419	-132.7189082	-56
28561	0	0.478149414	-0.008361816	0.029541016	0.995232582	0.005729675	0.014641762	0.096244812	11.95373535	-0.20904541	0.738525391	0.286939809	0.733253476	4.819901051	-0.936767578	0.594238281	0.397705078	895.78	-59.81500885	-42.4341382	-126.0793939	-54
28562	0	0.451442719	-0.011790276	0.025777817	0.996848106	0.002885818	0.016448975	0.077555656	11.28606796	-0.294756889	0.644445419	0.14444271	0.823313901	3.881862035	-0.823730469	0.762939453	0.346435547	895.8	-61.61291736	-33.75692921	-122.6459097	-60
28563	0	0.408813477	0.003051758	0.042541504	0.998500824	-0.000956535	0.016132355	0.052284241	10.22033691	0.076293945	1.063537598	-0.047850671	0.807020891	2.615518642	-0.717529297	0.870605469	0.300292969	895.72	-62.42542948	-27.6203516	-121.27839	-56
28564	0	0.333703041	-0.005163193	0.075091362	0.999629021	-0.00395298	0.013442993	0.023333549	8.342576027	-0.129079819	1.87728405	-0.197673413	0.672232673	1.166821568	-0.649169922	0.924804688	0.275146484	895.76	-62.81027703	-24.57609512	-121.4343846	-57
28565	0	0.295410156	-0.034484863	0.121520996	0.999955177	-0.001888275	0.00616169	-0.00692749	7.385253906	-0.862121582	3.038024902	-0.094415166	0.308089085	-0.34637968	-0.623535156	0.937011719	0.255615234	895.76	-62.56253772	-25.00733367	-122.5262018	-51
28566	0	0.385849953	-0.118167877	0.158596992	0.998918533	0.011891365	-0.007697105	-0.044266701	9.646248817	-2.95419693	3.964924812	0.594782524	-0.384993965	-2.214132684	-0.664306641	0.905517578	0.249023438	895.76	-60.32642053	-29.94901275	-124.381103	-53
28567	0	0.352661133	-0.074768066	0.181335449	0.997245789	0.018456459	-0.01802063	-0.069530487	8.81652832	-1.86920166	4.53338623	0.923670954	-0.901859471	-3.479719006	-0.751708984	0.827392578	0.228759766	895.76	-56.55487992	-37.89933092	-127.2871474	-51
28568	0	0.425265312	-0.041425705	0.182257652	0.99625206	0.007631302	-0.028082848	-0.081453323	10.6316328	-1.035642624	4.556441307	0.382042485	-1.405899156	-4.077761635	-0.857177734	0.708496094	0.247070313	895.82	-53.08871534	-47.47936104	-131.0434993	-49
28569	0	0.562072754	-0.036010742	0.148071289	0.995461464	-0.002990723	-0.029665947	-0.090370178	14.05181885	-0.900268555	3.701782227	-0.149762752	-1.485545257	-4.525356625	-0.947021484	0.547851563	0.296630859	895.76	-48.1738345	-57.76172475	-137.5843536	-48
28570	0	0.487104416	-0.037884712	0.10797596	0.995211601	-0.02432251	-0.021318436	-0.092234612	12.1776104	-0.947117805	2.699398994	-1.218070192	-1.067626297	-4.619105185	-1.012695313	0.355957031	0.361572266	895.76	-39.41612905	-66.99604071	-150.5247556	-48
28571	0	0.42565918	-0.0546875	0.110351563	0.995240211	-0.04510498	-0.013461113	-0.085319519	10.64147949	-1.3671875	2.758789063	-2.258833322	-0.674125345	-4.272755926	-1.044189453	0.134521484	0.421386719	895.64	-23.03401736	-73.58202731	-173.3306416	-47
28572	0	0.439887047	-0.101869583	0.096214294	0.996274948	-0.039865494	-0.005358696	-0.076268196	10.99717617	-2.546739578	2.405357361	-1.995752926	-0.268267922	-3.818151015	-1.040039063	-0.084228516	0.453369141	895.72	4.323503686	-75.71382756	153.6352929	-47
28573	0	0.453125	-0.126647949	0.076782227	0.997023582	-0.035774231	0.00080204	-0.068283081	11.328125	-3.16619873	1.919555664	-1.790488027	0.040141833	-3.417544859	-1.013183594	-0.275390625	0.441894531	895.78	27.94779627	-73.34375158	124.9172013	-49
28574	0	0.457975388	-0.145047188	0.074809074	0.997563362	-0.040931702	0.002716064	-0.056426048	11.44938469	-3.626179695	1.87022686	-2.048248742	0.135913616	-2.823595836	-0.965820313	-0.443603516	0.416015625	895.8	39.01500694	-69.41990416	108.3065851	-54
28575	0	0.426330566	-0.146179199	0.084228516	0.998034477	-0.04757309	0.002903938	-0.040676117	10.65826416	-3.65447998	2.105712891	-2.38021374	0.145292094	-2.035139051	-0.914550781	-0.581298828	0.367431641	895.7	41.8220757	-66.07763898	99.38245228	-54
28576	0	0.434239388	-0.185208321	0.092327118	0.998761177	-0.041350365	0.001964569	-0.027605057	10.85598469	-4.630208015	2.308177948	-2.068372296	0.098269031	-1.380823001	-0.8671875	-0.679443359	0.298828125	895.76	41.85137555	-63.75031525	94.10966152	-57
28577	0	0.404846191	-0.249511719	0.08807373	0.999674797	-0.021347046	0.000748634	-0.013896942	10.12115479	-6.237792969	2.201843262	-1.067467849	0.037435769	-0.694922332	-0.835205078	-0.744384766	0.239746094	895.76	41.6579668	-62.59234129	91.57181994	-56
28578	0	0.447634697	-0.263626099	0.106797218	0.999945641	0.00944519	-0.00279808	0.003251076	11.19086742	-6.590652466	2.669930458	0.472267992	-0.139906532	0.162556703	-0.814941406	-0.769287109	0.215087891	895.76	42.60654529	-63.06217131	91.70348846	-61
28579	0	0.449401855	-0.179931641	0.106018066	0.999067307	0.033810616	-0.003334045	0.026618958	11.23504639	-4.498291016	2.65045166	1.691056083	-0.166754071	1.331361447	-0.823242188	-0.749267578	0.236572266	895.7	42.31467287	-65.39908009	96.30899203	-55
28580	0	0.435778618	-0.065488815	0.098363876	0.997844696	0.042959213	-0.001776695	0.049561501	10.89446545	-1.637220383	2.459096909	2.149504815	-0.088898625	2.479856497	-0.862304688	-0.677490234	0.289794922	895.7	37.02097434	-69.19791377	107.358581	-52
28581	0	0.532470703	-0.015258789	0.073852539	0.996466637	0.046077728	-0.000323296	0.070213318	13.31176758	-0.381469727	1.846313477	2.30660333	-0.016183842	3.514805935	-0.924804688	-0.552490234	0.345703125	895.72	21.48521201	-73.23478528	129.2999744	-48
28582	0	0.579719543	0.026605606	0.089392662	0.995345116	0.04060173	0.003128052	0.087346077	14.49298859	0.665140152	2.234816551	2.03324217	0.156645707	4.374092571	-0.990966797	-0.383789063	0.381103516	895.76	-8.585966445	-74.03152662	165.3981903	-48
28583	0	0.524475098	0.0390625	0.100524902	0.994747162	0.027760506	0.007797241	0.098213196	13.11187744	0.9765625	2.513122559	1.39046057	0.390546072	4.919275529	-1.044433594	-0.176513672	0.384033203	895.8	-35.84279196	-68.72388898	-162.5954934	-50
28584	0	0.515656471	0.013094902	0.082461357	0.994764328	0.018791199	0.008231163	0.100105286	12.89141178	0.327372551	2.061533928	0.941202804	0.412277781	5.014016239	-1.067626953	0.047363281	0.378417969	895.7	-50.01259925	-60.09276882	-144.5711787	-48
28585	0	0.527648926	0.005432129	0.060974121	0.995664597	0.015763283	0.008640289	0.091259003	13.19122314	0.135803223	1.524353027	0.789305032	0.43263982	4.569555154	-1.048583984	0.265380859	0.359619141	895.82	-56.23751605	-51.09137917	-134.8687077	-49
28586	0	0.44759655	0.02209568	0.050150871	0.997053146	0.006922722	0.009598732	0.075788498	11.18991375	0.552392006	1.253771782	0.346476437	0.480408505	3.793150905	-0.999755859	0.449462891	0.330322266	895.8	-59.42341254	-43.1535107	-129.4508116	-49
28587	0	0.36315918	0.035766602	0.051635742	0.998049736	-0.005249023	0.008011818	0.061683655	9.078979492	0.894165039	1.290893555	-0.262621917	0.400851512	3.086189238	-0.937744141	0.598144531	0.314697266	895.82	-62.22919518	-36.55603185	-126.0157494	-49
28588	0	0.34180069	0.036856651	0.062321663	0.998795509	-0.009837151	0.005685806	0.047718048	8.545017242	0.921416283	1.558041573	-0.492054986	0.284404443	2.386860233	-0.871826172	0.696533203	0.311767578	895.78	-64.60658627	-31.41423289	-123.7760212	-48
28589	0	0.342407227	0.011108398	0.062927246	0.9995718	-0.004550934	0.006230354	0.02822113	8.560180664	0.277709961	1.573181152	-0.227579166	0.311562174	1.411257898	-0.81640625	0.766845703	0.320068359	895.86	-65.52846261	-28.23674138	-122.9532628	-48
28590	0	0.378110886	-0.054802895	0.053343773	0.999991417	-0.002922058	0.001907349	-0.002184868	9.452772141	-1.370072365	1.333594322	-0.146103318	0.095367701	-0.109243702	-0.784912109	0.798583984	0.321289063	895.72	-65.68919548	-28.44510805	-123.2853369	-49
28591	0	0.383850098	-0.130004883	0.125793457	0.999217033	0.008106232	-0.005583763	-0.038299561	9.596252441	-3.25012207	3.144836426	0.405417293	-0.279260971	-1.915477469	-0.807617188	0.777587891	0.32421875	895.72	-63.98132656	-32.77259365	-124.7571239	-49
28592	0	0.276370049	-0.101238251	0.179652214	0.998044968	0.01317215	-0.010237694	-0.060216904	6.909251213	-2.530956268	4.491305351	0.659036815	-0.512218376	-3.012807888	-0.867431641	0.698486328	0.325439453	895.72	-60.86315581	-39.52376111	-127.4121339	-48
28593	0	0.262207031	-0.087341309	0.164916992	0.997629166	0.011101723	-0.017219543	-0.065696716	6.555175781	-2.183532715	4.122924805	0.555525204	-0.861658197	-3.287434088	-0.942626953	0.589599609	0.335693359	895.76	-57.49912549	-47.09535763	-130.4021116	-46
28594	0	0.447445869	-0.101888657	0.128071785	0.996828079	0.014079094	-0.026392937	-0.073742867	11.18614674	-2.547216415	3.201794624	0.704699825	-1.321043667	-3.691046126	-0.995849609	0.456054688	0.369628906	895.82	-52.86206646	-55.86536722	-134.2077751	-45
28595	0	0.553161621	-0.134094238	0.166320801	0.996281624	0.012813568	-0.025629997	-0.081241608	13.82904053	-3.352355957	4.15802002	0.641473507	-1.283090242	-4.067121545	-1.028076172	0.306640625	0.420654297	895.8	-44.28551709	-64.91292228	-142.3046506	-47
28596	0	0.489060402	-0.120217323	0.161822319	0.997172356	-0.001385689	-0.016262054	-0.073344231	12.22651005	-3.005433083	4.045557976	-0.069349799	-0.813869768	-3.670671023	-1.047851563	0.145751953	0.469238281	895.76	-30.21930603	-71.62478457	-157.549009	-46
28597	0	0.435119629	-0.084106445	0.130004883	0.99840641	-0.014289856	-0.011656761	-0.053329468	10.87799072	-2.102661133	3.25012207	-0.714872513	-0.583147806	-2.667890478	-1.039306641	-0.01171875	0.495849609	895.72	-14.10257239	-75.2663801	-176.0530415	-45
28598	0	0.431125641	-0.052360535	0.134208679	0.99916935	-0.018598557	-0.008043289	-0.035346031	10.77814102	-1.309013367	3.35521698	-0.930185289	-0.402275804	-1.767790862	-1.022949219	-0.125976563	0.515869141	895.72	-0.114728182	-76.7177228	167.3343018	-45
28599	0	0.392211914	-0.090820313	0.132873535	0.999454498	-0.024497032	-0.004680634	-0.02161026	9.805297852	-2.270507813	3.321838379	-1.225074031	-0.234074175	-1.080709213	-1.005615234	-0.211669922	0.527587891	895.76	8.281544556	-77.07297696	155.8301658	-45
28600	0	0.354146957	-0.125932693	0.13303566	0.999707222	-0.019616127	-0.002603531	-0.013921738	8.853673935	-3.148317337	3.325891495	-0.980902068	-0.130189248	-0.696154815	-0.993164063	-0.275634766	0.512207031	895.8	13.46515455	-77.04407067	148.2004353	-46
28601	0	0.409301758	-0.164611816	0.13684082	0.999925613	-4.86E-05	-0.002490997	-0.011928558	10.23254395	-4.11529541	3.421020508	-0.00243193	-0.124552948	-0.59644268	-0.984375	-0.319824219	0.509521484	895.76	19.77207365	-76.89699694	141.7138431	-46
28602	0	0.440513611	-0.169617653	0.146298409	0.999625206	0.025957108	0.000743866	-0.008562088	11.01284027	-4.240441322	3.657460213	1.298017152	0.037197934	-0.428157763	-0.974609375	-0.335205078	0.527587891	895.76	26.62876478	-76.39839253	137.7150929	-45
28603	0	0.326843262	-0.10168457	0.116699219	0.999394417	0.034282684	0.004887581	0.003398895	8.171081543	-2.542114258	2.917480469	1.714480301	0.244428384	0.169979075	-0.973388672	-0.315429688	0.540039063	895.82	28.2720384	-76.04774344	140.0606058	-45
28604	0	0.313677788	-0.020456314	0.078678131	0.99946022	0.026409149	0.005698204	0.018650055	7.841944695	-0.511407852	1.966953278	1.320694758	0.284961403	0.932670327	-0.985107422	-0.264648438	0.547851563	895.8	22.46112012	-76.34631116	149.1567803	-44
28605	0	0.399169922	-0.0078125	0.055969238	0.999504089	0.012104988	0.005573273	0.028503418	9.979248047	-0.1953125	1.399230957	0.605349319	0.278709637	1.425406165	-0.999755859	-0.194335938	0.548583984	895.76	10.19808951	-76.63709374	163.1945396	-43
28606	0	0.451583862	-0.014969826	0.060771942	0.99939537	-0.002026558	0.005129814	0.034315109	11.28959656	-0.374245644	1.519298553	-0.101348307	0.256542373	1.716101075	-1.014160156	-0.123779297	0.543701172	895.8	-6.252728724	-76.17747535	179.8790294	-43
28607	0	0.414489746	-0.001953125	0.061523438	0.999213219	-0.015224457	0.003144264	0.03647995	10.36224365	-0.048828125	1.538085938	-0.761422479	0.157254442	1.824475862	-1.026367188	-0.057861328	0.536132813	895.76	-23.1407287	-74.76675315	-164.4787643	-44
28608	0	0.37744236	0.006457329	0.062279701	0.99932003	-0.017075539	0.000291824	0.032654762	9.436058998	0.16143322	1.556992531	-0.853970287	0.014594522	1.63310788	-1.033447266	0.001464844	0.534423828	895.76	-36.14877012	-72.90064561	-152.9697253	-44
28609	0	0.381774902	-0.001037598	0.061279297	0.999674797	-0.00812149	-0.001704216	0.024105072	9.544372559	-0.025939941	1.531982422	-0.406118523	-0.085220033	1.205384192	-1.033203125	0.047363281	0.5390625	895.7	-43.91328756	-71.30246305	-145.7821851	-44
28610	0	0.386499405	0.002098083	0.05398941	0.999908447	0.003865242	-0.003079414	0.012539864	9.662485123	0.052452087	1.34973526	0.193267952	-0.153975381	0.627012165	-1.0234375	0.088623047	0.546630859	895.76	-47.01739463	-70.56439245	-142.0193842	-45
28611	0	0.385192871	-0.00982666	0.065551758	0.999796867	0.019390106	-0.004992485	0.001895905	9.629821777	-0.245666504	1.638793945	0.969570682	-0.249641084	0.094801619	-1.017578125	0.114746094	0.549804688	895.7	-46.31406202	-70.84254147	-140.4020479	-45
28612	0	0.365338326	-0.022245407	0.066637039	0.999423981	0.032794952	-0.006716728	-0.005397797	9.133458138	-0.556135178	1.66592598	1.640062002	-0.335900799	-0.269941576	-1.013916016	0.140869141	0.553222656	895.8	-42.74699283	-71.87064271	-140.1925924	-45
28613	0	0.368713379	-0.037963867	0.062561035	0.999031067	0.042157173	-0.008476257	-0.009372711	9.217834473	-0.94909668	1.564025879	2.108539711	-0.423949801	-0.468786976	-1.008056641	0.164794922	0.556640625	895.76	-37.1661669	-73.35095844	-140.9716892	-45
28614	0	0.394153595	-0.037096977	0.068184853	0.998821259	0.046477318	-0.010579109	-0.009142876	9.853839874	-0.927424431	1.704621315	2.324779228	-0.529163352	-0.457323453	-0.997558594	0.192871094	0.562255859	895.76	-31.05016528	-74.98770183	-141.7872842	-44
28615	0	0.416503906	0.021484375	0.148376465	0.999866486	0.01339817	-0.0066185	-0.0064888	10.41259766	0.537109375	3.709411621	0.669938162	-0.330939629	-0.324454356	-0.984863281	0.225341797	0.564697266	895.7	-28.30941771	-76.0577098	-143.0160269	-44
28616	0	0.387906075	-0.018170357	0.148197174	0.999845505	-0.016214371	-0.006257057	0.002486229	9.697651863	-0.454258919	3.704929352	-0.810760191	-0.312868934	0.124317834	-0.982421875	0.21875	0.570800781	895.72	-32.4932019	-76.57217284	-140.6099357	-44
28617	0	0.391540527	-0.056762695	0.091369629	0.999615669	-0.027462006	-0.003619194	-0.000507355	9.788513184	-1.419067383	2.284240723	-1.373275988	-0.180982858	-0.025370983	-0.97265625	0.198974609	0.594726563	895.76	-36.2615475	-76.98728109	-139.9595363	-44
28618	0	0.368227959	-0.127620697	0.070810318	0.999957085	0.008810043	-0.001972198	0.0019207	9.205698967	-3.190517426	1.77025795	0.440508422	-0.098611325	0.096036367	-0.971679688	0.172607422	0.60546875	895.76	-36.44791106	-77.07615619	-138.7386095	-44
28619	0	0.366149902	-0.064758301	0.046142578	0.99948597	0.032032013	-0.000277519	0.00030899	9.153747559	-1.61895752	1.153564453	1.601874707	-0.013878336	0.015452168	-0.968261719	0.198730469	0.605957031	895.82	-32.83619103	-77.11899986	-138.682442	-44
28620	0	0.3751297	-0.044484138	0.06801796	0.999650002	0.026402473	-0.00050354	-0.001499176	9.378242493	-1.112103462	1.70044899	1.320277646	-0.025179938	-0.074967544	-0.969482422	0.238037109	0.585693359	895.76	-29.14633357	-77.29229706	-139.360266	-43
28621	0	0.387634277	-0.025817871	0.05255127	0.999846458	0.017337799	-0.001166344	-0.00214386	9.690856934	-0.645446777	1.313781738	0.866934251	-0.058320164	-0.107198471	-0.970458984	0.262207031	0.578125	895.82	-26.313819	-77.55994275	-140.2214855	-43
28622	0	0.393237114	-0.033963203	0.059894562	0.999992371	-0.002194405	-0.000990868	-0.002941132	9.830927849	-0.849080086	1.497364044	-0.109720494	-0.0495435	-0.147056934	-0.970703125	0.268554688	0.574707031	895.7	-25.24731921	-77.84305704	-141.5623039	-43
28623	0	0.386230469	-0.031433105	0.06854248	0.999983788	-0.005325317	-0.001482964	-0.000850677	9.655761719	-0.785827637	1.713562012	-0.266267257	-0.074148565	-0.042534096	-0.968017578	0.261962891	0.583740234	895.82	-25.63169439	-78.07180186	-141.788093	-43
28624	0	0.38848877	-0.0240345	0.088680267	0.999965668	-0.008182526	-0.000710487	0.000404358	9.712219238	-0.600862503	2.217006683	-0.409130893	-0.035524769	0.020218123	-0.967773438	0.251220703	0.587402344	895.82	-26.77882693	-78.15668529	-141.5707627	-43
28625	0	0.389099121	-0.033325195	0.090942383	0.999945641	-0.010326385	0.000844002	0.001087189	9.727478027	-0.833129883	2.27355957	-0.516328615	0.042200852	0.054360419	-0.965087891	0.242431641	0.59375	895.86	-28.11727504	-78.04451228	-141.4091131	-43
28626	0	0.385681152	-0.049771309	0.081679344	0.999966621	-0.007797241	0.002220154	-6.77E-05	9.642028809	-1.244282722	2.041983604	-0.389866332	0.111008907	-0.003385581	-0.967041016	0.231445313	0.591796875	895.76	-28.26328231	-77.85359726	-142.1710699	-43
28627	0	0.383911133	-0.047363281	0.072509766	0.999979019	-0.005923271	0.002574921	-0.000347137	9.59777832	-1.184082031	1.812744141	-0.296165624	0.12874693	-0.017356994	-0.968994141	0.222900391	0.58984375	895.82	-27.99251275	-77.64055283	-143.1405019	-43
28628	0	0.377057076	-0.052872658	0.070410728	0.999983788	-0.005303383	0.001918793	-0.000323296	9.426426888	-1.321816444	1.760268211	-0.265170554	0.095940147	-0.016164866	-0.975341797	0.214111328	0.582275391	895.76	-27.8435004	-77.49077703	-143.9135047	-43
28629	0	0.383361816	-0.04510498	0.073425293	0.999979019	-0.006281853	0.001358032	0.000312805	9.58404541	-1.127624512	1.835632324	-0.314094804	0.06790208	0.015640367	-0.975341797	0.207763672	0.585693359	895.7	-28.24006187	-77.36288015	-144.242621	-43
28630	0	0.381425858	-0.048633575	0.072575569	0.999969482	-0.007622719	0.000950813	0.000372887	9.535646439	-1.215839386	1.814389229	-0.381139698	0.047541133	0.018644517	-0.977294922	0.203369141	0.583251953	895.82	-28.9167042	-77.27238645	-144.4415251	-43
28631	0	0.389709473	-0.050720215	0.080444336	0.999973297	-0.007227898	0.000720978	0.000171661	9.742736816	-1.268005371	2.011108398	-0.361398062	0.036049206	0.008583144	-0.979248047	0.192382813	0.587158203	895.76	-29.51458222	-77.21539565	-144.6760679	-43
28632	0	0.388110161	-0.050502777	0.081198692	0.999974251	-0.007061958	0.001014709	0.000123978	9.702754021	-1.262569427	2.029967308	-0.353100912	0.050735904	0.006198936	-0.979003906	0.183837891	0.590576172	895.7	-29.9997787	-77.13118284	-145.0067779	-43
28633	0	0.383056641	-0.055603027	0.081481934	0.999972343	-0.007293701	0.00106144	0.000522614	9.576416016	-1.390075684	2.03704834	-0.364688377	0.053072459	0.026130914	-0.980957031	0.175048828	0.591552734	895.82	-30.67274681	-77.01868373	-145.1724728	-44
28634	0	0.378545761	-0.060808182	0.082752228	0.999977112	-0.006527901	0.001072884	0.000434875	9.463644028	-1.520204544	2.068805695	-0.326397426	0.053644573	0.021743934	-0.982910156	0.168457031	0.586425781	895.76	-31.21706914	-76.90914202	-145.3801478	-43
28635	0	0.381469727	-0.066711426	0.081176758	0.999985695	-0.005203247	0.000351906	0.000133514	9.536743164	-1.667785645	2.029418945	-0.260163534	0.017595371	0.00667575	-0.982910156	0.162109375	0.595458984	895.7	-31.66936006	-76.88708392	-145.5268454	-44
28636	0	0.377484322	-0.073605537	0.083548546	0.999990463	-0.004043579	0.000161171	-0.000927925	9.43710804	-1.840138435	2.088713646	-0.202179536	0.008058571	-0.046396389	-0.984863281	0.155517578	0.587646484	895.72	-31.59717711	-76.9458717	-146.0757506	-44
28637	0	0.377441406	-0.075012207	0.087402344	0.999998093	-0.000597954	-0.000354767	-0.001194	9.436035156	-1.875305176	2.185058594	-0.029897699	-0.017738348	-0.059700031	-0.982177734	0.148925781	0.587890625	895.76	-31.15103072	-77.06866833	-146.6037334	-44
28638	0	0.380300522	-0.073045731	0.083686829	0.999996185	0.002514839	-0.000561714	-0.00097084	9.507513046	-1.826143265	2.092170715	0.125742118	-0.028085744	-0.048542084	-0.984619141	0.146728516	0.593994141	895.86	-30.49310696	-77.19613501	-146.9832951	-44
28639	0	0.381469727	-0.067260742	0.083740234	0.999980927	0.006070137	-0.000511169	-0.000461578	9.536743164	-1.681518555	2.093505859	0.303508739	-0.025558631	-0.023079062	-0.982177734	0.151123047	0.590576172	895.86	-29.63263988	-77.28701542	-147.1527014	-44
28640	0	0.379652023	-0.056520462	0.081787109	0.999967575	0.00800705	-0.000245094	-6.68E-06	9.491300583	-1.413011551	2.044677734	0.40035676	-0.012254846	-0.00033379	-0.982421875	0.155517578	0.590332031	895.86	-28.68299613	-77.32444524	-147.1864217	-44
28641	0	0.379821777	-0.049987793	0.07989502	0.999975204	0.006894112	-0.000259399	0.000343323	9.495544434	-1.249694824	1.997375488	0.344708323	-0.012970074	0.017166274	-0.98046875	0.166259766	0.589355469	895.8	-28.02203669	-77.34360398	-147.0545115	-44
28642	0	0.379707336	-0.048647881	0.080984116	0.999985695	0.005195618	-0.000146866	0.000250816	9.492683411	-1.216197014	2.02460289	0.259782056	-0.007343325	0.012540874	-0.983154297	0.170654297	0.586181641	895.72	-27.48908853	-77.35598807	-146.9911949	-44
28643	0	0.380981445	-0.046447754	0.079040527	0.999992371	0.003815651	-0.000198364	0.000175476	9.524536133	-1.161193848	1.976013184	0.190783012	-0.009918237	0.008773825	-0.983398438	0.179443359	0.585449219	895.66	-27.09417574	-77.37722814	-146.9481155	-44
28644	0	0.380935669	-0.046029091	0.080523491	0.999997139	0.002335548	-0.000118256	0.000185966	9.523391724	-1.150727272	2.013087273	0.116777527	-0.005912786	0.009298333	-0.978759766	0.181640625	0.585205078	895.82	-26.85671694	-77.38925654	-146.9177737	-44
28645	0	0.381286621	-0.044616699	0.081848145	0.999999046	0.00088501	-5.63E-05	0.000236511	9.532165527	-1.11541748	2.046203613	0.044250494	-0.00281334	0.011825563	-0.981201172	0.186035156	0.584960938	895.76	-26.79576013	-77.39178019	-146.8768303	-44
28646	0	0.381639481	-0.046546936	0.080726624	0.999998093	-0.001376152	0.000153542	8.30E-05	9.540987015	-1.163673401	2.018165588	-0.068807624	0.007677081	0.004148485	-0.979003906	0.185791016	0.581787109	895.82	-26.87724942	-77.38022252	-146.95554	-44
28647	0	0.379699707	-0.051879883	0.084350586	0.999998093	-0.001620293	0.000209808	2.67E-05	9.492492676	-1.29699707	2.108764648	-0.081014669	0.010490422	0.001335145	-0.981201172	0.183837891	0.582275391	895.76	-26.95061296	-77.36498807	-147.071563	-44
28648	0	0.379417419	-0.052843094	0.083605766	0.999997139	-0.002087593	0.000120163	0.000227928	9.485435486	-1.321077347	2.090144157	-0.104379731	0.006008153	0.011396416	-0.981201172	0.183837891	0.584960938	895.76	-27.19260703	-77.34764168	-147.0697203	-44
28649	0	0.381652832	-0.054870605	0.083251953	0.999997139	-0.001903534	8.49E-05	0.000492096	9.541320801	-1.371765137	2.081298828	-0.095176758	0.004243853	0.024604813	-0.980957031	0.179443359	0.579589844	895.76	-27.5440202	-77.31915327	-146.9345212	-44
28650	0	0.382374763	-0.058011055	0.084439278	0.999999046	-0.001123428	-4.20E-05	6.39E-05	9.559369087	-1.450276375	2.110981941	-0.056171429	-0.002098084	0.00319481	-0.980957031	0.179443359	0.582519531	895.76	-27.64539636	-77.32526346	-146.9640281	-44
28651	0	0.380004883	-0.057434082	0.087097168	0.999999046	0.001014709	-0.000109673	-0.000385284	9.50012207	-1.435852051	2.177429199	0.050735484	-0.005483628	-0.019264225	-0.980957031	0.177246094	0.585693359	895.86	-27.31714113	-77.36100374	-147.1830981	-44
28652	0	0.382019043	-0.05501461	0.085231781	0.999997139	0.002202034	-0.000274658	-0.000259399	9.550476074	-1.375365257	2.130794525	0.110101791	-0.013732922	-0.012969981	-0.980957031	0.179443359	0.585449219	895.8	-26.94971871	-77.40589322	-147.3028939	-44
28653	0	0.382446289	-0.054443359	0.082214355	0.999996185	0.002480507	3.81E-06	-0.000209808	9.561157227	-1.361083984	2.055358887	0.124025473	0.000190735	-0.010490428	-0.980957031	0.179443359	0.585449219	895.76	-26.51011498	-77.41889823	-147.4641754	-44
28654	0	0.380209923	-0.05398941	0.084134102	0.999996185	0.002591133	7.92E-05	-0.000432014	9.50524807	-1.34973526	2.103352547	0.129556805	0.003957753	-0.021600748	-0.981201172	0.183837891	0.584960938	895.76	-25.94039325	-77.43437434	-147.7457189	-44
28655	0	0.379089355	-0.05090332	0.082397461	0.999995232	0.002876282	-5.63E-05	-0.000217438	9.477233887	-1.272583008	2.059936523	0.143814286	-0.002813343	-0.010871902	-0.981201172	0.183837891	0.584960938	895.76	-25.46912239	-77.45203229	-147.8931941	-43
28656	0	0.382597923	-0.047650337	0.080615044	0.999999046	0.001282692	9.16E-05	0.000468254	9.564948082	-1.19125843	2.015376091	0.064134618	0.004577638	0.023412712	-0.981201172	0.186035156	0.579101563	895.7	-25.46787283	-77.4200966	-147.7462102	-43
28657	0	0.380187988	-0.05279541	0.083435059	0.999999046	-3.81E-06	0.0001688	0.000644684	9.504699707	-1.319885254	2.085876465	-0.000190735	0.008440018	0.032234194	-0.983642578	0.188232422	0.58203125	895.82	-25.68054772	-77.370764	-147.531158	-44
28658	0	0.380639076	-0.053897858	0.083928108	0.999998093	0.001383781	4.10E-05	0.000453949	9.515976906	-1.347446442	2.098202705	0.069189096	0.002050401	0.022697457	-0.983642578	0.190429688	0.578857422	895.76	-25.67641958	-77.34337926	-147.3754359	-43
28659	0	0.381408691	-0.051452637	0.085449219	0.999997139	0.00220108	-7.53E-05	0.000202179	9.535217285	-1.286315918	2.136230469	0.110054106	-0.003767017	0.010108956	-0.981445313	0.192626953	0.578613281	895.7	-25.49044067	-77.33991642	-147.3102339	-43
28660	0	0.382071495	-0.050754547	0.082989693	0.999996185	0.002433777	-0.000103951	0.00019455	9.551787376	-1.268863678	2.074742317	0.121688964	-0.00519753	0.009727488	-0.981445313	0.194580078	0.575683594	895.76	-25.28269921	-77.33937004	-147.2401359	-43
28661	0	0.381408691	-0.050109863	0.083312988	0.999994278	0.003094673	-0.000125885	0.000205994	9.535217285	-1.252746582	2.082824707	0.154733906	-0.006294261	0.010299699	-0.981689453	0.198974609	0.575195313	895.8	-25.01122764	-77.34013907	-147.157784	-44
28662	0	0.380554199	-0.048305511	0.080343246	0.999994278	0.003071785	-0.00014019	0.000461578	9.51385498	-1.207637787	2.008581161	0.153589496	-0.007009518	0.023078956	-0.981933594	0.203369141	0.577880859	895.8	-24.86548263	-77.32981634	-146.9493545	-43
28663	0	0.381225586	-0.045715332	0.081726074	0.999995232	0.002994537	-0.000250816	0.000640869	9.530639648	-1.142883301	2.043151855	0.149727103	-0.012540837	0.032043507	-0.981933594	0.205566406	0.577636719	895.82	-24.8363035	-77.32214579	-146.630672	-43
28664	0	0.3802948	-0.043999672	0.082591057	0.999997139	0.002106667	-6.48E-05	0.000590324	9.507369995	-1.099991798	2.064776421	0.105333412	-0.003242495	0.029516244	-0.979736328	0.209960938	0.577148438	895.72	-24.8461124	-77.29729437	-146.3762156	-43
28665	0	0.383728027	-0.043762207	0.080688477	0.999999046	0.000255585	3.91E-05	0.000553131	9.593200684	-1.094055176	2.017211914	0.012779237	0.001955032	0.027656557	-0.982177734	0.214355469	0.571289063	895.8	-25.02880379	-77.26321101	-146.1618161	-43
28666	0	0.381778717	-0.045607567	0.083547592	0.999999046	-0.000423431	7.25E-05	3.34E-05	9.544467926	-1.140189171	2.088689804	-0.02117157	0.003623963	0.00166893	-0.979980469	0.214355469	0.576660156	895.82	-25.04385783	-77.25048481	-146.1991917	-43
28667	0	0.380371094	-0.045410156	0.082397461	0.999999046	-0.000610352	1.62E-05	0.000167847	9.509277344	-1.135253906	2.059936523	-0.03051758	0.000810623	0.008392335	-0.982177734	0.214355469	0.568359375	895.78	-25.15506991	-77.23682531	-146.1599625	-43
28668	0	0.381449699	-0.049729347	0.083202362	0.999999046	-0.00057888	4.58E-05	0.000110626	9.536242485	-1.243233681	2.080059052	-0.028944017	0.002288818	0.005531311	-0.979980469	0.212158203	0.57421875	895.86	-25.2317928	-77.22252816	-146.152634	-43
28669	0	0.381408691	-0.046386719	0.082275391	0.999999046	-0.000507355	7.34E-05	0.000217438	9.535217285	-1.159667969	2.056884766	-0.025367738	0.003671646	0.010871888	-0.979980469	0.212158203	0.576904297	895.72	-25.34411305	-77.19991153	-146.1004185	-43
28670	0	0.380643845	-0.045598984	0.082222939	0.999998093	-0.001610756	5.82E-05	0.000338554	9.516096115	-1.139974594	2.055573463	-0.080537832	0.002908708	0.016927727	-0.977783203	0.214355469	0.576660156	895.76	-25.64172077	-77.17266444	-145.9876924	-43
28671	0	0.381774902	-0.047485352	0.083618164	0.999996185	-0.002699852	0.000267029	0.000167847	9.544372559	-1.187133789	2.090454102	-0.134992766	0.013351457	0.008392344	-0.982177734	0.209960938	0.571533203	895.78	-25.94141138	-77.13198826	-146.0010261	-44
28672	0	0.380246162	-0.052775383	0.085490227	0.999995232	-0.002894402	0.000106812	-0.000126839	9.50615406	-1.319384575	2.137255669	-0.14472028	0.005340584	-0.006341943	-0.982177734	0.207763672	0.577392578	895.82	-26.16704652	-77.12220275	-146.1132587	-44
28673	0	0.380249023	-0.056335449	0.086242676	0.999997139	-0.002140045	-4.86E-05	-0.000156403	9.506225586	-1.40838623	2.156066895	-0.10700234	-0.002431871	-0.007820135	-0.981933594	0.203369141	0.580566406	895.8	-26.32969129	-77.12942908	-146.2016572	-44
28674	0	0.380946159	-0.057620049	0.085348129	0.999999046	-0.000827789	-9.54E-05	-8.87E-05	9.523653984	-1.440501213	2.133703232	-0.04138947	-0.004768372	-0.004434586	-0.981689453	0.201171875	0.575195313	895.76	-26.38540082	-77.13752033	-146.245584	-43
28675	0	0.380371094	-0.057312012	0.085510254	0.999999046	0.000392914	-0.000201225	4.58E-05	9.509277344	-1.432800293	2.137756348	0.019645692	-0.010061264	0.002288818	-0.981933594	0.201171875	0.580810547	895.72	-26.38764174	-77.14909796	-146.2010195	-43
28676	0	0.381437302	-0.055145264	0.084422112	0.999998093	0.001543045	-0.000206947	1.43E-05	9.535932541	-1.378631592	2.110552788	0.077152283	-0.010347371	0.000715256	-0.981933594	0.201171875	0.580810547	895.76	-26.24701273	-77.16244009	-146.1679443	-43
28677	0	0.381530762	-0.052062988	0.083374023	0.999998093	0.001610756	-0.00025177	-8.77E-05	9.538269043	-1.301574707	2.084350586	0.080537832	-0.012588507	-0.004386904	-0.981689453	0.201171875	0.575195313	895.82	-26.06362666	-77.1852485	-146.1708019	-43
28678	0	0.38048172	-0.051426888	0.082127571	0.999998093	0.001526833	-2.57E-05	-4.77E-06	9.512042999	-1.285672188	2.053189278	0.076341659	-0.001287461	-0.000238419	-0.982177734	0.205566406	0.580566406	895.76	-25.87855765	-77.18034656	-146.1851699	-43
28679	0	0.381164551	-0.048950195	0.083374023	0.999999046	0.001243591	5.82E-05	0.000228882	9.52911377	-1.223754883	2.084350586	0.062179582	0.002908707	0.011444095	-0.981933594	0.205566406	0.577636719	895.7	-25.81409303	-77.15486525	-146.1092728	-43
28680	0	0.384245872	-0.046729088	0.080786705	0.999999046	0.000687599	7.06E-05	0.000105858	9.606146812	-1.168227196	2.019667625	0.034379962	0.003528595	0.005292893	-0.982177734	0.207763672	0.574462891	895.78	-25.75554065	-77.13423181	-146.0925695	-43
28681	0	0.385131836	-0.049316406	0.083679199	0.999999046	0.000988007	2.00E-05	-0.000892639	9.628295898	-1.232910156	2.09197998	0.049400344	0.001001358	-0.044631971	-0.982177734	0.207763672	0.574462891	895.8	-25.22197774	-77.16789775	-146.5278157	-43
28682	0	0.382344246	-0.047364235	0.086717606	0.999997139	0.001655579	-0.000146866	-0.001594543	9.558606148	-1.184105873	2.16794014	0.082779004	-0.007343299	-0.079727243	-0.984375	0.205810547	0.574951172	895.82	-24.32195956	-77.25109232	-147.2604292	-43
28683	0	0.380554199	-0.047241211	0.085266113	0.999997139	0.001750946	-7.92E-05	-0.001583099	9.51385498	-1.181030273	2.131652832	0.087547384	-0.003957752	-0.079155042	-0.979736328	0.205566406	0.577392578	895.82	-23.39278825	-77.32376057	-148.0115008	-43
28684	0	0.384196281	-0.046830177	0.083906174	0.999996185	0.002025604	-8.68E-05	-0.001404762	9.604907036	-1.170754433	2.097654343	0.101280315	-0.004339223	-0.070238185	-0.984375	0.205566406	0.572021484	895.8	-22.50949799	-77.38643382	-148.6831511	-43
28685	0	0.383117676	-0.043151855	0.082702637	0.999999046	0.000823975	-6.01E-05	-0.00019455	9.577941895	-1.078796387	2.067565918	0.041198735	-0.003004074	-0.009727479	-0.984130859	0.201416016	0.575195313	895.76	-22.32797671	-77.39191466	-148.7770214	-43
28686	0	0.378873825	-0.047873497	0.083040237	0.999999046	4.77E-05	1.72E-05	-0.000187874	9.471845627	-1.196837425	2.076005936	0.002384186	0.000858307	-0.009393692	-0.984130859	0.203369141	0.572265625	895.76	-22.2253096	-77.38862771	-148.8810421	-43
28687	0	0.380249023	-0.044311523	0.084472656	0.999999046	-7.63E-06	-0.000208855	0.000320435	9.506225586	-1.107788086	2.111816406	-0.00038147	-0.010442734	0.016021729	-0.984130859	0.203369141	0.569335938	895.7	-22.41468896	-77.38698818	-148.692363	-43
28688	0	0.378850937	-0.047974586	0.087059021	0.999999046	0.00014019	-2.86E-05	-0.000412941	9.471273422	-1.199364662	2.176475525	0.007009506	-0.001430512	-0.02064705	-0.984130859	0.203369141	0.572265625	895.8	-22.20592509	-77.39774434	-148.8943793	-43
