Counter	Temperature	VelInc_X	VelInc_Y	VelInc_Z	OriInc_w	OriInc_x	OriInc_y	OriInc_z	Acc_X	Acc_Y	Acc_Z	Gyr_X	Gyr_Y	Gyr_Z	Mag_X	Mag_Y	Mag_Z	Pressure	Roll	Pitch	Yaw	RSSI
9832	0	0.381089211	-0.062395096	0.072716713	0.999999046	-0.000786781	0.000238419	-0.000644684	9.527230263	-1.559877396	1.817917824	-0.039339073	0.011920931	-0.032234198	-0.558837891	0.141601563	0.745849609	895.66	-43.73288647	-73.48587514	-131.8512156	-83
9833	0	0.384765625	-0.069213867	0.071838379	0.999998093	-0.001238823	-0.000183105	-0.001251221	9.619140625	-1.73034668	1.795959473	-0.061941179	-0.009155278	-0.062561068	-0.561035156	0.139404297	0.74609375	895.62	-43.52108999	-73.61205463	-132.2210337	-83
9834	0	0.381637573	-0.078846931	0.085051537	0.999997139	-0.000610352	-0.001617432	-0.001623154	9.540939331	-1.971173286	2.126288414	-0.030517607	-0.080871658	-0.08115776	-0.55859375	0.137207031	0.743408203	895.58	-43.51434382	-73.88607715	-132.3019674	-82
9835	0	0.371337891	-0.078430176	0.084411621	0.999992371	0.003216743	-0.001422882	-0.001110077	9.283447266	-1.960754395	2.110290527	0.160837538	-0.071144265	-0.055503971	-0.55859375	0.135009766	0.749267578	895.66	-43.16100418	-74.10280679	-132.2875954	-82
9836	0	0.378139496	-0.072368622	0.081058502	0.999957085	0.009165764	-0.000545502	0.000968933	9.453487396	-1.809215546	2.026462555	0.458294704	-0.027275473	0.048447344	-0.556396484	0.141357422	0.748535156	895.66	-42.49310788	-74.08363968	-131.8917561	-81
9837	0	0.381835938	-0.05645752	0.07824707	0.999938011	0.010925293	1.62E-05	0.002040863	9.545898438	-1.411437988	1.956176758	0.546275896	0.00081064	0.102045253	-0.557128906	0.158935547	0.744384766	895.58	-41.7886396	-73.9361319	-131.3236137	-80
9838	0	0.378266335	-0.051364899	0.072484016	0.999959946	0.008702278	0.000393867	0.002024651	9.456658363	-1.284122467	1.81210041	0.435119707	0.019693637	0.101233878	-0.555419922	0.176269531	0.739990234	895.66	-41.23441254	-73.76004347	-130.8633503	-79
9839	0	0.380493164	-0.053222656	0.068054199	0.99998188	0.005752563	2.77E-05	0.001609802	9.512329102	-1.330566406	1.70135498	0.287629884	0.001382836	0.080490591	-0.553710938	0.19140625	0.732910156	895.62	-40.99051097	-73.64873081	-130.4312748	-79
9840	0	0.377742767	-0.056859016	0.071228027	0.99998951	0.00448513	-0.000411987	0.000658035	9.443569183	-1.42147541	1.780700684	0.22425729	-0.020599436	0.032901878	-0.556396484	0.200195313	0.732421875	895.68	-40.72362259	-73.64812755	-130.1745417	-78
9841	0	0.375610352	-0.053466797	0.073425293	0.999996185	0.002549171	-0.000736237	0.000213623	9.390258789	-1.336669922	1.835632324	0.127458723	-0.036811872	0.010681165	-0.559082031	0.206787109	0.731933594	895.5	-40.62950561	-73.70979652	-129.9688976	-77
9842	0	0.384354591	-0.062120438	0.070795059	0.999999046	-0.000406265	-0.001312256	-4.77E-06	9.608864784	-1.553010941	1.76987648	-0.020313269	-0.065612814	-0.000238419	-0.554443359	0.208740234	0.728759766	895.62	-40.95975678	-73.83821786	-129.6741151	-77
9843	0	0.391296387	-0.074645996	0.07043457	0.999997139	0.000717163	-0.001917839	-0.000267029	9.782409668	-1.866149902	1.760864258	0.03585818	-0.095892021	-0.01335145	-0.552001953	0.206542969	0.731689453	895.54	-41.24908961	-74.03842885	-129.2889228	-76
9844	0	0.380936623	-0.070430756	0.073407173	0.999980927	0.005712509	-0.001997948	-0.000544548	9.523415565	-1.76076889	1.835179329	0.285627215	-0.099897999	-0.027227569	-0.549804688	0.2109375	0.733886719	895.62	-40.90950722	-74.26652578	-128.9632797	-75
9845	0	0.38079834	-0.055541992	0.07800293	0.999961853	0.008534431	-0.001266479	-8.01E-05	9.519958496	-1.388549805	1.950073242	0.426726868	-0.06332476	-0.004005482	-0.547851563	0.219482422	0.733154297	895.48	-40.19224724	-74.39743126	-128.6943182	-75
9846	0	0.384647369	-0.046212196	0.070930481	0.999979973	0.006278992	0.000152588	0.000432968	9.616184235	-1.155304909	1.773262024	0.313951659	0.007629445	0.02164855	-0.545898438	0.230224609	0.732177734	895.62	-39.51662355	-74.36754564	-128.6501129	-74
9847	0	0.383605957	-0.040893555	0.069152832	0.999998093	0.000962257	0.00063324	0.00100708	9.590148926	-1.022338867	1.728820801	0.048112888	0.031662	0.050354024	-0.546386719	0.241210938	0.725585938	895.62	-39.50525988	-74.25439442	-128.5478529	-74
9848	0	0.377993584	-0.044815063	0.071425438	0.999987602	-0.004796028	0.000425339	0.000991821	9.449839592	-1.120376587	1.785635948	-0.239802373	0.021267023	0.049591264	-0.546386719	0.239013672	0.728515625	895.58	-40.19832816	-74.16117122	-128.3991116	-74
9849	0	0.382324219	-0.050109863	0.079528809	0.999986649	-0.005019188	-3.43E-05	9.16E-05	9.558105469	-1.252746582	1.988220215	-0.25096045	-0.001716621	0.004577656	-0.545898438	0.230224609	0.729248047	895.66	-40.75450386	-74.17479984	-128.4193742	-74
9850	0	0.382564545	-0.050706863	0.082598686	0.999984741	-0.005394936	0.000285149	-0.000441551	9.564113617	-1.267671585	2.064967155	-0.269748101	0.014257501	-0.022077669	-0.545654297	0.223876953	0.729736328	895.54	-41.10358272	-74.20093561	-128.699244	-74
9851	0	0.385803223	-0.061462402	0.078186035	0.999982834	-0.005713463	0.000671387	-0.000988007	9.645080566	-1.536560059	1.954650879	-0.285674764	0.033569527	-0.04940061	-0.547607422	0.212890625	0.736572266	895.54	-41.21823239	-74.23521254	-129.2608841	-75
9852	0	0.382842064	-0.067073822	0.076346397	0.999991417	-0.003947258	0.000514984	-0.000972748	9.571051598	-1.676845551	1.908659935	-0.197363452	0.025749279	-0.048637526	-0.547363281	0.206542969	0.739990234	895.62	-41.17583446	-74.28170166	-129.775278	-75
9853	0	0.380249023	-0.069335938	0.077758789	0.999998093	-0.00178051	3.43E-05	-0.000705719	9.506225586	-1.733398438	1.943969727	-0.089025552	0.001716615	-0.035285971	-0.549316406	0.197753906	0.735107422	895.58	-41.09479392	-74.34903568	-130.0722774	-75
9854	0	0.375819206	-0.065623283	0.082921028	0.999998093	0.001580238	-0.000250816	-0.000256538	9.395480156	-1.640582085	2.073025703	0.079011952	-0.012540823	-0.012826925	-0.549316406	0.193359375	0.740966797	895.62	-40.84214568	-74.40660074	-130.1478106	-75
9855	0	0.38092041	-0.057067871	0.079101563	0.999994278	0.00319767	-0.000106812	0.000144958	9.523010254	-1.426696777	1.977539063	0.159883772	-0.005340585	0.007247937	-0.547119141	0.199951172	0.743164063	895.62	-40.48886316	-74.42161685	-130.1347499	-75
9856	0	0.382995605	-0.054198265	0.074972153	0.999998093	0.001625061	0.000332832	0.000127792	9.574890137	-1.354956627	1.874303818	0.081253089	0.016641624	0.006389621	-0.549560547	0.204345703	0.737304688	895.66	-40.19287952	-74.39984942	-130.2489591	-75
9857	0	0.382873535	-0.05456543	0.071044922	0.999999046	-0.000354767	0.000473976	6.48E-05	9.571838379	-1.364135742	1.776123047	-0.017738343	0.023698808	0.003242493	-0.549560547	0.204345703	0.737304688	895.54	-40.0673139	-74.37067883	-130.4217925	-75
9858	0	0.37766552	-0.05454731	0.077466965	0.999998093	-0.001639366	0.000386238	4.10E-05	9.441637993	-1.363682747	1.936674118	-0.081968346	0.019311914	0.002050401	-0.549560547	0.204345703	0.737304688	895.58	-40.10412303	-74.35101283	-130.5786389	-75
9859	0	0.376953125	-0.056762695	0.077026367	0.999997139	-0.002246857	0.000260353	9.16E-05	9.423828125	-1.419067383	1.92565918	-0.11234293	0.013017666	0.004577641	-0.549560547	0.202148438	0.734619141	895.54	-40.25902713	-74.33871781	-130.685121	-76
9860	0	0.381539345	-0.062252998	0.078715324	0.999997139	-0.001954079	0.000230789	0.000175476	9.53848362	-1.556324959	1.96788311	-0.097703997	0.011539467	0.008773809	-0.549560547	0.199951172	0.740478516	895.62	-40.41427984	-74.32270229	-130.7565653	-76
9861	0	0.381164551	-0.063720703	0.078430176	0.999999046	-0.001079559	0.00017643	0.00030899	9.52911377	-1.593017578	1.960754395	-0.053977978	0.008821489	0.015449527	-0.551513672	0.195556641	0.735351563	895.58	-40.52534911	-74.30136297	-130.7701713	-76
9862	0	0.378290176	-0.06253624	0.077816963	0.999999046	-0.000619888	0.000234604	0.000644684	9.45725441	-1.563405991	1.94542408	-0.03099442	0.011730196	0.032234196	-0.549072266	0.193359375	0.73828125	895.58	-40.6721154	-74.2498047	-130.6920439	-77
9863	0	0.37677002	-0.062133789	0.077453613	0.999999046	-0.000190735	0.000107765	0.001022339	9.419250488	-1.553344727	1.936340332	-0.009536745	0.005388261	0.051116953	-0.551513672	0.193603516	0.741210938	895.62	-40.91843632	-74.18080581	-130.4593586	-79
9864	0	0.381206512	-0.061356544	0.076290131	0.999999046	-0.0002985	2.67E-05	0.001044273	9.530162811	-1.533913612	1.907253265	-0.014925006	0.001335144	0.052213679	-0.549316406	0.195556641	0.738037109	895.66	-41.20328518	-74.11693067	-130.1991197	-79
9865	0	0.38293457	-0.062438965	0.07635498	0.999999046	-0.000717163	0.000332832	0.000827789	9.573364258	-1.560974121	1.908874512	-0.035858162	0.01664162	0.041389474	-0.551513672	0.193603516	0.73828125	895.54	-41.3876934	-74.0428465	-130.0933959	-79
9866	0	0.380641937	-0.063546181	0.077004433	0.999999046	-0.000600815	0.00021553	0.000704765	9.516048431	-1.588654518	1.925110817	-0.030040745	0.010776521	0.035238271	-0.551513672	0.195800781	0.738037109	895.58	-41.55186831	-73.98807714	-129.9945519	-80
9867	0	0.379272461	-0.063659668	0.076965332	0.999999046	-1.53E-05	0.000252724	0.000911713	9.481811523	-1.591491699	1.924133301	-0.00076294	0.012636187	0.045585639	-0.549316406	0.195556641	0.740966797	895.58	-41.69993658	-73.9142937	-129.842812	-81
9868	0	0.378752708	-0.063010216	0.076115608	0.999999046	0.00077343	0.000139236	0.001056671	9.468817711	-1.575255394	1.902890205	0.038671505	0.006961825	0.052833572	-0.551757813	0.195800781	0.740966797	895.58	-41.82930298	-73.83912486	-129.6166426	-81
9869	0	0.381286621	-0.061950684	0.073059082	0.999998093	0.00124836	4.58E-05	0.000835419	9.532165527	-1.54876709	1.826477051	0.062418008	0.002288819	0.041770951	-0.551757813	0.199951172	0.740722656	895.5	-41.86295869	-73.78905487	-129.4331804	-82
9870	0	0.38051033	-0.058560371	0.07281208	0.999999046	0.00066185	-7.63E-05	0.000854492	9.512758255	-1.464009285	1.82030201	0.033092505	-0.003814698	0.042724618	-0.551757813	0.202148438	0.737548828	895.58	-42.00070778	-73.7482678	-129.2112087	-83
9871	0	0.382202148	-0.060913086	0.07232666	0.999999046	-0.000617981	-0.00014782	0.000621796	9.555053711	-1.522827148	1.808166504	-0.030899052	-0.007390977	0.031089787	-0.552001953	0.204345703	0.734619141	895.58	-42.23548033	-73.73161069	-129.040723	-84
9872	0	0.379522324	-0.062579155	0.076957703	0.999999046	-0.001290321	-3.43E-05	0.000152588	9.48805809	-1.564478874	1.923942566	-0.064516086	-0.001716614	0.007629397	-0.549804688	0.206542969	0.739990234	895.66	-42.38039354	-73.7414582	-129.0438696	-85
9873	0	0.381164551	-0.065979004	0.076416016	0.999998093	-0.001872063	1.14E-05	0.000240326	9.52911377	-1.649475098	1.910400391	-0.09360319	0.000572205	0.012016304	-0.552001953	0.202148438	0.740478516	895.54	-42.6053889	-73.74065217	-129.033562	-87
9874	0	0.381555557	-0.069932938	0.077628136	0.999998093	-0.001822472	0.000174522	0.00025177	9.538888931	-1.748323441	1.940703392	-0.091123633	0.008726125	0.012588508	-0.549560547	0.197753906	0.743652344	895.54	-42.78486569	-73.72504202	-129.0649662	-87
9875	0	0.378601074	-0.069335938	0.077270508	0.999999046	-0.001243591	0.000134468	0.00043869	9.465026855	-1.733398438	1.931762695	-0.062179584	0.006723406	0.021934516	-0.551757813	0.195800781	0.740966797	895.48	-42.96252484	-73.69808476	-129.0291921	-89
9876	0	0.379190445	-0.069799423	0.076770782	0.999999046	-0.000393867	-0.00015831	0.000494957	9.479761124	-1.74498558	1.919269562	-0.019693376	-0.007915497	0.02474785	-0.549316406	0.195556641	0.743652344	895.62	-43.13727168	-73.69108301	-128.8949857	-90
9877	0	0.380187988	-0.066833496	0.076660156	0.999999046	-7.25E-05	-0.000174522	9.16E-05	9.504699707	-1.670837402	1.916503906	-0.003623962	-0.00872612	0.004577637	-0.549316406	0.195556641	0.743652344	895.58	-43.16420919	-73.71698765	-128.8764	-92
9878	0	0.381238937	-0.069111824	0.076943398	0.999999046	-0.000432968	-0.000244141	-1.91E-05	9.530973434	-1.727795601	1.923584938	-0.021648408	-0.012207032	-0.000953674	-0.549316406	0.195556641	0.746582031	895.66	-43.21983817	-73.7573014	-128.8709587	-91
9879	0	0.378845215	-0.072021484	0.077148438	0.999999046	5.34E-05	-0.000342369	-6.87E-05	9.471130371	-1.800537109	1.928710938	0.002670288	-0.017118454	-0.003433228	-0.549072266	0.191162109	0.741210938	895.54	-43.23269416	-73.80947699	-128.8524832	-90
9880	0	0.378296852	-0.071718216	0.076590538	0.999999046	0.000977516	-0.000419617	0.000174522	9.457421303	-1.792955399	1.914763451	0.048875818	-0.020980839	0.008726122	-0.549316406	0.195556641	0.746582031	895.62	-43.23133594	-73.84880338	-128.7382549	-90
9881	0	0.380981445	-0.070251465	0.076721191	0.999998093	0.001408577	-0.00043869	0.000102997	9.524536133	-1.756286621	1.918029785	0.070428874	-0.021934517	0.005149843	-0.547119141	0.195556641	0.743652344	895.54	-43.16586435	-73.89522446	-128.6396079	-90
9882	0	0.379935265	-0.066820145	0.075903893	0.999998093	0.001378059	-0.000365257	0.000121117	9.498381615	-1.670503616	1.897597313	0.068902993	-0.018262869	0.006055834	-0.549560547	0.197753906	0.743652344	895.58	-43.08947557	-73.93410991	-128.5559964	-89
9883	0	0.378173828	-0.066772461	0.076599121	0.999998093	0.001320839	-0.000457764	-7.63E-06	9.454345703	-1.669311523	1.914978027	0.066041968	-0.022888191	-0.00038147	-0.547119141	0.199951172	0.743164063	895.58	-43.00750897	-73.99077387	-128.4849214	-89
9884	0	0.383247375	-0.065410614	0.074528694	0.999998093	0.00129509	-0.000641823	-0.000175476	9.581184387	-1.63526535	1.863217354	0.064754509	-0.032091152	-0.008773807	-0.549804688	0.202148438	0.74609375	895.54	-42.92982477	-74.07611004	-128.4125787	-88
9885	0	0.382141113	-0.067321777	0.075744629	0.999998093	0.001439095	-0.000511169	-0.000427246	9.553527832	-1.683044434	1.893615723	0.071954757	-0.025558482	-0.021362314	-0.542724609	0.204101563	0.745605469	895.54	-42.7254954	-74.17007334	-128.4546294	-88
9886	0	0.377879143	-0.063726425	0.076762199	0.999998093	0.00142765	-0.000361443	-0.000199318	9.446978569	-1.593160629	1.919054985	0.071382549	-0.018072135	-0.0099659	-0.545166016	0.206298828	0.739746094	895.5	-42.54780007	-74.23362229	-128.4703789	-87
9887	0	0.377868652	-0.066101074	0.075805664	0.999999046	0.000968933	-0.000281334	-0.000190735	9.446716309	-1.652526855	1.895141602	0.048446664	-0.014066699	-0.009536745	-0.545166016	0.206298828	0.742675781	895.54	-42.4028509	-74.28959402	-128.5069563	-86
9888	0	0.379706383	-0.067152977	0.075415611	0.999999046	0.000760078	-0.000297546	-0.000125885	9.492659569	-1.678824425	1.885390282	0.038003926	-0.014877321	-0.006294251	-0.545410156	0.208740234	0.748046875	895.54	-42.30579886	-74.34176642	-128.518562	-86
9889	0	0.378540039	-0.065063477	0.074279785	0.999999046	0.000656128	-0.000144005	0.000198364	9.463500977	-1.626586914	1.856994629	0.032806399	-0.007200242	0.009918214	-0.545410156	0.212890625	0.744873047	895.54	-42.27663127	-74.35585201	-128.4717826	-85
9890	0	0.378475189	-0.064565659	0.075596809	0.999999046	0.000396729	-0.000179291	0.00031662	9.46187973	-1.614141464	1.889920235	0.019836427	-0.008964539	0.015830994	-0.54296875	0.210693359	0.744873047	895.48	-42.32286021	-74.3637026	-128.3780277	-85
9891	0	0.379699707	-0.064819336	0.075744629	0.999999046	-0.000289917	-0.000109673	0.000396729	9.492492676	-1.620483398	1.893615723	-0.01449585	-0.005483628	0.019836427	-0.547607422	0.2109375	0.745117188	895.44	-42.45288516	-74.35932825	-128.2789972	-85
9892	0	0.380699158	-0.068889618	0.076230049	0.999999046	-0.000277519	1.53E-05	0.000347137	9.517478943	-1.722240448	1.905751228	-0.013875962	0.000762939	0.017356873	-0.54296875	0.210693359	0.747802734	895.54	-42.53238994	-74.34794351	-128.2309071	-84
9893	0	0.380859375	-0.069213867	0.075683594	0.999999046	0.000183105	4.29E-05	0.000286102	9.521484375	-1.73034668	1.892089844	0.009155274	0.002145767	0.014305115	-0.543212891	0.212890625	0.744873047	895.66	-42.53358398	-74.33872235	-128.2092146	-84
9894	0	0.379227638	-0.066840172	0.076349258	0.999999046	0.000343323	8.20E-05	0.000372887	9.480690956	-1.671004295	1.908731461	0.017166138	0.0041008	0.018644334	-0.543212891	0.212890625	0.744873047	895.54	-42.53189523	-74.31930082	-128.1716592	-84
9895	0	0.378601074	-0.065734863	0.074890137	0.999999046	0.000476837	0.000119209	0.000526428	9.465026855	-1.643371582	1.872253418	0.02384186	0.005960465	0.026321413	-0.545410156	0.210693359	0.7421875	895.5	-42.55092248	-74.28475973	-128.0970369	-84
9896	0	0.378698349	-0.064598083	0.074979782	0.999999046	0.000433922	-1.72E-05	0.000473022	9.467458725	-1.614952087	1.874494553	0.021696092	-0.000858307	0.023651125	-0.545410156	0.212890625	0.747802734	895.5	-42.59625359	-74.26582601	-127.9999849	-84
9897	0	0.382995605	-0.063293457	0.073730469	0.999999046	-0.00018692	9.63E-05	0.000400543	9.574890137	-1.582336426	1.843261719	-0.009346009	0.004816055	0.020027161	-0.543212891	0.217285156	0.744384766	895.54	-42.65958447	-74.24304667	-127.9576041	-84
9898	0	0.382133484	-0.067046165	0.074022293	0.999999046	-0.00050354	0.000232697	2.57E-05	9.553337097	-1.676154137	1.850557327	-0.025177003	0.011634827	0.00128746	-0.545654297	0.215087891	0.747558594	895.6	-42.61005181	-74.23783113	-128.0706812	-84
9899	0	0.378601074	-0.065979004	0.076660156	0.999999046	-0.000442505	0.000226021	6.87E-05	9.465026855	-1.649475098	1.916503906	-0.022125245	0.011301041	0.003433228	-0.547851563	0.213134766	0.7421875	895.66	-42.56811723	-74.22969046	-128.1686771	-84
9900	0	0.379776955	-0.069579124	0.077013016	0.999999046	-0.0001688	8.58E-05	0.000209808	9.494423866	-1.739478111	1.925325394	-0.008440018	0.004291534	0.010490418	-0.547851563	0.215087891	0.741943359	895.58	-42.57587889	-74.22218755	-128.1822451	-84
9901	0	0.381347656	-0.069885254	0.074279785	0.999999046	0.000331879	8.87E-05	0.000190735	9.533691406	-1.747131348	1.856994629	0.016593934	0.004434586	0.009536743	-0.547851563	0.213134766	0.745117188	895.62	-42.52059248	-74.21580012	-128.2021396	-83
9902	0	0.379417419	-0.064976692	0.074327469	0.999999046	0.000547409	-1.14E-05	0.000450134	9.485435486	-1.624417305	1.858186722	0.027370455	-0.000572205	0.022506716	-0.547851563	0.215087891	0.741943359	895.66	-42.54563844	-74.19779835	-128.112686	-83
9903	0	0.380126953	-0.062683105	0.076538086	0.999999046	5.34E-05	2.77E-05	0.000358582	9.503173828	-1.567077637	1.913452148	0.002670288	0.001382828	0.017929078	-0.545410156	0.212890625	0.744873047	895.54	-42.58869004	-74.18361498	-128.0635376	-83
9904	0	0.379587173	-0.065266609	0.076381683	0.999999046	-0.00090313	4.20E-05	0.000227928	9.489679337	-1.63166523	1.909542084	-0.045156485	0.002098084	0.01139641	-0.547851563	0.215087891	0.741943359	895.62	-42.6982773	-74.17829586	-128.05874	-83
9905	0	0.380859375	-0.069641113	0.076416016	0.999999046	-0.000843048	2.38E-05	0.000263214	9.521484375	-1.741027832	1.910400391	-0.04215241	0.001192093	0.013160707	-0.550292969	0.215332031	0.744873047	895.54	-42.81671873	-74.17156747	-128.0377133	-83
9906	0	0.380329132	-0.07174015	0.075884819	0.999999046	-0.000320435	4.01E-05	0.000274658	9.508228302	-1.793503761	1.897120476	-0.016021729	0.002002716	0.013732911	-0.550048828	0.215332031	0.739257813	895.58	-42.87482877	-74.16234217	-128.0172059	-82
9907	0	0.38067627	-0.068725586	0.075805664	0.999999046	0.000324249	-2.86E-06	0.000236511	9.516906738	-1.718139648	1.895141602	0.016212464	-0.000143051	0.011825562	-0.547851563	0.213134766	0.745117188	895.44	-42.8598288	-74.15958192	-127.9962984	-82
9908	0	0.37948513	-0.066598892	0.075052261	0.999999046	0.000365257	-2.48E-05	0.000202179	9.487128258	-1.664972305	1.876306534	0.018262864	-0.001239777	0.010108948	-0.550048828	0.215332031	0.739257813	895.48	-42.83611058	-74.161321	-127.9793062	-82
9909	0	0.380737305	-0.067687988	0.073547363	0.999999046	0.000205994	6.20E-05	0.000282288	9.518432617	-1.692199707	1.838684082	0.010299683	0.003099442	0.01411438	-0.547851563	0.217285156	0.741943359	895.54	-42.83099387	-74.14954099	-127.96189	-82
9910	0	0.379042625	-0.065429688	0.075023651	0.999999046	0.00028801	-8.20E-05	0.000217438	9.476065636	-1.635742188	1.875591278	0.014400483	-0.0041008	0.010871887	-0.547851563	0.215332031	0.744873047	895.58	-42.83674941	-74.15492934	-127.9237565	-82
9911	0	0.383239746	-0.065246582	0.076721191	0.999999046	-0.000236511	-0.000113487	9.92E-05	9.580993652	-1.631164551	1.918029785	-0.011825562	-0.005674362	0.004959107	-0.545410156	0.215087891	0.739013672	895.66	-42.875955	-74.17218931	-127.9130854	-82
9912	0	0.37921524	-0.068716049	0.078126907	0.999999046	-0.000412941	0.000102997	-0.000553131	9.480381012	-1.71790123	1.953172684	-0.020647051	0.005149842	-0.027656557	-0.547851563	0.217285156	0.741943359	895.56	-42.68186864	-74.22179357	-128.1656801	-82
9913	0	0.379394531	-0.07043457	0.077026367	0.999999046	-0.000247955	0.000130653	-0.000492096	9.484863281	-1.760864258	1.92565918	-0.012397767	0.006532669	-0.024604799	-0.547851563	0.215332031	0.744873047	895.62	-42.47854782	-74.26384466	-128.4084621	-82
9914	0	0.379384995	-0.072662354	0.075379372	0.999999046	0.000246048	0.000148773	-0.0001297	9.484624863	-1.816558838	1.884484291	0.012302399	0.00743866	-0.006484985	-0.547851563	0.213134766	0.7421875	895.54	-42.32263195	-74.27588683	-128.543405	-82
9915	0	0.378479004	-0.06640625	0.074890137	0.999999046	0.000869751	-0.000247002	0.000305176	9.461975098	-1.66015625	1.872253418	0.043487555	-0.012350084	0.015258791	-0.547851563	0.215087891	0.741943359	895.54	-42.33479287	-74.28781247	-128.4293859	-82
9916	0	0.380552292	-0.063943863	0.075849533	0.999999046	0.000567436	-0.00031662	0.000293732	9.513807297	-1.598596573	1.896238327	0.028371813	-0.015830995	0.014686586	-0.550292969	0.217529297	0.739013672	895.58	-42.39723881	-74.30652844	-128.2990027	-82
9917	0	0.380126953	-0.061889648	0.07598877	0.999999046	-3.81E-06	-0.000212669	0.000240326	9.503173828	-1.547241211	1.899719238	-0.000190735	-0.010633469	0.012016297	-0.548095703	0.217285156	0.744628906	895.58	-42.4801232	-74.32061645	-128.2154706	-82
9918	0	0.38189888	-0.062990189	0.076251984	0.999999046	-0.001272202	7.63E-06	-8.77E-05	9.547472	-1.574754715	1.906299591	-0.063610094	0.00038147	-0.004386903	-0.547851563	0.215332031	0.744873047	895.5	-42.54837587	-74.34151169	-128.2980327	-82
9919	0	0.382873535	-0.068481445	0.075866699	0.999998093	-0.001704216	0.00019455	-0.000526428	9.571838379	-1.712036133	1.89666748	-0.085210846	0.009727483	-0.026321425	-0.547851563	0.213134766	0.747802734	895.54	-42.48208289	-74.38045801	-128.5716703	-82
9920	0	0.38041687	-0.071695328	0.075342178	0.999999046	-0.001143456	0.000156403	-0.000743866	9.510421753	-1.792383194	1.883554459	-0.057172793	0.007820132	-0.03719331	-0.547607422	0.208740234	0.742431641	895.66	-42.2956847	-74.43900254	-128.903409	-82
9921	0	0.377685547	-0.071777344	0.076782227	0.999999046	-0.000335693	-0.000121117	-0.00019455	9.442138672	-1.794433594	1.919555664	-0.016784668	-0.006055832	-0.009727478	-0.547607422	0.206542969	0.745605469	895.48	-42.26033098	-74.47819341	-128.9824092	-82
9922	0	0.378279686	-0.068752289	0.076276779	0.999999046	0.000473022	-0.000247955	5.25E-05	9.456992149	-1.71880722	1.906919479	0.023651124	-0.012397767	0.002622604	-0.547607422	0.206542969	0.748291016	895.5	-42.24319263	-74.50886965	-128.9463588	-81
9923	0	0.380126953	-0.065063477	0.075744629	0.999999046	0.000408173	-0.000109673	1.14E-05	9.503173828	-1.626586914	1.893615723	0.020408631	-0.005483627	0.000572205	-0.547607422	0.206542969	0.745605469	895.5	-42.18243441	-74.53090758	-128.9632205	-82
9924	0	0.382399559	-0.062876701	0.073636055	0.999999046	-0.000319481	7.25E-05	8.01E-05	9.559988976	-1.571917534	1.840901375	-0.015974045	0.003623962	0.004005432	-0.547607422	0.208740234	0.745361328	895.48	-42.17534045	-74.53229732	-129.0106319	-83
9925	0	0.380310059	-0.065307617	0.074768066	0.999999046	-0.000556946	0.000359535	-0.000289917	9.507751465	-1.63269043	1.86920166	-0.027847292	0.017976762	-0.014495851	-0.549804688	0.206542969	0.745605469	895.58	-42.00208182	-74.537623	-129.2589112	-81
9926	0	0.379133224	-0.065600395	0.076309204	0.999999046	-0.001056671	0.000303268	-0.000401497	9.478330612	-1.64000988	1.907730103	-0.052833569	0.015163425	-0.020074849	-0.549804688	0.206542969	0.745605469	895.54	-41.86695648	-74.55597148	-129.5268201	-83
9927	0	0.380310059	-0.072875977	0.075073242	0.999999046	-0.000404358	0.000439644	-0.00012207	9.507751465	-1.821899414	1.876831055	-0.020217897	0.021982194	-0.006103516	-0.549804688	0.204345703	0.748779297	895.58	-41.70677839	-74.54082608	-129.7434935	-85
9928	0	0.381481171	-0.067838669	0.074986458	0.999999046	0.000666618	0.000411987	8.39E-05	9.537029266	-1.695966721	1.874661446	0.033330921	0.020599367	0.004196167	-0.549804688	0.204345703	0.742919922	895.66	-41.49632101	-74.51207856	-129.8850425	-85
9929	0	0.379455566	-0.062438965	0.073974609	0.999999046	1.14E-05	0.000275612	0.000125885	9.48638916	-1.560974121	1.849365234	0.000572205	0.013780594	0.006294251	-0.549804688	0.204345703	0.748779297	895.54	-41.41176623	-74.49185236	-129.9738893	-83
9930	0	0.377872467	-0.063448906	0.07448864	0.999999046	-0.001102448	0.000282288	6.01E-05	9.446811676	-1.586222649	1.862215996	-0.055122387	0.014114383	0.003004075	-0.549804688	0.202148438	0.74609375	895.6	-41.43286438	-74.47604153	-130.0855312	-82
9931	0	0.379394531	-0.066711426	0.076538086	0.999998093	-0.001414299	0.000137329	0.000171661	9.484863281	-1.667785645	1.913452148	-0.070714975	0.006866457	0.008583072	-0.552001953	0.202392578	0.74609375	895.62	-41.56398697	-74.46409115	-130.1199279	-84
9932	0	0.379591942	-0.071517944	0.077599525	0.999999046	-0.000630379	3.62E-05	0.000102043	9.489798546	-1.787948608	1.939988136	-0.031518938	0.001811981	0.005102158	-0.554199219	0.202392578	0.743408203	895.58	-41.61213817	-74.46578247	-130.1472932	-84
9933	0	0.378295898	-0.07043457	0.078308105	0.999999046	0.000171661	-0.000201225	0.000171661	9.457397461	-1.760864258	1.957702637	0.008583069	-0.010061264	0.008583069	-0.551757813	0.197998047	0.740722656	895.58	-41.65541515	-74.48219086	-130.0847715	-85
9934	0	0.379462242	-0.069256783	0.077567101	0.999999046	0.001153946	-0.00028801	0.000247002	9.486556053	-1.731419563	1.939177513	0.05769731	-0.014400486	0.012350085	-0.551757813	0.199951172	0.740722656	895.58	-41.63375876	-74.50005664	-129.9727289	-85
9935	0	0.379394531	-0.064331055	0.075805664	0.999998093	0.001400948	-0.000293732	0.000404358	9.484863281	-1.608276367	1.895141602	0.070047404	-0.01468659	0.020217903	-0.552001953	0.202148438	0.740478516	895.48	-41.63410169	-74.50643441	-129.808466	-87
9936	0	0.379448891	-0.062777519	0.075941086	0.999999046	0.000828743	-0.000225067	0.000312805	9.486222267	-1.569437981	1.898527145	0.041437155	-0.011253359	0.015640261	-0.552001953	0.204589844	0.74609375	895.48	-41.65273039	-74.51393579	-129.6932078	-87
9937	0	0.381103516	-0.063049316	0.074951172	0.999999046	-0.000141144	-8.68E-05	0.000301361	9.527587891	-1.57623291	1.873779297	-0.00705719	-0.004339218	0.015068054	-0.549804688	0.204345703	0.742919922	895.66	-41.74086041	-74.51052953	-129.6211022	-88
9938	0	0.380952835	-0.068489075	0.076756477	0.999999046	8.58E-05	-0.000162125	-6.58E-05	9.523820877	-1.712226868	1.918911934	0.004291534	-0.008106232	-0.003290176	-0.549804688	0.204345703	0.745849609	895.5	-41.71074622	-74.541389	-129.6447903	-90
9939	0	0.378967285	-0.065917969	0.077880859	0.999999046	0.000572205	-0.000349998	-0.000179291	9.474182129	-1.647949219	1.947021484	0.028610232	-0.017499925	-0.008964539	-0.549804688	0.204345703	0.745849609	895.5	-41.64129728	-74.5968109	-129.6515104	-91
9940	0	0.379654884	-0.067464828	0.076104164	0.999999046	0.000710487	-0.000240326	-2.38E-05	9.491372108	-1.686620712	1.902604103	0.035524372	-0.012016298	-0.001192093	-0.549804688	0.206542969	0.748535156	895.5	-41.57421558	-74.63085768	-129.6392797	-91
9941	0	0.38104248	-0.065063477	0.075683594	0.999999046	0.001029968	-0.000349998	-3.81E-05	9.526062012	-1.626586914	1.892089844	0.051498423	-0.017499927	-0.001907349	-0.550048828	0.208740234	0.745605469	895.5	-41.49642975	-74.67536195	-129.6001509	-90
9942	0	0.380732536	-0.062746048	0.074263573	0.999999046	0.000587463	-0.000198364	2.96E-05	9.518313408	-1.568651199	1.856589317	0.029373171	-0.009918214	0.001478195	-0.547607422	0.208740234	0.742431641	895.5	-41.44847089	-74.70178786	-129.5827293	-90
9943	0	0.38067627	-0.062683105	0.076171875	0.999999046	-0.000137329	8.58E-06	-0.00018692	9.516906738	-1.567077637	1.904296875	-0.006866455	0.000429153	-0.009346008	-0.547607422	0.206542969	0.745605469	895.48	-41.35772437	-74.72682092	-129.6959364	-91
9944	0	0.379843712	-0.064087868	0.074999809	0.999999046	-0.000817299	0.000116348	-0.000118256	9.496092796	-1.602196693	1.874995232	-0.040864949	0.005817414	-0.005912781	-0.547363281	0.206542969	0.742675781	895.48	-41.33647912	-74.73731254	-129.8176397	-92
9945	0	0.380310059	-0.067199707	0.07598877	0.999999046	-0.000595093	8.49E-05	-0.00019455	9.507751465	-1.679992676	1.899719238	-0.029754641	0.004243851	-0.009727479	-0.547363281	0.206542969	0.742675781	895.58	-41.2746385	-74.75608078	-129.9550084	-91
9946	0	0.381103516	-0.067687988	0.076171875	0.999999046	-0.00012207	4.58E-05	-0.000255585	9.527587891	-1.692199707	1.904296875	-0.006103516	0.002288818	-0.012779236	-0.547607422	0.206542969	0.748291016	895.5	-41.15024948	-74.78257747	-130.1011342	-91
9947	0	0.381408691	-0.065612793	0.075378418	0.999999046	0.000160217	-6.68E-06	-0.000339508	9.535217285	-1.640319824	1.884460449	0.008010864	-0.000333786	-0.016975403	-0.552001953	0.204345703	0.743164063	895.54	-40.98111421	-74.81973312	-130.2602957	-91
9948	0	0.380126953	-0.064880371	0.076171875	0.999999046	0.000275612	5.72E-05	-0.000514984	9.503173828	-1.622009277	1.904296875	0.013780595	0.002861023	-0.025749208	-0.549560547	0.204345703	0.740234375	895.56	-40.72416297	-74.8642244	-130.4965516	-90
9949	0	0.378356934	-0.064025879	0.074829102	0.999999046	0.000137329	0.000290871	-0.000499725	9.45892334	-1.600646973	1.870727539	0.006866455	0.014543534	-0.024986269	-0.549804688	0.204345703	0.742919922	895.54	-40.42251077	-74.88685728	-130.7955072	-90
9950	0	0.380371094	-0.063049316	0.072021484	0.999999046	-0.000465393	0.000453949	-0.000133514	9.509277344	-1.57623291	1.800537109	-0.023269655	0.02269745	-0.006675721	-0.552001953	0.204589844	0.74609375	895.6	-40.26373008	-74.8678413	-131.0180044	-91
9951	0	0.378645897	-0.062711716	0.074555397	0.999991417	-0.000453949	-9.63E-05	-0.000204086	9.466147423	-1.567792892	1.863884926	-0.02269745	-0.004816056	-0.010204316	-0.552001953	0.202392578	0.743408203	895.54	-40.23185796	-74.90205211	-131.1077764	-92
9952	0	0.378928185	-0.062871933	0.07715416	0.999999046	-0.000536919	-0.000249863	-0.000107765	9.473204613	-1.571798325	1.928853989	-0.026845934	-0.012493134	-0.00538826	-0.549804688	0.202148438	0.748779297	895.58	-40.28269479	-74.94242094	-131.1216666	-91
9953	0	0.380310059	-0.066711426	0.078186035	0.999999046	4.96E-05	-0.000437737	6.48E-05	9.507751465	-1.667785645	1.954650879	0.002479553	-0.021886826	0.003242493	-0.549804688	0.202148438	0.74609375	895.5	-40.37486307	-74.98611317	-131.0232104	-91
9954	0	0.379207611	-0.063396454	0.074685097	0.999999046	0.000297546	-0.000436783	0.00026989	9.480190277	-1.584911346	1.867127419	0.01487732	-0.021839143	0.013494492	-0.549804688	0.202148438	0.748779297	895.58	-40.50597611	-75.01435841	-130.8551587	-91
9955	0	0.380371094	-0.063049316	0.07409668	0.999999046	-0.000125885	-0.000330925	0.000225067	9.509277344	-1.57623291	1.852416992	-0.006294251	-0.01654625	0.011253357	-0.549560547	0.202148438	0.743164063	895.5	-40.64235018	-75.03659622	-130.7318452	-90
9956	0	0.379600525	-0.062324524	0.076636314	0.999999046	-0.000496864	-0.000274658	-5.34E-05	9.490013123	-1.558113098	1.91590786	-0.024843217	-0.013732911	-0.002670288	-0.547363281	0.199951172	0.74609375	895.54	-40.71498814	-75.07456085	-130.7186216	-90
9957	0	0.379577637	-0.065856934	0.077209473	0.999999046	-0.000591278	-0.000292778	-5.34E-05	9.489440918	-1.64642334	1.930236816	-0.029563906	-0.014638902	-0.002670288	-0.547119141	0.199951172	0.743164063	895.48	-40.80395806	-75.11382114	-130.6995844	-91
9958	0	0.380910873	-0.06865406	0.076660156	0.999999046	0.000102997	-0.000282288	-1.24E-05	9.522771835	-1.716351509	1.916503906	0.005149841	-0.01411438	-0.000619888	-0.547363281	0.199951172	0.749023438	895.56	-40.82465983	-75.14876578	-130.6690267	-91
9959	0	0.380126953	-0.066894531	0.072875977	0.999999046	0.000869751	-0.000243187	0.000167847	9.503173828	-1.672363281	1.821899414	0.043487555	-0.012159349	0.008392335	-0.547363281	0.199951172	0.749023438	895.6	-40.80641244	-75.16667828	-130.5880101	-90
9960	0	0.380630493	-0.060544968	0.074809074	0.999999046	0.001088142	-0.00030899	0.000347137	9.515762329	-1.513624191	1.87022686	0.054407132	-0.015449528	0.017356877	-0.547363281	0.202148438	0.748779297	895.54	-40.84029447	-75.17686228	-130.4271	-90
9961	0	0.38067627	-0.059814453	0.074401855	0.999999046	-0.000102997	-6.39E-05	1.53E-05	9.516906738	-1.495361328	1.860046387	-0.005149841	-0.003194809	0.000762939	-0.547363281	0.204345703	0.745849609	895.6	-40.8322289	-75.1906888	-130.4505537	-90
9962	0	0.383307457	-0.063381195	0.07110405	0.999999046	-0.000776291	-8.39E-05	-6.10E-05	9.582686424	-1.584529877	1.777601242	-0.038814549	-0.004196167	-0.003051758	-0.549804688	0.202148438	0.74609375	895.5	-40.88250861	-75.21203703	-130.4936753	-90
9963	0	0.381103516	-0.06652832	0.074523926	0.999999046	-0.000125885	-7.15E-05	-0.000179291	9.527587891	-1.663208008	1.863098145	-0.006294251	-0.003576279	-0.008964539	-0.547363281	0.202148438	0.748779297	895.56	-40.81632104	-75.2409687	-130.580148	-90
9964	0	0.37942791	-0.064092636	0.074757576	0.999999046	0.000344276	-6.10E-05	8.68E-05	9.485697746	-1.602315903	1.8689394	0.017213822	-0.003051758	0.004339218	-0.547363281	0.202148438	0.751708984	895.48	-40.78089353	-75.24889079	-130.579192	-91
9965	0	0.381469727	-0.063964844	0.073913574	0.999999046	0.000526428	8.11E-05	9.16E-05	9.536743164	-1.599121094	1.847839355	0.026321412	0.004053116	0.004577637	-0.545166016	0.202148438	0.748535156	895.56	-40.68609309	-75.24402595	-130.6180413	-92
9966	0	0.380835533	-0.062495232	0.071598053	0.999999046	0.000326157	6.10E-05	0.00014782	9.520888329	-1.562380791	1.789951324	0.016307831	0.003051758	0.007390976	-0.547363281	0.199951172	0.751708984	895.54	-40.63893647	-75.23672655	-130.6315981	-92
9967	0	0.381225586	-0.063598633	0.072875977	0.999999046	0.000114441	3.15E-05	0.000236511	9.530639648	-1.58996582	1.821899414	0.005722046	0.001573563	0.011825562	-0.547363281	0.202148438	0.748779297	895.54	-40.65408669	-75.22533743	-130.6055435	-92
9968	0	0.378932953	-0.062357903	0.073889732	0.999999046	8.68E-05	1.91E-05	0.000342369	9.473323822	-1.558947563	1.847243309	0.004339218	0.000953674	0.017118454	-0.547363281	0.202148438	0.745849609	895.58	-40.71078196	-75.20705128	-130.5398362	-92
9969	0	0.381103516	-0.062805176	0.073669434	0.999999046	-0.000442505	0.000172615	0.000217438	9.527587891	-1.570129395	1.84173584	-0.022125245	0.008630753	0.010871888	-0.547363281	0.204345703	0.745849609	895.5	-40.74361809	-75.18472573	-130.5613733	-92
9970	0	0.38105011	-0.064987183	0.071056366	0.999999046	-0.000421524	0.000108719	0.000304222	9.526252747	-1.624679565	1.776409149	-0.021076203	0.005435944	0.015211106	-0.547363281	0.202148438	0.745849609	895.56	-40.82127932	-75.16145479	-130.5343165	-91
9971	0	0.380126953	-0.064025879	0.070800781	0.999999046	0.000102997	0.000100136	0.000202179	9.503173828	-1.600646973	1.770019531	0.005149841	0.00500679	0.010108948	-0.552246094	0.204589844	0.748779297	895.68	-40.80840879	-75.14660627	-130.5386845	-92
9972	0	0.380819321	-0.06221199	0.072902679	0.999999046	-5.05E-05	-4.96E-05	0.000163078	9.520483017	-1.555299759	1.822566986	-0.002527237	-0.002479553	0.008153915	-0.549804688	0.202148438	0.74609375	895.54	-40.84270456	-75.14770269	-130.5125907	-92
9973	0	0.380126953	-0.062927246	0.073974609	0.999999046	0	-0.000212669	0.0001297	9.503173828	-1.573181152	1.849365234	0	-0.010633469	0.006484985	-0.547363281	0.204345703	0.745849609	895.5	-40.90647948	-75.16538591	-130.4497931	-91
9974	0	0.381973267	-0.062538147	0.074726105	0.999999046	0.000213623	-0.000226974	0.000277519	9.549331665	-1.563453674	1.868152618	0.010681153	-0.011348725	0.013875962	-0.544921875	0.202148438	0.745849609	895.54	-40.99814232	-75.17314575	-130.3330545	-91
9975	0	0.380249023	-0.063232422	0.075866699	0.999999046	0.000358582	-2.96E-05	5.72E-05	9.506225586	-1.580810547	1.89666748	0.017929078	-0.001478195	0.002861023	-0.545166016	0.204345703	0.751220703	895.54	-40.94497921	-75.1802417	-130.3488356	-91
9976	0	0.381039619	-0.062307358	0.074544907	0.999999046	-0.000193596	0.000286102	0.00014782	9.525990486	-1.557683945	1.863622665	-0.009679795	0.014305115	0.007390976	-0.547607422	0.204345703	0.748535156	895.58	-40.89506233	-75.15316435	-130.4267149	-90
9977	0	0.382263184	-0.06451416	0.073791504	0.999999046	-0.000766754	0.0004282	-6.87E-05	9.55657959	-1.612854004	1.844787598	-0.038337712	0.021409991	-0.003433228	-0.547607422	0.204345703	0.748535156	895.54	-40.80045774	-75.1299146	-130.6187171	-90
9978	0	0.379825592	-0.066350937	0.077370644	0.999999046	-0.000732422	0.000389099	-0.000119209	9.495639801	-1.658773422	1.93426609	-0.036621098	0.019454958	-0.005960465	-0.547363281	0.202148438	0.745849609	895.56	-40.69688806	-75.11348227	-130.8160415	-90
9979	0	0.38067627	-0.067932129	0.076843262	0.999999046	2.29E-05	0.000340462	-2.29E-05	9.516906738	-1.698303223	1.921081543	0.001144409	0.017023087	-0.001144409	-0.549560547	0.199951172	0.74609375	895.5	-40.55271313	-75.09370597	-130.9660397	-88
9980	0	0.379956245	-0.064982414	0.074845314	0.999999046	0.000998497	0.000102997	8.39E-05	9.498906136	-1.624560356	1.871132851	0.049924859	0.005149842	0.004196168	-0.549560547	0.202148438	0.743164063	895.5	-40.3987193	-75.08648443	-131.0103817	-90
9981	0	0.378417969	-0.062255859	0.071838379	0.999999046	0.001228333	-0.000212669	0.0001297	9.460449219	-1.556396484	1.795959473	0.061416642	-0.010633471	0.006484987	-0.549804688	0.204345703	0.745849609	895.6	-40.32185066	-75.10349477	-130.9476803	-92
9982	0	0.381057739	-0.06186676	0.074451447	0.999999046	0.000875473	-0.000219345	-4.20E-05	9.526443481	-1.546669006	1.861286163	0.043773657	-0.010967256	-0.002098084	-0.547607422	0.204345703	0.748535156	895.5	-40.23082252	-75.13385775	-130.9415403	-92
9983	0	0.383239746	-0.062194824	0.075561523	0.999999046	7.63E-06	5.05E-05	-0.000209808	9.580993652	-1.554870605	1.889038086	0.00038147	0.002527237	-0.010490418	-0.552001953	0.204589844	0.74609375	895.44	-40.10834298	-75.15298938	-131.0707782	-92
9984	0	0.380694389	-0.062644958	0.076576233	0.999999046	-0.00074482	0.000543594	-0.000248909	9.517359734	-1.566123962	1.914405823	-0.037240988	0.027179722	-0.012445452	-0.549804688	0.204345703	0.748779297	895.56	-39.92187876	-75.13153698	-131.3553087	-92
9985	0	0.380310059	-0.062561035	0.077758789	0.999999046	-0.000518799	0.000466347	-0.000328064	9.507751465	-1.564025879	1.943969727	-0.025939944	0.023317339	-0.0164032	-0.549560547	0.202148438	0.743164063	895.42	-39.70494398	-75.12229246	-131.6446314	-91
9986	0	0.382787704	-0.063849449	0.071455956	0.999999046	-0.000598907	0.000339508	-0.000439644	9.569692612	-1.596236229	1.786398888	-0.029945377	0.016975405	-0.021982195	-0.552001953	0.202148438	0.740478516	895.58	-39.4959345	-75.13221924	-131.9351998	-87
9987	0	0.380126953	-0.067321777	0.072387695	0.999999046	0.000457764	-4.48E-05	-0.000709534	9.503173828	-1.683044434	1.809692383	0.022888186	-0.002241135	-0.035476689	-0.552001953	0.200195313	0.746337891	895.54	-39.18137147	-75.19538612	-132.209915	-86
9988	0	0.376986504	-0.061532021	0.073447227	0.999999046	0.000752449	-0.000289917	-0.000350952	9.42466259	-1.538300514	1.836180687	0.037622457	-0.014495851	-0.01754761	-0.552001953	0.202148438	0.740478516	895.54	-39.01937589	-75.25413763	-132.2916731	-85
9989	0	0.378662109	-0.061462402	0.075439453	0.999999046	1.14E-05	-0.000189781	-0.000419617	9.466552734	-1.536560059	1.885986328	0.000572205	-0.00948906	-0.020980836	-0.549560547	0.202148438	0.743164063	895.54	-38.89083861	-75.30878332	-132.4266249	-85
9990	0	0.380268097	-0.061691284	0.075478554	0.999999046	-0.000860214	-9.35E-05	-0.000530243	9.506702423	-1.542282104	1.886963844	-0.043010719	-0.004673005	-0.026512151	-0.549560547	0.199951172	0.743408203	895.5	-38.79730369	-75.36263374	-132.6286772	-85
9991	0	0.378845215	-0.063110352	0.07611084	0.999998093	-0.001791954	9.92E-05	-0.000255585	9.471130371	-1.577758789	1.902770996	-0.089597751	0.004959109	-0.012779243	-0.551757813	0.197998047	0.746582031	895.56	-38.85123031	-75.37934834	-132.7886532	-85
9992	0	0.374409676	-0.070651054	0.079471588	0.999998093	-0.001581192	0.000149727	-0.000457764	9.36024189	-1.76627636	1.986789703	-0.079059637	0.007486347	-0.022888194	-0.551757813	0.193603516	0.749755859	895.58	-38.79864249	-75.40546515	-133.0339282	-85
9993	0	0.374267578	-0.074401855	0.076049805	0.999999046	-0.000175476	-0.000658989	-0.000511169	9.356689453	-1.860046387	1.901245117	-0.008773805	-0.032949452	-0.025558475	-0.549316406	0.19140625	0.744140625	895.54	-38.79138881	-75.5070243	-133.0659671	-84
9994	0	0.377095222	-0.08826828	0.08528614	0.999986649	0.004628181	-0.001793861	-0.001102448	9.427380562	-2.206707001	2.132153511	0.23141007	-0.089693456	-0.055122613	-0.551757813	0.19140625	0.749755859	895.54	-38.34467665	-75.7511134	-132.9839828	-84
9995	0	0.367431641	-0.084350586	0.091308594	0.999954224	0.00918293	-0.001358032	-0.002174377	9.185791016	-2.108764648	2.282714844	0.459153456	-0.06790264	-0.108720519	-0.549560547	0.199951172	0.74609375	895.5	-36.85492207	-76.02924703	-133.439453	-83
9996	0	0.372061729	-0.097356796	0.108171463	0.999904633	0.013441086	-0.00086689	-0.002758026	9.301543236	-2.433919907	2.704286575	0.672075465	-0.043345863	-0.137905651	-0.550048828	0.2109375	0.745361328	895.54	-34.47953421	-76.29406023	-134.3043795	-81
9997	0	0.38861084	-0.097229004	0.112609863	0.999791145	0.020210266	0.000546455	-0.002792358	9.715270996	-2.430725098	2.815246582	1.010583474	0.027324666	-0.139627615	-0.551025391	0.232666016	0.735107422	895.56	-30.89019654	-76.41087593	-135.6197438	-80
9998	0	0.381991386	-0.078039169	0.1067276	0.999778748	0.020586967	0.00297451	-0.0029459	9.54978466	-1.950979233	2.668190002	1.029424105	0.148736452	-0.147305835	-0.556640625	0.259033203	0.724853516	895.6	-26.61681603	-76.26866829	-137.5947029	-79
9999	0	0.373901367	-0.05480957	0.098022461	0.999937057	0.010090828	0.004360199	-0.001888275	9.34753418	-1.370239258	2.450561523	0.504551859	0.218014469	-0.094415715	-0.566650391	0.285400391	0.706054688	895.5	-23.79200232	-75.90154909	-139.3178668	-78
10000	0	0.365638733	-0.044117928	0.094385147	0.999973297	-0.005052567	0.005267143	0.000374794	9.140968323	-1.102948189	2.359628677	-0.252630575	0.263359507	0.018739867	-0.578369141	0.294433594	0.694580078	895.6	-23.56172242	-75.32372357	-140.1572128	-77
10001	0	0.335449219	-0.035217285	0.090209961	0.999819756	-0.017139435	0.006779671	0.004516602	8.386230469	-0.880432129	2.255249023	-0.857023185	0.339003885	0.225843635	-0.587402344	0.285888672	0.690185547	895.6	-26.0401538	-74.39346391	-139.6285402	-74
10002	0	0.353622437	-0.018237114	0.073975563	0.999529839	-0.028219223	0.00699234	0.009678841	8.840560913	-0.455927849	1.849389076	-1.411182036	0.349671737	0.484017793	-0.598144531	0.266601563	0.689453125	895.58	-31.27812285	-73.1522398	-137.5459249	-73
10003	0	0.459289551	-0.019836426	0.071655273	0.999357224	-0.034392357	0.003669739	0.009368896	11.48223877	-0.495910645	1.791381836	-1.719986077	0.18352623	0.468545135	-0.604248047	0.240722656	0.694824219	895.54	-37.28204669	-72.1982358	-135.3896966	-73
10004	0	0.428997993	-0.029712677	0.095543861	0.999568939	-0.029277802	0.001698494	0.000274658	10.72494984	-0.742816925	2.388596535	-1.464100018	0.084936877	0.01373488	-0.609863281	0.204101563	0.703857422	895.6	-40.30777445	-72.02805709	-135.7395766	-75
10005	0	0.371398926	-0.018798828	0.098571777	0.999740601	-0.019236565	0.000816345	-0.012145996	9.284973145	-0.469970703	2.464294434	-0.961911327	0.040820787	-0.607352271	-0.615478516	0.165039063	0.715820313	895.54	-38.89776949	-72.84652332	-139.5336259	-75
10006	0	0.328881264	-0.001243591	0.078395844	0.999558449	-0.019226074	5.91E-05	-0.022620201	8.222031593	-0.031089783	1.959896088	-0.961444969	0.002956825	-1.131176252	-0.622802734	0.119384766	0.717041016	895.68	-33.93659955	-74.38690943	-147.0022418	-76
10007	0	0.353759766	-0.024353027	0.061157227	0.999222755	-0.023834229	-9.44E-05	-0.03137207	8.843994141	-0.608825684	1.528930664	-1.192019954	-0.00472191	-1.56900962	-0.632080078	0.058837891	0.72265625	895.58	-24.66959038	-76.16930147	-159.4058341	-76
10008	0	0.377541542	-0.037835121	0.0650177	0.998813629	-0.030908585	0.000315666	-0.037608147	9.438538551	-0.945878029	1.625442505	-1.546040278	0.015789551	-1.881150829	-0.635498047	-0.021728516	0.723632813	895.56	-10.48527485	-77.45233763	-177.6069981	-75
10009	0	0.379638672	-0.051086426	0.073730469	0.998348236	-0.040816307	0.001514435	-0.0403862	9.490966797	-1.277160645	1.843261719	-2.041939236	0.075763441	-2.020422038	-0.631347656	-0.122314453	0.717529297	895.48	5.843303928	-77.46179874	160.8793691	-73
10010	0	0.377169609	-0.062949181	0.083722115	0.998234749	-0.043937683	0.002033234	-0.039908409	9.429240227	-1.573729515	2.093052864	-2.198177734	0.101721543	-1.996595408	-0.621337891	-0.240234375	0.703857422	895.54	19.77180673	-76.19472553	141.4058418	-72
10011	0	0.37701416	-0.082824707	0.104675293	0.998630524	-0.036070824	0.001873016	-0.037822723	9.425354004	-2.070617676	2.616882324	-1.804364363	0.093693562	-1.891999329	-0.606933594	-0.350097656	0.680664063	895.54	30.17943158	-74.14459514	126.3618341	-71
10012	0	0.392647743	-0.091944695	0.102731705	0.998935699	-0.027406693	0.000449181	-0.03708744	9.816193581	-2.298617363	2.568292618	-1.37082083	0.022466999	-1.85502997	-0.579345703	-0.440429688	0.652587891	895.48	38.37042371	-71.69176253	114.5019891	-72
10013	0	0.429992676	-0.122558594	0.108764648	0.999046326	-0.019839287	-0.001434326	-0.038860321	10.74981689	-3.063964844	2.719116211	-0.992279688	-0.071739107	-1.943633742	-0.547607422	-0.518066406	0.628662109	895.5	45.59828859	-68.82850285	104.3987066	-75
10014	0	0.496683121	-0.167211533	0.146711349	0.999189377	-0.005019188	-0.004757881	-0.039643288	12.41707802	-4.180288315	3.667783737	-0.251027181	-0.237958313	-1.982699766	-0.514404297	-0.582519531	0.615234375	895.5	53.03488204	-65.74712528	95.69698365	-73
10015	0	0.567810059	-0.209960938	0.187744141	0.999160767	0.019070625	-0.004589081	-0.035945892	14.19525146	-5.249023438	4.693603516	0.953797956	-0.229518216	-1.797797297	-0.473388672	-0.620849609	0.621826172	895.44	60.70955046	-62.61465981	89.55668139	-75
10016	0	0.520021439	-0.187460899	0.194399834	0.999115944	0.039038658	0.000816345	-0.015575409	13.00053596	-4.686522484	4.859995842	1.952508299	0.040829293	-0.779000013	-0.448486328	-0.610595703	0.645019531	895.5	66.41418945	-61.02564706	88.05673595	-79
10017	0	0.382080078	-0.068908691	0.199462891	0.999044418	0.038865089	0.005065918	0.019325256	9.552001953	-1.722717285	4.986572266	1.943873484	0.253376584	0.966570615	-0.467773438	-0.555175781	0.681396484	895.48	68.13429466	-62.90199693	90.98842648	-70
10018	0	0.393993378	0.008490562	0.148454666	0.998513222	0.031173706	0.009544373	0.043672562	9.849834442	0.212264061	3.711366653	1.559457934	0.477455182	2.184710494	-0.530517578	-0.461425781	0.702880859	895.54	65.12287732	-67.12786926	98.08291856	-66
10019	0	0.469909668	-0.039001465	0.067626953	0.99786377	0.03060627	0.015167236	0.055671692	11.7477417	-0.975036621	1.690673828	1.531403671	0.758902065	2.785567591	-0.612304688	-0.343261719	0.694580078	895.54	55.89804278	-71.91150897	111.5338766	-70
10020	0	0.452204704	-0.065587044	0.05257988	0.996733665	0.049031258	0.020887375	0.060664177	11.30511761	-1.639676094	1.314496994	2.454234961	1.045507053	3.036514891	-0.685302734	-0.201416016	0.667236328	895.44	38.85033599	-75.51178215	134.9848782	-85
10021	0	0.390563965	0.000671387	0.068786621	0.996109009	0.054791451	0.0274086	0.063339233	9.764099121	0.016784668	1.719665527	2.743130523	1.372209828	3.171074737	-0.73828125	-0.027832031	0.613037109	895.48	13.27414269	-75.87664138	167.7754322	-72
10022	0	0.374834061	0.022461891	0.059052467	0.997062683	0.024744987	0.033251762	0.064390182	9.370851517	0.561547279	1.476311684	1.2384618	1.66421735	3.222664039	-0.776123047	0.129638672	0.519775391	895.54	-10.4766443	-72.07467875	-164.5702875	-76
10023	0	0.393188477	-0.014343262	0.025512695	0.997455597	-0.008994102	0.031398773	0.063365936	9.829711914	-0.358581543	0.637817383	-0.450086899	1.571271453	3.170986527	-0.78125	0.23828125	0.420166016	895.54	-26.7715477	-66.20484615	-148.2415283	-77
10024	0	0.449093819	-0.026548386	-0.001578331	0.997589111	-0.025928497	0.027628899	0.058134079	11.22734547	-0.663709641	-0.039458275	-1.297467554	1.382555999	2.909041752	-0.768798828	0.306884766	0.345703125	895.44	-37.61038656	-59.87792105	-139.4468065	-90
10025	0	0.472900391	-0.029541016	-0.02331543	0.997981071	-0.028778076	0.024552345	0.051017761	11.82250977	-0.738525391	-0.582885742	-1.439872946	1.228444094	2.552606147	-0.753417969	0.349853516	0.301513672	895.58	-44.86028235	-53.83552402	-134.7798408	-71
10026	0	0.490470886	-0.038117409	-0.017012596	0.998404503	-0.031858444	0.017719269	0.043120384	12.26177216	-0.952935219	-0.425314903	-1.59376988	0.886434903	2.157166531	-0.738037109	0.383789063	0.269287109	895.56	-50.81698357	-48.75642155	-131.8798805	-73
10027	0	0.481933594	-0.040222168	0.029602051	0.998697281	-0.032206535	0.007801056	0.038795471	12.04833984	-1.005554199	0.74005127	-1.611026255	0.390222225	1.940616152	-0.727050781	0.407470703	0.255615234	895.54	-56.57215722	-44.6075273	-129.0988365	-74
10028	0	0.416045189	-0.040768623	0.134185791	0.99906826	-0.024910927	0.001369476	0.035205841	10.40112972	-1.019215584	3.354644775	-1.245933175	0.068495082	1.760838754	-0.714355469	0.433105469	0.269775391	895.54	-61.2578608	-41.04722372	-126.4487953	-76
10029	0	0.377685547	-0.028320313	0.148864746	0.999855995	0.004833221	-0.003558159	0.015857697	9.442138672	-0.708007813	3.721618652	0.241672652	-0.177916469	0.792922822	-0.701660156	0.461181641	0.278076172	895.5	-61.75674121	-39.63361798	-124.8453641	-75
10030	0	0.345427513	-0.057785034	0.162602425	0.999028206	0.039627075	-0.007156372	-0.017905235	8.635687828	-1.444625854	4.065060616	1.981995657	-0.357934526	-0.895551802	-0.706787109	0.469970703	0.271972656	895.5	-56.92383709	-41.81543559	-125.3005628	-83
10031	0	0.333190918	0.00012207	0.210449219	0.997621536	0.051117897	-0.012756348	-0.044445038	8.329772949	0.003051758	5.261230469	2.557923087	-0.638323524	-2.224015365	-0.740234375	0.44921875	0.238525391	895.56	-49.19868931	-46.77393383	-127.9599386	-75
10032	0	0.412833214	0.031291962	0.202951431	0.997899055	0.024655342	-0.019403458	-0.056669235	10.32083035	0.782299042	5.073785782	1.233630807	-0.970852605	-2.835446943	-0.786621094	0.389648438	0.229003906	895.54	-42.8818457	-53.01475199	-132.5034943	-76
10033	0	0.497924805	0.014038086	0.138366699	0.998016357	-0.004164696	-0.021484375	-0.059013367	12.44812012	0.350952148	3.45916748	-0.20837252	-1.07492927	-2.952619995	-0.822509766	0.292724609	0.247314453	895.54	-38.00668755	-59.31192612	-138.9277731	-81
10034	0	0.399261475	0.003862381	0.104202271	0.997841835	-0.026325226	-0.016204834	-0.057922363	9.981536865	0.096559525	2.605056763	-1.31720878	-0.810824938	-2.898202885	-0.846191406	0.180419922	0.283447266	895.54	-32.77862751	-64.71573742	-148.2466628	-81
10035	0	0.323181152	-0.031677246	0.08026123	0.997635841	-0.0391922	-0.007773399	-0.055904388	8.079528809	-0.791931152	2.006530762	-1.961155404	-0.388976487	-2.797423832	-0.848388672	0.052246094	0.316650391	895.5	-25.13613885	-68.64525079	-161.4438328	-82
10036	0	0.344562531	-0.067527771	0.023398399	0.997144699	-0.049556732	-0.001915932	-0.056938171	8.614063263	-1.688194275	0.584959984	-2.480197233	-0.09588785	-2.849620807	-0.845458984	-0.076416016	0.321533203	895.44	-14.05710811	-71.08506184	-179.2757571	-81
10037	0	0.399658203	-0.112792969	0.02734375	0.996330261	-0.060328484	0.000469208	-0.060710907	9.991455078	-2.819824219	0.68359375	-3.020119206	0.023489126	-3.039263799	-0.827636719	-0.216796875	0.309326172	895.5	-0.060833335	-71.90715657	158.6922783	-72
10038	0	0.466259956	-0.178425789	0.092997551	0.996212006	-0.058056831	0.004813194	-0.064546585	11.65649891	-4.460644722	2.324938774	-2.90651166	0.240963982	-3.231409599	-0.795166016	-0.359863281	0.268066406	895.6	14.80030915	-70.37643947	135.9766294	-72
10039	0	0.458862305	-0.177429199	0.098632813	0.996566772	-0.049490929	0.007450104	-0.065940857	11.47155762	-4.43572998	2.465820313	-2.477381551	0.372931972	-3.300820309	-0.743896484	-0.501464844	0.211425781	895.48	26.5505816	-66.85459099	117.2822554	-74
10040	0	0.510309219	-0.186735153	0.098686218	0.997068405	-0.044128418	0.00347805	-0.062404633	12.75773048	-4.66837883	2.467155457	-2.208579229	0.174072624	-3.123283853	-0.677001953	-0.621826172	0.146484375	895.48	34.25649515	-62.85962307	103.1884848	-85
10041	0	0.514648438	-0.218383789	0.110046387	0.998138428	-0.040621758	-0.000591278	-0.045467377	12.86621094	-5.459594727	2.751159668	-2.032348501	-0.029582253	-2.274779837	-0.601806641	-0.722900391	0.088134766	895.48	37.40522295	-59.86700602	94.28533584	-75
10042	0	0.499455452	-0.170931816	0.123402596	0.998844147	-0.043297768	-0.008381844	-0.019068718	12.4863863	-4.273295403	3.085064888	-2.165722214	-0.419253597	-0.953803125	-0.544189453	-0.790771484	0.025146484	895.48	36.37737548	-59.34834061	89.69777895	-69
10043	0	0.388305664	-0.212402344	0.138977051	0.999257088	-0.037288666	-0.009280205	0.00271225	9.707641602	-5.310058594	3.47442627	-1.864894709	-0.464125075	0.13564605	-0.530273438	-0.82421875	-0.026855469	895.54	32.6512563	-60.43659359	89.02552672	-73
10044	0	0.323297501	-0.238150597	0.1086483	0.999619484	0.001021385	-0.011714935	0.024921417	8.082437515	-5.953764915	2.716207504	0.051075725	-0.585820923	1.246228618	-0.552490234	-0.834716797	-0.061767578	895.54	29.41682711	-63.10438887	92.75318533	-69
10045	0	0.471252441	-0.195617676	0.059753418	0.997818947	0.047092438	-0.01287365	0.04441452	11.78131104	-4.890441895	1.493835449	2.356334733	-0.64415072	2.222341458	-0.616943359	-0.821289063	-0.016845703	895.48	26.53102343	-66.85694205	101.7814007	-71
10046	0	0.577026367	-0.121459961	0.05267334	0.994427681	0.085456848	-0.009262085	0.061027527	14.42565918	-3.036499023	1.316833496	4.280796277	-0.463966314	3.057056461	-0.709960938	-0.767089844	0.108886719	895.42	20.66428372	-70.71713885	118.4566653	-67
10047	0	0.462936401	-0.02029705	0.094693184	0.993227005	0.089011192	0.001422882	0.074645042	11.57341003	-0.507426262	2.367329597	4.460632374	0.071305121	3.740699165	-0.821044922	-0.635742188	0.269287109	895.42	5.135017212	-72.53667122	145.4731306	-73
10048	0	0.411279678	0.007939339	0.089982033	0.994260788	0.066577911	0.008366585	0.083313942	10.28199196	0.198483467	2.249550819	3.33527771	0.419131257	4.17368355	-0.924560547	-0.433105469	0.372070313	895.5	-16.09333705	-70.579	175.8226431	-67
10049	0	0.467285156	0.001708984	0.05267334	0.994844437	0.048130989	0.011054993	0.088573456	11.68212891	0.042724609	1.316833496	2.410693511	0.553701464	4.436298927	-1.004882813	-0.19921875	0.396972656	895.48	-32.37844655	-65.08896458	-160.6916897	-66
10050	0	0.527505875	0.035634995	0.03663826	0.995521545	0.027197838	0.017615318	0.08880043	13.18764687	0.890874863	0.915956497	1.361925306	0.882082904	4.446660576	-1.04296875	0.041748047	0.387939453	895.54	-41.92058221	-57.21023532	-146.2643717	-68
10051	0	0.485778809	0.028015137	0.016845703	0.996272087	-0.003051758	0.022831917	0.083126068	12.14447021	0.700378418	0.421142578	-0.15277775	1.143016286	4.161474939	-1.037353516	0.261474609	0.341064453	895.56	-48.73319905	-48.51942849	-138.1732863	-67
10052	0	0.477250099	-0.011381149	0.029892921	0.997001648	-0.020261765	0.021439552	0.071525574	11.93125248	-0.284528732	0.747323036	-1.0141017	1.073050001	3.579856327	-0.995117188	0.440673828	0.298583984	895.44	-54.23372294	-40.53029591	-133.6618619	-70
10053	0	0.48236084	-0.045898438	0.050537109	0.998009682	-0.02173996	0.018040657	0.056365967	12.059021	-1.147460938	1.263427734	-1.087719452	0.902631553	2.820168911	-0.937744141	0.575927734	0.284423828	895.54	-58.18540195	-33.99064823	-131.2777287	-68
10054	0	0.394357681	-0.027889252	0.084276199	0.998868942	-0.017642021	0.014296532	0.041753769	9.858942032	-0.697231293	2.106904984	-0.882433509	0.715095991	2.088475264	-0.878662109	0.672119141	0.276123047	895.48	-60.85454992	-29.03255462	-130.0727469	-67
10055	0	0.360290527	0.01385498	0.104675293	0.999867439	-0.009094238	0.004094124	0.012840271	9.007263184	0.346374512	2.616882324	-0.45473195	0.204715212	0.642041838	-0.83203125	0.731445313	0.27734375	895.6	-62.06945908	-27.52925595	-129.7347302	-69
10056	0	0.304647446	-0.052290916	0.171879768	0.99968338	0.00677681	-0.006737709	-0.023245811	7.616186142	-1.307272911	4.296994209	0.338876168	-0.33692093	-1.162412976	-0.830322266	0.738037109	0.288085938	895.56	-60.97432525	-30.26326006	-130.4066747	-68
10057	0	0.287475586	-0.094299316	0.224609375	0.998363495	0.026677132	-0.014808655	-0.048351288	7.186889648	-2.35748291	5.615234375	1.334584342	-0.740836723	-2.418883427	-0.868164063	0.693603516	0.291015625	895.44	-56.99678473	-35.92001224	-132.0804791	-66
10058	0	0.425441742	-0.059465408	0.185107231	0.996934891	0.033867836	-0.022543907	-0.066823959	10.63604355	-1.486635208	4.627680779	1.695124032	-1.128348408	-3.344615801	-0.932128906	0.614990234	0.281005859	895.56	-51.08123521	-43.68622845	-135.2209553	-65
10059	0	0.502380371	-0.020935059	0.127929688	0.996476173	0.017440796	-0.026732445	-0.077560425	12.55950928	-0.523376465	3.198242188	0.873065428	-1.338194281	-3.882582301	-0.999511719	0.490966797	0.297607422	895.54	-44.94921739	-52.41476705	-140.7308496	-64
10060	0	0.410941124	-0.008621216	0.122685432	0.996486664	-0.010015488	-0.02593708	-0.078993797	10.2735281	-0.215530396	3.067135811	-0.501361565	-1.298374643	-3.954321066	-1.052246094	0.336181641	0.353027344	895.5	-38.80224986	-60.75992821	-149.420826	-63
10061	0	0.361816406	-0.03918457	0.111999512	0.996460915	-0.025588989	-0.019263268	-0.077709198	9.045410156	-0.979614258	2.799987793	-1.280960736	-0.964301055	-3.890049368	-1.075927734	0.149902344	0.412109375	895.54	-28.79709655	-67.65884624	-163.7374684	-66
10062	0	0.388876915	-0.077809334	0.056747437	0.996435165	-0.033827782	-0.012646675	-0.076234818	9.721922874	-1.945233345	1.418685913	-1.693401524	-0.633086116	-3.816276141	-1.072998047	-0.046142578	0.456542969	895.54	-11.25551006	-72.13946824	173.5154169	-63
10063	0	0.480712891	-0.129760742	0.091430664	0.996269226	-0.039118767	-0.008132935	-0.076488495	12.01782227	-3.244018555	2.285766602	-1.958374128	-0.407153138	-3.829187414	-1.043945313	-0.245361328	0.474121094	895.54	12.78731221	-72.99414458	143.6820807	-63
10064	0	0.557025909	-0.164517403	0.112341881	0.996289253	-0.042391777	-0.00320816	-0.074830055	13.92564774	-4.112935066	2.80854702	-2.122214206	-0.160606704	-3.746137043	-0.986328125	-0.445800781	0.461669922	895.54	32.37949307	-69.95073873	117.9458459	-63
10065	0	0.471740723	-0.185791016	0.141052246	0.996489525	-0.047775269	-0.000338554	-0.068733215	11.79351807	-4.644775391	3.526306152	-2.391561877	-0.01694755	-3.440686833	-0.912597656	-0.629394531	0.421630859	895.5	42.26789973	-65.13227153	101.3463327	-64
10066	0	0.478384018	-0.264509201	0.155297279	0.997677803	-0.042510986	0.000209808	-0.053201675	11.95960045	-6.612730026	3.882431984	-2.127195679	0.010498543	-2.662144161	-0.823242188	-0.78125	0.352294922	895.6	45.98744588	-60.83987659	91.70323651	-64
10067	0	0.456481934	-0.230834961	0.131347656	0.999277115	-0.031031609	-0.00535202	-0.021274567	11.41204834	-5.770874023	3.283691406	-1.551954141	-0.267665467	-1.063984541	-0.752929688	-0.877685547	0.296630859	895.5	46.15028759	-59.50810951	87.4046001	-65
10068	0	0.449076653	-0.205018997	0.193071365	0.999860764	-0.015861511	-0.005017281	0.000964165	11.22691631	-5.12547493	4.826784134	-0.793112271	-0.250875641	0.048210468	-0.729736328	-0.913574219	0.255615234	895.5	44.87364282	-60.0012758	86.75672637	-64
10069	0	0.364257813	-0.283752441	0.111328125	0.999588013	0.013890266	-0.002483368	0.024982452	9.106445313	-7.093811035	2.783203125	0.694608647	-0.124185439	1.249294069	-0.751220703	-0.899902344	0.25	895.54	43.02576648	-62.21909466	90.64402724	-66
10070	0	0.471198082	-0.149857521	0.045499802	0.998078346	0.039587021	-0.003307343	0.047541618	11.77995205	-3.746438026	1.137495041	1.980619452	-0.165473097	2.378604199	-0.812988281	-0.834228516	0.296386719	895.48	39.51409865	-66.14427348	99.52503751	-70
10071	0	0.582275391	-0.090148926	0.064331055	0.996015549	0.061715126	-9.54E-05	0.064376831	14.55688477	-2.253723145	1.608276367	3.089861253	-0.004774715	3.223123546	-0.904052734	-0.699951172	0.369873047	895.5	31.26688181	-70.5067245	115.937872	-68
10072	0	0.583662987	-0.025518417	0.085771561	0.994017601	0.074566841	0.005794525	0.079583168	14.59157467	-0.637960434	2.144289017	3.735793611	0.290305311	3.987111244	-0.993164063	-0.493652344	0.434814453	895.5	12.55687155	-73.40129734	144.5140825	-65
10073	0	0.478759766	-0.020751953	0.095031738	0.992742538	0.074124336	0.011894226	0.093948364	11.96899414	-0.518798828	2.375793457	3.715208788	0.596154185	4.708815029	-1.064941406	-0.236083984	0.457275391	895.5	-14.11912809	-71.78924613	-178.7457205	-62
10074	0	0.496286392	0.013160706	0.06423378	0.991192818	0.078855515	0.015106201	0.105302811	12.40715981	0.329017639	1.605844498	3.95439042	0.757535063	5.280650671	-1.095458984	0.059082031	0.423339844	895.54	-32.01035129	-65.210117	-149.9091823	-62
10075	0	0.555480957	0.044555664	0.029296875	0.992290497	0.065121651	0.024745941	0.102493286	13.88702393	1.113891602	0.732421875	3.264475189	1.24048623	5.137873288	-1.060058594	0.362548828	0.334228516	895.56	-38.73449018	-55.94696211	-133.6542238	-61
10076	0	0.537498474	-0.003638268	0.012198448	0.994643211	0.041028023	0.033927917	0.08859539	13.43746185	-0.090956688	0.304961205	2.055071518	1.699431076	4.437695287	-0.979492188	0.609375	0.201416016	895.56	-40.68417912	-46.39514994	-125.1163102	-64
10077	0	0.46295166	-0.005615234	0.008239746	0.996573448	0.014690399	0.037007332	0.072498322	11.5737915	-0.140380859	0.205993652	0.735360066	1.852482951	3.629062078	-0.867919922	0.779296875	0.08203125	895.56	-42.11164662	-37.6828136	-120.4780969	-70
10078	0	0.390759468	0.023161888	0.011292458	0.997847557	-0.012569427	0.034566879	0.054273605	9.768986702	0.579047203	0.28231144	-0.628922493	1.729584575	2.715628156	-0.752197266	0.890380859	-0.001708984	895.56	-44.78281051	-30.51829479	-118.3052876	-69
10079	0	0.32019043	0.03894043	0.014709473	0.998334885	-0.036208153	0.027500153	0.035480499	8.004760742	0.973510742	0.367736816	-1.81141276	1.375771021	1.775009885	-0.659423828	0.963378906	-0.012695313	895.54	-49.19663786	-25.40308062	-117.7730996	-63
10080	0	0.256134987	0.023802757	0.073217392	0.998615265	-0.048164368	0.016665459	0.013017654	6.403374672	0.595068932	1.830434799	-2.40933036	0.833657691	0.651183261	-0.596923828	1.003173828	0.043212891	895.56	-54.4647655	-23.07083444	-118.4097021	-61
10081	0	0.354980469	-0.036376953	0.125610352	0.999464035	-0.026392937	0.006252289	-0.018310547	8.874511719	-0.909423828	3.140258789	-1.319882496	0.312670267	-0.915690837	-0.591308594	1.005615234	0.111083984	895.54	-56.70919506	-24.43287381	-120.3479768	-60
10082	0	0.39343071	-0.0532341	0.115532875	0.998488426	-0.01502037	-0.004184723	-0.052693367	9.835767746	-1.330852509	2.888321877	-0.751397016	-0.209341594	-2.635996146	-0.6484375	0.964355469	0.151611328	895.48	-56.9385355	-29.80428268	-123.5973885	-57
10083	0	0.412719727	-0.069274902	0.196594238	0.996919632	-0.00814724	-0.014842987	-0.076572418	10.31799316	-1.731872559	4.914855957	-0.407780692	-0.742912172	-3.832556165	-0.759521484	0.872314453	0.193603516	895.5	-55.51508548	-38.11938271	-127.7630044	-62
10084	0	0.522565842	-0.079062462	0.201276779	0.995678902	-0.002367973	-0.019407272	-0.090771675	13.06414604	-1.976561546	5.031919479	-0.118569464	-0.971763426	-4.545130942	-0.887451172	0.733154297	0.231933594	895.56	-51.63574775	-47.90924188	-133.7681904	-62
10085	0	0.535949707	-0.054748535	0.10559082	0.995280266	-0.010829926	-0.016676903	-0.094982147	13.39874268	-1.368713379	2.639770508	-0.542349778	-0.835159438	-4.756592861	-1.001464844	0.549804688	0.270019531	895.48	-45.16600665	-57.44335297	-143.3800327	-63
10086	0	0.445540428	-0.024497986	0.070445061	0.994851112	-0.037342072	-0.012231827	-0.093411446	11.1385107	-0.612449646	1.761126518	-1.870314216	-0.612643021	-4.678603718	-1.08203125	0.334716797	0.320556641	895.6	-35.92012512	-65.62359267	-158.6813077	-61
10087	0	0.438415527	-0.067016602	0.069396973	0.994070053	-0.061850548	-0.005050659	-0.089290619	10.96038818	-1.675415039	1.734924316	-3.09865429	-0.253033276	-4.473376052	-1.116943359	0.092041016	0.362060547	895.6	-20.51037847	-71.15062977	177.2041744	-61
10088	0	0.492070198	-0.131173134	0.045125961	0.994085312	-0.070241928	0.003621101	-0.082742691	12.30175495	-3.279328346	1.128149033	-3.519036556	0.181412847	-4.145309823	-1.115478516	-0.160888672	0.360107422	895.56	0.739722729	-72.43093702	146.427988	-60
10089	0	0.588500977	-0.172180176	0.048217773	0.994533539	-0.06981945	0.010700226	-0.076889038	14.71252441	-4.304504395	1.205444336	-3.497346453	0.535988133	-3.851471233	-1.079101563	-0.391357422	0.30859375	895.54	17.9948739	-69.6905072	119.7769335	-59
10090	0	0.596632957	-0.190020561	0.036349297	0.994815826	-0.070910454	0.016259193	-0.071051598	14.91582394	-4.75051403	0.908732414	-3.551662	0.814367365	-3.55873141	-1.015136719	-0.596923828	0.216796875	895.5	26.38710054	-64.79153129	101.8908209	-60
10091	0	0.532531738	-0.226196289	0.011169434	0.994713783	-0.080688477	0.016057014	-0.061447144	13.31329346	-5.654907227	0.27923584	-4.04154765	0.804268365	-3.077782222	-0.927001953	-0.753417969	0.082763672	895.64	27.60847411	-59.89460985	90.07294756	-65
10092	0	0.459441185	-0.304203987	0.000860214	0.99568367	-0.083221436	0.010849953	-0.039608955	11.48602962	-7.605099678	0.021505356	-4.167067846	0.543279369	-1.983301577	-0.837890625	-0.862304688	-0.075439453	895.74	23.85292041	-56.77875202	83.2614162	-69
10093	0	0.42565918	-0.270935059	0.03503418	0.997550011	-0.068332672	-0.000842094	-0.014945984	10.64147949	-6.773376465	0.875854492	-3.419426278	-0.042139136	-0.747910018	-0.778076172	-0.893798828	-0.223876953	895.54	18.49344784	-56.24519476	80.27928884	-68
10094	0	0.368193626	-0.350595474	0.026465416	0.999773026	-0.019412041	-0.007962227	0.003456116	9.20484066	-8.764886856	0.661635399	-0.970675196	-0.398141352	0.172818812	-0.760498047	-0.886230469	-0.313720703	895.6	16.085378	-57.24352249	80.47375463	-60
10095	0	0.360168457	-0.288696289	-0.033813477	0.998793602	0.037319183	-0.020487785	0.024459839	9.004211426	-7.217407227	-0.845336914	1.86670971	-1.024801306	1.223483866	-0.782226563	-0.87890625	-0.290283203	895.56	16.98315043	-60.31682281	84.38099829	-69
10096	0	0.474541664	-0.201426506	-0.005678177	0.995551109	0.078562737	-0.027627945	0.044074059	11.8635416	-5.035662651	-0.141954422	3.933972456	-1.383449448	2.206976743	-0.845947266	-0.862548828	-0.154541016	895.5	18.48321881	-64.91715618	92.78089699	-66
10097	0	0.584838867	-0.149658203	0.02154541	0.991067886	0.114060402	-0.026535034	0.063796997	14.62097168	-3.741455078	0.538635254	5.720060516	-1.330715996	3.199381011	-0.924560547	-0.799560547	0.060791016	895.5	16.78887859	-70.11723007	108.7144942	-59
10098	0	0.572479248	-0.050063133	0.013857841	0.988460541	0.125138283	-0.016068459	0.083824158	14.3119812	-1.251578331	0.346446037	6.281091334	-0.806527416	4.207403034	-1.012939453	-0.633544922	0.307861328	895.5	2.572963969	-73.68895516	138.7044645	-62
10099	0	0.520141602	0.02520752	0.016113281	0.988607407	0.11093998	-0.003440857	0.101661682	13.00354004	0.630187988	0.402832031	5.568159608	-0.172699154	5.102474999	-1.095214844	-0.359130859	0.486083984	895.5	-22.9892742	-71.88594099	178.6805921	-62
10100	0	0.54000473	0.091801643	0.015979767	0.991120338	0.072897911	0.009263992	0.11081028	13.50011826	2.295041084	0.399494171	3.655721493	0.464575395	5.55697023	-1.139648438	-0.008056641	0.573486328	895.6	-40.38179813	-64.03804664	-153.619655	-59
10101	0	0.575866699	0.073425293	0.018920898	0.993563652	0.027919769	0.019555092	0.108020782	14.39666748	1.835632324	0.473022461	1.398991015	0.979857589	5.412655907	-1.130859375	0.336181641	0.573242188	895.54	-49.20897826	-53.5965812	-139.5938928	-63
10102	0	0.5652771	0.003957748	0.017076492	0.994995117	-0.006237984	0.02272892	0.097099304	14.13192749	0.09894371	0.426912308	-0.31242052	1.138345552	4.863080215	-1.058837891	0.627685547	0.551269531	895.5	-55.32695925	-43.1442712	-132.3857707	-68
10103	0	0.564147949	-0.00604248	0.02923584	0.996495247	-0.015666962	0.01982975	0.079730988	14.10369873	-0.151062012	0.730895996	-0.784264316	0.992647183	3.991212191	-0.934814453	0.84375	0.549560547	895.44	-59.55990781	-34.20277373	-128.5053011	-66
10104	0	0.410632133	0.057743073	0.032892227	0.998134613	-0.016237259	0.015564919	0.056745529	10.26580334	1.443576813	0.822305679	-0.812367956	0.778730025	2.839041354	-0.803710938	0.989990234	0.556152344	895.48	-62.39787805	-27.66134875	-126.6255763	-64
10105	0	0.27142334	0.047729492	0.118835449	0.999577522	-0.010311127	0.007996559	0.0259552	6.785583496	1.193237305	2.97088623	-0.515628879	0.399884217	1.297942617	-0.695556641	1.069335938	0.580810547	895.48	-63.84813387	-24.61987085	-126.0252876	-60
10106	0	0.382130623	-0.042162895	0.136060715	0.99978447	0.014691353	-0.001946449	-0.014536858	9.553265572	-1.05407238	3.401517868	0.734620412	-0.097329455	-0.726895095	-0.643310547	1.102539063	0.586669922	895.64	-61.90074916	-26.24536064	-126.6274335	-64
10107	0	0.35736084	-0.076782227	0.184265137	0.998228073	0.032200813	-0.009140015	-0.049190521	8.934020996	-1.919555664	4.606628418	1.610992143	-0.457270804	-2.460979556	-0.677490234	1.101074219	0.54296875	895.5	-57.11397963	-31.6894848	-128.8411719	-69
10108	0	0.41587162	-0.027349472	0.178956032	0.997454643	0.019495964	-0.017011642	-0.066436768	10.3967905	-0.683736801	4.473900795	0.975625968	-0.851304408	-3.324659171	-0.772949219	1.060302734	0.494628906	895.5	-52.88060263	-39.11683728	-132.2183644	-65
10109	0	0.509399414	-0.011535645	0.122924805	0.996704102	-0.000159264	-0.023784637	-0.077548981	12.73498535	-0.288391113	3.073120117	-0.007971939	-1.190539856	-3.881713671	-0.883300781	0.961669922	0.511474609	895.42	-49.58865977	-47.84663875	-136.9385279	-61
10110	0	0.487002373	-0.026088715	0.101734161	0.995934486	-0.016710281	-0.022848129	-0.085512161	12.17505932	-0.652217865	2.543354034	-0.836648052	-1.14395697	-4.281411038	-0.9921875	0.808837891	0.575439453	895.54	-45.31904317	-56.95256545	-144.632194	-60
10111	0	0.395507813	-0.043579102	0.108032227	0.995386124	-0.036322594	-0.014904022	-0.087543488	9.887695313	-1.089477539	2.700805664	-1.818927634	-0.746349176	-4.3839179	-1.087402344	0.599121094	0.660400391	895.5	-37.82199221	-65.0288529	-157.837822	-58
10112	0	0.410203934	-0.094277382	0.062643051	0.994825363	-0.052236557	-0.00690937	-0.086862564	10.25509834	-2.356934547	1.566076279	-2.616341846	-0.346065591	-4.350634389	-1.15234375	0.337890625	0.733642578	895.56	-23.22456293	-70.94148985	-179.9095923	-62
10113	0	0.459411621	-0.128662109	0.079040527	0.995142937	-0.053886414	0.000382423	-0.082378387	11.48529053	-3.216552734	1.976013184	-2.698691132	0.019152186	-4.125600665	-1.178466797	0.051513672	0.778320313	895.56	-0.365468289	-72.92201406	149.667198	-60
10114	0	0.504346848	-0.183461189	0.098922729	0.99591732	-0.044992447	0.00746727	-0.077894211	12.60867119	-4.586529732	2.473068237	-2.252688433	0.373872365	-3.900018776	-1.171142578	-0.223632813	0.763427734	895.54	21.05650194	-70.38334381	121.7465381	-59
10115	0	0.539611816	-0.178100586	0.087097168	0.997062683	-0.033778191	0.006874084	-0.068393707	13.49029541	-4.452514648	2.177429199	-1.690565072	0.344041137	-3.423037486	-1.132324219	-0.462890625	0.718505859	895.68	33.89193146	-65.97510999	103.7841761	-62
10116	0	0.465820313	-0.194862366	0.126722336	0.997901917	-0.032957077	0.005970955	-0.055404663	11.64550781	-4.871559143	3.168058395	-1.649007191	0.298756699	-2.772172051	-1.074462891	-0.6484375	0.659423828	895.6	39.70241189	-61.56404078	93.10630866	-58
10117	0	0.418029785	-0.25402832	0.109558105	0.999040604	-0.023493767	0.001941681	-0.036899567	10.45074463	-6.350708008	2.738952637	-1.175064036	0.097115095	-1.845568406	-1.009521484	-0.786132813	0.604492188	895.54	42.33567586	-58.58667354	86.95467461	-60
10118	0	0.437234879	-0.230940819	0.125273705	0.99979496	-0.014554977	-0.003688812	-0.013583183	10.93087196	-5.77352047	3.131842613	-0.727798604	-0.184453217	-0.679205577	-0.966308594	-0.85546875	0.568115234	895.48	42.97952108	-57.82680391	84.22254962	-60
10119	0	0.412658691	-0.264221191	0.121887207	0.999951363	0.002010345	-0.003256798	0.00907135	10.31646729	-6.605529785	3.047180176	0.100518897	-0.162842521	0.453574833	-0.954345703	-0.862304688	0.568115234	895.5	42.35673291	-58.80516023	85.20660118	-61
10120	0	0.399179459	-0.181840897	0.056882858	0.999017715	0.024580002	-0.007504463	0.036082268	9.979486465	-4.546022415	1.422071457	1.229402417	-0.375345993	1.804703982	-0.980712891	-0.795898438	0.581054688	895.6	40.65996341	-62.20545788	90.36413008	-57
10121	0	0.523193359	-0.096618652	0.088317871	0.997193336	0.045009613	-0.008421898	0.05921936	13.07983398	-2.415466309	2.207946777	2.252587816	-0.421489173	2.963740423	-1.030029297	-0.639160156	0.630615234	895.6	35.69878061	-67.20402561	101.5177487	-57
10122	0	0.593833923	-0.050029755	0.091536522	0.995443344	0.056750298	-0.005311012	0.076432228	14.84584808	-1.250743866	2.288413048	2.841831721	-0.265954608	3.8274254	-1.075927734	-0.40625	0.687988281	895.46	22.0698712	-72.07242648	122.9334064	-54
10123	0	0.528015137	-0.018493652	0.101501465	0.994729042	0.046417236	0.000229836	0.091423035	13.20037842	-0.462341309	2.537536621	2.324947628	0.011512006	4.579199117	-1.096923828	-0.130615234	0.697753906	895.48	-6.93168188	-73.49415556	158.7592423	-58
10124	0	0.462884903	0.004574776	0.105751038	0.993872643	0.033370018	0.003681183	0.105306625	11.57212257	0.114369392	2.64377594	1.671916947	0.184435981	5.276111374	-1.079833984	0.143066406	0.660400391	895.44	-35.94135696	-68.4339359	-166.6528099	-54
10125	0	0.494140625	0.036499023	0.079345703	0.993721962	0.021430969	0.008576393	0.109466553	12.35351563	0.912475586	1.983642578	1.073796354	0.429719233	5.484809571	-1.014892578	0.395507813	0.599121094	895.54	-50.76301354	-58.93210824	-147.4840588	-54
10126	0	0.544272423	0.004981041	0.062841415	0.99448204	0.01882267	0.015181541	0.102078438	13.60681057	0.124526024	1.571035385	0.942868265	0.760476258	5.11332981	-0.908935547	0.618408203	0.535400391	895.5	-56.22234647	-48.42247887	-138.0799144	-56
10127	0	0.491821289	-0.031433105	0.064697266	0.995778084	0.013874054	0.022240639	0.087970734	12.29553223	-0.785827637	1.617431641	0.694680598	1.113599549	4.404737223	-0.797851563	0.786132813	0.458740234	895.56	-57.8262066	-38.54974324	-133.4647922	-60
10128	0	0.462779045	-0.018017769	0.083770752	0.997200012	0.0143013	0.025513649	0.068814278	11.56947613	-0.450444221	2.094268799	0.715732991	1.276874148	3.443928078	-0.685546875	0.916992188	0.382080078	895.54	-57.39608607	-30.3241016	-131.3398713	-60
10129	0	0.403015137	0.038391113	0.079284668	0.998623848	0.006813049	0.023823738	0.046211243	10.07537842	0.959777832	1.982116699	0.340808761	1.191733436	2.311622248	-0.592041016	1.000488281	0.304931641	895.6	-56.91642782	-24.41668471	-130.6939287	-60
10130	0	0.27755928	0.084144592	0.084619522	0.999680519	-0.011663437	0.01382637	0.017625809	6.93898201	2.103614807	2.115488052	-0.583233861	0.691392029	0.881384155	-0.530273438	1.043945313	0.26953125	895.5	-58.14184825	-21.89962129	-130.9726496	-59
10131	0	0.327026367	-0.028198242	0.147888184	0.999727249	-0.006926537	0.003330231	-0.022022247	8.17565918	-0.704956055	3.69720459	-0.346358239	0.166526638	-1.101212233	-0.525878906	1.043945313	0.280761719	895.56	-58.2263475	-23.89350511	-132.7626346	-60
10132	0	0.405243874	-0.076376915	0.141109467	0.998045921	-0.001652718	-0.009057999	-0.061789513	10.13109684	-1.909422874	3.527736664	-0.082689725	-0.453195042	-3.09148873	-0.598632813	0.996337891	0.285644531	895.5	-56.89289365	-30.49664137	-136.0308963	-67
10133	0	0.368896484	-0.087524414	0.187927246	0.996206284	-0.012084007	-0.019203186	-0.084003448	9.222412109	-2.188110352	4.698181152	-0.60496541	-0.961375068	-4.205490737	-0.732177734	0.891845703	0.307128906	895.5	-55.77090295	-39.8175297	-140.3155793	-60
10134	0	0.493163109	-0.086203575	0.173457146	0.995092392	-0.008919716	-0.023900032	-0.095600128	12.32907772	-2.155089378	4.336428642	-0.446716731	-1.196960119	-4.787840474	-0.861816406	0.733154297	0.369873047	895.44	-52.50409363	-50.41114809	-146.2801958	-59
10135	0	0.565917969	-0.093078613	0.090820313	0.994539261	-0.002387047	-0.018802643	-0.102619171	14.14794922	-2.326965332	2.270507813	-0.119570032	-0.941846887	-5.140317123	-0.966552734	0.536621094	0.428466797	895.54	-43.47498824	-60.73908664	-157.4322163	-61
10136	0	0.493455887	-0.087579727	0.050902367	0.994742393	-0.006667137	-0.012710571	-0.1013937	12.33639717	-2.189493179	1.272559166	-0.333942259	-0.636644604	-5.078587763	-1.046630859	0.317138672	0.470703125	895.54	-25.31871879	-68.71512697	-178.2053011	-64
10137	0	0.457763672	-0.088439941	0.08392334	0.995138168	-0.02225399	-0.008773804	-0.095535278	11.4440918	-2.210998535	2.098083496	-1.114506123	-0.439402457	-4.78451962	-1.074707031	0.085205078	0.502685547	895.56	2.430901724	-72.0362407	149.777202	-61
10138	0	0.476350784	-0.117147446	0.074775696	0.995939255	-0.033368111	-0.004637718	-0.083482742	11.90876961	-2.928686142	1.869392395	-1.670667336	-0.23220027	-4.179795859	-1.064941406	-0.146240234	0.509765625	895.56	26.62300678	-70.07131297	120.2499214	-61
10139	0	0.486816406	-0.130981445	0.09753418	0.996547699	-0.048514366	-0.001708984	-0.067344666	12.17041016	-3.274536133	2.438354492	-2.428513273	-0.085547675	-3.371113076	-1.018798828	-0.354980469	0.501464844	895.48	37.79896901	-66.0307029	102.2487761	-60
10140	0	0.461371422	-0.152079582	0.104342461	0.99686718	-0.060254097	0.001419067	-0.051211357	11.53428555	-3.801989555	2.608561516	-3.015854555	0.071027549	-2.563244864	-0.966064453	-0.535888672	0.453857422	895.6	40.1953105	-62.14856268	91.92139733	-63
10141	0	0.397888184	-0.209533691	0.114135742	0.99755764	-0.058837891	0.003556252	-0.037464142	9.94720459	-5.238342285	2.853393555	-2.944291609	0.177957459	-1.874733396	-0.911865234	-0.682128906	0.371826172	895.56	38.92748104	-59.05535076	85.63397141	-59
10142	0	0.401986122	-0.279008865	0.091629982	0.99900341	-0.037197113	0.002195358	-0.024553299	10.04965305	-6.975221634	2.29074955	-1.860473464	0.109804377	-1.228072756	-0.864013672	-0.778076172	0.280273438	895.48	37.97549559	-57.08155466	81.72082137	-60
10143	0	0.388244629	-0.244506836	0.081848145	0.999745369	-0.021484375	-0.005633354	-0.003879547	9.706115723	-6.112670898	2.046203613	-1.074309787	-0.28169158	-0.193993795	-0.833007813	-0.829833984	0.220214844	895.44	36.67080878	-57.31397061	80.32822764	-57
10144	0	0.444847107	-0.187254906	0.121825218	0.999717712	-0.011978149	-0.011929512	0.016659737	11.12117767	-4.681372643	3.045630455	-0.598963716	-0.596531618	0.83306506	-0.832275391	-0.834228516	0.195068359	895.6	34.03141812	-59.53529972	81.79582355	-61
10145	0	0.388122559	-0.178466797	0.081726074	0.999126434	0.001339912	-0.016197205	0.038475037	9.703063965	-4.461669922	2.043151855	0.067015115	-0.810095878	1.924311593	-0.861572266	-0.800537109	0.196777344	895.46	29.00356914	-63.43987926	87.66251422	-56
10146	0	0.48085022	-0.12757206	0.084344864	0.997677803	0.028505325	-0.020805359	0.058242798	12.02125549	-3.189301491	2.108621597	1.426370217	-1.041073692	2.914395513	-0.921875	-0.713378906	0.232666016	895.44	20.85022559	-68.46355813	100.1212441	-57
10147	0	0.628356934	-0.083618164	0.071472168	0.995080948	0.060238838	-0.022987366	0.075202942	15.70892334	-2.090454102	1.786804199	3.016889628	-1.151256354	3.76632389	-0.990478516	-0.56640625	0.323974609	895.44	5.049798174	-73.07924862	124.0974088	-53
10148	0	0.616641045	-0.030875206	0.073557854	0.992580414	0.077030182	-0.017071724	0.09250927	15.41602612	-0.77188015	1.838946342	3.861062297	-0.855703414	4.636936388	-1.045898438	-0.339355469	0.413574219	895.48	-22.78927516	-73.39100383	162.2884637	-58
10149	0	0.535827637	0.024841309	0.075683594	0.992277145	0.067292213	-0.006759644	0.103973389	13.39569092	0.621032715	1.892089844	3.373298036	-0.338854842	5.212092304	-1.070068359	-0.061523438	0.457519531	895.48	-44.49184994	-67.18070947	-166.5718879	-60
10150	0	0.515162468	0.022011757	0.061290741	0.993231773	0.046779633	-0.000896454	0.106306076	12.8790617	0.550293922	1.532268524	2.344272668	-0.044924087	5.327327618	-1.046630859	0.21875	0.436035156	895.56	-54.61255726	-57.83348199	-149.1882073	-52
10151	0	0.50592041	0.005249023	0.061462402	0.994441986	0.032952309	0.005836487	0.099822998	12.64801025	0.131225586	1.536560059	1.650674563	0.292366171	5.000416977	-0.974609375	0.466796875	0.389160156	895.5	-58.46703369	-47.85786717	-139.6489967	-53
10152	0	0.435880661	-0.006234169	0.033872604	0.996015549	0.016723633	0.01151371	0.086829185	10.89701653	-0.155854225	0.846815109	0.837293782	0.576451176	4.347233517	-0.871826172	0.661376953	0.322265625	895.54	-60.26998403	-38.60017045	-134.2441622	-57
10153	0	0.387512207	0.003662109	0.026794434	0.997488022	0.002514839	0.010543823	0.069988251	9.687805176	0.091552734	0.66986084	0.125847314	0.527632879	3.502344582	-0.762451172	0.794677734	0.279785156	895.54	-61.95514804	-30.99640871	-130.8139465	-53
10154	0	0.34784317	-0.00209713	0.052019119	0.998914719	-0.002703667	0.009493828	0.045497894	8.696079254	-0.052428246	1.300477982	-0.135232217	0.474863041	2.275717323	-0.667724609	0.880615234	0.256103516	895.54	-63.05696411	-25.89225207	-129.1747721	-56
10155	0	0.289794922	-0.037902832	0.064758301	0.999791145	-0.004985809	0.007390022	0.018383026	7.244873047	-0.947570801	1.61895752	-0.249307812	0.369526824	0.919215261	-0.608642578	0.919921875	0.246826172	895.56	-63.72246436	-23.66588179	-128.9683741	-54
10156	0	0.283625603	-0.081772804	0.127065659	0.99995327	0.000975609	0.001092911	-0.009513855	7.090640068	-2.044320107	3.176641464	0.048781195	0.054646382	-0.475700096	-0.592529297	0.926025391	0.248535156	895.48	-63.34586092	-24.63231808	-129.6181357	-56
10157	0	0.357177734	-0.129577637	0.152648926	0.998776436	0.018135071	-0.010645866	-0.04473877	8.929443359	-3.239440918	3.816223145	0.907123263	-0.532510359	-2.237850575	-0.637939453	0.896972656	0.239013672	895.54	-60.57637237	-29.79042242	-131.1053268	-53
10158	0	0.343008995	-0.09526062	0.181900024	0.996973038	0.02247715	-0.02295208	-0.070796967	8.575224876	-2.381515503	4.54750061	1.124992731	-1.148763208	-3.543424005	-0.725585938	0.825683594	0.226806641	895.54	-56.64107408	-38.16099977	-133.4834833	-49
10159	0	0.447631836	-0.07989502	0.207763672	0.9957304	0.013023376	-0.032233238	-0.085510254	11.1907959	-1.997375488	5.194091797	0.652097111	-1.613959451	-4.281607745	-0.833007813	0.709472656	0.245117188	895.56	-52.59344964	-48.38261731	-137.1447916	-50
10160	0	0.582227707	-0.073493958	0.183656693	0.995344162	0.007436752	-0.030810356	-0.091018677	14.55569267	-1.837348938	4.591417313	0.372415701	-1.542912806	-4.558009044	-0.9296875	0.547363281	0.297607422	895.54	-46.07087574	-58.71083124	-144.1195949	-50
10161	0	0.519104004	-0.043823242	0.131469727	0.996259689	-0.003371239	-0.020507813	-0.083866119	12.9776001	-1.095581055	3.286743164	-0.168772375	-1.026670766	-4.19854107	-0.997802734	0.369140625	0.353027344	895.56	-35.04451286	-66.88375272	-156.8810949	-49
10162	0	0.404214859	-0.01727581	0.112994194	0.99713707	-0.026490211	-0.013548851	-0.06951046	10.10537148	-0.431895256	2.824854851	-1.325775872	-0.678089708	-3.478843142	-1.033203125	0.194091797	0.397705078	895.6	-20.8889013	-72.12331532	-175.1828707	-51
10163	0	0.380249023	-0.048828125	0.10736084	0.997962952	-0.032477379	-0.008899689	-0.054180145	9.506225586	-1.220703125	2.684020996	-1.624972346	-0.445286799	-2.710848008	-1.038330078	0.028808594	0.428466797	895.56	-4.680711902	-74.56613925	164.036668	-50
10164	0	0.412197113	-0.073212624	0.104219437	0.998200417	-0.042254448	-0.004577637	-0.042300224	10.30492783	-1.83031559	2.605485916	-2.11399057	-0.229019224	-2.116280762	-1.028076172	-0.106445313	0.438964844	895.54	8.75087067	-74.92473838	145.1141217	-49
10165	0	0.404541016	-0.10559082	0.088745117	0.997983932	-0.053893089	-0.000175476	-0.033500671	10.11352539	-2.639770508	2.21862793	-2.696466218	-0.008779703	-1.67615978	-1.013671875	-0.229248047	0.437011719	895.5	16.44618869	-74.07861481	130.7406198	-49
10166	0	0.37203598	-0.123847961	0.073890686	0.99809742	-0.055212021	0.001245499	-0.027386665	9.300899506	-3.096199036	1.847267151	-2.762352397	0.062314441	-1.370201986	-0.994140625	-0.345458984	0.405517578	895.54	20.27246024	-72.91577987	120.1600787	-49
10167	0	0.383789063	-0.157165527	0.079589844	0.998705864	-0.044380188	0.000180244	-0.024822235	9.594726563	-3.929138184	1.989746094	-2.219966824	0.009016111	-1.241647252	-0.977539063	-0.442382813	0.358642578	895.64	23.63470996	-71.79153413	111.2956871	-49
10168	0	0.409850121	-0.210841179	0.107132912	0.999598503	-0.015393257	-0.000415802	-0.023774147	10.24625301	-5.271029472	2.678322792	-0.769765816	-0.020792881	-1.188866366	-0.952636719	-0.521972656	0.326660156	895.6	29.20532195	-70.58149568	103.5395692	-53
10169	0	0.354553223	-0.204101563	0.105407715	0.99976635	0.013050079	-0.000697136	-0.017181396	8.863830566	-5.102539063	2.635192871	0.652554655	-0.034859504	-0.859136558	-0.927001953	-0.575195313	0.321289063	895.54	35.45976922	-69.56134265	98.46440225	-53
10170	0	0.406736374	-0.170387268	0.105174065	0.999670982	0.025283813	-0.00412178	-0.001141548	10.16840935	-4.259681702	2.629351616	1.264329262	-0.206111613	-0.057083665	-0.905761719	-0.595214844	0.350097656	895.46	39.42742459	-69.83081321	97.30927164	-50
10171	0	0.485534668	-0.088989258	0.112121582	0.999422073	0.02708149	-0.00365448	0.020214081	12.1383667	-2.224731445	2.803039551	1.354335357	-0.182759203	1.010898765	-0.905029297	-0.573242188	0.390869141	895.52	38.11100674	-71.59064884	101.9794871	-49
10172	0	0.471735954	-0.042032242	0.101973534	0.999011993	0.017957687	-0.00219059	0.040575027	11.79339886	-1.050806046	2.549338341	0.898179977	-0.109565555	2.029419294	-0.929199219	-0.510986328	0.427001953	895.56	27.83515301	-74.33519074	114.8623624	-50
10173	0	0.470153809	-0.018066406	0.082458496	0.998013496	0.013076782	-0.001441002	0.061607361	11.75384521	-0.451660156	2.061462402	0.654272351	-0.072097836	3.082409119	-0.968994141	-0.411376953	0.452148438	895.6	3.131578125	-76.4247973	141.8988967	-49
10174	0	0.541262627	-0.004965782	0.082382202	0.996864319	0.015812874	-0.002800941	0.077470779	13.53156567	-0.124144554	2.059555054	0.791470878	-0.140193593	3.87759154	-1.012451172	-0.272460938	0.474609375	895.6	-29.42669422	-74.6227281	177.3200552	-49
10175	0	0.582275391	0.000183105	0.093261719	0.996056557	0.021167755	-0.000617027	0.086147308	14.55688477	0.004577637	2.331542969	1.059780915	-0.030891974	4.313035213	-1.0390625	-0.090576172	0.489501953	895.6	-49.94637834	-68.22528009	-158.5433066	-48
10176	0	0.523041725	-0.016820908	0.085451126	0.995944977	0.01824379	0.003457069	0.088021278	13.07604313	-0.42052269	2.136278152	0.913424306	0.17308746	4.407021599	-1.040527344	0.112304688	0.489990234	895.54	-59.20228451	-59.72372246	-145.955586	-49
10177	0	0.479919434	0.003295898	0.057373047	0.99616909	0.011920929	0.004235268	0.086517334	11.99798584	0.082397461	1.434326172	0.596808564	0.212034147	4.331397838	-1.009277344	0.311767578	0.477783203	895.46	-64.01989922	-50.76167577	-138.4505695	-48
10178	0	0.432616234	0.008331299	0.034240723	0.997023582	0.004493713	0.003255844	0.076886177	10.81540585	0.208282471	0.856018066	0.22490879	0.162953865	3.848126396	-0.948974609	0.494873047	0.465087891	895.6	-67.01705968	-42.60773303	-133.6322923	-48
10179	0	0.376831055	-0.014465332	0.037780762	0.998156548	0.003875732	0.003334999	0.060462952	9.420776367	-0.361633301	0.944519043	0.193905736	0.166852451	3.025005824	-0.870849609	0.638183594	0.454833984	895.56	-68.43331951	-36.09181521	-130.6940544	-47
10180	0	0.332245827	-0.031684875	0.040706635	0.999126434	0.001665115	0.003613472	0.041589737	8.306145668	-0.792121887	1.017665863	0.083280008	0.180726203	2.080092292	-0.798095703	0.740234375	0.442626953	895.56	-69.1365167	-31.55513984	-129.0748007	-47
10181	0	0.326538086	-0.061340332	0.046081543	0.999844551	0.000808716	0.001008034	0.01758194	8.163452148	-1.533508301	1.152038574	0.040437886	0.050404299	0.879142528	-0.746582031	0.797363281	0.432373047	895.56	-69.39958025	-29.69848557	-128.3536626	-47
10182	0	0.277453423	-0.081421852	0.063428879	0.999952316	0.00457859	-0.004080772	-0.007493019	6.936335564	-2.035546303	1.58572197	0.228933097	-0.204041809	-0.37465681	-0.730957031	0.814208984	0.427246094	895.46	-68.94806102	-30.74407372	-128.1752571	-47
10183	0	0.235595703	-0.090576172	0.085998535	0.999459267	0.005191803	-0.011160851	-0.030479431	5.889892578	-2.264404297	2.149963379	0.25963692	-0.558143071	-1.524246137	-0.744384766	0.795166016	0.435058594	895.56	-68.29325732	-34.54544396	-128.2388149	-47
10184	0	0.239151955	-0.107236862	0.108385086	0.99849987	0.009165764	-0.017381668	-0.051107407	5.978798866	-2.680921555	2.709627151	0.458517501	-0.869518258	-2.556648933	-0.788818359	0.737792969	0.447998047	895.68	-66.92792005	-40.80809859	-128.6993812	-47
10185	0	0.263916016	-0.127685547	0.125061035	0.997207642	0.017495155	-0.021072388	-0.069465637	6.597900391	-3.192138672	3.126525879	0.875572696	-1.054600943	-3.476517591	-0.848388672	0.650634766	0.464111328	895.54	-63.7677182	-49.14582076	-130.2642964	-46
10186	0	0.376238823	-0.172016144	0.150952339	0.995581627	0.032094955	-0.023180008	-0.085139275	9.405970573	-4.300403595	3.773808479	1.607115111	-1.160710165	-4.263243642	-0.911376953	0.530761719	0.485839844	895.54	-56.48896451	-59.03614815	-134.619518	-46
10187	0	0.586853027	-0.217651367	0.166442871	0.994345665	0.052719116	-0.01846981	-0.090301514	14.67132568	-5.44128418	4.161071777	2.640934425	-0.925234751	-4.523603453	-0.968505859	0.393310547	0.494384766	895.54	-39.44918356	-68.28479969	-146.7831672	-45
10188	0	0.558694839	-0.139204025	0.118760109	0.995980263	0.053851128	-0.009584427	-0.070921898	13.96737099	-3.480100632	2.969002724	2.696169261	-0.479864365	-3.550853054	-1.014648438	0.272705078	0.486816406	895.54	-13.60844398	-73.04418132	-167.5723675	-45
10189	0	0.346801758	-0.03314209	0.15826416	0.998887062	0.027355194	-0.01040554	-0.036975861	8.670043945	-0.828552246	3.956604004	1.368267149	-0.520470048	-1.84947894	-1.034423828	0.188232422	0.486328125	895.58	4.082459823	-74.63863584	177.2610764	-45
10190	0	0.364076614	0.061202049	0.152328491	0.999780655	0.009051323	-0.011397362	-0.015016556	9.101915359	1.530051231	3.80821228	0.45259914	-0.569909632	-0.750882526	-1.033203125	0.149169922	0.503662109	895.5	12.59528908	-75.70422603	169.5184387	-44
10191	0	0.418395996	-0.020935059	0.090148926	0.999913216	-0.008640289	-0.009619713	-0.002510071	10.4598999	-0.523376465	2.253723145	-0.432026958	-0.480999551	-0.125507169	-1.025390625	0.127197266	0.519287109	895.44	14.11947072	-76.72429326	166.9308646	-44
10192	0	0.412682533	-0.093805313	0.086157799	0.999905586	-0.009898186	-0.005977631	0.007394791	10.31706333	-2.345132828	2.153944969	-0.494924827	-0.298890916	0.369751143	-1.016113281	0.116210938	0.542480469	895.46	10.31387811	-77.58839645	169.6668917	-43
10193	0	0.382446289	-0.086242676	0.119934082	0.999769211	-0.016963005	-0.00320816	0.012733459	9.561157227	-2.156066895	2.998352051	-0.848215317	-0.160420325	0.636721814	-1.009521484	0.124755859	0.552734375	895.54	2.112116988	-78.1319189	176.074071	-43
10194	0	0.352783203	-0.081593513	0.115117073	0.999769211	-0.015751839	-0.003033638	0.014264107	8.819580078	-2.039837837	2.877926826	-0.787652432	-0.151693551	0.713260122	-1.000732422	0.131103516	0.565917969	895.5	-7.373895152	-78.42924072	-176.0778118	-43
10195	0	0.347229004	-0.084838867	0.087219238	0.999855995	-0.014110565	-0.004275322	0.008331299	8.680725098	-2.12097168	2.180480957	-0.705561988	-0.213776317	0.416584856	-0.9921875	0.141845703	0.575927734	895.58	-13.85068482	-78.76377138	-171.1094948	-43
10196	0	0.360051155	-0.109903336	0.075227737	0.999969482	-0.006044388	-0.004868507	-0.00017643	9.001278877	-2.747583389	1.880693436	-0.302222427	-0.243427814	-0.008821576	-0.985107422	0.139404297	0.587158203	895.54	-14.94352313	-79.33777617	-170.6931942	-43
10197	0	0.383117676	-0.108398438	0.071777344	0.999957085	0.00687027	-0.003951073	-0.004703522	9.577941895	-2.709960938	1.794433594	0.343518352	-0.197556431	-0.235179416	-0.98046875	0.130615234	0.599121094	895.56	-11.65653012	-79.92828355	-173.2326142	-43
10198	0	0.402933121	-0.079050064	0.069349289	0.999897003	0.013934135	-0.002575874	-0.001823425	10.07332802	-1.976251602	1.733732224	0.696730476	-0.128798098	-0.091174367	-0.973388672	0.132568359	0.601318359	895.5	-8.992346799	-80.27914196	-174.3184038	-43
10199	0	0.403930664	-0.010498047	0.202270508	0.999422073	0.033799171	-0.002655029	0.002174377	10.0982666	-0.262451172	5.056762695	1.690283822	-0.132777014	0.108739796	-0.971923828	0.152099609	0.599609375	895.46	-6.625859166	-80.56200681	-172.7980681	-43
10200	0	0.40587616	0.063573837	0.08303833	0.998923302	0.046090126	0.002157211	0.00479126	10.14690399	1.589345932	2.075958252	2.305333618	0.107899287	0.239648991	-0.967285156	0.210693359	0.591796875	895.54	-4.230147162	-80.27896382	-169.8742659	-43
10201	0	0.38885498	0.030456543	0.085021973	0.999116898	0.040211678	0.008163452	0.009044647	9.721374512	0.761413574	2.125549316	2.011175938	0.408292803	0.452365531	-0.967041016	0.271728516	0.561279297	895.6	-4.750405122	-79.279754	-164.6645053	-43
10202	0	0.408272743	0.033290863	0.058506012	0.999685287	0.020501137	0.007166862	0.012511253	10.20681858	0.832271576	1.462650299	1.025164191	0.358380653	0.625628182	-0.96875	0.330322266	0.51953125	895.54	-8.923140486	-78.31129657	-158.0115436	-43
10203	0	0.37902832	-0.004272461	0.070251465	0.999936104	0.002910614	0.00414753	0.01001358	9.475708008	-0.106811523	1.756286621	0.145533756	0.207380833	0.500689526	-0.969970703	0.3671875	0.496582031	895.6	-13.29841757	-77.64539752	-153.1899149	-43
10204	0	0.389653206	-0.036643982	0.061410904	0.999972343	-0.000781059	0.001543045	0.007118225	9.741330147	-0.916099548	1.535272598	-0.039053313	0.077152942	0.355914438	-0.966064453	0.388916016	0.491699219	895.54	-16.59995693	-77.28845005	-149.8935362	-43
10205	0	0.382202148	-0.022033691	0.072937012	0.999970436	0.007488251	0.00086689	0.001335144	9.555053711	-0.550842285	1.823425293	0.374416194	0.043344921	0.066757854	-0.959716797	0.403808594	0.490234375	895.5	-16.14606479	-77.17504469	-149.4752222	-43
10206	0	0.360580444	-0.033724785	0.062652588	0.999987602	0.004627228	-0.000394821	-0.001759529	9.014511108	-0.843119621	1.566314697	0.23136234	-0.019741139	-0.087976817	-0.964355469	0.408203125	0.484375	895.46	-14.69611541	-77.29694743	-150.4154856	-43
10207	0	0.379943848	-0.011108398	0.076049805	0.999975204	0.00596714	-0.002185822	-0.002708435	9.498596191	-0.277709961	1.901245117	0.298359383	-0.109291946	-0.13542283	-0.964355469	0.410400391	0.478515625	895.5	-12.80506034	-77.63781999	-151.649985	-43
10208	0	0.388516426	-0.021345139	0.075173378	0.999985695	0.003661156	-0.001424789	-0.003601074	9.712910652	-0.533628464	1.87933445	0.183058652	-0.071239809	-0.180054563	-0.966796875	0.408447266	0.481689453	895.46	-10.55186212	-77.9038705	-153.5249994	-43
10209	0	0.389526367	-0.012817383	0.077026367	0.999990463	0.002415657	-0.000762939	-0.003307343	9.73815918	-0.32043457	1.92565918	0.120783202	-0.038147083	-0.165367605	-0.964111328	0.403808594	0.479003906	895.46	-8.460698871	-78.07394954	-155.3790758	-43
10210	0	0.386502266	-0.011512756	0.081992149	0.999997139	-0.001440048	-0.000165939	-0.001833916	9.662556648	-0.287818909	2.049803734	-0.072002476	-0.008296974	-0.091695869	-0.968505859	0.397460938	0.479980469	895.58	-7.523049541	-78.14179023	-156.5057645	-43
10211	0	0.382873535	-0.01751709	0.08380127	0.999996185	-0.002573967	-0.000148773	0.000102997	9.571838379	-0.437927246	2.095031738	-0.128698492	-0.007438668	0.005149847	-0.970703125	0.393310547	0.480224609	895.46	-7.75996361	-78.17576586	-156.5652987	-43
10212	0	0.382019043	-0.022399902	0.084228516	0.999995232	-0.002203941	-0.000205994	0.00169754	9.550476074	-0.559997559	2.105712891	-0.11019721	-0.010299696	0.084877124	-0.968505859	0.393310547	0.485839844	895.46	-8.8293593	-78.18897622	-155.7315021	-43
10213	0	0.38470459	-0.027099609	0.081481934	0.999997139	-0.001808167	0.000203133	0.000823975	9.617614746	-0.677490234	2.03704834	-0.090408385	0.010156638	0.041198758	-0.968505859	0.393310547	0.485839844	895.5	-9.351588972	-78.1684669	-155.4101521	-43
10214	0	0.387248993	-0.027265549	0.08862114	0.999998093	-0.001696587	0.000281334	-0.000427246	9.681224823	-0.681638718	2.215528488	-0.084829375	0.014066704	-0.021362316	-0.968261719	0.390869141	0.48046875	895.54	-9.18292886	-78.16083666	-155.7813327	-43
10215	0	0.38684082	-0.022644043	0.091308594	0.999999046	-0.001178741	0.000370979	-0.000499725	9.671020508	-0.566101074	2.282714844	-0.05893709	0.018548971	-0.024986274	-0.970703125	0.388916016	0.489257813	895.68	-8.912137086	-78.14284659	-156.1971374	-43
10216	0	0.378434181	-0.023031235	0.091411591	0.999999046	-0.001210213	0.000524521	0.000202179	9.46085453	-0.575780869	2.285289764	-0.060510653	0.026226051	0.010108951	-0.968261719	0.388916016	0.483398438	895.58	-9.014534232	-78.09355498	-156.2347894	-43
10217	0	0.374694824	-0.021911621	0.094909668	0.999999046	0.00050354	0.000351906	0.000865936	9.367370605	-0.547790527	2.372741699	0.025177007	0.017595294	0.043296822	-0.968261719	0.38671875	0.486328125	895.46	-9.293488474	-78.05030821	-155.8926541	-43
10218	0	0.383502007	-0.022789001	0.092576981	0.999998093	0.001336098	0.00057888	0.000976563	9.587550163	-0.569725037	2.314424515	0.06680492	0.02894403	0.04882815	-0.965820313	0.388671875	0.483398438	895.58	-9.516930091	-77.97790477	-155.5095105	-43
10219	0	0.384765625	-0.024780273	0.088928223	0.999999046	0.000804901	0.000695229	0.000846863	9.619140625	-0.619506836	2.223205566	0.040245069	0.03476144	0.042343153	-0.968261719	0.391113281	0.486083984	895.68	-9.722458971	-77.89365708	-155.2069879	-43
10220	0	0.378444672	-0.0256567	0.081926346	0.999998093	0.001302719	0.000460625	0.001079559	9.461116791	-0.641417503	2.048158646	0.065135989	0.023031247	0.053977994	-0.970703125	0.395507813	0.477294922	895.68	-10.0152302	-77.83048611	-154.7562742	-42
10221	0	0.383544922	-0.024353027	0.083190918	0.999992371	0.002961159	-0.000476837	0.002128601	9.588623047	-0.608825684	2.079772949	0.148058271	-0.023841912	0.106430294	-0.968505859	0.399658203	0.476806641	895.56	-10.75689744	-77.84993835	-153.6526211	-42
10222	0	0.381280899	-0.021371841	0.086977959	0.999992371	0.003310204	-0.000472069	0.00152874	9.532022476	-0.534296036	2.174448967	0.16551055	-0.023603493	0.076437169	-0.966308594	0.404052734	0.473632813	895.54	-11.14994026	-77.87892798	-152.8648739	-43
10223	0	0.379150391	-0.018432617	0.088745117	0.999997139	0.001651764	-0.000674248	0.001010895	9.478759766	-0.46081543	2.21862793	0.082588254	-0.033712411	0.050544774	-0.961914063	0.412597656	0.47265625	895.5	-11.4880002	-77.94045556	-152.3271696	-43
10224	0	0.385755539	-0.023491859	0.090314865	0.999999046	-0.000325203	-0.000572205	0.000451088	9.643888474	-0.587296486	2.257871628	-0.016260149	-0.028610233	0.0225544	-0.964599609	0.414794922	0.475341797	895.52	-11.75319633	-78.00199377	-152.0961156	-43
10225	0	0.385986328	-0.02911377	0.087158203	0.999999046	-0.000759125	-0.000414848	0.000328064	9.649658203	-0.727844238	2.178955078	-0.037956243	-0.020742419	0.016403201	-0.962158203	0.414794922	0.480957031	895.56	-11.9913557	-78.04779279	-151.9440225	-42
10226	0	0.385246277	-0.030538559	0.088255882	0.999999046	0.000669479	-0.001089096	0.000494003	9.631156921	-0.763463974	2.206397057	0.033473979	-0.054454821	0.024700173	-0.957519531	0.414550781	0.477783203	895.5	-12.23666089	-78.16416203	-151.6174852	-42
10227	0	0.386474609	-0.030029297	0.088378906	0.999988556	0.003769875	-0.002189636	0.001785278	9.661865234	-0.750732422	2.209472656	0.188494426	-0.109482216	0.089264246	-0.959960938	0.416748047	0.477783203	895.6	-12.96729558	-78.36991536	-150.433243	-42
10228	0	0.380322456	-0.027438164	0.09405899	0.999974251	0.006131172	-0.002550125	0.002716064	9.508061409	-0.685954094	2.351474762	0.306561239	-0.12750735	0.135804388	-0.953125	0.423095703	0.477050781	895.54	-14.02332576	-78.58599397	-148.6419446	-42
10229	0	0.37701416	-0.024536133	0.090332031	0.999976158	0.006568909	-0.001135826	0.001438141	9.425354004	-0.61340332	2.258300781	0.328447981	-0.056791746	0.071907601	-0.94921875	0.436035156	0.481445313	895.68	-14.16342698	-78.67572705	-147.7344882	-42
10230	0	0.387084007	-0.024719238	0.084465981	0.999982834	0.005763054	-0.000790596	0.000631332	9.677100182	-0.617980957	2.111649513	0.288154339	-0.039530026	0.0315668	-0.949462891	0.442626953	0.475097656	895.46	-13.90634661	-78.74900934	-147.3264109	-43
10231	0	0.388122559	-0.025146484	0.077453613	0.999991417	0.003974915	-0.000792503	-5.34E-05	9.703063965	-0.628662109	1.936340332	0.198746272	-0.039625276	-0.002670295	-0.944824219	0.448974609	0.46875	895.52	-13.47267609	-78.84120982	-147.3070498	-42
10232	0	0.380861282	-0.025474548	0.076321602	0.999988556	0.004404068	-0.001347542	-0.000357628	9.521532059	-0.636863708	1.908040047	0.220204183	-0.06737733	-0.017881457	-0.947509766	0.453369141	0.471191406	895.54	-12.88907972	-79.00292177	-147.3907249	-42
10233	0	0.379943848	-0.020263672	0.076599121	0.999974251	0.006874084	-0.001952171	3.05E-05	9.498596191	-0.506591797	1.914978027	0.343707149	-0.097609397	0.001525892	-0.945068359	0.455566406	0.468261719	895.68	-12.31814324	-79.22197609	-147.1735604	-42
10234	0	0.385937691	-0.012208939	0.080882072	0.999983788	0.005350113	-0.001850128	-0.000463486	9.648442268	-0.305223465	2.022051811	0.267507084	-0.092506906	-0.02317441	-0.942871094	0.461914063	0.464599609	895.54	-11.60565082	-79.44124264	-147.2780151	-42
10235	0	0.390380859	-0.010070801	0.080932617	0.999998093	0.000645638	-0.000888824	-0.001434326	9.759521484	-0.25177002	2.02331543	0.032281893	-0.044441247	-0.071716348	-0.940673828	0.464111328	0.461425781	895.56	-10.7081781	-79.57312366	-148.1185144	-42
10236	0	0.392703056	-0.015985489	0.077814102	0.999993324	-0.003136635	-4.39E-05	-0.001306534	9.817576408	-0.399637222	1.945352554	-0.156832043	-0.002193455	-0.065326816	-0.942871094	0.459716797	0.467773438	895.58	-10.21220917	-79.60477495	-148.991611	-42
10237	0	0.390075684	-0.022338867	0.073303223	0.999997139	-0.002151489	-1.43E-05	-0.000617981	9.75189209	-0.55847168	1.832580566	-0.107574553	-0.000715256	-0.030899074	-0.945068359	0.455566406	0.465332031	895.5	-10.02371837	-79.61794763	-149.4373073	-42
10238	0	0.385156631	-0.018458366	0.074004173	0.999998093	-0.001717567	0.000252724	-0.000663757	9.628915787	-0.46145916	1.850104332	-0.085878422	0.012636192	-0.033187885	-0.944824219	0.451171875	0.468505859	895.58	-9.730214761	-79.60116143	-149.9394604	-42
10239	0	0.380493164	-0.013122559	0.076049805	0.999995232	-0.002857208	0.000443459	-0.000988007	9.512329102	-0.328063965	1.901245117	-0.142860635	0.022172962	-0.049400406	-0.947265625	0.448974609	0.471679688	895.54	-9.350231309	-79.5679894	-150.6622831	-42
10240	0	0.382040024	-0.01594162	0.080690384	0.999992371	-0.003761292	-6.58E-05	-0.000810623	9.551000595	-0.398540497	2.017259598	-0.188065039	-0.003290185	-0.040531258	-0.946777344	0.442382813	0.466552734	895.68	-9.236322589	-79.58788928	-151.2198439	-42
10241	0	0.3828125	-0.017700195	0.079284668	0.999984741	-0.005297661	-4.96E-05	-0.000881195	9.5703125	-0.442504883	1.982116699	-0.264884315	-0.002479565	-0.044059965	-0.94921875	0.438232422	0.478271484	895.54	-9.253743126	-79.60656704	-151.8230949	-42
10242	0	0.385669708	-0.024331093	0.079172134	0.999983788	-0.005529404	0.000169754	-0.000891685	9.641742706	-0.608277321	1.97930336	-0.276471631	0.008487746	-0.044584508	-0.951171875	0.4296875	0.481933594	895.58	-9.272219617	-79.60005331	-152.4523882	-42
10243	0	0.389465332	-0.025756836	0.080078125	0.999988556	-0.004584312	0.000442505	-0.000965118	9.736633301	-0.643920898	2.001953125	-0.229216468	0.022125326	-0.048256099	-0.948730469	0.423095703	0.485351563	895.54	-9.115052679	-79.56328645	-153.1502365	-42
10244	0	0.386230469	-0.024047852	0.082336426	0.999986649	-0.004894257	0.000901222	-0.001300812	9.655761719	-0.601196289	2.058410645	-0.244713909	0.04506131	-0.065040875	-0.953125	0.416748047	0.488769531	895.46	-8.751813197	-79.47929401	-154.0939788	-42
10245	0	0.384643555	-0.024291992	0.081176758	0.99998188	-0.005641937	0.001450539	-0.001255035	9.616088867	-0.607299805	2.029418945	-0.282098532	0.072527361	-0.062752141	-0.955078125	0.407958984	0.486816406	895.58	-8.467815783	-79.33071044	-155.0446526	-42
10246	0	0.383616447	-0.027994156	0.083865166	0.999983788	-0.005281448	0.001361847	-0.00124073	9.590411186	-0.699853897	2.096629143	-0.264073795	0.068092701	-0.062036838	-0.959472656	0.399414063	0.490478516	895.58	-8.179771801	-79.19038664	-155.9580889	-42
10247	0	0.381286621	-0.027587891	0.084594727	0.999988556	-0.004336357	0.001083374	-0.001121521	9.532165527	-0.689697266	2.114868164	-0.216818623	0.054168893	-0.056076248	-0.959228516	0.393066406	0.493896484	895.5	-7.895496	-79.07823566	-156.7578914	-42
10248	0	0.377807617	-0.027290344	0.084748268	0.999993324	-0.003338814	0.000669479	-0.000718117	9.44519043	-0.682258606	2.118706703	-0.166941026	0.033474036	-0.03590591	-0.963623047	0.386474609	0.494628906	895.58	-7.77955116	-79.00559638	-157.2702204	-42
10249	0	0.382446289	-0.030273438	0.087524414	0.999998093	-0.00171566	0.000141144	3.81E-06	9.561157227	-0.756835938	2.188110352	-0.085783047	0.007057193	0.000190735	-0.961181641	0.382080078	0.497802734	895.58	-7.9481167	-78.98093535	-157.3035181	-42
10250	0	0.386388779	-0.028375626	0.086315155	0.999999046	0.000452042	0.000200272	4.58E-05	9.659719467	-0.70939064	2.157878876	0.022602082	0.010013581	0.002288818	-0.9609375	0.379882813	0.4921875	895.56	-7.891649089	-78.94831045	-157.3130123	-42
10251	0	0.383544922	-0.024658203	0.084350586	0.999999046	0.001182556	0.000321388	0.000167847	9.588623047	-0.616455078	2.108764648	0.059127823	0.016069416	0.008392336	-0.961181641	0.382080078	0.494873047	895.58	-7.815504337	-78.89953568	-157.2573401	-42
10252	0	0.381713867	-0.021353722	0.084095955	0.999998093	0.00173378	0.000416756	0.000583649	9.54284668	-0.53384304	2.102398872	0.086689046	0.020837796	0.029182451	-0.963378906	0.382080078	0.495117188	895.58	-7.909845208	-78.83296528	-156.9637302	-42
10253	0	0.385437012	-0.019104004	0.083557129	0.999998093	0.001393318	0.000370026	0.000518799	9.635925293	-0.477600098	2.088928223	0.069665936	0.018501289	0.025939952	-0.961181641	0.386474609	0.491699219	895.46	-8.00860583	-78.77229503	-156.7050984	-42
10254	0	0.384498596	-0.019815445	0.085482597	0.999999046	0.00094223	0.000452042	0.000105858	9.612464905	-0.495386124	2.137064934	0.04711152	0.022602085	0.005292893	-0.963623047	0.388671875	0.491699219	895.6	-7.9168148	-78.70845609	-156.6934944	-42
10255	0	0.381347656	-0.018188477	0.082458496	0.999999046	0.001094818	0.000397682	0.000202179	9.533691406	-0.454711914	2.061462402	0.054740919	0.019884114	0.01010895	-0.963623047	0.388671875	0.486083984	895.52	-7.867587247	-78.64902619	-156.6206829	-42
10256	0	0.380418777	-0.019626617	0.082924843	0.999999046	0.001111031	0.000482559	0.000144005	9.510469437	-0.490665436	2.073121071	0.055551543	0.024127966	0.007200243	-0.963623047	0.390869141	0.480224609	895.58	-7.778254271	-78.58062158	-156.5868078	-42
10257	0	0.381958008	-0.016662598	0.080993652	0.999999046	-0.000205994	0.000889778	-0.000289917	9.548950195	-0.416564941	2.024841309	-0.010299684	0.044488914	-0.014495852	-0.965820313	0.388671875	0.483398438	895.52	-7.567497158	-78.47253249	-156.8311087	-42
10258	0	0.379984856	-0.01910305	0.086055756	0.999998093	-0.001246452	0.000964165	-0.000439644	9.499621391	-0.477576256	2.15139389	-0.062322644	0.048208258	-0.021982203	-0.965820313	0.388671875	0.483398438	895.58	-7.392828236	-78.35773988	-157.1603034	-42
10259	0	0.388183594	-0.019775391	0.090087891	0.999999046	-0.000453949	0.000336647	0.000312805	9.704589844	-0.494384766	2.252197266	-0.02269745	0.016832353	0.01564026	-0.968017578	0.38671875	0.483642578	895.58	-7.590121208	-78.30261856	-157.0172744	-42
10260	0	0.387011528	-0.018453598	0.092406273	0.999999046	-0.000823021	0.000534058	0.000170708	9.6752882	-0.461339951	2.310156822	-0.041151054	0.026702885	0.008535387	-0.968017578	0.384521484	0.480957031	895.52	-7.736543534	-78.22667604	-156.9694115	-42
10261	0	0.379333496	-0.018005371	0.090393066	0.999999046	-0.00056839	0.000546455	0.000709534	9.483337402	-0.450134277	2.25982666	-0.0284195	0.027322774	0.035476691	-0.965576172	0.386474609	0.477783203	895.58	-8.143592314	-78.14032723	-156.6253629	-42
10262	0	0.381955147	-0.019869804	0.088833809	0.999999046	9.35E-05	0.000173569	0.001140594	9.54887867	-0.49674511	2.220845222	0.004673005	0.008678438	0.057029737	-0.965820313	0.386474609	0.480712891	895.56	-8.731954773	-78.08808685	-156.0187167	-43
10263	0	0.385742188	-0.015563965	0.088745117	0.999999046	-0.000350952	-4.86E-05	0.000873566	9.643554688	-0.389099121	2.21862793	-0.01754761	-0.00243187	0.04367829	-0.963623047	0.388671875	0.483154297	895.68	-9.24212553	-78.06438206	-155.5438777	-43
10264	0	0.38206768	-0.012141228	0.084609032	0.99998951	-0.004439354	0.000652313	0.0001297	9.551692009	-0.303530693	2.115225792	-0.221968443	0.032615771	0.006485007	-0.965820313	0.390869141	0.480224609	895.76	-9.757741364	-77.97468956	-155.5418744	-43
10265	0	0.38494873	-0.022583008	0.089172363	0.999987602	-0.004917145	0.000512123	-0.00031662	9.623718262	-0.564575195	2.229309082	-0.245858244	0.02560626	-0.015831058	-0.965576172	0.384277344	0.480712891	895.56	-10.10334406	-77.90946258	-155.7699728	-43
10266	0	0.38285923	-0.024431229	0.088471413	0.999994278	-0.003045082	0.000559807	-0.000166893	9.571480751	-0.610780716	2.211785316	-0.152254349	0.027990386	-0.008344664	-0.965576172	0.380126953	0.483886719	895.64	-10.30988201	-77.83588546	-155.9211707	-43
10267	0	0.383056641	-0.019897461	0.088745117	0.999996185	-0.002364159	0.000267029	0.000419617	9.576416016	-0.497436523	2.21862793	-0.118208047	0.013351453	0.020980855	-0.965332031	0.377685547	0.481201172	895.68	-10.77166451	-77.7830619	-155.7314302	-43
10268	0	0.383232117	-0.02606678	0.087790489	0.999994278	-0.003311157	0.00042057	0.000114441	9.580802917	-0.651669502	2.19476223	-0.165558169	0.021028558	0.005722057	-0.967529297	0.373535156	0.487548828	895.56	-11.16721385	-77.719214	-155.7206912	-43
10269	0	0.381469727	-0.027282715	0.090515137	0.999999046	-0.001144409	9.25E-05	-3.81E-06	9.536743164	-0.682067871	2.262878418	-0.057220472	0.004625321	-0.000190735	-0.965332031	0.371337891	0.487548828	895.58	-11.28717878	-77.69461443	-155.7378866	-43
10270	0	0.380965233	-0.023209572	0.088150978	0.999999046	-0.001281738	0.000202179	-0.000190735	9.524130821	-0.580239296	2.203774452	-0.064086932	0.010108951	-0.009536746	-0.965087891	0.369140625	0.490478516	895.52	-11.31579469	-77.66178905	-155.864757	-43
10271	0	0.382751465	-0.025390625	0.088012695	0.999999046	-0.000614166	-4.86E-05	0.000610352	9.568786621	-0.634765625	2.200317383	-0.030708317	-0.00243187	0.030517582	-0.967285156	0.366943359	0.488037109	895.58	-11.70560793	-77.63881697	-155.5436488	-43
10272	0	0.382731438	-0.023710251	0.089592934	0.999999046	-0.000247002	-2.48E-05	0.000613213	9.568285942	-0.592756271	2.239823341	-0.012350083	-0.001239777	0.030660632	-0.967529297	0.366943359	0.490722656	895.58	-12.05114845	-77.61251225	-155.2248134	-43
10273	0	0.382751465	-0.025024414	0.08782959	0.999999046	-0.000720978	-7.15E-05	0.000629425	9.568786621	-0.625610352	2.195739746	-0.036048895	-0.003576279	0.031471257	-0.965332031	0.371337891	0.490478516	895.5	-12.46351393	-77.59053219	-154.8927654	-43
10274	0	0.38303566	-0.02679348	0.087796211	0.999999046	-0.000522614	-7.63E-06	0.00019455	9.575891495	-0.669836998	2.194905281	-0.026130678	-0.00038147	0.009727479	-0.965332031	0.371337891	0.493164063	895.64	-12.62473795	-77.57180443	-154.7947296	-43
10275	0	0.383117676	-0.02722168	0.090576172	0.999999046	6.48E-05	-7.53E-05	0.000217438	9.577941895	-0.680541992	2.264404297	0.003242493	-0.003767014	0.010871887	-0.965332031	0.371337891	0.490478516	895.56	-12.73825655	-77.55981676	-154.6766168	-43
10276	0	0.381227493	-0.027254105	0.090520859	0.999999046	0.000517845	-0.000177383	0.000342369	9.530687332	-0.681352615	2.263021469	0.025892259	-0.008869172	0.017118455	-0.965332031	0.371337891	0.493164063	895.64	-12.87519006	-77.55577989	-154.4815918	-43
10277	0	0.382019043	-0.026123047	0.091796875	0.999998093	0.001416206	-0.000331879	0.000495911	9.550476074	-0.653076172	2.294921875	0.070810346	-0.01659394	0.024795542	-0.965332031	0.371337891	0.490478516	895.58	-13.00492044	-77.56469185	-154.1886057	-43
10278	0	0.383453369	-0.026380539	0.086550713	0.999997139	0.002004623	-0.000143051	-0.000267982	9.586334229	-0.659513474	2.163767815	0.100231239	-0.007152562	-0.013399133	-0.963134766	0.375732422	0.492675781	895.56	-12.65863353	-77.57206151	-154.3137901	-43
10279	0	0.385070801	-0.029602051	0.08770752	0.999993324	0.00345993	-0.000388145	-0.000514984	9.62677002	-0.74005127	2.192687988	0.172996878	-0.019407312	-0.02574926	-0.965332031	0.375732422	0.487060547	895.58	-12.04766327	-77.61259924	-154.5393756	-43
10280	0	0.382483482	-0.028532982	0.088708878	0.999982834	0.005802155	-0.00061512	-0.0002985	9.562087059	-0.713324547	2.217721939	0.290109377	-0.030756172	-0.014925088	-0.965332031	0.377929688	0.484130859	895.68	-11.30076369	-77.6728035	-154.6295646	-42
10281	0	0.385437012	-0.023376465	0.089416504	0.999978065	0.006591797	-0.00045681	0.000434875	9.635925293	-0.584411621	2.235412598	0.329592253	-0.022840667	0.021743933	-0.963378906	0.384277344	0.486328125	895.64	-10.82148902	-77.69866669	-154.3533662	-42
10282	0	0.386053085	-0.016675949	0.089226723	0.999987602	0.004852295	1.91E-06	0.000653267	9.651327133	-0.416898727	2.230668068	0.242615715	9.54E-05	0.032663476	-0.961181641	0.392822266	0.477050781	895.5	-10.60681602	-77.66846872	-154.0096518	-42
10283	0	0.382507324	-0.012207031	0.08581543	0.999997139	0.002296448	0.000313759	0.00018692	9.562683105	-0.305175781	2.145385742	0.114822491	0.015687957	0.009346017	-0.963867188	0.397216797	0.473876953	895.58	-10.41239271	-77.61324676	-153.9448508	-42
10284	0	0.379641533	-0.012450218	0.084523201	0.999999046	0.000660896	0.000120163	-0.0001688	9.491038322	-0.311255455	2.113080025	0.033044818	0.006008149	-0.008440018	-0.961425781	0.397216797	0.468017578	895.56	-10.23976607	-77.58738709	-154.049485	-42
10285	0	0.381958008	-0.014099121	0.085266113	0.999999046	-0.000656128	-0.000185966	3.05E-05	9.548950195	-0.352478027	2.131652832	-0.032806399	-0.009298325	0.001525879	-0.963867188	0.397216797	0.473876953	895.58	-10.34753231	-77.5921339	-154.021878	-43
10286	0	0.383087158	-0.020647049	0.087536812	0.999998093	-0.001921654	-0.00017643	0.000160217	9.577178955	-0.516176224	2.188420296	-0.096082747	-0.008821493	0.008010869	-0.963867188	0.397216797	0.476806641	895.6	-10.66620136	-77.59311695	-153.9267189	-42
10287	0	0.38458252	-0.024475098	0.090332031	0.999998093	-0.001914024	-0.000148773	0.000225067	9.614562988	-0.611877441	2.258300781	-0.095701277	-0.007438664	0.011253364	-0.963623047	0.395263672	0.477050781	895.58	-11.0154628	-77.58936439	-153.799403	-42
10288	0	0.384169579	-0.027503967	0.092004776	0.999998093	-0.001531601	-1.81E-05	-0.00012207	9.604239464	-0.687599182	2.3001194	-0.076580078	-0.000905991	-0.006103518	-0.961181641	0.392822266	0.477050781	895.58	-11.13183093	-77.57822855	-153.865751	-42
10289	0	0.381103516	-0.028076172	0.092773438	0.999999046	-4.96E-05	0.000164986	8.39E-05	9.527587891	-0.701904297	2.319335938	-0.002479553	0.008249283	0.004196167	-0.963623047	0.393066406	0.479980469	895.58	-11.1664006	-77.5416589	-153.8422304	-42
10290	0	0.380336761	-0.024792671	0.091918945	0.999999046	0.001047134	0.000154495	0.00069809	9.508419037	-0.61981678	2.297973633	0.052356734	0.007724764	0.034904489	-0.961181641	0.390625	0.477294922	895.58	-11.38811109	-77.49225383	-153.498791	-43
10291	0	0.387145996	-0.022033691	0.086669922	0.999999046	0.000793457	0.000332832	0.000579834	9.678649902	-0.550842285	2.166748047	0.039672859	0.01664162	0.028991704	-0.963623047	0.395019531	0.474121094	895.64	-11.55847763	-77.42540273	-153.2370364	-42
10292	0	0.38248539	-0.020997047	0.0872612	0.999999046	2.77E-05	0.000526428	9.44E-05	9.562134743	-0.524926186	2.181529999	0.001382828	0.026321412	0.004720688	-0.961425781	0.395019531	0.476806641	895.68	-11.550916	-77.34797342	-153.2476507	-42
10293	0	0.380371094	-0.020385742	0.088500977	0.999999046	-0.000591278	0.000390053	0.000293732	9.509277344	-0.509643555	2.212524414	-0.029563907	0.019502642	0.014686586	-0.961425781	0.395019531	0.473876953	895.68	-11.72678178	-77.28130132	-153.142725	-42
10294	0	0.383766174	-0.023159981	0.090480804	0.999999046	-0.000646591	0.000192642	0.000430107	9.594154358	-0.578999519	2.262020111	-0.032329563	0.009632112	0.021505358	-0.963623047	0.395019531	0.468505859	895.56	-11.99563407	-77.23346243	-152.9487023	-42
10295	0	0.382019043	-0.024414063	0.091003418	0.999999046	-0.000663757	0.0001688	0.000137329	9.550476074	-0.610351563	2.275085449	-0.033187869	0.008440018	0.006866456	-0.963623047	0.395019531	0.474121094	895.6	-12.12323108	-77.19510944	-152.9018965	-42
10296	0	0.382346153	-0.026595116	0.091950417	0.999999046	-0.000153542	0.00015831	0.000202179	9.558653831	-0.664877892	2.298760414	-0.007677078	0.007915497	0.010108948	-0.963623047	0.392822266	0.471435547	895.52	-12.22551103	-77.15624277	-152.8213072	-42
10297	0	0.381103516	-0.02722168	0.090759277	0.999999046	0.000282288	-1.05E-05	-3.43E-05	9.527587891	-0.680541992	2.268981934	0.01411438	-0.000524521	-0.001716614	-0.966064453	0.395263672	0.477050781	895.56	-12.18010545	-77.14194818	-152.8409667	-42
10298	0	0.381229401	-0.026473045	0.091070175	0.999999046	0.000497818	1.14E-05	0.000121117	9.530735016	-0.661826134	2.276754379	0.024890901	0.000572205	0.006055832	-0.963623047	0.393066406	0.474365234	895.58	-12.18443057	-77.12137699	-152.7844948	-42
10299	0	0.381774902	-0.025695801	0.091064453	0.999999046	0.001041412	-7.15E-05	0.000476837	9.544372559	-0.64239502	2.276611328	0.052070629	-0.003576279	0.023841863	-0.963623047	0.395019531	0.471191406	895.64	-12.30943068	-77.10139473	-152.5400182	-42
10300	0	0.380116463	-0.024037361	0.091241837	0.999999046	0.001023293	1.14E-05	0.000617027	9.502911568	-0.600934029	2.281045914	0.051164639	0.000572205	0.030851371	-0.963623047	0.397216797	0.468261719	895.52	-12.49507172	-77.06847945	-152.2352339	-42
10301	0	0.383117676	-0.023376465	0.088195801	0.999999046	0.000461578	7.72E-05	0.000492096	9.577941895	-0.584411621	2.20489502	0.02307892	0.003862381	0.024604799	-0.963867188	0.399414063	0.470947266	895.46	-12.67564113	-77.0312637	-152.0017506	-42
10302	0	0.381736755	-0.023974419	0.089984894	0.999999046	-0.000511169	0.000232697	0.000510216	9.543418884	-0.599360466	2.249622345	-0.025558474	0.011634828	0.02551079	-0.963867188	0.399414063	0.470947266	895.52	-12.9576741	-76.97607677	-151.7785604	-42
10303	0	0.379882813	-0.023864746	0.088745117	0.999999046	-0.001144409	0.00042057	0.000629425	9.497070313	-0.596618652	2.21862793	-0.057220477	0.021028525	0.031471262	-0.961425781	0.399414063	0.470703125	895.52	-13.34580046	-76.89666572	-151.5207635	-42
10304	0	0.38190937	-0.027176857	0.090041161	0.999999046	-0.000863075	0.000249863	0.000590324	9.547734261	-0.679421425	2.251029015	-0.043153771	0.012493136	0.029516226	-0.963867188	0.399414063	0.473876953	895.58	-13.69944201	-76.83703445	-151.2655646	-42
10305	0	0.386657715	-0.02532959	0.090209961	0.999999046	-0.000614166	-5.25E-05	0.00018692	9.666442871	-0.633239746	2.255249023	-0.030708315	-0.002622605	0.009346009	-0.963867188	0.399414063	0.470947266	895.56	-13.86593425	-76.82197382	-151.1727825	-42
10306	0	0.380310059	-0.025219917	0.092518806	0.999999046	-0.000667572	-8.20E-05	0.000308037	9.507751465	-0.630497932	2.312970161	-0.033378604	-0.0041008	0.015401842	-0.961425781	0.399414063	0.473632813	895.52	-14.09882654	-76.80676169	-151.0181695	-43
