Counter	Temperature	VelInc_X	VelInc_Y	VelInc_Z	OriInc_w	OriInc_x	OriInc_y	OriInc_z	Acc_X	Acc_Y	Acc_Z	Gyr_X	Gyr_Y	Gyr_Z	Mag_X	Mag_Y	Mag_Z	Pressure	Roll	Pitch	Yaw	RSSI
9615	0	0.370788574	-0.082946777	0.073547363	0.999997139	0.00226593	0.000718117	-0.000225067	9.269714355	-2.073669434	1.838684082	0.113296616	0.035905872	-0.011253368	-0.645019531	0.038330078	-0.767333984	895.9	-54.61620536	-69.54930472	74.82199868	-69
9616	0	0.367919922	-0.090637207	0.069274902	0.999999046	0.000905037	0.000244141	-0.000827789	9.197998047	-2.265930176	1.731872559	0.045251858	0.012207034	-0.041389476	-0.644775391	0.031738281	-0.761230469	895.86	-54.27262148	-69.61618539	74.56503186	-69
9617	0	0.37298584	-0.088012695	0.069519043	0.999999046	0.000331879	-0.000277519	-0.00112915	9.324645996	-2.200317383	1.737976074	0.016593937	-0.013875965	-0.056457533	-0.642333984	0.029541016	-0.766845703	896.02	-54.06842251	-69.74685454	74.38606325	-69
9618	0	0.372927666	-0.091395378	0.072240829	0.999995232	-0.002401352	-0.000255585	-0.001426697	9.323191643	-2.284884453	1.806020737	-0.120067754	-0.012779253	-0.071334932	-0.64453125	0.02734375	-0.760742188	895.86	-54.11523567	-69.90450641	74.14303604	-69
9619	0	0.372009277	-0.096008301	0.077148438	0.99998951	-0.004146576	-0.00039959	-0.001613617	9.300231934	-2.40020752	1.928710938	-0.207329486	-0.019979543	-0.080681116	-0.644775391	0.031738281	-0.766845703	895.9	-54.36273122	-70.08990345	73.90023473	-69
9620	0	0.371778488	-0.09719944	0.081596375	0.999982834	-0.005338669	-0.000288963	-0.00213623	9.294462204	-2.429986	2.039909363	-0.266934916	-0.014448246	-0.106812114	-0.645019531	0.036132813	-0.761474609	895.98	-54.61998196	-70.31728984	73.52368334	-70
9621	0	0.371887207	-0.10748291	0.078918457	0.999982834	-0.005099297	-5.34E-05	-0.002666473	9.297180176	-2.687072754	1.972961426	-0.254966236	-0.002670303	-0.133324405	-0.643066406	0.042724609	-0.756347656	895.9	-54.68573145	-70.57880721	72.97279252	-70
9622	0	0.370415688	-0.111104012	0.081096649	0.999993324	-0.002595901	0	-0.002456665	9.260392189	-2.777600288	2.027416229	-0.129795351	0	-0.122833513	-0.645263672	0.042724609	-0.761962891	895.96	-54.48196772	-70.8164835	72.4410811	-71
9623	0	0.375427246	-0.105224609	0.077331543	0.999996185	9.54E-07	-0.00012207	-0.002483368	9.385681152	-2.630615234	1.933288574	4.77E-05	-0.006103522	-0.124168524	-0.645263672	0.044921875	-0.762207031	895.9	-53.99735806	-71.06365334	71.9257073	-72
9624	0	0.371249199	-0.100513458	0.0757761	0.999996185	-0.001478195	0.000260353	-0.001960754	9.281229973	-2.512836456	1.894402504	-0.073909835	0.013017668	-0.098037819	-0.645019531	0.038330078	-0.76171875	895.84	-53.67122105	-71.23538439	71.40182725	-72
9625	0	0.368530273	-0.102233887	0.07409668	0.999993324	-0.003192902	0.000199318	-0.00113678	9.213256836	-2.555847168	1.852416992	-0.159645387	0.009965916	-0.056839098	-0.647705078	0.042724609	-0.759033203	895.96	-53.71861231	-71.33458617	71.06533368	-73
9626	0	0.373019218	-0.108391762	0.074039459	0.999998093	-0.001479149	-0.000365257	-0.000947952	9.325480461	-2.709794044	1.850986481	-0.073957483	-0.018262873	-0.047397639	-0.645263672	0.042724609	-0.759277344	895.96	-53.76184965	-71.4543341	70.93161329	-75
9627	0	0.374450684	-0.103271484	0.07635498	0.999998093	-0.001128197	-0.000556946	-0.001018524	9.36126709	-2.581787109	1.908874512	-0.05640986	-0.027847302	-0.050926231	-0.645263672	0.044921875	-0.759277344	895.84	-53.80316299	-71.59339686	70.83733168	-76
9628	0	0.372806549	-0.106847763	0.08131218	0.999996185	-0.002700806	-0.000418663	-0.00033474	9.320163727	-2.671194077	2.032804489	-0.135040454	-0.020933178	-0.016737005	-0.647705078	0.044921875	-0.759277344	895.9	-54.12558911	-71.65928881	70.85108659	-77
9629	0	0.369995117	-0.108886719	0.083068848	0.999995232	-0.002796173	0.00017643	0.000434875	9.24987793	-2.722167969	2.076721191	-0.139808842	0.008821499	0.021743804	-0.647949219	0.049316406	-0.759521484	895.86	-54.44810329	-71.61298195	70.85354955	-78
9630	0	0.371397018	-0.108877182	0.082042694	0.999999046	-0.000944138	0.000247955	0.00088501	9.284925461	-2.72192955	2.051067352	-0.047206892	0.01239777	0.044250501	-0.645751953	0.055908203	-0.757324219	895.9	-54.6273257	-71.51924375	70.92684024	-78
9631	0	0.373413086	-0.10144043	0.076904297	0.999999046	0.000572205	0.000325203	0.000782013	9.335327148	-2.536010742	1.922607422	0.028610234	0.01626015	0.039100654	-0.645751953	0.055908203	-0.760253906	895.92	-54.58985868	-71.42983481	70.95485112	-78
9632	0	0.374740601	-0.098285675	0.069507599	0.999999046	0.000464439	0.000236511	0.000862122	9.368515015	-2.457141876	1.737689972	0.023221974	0.011825564	0.043106086	-0.645751953	0.053710938	-0.760009766	895.92	-54.60544082	-71.33908286	71.027059	-78
9633	0	0.374572754	-0.098571777	0.070068359	0.999999046	0.00050354	3.53E-05	0.001037598	9.364318848	-2.464294434	1.751708984	0.025177008	0.001764298	0.051879894	-0.645751953	0.055908203	-0.757324219	895.96	-54.70615908	-71.24549546	71.1933483	-78
9634	0	0.374002457	-0.096288681	0.069213867	0.999998093	0.000617027	-0.000256538	0.001213074	9.350061417	-2.407217026	1.73034668	0.030851374	-0.012826924	0.060653706	-0.643554688	0.055908203	-0.757568359	895.96	-54.90685432	-71.15498884	71.47888309	-79
9635	0	0.373474121	-0.094543457	0.073181152	0.999999046	0.000286102	-0.00039196	0.000747681	9.336853027	-2.363586426	1.829528809	0.014305117	-0.01959801	0.037384038	-0.645751953	0.058105469	-0.763183594	895.92	-55.09074483	-71.11711458	71.70558495	-81
9636	0	0.378395081	-0.095677376	0.075623512	0.999999046	-0.000805855	-8.01E-05	4.96E-05	9.459877014	-2.391934395	1.890587807	-0.040292744	-0.004005433	0.002479553	-0.643554688	0.058105469	-0.760498047	895.96	-55.17905673	-71.12458981	71.69966153	-84
9637	0	0.37528038	-0.10175705	0.080166817	0.999999046	-0.001073837	-9.44E-05	-0.000366211	9.382009506	-2.543926239	2.004170418	-0.053691876	-0.004720689	-0.018310551	-0.643554688	0.058105469	-0.760498047	895.98	-55.22153992	-71.17201257	71.61345332	-85
9638	0	0.370789528	-0.102560043	0.078170776	0.999999046	-0.000101089	0	-0.000328064	9.269738197	-2.564001083	1.954269409	-0.005054474	0	-0.016403199	-0.645996094	0.060302734	-0.760498047	895.96	-55.13304348	-71.20948415	71.50582637	-86
9639	0	0.372375488	-0.102416992	0.075378418	0.999999046	0.000541687	-1.81E-05	-0.000530243	9.309387207	-2.560424805	1.884460449	0.027084353	-0.000905991	-0.026512149	-0.645996094	0.060302734	-0.760498047	895.92	-54.93615339	-71.26697877	71.36079003	-85
9640	0	0.371936798	-0.102127075	0.072850227	0.999999046	0.000670433	-2.48E-05	-0.000836372	9.298419952	-2.55317688	1.821255684	0.033521659	-0.001239777	-0.041818627	-0.645996094	0.058105469	-0.754638672	895.92	-54.665591	-71.35337923	71.15427695	-85
9641	0	0.373168945	-0.101867676	0.069885254	0.999999046	0.000118256	5.05E-05	-0.000659943	9.329223633	-2.546691895	1.747131348	0.005912781	0.002527237	-0.032997134	-0.645751953	0.055908203	-0.757324219	895.96	-54.47103588	-71.41810324	70.96149682	-83
9642	0	0.372014046	-0.101909637	0.072691917	0.999999046	-6.68E-05	2.10E-05	-0.000222206	9.300351143	-2.547740936	1.817297935	-0.00333786	0.001049042	-0.011110306	-0.643310547	0.053710938	-0.757324219	895.92	-54.39219855	-71.44379295	70.86907857	-81
9643	0	0.371643066	-0.10168457	0.073425293	0.999999046	-0.000392914	7.34E-05	4.20E-05	9.29107666	-2.542114258	1.835632324	-0.019645691	0.003671646	0.002098084	-0.643554688	0.055908203	-0.757568359	895.86	-54.38886822	-71.44127213	70.81602216	-79
9644	0	0.371684074	-0.103608131	0.076815605	0.999999046	-0.000210762	-2.48E-05	2.96E-05	9.29210186	-2.590203285	1.920390129	-0.010538101	-0.001239777	0.001478195	-0.643310547	0.053710938	-0.757324219	895.9	-54.38948335	-71.44620869	70.79050506	-78
9645	0	0.373596191	-0.102661133	0.07800293	0.999999046	5.72E-05	4.67E-05	-0.000171661	9.339904785	-2.56652832	1.950073242	0.002861023	0.002336502	-0.008583069	-0.643554688	0.055908203	-0.757568359	895.9	-54.29923444	-71.46489446	70.70014382	-76
9646	0	0.37032795	-0.103319168	0.077803612	0.999999046	0.000179291	-2.67E-05	-0.00012207	9.258198738	-2.582979202	1.945090294	0.008964539	-0.001335144	-0.006103516	-0.643554688	0.053710938	-0.754394531	895.92	-54.22502588	-71.4835592	70.6428179	-76
9647	0	0.371704102	-0.101379395	0.075500488	0.999999046	0.000572205	-0.000132561	0.000183105	9.292602539	-2.534484863	1.887512207	0.028610231	-0.006628037	0.009155274	-0.645751953	0.053710938	-0.760009766	895.86	-54.1962187	-71.48082328	70.68011581	-75
9648	0	0.371624947	-0.101857185	0.075273514	0.999999046	2.77E-05	3.81E-05	5.63E-05	9.290623665	-2.546429634	1.881837845	0.001382828	0.001907349	0.002813339	-0.645751953	0.053710938	-0.757080078	895.86	-54.15721342	-71.47830627	70.64119076	-75
9649	0	0.374938965	-0.101928711	0.073242188	0.999999046	0.000118256	-0.000121117	-1.91E-05	9.373474121	-2.548217773	1.831054688	0.005912781	-0.006055832	-0.000953674	-0.643310547	0.053710938	-0.760253906	895.92	-54.13731486	-71.493459	70.63228259	-74
9650	0	0.371237755	-0.101592064	0.075311661	0.999999046	0.000139236	-0.000192642	-5.34E-05	9.280943871	-2.539801598	1.882791519	0.006961823	-0.009632111	-0.002670288	-0.645751953	0.051513672	-0.757080078	895.92	-54.12807367	-71.51647431	70.63901408	-73
9651	0	0.368469238	-0.101318359	0.076721191	0.999999046	-0.000179291	-0.000155449	9.16E-05	9.211730957	-2.532958984	1.918029785	-0.008964539	-0.007772446	0.004577637	-0.645751953	0.053710938	-0.760009766	895.92	-54.17404661	-71.52333115	70.66389684	-73
9652	0	0.372929573	-0.102574348	0.077116966	0.999999046	0.000281334	-0.000167847	-0.000191689	9.323239326	-2.564358711	1.927924156	0.014066697	-0.008392334	-0.009584427	-0.643310547	0.053710938	-0.757324219	895.96	-54.11372366	-71.55714221	70.63175543	-73
9653	0	0.373168945	-0.101989746	0.076843262	0.999999046	0.000347137	-0.000193596	-0.000106812	9.329223633	-2.549743652	1.921081543	0.017356873	-0.009679795	-0.005340576	-0.643310547	0.051513672	-0.757080078	895.92	-54.06997234	-71.5846376	70.62593885	-72
9654	0	0.374622345	-0.100271225	0.074874878	0.999999046	0.000705719	-0.000236511	0.000121117	9.365558624	-2.506780624	1.871871948	0.035285953	-0.011825563	0.006055832	-0.645751953	0.051513672	-0.754150391	895.92	-54.04317126	-71.59385768	70.68145119	-73
9655	0	0.373535156	-0.097717285	0.074462891	0.999999046	0.000221252	-0.000220299	0.000431061	9.338378906	-2.442932129	1.861572266	0.011062623	-0.011014939	0.021553041	-0.645751953	0.051513672	-0.757080078	895.9	-54.12982895	-71.5732901	70.79767636	-72
9656	0	0.373848915	-0.099410057	0.076904297	0.999999046	-4.48E-05	-4.96E-05	0.000198364	9.346222878	-2.485251427	1.922607422	-0.002241135	-0.002479553	0.009918213	-0.647949219	0.051757813	-0.756835938	895.92	-54.15209066	-71.56278628	70.81440685	-72
9657	0	0.374023438	-0.099975586	0.076293945	0.999999046	-0.000320435	-4.86E-05	-0.000141144	9.350585938	-2.499389648	1.907348633	-0.016021729	-0.00243187	-0.00705719	-0.645507813	0.051513672	-0.759765625	895.9	-54.13712072	-71.58370002	70.75801878	-72
9658	0	0.373815536	-0.102362633	0.078388214	0.999999046	5.53E-05	-6.87E-05	-0.000275612	9.345388412	-2.559065819	1.959705353	0.002765656	-0.003433228	-0.013780594	-0.647949219	0.051513672	-0.759765625	895.98	-54.05718608	-71.61821311	70.67872743	-72
9659	0	0.371887207	-0.101928711	0.076538086	0.999999046	0.000892639	-0.00020504	-8.39E-05	9.297180176	-2.548217773	1.913452148	0.044631964	-0.010252	-0.004196168	-0.645507813	0.051513672	-0.759765625	895.86	-53.95800248	-71.64392675	70.67869569	-73
9660	0	0.372179031	-0.10057354	0.074976921	0.999999046	0.001162529	-0.000118256	-6.20E-05	9.304475784	-2.514338493	1.874423027	0.058126463	-0.005912782	-0.003099442	-0.645507813	0.049316406	-0.756835938	895.92	-53.80811441	-71.66167438	70.65846331	-73
9661	0	0.377441406	-0.098571777	0.072692871	0.999999046	0.000991821	-9.06E-05	-0.00019455	9.436035156	-2.464294434	1.817321777	0.049591073	-0.004529954	-0.00972748	-0.647705078	0.047119141	-0.759521484	895.9	-53.64306559	-71.68992506	70.60196387	-73
9662	0	0.376272202	-0.098517418	0.076847076	0.999999046	0.000684738	-6.68E-05	-0.00025177	9.406805038	-2.462935448	1.92117691	0.034236911	-0.00333786	-0.012588502	-0.645263672	0.044921875	-0.759277344	895.96	-53.49425953	-71.72177893	70.52559506	-73
9663	0	0.369628906	-0.097290039	0.077270508	0.999999046	0.000312805	-0.000102043	2.29E-05	9.240722656	-2.432250977	1.931762695	0.015640259	-0.005102158	0.001144409	-0.649902344	0.040771484	-0.755859375	895.92	-53.45408771	-71.73061359	70.52281165	-73
9664	0	0.372202873	-0.097686768	0.07719326	0.999999046	0.000803947	-0.000123978	2.86E-06	9.305071831	-2.442169189	1.929831505	0.040197377	-0.006198884	0.000143051	-0.647705078	0.04296875	-0.756103516	895.92	-53.35933389	-71.74273624	70.51872265	-74
9665	0	0.373596191	-0.097473145	0.077209473	0.999999046	-3.05E-05	0.000138283	-0.000205994	9.339904785	-2.436828613	1.930236816	-0.001525879	0.006914139	-0.010299683	-0.647705078	0.04296875	-0.753417969	895.86	-53.24346807	-71.75605249	70.39203108	-74
9666	0	0.37434864	-0.100986481	0.076085091	0.999999046	0.000310898	0.000209808	-0.000213623	9.358716011	-2.524662018	1.902127266	0.015544892	0.010490418	-0.010681153	-0.645019531	0.040527344	-0.761962891	895.92	-53.06711591	-71.76492312	70.24215057	-74
9667	0	0.37097168	-0.096618652	0.074707031	0.999999046	0.000453949	8.87E-05	3.81E-05	9.274291992	-2.415466309	1.867675781	0.02269745	0.004434586	0.001907349	-0.647460938	0.040527344	-0.758789063	895.96	-52.96072983	-71.75900822	70.18380541	-75
9668	0	0.372598648	-0.097128868	0.074737549	0.999999046	0.000288963	6.48E-05	0.000250816	9.314966202	-2.428221703	1.868438721	0.014448166	0.003242493	0.012540818	-0.649902344	0.040771484	-0.758789063	895.86	-52.92465716	-71.73530205	70.17985244	-75
9669	0	0.374389648	-0.097045898	0.073974609	0.999999046	0.000953674	-8.30E-05	-9.16E-05	9.359741211	-2.426147461	1.849365234	0.047683723	-0.004148484	-0.004577637	-0.647460938	0.040527344	-0.758789063	895.96	-52.78193249	-71.75319523	70.14211536	-75
9670	0	0.373198509	-0.095248222	0.075191498	0.999999046	0.000587463	-0.000179291	-4.20E-05	9.32996273	-2.381205559	1.879787445	0.029373171	-0.008964539	-0.002098084	-0.649658203	0.038574219	-0.761474609	895.92	-52.71814303	-71.77332797	70.14402026	-75
9671	0	0.371276855	-0.094848633	0.07635498	0.999999046	0.000278473	-0.000105858	0.000141144	9.281921387	-2.37121582	1.908874512	0.013923645	-0.005292893	0.00705719	-0.647460938	0.038330078	-0.758789063	895.9	-52.70782937	-71.77171283	70.16482277	-76
9672	0	0.373156548	-0.094789505	0.074802399	0.999998093	0.000137329	-0.000155449	0.000118256	9.328913689	-2.369737625	1.870059967	0.006866455	-0.007772446	0.005912781	-0.647460938	0.038574219	-0.755859375	895.9	-52.72263617	-71.77574415	70.19520291	-76
9673	0	0.376037598	-0.095581055	0.074157715	0.999999046	-0.000274658	-0.000224113	-0.000148773	9.400939941	-2.389526367	1.853942871	-0.01373291	-0.011205673	-0.00743866	-0.647460938	0.036132813	-0.758544922	895.9	-52.74759444	-71.80903066	70.1879992	-76
9674	0	0.374331474	-0.098564148	0.077474594	0.999999046	-0.000385284	-4.39E-05	1.91E-05	9.358286858	-2.464103699	1.936864853	-0.019264222	-0.002193451	0.000953674	-0.649902344	0.038574219	-0.752929688	895.92	-52.77069059	-71.81439615	70.16551806	-76
9675	0	0.370056152	-0.096496582	0.075439453	0.999999046	-0.000114441	-7.15E-05	0.00025177	9.251403809	-2.412414551	1.885986328	-0.005722046	-0.003576279	0.012588501	-0.647460938	0.036132813	-0.758544922	895.9	-52.81960474	-71.80040514	70.20351117	-76
9676	0	0.373373985	-0.097984314	0.075118065	0.999999046	0.00051403	-0.000268936	2.57E-05	9.334349632	-2.449607849	1.877951622	0.025701524	-0.013446809	0.00128746	-0.647460938	0.038330078	-0.758789063	895.86	-52.80396204	-71.82069961	70.24658021	-76
9677	0	0.376342773	-0.097412109	0.076599121	0.999999046	0.000152588	-0.000220299	-0.000110626	9.408569336	-2.435302734	1.914978027	0.007629395	-0.011014939	-0.005531311	-0.649658203	0.036376953	-0.755615234	895.86	-52.78746665	-71.85006728	70.24748006	-76
9678	0	0.375849724	-0.099930763	0.077439308	0.999999046	0.000587463	-0.000293732	0.000220299	9.396243095	-2.498269081	1.935982704	0.029373171	-0.014686586	0.011014939	-0.647460938	0.038330078	-0.758789063	895.9	-52.81169943	-71.85418248	70.34003605	-76
9679	0	0.372619629	-0.092956543	0.076538086	0.999999046	0.000461578	-0.000155449	0.000602722	9.315490723	-2.323913574	1.913452148	0.023078921	-0.007772446	0.030136111	-0.647460938	0.036376953	-0.75	895.86	-52.89200727	-71.81387039	70.47989052	-76
9680	0	0.371308327	-0.094615936	0.076142311	0.999999046	-0.000761986	6.48E-05	0.000267029	9.282708168	-2.365398407	1.903557777	-0.038099293	0.003242493	0.013351442	-0.647460938	0.036376953	-0.752685547	895.96	-52.98007183	-71.7890119	70.48109135	-76
9681	0	0.373840332	-0.098510742	0.074401855	0.999999046	-0.00031662	-6.01E-05	-0.000282288	9.346008301	-2.462768555	1.860046387	-0.015830994	-0.003004074	-0.01411438	-0.652099609	0.038574219	-0.761230469	895.92	-52.93682634	-71.82300843	70.39530181	-76
9682	0	0.37506485	-0.098834991	0.075147629	0.999999046	-0.00025177	-0.000144958	-0.00042057	9.376621246	-2.470874786	1.87869072	-0.012588502	-0.007247925	-0.02102852	-0.647460938	0.038574219	-0.752929688	895.92	-52.88066986	-71.87544571	70.3038328	-76
9683	0	0.37310791	-0.100524902	0.074768066	0.999999046	8.39E-05	-0.000105858	0.000160217	9.327697754	-2.513122559	1.86920166	0.004196167	-0.005292892	0.008010864	-0.647460938	0.038574219	-0.755859375	895.9	-52.89814393	-71.87195468	70.32963633	-76
9684	0	0.372543335	-0.097824097	0.075314522	0.999999046	0.000149727	-2.29E-05	0.000353813	9.313583374	-2.445602417	1.882863045	0.007486344	-0.001144409	0.017690659	-0.649902344	0.036376953	-0.752685547	895.96	-52.92590312	-71.84496793	70.37774232	-76
9685	0	0.37713623	-0.097473145	0.075195313	0.999999046	-0.000297546	5.44E-05	0.000247955	9.428405762	-2.436828613	1.879882813	-0.01487732	0.002717972	0.012397766	-0.649902344	0.040771484	-0.752929688	895.86	-52.96113808	-71.82236874	70.37625206	-76
9686	0	0.376590729	-0.098500252	0.077312469	0.999999046	-0.000179291	0.000175476	-0.000102997	9.414768219	-2.462506294	1.932811737	-0.008964539	0.008773804	-0.005149841	-0.647460938	0.038574219	-0.755859375	895.9	-52.87522687	-71.82342126	70.26249092	-77
9687	0	0.369812012	-0.095825195	0.075622559	0.999999046	-0.00025177	0.000107765	0.000404358	9.245300293	-2.395629883	1.890563965	-0.012588501	0.00538826	0.020217896	-0.647705078	0.040771484	-0.753173828	895.92	-52.92319414	-71.78275808	70.28034529	-77
9688	0	0.372709274	-0.095493317	0.074860573	0.999999046	0.000178337	6.29E-05	0.00031662	9.317731857	-2.387332916	1.87151432	0.008916855	0.003147125	0.015830994	-0.647460938	0.040527344	-0.758789063	895.92	-52.91581738	-71.75329346	70.29092813	-77
9689	0	0.375488281	-0.097106934	0.074035645	0.999999046	-0.000267029	0.000203133	-8.39E-05	9.387207031	-2.42767334	1.850891113	-0.013351441	0.010156632	-0.004196167	-0.650146484	0.04296875	-0.756103516	895.98	-52.83691857	-71.75082901	70.17185559	-77
9690	0	0.375718117	-0.100013733	0.075232506	0.999999046	-0.000356674	0.000112534	-1.62E-05	9.392952919	-2.500343323	1.880812645	-0.01783371	0.005626679	-0.000810623	-0.645263672	0.040527344	-0.759033203	895.74	-52.80802418	-71.74836876	70.09544346	-77
9691	0	0.373413086	-0.098754883	0.077087402	0.999999046	7.63E-05	-2.57E-05	0.000396729	9.335327148	-2.46887207	1.927185059	0.003814697	-0.00128746	0.019836426	-0.647705078	0.040771484	-0.753173828	895.92	-52.85449212	-71.71768589	70.15281046	-77
9692	0	0.372729301	-0.097453117	0.076532364	0.999999046	-0.000235558	7.25E-05	0.000202179	9.318232536	-2.436327934	1.913309097	-0.011777878	0.003623962	0.010108948	-0.649902344	0.040771484	-0.758789063	895.9	-52.86867306	-71.69794919	70.13856533	-77
9693	0	0.374572754	-0.09942627	0.076293945	0.999999046	0.000278473	8.58E-06	-0.000225067	9.364318848	-2.485656738	1.907348633	0.013923645	0.000429153	-0.011253357	-0.645263672	0.040527344	-0.756103516	895.92	-52.75230309	-71.72158658	70.04743618	-78
9694	0	0.374371529	-0.099825859	0.07623291	0.999999046	0.000644684	0	-0.00030899	9.359288216	-2.495646477	1.905822754	0.032234195	0	-0.015449525	-0.647460938	0.040527344	-0.758789063	895.9	-52.57861232	-71.75332402	69.9387289	-78
9695	0	0.373291016	-0.096435547	0.075500488	0.999999046	0.000499725	1.62E-05	9.16E-05	9.332275391	-2.410888672	1.887512207	0.024986268	0.000810623	0.004577637	-0.647460938	0.038574219	-0.755859375	895.8	-52.50151717	-71.74747466	69.9163133	-78
9696	0	0.371623039	-0.095513344	0.075240135	0.999999046	0.000172615	9.16E-05	0.000224113	9.290575981	-2.387833595	1.88100338	0.008630753	0.004577637	0.011205673	-0.647460938	0.038330078	-0.761474609	895.84	-52.46927089	-71.72438211	69.90061066	-79
9697	0	0.376586914	-0.096069336	0.073303223	0.999999046	0.000175476	9.54E-07	-6.87E-05	9.414672852	-2.401733398	1.832580566	0.008773804	4.77E-05	-0.003433228	-0.647460938	0.038574219	-0.755859375	895.86	-52.40010036	-71.73439585	69.8470047	-79
9698	0	0.37586689	-0.09617424	0.077548027	0.999999046	0.000358582	-5.53E-05	-0.000160217	9.396672249	-2.404356003	1.938700676	0.017929078	-0.002765656	-0.008010864	-0.647460938	0.038330078	-0.761474609	895.92	-52.30575063	-71.75667338	69.78697346	-79
9699	0	0.370849609	-0.094360352	0.076721191	0.999999046	0.000133514	2.38E-05	0.000110626	9.271240234	-2.359008789	1.918029785	0.00667572	0.001192093	0.005531311	-0.647460938	0.038574219	-0.755859375	895.92	-52.27271856	-71.74887296	69.76543726	-79
9700	0	0.374975204	-0.094789505	0.076885223	0.999999046	0.000302315	9.54E-05	0.000254631	9.374380112	-2.369737625	1.922130585	0.015115738	0.004768372	0.012731552	-0.647460938	0.038574219	-0.755859375	895.86	-52.23119689	-71.72309341	69.75525119	-79
9701	0	0.374084473	-0.095275879	0.07598877	0.999999046	-0.000377655	0.000172615	-7.63E-05	9.352111816	-2.381896973	1.899719238	-0.018882752	0.008630753	-0.003814697	-0.649658203	0.036376953	-0.758300781	895.92	-52.17615242	-71.72193667	69.65195845	-79
9702	0	0.372180939	-0.097046852	0.075921059	0.999999046	0.000164032	7.63E-06	-1.14E-05	9.304523468	-2.426171303	1.898026466	0.008201599	0.00038147	-0.000572205	-0.645019531	0.036132813	-0.758544922	895.9	-52.11826853	-71.72647447	69.60923218	-79
9703	0	0.37286377	-0.095031738	0.07434082	0.999999046	-0.00069046	6.58E-05	0.000221252	9.321594238	-2.375793457	1.858520508	-0.034523013	0.003290177	0.011062623	-0.647460938	0.036132813	-0.758544922	895.9	-52.19215174	-71.70598769	69.60446692	-78
9704	0	0.372626305	-0.099452972	0.076021194	0.999999046	-0.000283241	-7.25E-05	4.86E-05	9.315657616	-2.48632431	1.900529861	-0.014162064	-0.003623962	0.00243187	-0.647460938	0.038574219	-0.752929688	895.98	-52.22096701	-71.71074987	69.60036031	-78
9705	0	0.37487793	-0.097351074	0.076965332	0.999999046	0.000141144	-0.000308037	-0.000137329	9.371948242	-2.433776855	1.924133301	0.00705719	-0.015401841	-0.006866455	-0.647460938	0.038574219	-0.755859375	895.92	-52.22631967	-71.74888906	69.62115207	-77
9706	0	0.374219894	-0.097776413	0.078104019	0.999999046	0.000234604	-0.000202179	-9.25E-05	9.35549736	-2.444410324	1.952600479	0.011730194	-0.010108948	-0.004625321	-0.649902344	0.038574219	-0.758544922	895.86	-52.20141745	-71.775462	69.62071935	-77
9707	0	0.374084473	-0.096130371	0.078796387	0.999999046	0.000141144	-0.000182152	8.77E-05	9.352111816	-2.403259277	1.969909668	0.00705719	-0.00910759	0.004386902	-0.649658203	0.036376953	-0.758300781	895.92	-52.21989711	-71.78426022	69.65694969	-77
9708	0	0.373119354	-0.094953537	0.077709198	0.999999046	-0.00026226	-4.96E-05	4.96E-05	9.327983856	-2.373838425	1.94272995	-0.013113022	-0.002479553	0.002479553	-0.647460938	0.038574219	-0.755859375	895.96	-52.23975559	-71.7872235	69.64361499	-77
9709	0	0.37689209	-0.098327637	0.077941895	0.999999046	-0.000228882	6.20E-05	-0.000339508	9.422302246	-2.458190918	1.948547363	-0.011444092	0.003099442	-0.016975403	-0.647460938	0.038574219	-0.755859375	895.9	-52.14196053	-71.8175087	69.51032035	-76
9710	0	0.372614861	-0.097316742	0.077026367	0.999999046	0.000225067	-0.000114441	-0.000172615	9.315371513	-2.432918549	1.92565918	0.011253357	-0.005722046	-0.008630753	-0.649902344	0.038574219	-0.758544922	895.98	-52.07632326	-71.84498604	69.46494509	-77
9711	0	0.370544434	-0.096008301	0.076660156	0.999999046	0.000484467	-0.000193596	1.91E-05	9.26361084	-2.40020752	1.916503906	0.024223329	-0.009679795	0.000953674	-0.647216797	0.036132813	-0.761474609	895.9	-52.04391632	-71.86065426	69.48591513	-76
9712	0	0.375024796	-0.094913483	0.074774742	0.999999046	0.000498772	-0.000242233	-0.00025177	9.375619888	-2.372837067	1.869368553	0.024938585	-0.012111665	-0.012588502	-0.647460938	0.036376953	-0.755615234	895.9	-51.96508309	-71.90433365	69.45956498	-76
9713	0	0.375061035	-0.097290039	0.07623291	0.999999046	8.01E-05	-0.000239372	-0.000236511	9.376525879	-2.432250977	1.905822754	0.004005432	-0.011968613	-0.011825562	-0.649658203	0.034179688	-0.752441406	895.96	-51.93682051	-71.94638538	69.43960479	-76
9714	0	0.374777794	-0.095941544	0.078570366	0.999999046	0.000354767	-0.000255585	3.72E-05	9.369444847	-2.398538589	1.964259148	0.017738343	-0.012779236	0.001859665	-0.649658203	0.034179688	-0.758300781	895.98	-51.94069557	-71.96481404	69.48390186	-76
9715	0	0.371826172	-0.095214844	0.078430176	0.999999046	-0.000167847	-0.000117302	8.77E-05	9.295654297	-2.380371094	1.960754395	-0.008392334	-0.005865097	0.004386902	-0.647216797	0.031982422	-0.755371094	895.92	-51.97691746	-71.96881428	69.50226048	-76
9716	0	0.373230934	-0.096528053	0.078125954	0.999999046	-9.25E-05	-2.29E-05	-0.00012207	9.330773354	-2.413201332	1.953148842	-0.00462532	-0.001144409	-0.006103516	-0.649658203	0.034179688	-0.758300781	895.9	-51.93273389	-71.9849701	69.44223895	-76
9717	0	0.374328613	-0.099914551	0.076660156	0.999999046	0.00056076	-0.000128746	-0.000431061	9.358215332	-2.49786377	1.916503906	0.028038027	-0.006437302	-0.021553041	-0.649414063	0.031982422	-0.758056641	895.92	-51.77601446	-72.03624974	69.34337097	-76
9718	0	0.375041962	-0.09645462	0.076487541	0.999999046	0.000789642	-0.000198364	1.91E-05	9.376049042	-2.411365509	1.91218853	0.039482121	-0.009918214	0.000953674	-0.649658203	0.031982422	-0.755126953	895.92	-51.71066441	-72.05186181	69.36731055	-76
9719	0	0.374145508	-0.095703125	0.07800293	0.999999046	0.000392914	-0.000105858	0.000385284	9.353637695	-2.392578125	1.950073242	0.019645692	-0.005292893	0.019264222	-0.649414063	0.029785156	-0.752197266	895.86	-51.7452228	-72.0278819	69.45191692	-77
9720	0	0.377446175	-0.093615532	0.07610321	0.999999046	-1.05E-05	-8.39E-05	0.000389099	9.436154366	-2.340388298	1.902580261	-0.000524521	-0.004196167	0.019454957	-0.649414063	0.029785156	-0.755126953	895.96	-51.82054611	-72.00209568	69.53038541	-76
9721	0	0.376647949	-0.095458984	0.077758789	0.999999046	-0.000228882	4.67E-05	3.43E-05	9.41619873	-2.386474609	1.943969727	-0.011444092	0.002336502	0.001716614	-0.651855469	0.031982422	-0.7578125	895.92	-51.80714241	-71.99898456	69.48692201	-77
9722	0	0.371689796	-0.095032692	0.078663826	0.999999046	0.000402451	-0.000131607	0.000243187	9.292244911	-2.375817299	1.96659565	0.020122529	-0.006580353	0.012159348	-0.651855469	0.031982422	-0.7578125	895.92	-51.81612094	-71.98959908	69.54249424	-78
9723	0	0.373962402	-0.094665527	0.075134277	0.999999046	0.000301361	2.77E-05	0.000213623	9.349060059	-2.366638184	1.878356934	0.015068055	0.001382828	0.010681153	-0.651855469	0.031982422	-0.7578125	895.9	-51.78630411	-71.9716579	69.54480821	-78
9724	0	0.374344826	-0.094413757	0.076553345	0.999999046	0.000189781	-0.000116348	-2.67E-05	9.358620644	-2.360343933	1.913833618	0.00948906	-0.005817413	-0.001335144	-0.647216797	0.029785156	-0.755126953	895.92	-51.75675371	-71.98560246	69.53528272	-79
9725	0	0.374816895	-0.094482422	0.07421875	0.999999046	2.29E-05	-7.92E-05	0.00043869	9.370422363	-2.362060547	1.85546875	0.001144409	-0.003957749	0.02193451	-0.651855469	0.029785156	-0.7578125	896.02	-51.83769813	-71.95511225	69.62346834	-78
9726	0	0.372550011	-0.092670441	0.075627327	0.999999046	6.68E-05	-0.000112534	0.000411034	9.313750267	-2.316761017	1.890683174	0.00333786	-0.005626679	0.020551682	-0.649658203	0.031982422	-0.752441406	895.9	-51.91648237	-71.9295488	69.71283333	-79
9727	0	0.373474121	-0.092895508	0.075683594	0.999999046	-0.000244141	-5.63E-05	-1.91E-05	9.336853027	-2.322387695	1.892089844	-0.012207031	-0.002813339	-0.000953674	-0.649414063	0.029785156	-0.7578125	895.86	-51.92194001	-71.93889984	69.68916009	-78
9728	0	0.374890327	-0.097496986	0.077973366	0.999999046	0.000166893	-0.000217438	-0.000302315	9.372258186	-2.43742466	1.949334145	0.008344651	-0.010871888	-0.015115738	-0.651855469	0.031982422	-0.755126953	895.86	-51.86342789	-71.98507625	69.64530043	-79
9729	0	0.374633789	-0.098632813	0.077026367	0.999999046	0.00082016	-0.000220299	-0.000152588	9.365844727	-2.465820313	1.92565918	0.041008001	-0.01101494	-0.007629395	-0.651855469	0.029785156	-0.751953125	895.96	-51.76352935	-72.01781139	69.63845293	-79
9730	0	0.375976563	-0.095711708	0.073904037	0.999999046	0.000831604	-0.000164032	0.00033474	9.399414063	-2.392792702	1.847600937	0.041580206	-0.0082016	0.016736987	-0.651855469	0.027587891	-0.754638672	895.86	-51.75352532	-72.00277334	69.72826768	-79
9731	0	0.375549316	-0.092651367	0.075012207	0.999999046	0.000179291	-4.86E-05	0.000225067	9.38873291	-2.31628418	1.875305176	0.008964539	-0.00243187	0.011253357	-0.651855469	0.027587891	-0.754638672	895.84	-51.7623011	-71.98957963	69.75910871	-79
9732	0	0.377099991	-0.09529686	0.075557709	0.999999046	-6.77E-05	3.81E-05	-2.00E-05	9.427499771	-2.382421494	1.888942719	-0.003385544	0.001907349	-0.001001358	-0.651611328	0.027587891	-0.757568359	895.92	-51.72205835	-71.99234882	69.70754407	-79
9733	0	0.373901367	-0.094604492	0.076599121	0.999999046	0.000579834	-8.68E-05	-0.000102997	9.34753418	-2.365112305	1.914978027	0.028991701	-0.004339218	-0.005149842	-0.654052734	0.027832031	-0.754638672	895.8	-51.62398438	-72.01144233	69.67326561	-79
9734	0	0.372895241	-0.093281746	0.075237274	0.999999046	1.91E-06	0.000188828	-8.58E-06	9.32238102	-2.332043648	1.880931854	9.54E-05	0.009441376	-0.000429153	-0.651611328	0.027587891	-0.757568359	895.96	-51.53661188	-72.00249193	69.57894116	-79
9735	0	0.374389648	-0.094421387	0.072875977	0.999999046	-6.87E-05	0.000123024	-0.000152588	9.359741211	-2.360534668	1.821899414	-0.003433228	0.006151199	-0.007629395	-0.651611328	0.027587891	-0.757568359	895.86	-51.44441999	-72.01123006	69.47091442	-78
9736	0	0.374400139	-0.094378471	0.072404861	0.999999046	-0.000599861	0.000101089	6.68E-06	9.360003471	-2.359461784	1.810121536	-0.029993059	0.005054474	0.000333786	-0.651855469	0.027587891	-0.754638672	895.86	-51.45473516	-72.00737113	69.40914282	-78
9737	0	0.373718262	-0.093566895	0.073120117	0.999999046	-0.000339508	-9.82E-05	0.000114441	9.342956543	-2.339172363	1.82800293	-0.016975403	-0.004911423	0.005722046	-0.651855469	0.029785156	-0.754882813	895.96	-51.51431696	-72.00821642	69.42786883	-77
9738	0	0.374016762	-0.094498634	0.077131271	0.999999046	-0.000808716	3.43E-05	9.92E-05	9.350419044	-2.362465858	1.928281784	-0.040435795	0.001716614	0.004959107	-0.651855469	0.029785156	-0.754882813	895.88	-51.58764188	-72.00095229	69.40650666	-77
9739	0	0.374816895	-0.097106934	0.077453613	0.999999046	-0.000762939	7.72E-05	-0.000167847	9.370422363	-2.42767334	1.936340332	-0.038146977	0.003862381	-0.008392335	-0.651855469	0.029785156	-0.754882813	895.86	-51.5854461	-72.01449362	69.3126169	-76
9740	0	0.374959946	-0.097953796	0.07681179	0.999999046	-0.000634193	9.73E-05	4.58E-05	9.373998642	-2.44884491	1.920294762	-0.031709673	0.004863739	0.002288819	-0.652099609	0.031982422	-0.752197266	895.96	-51.61009293	-72.00730162	69.26164643	-76
9741	0	0.373291016	-0.099060059	0.074951172	0.999999046	-0.000442505	0.00017643	0.000205994	9.332275391	-2.476501465	1.873779297	-0.022125245	0.008821488	0.010299683	-0.649658203	0.031982422	-0.752441406	895.88	-51.62666119	-71.97995586	69.22551255	-76
9742	0	0.372796059	-0.097756386	0.076459885	0.999999046	-8.20E-05	0.000101089	0.000305176	9.319901466	-2.443909645	1.911497116	-0.0041008	0.005054474	0.015258789	-0.649658203	0.031982422	-0.749511719	895.84	-51.64470961	-71.94893503	69.23620226	-76
9743	0	0.377197266	-0.096618652	0.07434082	0.999999046	-0.000305176	-1.05E-05	0.000102997	9.429931641	-2.415466309	1.858520508	-0.015258789	-0.000524521	0.005149841	-0.647216797	0.031738281	-0.758056641	895.96	-51.67539698	-71.94408274	69.23018602	-76
9744	0	0.374370575	-0.098146439	0.075248718	0.999999046	0.000189781	1.53E-05	-0.000114441	9.359264374	-2.453660965	1.881217957	0.00948906	0.000762939	-0.005722046	-0.649414063	0.031982422	-0.760986328	895.86	-51.59527109	-71.95687121	69.16607315	-76
9745	0	0.372497559	-0.09588623	0.077392578	0.999999046	0.000522614	-0.000105858	5.72E-05	9.312438965	-2.397155762	1.934814453	0.026130678	-0.005292893	0.002861023	-0.649658203	0.034179688	-0.758300781	895.98	-51.54781441	-71.96278208	69.17272304	-76
9746	0	0.375432014	-0.096093178	0.076985359	0.999999046	0.000555038	-7.06E-05	-5.82E-05	9.385800362	-2.402329445	1.92463398	0.027751924	-0.003528595	-0.002908707	-0.649658203	0.034179688	-0.760986328	895.92	-51.4616733	-71.97650755	69.14007781	-76
9747	0	0.373779297	-0.096374512	0.07623291	0.999999046	0.000232697	0.000130653	0.000106812	9.344482422	-2.409362793	1.905822754	0.011634827	0.006532669	0.005340576	-0.649414063	0.029785156	-0.7578125	895.86	-51.39345751	-71.96102012	69.09534288	-76
9748	0	0.373739243	-0.095748901	0.074481964	0.999999046	0.000403404	1.14E-05	0.000278473	9.343481064	-2.393722534	1.862049103	0.020170213	0.000572205	0.013923646	-0.649414063	0.029785156	-0.7578125	895.96	-51.37657512	-71.93871845	69.12465753	-77
9749	0	0.373168945	-0.094909668	0.074707031	0.999999046	-3.81E-06	4.29E-05	0.000419617	9.329223633	-2.372741699	1.867675781	-0.000190735	0.002145767	0.020980836	-0.649658203	0.031982422	-0.755126953	895.88	-51.42882987	-71.90158722	69.17603504	-77
9750	0	0.374119759	-0.094797134	0.076507568	0.999999046	-0.000228882	8.01E-05	0.000136375	9.352993965	-2.36992836	1.912689209	-0.011444092	0.004005432	0.006818771	-0.649414063	0.029785156	-0.755126953	895.92	-51.43466543	-71.887205	69.15576912	-77
9751	0	0.374755859	-0.096679688	0.076782227	0.999999046	-8.39E-05	-7.15E-05	-1.53E-05	9.368896484	-2.416992188	1.919555664	-0.004196167	-0.003576279	-0.000762939	-0.651855469	0.029785156	-0.754882813	895.96	-51.4324705	-71.89721464	69.14575043	-77
9752	0	0.374341965	-0.096071243	0.07665062	0.999999046	0.000512123	-0.000127792	9.06E-05	9.358549118	-2.401781082	1.916265488	0.025606157	-0.006389618	0.004529953	-0.649414063	0.029785156	-0.752197266	895.86	-51.40063171	-71.90175407	69.17481754	-77
9753	0	0.374816895	-0.096008301	0.074829102	0.999999046	0.000751495	-0.000212669	-9.92E-05	9.370422363	-2.40020752	1.870727539	0.037574772	-0.01063347	-0.004959107	-0.649658203	0.031982422	-0.755126953	895.86	-51.32339512	-71.92941897	69.1778455	-77
9754	0	0.372670174	-0.094172478	0.07609272	0.999999046	0.000528336	-0.000181198	-0.000102997	9.316754341	-2.354311943	1.902318001	0.02641678	-0.009059906	-0.005149842	-0.651855469	0.029785156	-0.7578125	895.88	-51.26218011	-71.95521408	69.1727491	-77
9755	0	0.378601074	-0.094543457	0.073974609	0.999999046	0.000171661	-2.19E-05	-0.00012207	9.465026855	-2.363586426	1.849365234	0.008583069	-0.001096725	-0.006103516	-0.649414063	0.027587891	-0.754882813	895.92	-51.19418641	-71.97145763	69.12031442	-77
9756	0	0.374842644	-0.09436512	0.077040672	0.999999046	-4.86E-05	-4.77E-05	-0.000114441	9.371066093	-2.359127998	1.926016808	-0.00243187	-0.002384186	-0.005722046	-0.651855469	0.029785156	-0.7578125	895.96	-51.16004008	-71.98887459	69.07304356	-77
9757	0	0.370483398	-0.094116211	0.077209473	0.999999046	-4.96E-05	-6.68E-06	1.14E-05	9.262084961	-2.352905273	1.930236816	-0.002479553	-0.000333786	0.000572205	-0.651611328	0.025390625	-0.754638672	895.92	-51.14244375	-71.99204953	69.05170553	-77
9758	0	0.376096725	-0.095047951	0.076277733	0.999999046	-0.000440598	0.000118256	-0.000312805	9.402418137	-2.376198769	1.906943321	-0.022029878	0.005912781	-0.01564026	-0.649414063	0.029785156	-0.752197266	895.92	-51.06364153	-72.01517617	68.91168992	-77
9759	0	0.375061035	-0.099060059	0.076965332	0.999999046	-0.000457764	0.000157356	-0.000171661	9.376525879	-2.476501465	1.924133301	-0.022888185	0.007867813	-0.008583069	-0.651855469	0.029785156	-0.751953125	895.86	-51.00769574	-72.02269083	68.79586469	-77
9760	0	0.373726845	-0.097293854	0.077298164	0.999999046	0.000216484	7.06E-05	0.000217438	9.34317112	-2.432346344	1.932454109	0.010824204	0.003528595	0.010871887	-0.651611328	0.025390625	-0.757324219	895.86	-50.98501582	-72.00165975	68.80139634	-78
9761	0	0.370239258	-0.094970703	0.075744629	0.999999046	-9.92E-05	0.000214577	0.000278473	9.255981445	-2.374267578	1.893615723	-0.004959107	0.010728836	0.013923645	-0.651855469	0.029785156	-0.751953125	895.92	-50.97287635	-71.9647667	68.77565888	-78
9762	0	0.373387337	-0.096049309	0.076922417	0.999999046	0.000335693	6.29E-05	-9.92E-05	9.334683418	-2.401232719	1.923060417	0.016784668	0.003147125	-0.004959107	-0.651855469	0.029785156	-0.751953125	895.88	-50.86885802	-71.9723611	68.70456752	-79
9763	0	0.375915527	-0.095336914	0.075744629	0.999999046	0.000621796	-0.000208855	-0.000175476	9.397888184	-2.383422852	1.893615723	0.031089785	-0.010442735	-0.008773804	-0.649414063	0.027587891	-0.754882813	895.88	-50.7895092	-72.00642018	68.69284952	-79
9764	0	0.375614166	-0.095539093	0.075644493	0.999999046	0.000702858	-6.48E-05	6.77E-05	9.390354156	-2.388477325	1.891112328	0.035142902	-0.003242493	0.003385544	-0.649414063	0.025390625	-0.751708984	895.84	-50.71600426	-72.00848059	68.70032411	-81
9765	0	0.373596191	-0.09185791	0.075561523	0.999999046	0.000667572	-5.63E-05	0.000183105	9.339904785	-2.296447754	1.889038086	0.033378604	-0.002813339	0.009155274	-0.651611328	0.025390625	-0.757324219	895.92	-50.6699689	-71.99982229	68.72972144	-81
9766	0	0.371373177	-0.091526031	0.076678276	0.999999046	-0.000293732	0.000148773	4.10E-05	9.284329414	-2.288150787	1.916956902	-0.014686585	0.00743866	0.0020504	-0.651611328	0.025390625	-0.757324219	895.96	-50.64625688	-71.98894389	68.66777207	-82
9767	0	0.375793457	-0.095458984	0.075683594	0.999999046	-0.000244141	9.63E-05	-0.000270844	9.394836426	-2.386474609	1.892089844	-0.012207032	0.004816055	-0.013542176	-0.651611328	0.027587891	-0.757568359	895.92	-50.56175231	-72.00950869	68.54389891	-83
9768	0	0.367405891	-0.093649864	0.076867104	0.999999046	-0.000155449	-0.0001297	-0.00048542	9.185147285	-2.341246605	1.921677589	-0.007772446	-0.006484986	-0.024271012	-0.651611328	0.025390625	-0.754638672	895.96	-50.48023657	-72.06538814	68.43807643	-84
9769	0	0.36541748	-0.09552002	0.077880859	0.999999046	-0.000305176	-0.000483513	-0.00044632	9.135437012	-2.388000488	1.947021484	-0.01525879	-0.024175646	-0.022315981	-0.651611328	0.025390625	-0.757324219	895.88	-50.52127969	-72.14336113	68.44091738	-85
9770	0	0.378891945	-0.101701736	0.08038044	0.999998093	2.86E-06	-0.000857353	-0.001469612	9.472298622	-2.542543411	2.009510994	0.000143051	-0.042867681	-0.073480642	-0.651611328	0.025390625	-0.757324219	895.92	-50.39741783	-72.3386918	68.30292359	-85
9771	0	0.369150162	-0.104471207	0.080366135	0.999997139	0.000322342	-0.000937462	-0.001904488	9.228754044	-2.611780167	2.009153366	0.016117108	-0.046873129	-0.095224454	-0.653808594	0.0234375	-0.754150391	895.96	-50.15571506	-72.5774322	68.07921474	-86
9772	0	0.368200302	-0.107235909	0.079442978	0.999997139	0.000554085	-0.001089096	-0.00153923	9.205007553	-2.680897713	1.986074448	0.027704257	-0.054454839	-0.076961567	-0.65625	0.019042969	-0.748046875	895.96	-50.01220139	-72.79418843	67.99158873	-83
9773	0	0.368896484	-0.105895996	0.079650879	0.999997139	0.001148224	-0.001204491	-0.001274109	9.222412109	-2.647399902	1.991271973	0.057411236	-0.060224577	-0.063705491	-0.656005859	0.014648438	-0.750488281	895.96	-49.8955089	-72.99532688	68.00223959	-78
9774	0	0.370996475	-0.103307724	0.077774048	0.999998093	0.000905037	-0.001076698	-0.001033783	9.27491188	-2.5826931	1.944351196	0.045251869	-0.053834943	-0.051689174	-0.658203125	0.010253906	-0.752929688	895.88	-49.82846482	-73.16530548	68.03720579	-73
9775	0	0.373596191	-0.103759766	0.078186035	0.999998093	0.000164986	-0.000907898	-0.001037598	9.339904785	-2.593994141	1.954650879	0.008249285	-0.045394912	-0.051879899	-0.660400391	0.008300781	-0.746826172	895.96	-49.79722954	-73.32244134	68.02413136	-70
9776	0	0.370721817	-0.104308128	0.078889847	0.999999046	-9.25E-05	-0.000734329	-0.001068115	9.268045425	-2.607703209	1.97224617	-0.004625322	-0.036716472	-0.053405777	-0.660400391	0.006103516	-0.743896484	895.96	-49.73757101	-73.46857377	67.9525264	-68
9777	0	0.366821289	-0.102355957	0.078491211	0.999998093	0.000447273	-0.000816345	-0.001338959	9.170532227	-2.558898926	1.962280273	0.022363673	-0.040817279	-0.066947967	-0.662597656	0.006103516	-0.749511719	895.84	-49.57147734	-73.64357843	67.82733217	-67
9778	0	0.369786263	-0.101540565	0.07840538	0.999996185	0.000990868	-0.001120567	-0.001935005	9.244656563	-2.538514137	1.960134506	0.04954343	-0.056028422	-0.096750356	-0.662597656	0.00390625	-0.749267578	895.92	-49.27831915	-73.89220937	67.63002947	-66
9779	0	0.373596191	-0.100036621	0.077148438	0.999995232	0.000637054	-0.001044273	-0.002544403	9.339904785	-2.500915527	1.928710938	0.031852764	-0.052213738	-0.127220323	-0.664794922	-0.000488281	-0.743164063	895.96	-48.83475469	-74.18681188	67.23715091	-67
9780	0	0.370864868	-0.101284981	0.079189301	0.999995232	-0.000103951	-0.000946045	-0.002616882	9.271621704	-2.532124519	1.979732513	-0.005197532	-0.047302307	-0.130844285	-0.666992188	-0.006835938	-0.739501953	895.88	-48.41220888	-74.47846133	66.78572444	-70
9781	0	0.367004395	-0.100952148	0.078186035	0.999996185	-0.000761986	-0.000713348	-0.002288818	9.175109863	-2.523803711	1.954650879	-0.038099329	-0.035667457	-0.114441039	-0.671630859	-0.008789063	-0.736328125	895.88	-48.07008991	-74.72247514	66.34286064	-75
9782	0	0.365454674	-0.102759361	0.078909874	0.999996185	-0.000472069	-0.000807762	-0.002541542	9.136366844	-2.568984032	1.972746849	-0.023603468	-0.040388157	-0.127077258	-0.671630859	-0.010986328	-0.736083984	895.86	-47.64047336	-74.99324246	65.84234097	-78
9783	0	0.363769531	-0.101379395	0.077148438	0.999995232	-0.000534058	-0.000826836	-0.002876282	9.094238281	-2.534484863	1.928710938	-0.026702922	-0.041341845	-0.143814308	-0.671386719	-0.015380859	-0.738769531	895.9	-47.10972026	-75.29145943	65.23057659	-70
9784	0	0.365032196	-0.101498604	0.074848175	0.999993324	-0.000721931	-0.000879288	-0.003250122	9.125804901	-2.537465096	1.871204376	-0.036096644	-0.043964473	-0.162506425	-0.673583984	-0.017578125	-0.73828125	896.02	-46.48179404	-75.62229111	64.4950257	-66
9785	0	0.361450195	-0.098876953	0.075317383	0.999992371	-0.001097679	-0.001167297	-0.003536224	9.036254883	-2.471923828	1.88293457	-0.054884095	-0.058365015	-0.176811662	-0.673339844	-0.021972656	-0.738037109	895.88	-45.87108099	-75.99645261	63.735043	-66
9786	0	0.360377312	-0.098692894	0.074195862	0.99998951	-0.001377106	-0.001459122	-0.00388813	9.009432793	-2.46732235	1.854896545	-0.068855505	-0.072956318	-0.19440713	-0.677978516	-0.026123047	-0.737304688	895.84	-45.2386883	-76.41956286	62.92354047	-72
9787	0	0.359008789	-0.098937988	0.076965332	0.999986649	-0.001273155	-0.001781464	-0.004634857	8.975219727	-2.473449707	1.924133301	-0.063658039	-0.089073571	-0.231743874	-0.680175781	-0.028320313	-0.737060547	895.84	-44.39923769	-76.9252325	61.90759467	-70
9788	0	0.357340813	-0.098088264	0.077026367	0.999983788	-0.001189232	-0.002002716	-0.005097389	8.933520317	-2.452206612	1.92565918	-0.059461905	-0.100136327	-0.254870795	-0.684570313	-0.036865234	-0.733398438	895.88	-43.38410856	-77.48053503	60.7316836	-65
9789	0	0.353210449	-0.097106934	0.077331543	0.99998188	-0.001411438	-0.002070427	-0.005371094	8.83026123	-2.42767334	1.933288574	-0.070572313	-0.103521953	-0.26855626	-0.686767578	-0.0390625	-0.732910156	895.92	-42.21221183	-78.05605347	59.36428076	-71
9790	0	0.349662781	-0.096702576	0.081039429	0.999979973	-0.001489639	-0.002094269	-0.005719185	8.741569519	-2.417564392	2.025985718	-0.074482452	-0.104714126	-0.285961118	-0.688964844	-0.049804688	-0.723388672	895.96	-40.78437605	-78.65137445	57.74358308	-74
9791	0	0.346618652	-0.096252441	0.079467773	0.999975204	-0.002799034	-0.002056122	-0.006099701	8.665466309	-2.406311035	1.986694336	-0.139952855	-0.102806936	-0.304987551	-0.693359375	-0.054199219	-0.722900391	895.88	-39.15520228	-79.26033764	55.76822671	-66
9792	0	0.340839386	-0.097863197	0.079096794	0.99997139	-0.002965927	-0.002104759	-0.006604195	8.52098465	-2.446579933	1.977419853	-0.148297761	-0.105238958	-0.33021286	-0.695556641	-0.060546875	-0.725097656	895.88	-37.09828004	-79.89464852	53.34367444	-75
9793	0	0.332275391	-0.096862793	0.076538086	0.999968529	-0.002975464	-0.002169609	-0.006980896	8.306884766	-2.421569824	1.913452148	-0.148774738	-0.10848158	-0.349048424	-0.697753906	-0.062744141	-0.718994141	895.88	-34.56730705	-80.53991206	50.43630574	-65
9794	0	0.32435894	-0.09774971	0.076126099	0.999965668	-0.002575874	-0.002615929	-0.007399559	8.108973503	-2.443742752	1.903152466	-0.128795181	-0.13079792	-0.369982159	-0.702148438	-0.071289063	-0.718017578	895.92	-31.51793929	-81.2270406	47.06010546	-78
9795	0	0.313781738	-0.096679688	0.074829102	0.999959946	-0.002814293	-0.002674103	-0.008018494	7.844543457	-2.416992188	1.870727539	-0.140716507	-0.133706908	-0.400929986	-0.704101563	-0.082275391	-0.717041016	895.88	-27.55915655	-81.91862434	42.75191469	-65
9796	0	0.298957825	-0.098735809	0.074437141	0.999957085	-0.002364159	-0.003055573	-0.008407593	7.473945618	-2.468395233	1.860928535	-0.118209618	-0.152780806	-0.420385637	-0.706298828	-0.090820313	-0.710449219	895.96	-22.63449118	-82.61522506	37.53082329	-67
9797	0	0.292602539	-0.108215332	0.083496094	0.999961853	0.001011848	-0.003437042	-0.007907867	7.315063477	-2.705383301	2.087402344	0.050593058	-0.171854271	-0.395398339	-0.710449219	-0.101806641	-0.709472656	895.84	-16.90313465	-83.26199126	31.88840764	-67
9798	0	0.285960197	-0.111103058	0.086039543	0.999969482	0.005454063	-0.002402306	-0.00464344	7.149004936	-2.777576447	2.150988579	0.272705765	-0.120116423	-0.232174221	-0.714599609	-0.116943359	-0.705078125	895.88	-12.67181657	-83.63173607	28.27758485	-69
9799	0	0.291809082	-0.139770508	0.132324219	0.999637604	0.026539803	-0.000331879	0.004322052	7.295227051	-3.494262695	3.308105469	1.327150115	-0.016595934	0.216128654	-0.716308594	-0.134277344	-0.700683594	895.92	-14.28758032	-83.51442814	32.93502969	-67
9800	0	0.348941803	-0.075229645	0.214552879	0.99857235	0.045184135	0.013549805	0.025042534	8.723545074	-1.880741119	5.363821983	2.260282154	0.67781272	1.252722706	-0.719482422	-0.169433594	-0.697509766	895.84	-25.3394795	-81.0019209	49.32608216	-63
9801	0	0.408508301	-0.014648438	0.26953125	0.997635841	0.025794983	0.044625282	0.045436859	10.21270752	-0.366210938	6.73828125	1.290766191	2.233023602	2.273634443	-0.697265625	-0.187744141	-0.717285156	895.88	-31.95536102	-73.9221634	59.38719695	-72
9802	0	0.364152908	-0.051912308	0.452812195	0.995565414	0.016495705	0.079648018	0.047245979	9.103822708	-1.297807693	11.32030487	0.826006398	3.98829718	2.365796552	-0.629394531	-0.151123047	-0.787109375	895.88	-29.90757596	-63.21535725	59.63138335	-66
9803	0	0.048278809	0.028015137	0.661560059	0.993390083	0.026496887	0.106892586	0.032367706	1.206970215	0.700378418	16.53900146	1.327771056	5.356436034	1.621960468	-0.492431641	-0.130126953	-0.890625	895.86	-23.44276746	-50.46804006	56.01075995	-76
9804	0	-0.32654953	0.072094917	0.430772781	0.993574142	0.035888672	0.106656075	0.012050629	-8.163738251	1.802372932	10.76931953	1.79828658	5.344254259	0.603825181	-0.294677734	-0.161621094	-0.970458984	895.92	-16.44073607	-38.35060081	52.28116418	-84
9805	0	-0.885864258	-0.199279785	0.048278809	0.996459007	0.042938232	0.067551613	-0.025707245	-22.14660645	-4.981994629	1.206970215	2.14944868	3.381572013	-1.286881188	-0.096435547	-0.232177734	-0.998291016	895.92	-8.343162523	-31.24573703	46.63969024	-85
9806	0	-0.329270363	-0.431769371	-0.620029449	0.994954109	0.060276031	0.004137039	-0.08009243	-8.231759071	-10.79423428	-15.50073624	3.01888032	0.207200538	-4.011369944	0.030761719	-0.370117188	-0.953857422	896.02	4.093719621	-30.95598247	35.52374866	-84
9807	0	0.493103027	-0.329406738	0.345458984	0.999194145	0.006061554	-0.03831768	-0.010257721	12.32757568	-8.235168457	8.636474609	0.303159093	-1.916398553	-0.513023789	0.090332031	-0.396240234	-0.943359375	895.84	5.689583547	-35.10332655	32.90435392	-72
9808	0	4.000439644	1.166482925	1.218976974	0.945220947	0.310569763	-0.087155342	-0.050061226	100.0109911	29.16207314	30.47442436	15.8183913	-4.439122763	-2.549791235	0.012939453	-0.53125	-0.876464844	896.02	49.69836173	-41.34611585	16.64132805	-87
9809	0	0.868286133	1.797668457	-0.969482422	0.993712425	-0.080844879	0.048478127	-0.060409546	21.70715332	44.94171143	-24.23706055	-4.050737102	2.428999187	-3.026823609	0.001220703	-0.948974609	-0.412353516	895.86	41.17001283	-32.50876262	16.99623341	-78
9810	0	0.169506073	0.011917114	-0.134472847	0.987635612	-0.137647629	0.019964218	-0.072319984	4.237651825	0.297927856	-3.361821175	-6.910887627	1.002345404	-3.630976357	0.16015625	-0.767333984	-0.676269531	895.96	28.46875032	-25.90133726	11.00393254	-83
9811	0	0.26776123	-0.036254883	0.039428711	0.990595818	-0.118255615	0.003430367	-0.068717957	6.694030762	-0.90637207	0.985717773	-5.931384108	0.172057973	-3.446708172	0.277587891	-0.535644531	-0.839111328	895.98	18.11662097	-22.43986685	3.296734603	-87
9812	0	0.164601326	-0.227445602	0.116522789	0.996477127	-0.067584991	-0.010920525	-0.048428535	4.11503315	-5.68614006	2.913069725	-3.383222815	-0.546668235	-2.42427383	0.323486328	-0.305175781	-0.923583984	896.08	12.75676095	-22.19083099	-2.941566532	-79
9813	0	0.184204102	-0.363952637	0.459655762	0.999505043	0.011051178	-0.017306328	-0.023815155	4.605102539	-9.098815918	11.49139404	0.552650001	-0.865459058	-1.190954076	0.321289063	-0.191162109	-0.949951172	895.96	15.38220682	-23.47134196	-6.528813278	-78
9814	0	0.132302284	-0.164857864	0.403723717	0.998643875	0.048911095	-0.016804695	0.005859375	3.307557106	-4.121446609	10.09309292	2.44666026	-0.840614589	0.293101188	0.297851563	-0.242919922	-0.950195313	896.02	20.99939054	-25.52659168	-6.644813894	-79
9815	0	0.200073242	0.065307617	0.248352051	0.999049187	0.03036499	-0.021315575	0.022865295	5.001831055	1.63269043	6.20880127	1.518730502	-1.066116377	1.143626963	0.256591797	-0.333496094	-0.926269531	896.02	23.73868012	-28.80134235	-5.037687348	-81
9816	0	0.258532524	0.160881042	0.276538849	0.998809814	0.027051926	-0.026249886	0.030935287	6.463313103	4.022026062	6.913471222	1.353132904	-1.313014989	1.547378028	0.200439453	-0.393066406	-0.926757813	896.02	25.69093439	-33.03902865	-2.795167817	-78
9817	0	0.270141602	0.343200684	0.340454102	0.999080658	0.027157784	-0.020500183	0.026062012	6.753540039	8.58001709	8.511352539	1.358305267	-1.025323244	1.303499889	0.127685547	-0.460693359	-0.903076172	896.04	27.72078918	-36.50076585	-0.865489214	-79
9818	0	0.284716606	0.255151749	0.305879593	0.999741554	0.009630203	-0.005302429	0.019895554	7.117915154	6.378793716	7.646989822	0.481551637	-0.265144296	0.994863365	0.077636719	-0.502929688	-0.888183594	895.96	27.54002567	-38.11680067	1.291149876	-87
9819	0	0.269226074	0.251403809	0.256164551	0.99993515	0.006093025	0.006317139	0.00717926	6.730651855	6.285095215	6.40411377	0.304657789	0.315863702	0.358970705	0.059326172	-0.519775391	-0.874267578	896.04	27.45246155	-37.87482072	2.609624836	-82
9820	0	0.244797707	0.210967064	0.246185303	0.999940872	-0.004005432	0.009320259	-0.003495216	6.119942665	5.274176598	6.154632568	-0.200275449	0.466021897	-0.174764172	0.064208984	-0.526367188	-0.876953125	895.96	26.94095508	-36.76183635	2.74399806	-87
9821	0	0.273254395	0.156799316	0.251953125	0.99995327	0.004737854	0.0054636	-0.006282806	6.831359863	3.91998291	6.298828125	0.236896324	0.273184186	-0.314145125	0.087402344	-0.518554688	-0.875976563	895.92	27.79020524	-35.89622675	2.271712503	-82
9822	0	0.262779236	0.16259861	0.267436981	0.999920845	0.011440277	0.00340271	-0.003781319	6.569480896	4.064965248	6.68592453	0.572028801	0.170139943	-0.189070873	0.101806641	-0.529785156	-0.873046875	895.88	29.28785169	-35.36844445	1.994751381	-79
9823	0	0.210205078	0.143493652	0.299987793	0.999991417	0.002841949	0.002755165	0.000156403	5.255126953	3.587341309	7.499694824	0.142097845	0.137758615	0.00782015	0.109375	-0.547607422	-0.857666016	895.86	29.53743254	-35.12196976	2.173816189	-78
9824	0	0.162465096	0.167531967	0.232920647	0.999902725	-0.012792587	0.005105019	-0.001763344	4.061627388	4.188299179	5.823016167	-0.639649921	0.255259134	-0.088170024	0.116210938	-0.543457031	-0.858398438	896.02	28.04369503	-34.52950228	2.27708709	-76
9825	0	0.216186523	0.184509277	0.260803223	0.999780655	-0.019961357	-0.001163483	-0.006099701	5.404663086	4.612731934	6.520080566	-0.998140565	-0.058178371	-0.305007265	0.124755859	-0.517578125	-0.872314453	895.92	26.27075114	-34.34578365	1.426286547	-75
9826	0	0.284218788	0.048757553	0.353731155	0.999927521	-0.007523537	-0.007052422	-0.006100655	7.105469704	1.218938828	8.843278885	-0.376185835	-0.352629516	-0.305040029	0.128173828	-0.476074219	-0.895996094	895.92	26.12547737	-34.78011732	0.199146975	-75
9827	0	0.228820801	0.048828125	0.330505371	0.999846458	0.015632629	-0.005690575	-0.005493164	5.72052002	1.220703125	8.262634277	0.78167146	-0.28454329	-0.274672256	0.12109375	-0.478027344	-0.892578125	895.96	28.54908547	-35.08713134	-0.885838612	-74
9828	0	0.207513809	0.135245323	0.292854309	0.999918938	0.010977745	-0.004528046	-0.004502296	5.18784523	3.38113308	7.321357727	0.548902008	-0.226408369	-0.225120874	0.115234375	-0.506347656	-0.884277344	895.92	30.33453948	-35.30009289	-1.778368911	-73
9829	0	0.223815918	0.18560791	0.291809082	0.999966621	-0.007026672	-0.003283501	-0.002513885	5.595397949	4.640197754	7.295227051	-0.351337511	-0.164176853	-0.125695668	0.11328125	-0.519287109	-0.871582031	895.96	29.8716844	-35.49386849	-2.332721533	-74
9830	0	0.227324486	0.165283203	0.281308174	0.999882698	-0.015254974	-0.000995636	0.000827789	5.683112144	4.132080078	7.032704353	-0.762778518	-0.049783744	0.041391082	0.110107422	-0.497314453	-0.884765625	895.88	28.13465212	-35.65160909	-2.315558539	-74
9831	0	0.227844238	0.13885498	0.278198242	0.999975204	-0.005732536	-6.10E-05	0.00396347	5.696105957	3.471374512	6.954956055	-0.286629136	-0.003051783	0.198175127	0.106933594	-0.473144531	-0.897949219	895.92	27.22002608	-35.88069339	-1.848276225	-74
9832	0	0.24215889	0.151237488	0.281579971	0.999974251	0.005028725	0.000965118	0.004925728	6.053972244	3.780937195	7.039499283	0.251438349	0.048256326	0.246288464	0.104492188	-0.46875	-0.898193359	895.96	27.42469658	-36.05367462	-1.196213528	-75
9833	0	0.235290527	0.172363281	0.278869629	0.999982834	0.00224781	0.002883911	0.00447464	5.882263184	4.309082031	6.971740723	0.112391144	0.144196359	0.22373324	0.102539063	-0.479492188	-0.897216797	895.92	27.27031236	-36.00745891	-0.472950366	-75
9834	0	0.231451035	0.163528442	0.274767876	0.999976158	-0.00501442	0.002895355	0.003667831	5.786275864	4.08821106	6.869196892	-0.250722941	0.144768895	0.183393007	0.104980469	-0.479736328	-0.897216797	895.96	26.34496791	-35.91241279	0.152180061	-75
9835	0	0.234069824	0.13092041	0.281188965	0.999984741	-0.005171776	0.000843048	0.001743317	5.851745605	3.273010254	7.029724121	-0.258590105	0.042152619	0.087166276	0.104492188	-0.470947266	-0.897949219	895.92	25.62023503	-35.92474086	0.404329237	-75
9836	0	0.238473892	0.122594833	0.28861618	0.999996185	0.001796722	-0.001639366	-0.00019455	5.961847305	3.064870834	7.21540451	0.08983621	-0.081968389	-0.009727488	0.104248047	-0.464355469	-0.901367188	896.02	25.92715879	-36.09590049	0.252300371	-75
9837	0	0.237670898	0.139648438	0.284301758	0.999983788	0.00472641	-0.00266552	-0.001174927	5.941772461	3.491210938	7.107543945	0.23632171	-0.13327667	-0.05874664	0.102294922	-0.470703125	-0.897949219	896.02	26.68286502	-36.32136517	-0.091364869	-75
9838	0	0.241530418	0.154407501	0.286211014	0.999992371	0.002711296	-0.002074242	-0.001443863	6.03826046	3.860187531	7.155275345	0.135565114	-0.103712319	-0.072193311	0.100097656	-0.479492188	-0.896972656	896.02	27.20842079	-36.46899846	-0.4326851	-75
9839	0	0.245239258	0.15057373	0.289245605	0.999999046	7.63E-06	-0.000380516	-0.000988007	6.130981445	3.764343262	7.231140137	0.00038147	-0.019025806	-0.049400339	0.097900391	-0.481689453	-0.893798828	895.96	27.3247414	-36.46616278	-0.604683297	-75
9840	0	0.235649109	0.144451141	0.283997536	0.999999046	-0.000569344	0.001180649	0.000141144	5.891227722	3.611278534	7.099938393	-0.028467187	0.059032457	0.007057192	0.097900391	-0.481689453	-0.896728516	895.96	27.22868227	-36.36311373	-0.531521145	-75
9841	0	0.231018066	0.139587402	0.284423828	0.999997139	-0.00120163	0.001473427	0.000904083	5.77545166	3.489685059	7.110595703	-0.060081526	0.073671395	0.045204196	0.102539063	-0.477294922	-0.897460938	895.96	26.99109537	-36.26932695	-0.34372104	-75
9842	0	0.234698296	0.135914803	0.285077095	0.999997139	-0.001241684	0.001119614	0.001349449	5.86745739	3.397870064	7.126927376	-0.062084246	0.055980725	0.06747251	0.102539063	-0.477294922	-0.897460938	896.02	26.72840077	-36.23378356	-0.12100783	-75
9843	0	0.236022949	0.141601563	0.282287598	0.999998093	-0.000697136	0.000453949	0.001308441	5.90057373	3.540039063	7.057189941	-0.03485681	0.022697458	0.065422084	0.102294922	-0.475097656	-0.897460938	895.98	26.55575954	-36.26339828	0.053771824	-75
9844	0	0.237792969	0.143554688	0.282043457	0.999999046	-0.000292778	-0.000411987	0.000732422	5.944824219	3.588867188	7.051086426	-0.014638903	-0.020599368	0.036621099	0.104736328	-0.473144531	-0.900878906	895.98	26.50472747	-36.35184751	0.099262252	-75
9845	0	0.241149902	0.147155762	0.284301758	0.999999046	0.000652313	-0.000430107	-8.01E-05	6.028747559	3.678894043	7.107543945	0.032615665	-0.021505358	-0.004005433	0.100097656	-0.473144531	-0.90625	895.92	26.62375028	-36.40034726	0.03860701	-75
9846	0	0.240883827	0.147749901	0.28585434	0.999999046	0.000707626	-0.000192642	-0.000535011	6.02209568	3.69374752	7.14635849	0.035381322	-0.009632112	-0.026750568	0.097900391	-0.475097656	-0.903076172	895.96	26.77427195	-36.40072501	-0.063297792	-75
9847	0	0.234741211	0.142456055	0.28515625	0.999999046	3.81E-06	0.000332832	-0.000778198	5.868530273	3.561401367	7.12890625	0.000190735	0.016641619	-0.038909917	0.102294922	-0.473144531	-0.897949219	896.04	26.84180002	-36.33419689	-0.161361726	-75
9848	0	0.233972549	0.13684082	0.285492897	0.999999046	0.000416756	0.000167847	-0.000427246	5.849313736	3.421020508	7.137322426	0.020837785	0.008392335	-0.021362306	0.102294922	-0.475341797	-0.897705078	896.02	26.93547232	-36.30223744	-0.223924316	-75
9849	0	0.233825684	0.13873291	0.283752441	0.999999046	0.000244141	3.53E-05	0.000133514	5.84564209	3.468322754	7.093811035	0.012207031	0.001764298	0.00667572	0.104736328	-0.475341797	-0.897705078	895.98	26.97150392	-36.31256861	-0.223681986	-75
9850	0	0.236711502	0.140089989	0.284737587	0.999999046	-0.000253677	-0.000179291	0.00062561	5.917787552	3.502249718	7.118439674	-0.012683869	-0.008964539	0.03128052	0.104736328	-0.475341797	-0.900634766	895.92	26.92096266	-36.37013455	-0.174898128	-75
9851	0	0.238952637	0.142028809	0.283874512	0.999999046	-0.000312805	-0.000189781	0.000778198	5.973815918	3.550720215	7.096862793	-0.015640261	-0.009489061	0.038909917	0.102294922	-0.473144531	-0.900634766	895.96	26.8518633	-36.4364759	-0.1076804	-75
9852	0	0.238062859	0.143250465	0.284421921	0.999999046	0.000132561	-0.00022316	0.000853539	5.951571465	3.581261635	7.110548019	0.006628037	-0.011157991	0.042676931	0.102294922	-0.473144531	-0.900634766	895.98	26.82875217	-36.50983702	-0.03269786	-75
9853	0	0.236816406	0.144042969	0.286132813	0.999999046	9.54E-05	-0.000144005	0.000659943	5.920410156	3.601074219	7.153320313	0.004768372	-0.007200242	0.032997134	0.100097656	-0.475341797	-0.900390625	895.84	26.81242328	-36.56469637	0.024348192	-75
9854	0	0.235074997	0.144579887	0.284510612	0.999999046	-0.000434875	-7.63E-06	0.000396729	5.876874924	3.614497185	7.112765312	-0.021743776	-0.00038147	0.019836427	0.09765625	-0.475097656	-0.897460938	895.94	26.74964797	-36.59155504	0.058181597	-75
9855	0	0.236083984	0.137878418	0.285583496	0.999999046	-0.000106812	-0.00014019	0.000160217	5.902099609	3.446960449	7.139587402	-0.005340576	-0.007009506	0.008010864	0.102294922	-0.473144531	-0.897949219	895.92	26.74675344	-36.61944558	0.052612875	-75
9856	0	0.236636162	0.140914917	0.283959389	0.999999046	0.001040459	-0.000169754	-8.58E-06	5.915904045	3.522872925	7.098984718	0.052022944	-0.008487703	-0.000429154	0.09765625	-0.472900391	-0.900390625	895.96	26.88881604	-36.64134221	0.021844766	-75
9857	0	0.237426758	0.144287109	0.283630371	0.999999046	3.81E-05	-0.000239372	0	5.935668945	3.607177734	7.090759277	0.001907349	-0.011968613	0	0.100097656	-0.477539063	-0.900146484	895.94	26.91775966	-36.67045788	-0.009306292	-75
9858	0	0.23835659	0.140707016	0.284908295	0.999999046	-3.43E-05	-0.000171661	0.000118256	5.958914757	3.5176754	7.122707367	-0.001716614	-0.008583069	0.005912781	0.100097656	-0.475341797	-0.900390625	895.98	26.9262302	-36.69853282	-0.021993466	-75
9859	0	0.237304688	0.140686035	0.286071777	0.999999046	0.000228882	-0.000174522	9.92E-05	5.932617188	3.517150879	7.151794434	0.011444092	-0.00872612	0.004959107	0.097900391	-0.475097656	-0.906005859	895.88	26.96584015	-36.72558253	-0.03897492	-75
9860	0	0.237614632	0.141439438	0.283908844	0.999999046	-0.000185966	-6.48E-05	0.000240326	5.940365791	3.535985947	7.0977211	-0.009298325	-0.003242493	0.012016297	0.100097656	-0.475097656	-0.897460938	895.98	26.94242238	-36.74848179	-0.027488329	-75
9861	0	0.238769531	0.139221191	0.284667969	0.999999046	0.000423431	-0.00026989	0.000144958	5.969238281	3.480529785	7.116699219	0.021171571	-0.013494492	0.007247925	0.09765625	-0.472900391	-0.897705078	895.96	27.00345063	-36.78716115	-0.043014578	-75
9862	0	0.236522675	0.1420784	0.284113884	0.999999046	0.000362396	-0.000354767	0.000343323	5.913066864	3.551959991	7.102847099	0.018119813	-0.017738343	0.017166139	0.09765625	-0.475097656	-0.900390625	895.92	27.0452233	-36.84449108	-0.038430116	-74
9863	0	0.237365723	0.141540527	0.283935547	0.999999046	0.000198364	-0.000475883	0.00043869	5.934143066	3.538513184	7.098388672	0.009918214	-0.023794176	0.021934511	0.097900391	-0.477294922	-0.900146484	895.98	27.06516777	-36.9188547	-0.028066393	-75
9864	0	0.238432884	0.140406609	0.285666466	0.999999046	-1.81E-05	-0.000404358	0.000629425	5.960822105	3.510165215	7.141661644	-0.000905991	-0.020217897	0.031471255	0.095458984	-0.477294922	-0.897216797	895.94	27.04224703	-36.99555332	0.012676039	-75
9865	0	0.239868164	0.141174316	0.285095215	0.999999046	-0.000347137	-0.000250816	0.000686646	5.996704102	3.52935791	7.127380371	-0.017356874	-0.012540819	0.034332279	0.093017578	-0.477050781	-0.896972656	895.98	26.97057523	-37.05926547	0.071510472	-75
9866	0	0.238586426	0.14050293	0.286010742	0.999999046	-0.00025177	-0.000144958	0.000537872	5.964660645	3.512573242	7.150268555	-0.012588502	-0.007247925	0.026893617	0.095458984	-0.477294922	-0.897216797	895.88	26.91651253	-37.10404283	0.118922109	-75
9867	0	0.240345955	0.141077995	0.283631325	0.999998093	5.44E-05	-1.53E-05	0.000380516	6.008648872	3.526949883	7.090783119	0.002717972	-0.000762939	0.019025803	0.090576172	-0.474853516	-0.899902344	895.98	26.90415211	-37.12716774	0.152344348	-75
9868	0	0.239974976	0.141718864	0.283304214	0.999999046	-0.000231743	7.63E-06	0.000293732	5.99937439	3.542971611	7.082605362	-0.011587143	0.00038147	0.014686585	0.093017578	-0.474853516	-0.897216797	896.02	26.86446948	-37.14320084	0.177649264	-75
9869	0	0.241455078	0.138916016	0.283813477	0.999999046	-8.01E-05	-6.39E-05	0.000160217	6.036376953	3.472900391	7.095336914	-0.004005432	-0.003194809	0.008010864	0.093017578	-0.474853516	-0.897216797	895.98	26.85481311	-37.15946777	0.18162743	-75
9870	0	0.240986824	0.140563011	0.28380394	0.999999046	0.000383377	-0.000131607	4.10E-05	6.024670601	3.514075279	7.095098495	0.019168854	-0.006580353	0.0020504	0.093017578	-0.474853516	-0.897216797	895.92	26.90979357	-37.17628276	0.165599565	-75
9871	0	0.240844727	0.141723633	0.284118652	0.999999046	-4.58E-05	-4.48E-05	8.01E-05	6.021118164	3.54309082	7.102966309	-0.002288818	-0.002241135	0.004005432	0.090576172	-0.477050781	-0.894042969	896.08	26.90883855	-37.18601801	0.163116349	-75
9872	0	0.23887825	0.138607025	0.284109116	0.999999046	-3.34E-05	-2.48E-05	0.000216484	5.971956253	3.465175629	7.10272789	-0.00166893	-0.001239777	0.010824204	0.093017578	-0.475097656	-0.900146484	895.94	26.89744285	-37.20052067	0.176211383	-75
9873	0	0.239074707	0.140563965	0.284362793	0.999999046	8.77E-05	1.24E-05	8.01E-05	5.976867676	3.514099121	7.109069824	0.004386902	0.000619888	0.004005432	0.093261719	-0.479248047	-0.896972656	895.92	26.90866878	-37.20385834	0.178309242	-75
9874	0	0.241165161	0.139658928	0.283367157	0.999999046	-0.000261307	-0.000167847	0.000255585	6.029129028	3.491473198	7.084178925	-0.013065338	-0.008392334	0.012779236	0.093261719	-0.477294922	-0.902832031	895.88	26.87297702	-37.23455964	0.188323193	-74
9875	0	0.241210938	0.139038086	0.285400391	0.999999046	0.000232697	-0.000182152	8.01E-05	6.030273438	3.475952148	7.135009766	0.011634827	-0.00910759	0.004005432	0.093017578	-0.477294922	-0.899902344	895.98	26.90762635	-37.2574181	0.175923588	-75
9876	0	0.241153717	0.141205788	0.283781052	0.999999046	6.20E-05	-9.92E-05	8.77E-05	6.028842926	3.530144691	7.094526291	0.003099442	-0.004959106	0.004386902	0.093017578	-0.479248047	-0.894042969	895.94	26.91856978	-37.2719878	0.173408751	-75
9877	0	0.240112305	0.139526367	0.284851074	0.999999046	-9.16E-05	-6.77E-05	0.000137329	6.002807617	3.48815918	7.121276855	-0.004577637	-0.003385544	0.006866455	0.090820313	-0.479248047	-0.893798828	895.98	26.90640673	-37.28566714	0.179615162	-75
9878	0	0.241410255	0.139834404	0.284049034	0.999999046	9.54E-05	-2.48E-05	0.000136375	6.035256386	3.4958601	7.101225853	0.004768372	-0.001239777	0.006818771	0.090820313	-0.477050781	-0.896972656	895.98	26.91367957	-37.29474041	0.185727323	-75
9879	0	0.242004395	0.139648438	0.284423828	0.999999046	4.96E-05	2.00E-05	0.000183105	6.050109863	3.491210938	7.110595703	0.002479553	0.001001358	0.009155273	0.090576172	-0.474853516	-0.894287109	895.92	26.90992301	-37.30150127	0.200373931	-75
9880	0	0.240579605	0.139405251	0.282892227	0.999999046	-2.38E-05	-4.20E-05	7.25E-05	6.014490128	3.485131264	7.072305679	-0.001192093	-0.002098083	0.003623962	0.090820313	-0.477050781	-0.899658203	896.02	26.90847969	-37.30869154	0.196647804	-75
9881	0	0.239929199	0.140014648	0.283447266	0.999999046	-2.29E-05	-0.000128746	1.14E-05	5.99822998	3.500366211	7.086181641	-0.001144409	-0.006437302	0.000572205	0.093017578	-0.477294922	-0.899902344	895.94	26.91502939	-37.32136774	0.179791615	-75
9882	0	0.239700317	0.138469696	0.282841682	0.999999046	0.000249863	-0.000188828	-0.000103951	5.992507935	3.461742401	7.071042061	0.012493134	-0.009441376	-0.005197525	0.090820313	-0.474853516	-0.902832031	895.98	26.96384226	-37.33400108	0.14138046	-75
9883	0	0.241821289	0.140991211	0.283203125	0.999999046	0.000572205	-9.44E-05	2.67E-05	6.045532227	3.524780273	7.080078125	0.028610231	-0.004720688	0.001335144	0.090576172	-0.474853516	-0.896972656	895.98	27.03544501	-37.34361746	0.127568309	-75
9884	0	0.242004395	0.140691757	0.283117294	0.999999046	-0.000121117	7.63E-06	0.000175476	6.050109863	3.51729393	7.077932358	-0.006055832	0.00038147	0.008773804	0.090820313	-0.477050781	-0.896972656	895.98	27.01168415	-37.35042885	0.141597976	-75
9885	0	0.240844727	0.13873291	0.284606934	0.999999046	-0.00025177	0.000100136	0.000259399	6.021118164	3.468322754	7.11517334	-0.012588501	0.00500679	0.012969971	0.090820313	-0.479248047	-0.896728516	896.02	26.9623217	-37.35196045	0.174794755	-75
9886	0	0.240188599	0.139258385	0.284358025	0.999999046	-3.05E-05	9.73E-05	0.000175476	6.004714966	3.481459618	7.108950615	-0.001525879	0.004863739	0.008773804	0.090820313	-0.477050781	-0.896972656	895.94	26.94461739	-37.34919994	0.195539398	-75
9887	0	0.239990234	0.140197754	0.282836914	0.999999046	-2.29E-05	5.05E-05	0.000289917	5.999755859	3.504943848	7.070922852	-0.001144409	0.002527237	0.01449585	0.090820313	-0.477050781	-0.896972656	895.92	26.92047662	-37.35696327	0.228124937	-75
9888	0	0.242362022	0.139433861	0.282988548	0.999999046	-5.44E-05	-6.48E-05	0.000117302	6.05905056	3.485846519	7.074713707	-0.002717972	-0.003242493	0.005865097	0.090576172	-0.474853516	-0.896972656	895.92	26.9104867	-37.36747619	0.229694878	-75
9889	0	0.241455078	0.140686035	0.283630371	0.999999046	4.20E-05	-2.96E-05	0.000106812	6.036376953	3.517150879	7.090759277	0.002098084	-0.001478195	0.005340576	0.090820313	-0.477050781	-0.899658203	895.98	26.91074845	-37.37368578	0.232964185	-75
9890	0	0.24005127	0.13885498	0.283935547	0.999999046	-9.16E-05	3.05E-05	8.77E-05	6.001281738	3.471374512	7.098388672	-0.004577637	0.001525879	0.004386902	0.090820313	-0.477050781	-0.899658203	895.98	26.89450562	-37.37257516	0.238132886	-75
9891	0	0.240234375	0.139099121	0.284973145	0.999999046	4.20E-05	7.34E-05	0.000156403	6.005859375	3.477478027	7.124328613	0.002098084	0.003671646	0.007820129	0.090576172	-0.474853516	-0.896972656	895.88	26.88618806	-37.37042622	0.254531275	-75
9892	0	0.239870071	0.139352798	0.283470154	0.999999046	-6.20E-05	-3.81E-05	0.000216484	5.996751785	3.483819962	7.086753845	-0.003099442	-0.001907349	0.010824204	0.090820313	-0.479248047	-0.902587891	895.88	26.86543441	-37.3826105	0.272812075	-75
9893	0	0.241638184	0.13848877	0.283569336	0.999999046	-8.01E-05	-5.63E-05	0.000171661	6.04095459	3.462219238	7.089233398	-0.004005432	-0.002813339	0.008583069	0.090820313	-0.477050781	-0.896972656	895.86	26.84653041	-37.39422229	0.285065808	-75
9894	0	0.241961479	0.139153481	0.283014297	0.999999046	0.0001297	-1.34E-05	0.000166893	6.04903698	3.478837013	7.075357437	0.006484985	-0.000667572	0.00834465	0.090820313	-0.479248047	-0.902587891	895.84	26.85012167	-37.40111658	0.298839975	-75
9895	0	0.24005127	0.139953613	0.28338623	0.999999046	-0.000522614	0.000115395	0.000137329	6.001281738	3.498840332	7.084655762	-0.026130678	0.00576973	0.006866455	0.090820313	-0.477050781	-0.902587891	895.92	26.77600704	-37.39312854	0.316574151	-75
9896	0	0.241854668	0.137085915	0.285171509	0.999999046	-4.86E-05	0.000219345	9.92E-05	6.046366692	3.427147865	7.12928772	-0.00243187	0.010967255	0.004959106	0.093017578	-0.472900391	-0.900146484	895.98	26.75473916	-37.37241403	0.334256736	-75
9897	0	0.241027832	0.139465332	0.283569336	0.999999046	1.14E-05	0.000245094	0.000221252	6.025695801	3.486633301	7.089233398	0.000572205	0.012254715	0.011062622	0.093017578	-0.475097656	-0.900146484	895.88	26.72965576	-37.35523064	0.371266691	-75
9898	0	0.240278244	0.138510704	0.283987999	0.999999046	-0.000291824	0.000160217	0.000163078	6.0069561	3.462767601	7.099699974	-0.014591217	0.008010864	0.008153916	0.090820313	-0.477050781	-0.899658203	895.88	26.67750602	-37.34357961	0.397791923	-75
9899	0	0.238586426	0.138305664	0.283996582	0.999999046	9.16E-05	3.91E-05	0.000267029	5.964660645	3.457641602	7.099914551	0.004577637	0.001955032	0.013351441	0.090576172	-0.47265625	-0.897216797	895.98	26.66572119	-37.34946664	0.427302851	-75
9900	0	0.238454819	0.138901711	0.284965515	0.999999046	0.000100136	4.39E-05	0.000212669	5.961370468	3.472542763	7.124137878	0.00500679	0.002193451	0.010633469	0.093017578	-0.472900391	-0.900146484	895.94	26.65878828	-37.35182931	0.449072507	-75
9901	0	0.240966797	0.13873291	0.284301758	0.999999046	5.72E-05	2.77E-05	0.000125885	6.024169922	3.468322754	7.107543945	0.002861023	0.001382828	0.006294251	0.090576172	-0.47265625	-0.897216797	895.86	26.65418489	-37.35128027	0.459870377	-75
9902	0	0.241291046	0.137788773	0.284603119	0.999999046	7.82E-05	-2.10E-05	0.00012207	6.032276154	3.444719315	7.115077972	0.003910065	-0.001049042	0.006103516	0.093017578	-0.475097656	-0.900146484	895.98	26.65396394	-37.35542835	0.467839108	-75
9903	0	0.240722656	0.138671875	0.283203125	0.999999046	-5.34E-05	3.53E-05	0.000114441	6.018066406	3.466796875	7.080078125	-0.002670288	0.001764297	0.005722046	0.090576172	-0.474853516	-0.899902344	895.88	26.63691952	-37.35333705	0.478689804	-75
9904	0	0.239574432	0.138647079	0.284576416	0.999999046	-7.92E-05	7.25E-05	0.000164032	5.989360809	3.466176987	7.1144104	-0.003957748	0.003623962	0.008201599	0.093017578	-0.475097656	-0.902832031	895.92	26.61142847	-37.34981428	0.497534198	-75
9905	0	0.239379883	0.138549805	0.284057617	0.999999046	0.000102997	5.44E-05	0.000118256	5.98449707	3.463745117	7.10144043	0.005149841	0.002717972	0.005912781	0.093017578	-0.472900391	-0.906005859	895.94	26.61096122	-37.34564152	0.506071378	-75
9906	0	0.240358353	0.138855934	0.284481049	0.999999046	4.01E-05	-5.72E-05	0.000102997	6.008958817	3.471398354	7.112026215	0.002002716	-0.002861023	0.005149841	0.095458984	-0.475097656	-0.900146484	895.98	26.60871484	-37.35199806	0.51011784	-75
9907	0	0.240478516	0.138793945	0.284484863	0.999999046	7.63E-06	-0.000102043	9.54E-05	6.011962891	3.469848633	7.112121582	0.00038147	-0.005102158	0.004768372	0.093017578	-0.474853516	-0.897216797	895.94	26.60497512	-37.36244102	0.511597767	-75
9908	0	0.240197182	0.139057159	0.284920692	1	4.77E-05	-4.67E-05	2.19E-05	6.004929543	3.476428986	7.123017311	0.002384186	-0.002336502	0.001096725	0.093017578	-0.474853516	-0.897216797	895.94	26.60928011	-37.36330554	0.507212907	-75
9909	0	0.239868164	0.138305664	0.284545898	0.999999046	7.25E-05	2.77E-05	1.91E-05	5.996704102	3.457641602	7.113647461	0.003623962	0.001382828	0.000953674	0.093017578	-0.475097656	-0.900146484	895.98	26.61358198	-37.35626917	0.506137864	-75
9910	0	0.240101814	0.13839817	0.284172058	0.999999046	3.62E-05	-3.81E-06	7.25E-05	6.002545357	3.459954262	7.104301453	0.001811981	-0.000190735	0.003623962	0.090576172	-0.470458984	-0.903076172	895.98	26.61065301	-37.35508683	0.504628059	-75
9911	0	0.24029541	0.138916016	0.284179688	0.999999046	-7.63E-05	-6.68E-06	0.000240326	6.007385254	3.472900391	7.104492188	-0.003814697	-0.000333786	0.012016297	0.090820313	-0.474853516	-0.902832031	895.88	26.58171047	-37.36270753	0.529075828	-75
9912	0	0.238229752	0.137964249	0.285234451	0.999999046	-5.82E-05	-3.24E-05	0.000235558	5.95574379	3.449106216	7.130861282	-0.002908707	-0.001621246	0.011777878	0.093017578	-0.475097656	-0.900146484	895.98	26.55604558	-37.37251139	0.553010995	-75
9913	0	0.239990234	0.138366699	0.284545898	0.999999046	5.72E-05	-9.82E-05	0.000160217	5.999755859	3.45916748	7.113647461	0.002861023	-0.004911423	0.008010864	0.090576172	-0.47265625	-0.903076172	895.98	26.5519556	-37.38507612	0.559458383	-75
9914	0	0.241311073	0.137893677	0.283810616	0.999999046	0.000181198	-0.000230789	0.000182152	6.032776833	3.447341919	7.095265388	0.009059906	-0.011539459	0.00910759	0.090576172	-0.474853516	-0.896972656	895.92	26.56542472	-37.41231867	0.565012473	-75
9915	0	0.241577148	0.138916016	0.284240723	0.999999046	9.54E-05	-7.92E-05	0.000205994	6.039428711	3.472900391	7.106018066	0.004768372	-0.003957748	0.010299683	0.093017578	-0.475097656	-0.902832031	895.94	26.56117057	-37.42517654	0.580612736	-75
9916	0	0.240092278	0.138627052	0.284907341	0.999999046	-8.30E-05	-1.53E-05	7.63E-05	6.002306938	3.465676308	7.122683525	-0.004148483	-0.000762939	0.003814697	0.090576172	-0.474853516	-0.899902344	895.92	26.54404037	-37.42470106	0.585243259	-75
9917	0	0.240661621	0.136230469	0.285949707	0.999999046	3.81E-06	-2.96E-05	-7.63E-06	6.016540527	3.405761719	7.148742676	0.000190735	-0.001478195	-0.00038147	0.093017578	-0.472900391	-0.900146484	895.88	26.54373637	-37.42128478	0.576351326	-75
9918	0	0.239027977	0.139043808	0.284163475	0.999999046	0.000392914	2.67E-05	0.000121117	5.975699425	3.4760952	7.104086876	0.019645691	0.001335144	0.006055832	0.090576172	-0.474853516	-0.899902344	895.94	26.57567179	-37.4185379	0.589062078	-75
9919	0	0.239990234	0.139038086	0.283447266	0.999999046	-0.000328064	0.00011158	7.63E-05	5.999755859	3.475952148	7.086181641	-0.016403199	0.005578995	0.003814697	0.092773438	-0.47265625	-0.897460938	895.92	26.52514666	-37.4046975	0.601365681	-75
9920	0	0.239642143	0.136860847	0.284932137	0.999999046	6.01E-05	-3.62E-05	5.63E-05	5.991053581	3.421521187	7.123303413	0.003004074	-0.001811981	0.002813339	0.090820313	-0.474853516	-0.902832031	895.86	26.52627936	-37.40487097	0.60111319	-75
9921	0	0.239929199	0.138305664	0.285400391	0.999999046	0.000232697	-5.63E-05	-1.53E-05	5.99822998	3.457641602	7.135009766	0.011634827	-0.002813339	-0.000762939	0.093017578	-0.475097656	-0.902832031	895.88	26.55347488	-37.40330398	0.59022188	-75
9922	0	0.23965168	0.138628006	0.284758568	0.999999046	-7.63E-05	-6.87E-05	7.63E-06	5.991292	3.46570015	7.118964195	-0.003814697	-0.003433228	0.00038147	0.088378906	-0.477050781	-0.899658203	895.94	26.54387456	-37.40405856	0.585565865	-75
9923	0	0.24041748	0.137451172	0.284484863	0.999999046	6.87E-05	-5.25E-05	2.29E-05	6.010437012	3.436279297	7.112121582	0.003433228	-0.002622604	0.001144409	0.093017578	-0.475097656	-0.902832031	895.94	26.54892269	-37.40386199	0.5801525	-75
9924	0	0.239294052	0.138943672	0.2841959	0.999999046	8.68E-05	-9.73E-05	-5.72E-05	5.982351303	3.473591805	7.104897499	0.004339218	-0.004863739	-0.002861023	0.093017578	-0.474853516	-0.897216797	895.88	26.56404412	-37.40403514	0.564217728	-75
9925	0	0.238708496	0.137573242	0.284973145	0.999999046	0	-0.000151634	5.34E-05	5.967712402	3.439331055	7.124328613	0	-0.007581711	0.002670288	0.090576172	-0.474853516	-0.896972656	895.92	26.56253934	-37.4153017	0.559402364	-75
9926	0	0.241067886	0.138524055	0.284410477	0.999999046	0.000108719	-0.000120163	-1.24E-05	6.026697159	3.463101387	7.110261917	0.005435944	-0.006008148	-0.000619888	0.090576172	-0.47265625	-0.900146484	895.88	26.57735433	-37.41991639	0.544030723	-75
9927	0	0.24017334	0.138122559	0.285461426	0.999999046	4.20E-05	-8.68E-05	-5.72E-05	6.004333496	3.453063965	7.136535645	0.002098084	-0.004339218	-0.002861023	0.090576172	-0.474853516	-0.899902344	895.98	26.5866009	-37.41870472	0.527635884	-75
9928	0	0.240267754	0.137440681	0.284552574	0.999999046	5.05E-05	-3.81E-05	4.48E-05	6.00669384	3.436017036	7.113814354	0.002527237	-0.001907349	0.002241135	0.093017578	-0.475097656	-0.900146484	895.88	26.58678506	-37.41767462	0.527692215	-75
9929	0	0.240356445	0.138916016	0.28503418	0.999999046	9.92E-05	-0.000113487	0.000137329	6.008911133	3.472900391	7.125854492	0.004959106	-0.005674362	0.006866455	0.090576172	-0.47265625	-0.903076172	895.88	26.58818445	-37.42900923	0.530592278	-75
9930	0	0.241069794	0.138600349	0.284523964	0.999999046	9.73E-05	-4.77E-05	5.25E-05	6.026744843	3.465008736	7.113099098	0.004863739	-0.002384186	0.002622604	0.090576172	-0.474853516	-0.899902344	895.86	26.59337162	-37.42920277	0.530946336	-75
9931	0	0.240478516	0.138793945	0.284729004	0.999999046	2.29E-05	-2.96E-05	-3.81E-05	6.011962891	3.469848633	7.118225098	0.001144409	-0.001478195	-0.001907349	0.090576172	-0.474853516	-0.896972656	895.86	26.596367	-37.42281389	0.522553286	-75
9932	0	0.239630699	0.138763428	0.284523964	0.999999046	-0.000239372	-5.72E-06	0.000102997	5.990767479	3.469085693	7.113099098	-0.011968613	-0.000286102	0.005149841	0.093017578	-0.475097656	-0.900146484	895.94	26.55725167	-37.42111634	0.533013053	-75
9933	0	0.240722656	0.138183594	0.283752441	0.999999046	-9.16E-05	-1.43E-05	0.000152588	6.018066406	3.454589844	7.093811035	-0.004577637	-0.000715256	0.007629395	0.088134766	-0.47265625	-0.899902344	895.94	26.53147209	-37.42280494	0.547254889	-75
9934	0	0.239490509	0.137386322	0.284196854	0.999999046	6.68E-05	-0.000120163	0.00014782	5.987262726	3.434658051	7.104921341	0.00333786	-0.006008148	0.007390976	0.090576172	-0.474853516	-0.899902344	895.98	26.52825172	-37.43502399	0.556476372	-75
9935	0	0.240356445	0.138671875	0.284851074	0.999999046	6.87E-05	4.77E-06	0.00018692	6.008911133	3.466796875	7.121276855	0.003433228	0.000238419	0.009346008	0.093017578	-0.475097656	-0.900146484	895.98	26.51724392	-37.43635154	0.578790006	-75
9936	0	0.240528107	0.138986588	0.283917427	0.999999046	-0.000153542	-0.000152588	8.77E-05	6.013202667	3.474664688	7.097935677	-0.007677078	-0.007629395	0.004386902	0.093017578	-0.474853516	-0.897216797	895.92	26.49472817	-37.44868946	0.580100035	-75
9937	0	0.239929199	0.137084961	0.284301758	0.999999046	0.000598907	-0.000235558	-0.000106812	5.99822998	3.427124023	7.107543945	0.029945376	-0.011777879	-0.005340577	0.090576172	-0.474853516	-0.896972656	895.92	26.57687291	-37.45950818	0.549749089	-75
9938	0	0.241009712	0.139917374	0.284080505	0.999999046	0.00022316	-0.000150681	-0.000171661	6.025242805	3.497934341	7.102012634	0.01115799	-0.007534027	-0.008583069	0.088378906	-0.477050781	-0.899658203	895.92	26.6177659	-37.45822107	0.517013577	-75
9939	0	0.240844727	0.137695313	0.285217285	0.999999046	1.91E-05	-7.53E-05	2.29E-05	6.021118164	3.442382813	7.130432129	0.000953674	-0.003767014	0.001144409	0.090576172	-0.474853516	-0.899902344	895.98	26.61690263	-37.45913171	0.511642037	-75
9940	0	0.238636017	0.137633324	0.285358429	0.999999046	0.000142097	-8.20E-05	5.63E-05	5.965900421	3.440833092	7.133960724	0.007104874	-0.0041008	0.002813339	0.093017578	-0.475097656	-0.902832031	896	26.62764089	-37.46228741	0.508463525	-75
9941	0	0.239685059	0.13861084	0.284545898	0.999999046	2.29E-05	4.77E-06	0.000171661	5.992126465	3.465270996	7.113647461	0.001144409	0.000238419	0.008583069	0.093017578	-0.475097656	-0.900146484	895.92	26.61218413	-37.46238265	0.527585634	-75
9942	0	0.241927147	0.138723373	0.283381462	0.999999046	-0.000154495	-2.67E-05	0.000128746	6.048178673	3.468084335	7.084536552	-0.007724762	-0.001335144	0.006437302	0.090576172	-0.474853516	-0.899902344	895.92	26.58099326	-37.46352228	0.539632693	-75
9943	0	0.240356445	0.138183594	0.284729004	0.999999046	4.96E-05	-0.000185966	-3.43E-05	6.008911133	3.454589844	7.118225098	0.002479553	-0.009298325	-0.001716614	0.093017578	-0.474853516	-0.897216797	895.92	26.59218305	-37.47255297	0.522031502	-75
9944	0	0.24002552	0.138959885	0.284502983	0.999999046	8.68E-05	-4.77E-05	-0.000134468	6.000638008	3.473997116	7.112574577	0.004339218	-0.002384186	-0.006723404	0.093017578	-0.474853516	-0.897216797	895.94	26.61003846	-37.46218751	0.500374127	-75
9945	0	0.240783691	0.13861084	0.284912109	0.999999046	0.000183105	-0.000113487	-9.92E-05	6.019592285	3.465270996	7.122802734	0.009155274	-0.005674362	-0.004959106	0.090576172	-0.474853516	-0.896972656	895.8	26.63868401	-37.46031162	0.478922572	-75
9946	0	0.241797447	0.138640404	0.284255981	0.999999046	-0.000164032	-2.29E-05	0.0001297	6.04493618	3.466010094	7.106399536	-0.008201599	-0.001144409	0.006484985	0.093017578	-0.475097656	-0.902832031	895.86	26.60597216	-37.46090962	0.4899828	-75
9947	0	0.239746094	0.137451172	0.284545898	0.999999046	-4.58E-05	-3.34E-05	0.000225067	5.993652344	3.436279297	7.113647461	-0.002288818	-0.00166893	0.011253357	0.090576172	-0.474853516	-0.896972656	895.98	26.57961995	-37.46740386	0.516542606	-75
9948	0	0.241292	0.138780594	0.28441906	0.999999046	0.000151634	-8.96E-05	1.05E-05	6.032299995	3.469514847	7.110476494	0.007581711	-0.004482269	0.000524521	0.090576172	-0.474853516	-0.899902344	895.94	26.59493266	-37.46863089	0.509575909	-75
9949	0	0.241577148	0.139587402	0.284240723	0.999999046	6.10E-05	-0.00014782	4.58E-05	6.039428711	3.489685059	7.106018066	0.003051758	-0.007390976	0.002288818	0.090820313	-0.477050781	-0.899658203	895.92	26.59940533	-37.47761354	0.506295615	-75
9950	0	0.241247177	0.138928413	0.28512764	0.999999046	5.53E-05	-5.15E-05	6.68E-06	6.031179428	3.473210335	7.128190994	0.002765656	-0.002574921	0.000333786	0.090576172	-0.477050781	-0.894042969	895.88	26.60246451	-37.47467528	0.507849075	-75
9951	0	0.239379883	0.138244629	0.28527832	0.999999046	3.05E-05	-1.43E-05	3.05E-05	5.98449707	3.456115723	7.131958008	0.001525879	-0.000715256	0.001525879	0.088378906	-0.477050781	-0.896728516	895.84	26.59926485	-37.46903053	0.513133692	-75
9952	0	0.241167068	0.139162064	0.285689354	0.999999046	5.82E-05	6.68E-05	2.96E-05	6.029176712	3.47905159	7.142233849	0.002908707	0.00333786	0.001478195	0.088378906	-0.474853516	-0.896972656	895.98	26.59608589	-37.45496329	0.52044433	-75
9953	0	0.24017334	0.137512207	0.284667969	0.999999046	-0.000198364	-0.000128746	1.14E-05	6.004333496	3.437805176	7.116699219	-0.009918213	-0.006437302	0.000572205	0.090820313	-0.477050781	-0.899658203	895.92	26.57251363	-37.45995704	0.514580564	-75
9954	0	0.241288185	0.138674736	0.286308289	0.999999046	0.000543594	-0.00019455	-5.05E-05	6.032204628	3.466868401	7.157707214	0.02717972	-0.009727479	-0.002527237	0.090820313	-0.477050781	-0.902587891	895.98	26.64135266	-37.46844136	0.49302759	-75
9955	0	0.242248535	0.140563965	0.283996582	0.999999046	9.54E-05	2.77E-05	3.81E-06	6.056213379	3.514099121	7.099914551	0.004768372	0.001382828	0.000190735	0.093017578	-0.474853516	-0.897216797	895.92	26.64589629	-37.45696021	0.493428648	-75
9956	0	0.241562843	0.139151573	0.285264015	0.999999046	-0.000119209	-1.14E-05	0.000136375	6.039071083	3.47878933	7.13160038	-0.005960465	-0.000572205	0.006818771	0.090820313	-0.477050781	-0.899658203	895.92	26.6169475	-37.45626808	0.510225146	-75
9957	0	0.237854004	0.137817383	0.284545898	0.999999046	4.96E-05	-6.39E-05	2.29E-05	5.946350098	3.44543457	7.113647461	0.002479553	-0.003194809	0.001144409	0.090820313	-0.477050781	-0.902587891	895.98	26.61822881	-37.45498082	0.506998346	-75
9958	0	0.239483833	0.139360428	0.284683228	0.999999046	0.00021553	-2.48E-05	1.05E-05	5.987095833	3.484010696	7.117080688	0.01077652	-0.001239777	0.000524521	0.090576172	-0.474853516	-0.899902344	895.88	26.63796197	-37.44895609	0.50313511	-75
9959	0	0.241638184	0.138793945	0.284423828	0.999999046	-4.96E-05	6.96E-05	6.10E-05	6.04095459	3.469848633	7.110595703	-0.002479553	0.003480911	0.003051758	0.090820313	-0.477050781	-0.899658203	895.92	26.61960349	-37.43587263	0.515426726	-75
9960	0	0.240943909	0.139040947	0.285569191	0.999999046	-9.25E-05	-3.62E-05	0.000254631	6.023597717	3.476023674	7.139229774	-0.00462532	-0.001811981	0.012731552	0.090576172	-0.474853516	-0.899902344	895.92	26.58526387	-37.44351763	0.543078475	-75
9961	0	0.240234375	0.138366699	0.283752441	0.999999046	-0.000232697	-1.43E-05	0.000343323	6.005859375	3.45916748	7.093811035	-0.011634827	-0.000715256	0.017166138	0.090576172	-0.474853516	-0.896972656	895.94	26.5270095	-37.45342686	0.586556153	-75
9962	0	0.241864204	0.138982773	0.286190033	0.999999046	0.000209808	6.68E-05	0.000114441	6.04660511	3.474569321	7.154750824	0.010490418	0.00333786	0.005722046	0.090820313	-0.477050781	-0.899658203	895.86	26.53422542	-37.44326539	0.606296344	-75
9963	0	0.239562988	0.140808105	0.284912109	0.999999046	9.54E-05	3.15E-05	8.77E-05	5.989074707	3.520202637	7.122802734	0.004768372	0.001573563	0.004386902	0.090820313	-0.477050781	-0.899658203	895.8	26.53192039	-37.43524596	0.620047173	-75
9964	0	0.239507675	0.137523651	0.285326958	0.999999046	-6.01E-05	4.20E-05	6.39E-05	5.987691879	3.438091278	7.133173943	-0.003004074	0.002098083	0.003194809	0.090576172	-0.474853516	-0.896972656	895.94	26.51317494	-37.42485818	0.630620761	-74
9965	0	0.240783691	0.138000488	0.285217285	0.999999046	0.000190735	-6.77E-05	0.000148773	6.019592285	3.450012207	7.130432129	0.009536743	-0.003385544	0.00743866	0.090576172	-0.474853516	-0.896972656	895.88	26.52075438	-37.43003972	0.644630069	-75
9966	0	0.241596222	0.138586044	0.285740852	0.999999046	-4.77E-05	-0.000141144	8.39E-05	6.039905548	3.464651108	7.143521309	-0.002384186	-0.00705719	0.004196167	0.090576172	-0.474853516	-0.896972656	895.92	26.50894241	-37.43942509	0.645882712	-74
9967	0	0.242004395	0.139160156	0.285217285	0.999999046	0.000274658	-4.10E-05	6.87E-05	6.050109863	3.479003906	7.130432129	0.01373291	-0.0020504	0.003433228	0.090820313	-0.477050781	-0.899658203	895.94	26.53136203	-37.43777409	0.652030135	-75
9968	0	0.240582466	0.140442848	0.284691811	0.999999046	6.20E-05	0.000169754	-0.000161171	6.014561653	3.511071205	7.117295265	0.003099442	0.008487701	-0.008058548	0.088378906	-0.474853516	-0.902587891	895.94	26.53928657	-37.4026969	0.636704203	-75
9969	0	0.239379883	0.13659668	0.284362793	0.999999046	0.000167847	-1.05E-05	-0.00018692	5.98449707	3.414916992	7.109069824	0.008392334	-0.000524521	-0.009346008	0.090820313	-0.477050781	-0.902587891	895.94	26.56828073	-37.38475594	0.609456904	-75
9970	0	0.240127563	0.138978958	0.284188271	0.999999046	0.000389099	-1.14E-05	-2.77E-05	6.003189087	3.474473953	7.104706764	0.019454957	-0.000572205	-0.001382828	0.090820313	-0.477050781	-0.899658203	895.94	26.61019625	-37.37505646	0.603837031	-75
9971	0	0.240478516	0.13873291	0.283874512	0.999999046	-0.000339508	7.72E-05	0.000190735	6.011962891	3.468322754	7.096862793	-0.016975403	0.003862381	0.009536743	0.088378906	-0.477050781	-0.899658203	895.86	26.54804787	-37.36748492	0.633458125	-75
9972	0	0.239693642	0.138141632	0.286018372	0.999999046	6.39E-05	9.54E-06	0.000190735	5.992341042	3.453540802	7.15045929	0.003194809	0.000476837	0.009536743	0.090576172	-0.474853516	-0.899902344	895.86	26.53470502	-37.36677512	0.655126906	-75
9973	0	0.240600586	0.139221191	0.285400391	0.999999046	5.72E-05	8.49E-05	7.25E-05	6.015014648	3.480529785	7.135009766	0.002861023	0.004243851	0.003623962	0.090576172	-0.474853516	-0.896972656	895.98	26.52692116	-37.35226405	0.668686173	-74
9974	0	0.241305351	0.139279366	0.28456974	0.999999046	-5.72E-05	8.39E-05	2.86E-06	6.032633781	3.481984138	7.114243507	-0.002861023	0.004196167	0.000143051	0.093017578	-0.477294922	-0.899902344	895.92	26.51155101	-37.3343224	0.674918479	-75
9975	0	0.241027832	0.137512207	0.284912109	0.999999046	-1.14E-05	-7.15E-05	0.000118256	6.025695801	3.437805176	7.122802734	-0.000572205	-0.003576279	0.005912781	0.090576172	-0.47265625	-0.900146484	895.92	26.49840327	-37.33826084	0.679052572	-74
9976	0	0.238903999	0.138485909	0.285734177	0.999999046	-0.000134468	-9.92E-05	5.34E-05	5.972599983	3.462147713	7.143354416	-0.006723404	-0.004959106	0.002670288	0.093261719	-0.477294922	-0.902832031	895.86	26.47727638	-37.34164412	0.678787494	-74
9977	0	0.240234375	0.137878418	0.28527832	0.999999046	7.63E-05	-3.34E-05	9.92E-05	6.005859375	3.446960449	7.131958008	0.003814697	-0.00166893	0.004959106	0.093017578	-0.477294922	-0.899902344	895.88	26.47410961	-37.34061349	0.690924088	-74
9978	0	0.239731789	0.139155388	0.283470154	0.999999046	6.10E-05	5.91E-05	2.57E-05	5.993294716	3.478884697	7.086753845	0.003051758	0.00295639	0.00128746	0.090576172	-0.474853516	-0.896972656	895.92	26.47142166	-37.32634819	0.698018284	-74
9979	0	0.239990234	0.137512207	0.284667969	0.999999046	-0.000125885	0.00011158	0.000125885	5.999755859	3.437805176	7.116699219	-0.006294251	0.005578995	0.006294251	0.093017578	-0.475097656	-0.900146484	895.88	26.43740181	-37.31182295	0.719768702	-74
9980	0	0.238769531	0.137268066	0.283996582	0.999999046	0.000184059	-3.43E-05	0.000240326	5.969238281	3.43170166	7.099914551	0.009202957	-0.001716614	0.012016297	0.093017578	-0.475097656	-0.905761719	895.94	26.43560347	-37.31808752	0.741891568	-74
9981	0	0.240140915	0.138884544	0.284773827	0.999998093	3.15E-05	-9.16E-05	9.92E-05	6.003522873	3.472113609	7.119345665	0.001573563	-0.004577637	0.004959106	0.093017578	-0.475097656	-0.900146484	895.94	26.42962572	-37.32302423	0.746873827	-75
9982	0	0.241103172	0.137461662	0.285244942	0.999999046	4.01E-05	-4.39E-05	7.25E-05	6.027579308	3.436541557	7.131123543	0.002002716	-0.002193451	0.003623962	0.093017578	-0.477294922	-0.899902344	895.88	26.42481527	-37.32175087	0.755267365	-74
9983	0	0.239562988	0.139526367	0.284423828	0.999999046	-2.29E-05	-1.05E-05	0.000156403	5.989074707	3.48815918	7.110595703	-0.001144409	-0.000524521	0.007820129	0.090820313	-0.477050781	-0.896972656	895.98	26.40502325	-37.32130499	0.778848282	-75
9984	0	0.241137505	0.135897636	0.285217285	0.999999046	7.92E-05	1.91E-06	-7.72E-05	6.028437614	3.39744091	7.130432129	0.003957748	9.54E-05	-0.003862381	0.093017578	-0.475097656	-0.900146484	895.98	26.41459516	-37.30773918	0.767153769	-74
9985	0	0.239746094	0.139709473	0.282714844	0.999999046	0.000629425	-6.01E-05	0.000255585	5.993652344	3.492736816	7.067871094	0.031471255	-0.003004074	0.012779237	0.090576172	-0.474853516	-0.896972656	895.94	26.46375988	-37.3175383	0.794482751	-74
9986	0	0.240644455	0.139392853	0.28293705	0.999999046	-0.000104904	-8.77E-05	8.01E-05	6.016111374	3.48482132	7.073426247	-0.005245209	-0.004386902	0.004005432	0.093017578	-0.477294922	-0.899902344	895.98	26.4436877	-37.32128158	0.799385637	-74
9987	0	0.239746094	0.137329102	0.285949707	0.999999046	-0.000263214	-2.19E-05	6.87E-05	5.993652344	3.433227539	7.148742676	-0.013160706	-0.001096725	0.003433228	0.090576172	-0.474853516	-0.899902344	895.92	26.40372383	-37.31765457	0.804322488	-74
9988	0	0.23996067	0.137573242	0.284790039	0.999999046	0.000414848	-3.62E-05	-4.67E-05	5.999016762	3.439331055	7.119750977	0.020742417	-0.001811981	-0.002336502	0.095458984	-0.475097656	-0.900146484	895.94	26.45101865	-37.30961595	0.792224602	-74
9989	0	0.240112305	0.13873291	0.284851074	0.999999046	-7.63E-05	-8.68E-05	4.20E-05	6.002807617	3.468322754	7.121276855	-0.003814697	-0.004339218	0.002098084	0.093017578	-0.475097656	-0.900146484	895.92	26.43708554	-37.31128434	0.78895548	-74
9990	0	0.241455078	0.137509346	0.285439491	0.999999046	1.53E-05	5.72E-06	0.000208855	6.036376953	3.43773365	7.135987282	0.000762939	0.000286102	0.010442734	0.093017578	-0.477050781	-0.896972656	896	26.41693635	-37.31202685	0.819281833	-75
9991	0	0.240722656	0.139221191	0.285217285	0.999999046	-0.000213623	-1.81E-05	0.000114441	6.018066406	3.480529785	7.130432129	-0.010681152	-0.000905991	0.005722046	0.093017578	-0.474853516	-0.897216797	895.8	26.37892673	-37.31039784	0.832897917	-75
9992	0	0.23960495	0.137945175	0.284534454	0.999999046	2.96E-05	-1.34E-05	5.63E-05	5.990123749	3.448629379	7.113361359	0.001478195	-0.000667572	0.002813339	0.090576172	-0.47265625	-0.897216797	895.88	26.37316599	-37.30530828	0.835758767	-75
9993	0	0.24029541	0.13885498	0.284545898	0.999999046	0.0001297	1.62E-05	-1.91E-05	6.007385254	3.471374512	7.113647461	0.006484985	0.000810623	-0.000953674	0.090576172	-0.474853516	-0.896972656	895.94	26.38369168	-37.29336133	0.834460301	-75
9994	0	0.24022007	0.138326645	0.284089088	0.999999046	-7.82E-05	-7.25E-05	5.34E-05	6.005501747	3.458166122	7.102227211	-0.003910065	-0.003623962	0.002670288	0.090576172	-0.474853516	-0.896972656	895.92	26.36820921	-37.29424246	0.837304094	-75
9995	0	0.239501953	0.137023926	0.284851074	0.999999046	0.000110626	-0.000144005	0.000141144	5.987548828	3.425598145	7.121276855	0.005531311	-0.007200241	0.00705719	0.093017578	-0.475097656	-0.902832031	895.98	26.37022948	-37.30692927	0.841866275	-75
9996	0	0.240965843	0.138422012	0.284627914	0.999999046	4.29E-05	-6.10E-05	0.000141144	6.02414608	3.460550308	7.115697861	0.002145767	-0.003051758	0.00705719	0.090820313	-0.474853516	-0.902832031	896.04	26.36131075	-37.31113751	0.851463222	-75
9997	0	0.239501953	0.13873291	0.284423828	0.999999046	3.81E-06	-2.96E-05	2.67E-05	5.987548828	3.468322754	7.110595703	0.000190735	-0.001478195	0.001335144	0.093017578	-0.475097656	-0.900146484	895.98	26.35570936	-37.30627251	0.851265361	-75
9998	0	0.240441322	0.138599396	0.284529686	0.999999046	-1.14E-05	-1.14E-05	0.000125885	6.011033058	3.464984894	7.113242149	-0.000572205	-0.000572205	0.006294251	0.093017578	-0.475097656	-0.905761719	896.04	26.33995298	-37.30460908	0.860276112	-75
9999	0	0.240478516	0.138793945	0.284729004	0.999999046	4.20E-05	-8.30E-05	3.81E-05	6.011962891	3.469848633	7.118225098	0.002098083	-0.004148483	0.001907349	0.090576172	-0.474853516	-0.899902344	896	26.34001568	-37.30584397	0.858390246	-74
10000	0	0.240109444	0.138493538	0.284737587	0.999999046	0.000130653	-8.01E-05	0.000163078	6.002736092	3.462338448	7.118439674	0.006532669	-0.004005432	0.008153915	0.093017578	-0.475097656	-0.900146484	895.92	26.34039936	-37.31313749	0.872578094	-74
10001	0	0.240783691	0.137878418	0.284790039	0.999999046	-1.53E-05	-7.92E-05	0.000141144	6.019592285	3.446960449	7.119750977	-0.000762939	-0.003957748	0.00705719	0.093017578	-0.475097656	-0.902832031	896	26.32574782	-37.31924814	0.881848411	-74
10002	0	0.239768982	0.138411522	0.284694672	0.999999046	-1.53E-05	-9.54E-06	0.000152588	5.994224548	3.460288048	7.117366791	-0.000762939	-0.000476837	0.007629395	0.090576172	-0.474853516	-0.896972656	896	26.30754638	-37.3187728	0.902245518	-74
10003	0	0.24029541	0.138244629	0.28503418	0.999999046	5.34E-05	-7.92E-05	1.91E-05	6.007385254	3.456115723	7.125854492	0.002670288	-0.003957748	0.000953674	0.090820313	-0.477050781	-0.896972656	895.94	26.31039466	-37.31866553	0.904757115	-74
10004	0	0.241200447	0.13850975	0.285101891	0.999999046	7.72E-05	-5.34E-05	0.000189781	6.030011177	3.462743759	7.127547264	0.003862381	-0.002670288	0.00948906	0.090576172	-0.474853516	-0.899902344	896	26.30165304	-37.3246098	0.924110498	-74
10005	0	0.239685059	0.13861084	0.284667969	0.999999046	-0.000450134	8.58E-06	9.54E-05	5.992126465	3.465270996	7.116699219	-0.022506715	0.000429153	0.004768372	0.093017578	-0.474853516	-0.894287109	896	26.23753592	-37.31936573	0.942233493	-74
10006	0	0.240316391	0.135866165	0.2852211	0.999999046	0.000383377	-0.000192642	4.48E-05	6.007909775	3.396654129	7.130527496	0.019168854	-0.009632111	0.002241135	0.093017578	-0.474853516	-0.897216797	895.98	26.2805831	-37.33226247	0.936902499	-74
10007	0	0.240661621	0.140625	0.283691406	0.999999046	0.000198364	-0.000193596	-7.63E-06	6.016540527	3.515625	7.092285156	0.009918213	-0.009679794	-0.00038147	0.095214844	-0.472900391	-0.900390625	895.98	26.30679984	-37.34260003	0.917501349	-74
10008	0	0.240891457	0.138665199	0.283419609	0.999999046	-0.000197411	-2.29E-05	9.54E-05	6.022286415	3.466629982	7.085490227	-0.009870529	-0.001144409	0.004768372	0.093261719	-0.477294922	-0.902832031	896.04	26.27307489	-37.34068183	0.929087652	-74
10009	0	0.239257813	0.138000488	0.284362793	0.999999046	1.14E-05	-5.25E-05	1.14E-05	5.981445313	3.450012207	7.109069824	0.000572205	-0.002622604	0.000572205	0.093261719	-0.477294922	-0.902832031	895.86	26.27104498	-37.3375121	0.928048564	-74
10010	0	0.240511894	0.138000488	0.284455299	0.999999046	0.00022316	-0.000165939	-7.34E-05	6.012797356	3.450012207	7.111382484	0.01115799	-0.008296967	-0.003671646	0.090820313	-0.477050781	-0.896972656	895.94	26.30435743	-37.34171321	0.913116091	-74
10011	0	0.24029541	0.139343262	0.283081055	0.999999046	-4.96E-05	-0.000132561	1.91E-05	6.007385254	3.483581543	7.077026367	-0.002479553	-0.006628037	0.000953674	0.090576172	-0.474853516	-0.899902344	895.98	26.29801306	-37.34720465	0.90578014	-74
10012	0	0.241230965	0.138267517	0.283945084	0.999999046	-7.92E-05	-7.44E-05	3.43E-05	6.030774117	3.456687927	7.09862709	-0.003957748	-0.00371933	0.001716614	0.090576172	-0.474853516	-0.899902344	895.98	26.28488236	-37.34754959	0.904642302	-74
10013	0	0.240478516	0.13885498	0.283874512	0.999999046	5.72E-05	-0.000174522	6.10E-05	6.011962891	3.471374512	7.096862793	0.002861023	-0.00872612	0.003051758	0.093017578	-0.475097656	-0.900146484	895.94	26.28925462	-37.35955371	0.900611871	-74
10014	0	0.240289688	0.138430595	0.283712387	0.999999046	7.82E-05	3.62E-05	-0.000126839	6.007242203	3.460764885	7.092809677	0.003910065	0.001811981	-0.006341934	0.093017578	-0.475097656	-0.902832031	895.92	26.30266304	-37.34038076	0.883134351	-73
10015	0	0.239807129	0.138793945	0.284423828	0.999999046	0.000137329	-7.53E-05	-4.20E-05	5.995178223	3.469848633	7.110595703	0.006866455	-0.003767014	-0.002098084	0.093017578	-0.477294922	-0.899902344	895.88	26.3205718	-37.33695331	0.875934625	-74
10016	0	0.239899635	0.137975693	0.284531593	0.999999046	-3.72E-05	-0.000106812	6.10E-05	5.997490883	3.449392319	7.113289833	-0.001859665	-0.005340576	0.003051758	0.093017578	-0.474853516	-0.897216797	895.98	26.31163365	-37.34197957	0.878308484	-74
10017	0	0.24029541	0.138305664	0.283569336	0.999999046	0.000114441	-0.000174522	4.58E-05	6.007385254	3.457641602	7.089233398	0.005722046	-0.00872612	0.002288818	0.093017578	-0.475097656	-0.900146484	895.9	26.3239454	-37.35321121	0.871726339	-74
10018	0	0.240834236	0.139202118	0.283635139	0.999999046	9.16E-05	-4.77E-05	3.72E-05	6.020855904	3.480052948	7.090878487	0.004577637	-0.002384186	0.001859665	0.093017578	-0.477050781	-0.896972656	895.92	26.32948601	-37.35100749	0.878486886	-74
10019	0	0.240539551	0.13861084	0.283996582	0.999999046	3.81E-05	-7.15E-05	-0.000114441	6.01348877	3.465270996	7.099914551	0.001907349	-0.003576279	-0.005722046	0.093017578	-0.475097656	-0.902832031	895.86	26.34176158	-37.34355852	0.854922092	-74
10020	0	0.239815712	0.138504028	0.284439087	0.999999046	4.77E-06	-0.000154495	-4.58E-05	5.995392799	3.462600708	7.110977173	0.000238419	-0.007724762	-0.002288818	0.090820313	-0.474853516	-0.902832031	895.98	26.34807217	-37.34809757	0.834802158	-74
10021	0	0.239685059	0.138244629	0.284667969	0.999999046	6.10E-05	-0.000102043	-1.91E-05	5.992126465	3.456115723	7.116699219	0.003051758	-0.005102158	-0.000953674	0.093017578	-0.474853516	-0.894287109	895.94	26.35670264	-37.34857645	0.82953798	-74
10022	0	0.240348816	0.138410568	0.285333633	0.999999046	6.48E-05	-9.54E-05	0.000155449	6.008720398	3.460264206	7.133340836	0.003242493	-0.004768372	0.007772446	0.093261719	-0.477294922	-0.902832031	896	26.35182131	-37.35722169	0.843465361	-74
10023	0	0.238220215	0.139038086	0.283325195	0.999999046	0.000621796	-0.000220299	9.54E-05	5.955505371	3.475952148	7.083129883	0.031089785	-0.011014939	0.004768372	0.090820313	-0.477050781	-0.899658203	895.92	26.42041241	-37.37556851	0.841709812	-74
10024	0	0.242583275	0.140381813	0.283592224	0.999999046	0.000479698	-0.000196457	-3.81E-05	6.064581871	3.509545326	7.089805603	0.02398491	-0.009822846	-0.001907349	0.090820313	-0.479248047	-0.896728516	896	26.48239983	-37.38472574	0.829205205	-74
10025	0	0.241943359	0.139465332	0.284118652	0.999999046	-0.00012207	-0.000243187	-6.87E-05	6.048583984	3.486633301	7.102966309	-0.006103516	-0.012159348	-0.003433228	0.090820313	-0.479248047	-0.899658203	895.98	26.4796876	-37.39715402	0.807554384	-74
10026	0	0.24053669	0.137231827	0.283058167	0.999999046	0.000448227	-0.000118256	-0.000161171	6.013417244	3.43079567	7.076454163	0.022411347	-0.005912781	-0.008058548	0.088378906	-0.477050781	-0.896728516	896	26.54463409	-37.39207268	0.779021823	-74
10027	0	0.241577148	0.14050293	0.283325195	0.999999046	9.92E-05	-7.92E-05	-5.34E-05	6.039428711	3.512573242	7.083129883	0.004959106	-0.003957748	-0.002670288	0.090820313	-0.479248047	-0.899658203	896	26.55969699	-37.38851868	0.767904232	-74
10028	0	0.241362572	0.139424324	0.283563614	0.999999046	-0.000243187	2.67E-05	0.000175476	6.034064293	3.485608101	7.089090347	-0.012159348	0.001335144	0.008773804	0.090820313	-0.477050781	-0.899658203	895.94	26.51346956	-37.38586824	0.790109945	-74
10029	0	0.239074707	0.138366699	0.283630371	0.999999046	0.0001297	-0.000117302	0.000144958	5.976867676	3.45916748	7.090759277	0.006484985	-0.005865097	0.007247925	0.088378906	-0.477050781	-0.899658203	895.94	26.51796331	-37.39637131	0.798797792	-74
10030	0	0.240951538	0.140200615	0.283475876	0.999999046	0.00028038	-0.000108719	-4.29E-05	6.023788452	3.505015373	7.086896896	0.014019013	-0.005435944	-0.002145767	0.088623047	-0.481445313	-0.896484375	895.92	26.5541945	-37.39638287	0.794175945	-74
10031	0	0.241394043	0.139160156	0.283325195	0.999999046	0.000514984	-6.01E-05	-0.000148773	6.034851074	3.479003906	7.083129883	0.025749208	-0.003004074	-0.00743866	0.090820313	-0.481445313	-0.899414063	896	26.62370034	-37.3860106	0.773948736	-74
10032	0	0.241996765	0.140013695	0.284798622	0.999999046	0.000185966	4.77E-05	-0.000210762	6.049919128	3.500342369	7.119965553	0.009298325	0.002384186	-0.010538101	0.090820313	-0.479248047	-0.899658203	895.88	26.65609633	-37.3614138	0.747664493	-74
10033	0	0.240722656	0.141052246	0.284057617	0.999999046	7.63E-06	-6.39E-05	-0.000114441	6.018066406	3.526306152	7.10144043	0.00038147	-0.003194809	-0.005722046	0.090820313	-0.483642578	-0.893554688	895.92	26.66495105	-37.35316726	0.741102091	-74
