Counter	Temperature	VelInc_X	VelInc_Y	VelInc_Z	OriInc_w	OriInc_x	OriInc_y	OriInc_z	Acc_X	Acc_Y	Acc_Z	Gyr_X	Gyr_Y	Gyr_Z	Mag_X	Mag_Y	Mag_Z	Pressure	Roll	Pitch	Yaw	RSSI
18123	0	0.385009766	-0.05871582	0.072143555	0.999998093	0.001587868	0.000133514	0.000968933	9.625244141	-1.467895508	1.803588867	0.079393433	0.006675724	0.048446683	-0.624023438	-0.038818359	0.760253906	878.02	-41.22469784	-75.41629495	-135.8437534	-57
18124	0	0.384585381	-0.051417351	0.07332325	0.999998093	0.001190186	0.000390053	0.000937462	9.614634514	-1.285433769	1.833081245	0.059509302	0.019502648	0.046873112	-0.626708984	-0.034423828	0.757324219	878.08	-41.19338385	-75.32882158	-135.7262917	-57
18125	0	0.381408691	-0.052185059	0.070861816	0.999999046	0.000167847	0.00036335	0.000888824	9.535217285	-1.304626465	1.77154541	0.008392335	0.018167499	0.04444123	-0.626953125	-0.030029297	0.759765625	877.98	-41.26979517	-75.24768327	-135.618133	-57
18126	0	0.382721901	-0.056687355	0.070791245	0.999999046	-0.000318527	5.72E-05	0.000414848	9.568047523	-1.417183876	1.769781113	-0.015926362	0.002861023	0.020742417	-0.629150391	-0.030029297	0.757080078	878.02	-41.33451356	-75.22896368	-135.5799987	-57
18127	0	0.383361816	-0.05480957	0.070922852	0.999999046	-0.000774384	1.24E-05	-7.63E-06	9.58404541	-1.370239258	1.773071289	-0.038719181	0.000619888	-0.00038147	-0.629150391	-0.030029297	0.759765625	878.02	-41.32625475	-75.24637072	-135.6712595	-57
18128	0	0.381041527	-0.058395386	0.072183609	0.999998093	-0.001617432	-0.000166893	-0.000370979	9.52603817	-1.459884644	1.804590225	-0.08087162	-0.008344654	-0.018548974	-0.626708984	-0.032226563	0.754150391	878.08	-41.34726881	-75.30678901	-135.8322548	-57
18129	0	0.380981445	-0.059387207	0.073669434	0.999999046	-0.001106262	-0.000273705	-8.77E-05	9.524536133	-1.484680176	1.84173584	-0.055313122	-0.013685229	-0.004386903	-0.626708984	-0.034423828	0.760009766	878.06	-41.43341357	-75.35493641	-135.8654589	-57
18130	0	0.381521225	-0.06015873	0.074913025	0.999999046	-0.000766754	-0.00028038	0.00026226	9.538030624	-1.503968239	1.872825623	-0.038337712	-0.014019014	0.013113023	-0.626464844	-0.036621094	0.760253906	878.08	-41.59804596	-75.37699068	-135.7775739	-57
18131	0	0.38482666	-0.060913086	0.072875977	0.999998093	-0.001036644	3.43E-05	0.000968933	9.620666504	-1.522827148	1.821899414	-0.051832217	0.001716614	0.048446672	-0.626464844	-0.038818359	0.757568359	878.02	-41.93346044	-75.31810072	-135.545377	-57
18132	0	0.384880066	-0.064442635	0.076370239	0.999999046	-4.48E-05	0.00028038	0.001060486	9.622001648	-1.611065865	1.909255981	-0.002241135	0.014019015	0.053024303	-0.626464844	-0.036621094	0.757324219	878.02	-42.11130231	-75.2307549	-135.3583128	-57
18133	0	0.381591797	-0.064575195	0.076293945	0.999998093	0.000977516	0.000331879	0.00113678	9.539794922	-1.614379883	1.907348633	0.048875828	0.01659394	0.056839012	-0.626464844	-0.036621094	0.757324219	877.98	-42.18009018	-75.13285113	-135.1631551	-57
18134	0	0.379144669	-0.061385155	0.075321198	0.999997139	0.001850128	0.000322342	0.000934601	9.478616714	-1.534628868	1.883029938	0.092506477	0.016117108	0.046730076	-0.626708984	-0.034423828	0.757324219	878	-42.08612849	-75.05126227	-135.0328831	-57
18135	0	0.381774902	-0.056945801	0.074035645	0.999998093	0.001729012	0.000259399	0.00062561	9.544372559	-1.42364502	1.850891113	0.086450626	0.012969978	0.031280536	-0.626953125	-0.027832031	0.756591797	877.98	-41.92550249	-74.9990163	-134.9853796	-57
18136	0	0.381361961	-0.055398941	0.073752403	0.999999046	-1.05E-05	0.000404358	0.000655174	9.534049034	-1.384973526	1.843810081	-0.000524521	0.020217898	0.032758716	-0.629394531	-0.027832031	0.759765625	878.06	-41.9318468	-74.93242887	-134.971518	-57
18137	0	0.38067627	-0.059936523	0.073364258	0.999999046	-0.001106262	0.000222206	0.00030899	9.516906738	-1.498413086	1.834106445	-0.055313123	0.011110308	0.015449527	-0.626953125	-0.027832031	0.756591797	878.02	-42.00600364	-74.90799645	-135.0173434	-57
18138	0	0.379201889	-0.060153961	0.075107574	0.999997139	-0.002260208	0.000102997	0.000330925	9.480047226	-1.50384903	1.877689362	-0.113010505	0.005149846	0.016546264	-0.629150391	-0.030029297	0.751220703	878.02	-42.2528826	-74.8920471	-135.0213469	-57
18139	0	0.379882813	-0.064880371	0.075866699	0.999997139	-0.00202179	2.00E-05	0.000488281	9.497070313	-1.622009277	1.89666748	-0.10108955	0.001001359	0.02441408	-0.626708984	-0.032226563	0.754150391	878.08	-42.54546827	-74.87079348	-134.9497154	-57
18140	0	0.381103516	-0.067443848	0.077270508	0.999998093	-0.000789642	7.34E-05	0.001220703	9.527587891	-1.686096191	1.931762695	-0.039482131	0.003671647	0.061035178	-0.62890625	-0.034423828	0.757324219	877.98	-42.9086605	-74.78772755	-134.6590699	-58
18141	0	0.381713867	-0.067871094	0.077758789	0.999996185	0.000321388	0.000244141	0.002418518	9.54284668	-1.696777344	1.943969727	0.016069428	0.012207043	0.120926024	-0.62890625	-0.034423828	0.757324219	878.06	-43.4565989	-74.59563718	-134.0450155	-57
18142	0	0.381892204	-0.069609642	0.077378273	0.999991417	0.000988007	0.000780106	0.003715515	9.547305107	-1.740241051	1.934456825	0.049400456	0.03900538	0.185776233	-0.629150391	-0.030029297	0.754150391	878.08	-44.14294227	-74.25443145	-133.2071909	-58
18143	0	0.379516602	-0.072875977	0.077087402	0.999990463	0.00150013	0.000617981	0.004047394	9.487915039	-1.821899414	1.927185059	0.075006723	0.030899146	0.202370331	-0.629394531	-0.021240234	0.756347656	877.98	-44.87858458	-73.89687152	-132.2552949	-58
18144	0	0.377542496	-0.074970245	0.078079224	0.999991417	0.002297401	0.000612259	0.003166199	9.438562393	-1.874256134	1.951980591	0.114870372	0.030613026	0.15831035	-0.632080078	-0.014648438	0.747314453	877.98	-45.24935074	-73.60858923	-131.587065	-58
18145	0	0.381103516	-0.071777344	0.078430176	0.99998951	0.003650665	0.00061512	0.00239563	9.527587891	-1.794433594	1.960754395	0.182533856	0.030756096	0.119781882	-0.632324219	-0.005859375	0.749511719	877.98	-45.24091997	-73.38229082	-131.1515106	-58
18146	0	0.380288124	-0.061496735	0.078304291	0.999990463	0.003956795	0.000464439	0.001358032	9.507203102	-1.537418365	1.957607269	0.197840321	0.023222038	0.067901812	-0.635009766	0.000732422	0.743408203	878.02	-44.95427149	-73.25325198	-130.9693868	-58
18147	0	0.378601074	-0.058959961	0.078674316	0.999998093	0.001778603	0.000236511	0.00063324	9.465026855	-1.473999023	1.96685791	0.088930184	0.011825569	0.031662006	-0.633056641	0.007324219	0.751220703	878.02	-44.7823423	-73.20212264	-130.9272292	-58
18148	0	0.379218102	-0.062035561	0.077119827	0.999999046	-0.000613213	8.77E-05	-6.58E-05	9.480452538	-1.550889015	1.927995682	-0.030660631	0.004386902	-0.003290177	-0.635498047	0.01171875	0.745361328	878.08	-44.73511636	-73.22003751	-131.0406475	-58
18149	0	0.376953125	-0.069030762	0.077209473	0.999996185	-0.002585411	9.54E-05	-0.000549316	9.423828125	-1.725769043	1.930236816	-0.129270704	0.004768377	-0.027465852	-0.6328125	0.007324219	0.745605469	878.12	-44.78070404	-73.27651693	-131.2934534	-58
18150	0	0.378789902	-0.075005531	0.078968048	0.999995232	-0.002941132	-9.16E-05	-0.000817299	9.469747543	-1.875138283	1.974201202	-0.147056808	-0.004577644	-0.040865008	-0.632568359	0.000732422	0.749023438	878.08	-44.84401306	-73.36979099	-131.5706415	-58
18151	0	0.377990723	-0.077270508	0.078613281	0.999996185	-0.002619743	-0.000167847	-0.000854492	9.449768066	-1.931762695	1.965332031	-0.130987334	-0.008392345	-0.042724664	-0.632324219	-0.003662109	0.746337891	878.02	-44.88023885	-73.47211736	-131.8376454	-58
18152	0	0.377354622	-0.076802254	0.079975128	0.999997139	-0.001982689	-0.000200272	-0.000344276	9.433865547	-1.920056343	1.999378204	-0.099134513	-0.010013587	-0.017213833	-0.629882813	-0.008056641	0.752441406	878.12	-44.99151783	-73.53559592	-131.9502823	-57
18153	0	0.38067627	-0.076721191	0.08026123	0.999998093	-0.001914024	-1.91E-05	-0.000160217	9.516906738	-1.918029785	2.006530762	-0.095701277	-0.000953675	-0.008010869	-0.632080078	-0.012451172	0.747070313	877.96	-45.09599736	-73.56929218	-132.0621422	-58
18154	0	0.378078461	-0.076369286	0.0828228	0.999998093	-0.001656532	0.000315666	-1.14E-05	9.451961517	-1.90923214	2.070569992	-0.082826654	0.015783317	-0.000572205	-0.631835938	-0.016845703	0.747558594	878.06	-45.11955007	-73.56351029	-132.227688	-57
18155	0	0.378051758	-0.076782227	0.082885742	0.999999046	-0.000865936	0.000329018	0.000350952	9.451293945	-1.919555664	2.072143555	-0.043296821	0.016450885	0.01754761	-0.631835938	-0.016845703	0.744628906	878.08	-45.14819794	-73.52687824	-132.2932427	-57
18156	0	0.377759933	-0.077311516	0.082022667	0.999999046	0.000309944	0.00041008	0.000282288	9.443998337	-1.932787895	2.050566673	0.015497209	0.020503999	0.014114381	-0.631835938	-0.019042969	0.744873047	878.02	-45.00160701	-73.48892572	-132.4013988	-57
18157	0	0.377868652	-0.076538086	0.08203125	0.999999046	0.001235962	0.000317574	0.000190735	9.446716309	-1.913452148	2.05078125	0.061798113	0.015878682	0.009536746	-0.634033203	-0.019042969	0.744873047	878.02	-44.74992586	-73.46553594	-132.5086224	-57
18158	0	0.376873016	-0.074895859	0.080989838	0.999998093	0.001446724	0.00033474	7.63E-05	9.421825409	-1.872396469	2.024745941	0.072336224	0.01673699	0.003814699	-0.634277344	-0.016845703	0.744628906	878	-44.4387803	-73.44966109	-132.6524936	-57
18159	0	0.378112793	-0.075012207	0.078491211	0.999999046	0.001075745	0.000115395	0.000102997	9.452819824	-1.875305176	1.962280273	0.053787242	0.005769731	0.005149842	-0.634277344	-0.014648438	0.738769531	878.08	-44.23762723	-73.44941022	-132.7259677	-57
18160	0	0.377894402	-0.0773592	0.080513954	0.999999046	0.000832558	-0.000127792	-0.000244141	9.447360039	-1.933979988	2.012848854	0.041627889	-0.006389619	-0.012207033	-0.634277344	-0.012451172	0.744384766	878.06	-44.03419874	-73.49659564	-132.8307577	-57
18161	0	0.374328613	-0.07611084	0.080078125	0.999998093	0.001385689	-0.000343323	8.77E-05	9.358215332	-1.902770996	2.001953125	0.069284463	-0.017166144	0.004386903	-0.634521484	-0.010009766	0.747070313	878.02	-43.91783704	-73.53487212	-132.7787998	-57
18162	0	0.376504898	-0.076446533	0.079176903	0.999998093	0.001400948	-0.000349998	0.000328064	9.412622452	-1.91116333	1.979422569	0.070047404	-0.01749993	0.016403204	-0.634521484	-0.010253906	0.744140625	878.02	-43.86955588	-73.55448533	-132.6545812	-57
18163	0	0.378601074	-0.077148438	0.08026123	0.999998093	0.00150013	-0.000495911	0.000492096	9.465026855	-1.928710938	2.006530762	0.075006519	-0.024795544	0.024604809	-0.632324219	-0.005859375	0.746582031	878.08	-43.89614249	-73.57295182	-132.4402151	-57
18164	0	0.379275322	-0.077038765	0.079627037	0.999996185	0.002466202	-0.000748634	0.000372887	9.481883049	-1.925969124	1.990675926	0.123310228	-0.037431759	0.018644354	-0.634765625	-0.003417969	0.749511719	878.06	-43.84814131	-73.6216407	-132.1886645	-57
18165	0	0.379333496	-0.075561523	0.080200195	0.999992371	0.003624916	-0.000621796	0.000213623	9.483337402	-1.889038086	2.005004883	0.181246214	-0.031089853	0.010681177	-0.6328125	0.002929688	0.748779297	878.14	-43.58923801	-73.67252668	-132.0185077	-57
18166	0	0.380440712	-0.06782341	0.079608917	0.999994278	0.003293037	-0.000311852	0.000201225	9.511017799	-1.695585251	1.990222931	0.164652172	-0.015592604	0.010061282	-0.6328125	0.005126953	0.748535156	877.96	-43.28083093	-73.6990219	-131.9399056	-57
18167	0	0.380126953	-0.068725586	0.080688477	0.999996185	0.002583504	-6.10E-05	3.43E-05	9.503173828	-1.718139648	2.017211914	0.12917533	-0.003051761	0.001716616	-0.630859375	0.013916016	0.744873047	878.02	-42.93828337	-73.71782025	-131.9808614	-57
18168	0	0.377995491	-0.067544937	0.080320358	0.999997139	0.002209663	-0.000123978	-5.34E-05	9.449887276	-1.688623428	2.008008957	0.11048326	-0.006198888	-0.00267029	-0.633300781	0.018310547	0.747558594	878.02	-42.62956304	-73.74876912	-132.031333	-58
18169	0	0.37878418	-0.070007324	0.078674316	0.999998093	0.001656532	-1.14E-05	-0.000102997	9.469604492	-1.750183105	1.96685791	0.082826652	-0.000572205	-0.005149844	-0.633544922	0.022705078	0.752929688	877.96	-42.33983172	-73.77403453	-132.1280073	-57
18170	0	0.378434181	-0.070035934	0.0785923	0.999998093	0.001675606	-8.49E-05	-0.000328064	9.46085453	-1.750898361	1.96480751	0.08378033	-0.004243853	-0.016403206	-0.633544922	0.022705078	0.75	877.96	-42.00149933	-73.82274688	-132.2735185	-57
18171	0	0.377380371	-0.067443848	0.077697754	0.999999046	0.001003265	-0.000243187	-0.000453949	9.434509277	-1.686096191	1.942443848	0.05016328	-0.01215935	-0.022697454	-0.631347656	0.022705078	0.75	877.96	-41.7439754	-73.89451009	-132.4151345	-57
18172	0	0.377604485	-0.070239067	0.079118729	0.999999046	0.000664711	-0.000581741	-0.000343323	9.440112114	-1.755976677	1.977968216	0.033235555	-0.029087071	-0.01716614	-0.631347656	0.024902344	0.749755859	878.06	-41.64699971	-73.98663767	-132.4298812	-57
18173	0	0.379638672	-0.06854248	0.078430176	0.999999046	-1.53E-05	-0.00058651	-0.000289917	9.490966797	-1.713562012	1.960754395	-0.00076294	-0.029325487	-0.014495851	-0.62890625	0.024902344	0.746826172	878.08	-41.64540026	-74.07512649	-132.4265542	-57
18174	0	0.379102707	-0.071255684	0.08048439	0.999999046	-0.000543594	-0.000627518	-0.000526428	9.477567673	-1.781392097	2.012109756	-0.027179722	-0.03137589	-0.026321415	-0.626464844	0.022460938	0.746826172	877.96	-41.64475015	-74.18494696	-132.485424	-57
18175	0	0.376159668	-0.069885254	0.080627441	0.999999046	-0.00094223	-0.000597954	-0.00018692	9.403991699	-1.747131348	2.015686035	-0.047111521	-0.029897696	-0.00934601	-0.62890625	0.022705078	0.749755859	877.98	-41.78511249	-74.26613915	-132.4451236	-57
18176	0	0.378787041	-0.073803902	0.081071854	0.999999046	-0.000674248	-0.00056076	-0.000157356	9.469676018	-1.845097542	2.026796341	-0.033712392	-0.028038029	-0.007867814	-0.626464844	0.018066406	0.75	878.06	-41.8953046	-74.34150941	-132.4048071	-57
18177	0	0.377075195	-0.073974609	0.081481934	0.999999046	-2.67E-05	-0.000407219	0.000133514	9.426879883	-1.849365234	2.03704834	-0.001335144	-0.020360947	0.00667572	-0.628662109	0.018310547	0.750244141	878.06	-41.97924397	-74.3810787	-132.3147134	-57
18178	0	0.378523827	-0.073836327	0.079581261	0.999999046	0.000720978	-0.000314713	0.000361443	9.463095665	-1.845908165	1.989531517	0.036048894	-0.015735628	0.018072131	-0.624267578	0.020263672	0.755371094	878.02	-42.02288413	-74.39494841	-132.1774278	-58
18179	0	0.378723145	-0.069519043	0.079162598	0.999999046	0.001033783	-0.00014782	0.000484467	9.468078613	-1.737976074	1.979064941	0.051689159	-0.007390978	0.024223333	-0.626708984	0.024658203	0.749511719	878.02	-42.02278872	-74.38501275	-132.0482964	-57
18180	0	0.378923416	-0.069417	0.079498291	0.999999046	9.25E-05	-0.000118256	0.000652313	9.473085403	-1.735424995	1.987457275	0.004625321	-0.005912781	0.032615664	-0.626708984	0.022460938	0.752441406	877.96	-42.17358811	-74.35947311	-131.8749103	-57
18181	0	0.37890625	-0.072387695	0.079772949	0.999999046	0.000343323	-0.000220299	0.000518799	9.47265625	-1.809692383	1.99432373	0.017166139	-0.011014939	0.025939943	-0.626708984	0.024658203	0.752441406	877.98	-42.28349737	-74.3525188	-131.7139995	-57
18182	0	0.379174232	-0.069797516	0.079713821	0.999999046	0.000965118	1.91E-06	0.000563622	9.479355812	-1.744937897	1.992845535	0.04825593	9.54E-05	0.028181082	-0.626708984	0.024658203	0.752441406	878.12	-42.27463497	-74.32308669	-131.6026673	-58
18183	0	0.379577637	-0.067321777	0.07824707	0.999999046	0.000423431	-1.81E-05	0.00062561	9.489440918	-1.683044434	1.956176758	0.021171572	-0.000905991	0.031280521	-0.626953125	0.029296875	0.754882813	878.02	-42.35182431	-74.29056403	-131.4660126	-58
18184	0	0.37882328	-0.068462372	0.078473091	0.999999046	0.000145912	0.000202179	0.000761986	9.470582008	-1.711559296	1.961827278	0.007295609	0.010108949	0.038099293	-0.626708984	0.026855469	0.749267578	877.96	-42.44094569	-74.22876934	-131.3504669	-58
18185	0	0.378601074	-0.069274902	0.078063965	0.999999046	-0.000137329	0.000340462	0.000686646	9.465026855	-1.731872559	1.951599121	-0.006866456	0.017023088	0.034332279	-0.626953125	0.03125	0.749023438	878.02	-42.50173446	-74.16104112	-131.2976053	-58
18186	0	0.378083229	-0.071159363	0.078971863	0.999999046	-0.000520706	0.000282288	0.000826836	9.452080727	-1.77898407	1.97429657	-0.026035313	0.014114382	0.041341789	-0.629394531	0.031494141	0.754882813	878.02	-42.66358026	-74.08720661	-131.1855304	-58
18187	0	0.381469727	-0.075256348	0.079162598	0.999999046	-0.000431061	0.000153542	0.000541687	9.536743164	-1.881408691	1.979064941	-0.021553041	0.007677079	0.027084353	-0.629150391	0.031494141	0.749023438	878.02	-42.76595116	-74.04612141	-131.1247626	-58
18188	0	0.378500938	-0.069997787	0.078607559	0.999999046	-0.000102043	0.000242233	0.000621796	9.46252346	-1.749944687	1.96518898	-0.005102158	0.012111665	0.031089785	-0.629394531	0.033691406	0.751708984	878.02	-42.82976856	-73.99130846	-131.0647433	-58
18189	0	0.377380371	-0.072631836	0.07800293	0.999999046	-0.000598907	7.72E-05	0.000621796	9.434509277	-1.815795898	1.950073242	-0.029945377	0.003862381	0.031089787	-0.629394531	0.033691406	0.748779297	878.02	-42.9953086	-73.95023603	-130.9582692	-58
18190	0	0.378861427	-0.07490921	0.080533981	0.999999046	-0.000148773	0.000162125	0.000507355	9.471535683	-1.872730255	2.013349533	-0.00743866	0.008106232	0.025367738	-0.631591797	0.029296875	0.746582031	877.98	-43.05285528	-73.91073843	-130.9110426	-58
18191	0	0.37902832	-0.071899414	0.07824707	0.999999046	0.00012207	3.91E-05	0.000495911	9.475708008	-1.797485352	1.956176758	0.006103516	0.001955032	0.024795533	-0.631591797	0.031494141	0.749267578	877.96	-43.10947893	-73.88242517	-130.832117	-58
18192	0	0.379255295	-0.072867393	0.077865601	0.999999046	-0.000329018	1.14E-05	0.000433922	9.48138237	-1.821684837	1.946640015	-0.016450883	0.000572205	0.021696092	-0.631835938	0.035888672	0.751708984	878.12	-43.20757955	-73.86125161	-130.7634547	-58
18193	0	0.377563477	-0.074462891	0.078857422	0.999999046	-0.000640869	-0.000170708	0.000526428	9.439086914	-1.861572266	1.971435547	-0.032043461	-0.008535386	0.026321414	-0.629394531	0.033691406	0.748779297	878.06	-43.41774055	-73.84783093	-130.615741	-58
18194	0	0.37903595	-0.076551437	0.079360962	0.999999046	-0.000425339	-0.000301361	0.000292778	9.475898743	-1.913785934	1.984024048	-0.021266939	-0.015068055	0.014638902	-0.631591797	0.033691406	0.749023438	878.08	-43.57218585	-73.86339653	-130.5004226	-59
18195	0	0.379394531	-0.075134277	0.079223633	0.999999046	-0.00019455	-0.000277519	0.00018692	9.484863281	-1.878356934	1.98059082	-0.009727478	-0.013875962	0.009346009	-0.629394531	0.033691406	0.748779297	877.96	-43.6639231	-73.88516959	-130.4228758	-59
18196	0	0.379593849	-0.073903084	0.078617096	0.999999046	-0.000166893	-0.000204086	0.000255585	9.48984623	-1.847577095	1.965427399	-0.00834465	-0.010204315	0.012779236	-0.631591797	0.033691406	0.749023438	878.02	-43.75250276	-73.89533773	-130.3454182	-59
18197	0	0.378967285	-0.073974609	0.078979492	0.999999046	-0.000385284	-5.63E-05	0.000171661	9.474182129	-1.849365234	1.974487305	-0.019264222	-0.002813339	0.008583069	-0.629394531	0.033691406	0.751708984	878	-43.80171139	-73.89982425	-130.3349246	-59
18198	0	0.378705978	-0.073860168	0.078207016	0.999999046	-0.00037384	-5.15E-05	0.000267029	9.46764946	-1.846504211	1.9551754	-0.018692017	-0.002574921	0.013351441	-0.629394531	0.031494141	0.754882813	878.08	-43.87585299	-73.89629247	-130.29733	-59
18199	0	0.378723145	-0.07409668	0.078125	0.999999046	-0.000526428	-0.000113487	0.000164032	9.468078613	-1.852416992	1.953125	-0.026321413	-0.005674362	0.0082016	-0.629150391	0.029296875	0.752197266	878.02	-43.95532323	-73.90599555	-130.2724966	-59
18200	0	0.380607605	-0.075218201	0.076859474	0.999999046	-0.000824928	-1.14E-05	1.91E-05	9.515190125	-1.880455017	1.921486855	-0.041246419	-0.000572205	0.000953674	-0.629150391	0.031494141	0.749023438	877.9	-43.99996333	-73.91878668	-130.3191885	-59
18201	0	0.37902832	-0.076477051	0.078186035	0.999999046	-0.000518799	2.00E-05	-0.000156403	9.475708008	-1.91192627	1.954650879	-0.025939943	0.001001358	-0.00782013	-0.629150391	0.029296875	0.752197266	878.02	-43.95101662	-73.94280179	-130.4270035	-59
18202	0	0.376851082	-0.074792862	0.078427315	0.999999046	-0.000581741	5.72E-06	7.92E-05	9.421277046	-1.869821548	1.960682869	-0.029087068	0.000286102	0.003957749	-0.629150391	0.027099609	0.755126953	877.96	-43.98086404	-73.94912474	-130.4604534	-58
18203	0	0.378845215	-0.076416016	0.077148438	0.999999046	-0.000907898	-1.43E-05	-0.000102997	9.471130371	-1.910400391	1.928710938	-0.045394904	-0.000715256	-0.005149842	-0.62890625	0.024902344	0.746826172	878.02	-44.00196957	-73.97149108	-130.5419876	-59
18204	0	0.378862381	-0.076357841	0.077852249	0.999999046	-0.000824928	5.72E-05	-0.000125885	9.471559525	-1.908946037	1.946306229	-0.041246419	0.002861023	-0.006294251	-0.62890625	0.022705078	0.752685547	878.02	-43.98753358	-73.9896461	-130.6505988	-59
18205	0	0.377746582	-0.076293945	0.078125	0.999999046	-0.001022339	-0.000113487	2.29E-05	9.443664551	-1.907348633	1.953125	-0.051116952	-0.005674363	0.001144409	-0.631347656	0.022705078	0.752685547	878.02	-44.08621001	-74.00987127	-130.6649814	-58
18206	0	0.377515793	-0.078608513	0.078305244	0.999999046	-0.00087738	-1.34E-05	0.000175476	9.437894821	-1.965212822	1.957631111	-0.043869024	-0.000667572	0.008773805	-0.62890625	0.022705078	0.755615234	877.92	-44.18495482	-74.00943559	-130.6619739	-58
18207	0	0.377807617	-0.077941895	0.077819824	0.999999046	-0.000205994	-0.000166893	0.000225067	9.44519043	-1.948547363	1.945495605	-0.010299683	-0.00834465	0.011253357	-0.626464844	0.020263672	0.752685547	877.96	-44.26440401	-74.01744066	-130.5993442	-58
18208	0	0.378653526	-0.077290535	0.078209877	0.999999046	0.000250816	-9.35E-05	0.000102043	9.466338158	-1.932263374	1.955246925	0.012540817	-0.004673004	0.005102158	-0.631103516	0.020507813	0.75	878	-44.23620398	-74.02907127	-130.5943362	-58
18209	0	0.378417969	-0.077575684	0.079223633	0.999999046	0.000125885	3.15E-05	0.000247955	9.460449219	-1.93939209	1.98059082	0.006294251	0.001573563	0.012397766	-0.62890625	0.020507813	0.75	877.98	-44.22960477	-74.01855671	-130.5817148	-58
18210	0	0.378008842	-0.075424194	0.078350067	0.999999046	0.000234604	-5.72E-06	0.000335693	9.450221062	-1.885604858	1.958751678	0.011730194	-0.000286102	0.016784668	-0.62890625	0.020507813	0.75	878.06	-44.2462011	-74.00396628	-130.5320487	-58
18211	0	0.377502441	-0.07611084	0.078491211	0.999999046	0.000183105	5.44E-05	0.000324249	9.437561035	-1.902770996	1.962280273	0.009155274	0.002717972	0.016212464	-0.62890625	0.022705078	0.749755859	878.12	-44.24883099	-73.98521444	-130.5029049	-58
18212	0	0.378359795	-0.075717926	0.078742027	0.999999046	-0.000144005	6.87E-05	0.000224113	9.458994865	-1.892948151	1.968550682	-0.007200241	0.003433228	0.011205673	-0.626464844	0.020507813	0.755615234	877.98	-44.25642053	-73.97317843	-130.5077732	-59
18213	0	0.378417969	-0.076049805	0.077392578	0.999999046	-0.000598907	0.000222206	0.00030899	9.460449219	-1.901245117	1.934814453	-0.029945376	0.011110307	0.015449525	-0.626464844	0.020263672	0.747070313	878.02	-44.29795141	-73.94168216	-130.5315792	-59
18214	0	0.380408287	-0.079492569	0.079174042	0.999999046	-0.00069046	0.00031662	7.25E-05	9.510207176	-1.987314224	1.979351044	-0.034523014	0.015830995	0.003623963	-0.62890625	0.020507813	0.755615234	878.06	-44.25694574	-73.921145	-130.6521044	-58
18215	0	0.377563477	-0.077209473	0.080505371	0.999999046	-0.000267029	0.000405312	0.000202179	9.439086914	-1.930236816	2.012634277	-0.013351441	0.02026558	0.010108948	-0.631103516	0.018310547	0.753173828	877.96	-44.18011201	-73.88271291	-130.759712	-59
18216	0	0.378079414	-0.075879097	0.078512192	0.999999046	2.57E-05	0.00041008	0.000408173	9.451985359	-1.896977425	1.962804794	0.00128746	0.020503999	0.020408632	-0.631103516	0.020507813	0.752929688	878.12	-44.12754703	-73.82734659	-130.8069382	-58
18217	0	0.379577637	-0.077453613	0.078796387	0.999999046	0.000411987	0.000622749	0.000480652	9.489440918	-1.936340332	1.969909668	0.020599368	0.031137471	0.024032596	-0.631103516	0.018310547	0.750244141	878.02	-43.9938242	-73.74858436	-130.8929521	-59
18218	0	0.377698898	-0.074640274	0.078472137	0.999999046	0.000701904	0.000593185	0.000419617	9.442472458	-1.866006851	1.961803436	0.035095221	0.029659276	0.020980839	-0.631347656	0.022705078	0.75	878.08	-43.81886759	-73.67707679	-130.986972	-58
18219	0	0.378601074	-0.075073242	0.077026367	0.999999046	-0.00025177	0.000454903	0.000217438	9.465026855	-1.876831055	1.92565918	-0.012588502	0.022745134	0.010871888	-0.633544922	0.022705078	0.752929688	878.12	-43.73478454	-73.63308047	-131.1002922	-58
18220	0	0.376176834	-0.076802254	0.078305244	0.999999046	-0.000422478	0.000263214	2.57E-05	9.404420853	-1.920056343	1.957631111	-0.021123887	0.013160706	0.00128746	-0.633544922	0.022705078	0.744384766	878.02	-43.6687017	-73.6200701	-131.2153227	-58
18221	0	0.377807617	-0.078552246	0.079040527	0.999999046	-0.000423431	2.38E-05	-4.96E-05	9.44519043	-1.963806152	1.976013184	-0.02117157	0.001192093	-0.002479553	-0.633300781	0.020507813	0.744384766	878.02	-43.64654121	-73.63275365	-131.2848713	-58
18222	0	0.378543854	-0.078949928	0.08033371	0.999999046	-0.000236511	-6.10E-05	-0.000142097	9.463596344	-1.973748207	2.008342743	-0.011825562	-0.003051758	-0.007104874	-0.635742188	0.020751953	0.747558594	877.96	-43.60003853	-73.65964281	-131.3574022	-58
18223	0	0.37689209	-0.079650879	0.081481934	0.999999046	0.000270844	-0.000163078	-1.14E-05	9.422302246	-1.991271973	2.03704834	0.013542176	-0.008153916	-0.000572205	-0.633544922	0.020507813	0.750244141	877.98	-43.56018058	-73.6844354	-131.3624752	-58
18224	0	0.376126289	-0.07923317	0.08079052	0.999999046	0.001030922	-0.000164032	0.000201225	9.403157234	-1.980829239	2.019762993	0.051546107	-0.008201601	0.010061266	-0.633544922	0.020507813	0.750244141	878.08	-43.4942516	-73.69231844	-131.3041569	-58
18225	0	0.37713623	-0.077758789	0.080749512	0.999998093	0.001626015	-0.000205994	0.000301361	9.428405762	-1.943969727	2.018737793	0.081300773	-0.010299687	0.015068061	-0.631347656	0.022705078	0.75	877.98	-43.40019691	-73.69569179	-131.2040647	-58
18226	0	0.377977371	-0.076018333	0.079924583	0.999998093	0.001515388	-0.00020504	0.000301361	9.44943428	-1.900458336	1.998114586	0.075769455	-0.010252003	0.01506806	-0.633789063	0.027099609	0.752441406	877.98	-43.31876784	-73.69900044	-131.1038841	-58
18227	0	0.378540039	-0.076293945	0.079467773	0.999999046	0.000766754	-0.000346184	0.000141144	9.463500977	-1.907348633	1.986694336	0.038337712	-0.017309191	0.007057191	-0.631347656	0.027099609	0.746582031	877.98	-43.3157877	-73.72667768	-131.0115335	-58
18228	0	0.379061699	-0.078169823	0.080544472	0.999999046	0.00109005	-0.000360489	-0.000409126	9.476542473	-1.954245567	2.013611794	0.054502501	-0.018024449	-0.020456319	-0.634033203	0.031494141	0.746337891	877.98	-43.12237919	-73.79865457	-131.0787399	-58
18229	0	0.37677002	-0.074157715	0.080871582	0.999999046	0.00107193	-0.00026989	-0.000259399	9.419250488	-1.853942871	2.021789551	0.053596508	-0.013494494	-0.012969973	-0.629150391	0.029296875	0.752197266	877.96	-42.94869495	-73.85122142	-131.1278368	-58
18230	0	0.377523422	-0.075928688	0.079303741	0.999999046	0.000812531	-0.000305176	-0.000175476	9.438085556	-1.898217201	1.982593536	0.040626531	-0.015258791	-0.008773805	-0.631591797	0.031494141	0.751953125	878.02	-42.83842165	-73.90011057	-131.1417748	-58
18231	0	0.378173828	-0.077392578	0.082214355	0.999999046	0.000713348	-0.000273705	-0.000312805	9.454345703	-1.934814453	2.055358887	0.035667423	-0.013685228	-0.015640261	-0.629394531	0.031494141	0.754882813	877.92	-42.69074494	-73.95680553	-131.2065164	-58
18232	0	0.377838135	-0.076431274	0.080833435	0.999999046	0.000901222	-0.000413895	-0.000404358	9.445953369	-1.91078186	2.020835876	0.04506112	-0.020694737	-0.020217899	-0.631835938	0.035888672	0.751708984	878.06	-42.53209225	-74.03221961	-131.2600614	-58
18233	0	0.376953125	-0.076599121	0.079589844	0.999999046	0.000659943	-0.000342369	-0.000202179	9.423828125	-1.914978027	1.989746094	0.032997135	-0.017118456	-0.010108949	-0.631835938	0.033691406	0.754638672	878.08	-42.44130738	-74.08575433	-131.2721697	-58
18234	0	0.378199577	-0.07774353	0.080775261	0.999999046	0.000743866	-0.000263214	2.57E-05	9.454989433	-1.943588257	2.019381523	0.037193302	-0.013160707	0.00128746	-0.626953125	0.033447266	0.748779297	877.98	-42.38746327	-74.11473837	-131.2359142	-58
18235	0	0.37878418	-0.077331543	0.080688477	0.999999046	0.001228333	-2.19E-05	0.000110626	9.469604492	-1.933288574	2.017211914	0.061416642	-0.001096726	0.005531312	-0.629638672	0.035888672	0.754394531	878.14	-42.2383935	-74.11653524	-131.2409049	-58
18236	0	0.378221512	-0.074838638	0.080183029	0.999998093	0.001667023	1.43E-05	9.06E-05	9.455537796	-1.870965958	2.004575729	0.083351174	0.000715256	0.004529955	-0.629638672	0.040283203	0.754150391	878.02	-42.02358457	-74.11667529	-131.2618434	-58
18237	0	0.377563477	-0.073486328	0.080627441	0.999998093	0.001423836	-3.05E-05	-9.54E-05	9.439086914	-1.837158203	2.015686035	0.071191812	-0.001525879	-0.004768373	-0.629638672	0.042480469	0.748291016	878.08	-41.79306782	-74.13475901	-131.3281789	-58
18238	0	0.375933647	-0.074408531	0.080022812	0.999999046	0.000940323	0.000165939	-0.000134468	9.398341179	-1.86021328	2.000570297	0.047016151	0.008296968	-0.006723405	-0.629638672	0.042480469	0.748291016	877.98	-41.55362714	-74.1388061	-131.4615463	-58
18239	0	0.377502441	-0.073120117	0.078918457	0.999999046	0.001285553	1.24E-05	2.67E-05	9.437561035	-1.82800293	1.972961426	0.064277667	0.000619888	0.001335144	-0.629882813	0.044677734	0.748046875	878.08	-41.36472412	-74.14365745	-131.5012166	-58
18240	0	0.378351212	-0.070926666	0.077888489	0.999999046	0.000695229	0.000137329	0.000224113	9.458780289	-1.773166656	1.947212219	0.034761432	0.006866456	0.011205674	-0.627441406	0.046630859	0.747802734	878.18	-41.27029841	-74.12289825	-131.5129066	-58
18241	0	0.381347656	-0.073791504	0.077148438	0.999999046	0.000190735	-3.72E-05	3.81E-06	9.533691406	-1.844787598	1.928710938	0.009536743	-0.001859665	0.000190735	-0.629882813	0.044677734	0.753662109	877.98	-41.21424404	-74.13389916	-131.5450972	-58
18242	0	0.376286507	-0.071689606	0.07903862	0.999999046	-0.000497818	-8.20E-05	-1.14E-05	9.407162666	-1.792240143	1.9759655	-0.024890901	-0.0041008	-0.000572205	-0.629882813	0.046875	0.747802734	877.98	-41.24466144	-74.14991954	-131.5691178	-58
18243	0	0.375610352	-0.07598877	0.079650879	0.999999046	-0.000629425	-0.00014782	9.54E-05	9.390258789	-1.899719238	1.991271973	-0.031471255	-0.007390976	0.004768372	-0.629882813	0.044677734	0.750976563	877.96	-41.34097088	-74.16336207	-131.5405731	-58
18244	0	0.379647255	-0.076834679	0.080539703	0.999999046	6.68E-06	-0.000247955	-3.15E-05	9.491181374	-1.920866966	2.013492584	0.000333786	-0.012397766	-0.001573563	-0.629882813	0.044677734	0.750976563	878.08	-41.35350624	-74.19483555	-131.5233801	-58
18245	0	0.377807617	-0.07244873	0.080871582	0.999999046	0.000175476	0.000103951	0.000370026	9.44519043	-1.811218262	2.021789551	0.008773804	0.005197525	0.018501282	-0.629882813	0.046875	0.747802734	878.06	-41.37464409	-74.16555909	-131.4770282	-58
18246	0	0.378834724	-0.074654579	0.079327583	0.999999046	-7.06E-05	1.53E-05	0.000601768	9.470868111	-1.866364479	1.983189583	-0.003528595	0.000762939	0.030088427	-0.627685547	0.046630859	0.750488281	878.06	-41.51809878	-74.12623743	-131.3329558	-58
18247	0	0.378662109	-0.074951172	0.080688477	0.999999046	-0.000110626	2.77E-05	0.000465393	9.466552734	-1.873779297	2.017211914	-0.005531311	0.001382828	0.023269654	-0.632324219	0.049072266	0.747802734	878.02	-41.62153516	-74.09602319	-131.2351883	-58
18248	0	0.378648758	-0.074894905	0.080996513	0.999999046	-8.11E-05	-8.20E-05	0.00051403	9.466218948	-1.872372627	2.024912834	-0.004053116	-0.0041008	0.025701524	-0.632324219	0.046875	0.750732422	877.98	-41.76538996	-74.07131728	-131.0921486	-58
18249	0	0.378967285	-0.074707031	0.081237793	0.999999046	0.000492096	5.82E-05	0.000171661	9.474182129	-1.867675781	2.030944824	0.024604798	0.002908707	0.008583069	-0.629882813	0.046875	0.747802734	877.98	-41.70352188	-74.06061376	-131.0947	-58
18250	0	0.378627777	-0.071462631	0.080313683	0.999999046	0.000162125	-5.15E-05	2.67E-05	9.465694427	-1.786565781	2.007842064	0.008106232	-0.002574921	0.001335144	-0.629882813	0.049072266	0.747558594	877.92	-41.66518076	-74.07038751	-131.1118708	-58
18251	0	0.377868652	-0.072143555	0.08026123	0.999999046	-0.000770569	3.15E-05	-0.000148773	9.446716309	-1.803588867	2.006530762	-0.038528446	0.001573563	-0.00743866	-0.629882813	0.046875	0.753662109	878	-41.65885451	-74.0864334	-131.2069981	-58
18252	0	0.377031326	-0.07508564	0.080472946	0.999999046	-0.000882149	8.58E-05	-0.000125885	9.425783157	-1.877140999	2.011823654	-0.044107443	0.004291535	-0.006294251	-0.629882813	0.044677734	0.748046875	878.06	-41.65795535	-74.09596944	-131.3098683	-58
18253	0	0.378356934	-0.075805664	0.080505371	0.999999046	-0.000431061	-0.000155449	-9.16E-05	9.45892334	-1.895141602	2.012634277	-0.02155304	-0.007772446	-0.004577637	-0.629882813	0.044677734	0.748046875	878.06	-41.68060671	-74.12343099	-131.3344306	-58
18254	0	0.380348206	-0.074584007	0.079344749	0.999999046	-0.000177383	-0.000125885	-0.000229836	9.508705139	-1.864600182	1.983618736	-0.008869171	-0.006294251	-0.011491776	-0.629638672	0.042480469	0.748291016	878.02	-41.62492093	-74.15887684	-131.4103762	-58
18255	0	0.379394531	-0.072509766	0.081298828	0.999999046	-0.000339508	-6.01E-05	-0.000522614	9.484863281	-1.812744141	2.032470703	-0.016975404	-0.003004074	-0.026130678	-0.629882813	0.042480469	0.750976563	878.06	-41.48097321	-74.21085438	-131.597176	-58
18256	0	0.376916885	-0.073270798	0.08254528	0.999999046	-0.000706673	7.44E-05	-0.000415802	9.422922134	-1.831769943	2.063632011	-0.035333637	0.00371933	-0.020790102	-0.627197266	0.040039063	0.745361328	878.02	-41.37448037	-74.24290154	-131.7888165	-58
18257	0	0.377624512	-0.074829102	0.080810547	0.999999046	-0.000427246	9.63E-05	-0.000427246	9.440612793	-1.870727539	2.020263672	-0.021362306	0.004816056	-0.021362306	-0.629638672	0.038085938	0.748535156	878.08	-41.22632386	-74.27366033	-131.9905473	-58
18258	0	0.377977371	-0.074149132	0.081733704	0.999999046	-0.000169754	0.000261307	-0.000141144	9.44943428	-1.853728294	2.04334259	-0.008487702	0.013065338	-0.00705719	-0.632080078	0.038085938	0.754394531	878.06	-41.09189511	-74.26830817	-132.1472907	-58
18259	0	0.378845215	-0.073974609	0.079956055	0.999999046	-0.000137329	0.000306129	0.000167847	9.471130371	-1.849365234	1.998901367	-0.006866455	0.015306473	0.008392334	-0.629638672	0.038085938	0.748535156	878	-41.03712495	-74.23567955	-132.2174221	-58
18260	0	0.37748909	-0.074672699	0.079555511	0.999999046	-0.000113487	0.00031662	-3.81E-06	9.437227249	-1.866817474	1.988887787	-0.005674362	0.015830994	-0.000190735	-0.629638672	0.040283203	0.745605469	878.02	-40.925156	-74.21492935	-132.344019	-58
18261	0	0.37689209	-0.072692871	0.079711914	0.999999046	-0.000530243	8.11E-05	-1.14E-05	9.422302246	-1.817321777	1.992797852	-0.026512147	0.004053116	-0.000572205	-0.631835938	0.035888672	0.748779297	878.02	-40.92163532	-74.21508545	-132.4079981	-59
18262	0	0.378650665	-0.073746681	0.080731392	0.999999046	-0.000648499	7.63E-05	-2.38E-05	9.466266632	-1.84366703	2.018284798	-0.032424929	0.003814698	-0.001192093	-0.634033203	0.035888672	0.74609375	878.06	-40.92947634	-74.21651345	-132.4741029	-58
18263	0	0.377868652	-0.07434082	0.081054688	0.999999046	-0.000495911	-0.000102043	-9.16E-05	9.446716309	-1.858520508	2.026367188	-0.024795533	-0.005102158	-0.004577637	-0.631835938	0.035888672	0.751708984	878.06	-40.94681804	-74.23835376	-132.5120399	-58
18264	0	0.378020287	-0.074597359	0.081939697	0.999999046	0.000189781	-1.53E-05	-0.000157356	9.450507164	-1.864933968	2.048492432	0.00948906	-0.000762939	-0.007867813	-0.634033203	0.033691406	0.749023438	878.02	-40.84246995	-74.25744515	-132.5950797	-58
18265	0	0.37701416	-0.071838379	0.080627441	0.999999046	0.000732422	-7.53E-05	-3.05E-05	9.425354004	-1.795959473	2.015686035	0.036621097	-0.003767014	-0.001525879	-0.634033203	0.035888672	0.749023438	878.02	-40.73081744	-74.27217273	-132.620905	-58
18266	0	0.377335548	-0.071086884	0.080734253	0.999999046	0.000110626	-9.16E-05	8.01E-05	9.43338871	-1.777172089	2.018356323	0.005531311	-0.004577637	0.004005432	-0.634033203	0.035888672	0.749023438	878.08	-40.72876265	-74.28001046	-132.6069239	-59
18267	0	0.378173828	-0.073791504	0.078979492	0.999999046	3.43E-05	-0.000243187	0.000114441	9.454345703	-1.844787598	1.974487305	0.001716614	-0.012159348	0.005722046	-0.631835938	0.035888672	0.74609375	878.06	-40.78700335	-74.29840998	-132.5394142	-59
18268	0	0.380941391	-0.074117661	0.079408646	0.999999046	0.000174522	-0.000314713	-0.000157356	9.523534775	-1.852941513	1.985216141	0.00872612	-0.015735627	-0.007867813	-0.634033203	0.035888672	0.749023438	878.02	-40.76494383	-74.34332798	-132.5386917	-59
18269	0	0.377990723	-0.071472168	0.081237793	0.999999046	-0.000297546	-0.000159264	-0.000137329	9.449768066	-1.786804199	2.030944824	-0.01487732	-0.007963181	-0.006866455	-0.631591797	0.033691406	0.749023438	878.02	-40.76155863	-74.37319297	-132.5748279	-59
18270	0	0.377929688	-0.071899414	0.079711914	0.999999046	-0.000156403	-0.000289917	0.000179291	9.448242188	-1.797485352	1.992797852	-0.00782013	-0.01449585	0.008964539	-0.634277344	0.038085938	0.745849609	877.96	-40.87548339	-74.39065416	-132.4719992	-59
18271	0	0.380371094	-0.073547363	0.080688477	0.999999046	9.92E-05	-6.39E-05	3.05E-05	9.509277344	-1.838684082	2.017211914	0.004959106	-0.003194809	0.001525879	-0.629394531	0.033691406	0.748779297	878.08	-40.85369298	-74.39956833	-132.4801408	-59
18272	0	0.377202988	-0.070259094	0.080225945	0.999999046	0.000124931	-6.68E-05	3.34E-05	9.430074692	-1.756477356	2.005648613	0.006246567	-0.00333786	0.00166893	-0.631835938	0.035888672	0.748779297	878	-40.83044294	-74.40850371	-132.486492	-59
18273	0	0.378356934	-0.074035645	0.079345703	0.999999046	0.000110626	-0.000109673	9.92E-05	9.45892334	-1.850891113	1.983642578	0.005531311	-0.005483627	0.004959106	-0.631835938	0.035888672	0.74609375	878.06	-40.84132508	-74.41614025	-132.4592042	-59
18274	0	0.378603935	-0.071591377	0.079460144	0.999999046	0.000173569	-7.06E-05	2.96E-05	9.465098381	-1.789784431	1.986503601	0.008678436	-0.003528595	0.001478195	-0.629394531	0.033691406	0.751708984	877.96	-40.81298202	-74.42559244	-132.4653	-59
18275	0	0.379272461	-0.070739746	0.079406738	0.999999046	-0.000534058	-4.48E-05	0.000217438	9.481811523	-1.768493652	1.985168457	-0.026702882	-0.002241135	0.010871888	-0.631835938	0.035888672	0.748779297	878.08	-40.91725415	-74.41875609	-132.4176341	-59
18276	0	0.378698349	-0.073493004	0.079903603	0.999999046	-0.000515938	-2.67E-05	9.54E-05	9.467458725	-1.837325096	1.997590065	-0.025796891	-0.001335144	0.004768372	-0.634277344	0.035888672	0.751708984	878.02	-40.97696898	-74.41941493	-132.4141258	-59
18277	0	0.379211426	-0.073730469	0.080383301	0.999999046	-0.000160217	4.67E-05	6.10E-05	9.480285645	-1.843261719	2.00958252	-0.008010864	0.002336502	0.003051758	-0.629394531	0.033691406	0.74609375	878.06	-40.96576021	-74.41619601	-132.4421111	-60
18278	0	0.379133224	-0.072887421	0.080149651	0.999999046	-6.68E-05	-5.91E-05	0.000105858	9.478330612	-1.822185516	2.003741264	-0.00333786	-0.00295639	0.005292892	-0.631591797	0.033691406	0.74609375	877.98	-40.98644551	-74.41870254	-132.425866	-60
18279	0	0.37890625	-0.07220459	0.080383301	0.999999046	4.96E-05	7.34E-05	0.000247955	9.47265625	-1.805114746	2.00958252	0.002479553	0.003671646	0.012397766	-0.631591797	0.033691406	0.74609375	878.08	-41.00215906	-74.39900594	-132.4009334	-60
18280	0	0.378125191	-0.073117256	0.079956055	0.999999046	0.000126839	0.000200272	0.000281334	9.453129768	-1.827931404	1.998901367	0.006341934	0.010013581	0.014066696	-0.634033203	0.033691406	0.749023438	878.02	-40.98540928	-74.36575821	-132.4005598	-60
18281	0	0.378540039	-0.074401855	0.080078125	0.999999046	0.000442505	0.000161171	0.000423431	9.463500977	-1.860046387	2.001953125	0.022125246	0.008058549	0.021171571	-0.634033203	0.035888672	0.749023438	878.02	-40.98722863	-74.32511325	-132.3432261	-59
18282	0	0.382112503	-0.075510025	0.07929039	0.999999046	0.000961304	0.000150681	0.000190735	9.552812576	-1.887750626	1.98225975	0.048065193	0.007534028	0.009536745	-0.634277344	0.038085938	0.745849609	878.06	-40.86131584	-74.30281848	-132.3568416	-60
18283	0	0.377807617	-0.071838379	0.08013916	0.999998093	0.001473427	0.000171661	0.0001297	9.44519043	-1.795959473	2.003479004	0.073671368	0.008583072	0.006484988	-0.631835938	0.038085938	0.742919922	878.06	-40.65254687	-74.28324863	-132.3957648	-60
18284	0	0.377212524	-0.06999588	0.07901001	0.999999046	0.001193047	0.000148773	0.000414848	9.43031311	-1.749897003	1.975250244	0.059652345	0.007438662	0.020742422	-0.634521484	0.042480469	0.751220703	878.06	-40.5701973	-74.2444657	-132.3364824	-60
18285	0	0.379455566	-0.072387695	0.080505371	0.999999046	0.000602722	0.000222206	0.000419617	9.48638916	-1.809692383	2.012634277	0.030136111	0.011110307	0.020980837	-0.632080078	0.042480469	0.751220703	878.06	-40.53772264	-74.19895284	-132.2958015	-60
18286	0	0.377467155	-0.071142197	0.081062317	0.999999046	0.00034523	0.000137329	0.000308037	9.436678886	-1.778554916	2.026557922	0.017261506	0.006866455	0.015401841	-0.634521484	0.044677734	0.748291016	877.98	-40.52264028	-74.16915944	-132.2676153	-60
18287	0	0.377685547	-0.074584961	0.08013916	0.999999046	0.000995636	-2.57E-05	0.000396729	9.442138672	-1.864624023	2.003479004	0.049781809	-0.001287461	0.01983643	-0.632080078	0.044677734	0.748046875	878.02	-40.50354616	-74.14692169	-132.1663168	-60
18288	0	0.377877235	-0.07143116	0.07958889	0.999999046	0.000954628	-5.72E-06	0.000144005	9.446930885	-1.785778999	1.989722252	0.047731407	-0.000286102	0.007200242	-0.634521484	0.046875	0.745117188	877.96	-40.40643845	-74.14183765	-132.1509327	-60
18289	0	0.379089355	-0.071044922	0.080322266	0.999999046	0.000366211	-0.000189781	0.000179291	9.477233887	-1.776123047	2.008056641	0.018310547	-0.00948906	0.008964539	-0.632324219	0.049072266	0.747802734	877.96	-40.43578387	-74.15027641	-132.0740114	-60
18290	0	0.379887581	-0.072403908	0.080779076	0.999999046	0.000371933	-0.000112534	3.72E-05	9.497189522	-1.810097694	2.019476891	0.01859665	-0.005626679	0.001859665	-0.634521484	0.049072266	0.745117188	878.08	-40.40076713	-74.16256577	-132.0634926	-60
18291	0	0.378479004	-0.070678711	0.081054688	0.999999046	0.000282288	-6.01E-05	-0.000102997	9.461975098	-1.766967773	2.026367188	0.01411438	-0.003004074	-0.005149841	-0.632324219	0.049072266	0.741943359	878.02	-40.31896036	-74.18073352	-132.1122576	-60
18292	0	0.378502846	-0.070738792	0.081414223	0.999999046	0.000464439	-5.72E-06	-0.000222206	9.462571144	-1.76846981	2.035355568	0.023221971	-0.000286102	-0.011110306	-0.632324219	0.051269531	0.747558594	877.96	-40.16491799	-74.20297322	-132.2142209	-60
18293	0	0.379272461	-0.071472168	0.081604004	0.999999046	0.000263214	6.20E-05	-0.000297546	9.481811523	-1.786804199	2.040100098	0.013160706	0.003099442	-0.01487732	-0.632324219	0.051269531	0.747558594	878.02	-39.99254584	-74.22475572	-132.3592738	-60
18294	0	0.376740456	-0.07022953	0.080892563	0.999999046	0.000333786	6.87E-05	-6.48E-05	9.418511391	-1.755738258	2.022314072	0.016689301	0.003433228	-0.003242493	-0.629882813	0.051025391	0.739013672	878.06	-39.88240388	-74.22876099	-132.4313233	-60
18295	0	0.37689209	-0.071289063	0.081542969	0.999999046	2.29E-05	-1.05E-05	-0.000148773	9.422302246	-1.782226563	2.038574219	0.001144409	-0.000524521	-0.00743866	-0.634765625	0.051269531	0.741943359	877.92	-39.80234502	-74.24582641	-132.5091635	-60
18296	0	0.377952576	-0.07202816	0.081048965	0.999999046	-0.000124931	-9.35E-05	-0.000190735	9.448814392	-1.800704002	2.026224136	-0.006246567	-0.004673004	-0.009536743	-0.634521484	0.051269531	0.739257813	877.98	-39.74781105	-74.27322422	-132.5780424	-59
18297	0	0.379150391	-0.073913574	0.08190918	0.999999046	-6.87E-05	-9.44E-05	-0.000232697	9.478759766	-1.847839355	2.047729492	-0.003433228	-0.004720688	-0.011634827	-0.632324219	0.049072266	0.744873047	878.06	-39.67417389	-74.30364635	-132.660208	-59
18298	0	0.376024246	-0.068928719	0.082010269	0.999999046	-0.000152588	-0.000162125	-4.96E-05	9.400606155	-1.723217964	2.050256729	-0.007629395	-0.008106232	-0.002479553	-0.632324219	0.049072266	0.741943359	878.06	-39.68485672	-74.3266226	-132.6646837	-59
18299	0	0.377075195	-0.074401855	0.083557129	0.999999046	0	-0.000224113	-0.000274658	9.426879883	-1.860046387	2.088928223	0	-0.011205673	-0.01373291	-0.632324219	0.049072266	0.744873047	878.06	-39.62368577	-74.37129137	-132.7256031	-59
18300	0	0.377031326	-0.074439049	0.082777023	0.999999046	0.000559807	-0.000175476	-0.000470161	9.425783157	-1.860976219	2.069425583	0.027990344	-0.008773805	-0.023508074	-0.629882813	0.046875	0.747802734	877.98	-39.42369759	-74.42566219	-132.8642416	-60
18301	0	0.375610352	-0.069580078	0.080627441	0.999998093	0.000977516	-4.20E-05	-0.001110077	9.390258789	-1.739501953	2.015686035	0.048875827	-0.002098084	-0.055503865	-0.632324219	0.049072266	0.741943359	878.06	-38.93476555	-74.51425625	-133.2528265	-60
18302	0	0.378055573	-0.081161499	0.078557014	0.999996185	-0.002087593	3.91E-05	-0.00144577	9.451389313	-2.029037476	1.963925362	-0.104379766	0.001955034	-0.072288591	-0.634521484	0.046875	0.745117188	878.02	-38.66510116	-74.61874285	-133.7781114	-59
18303	0	0.367736816	-0.077087402	0.076660156	0.999996185	-0.001719475	0.000102997	-0.002098083	9.19342041	-1.927185059	1.916503906	-0.085973845	0.005149848	-0.104904304	-0.632080078	0.042480469	0.742675781	878.02	-38.11757548	-74.76267908	-134.5475874	-60
18304	0	0.378358841	-0.090834618	0.074835777	0.999992371	-0.002700806	2.96E-05	-0.002705574	9.458971024	-2.27086544	1.870894432	-0.135040612	0.001478199	-0.135279031	-0.634033203	0.035888672	0.743164063	877.96	-37.48881299	-74.95337655	-135.5174448	-60
18305	0	0.374084473	-0.077453613	0.070678711	0.999990463	-0.003230095	0.000278473	-0.002872467	9.352111816	-1.936340332	1.766967773	-0.161505251	0.013923689	-0.143623801	-0.633789063	0.027099609	0.743896484	878.08	-36.78199872	-75.12993343	-136.6302993	-60
18306	0	0.359467506	-0.076336861	0.080267906	0.999979019	-0.005753517	0.000252724	-0.002964973	8.98668766	-1.908421516	2.006697655	-0.287677869	0.012636273	-0.148249709	-0.635498047	0.016113281	0.7421875	877.96	-36.32036524	-75.31168258	-137.7877749	-60
18307	0	0.363098145	-0.073120117	0.094604492	0.999993324	-0.001434326	0.000954628	-0.002967834	9.077453613	-1.82800293	2.365112305	-0.071716449	0.047731493	-0.148392015	-0.635253906	0.005126953	0.745849609	878.06	-35.16128353	-75.42309698	-139.154247	-61
18308	0	0.392023087	-0.027908325	0.093193054	0.999959946	-0.007051468	0.000666618	-0.005389214	9.800577164	-0.69770813	2.329826355	-0.35257805	0.033331357	-0.269464236	-0.639404297	-0.003417969	0.743896484	878.14	-33.79415849	-75.71186256	-141.3976464	-61
18309	0	0.420837402	-0.043701172	0.096313477	0.999745369	-0.020900726	0.001633644	-0.008289337	10.52093506	-1.092529297	2.407836914	-1.045124855	0.081689126	-0.414501973	-0.638427734	-0.027587891	0.740234375	877.98	-32.583759	-76.07770414	-145.1113293	-63
18310	0	0.372186661	-0.048726082	0.10375309	0.999685287	-0.023526192	0.002993584	-0.008163452	9.304666519	-1.218152046	2.593827248	-1.176432954	0.149694882	-0.408215415	-0.643554688	-0.071289063	0.73828125	878.06	-31.27651635	-76.28286599	-149.230757	-63
18311	0	0.391540527	-0.082885742	0.10748291	0.999739647	-0.020153046	0.002511024	-0.010391235	9.788513184	-2.072143555	2.687072754	-1.007739705	0.125562116	-0.519606844	-0.645996094	-0.117431641	0.725097656	877.96	-28.67125412	-76.62836395	-154.2839049	-63
18312	0	0.38109684	-0.087018013	0.100986481	0.999760628	-0.016783714	0.003406525	-0.013552666	9.527420998	-2.175450325	2.524662018	-0.83925244	0.170339776	-0.677687166	-0.646484375	-0.156982422	0.716796875	878.14	-23.89029017	-76.9640922	-161.1680594	-64
18313	0	0.34576416	-0.087524414	0.097106934	0.999796867	-0.012687683	0.003209114	-0.01530838	8.644104004	-2.188110352	2.42767334	-0.63442705	0.160466553	-0.765470761	-0.654052734	-0.198486328	0.709228516	878.02	-17.58788185	-77.23732062	-169.1238948	-62
18314	0	0.355128288	-0.089138985	0.098719597	0.999833107	-0.009410858	0.001728058	-0.015536308	8.878207207	-2.228474617	2.467989922	-0.470569021	0.086407688	-0.776858525	-0.65234375	-0.233642578	0.703369141	877.92	-10.74575746	-77.47518167	-177.2407399	-60
18315	0	0.356628418	-0.094421387	0.104125977	0.999871254	-0.007034302	0.000641823	-0.014389038	8.915710449	-2.360534668	2.603149414	-0.351730151	0.032092515	-0.719482717	-0.650878906	-0.264648438	0.694580078	878.08	-4.120239376	-77.60807136	175.1475438	-59
18316	0	0.35430336	-0.099598885	0.100246429	0.999892235	-0.005068779	-0.000141144	-0.013751984	8.857584	-2.489972115	2.506160736	-0.253448025	-0.007057443	-0.687623804	-0.649658203	-0.291015625	0.687988281	878.02	2.441425514	-77.6394029	167.8327721	-61
18317	0	0.359069824	-0.092834473	0.098571777	0.999917984	-0.004221916	-2.67E-05	-0.012020111	8.976745605	-2.320861816	2.464294434	-0.211101521	-0.00133518	-0.601021813	-0.648681641	-0.312988281	0.681152344	878.02	8.120367834	-77.50839589	161.5183447	-66
18318	0	0.37420845	-0.082143784	0.099532127	0.99992466	-0.007652283	7.25E-05	-0.009542465	9.355211258	-2.053594589	2.488303185	-0.382623678	0.003624053	-0.477135159	-0.648193359	-0.328369141	0.685302734	877.96	11.97061154	-77.30389827	156.6751234	-60
18319	0	0.403442383	-0.089355469	0.108398438	0.999921799	-0.010268211	-0.000366211	-0.006999969	10.08605957	-2.233886719	2.709960938	-0.513423795	-0.018311019	-0.350007491	-0.654052734	-0.350097656	0.676025391	878.02	14.17557125	-77.15984591	153.2076497	-65
18320	0	0.411471367	-0.094551086	0.124676704	0.999958038	-0.007959366	-0.000851631	-0.004309654	10.28678417	-2.363777161	3.11691761	-0.397973774	-0.042582145	-0.21548568	-0.657958984	-0.36328125	0.668701172	878.06	15.33288579	-77.12627493	151.0867478	-60
18321	0	0.393615723	-0.089172363	0.137329102	0.999994278	-0.002432823	-0.001682281	-0.001544952	9.840393066	-2.229309082	3.433227539	-0.121641385	-0.084114231	-0.077247763	-0.659912109	-0.369873047	0.663574219	877.96	15.8766539	-77.26203607	150.2381647	-66
18322	0	0.401826859	-0.089493752	0.14426899	0.999994278	0.002778053	-0.001193047	0.001354218	10.04567146	-2.237343788	3.606724739	0.138902918	-0.059652438	0.067711	-0.672119141	-0.360595703	0.660644531	878.02	15.51287765	-77.43204587	150.9364122	-60
18323	0	0.434265137	-0.084411621	0.138000488	0.999979973	0.004505157	-0.000178337	0.004325867	10.85662842	-2.110290527	3.450012207	0.225259339	-0.008916913	0.216294742	-0.682373047	-0.340576172	0.668212891	877.98	13.68307115	-77.57110159	153.3657911	-63
18324	0	0.432600975	-0.078842163	0.126397133	0.999947548	0.0061903	0.002113342	0.007847786	10.81502438	-1.971054077	3.159928322	0.309520384	0.105668952	0.392396124	-0.700195313	-0.311279297	0.666748047	878.02	9.960699023	-77.50898251	157.969918	-59
18325	0	0.349304199	-0.059631348	0.106689453	0.999769211	0.014000893	0.00497818	0.015487671	8.73260498	-1.490783691	2.667236328	0.700098392	0.248928112	0.774443014	-0.720703125	-0.269042969	0.661376953	878.02	3.207748619	-77.12872673	166.5965467	-60
18326	0	0.330187798	-0.053028107	0.083835602	0.999394417	0.024637222	0.005533218	0.023927689	8.254694939	-1.325702667	2.095890045	1.232109705	0.27671675	1.196625861	-0.746826172	-0.197998047	0.6484375	877.96	-5.791843439	-76.4036904	178.7925654	-59
18327	0	0.399658203	-0.058959961	0.066833496	0.999053001	0.031654358	0.00716877	0.028972626	9.991455078	-1.473999023	1.670837402	1.583217617	0.358551664	1.449088672	-0.767333984	-0.100830078	0.635742188	878.02	-14.59414724	-74.96452111	-168.2864518	-58
18328	0	0.483358383	-0.040279388	0.06366539	0.999082565	0.027565002	0.009192467	0.031445503	12.08395958	-1.006984711	1.59163475	1.37867156	0.459763879	1.572755928	-0.783203125	0.007080078	0.610595703	878.06	-22.245408	-72.77667184	-156.9151519	-59
18329	0	0.481567383	-0.011047363	0.062683105	0.999135971	0.016652107	0.012554169	0.035930634	12.03918457	-0.276184082	1.567077637	0.832845048	0.627889137	1.797048854	-0.793457031	0.103759766	0.568847656	878.02	-29.47015471	-69.63530374	-147.201877	-61
18330	0	0.40935421	-0.008700371	0.058956146	0.99907589	0.007202148	0.012434006	0.040505409	10.23385525	-0.21750927	1.473903656	0.360218377	0.621891843	2.025894482	-0.791503906	0.190917969	0.510009766	878.08	-36.33351022	-65.8699608	-138.8661818	-59
18331	0	0.35333252	-0.030456543	0.066162109	0.999141693	0.000969887	0.009700775	0.040241241	8.833312988	-0.761413574	1.654052734	0.048508206	0.485177456	2.012637431	-0.781982422	0.264892578	0.466308594	878.08	-42.12429848	-62.05179969	-132.287166	-58
18332	0	0.30547905	-0.068591118	0.074701309	0.999363899	0.000306129	0.00709343	0.034936905	7.636976242	-1.714777946	1.86753273	0.015309717	0.354746652	1.747215497	-0.762939453	0.327636719	0.422851563	878.02	-46.15734752	-58.64614345	-127.5997351	-59
18333	0	0.273986816	-0.082763672	0.078796387	0.999675751	0.003037453	0.00396347	0.024940491	6.84967041	-2.069091797	1.969909668	0.151889016	0.198194898	1.247159038	-0.738525391	0.376953125	0.391845703	878.08	-48.33189935	-56.21031306	-124.5977915	-57
18334	0	0.276491165	-0.088261604	0.080586433	0.999896049	0.004138947	0.001712799	0.013697624	6.912279129	-2.206540108	2.014660835	0.206954491	0.085642918	0.68490492	-0.722900391	0.404785156	0.365722656	878.06	-49.15472967	-54.87626454	-123.0199155	-60
18335	0	0.293334961	-0.09362793	0.085205078	0.999987602	0.004219055	-0.002108574	0.001396179	7.333374023	-2.340698242	2.130126953	0.210953609	-0.105429121	0.069809241	-0.7109375	0.410888672	0.341552734	878.02	-49.08172565	-54.89307454	-122.5158095	-63
18336	0	0.342828751	-0.105177879	0.097035408	0.999918938	0.004654884	-0.005834579	-0.010228157	8.570718765	-2.629446983	2.425885201	0.232750437	-0.291736769	-0.511421518	-0.710205078	0.399658203	0.322509766	878.06	-48.15065713	-56.1989648	-122.9978724	-61
18337	0	0.404724121	-0.104125977	0.101318359	0.999760628	0.001663208	-0.008528709	-0.020069122	10.11810303	-2.603149414	2.532958984	0.083167031	-0.42646947	-1.003536121	-0.713378906	0.369140625	0.313720703	878.06	-46.65168011	-58.54417746	-124.5524402	-63
18338	0	0.429357529	-0.094098091	0.103722572	0.999528885	-0.006749153	-0.011246681	-0.027737617	10.73393822	-2.352452278	2.593064308	-0.337510627	-0.56242233	-1.387098572	-0.723144531	0.321044922	0.3125	878.02	-45.18408756	-61.72167571	-127.1381617	-58
18339	0	0.46887207	-0.15032959	0.12298584	0.999064445	-0.009349823	-0.017027855	-0.038619995	11.72180176	-3.758239746	3.074645996	-0.467636886	-0.85165816	-1.931601727	-0.732177734	0.253417969	0.327148438	878.02	-42.48455756	-66.19804578	-131.335564	-60
18340	0	0.517286301	-0.150224686	0.121536255	0.998644829	-0.006861687	-0.017969131	-0.048351288	12.93215752	-3.755617142	3.038406372	-0.343239359	-0.898862545	-2.418656778	-0.742919922	0.170654297	0.343261719	878.08	-35.5186429	-71.30238439	-139.6477569	-56
18341	0	0.374206543	-0.04864502	0.101623535	0.998884201	-0.014250755	-0.012153625	-0.04334259	9.355163574	-1.216125488	2.540588379	-0.712802784	-0.607907293	-2.167935549	-0.746582031	0.078613281	0.365234375	878.06	-25.28419355	-75.04296438	-152.0414383	-59
18342	0	0.284034729	-0.041002274	0.093683243	0.999302864	-0.014177322	-0.012962341	-0.031992912	7.100868225	-1.025056839	2.34208107	-0.709030746	-0.648267584	-1.600017116	-0.742919922	-0.011474609	0.378173828	878.06	-14.7576461	-77.71231159	-164.5451028	-56
18343	0	0.411437988	-0.056274414	0.081726074	0.999638557	-0.002254486	-0.013281822	-0.023254395	10.28594971	-1.406860352	2.043151855	-0.112737878	-0.664171077	-1.162859736	-0.730957031	-0.079589844	0.397460938	878.08	-3.01239908	-79.64112827	-176.790609	-57
18344	0	0.437867165	-0.043166161	0.078029633	0.999871254	-0.005236626	-0.008888245	-0.012229919	10.94667912	-1.079154015	1.950740814	-0.261842456	-0.444431195	-0.611522065	-0.719970703	-0.125976563	0.412109375	877.96	4.535428176	-80.64607872	174.9329588	-57
18345	0	0.355041504	-0.044189453	0.087158203	0.999919891	-0.010642052	-0.006305695	-0.002319336	8.876037598	-1.104736328	2.178955078	-0.532116633	-0.315293053	-0.115969859	-0.713867188	-0.161376953	0.417480469	877.98	5.364168711	-81.34460401	172.8517567	-57
18346	0	0.326916695	-0.06500721	0.085752487	0.999909401	-0.012289047	-0.005401611	0.000717163	8.172917366	-1.625180244	2.14381218	-0.61447087	-0.270088702	0.035859234	-0.710449219	-0.187744141	0.419433594	877.96	3.690760329	-81.9683152	173.11249	-57
18347	0	0.339782715	-0.066101074	0.078552246	0.999886513	-0.014778137	-0.002676964	-0.000457764	8.494567871	-1.652526855	1.963806152	-0.738934667	-0.133853227	-0.022889045	-0.713867188	-0.216064453	0.422119141	878.06	2.429642192	-82.27098303	172.6685576	-57
18348	0	0.328480721	-0.043688774	0.080477715	0.999732971	-0.023029327	0.000237465	0.001472473	8.212018013	-1.092219353	2.011942863	-1.151568601	0.011874299	0.073630194	-0.714599609	-0.249267578	0.410644531	878.02	-1.530166779	-82.24288623	173.9930678	-60
18349	0	0.313171387	-0.049804688	0.095581055	0.999771118	-0.021254539	0.000411987	0.002391815	7.829284668	-1.245117188	2.389526367	-1.06280805	0.020600937	0.119599883	-0.722167969	-0.286376953	0.396728516	878.02	-6.031205155	-82.17301233	176.0659629	-58
18350	0	0.334157944	-0.050320625	0.105687141	0.999959946	-0.007370949	-0.000319481	0.004930496	8.353948593	-1.258015633	2.642178535	-0.368552276	-0.015974254	0.246528046	-0.730224609	-0.314697266	0.391113281	878.08	-11.06142879	-82.11705649	-179.7251708	-57
18351	0	0.38293457	-0.051757813	0.104736328	0.999970436	0.004707336	-0.00058651	0.006011963	9.573364258	-1.293945313	2.618408203	0.235369122	-0.029325772	0.300601083	-0.743652344	-0.329589844	0.387207031	878.02	-15.538933	-82.0118662	-174.6788403	-57
18352	0	0.440085411	-0.060646057	0.098176956	0.999964714	0.007660866	-0.000141144	0.003391266	11.00213528	-1.516151428	2.454423904	0.383047772	-0.007057273	0.169565278	-0.755371094	-0.335693359	0.394042969	878.12	-17.42426983	-81.90184392	-171.9043677	-57
18353	0	0.462036133	-0.074584961	0.095947266	0.999986649	0.004929543	0.000999451	0.000606537	11.55090332	-1.864624023	2.398681641	0.246478181	0.049972748	0.030326973	-0.771484375	-0.345947266	0.404541016	878.02	-17.18330577	-81.75403891	-171.5915861	-58
18354	0	0.464599609	-0.075256348	0.090332031	0.999993324	0.002601624	0.002220154	-0.000751495	11.61499023	-1.881408691	2.258300781	0.130081443	0.111007917	-0.037574845	-0.782958984	-0.356445313	0.420166016	878.02	-15.93891473	-81.51533207	-172.5602541	-59
18355	0	0.492797852	-0.085998535	0.088500977	0.999991417	-0.002651215	0.002411842	-0.002071381	12.31994629	-2.149963379	2.212524414	-0.132561109	0.120592462	-0.103569327	-0.796630859	-0.371337891	0.427978516	878.08	-14.37265333	-81.29041169	-174.4633028	-60
18356	0	0.370142937	-0.083605766	0.080256462	0.999967575	0.004030228	0.00682354	0.000847816	9.253573418	-2.090144157	2.006411552	0.201513517	0.341180599	0.042391272	-0.810302734	-0.384033203	0.432617188	878.08	-13.45969624	-80.48675164	-174.9381363	-60
18357	0	0.342895508	-0.059631348	0.06451416	0.999659538	0.023330688	0.006569862	0.009624481	8.572387695	-1.490783691	1.612854004	1.166666694	0.328530365	0.481278625	-0.829589844	-0.37890625	0.450439453	878.02	-15.86681323	-79.45531272	-169.8105223	-56
18358	0	0.415564537	-0.018828392	0.051194191	0.999264717	0.03194046	0.008457184	0.019431114	10.38911343	-0.470709801	1.279854774	1.597414349	0.422962811	0.971793783	-0.857910156	-0.331542969	0.473876953	878	-21.26587097	-77.79785854	-160.5970202	-54
18359	0	0.440002441	-0.013549805	0.049133301	0.999212265	0.027394295	0.010520935	0.026702881	11.00006104	-0.338745117	1.22833252	1.370074355	0.526184866	1.335494584	-0.891845703	-0.255859375	0.489501953	877.98	-27.77679728	-75.39695693	-150.6910465	-54
18360	0	0.427138329	-0.022580147	0.053641319	0.999328613	0.017990112	0.011927605	0.029597282	10.67845821	-0.56450367	1.341032982	0.899706913	0.596513696	1.480195295	-0.926269531	-0.168945313	0.495605469	878.02	-33.46475229	-72.46184918	-142.6280106	-54
18361	0	0.372375488	-0.042480469	0.055786133	0.999367714	0.008831024	0.013119698	0.03181839	9.309387207	-1.062011719	1.39465332	0.441644173	0.65612299	1.591254447	-0.955322266	-0.084716797	0.481689453	878.08	-38.40391739	-69.07735641	-136.3223562	-55
18362	0	0.303447723	-0.049641609	0.05365181	0.999332428	0.006999016	0.012637138	0.033537865	7.586193085	-1.24104023	1.341295242	0.350028612	0.63199743	1.67726614	-0.979980469	0.001708984	0.470214844	878.08	-42.35816695	-65.46056153	-131.1623785	-55
18363	0	0.267089844	-0.057983398	0.054016113	0.999425888	0.005620003	0.010940552	0.031551361	6.677246094	-1.449584961	1.350402832	0.281053872	0.547132194	1.577869727	-0.997314453	0.08984375	0.446777344	878.08	-45.24740879	-62.03345333	-127.2173936	-54
18364	0	0.280703545	-0.075221062	0.062129974	0.999649048	0.004709244	0.007849693	0.024827957	7.017588615	-1.880526543	1.553249359	0.235489677	0.392530484	1.241542779	-1.005126953	0.171142578	0.426025391	878.06	-47.06152272	-59.3431392	-124.5095994	-54
18365	0	0.348022461	-0.100280762	0.069946289	0.999865532	0.006484985	0.003861427	0.014511108	8.700561523	-2.507019043	1.748657227	0.324263727	0.193079975	0.725587776	-1.012207031	0.232910156	0.415771484	878.08	-47.62846008	-57.8101117	-122.9669771	-56
18366	0	0.432951927	-0.112381935	0.080057144	0.999979973	0.006204605	-0.000602722	2.77E-05	10.82379818	-2.809548378	2.001428604	0.310232264	-0.030136304	0.001382837	-1.016357422	0.274658203	0.406738281	878.02	-47.00075172	-57.85078202	-122.8612952	-57
18367	0	0.469848633	-0.077697754	0.082519531	0.99991703	-0.002696991	-0.003172874	-0.012184143	11.74621582	-1.942443848	2.062988281	-0.134853275	-0.158648107	-0.609223988	-1.023681641	0.283691406	0.412109375	877.98	-46.17330689	-59.11942524	-124.1891493	-57
18368	0	0.399888039	-0.069726944	0.095639229	0.999649048	-0.011823654	-0.009242058	-0.02182579	9.997200966	-1.743173599	2.390980721	-0.591251858	-0.462156941	-1.091417165	-1.032470703	0.260009766	0.423095703	878.06	-45.80515151	-61.66474185	-126.1676461	-57
18369	0	0.466796875	-0.126159668	0.102661133	0.99930954	-0.004065514	-0.016311646	-0.033111572	11.66992188	-3.153991699	2.56652832	-0.203322428	-0.815769836	-1.65595935	-1.037597656	0.203369141	0.453857422	878.08	-43.46062285	-65.6772201	-129.3008592	-56
18370	0	0.432504654	-0.042806625	0.078054428	0.99924469	-0.006548882	-0.011876106	-0.036403656	10.81261635	-1.070165634	1.951360703	-0.327526493	-0.593954772	-1.820640935	-1.037597656	0.131103516	0.491210938	877.92	-38.74266255	-69.46996299	-135.2122836	-57
18371	0	0.323913574	-0.005065918	0.073303223	0.999264717	-0.015773773	-0.014765739	-0.031658173	8.097839355	-0.126647949	1.832580566	-0.788881895	-0.738467859	-1.583296456	-1.036865234	0.052246094	0.514892578	878.02	-34.95364157	-73.02620685	-141.1191916	-55
18372	0	0.421420097	-0.031927109	0.077851295	0.999444008	-0.006316185	-0.016988754	-0.027973175	10.53550243	-0.798177719	1.946282387	-0.315867757	-0.849595081	-1.398917869	-1.020263672	-0.024902344	0.551757813	877.96	-29.49757848	-76.41066785	-147.5225344	-55
18373	0	0.43536377	-0.019836426	0.075378418	0.999679565	-0.003687859	-0.013858795	-0.020816803	10.88409424	-0.495910645	1.884460449	-0.184412573	-0.693013578	-1.040951031	-1.002197266	-0.080078125	0.589599609	878.02	-23.29542842	-78.92036843	-154.3016509	-54
18374	0	0.359818459	-0.030738831	0.08391571	0.999752998	-0.009929657	-0.011281967	-0.016356468	8.995461464	-0.768470764	2.097892761	-0.496523687	-0.564144758	-0.817890679	-0.981933594	-0.122314453	0.612060547	877.96	-16.96631932	-80.80218042	-161.8840962	-56
18375	0	0.322753906	-0.054748535	0.084472656	0.999792099	-0.011717796	-0.009372711	-0.013755798	8.068847656	-1.368713379	2.111816406	-0.585930287	-0.46866793	-0.687837427	-0.963867188	-0.164550781	0.62890625	877.98	-9.532312891	-82.22682436	-170.754993	-54
18376	0	0.32257843	-0.074417114	0.084142685	0.999847412	-0.009115219	-0.007546425	-0.012818336	8.064460754	-1.860427856	2.103567123	-0.455784077	-0.377340385	-0.640949339	-0.950927734	-0.202148438	0.6484375	878.08	0.518555895	-83.216816	178.0625704	-56
18377	0	0.314453125	-0.058532715	0.087219238	0.999897003	-0.007872581	-0.005783081	-0.010478973	7.861328125	-1.463317871	2.180480957	-0.393642539	-0.289163944	-0.523966593	-0.937988281	-0.235351563	0.65625	877.96	10.82015892	-83.76224352	166.7888551	-58
18378	0	0.320796967	-0.049487114	0.093015671	0.999933243	-0.008820534	-0.004187584	-0.006102562	8.019924164	-1.237177849	2.325391769	-0.441036433	-0.209383823	-0.30513484	-0.929931641	-0.261962891	0.669433594	877.98	17.38422813	-84.05517322	159.173614	-57
18379	0	0.356750488	-0.052856445	0.097351074	0.999960899	-0.008014679	-0.003062248	-0.001888275	8.918762207	-1.321411133	2.433776855	-0.400739103	-0.153114381	-0.094414972	-0.924560547	-0.281738281	0.673583984	878.06	19.65574911	-84.31360466	155.9695352	-57
18380	0	0.410364151	-0.060157776	0.104801178	0.999979019	-0.005958557	-0.001954079	0.001535416	10.25910378	-1.503944397	2.620029449	-0.297929926	-0.097704612	0.076771316	-0.924316406	-0.290527344	0.682861328	878.02	18.04151592	-84.57470826	156.9080173	-59
18381	0	0.439086914	-0.06842041	0.112060547	0.99998951	-0.003658295	-0.000254631	0.002563477	10.97717285	-1.710510254	2.801513672	-0.182915344	-0.012731595	0.128174256	-0.926757813	-0.292724609	0.686035156	878.02	14.70324897	-84.67576409	159.8429684	-60
18382	0	0.470952034	-0.082269669	0.10243988	0.999992371	-0.001353264	0.001509666	0.003164291	11.77380085	-2.056741714	2.560997009	-0.067663352	0.0754835	0.158214942	-0.931640625	-0.288085938	0.691650391	877.98	10.32947124	-84.57376516	164.0839148	-58
18383	0	0.458862305	-0.043518066	0.089782715	0.99997139	-0.004786491	0.004001617	0.004264832	11.47155762	-1.08795166	2.244567871	-0.239326848	0.200082776	0.213243607	-0.943847656	-0.278808594	0.694580078	878.02	4.203539514	-84.16637529	169.6942603	-57
18384	0	0.4790411	-0.09224987	0.099354744	0.999931335	-0.010253906	0.004069328	0.003933907	11.97602749	-2.306246758	2.483868599	-0.512707035	0.203471068	0.196699825	-0.955810547	-0.271728516	0.691650391	878.06	-1.412021323	-83.6944555	174.1690633	-57
18385	0	0.370849609	-0.090881348	0.080993652	0.999878883	0.01014328	0.009095192	0.007472992	9.271240234	-2.272033691	2.024841309	0.507184413	0.4547779	0.373664635	-0.972412109	-0.262695313	0.680419922	878.02	-6.826543643	-82.57230108	-179.208005	-55
18386	0	0.432686806	-0.031681061	0.040447235	0.999381065	0.028337479	0.012052536	0.016983986	10.81717014	-0.79202652	1.011180878	1.417166143	0.602751084	0.849374431	-0.995849609	-0.20703125	0.668457031	877.96	-14.97102366	-80.81882934	-167.7031192	-56
18387	0	0.462524414	0.032348633	0.030944824	0.999043465	0.027843475	0.015183449	0.030105591	11.56311035	0.80871582	0.773620605	1.392617822	0.759414589	1.505759673	-1.020751953	-0.107421875	0.650146484	878.02	-25.84463286	-77.9431438	-153.398979	-55
18388	0	0.433804512	0.006340027	0.04359436	0.999053001	0.020695686	0.01568985	0.034889221	10.8451128	0.158500671	1.089859009	1.035110852	0.784740046	1.74501154	-1.046142578	0.009277344	0.610595703	877.98	-33.90830469	-74.35962912	-142.6482765	-54
18389	0	0.392028809	-0.019104004	0.053344727	0.999154091	0.013698578	0.016095161	0.035259247	9.800720215	-0.477600098	1.333618164	0.685121953	0.804984907	1.763459263	-1.057128906	0.121337891	0.564697266	877.9	-39.10455649	-70.45204164	-135.5417572	-56
18390	0	0.337216377	-0.036568642	0.056533813	0.999129295	0.005764008	0.016599655	0.037818909	8.430409431	-0.914216042	1.413345337	0.288283976	0.830223509	1.891493936	-1.0625	0.217773438	0.505615234	878.06	-43.45572316	-66.14809748	-130.1424965	-58
18391	0	0.285705566	-0.055175781	0.05090332	0.999266624	0.006149292	0.015591621	0.034427643	7.14263916	-1.379394531	1.272583008	0.307539782	0.779771696	1.72180306	-1.051513672	0.311279297	0.454345703	878.06	-45.92315441	-62.09447495	-126.6099606	-56
18392	0	0.279780388	-0.059405327	0.05098629	0.999517441	0.006685257	0.013104439	0.027338982	6.994509697	-1.485133171	1.274657249	0.334316567	0.655327239	1.367168763	-1.039794922	0.389404297	0.3984375	878.06	-47.02297119	-58.78540642	-124.4580305	-55
18393	0	0.319702148	-0.06628418	0.055908203	0.999757767	0.004006386	0.010131836	0.019077301	7.992553711	-1.657104492	1.397705078	0.200335408	0.506632557	0.953941798	-1.022705078	0.447998047	0.358398438	878.08	-47.53912738	-56.39408323	-123.296651	-55
18394	0	0.371631622	-0.072669983	0.064432144	0.999936104	0.001831055	0.006723404	0.008874893	9.290790558	-1.816749573	1.610803604	0.091554677	0.336177331	0.443754076	-1.016845703	0.486816406	0.323486328	878.06	-47.48750202	-55.13305094	-123.1002289	-56
18395	0	0.431335449	-0.073974609	0.068359375	0.999984741	-0.003623009	0.002735138	-0.002902985	10.78338623	-1.849365234	1.708984375	-0.181151313	0.136757559	-0.145149933	-1.012207031	0.499755859	0.299316406	878.06	-47.23149882	-55.18318651	-123.9134874	-56
18396	0	0.403762817	-0.061982155	0.075971603	0.999826431	-0.012756348	-0.00215435	-0.013402939	10.09407043	-1.549553871	1.899290085	-0.637854276	-0.107723745	-0.670185706	-1.020996094	0.486816406	0.295166016	878.06	-47.40774088	-56.50505263	-125.4620029	-55
18397	0	0.402404785	-0.13092041	0.10559082	0.999488831	-0.010573387	-0.011867523	-0.027729034	10.06011963	-3.273010254	2.639770508	-0.528759408	-0.593477232	-1.386687881	-1.033447266	0.443359375	0.307861328	877.98	-46.717515	-59.78777854	-127.6955443	-55
18398	0	0.503194809	-0.129622459	0.100520134	0.999176025	-0.004275322	-0.013661385	-0.037974358	12.57987022	-3.240561485	2.513003349	-0.213824819	-0.683256867	-1.899239453	-1.052001953	0.369628906	0.337890625	877.96	-43.50518095	-64.01323588	-131.8852394	-57
18399	0	0.381225586	-0.038452148	0.090454102	0.999154091	-0.014358521	-0.01129818	-0.036830902	9.530639648	-0.961303711	2.261352539	-0.718128435	-0.56506825	-1.842064304	-1.069824219	0.280517578	0.366210938	877.96	-39.98874479	-67.8314116	-137.5321339	-55
18400	0	0.336325645	-0.039853096	0.098548889	0.99926281	-0.01331234	-0.015384674	-0.032550812	8.408141136	-0.9963274	2.463722229	-0.665780558	-0.769422735	-1.62794054	-1.077880859	0.186523438	0.391601563	878.06	-36.47882192	-71.56568764	-142.8971264	-57
18401	0	0.45526123	-0.047668457	0.091064453	0.999465942	-0.004282951	-0.015583038	-0.028396606	11.38153076	-1.191711426	2.276611328	-0.214185688	-0.779290613	-1.420083065	-1.075195313	0.107666016	0.426513672	878.02	-31.207461	-74.90215422	-148.9126917	-57
18402	0	0.41642189	-0.040308952	0.088409424	0.999690056	-0.007146835	-0.01140213	-0.020935059	10.41054726	-1.007723808	2.210235596	-0.357378664	-0.570165373	-1.046861013	-1.070800781	0.046386719	0.454345703	878.02	-25.92700141	-77.23390753	-155.1958767	-56
18403	0	0.321960449	-0.056884766	0.094848633	0.999782562	-0.006937981	-0.010482788	-0.016582489	8.04901123	-1.422119141	2.37121582	-0.346924072	-0.524177237	-0.829184298	-1.059570313	-0.008789063	0.478271484	878.08	-20.4836649	-79.11743276	-161.5690167	-56
18404	0	0.320099831	-0.077717781	0.088567734	0.999843597	-0.003253937	-0.010064125	-0.014133453	8.002495766	-1.942944527	2.214193344	-0.16270529	-0.503232392	-0.706709377	-1.051025391	-0.048339844	0.498291016	878.02	-13.88422499	-80.72198738	-168.6486118	-56
18405	0	0.333007813	-0.088439941	0.086120605	0.999858856	-0.002459526	-0.008975983	-0.013935089	8.325195313	-2.210998535	2.153015137	-0.122982059	-0.44882014	-0.696787068	-1.038330078	-0.083740234	0.517578125	878.14	-4.664387742	-82.01283719	-178.2558411	-57
18406	0	0.312651634	-0.070393562	0.08700943	0.999883652	-0.005352974	-0.007164955	-0.012298584	7.816290855	-1.759839058	2.175235748	-0.267659013	-0.358261566	-0.614952902	-1.032226563	-0.116699219	0.528564453	878.12	5.597093979	-82.83209132	170.7772994	-57
18407	0	0.30871582	-0.066589355	0.085693359	0.999908447	-0.007422447	-0.006195068	-0.009407043	7.717895508	-1.664733887	2.142333984	-0.371133616	-0.309762813	-0.470366439	-1.024169922	-0.149902344	0.542236328	878.08	14.74779698	-83.34152735	160.7061146	-57
18408	0	0.362426758	-0.065490723	0.084899902	0.99994278	-0.007266998	-0.00461483	-0.006240845	9.060668945	-1.637268066	2.122497559	-0.363356761	-0.230745849	-0.312048116	-1.018310547	-0.180664063	0.550292969	877.98	21.47619377	-83.61708882	153.0983282	-55
18409	0	0.431518555	-0.063354492	0.092163086	0.999943733	-0.009738922	-0.003081322	-0.002761841	10.78796387	-1.583862305	2.304077148	-0.486955194	-0.154068961	-0.138094618	-1.012695313	-0.205078125	0.560546875	878.02	24.38289055	-83.81147702	149.0539102	-54
18410	0	0.465960503	-0.071296692	0.105173111	0.999956131	-0.009160042	-0.001664162	-0.000198364	11.64901257	-1.782417297	2.629327774	-0.45800871	-0.083209287	-0.009918356	-1.014160156	-0.226806641	0.565185547	878.08	24.33690119	-83.96706961	148.047017	-56
18411	0	0.47454834	-0.06262207	0.097351074	0.999965668	-0.007521629	0.000720978	0.003185272	11.8637085	-1.565551758	2.433776855	-0.376085681	0.036049293	0.159265396	-1.013671875	-0.237792969	0.563232422	877.98	19.99895243	-84.01912842	151.5447652	-56
18412	0	0.481287956	-0.044539452	0.091182709	0.999940872	-0.00904274	0.001439095	0.005832672	12.03219891	-1.11348629	2.279567719	-0.452145876	0.071956141	0.291639335	-1.015869141	-0.2421875	0.560791016	877.98	12.39195089	-84.03737223	158.1539985	-56
18413	0	0.460083008	-0.031494141	0.073608398	0.999880791	-0.01096344	0.007554054	0.007797241	11.5020752	-0.787353516	1.840209961	-0.548193749	0.3777177	0.38987753	-1.018310547	-0.244384766	0.569824219	878.06	2.166872716	-83.27923788	167.1808024	-57
18414	0	0.34343338	-0.007409096	0.059609413	0.999871254	-0.003520966	0.008003235	0.013402939	8.585834503	-0.185227394	1.490235329	-0.176055794	0.400178825	0.670175548	-1.032226563	-0.239501953	0.552978516	878.06	-9.82537251	-82.24546836	178.862867	-58
18415	0	0.366638184	0.004211426	0.053588867	0.999710083	0.01189518	0.008434296	0.019153595	9.16595459	0.105285645	1.33972168	0.594816446	0.421755523	0.957772267	-1.047363281	-0.210693359	0.542724609	878.06	-20.87258921	-80.71324069	-168.5901267	-56
18416	0	0.441549301	0.008739471	0.050878525	0.999535561	0.01875782	0.007375717	0.022817612	11.03873253	0.218486786	1.27196312	0.938035956	0.368842853	1.141056905	-1.064208984	-0.1484375	0.550048828	877.98	-29.77850006	-78.81426071	-157.3554894	-54
18417	0	0.470214844	-0.011352539	0.05670166	0.999480247	0.021278381	0.008610725	0.022632599	11.75537109	-0.283813477	1.417541504	1.064103415	0.43061087	1.131826024	-1.071777344	-0.080322266	0.550537109	878.08	-34.92129567	-76.58357966	-149.5937243	-56
18418	0	0.372724533	-0.013352394	0.062541008	0.999480247	0.018550873	0.009502411	0.024552345	9.318113327	-0.333809853	1.5635252	0.927704064	0.475202719	1.227829587	-1.083984375	-0.007568359	0.536621094	878.02	-38.83606014	-74.018625	-143.3451856	-60
18419	0	0.281433105	-0.054077148	0.05670166	0.99944973	0.020751953	0.007935524	0.024608612	7.035827637	-1.351928711	1.417541504	1.037787838	0.396848925	1.230656129	-1.091796875	0.062988281	0.534179688	878.06	-41.47201689	-71.50193495	-138.0912731	-60
18420	0	0.275222778	-0.07228756	0.046646118	0.999360085	0.027337074	0.006507874	0.022128105	6.880569458	-1.807188988	1.166152954	1.367145323	0.325463097	1.106641302	-1.096923828	0.135498047	0.522705078	878.08	-42.20694396	-69.25396224	-133.9809286	-59
18421	0	0.320861816	-0.071655273	0.041931152	0.999443054	0.026967049	0.006500244	0.018543243	8.02154541	-1.791381836	1.048278809	1.34860275	0.325072545	0.927334296	-1.099853516	0.205810547	0.514160156	878.02	-41.79702025	-67.28068257	-131.0913707	-60
18422	0	0.354506493	-0.065184593	0.039396286	0.999676704	0.021022797	0.006845474	0.012503624	8.862662315	-1.62961483	0.98490715	1.05125289	0.342310526	0.625248441	-1.102294922	0.267333984	0.512207031	877.96	-40.65234015	-65.75266118	-129.7089429	-60
18423	0	0.405212402	-0.052612305	0.041931152	0.999937057	0.008023262	0.005672455	0.005332947	10.13031006	-1.315307617	1.048278809	0.401171459	0.28362865	0.266652894	-1.108398438	0.3046875	0.503662109	878.02	-39.81101267	-64.87333504	-129.6197394	-59
18424	0	0.461979866	-0.040008545	0.042169571	0.999948502	-0.009237289	0.003447533	-0.001998901	11.54949665	-1.000213623	1.054239273	-0.461872263	0.17237954	-0.099946754	-1.123291016	0.314208984	0.518066406	878.06	-39.93447791	-64.73583947	-130.6499841	-64
18425	0	0.433166504	-0.043212891	0.061584473	0.999725342	-0.021048546	-0.002593994	-0.009918213	10.8291626	-1.080322266	1.539611816	-1.052523462	-0.129711559	-0.495955961	-1.134765625	0.29296875	0.5546875	878.18	-40.86326652	-65.72365963	-132.2796989	-66
18426	0	0.538743973	-0.09718895	0.079208374	0.999559402	-0.016818047	-0.011349678	-0.021656036	13.46859932	-2.42972374	1.980209351	-0.8410258	-0.567567227	-1.082960809	-1.142578125	0.238769531	0.60546875	878.02	-40.31283954	-68.35684554	-134.9668728	-67
18427	0	0.449157715	-0.026306152	0.077575684	0.999475479	-0.017645836	-0.008651733	-0.025730133	11.22894287	-0.657653809	1.93939209	-0.882446013	-0.432662283	-1.286731526	-1.145263672	0.166748047	0.66015625	878.06	-37.79478355	-71.02098824	-139.8024652	-67
18428	0	0.229369164	-0.006178856	0.09767437	0.999544144	-0.011501312	-0.01589489	-0.022948265	5.734229088	-0.154471397	2.441859245	-0.575153016	-0.794865283	-1.147587646	-1.145263672	0.088134766	0.715332031	878.02	-35.82172966	-74.08903204	-143.2495858	-66
18429	0	0.402770996	-0.01739502	0.069824219	0.999603271	0.012619972	-0.016853333	-0.018684387	10.0692749	-0.434875488	1.745605469	0.631081976	-0.842777955	-0.934342784	-1.127929688	0.037597656	0.784423828	878.08	-31.53835439	-76.91773704	-146.1828053	-69
18430	0	0.464473724	0.029585838	0.053980827	0.999775887	0.002796173	-0.013631821	-0.015934944	11.61184311	0.739645958	1.349520683	0.139819086	-0.681641887	-0.796806653	-1.107666016	0.030761719	0.843994141	877.92	-27.18284587	-79.21066631	-150.2997066	-79
18431	0	0.362304688	-0.015563965	0.078796387	0.999778748	-0.009177208	-0.011123657	-0.015266418	9.057617188	-0.389099121	1.969909668	-0.458894132	-0.556223751	-0.763377041	-1.086181641	0.001953125	0.896728516	877.96	-21.92696875	-81.13101553	-156.6886426	-69
18432	0	0.320886612	-0.022857666	0.083826065	0.99985981	-0.005940437	-0.008478165	-0.013143539	8.022165298	-0.57144165	2.095651627	-0.297035725	-0.423928013	-0.657207635	-1.069091797	-0.033447266	0.944335938	877.96	-14.50148643	-82.55285859	-164.8678469	-71
18433	0	0.335571289	-0.043334961	0.081298828	0.999897003	-0.007838249	-0.00617981	-0.010250092	8.389282227	-1.083374023	2.032470703	-0.391925832	-0.309001021	-0.512522064	-1.059326172	-0.057617188	0.977294922	878.02	-6.741293427	-83.48493801	-173.5804687	-64
18434	0	0.35934639	-0.036453247	0.077835083	0.999913216	-0.010408401	-0.003063202	-0.007469177	8.983659744	-0.911331177	1.945877075	-0.520435125	-0.153164525	-0.373469663	-1.047119141	-0.077636719	1.009765625	878.02	-0.07093077	-83.89677223	178.5197337	-67
18435	0	0.34954834	-0.034729004	0.083312988	0.999866486	-0.015788078	-0.001564026	-0.003765106	8.738708496	-0.868225098	2.082824707	-0.789438901	-0.07820476	-0.188263653	-1.044433594	-0.099365234	1.040039063	878.14	2.569008359	-84.07034913	174.0576203	-68
18436	0	0.338089943	-0.060720444	0.092247009	0.999903679	-0.013718605	-0.001148224	-0.001142502	8.452248573	-1.518011093	2.306175232	-0.685952069	-0.05741302	-0.057126909	-1.044189453	-0.116943359	1.067138672	878.02	2.618231425	-84.1953263	172.4383396	-63
18437	0	0.359619141	-0.08996582	0.099060059	0.999984741	-0.005156517	-0.001937866	-0.000286102	8.990478516	-2.249145508	2.476501465	-0.257827159	-0.096893802	-0.014305187	-1.044677734	-0.12109375	1.096191406	877.96	2.705303424	-84.41174733	171.7656482	-65
18438	0	0.424868584	-0.109238625	0.109475136	0.999983788	0.004302979	-0.002784729	-0.002094269	10.62171459	-2.730965614	2.736878395	0.215150025	-0.139237162	-0.104713975	-1.036865234	-0.096923828	1.131103516	877.96	6.159494147	-84.70378827	168.8000216	-67
18439	0	0.463562012	-0.102050781	0.110290527	0.999951363	0.009479523	-0.001093864	-0.002349854	11.58905029	-2.551269531	2.757263184	0.473983765	-0.054694102	-0.117494567	-1.031982422	-0.055175781	1.161621094	878.02	10.4635593	-84.77755445	165.5780517	-65
18440	0	0.488247871	-0.062066078	0.098413467	0.999972343	0.007153511	0.0014534	-0.000819206	12.20619678	-1.551651955	2.460336685	0.357678769	0.072670636	-0.04096068	-1.03515625	0.008789063	1.185058594	877.98	11.99979675	-84.58205049	164.870968	-68
18441	0	0.520751953	-0.047851563	0.091186523	0.99998188	-0.001804352	0.004776955	0.003051758	13.01879883	-1.196289063	2.279663086	-0.090218122	0.238849141	0.152588791	-1.040283203	0.063964844	1.206542969	878.06	7.430268265	-84.08602754	169.2717601	-69
18442	0	0.360663414	-0.052038193	0.077057838	0.999861717	0.006908417	0.011156082	0.010169983	9.01658535	-1.300954819	1.926445961	0.345436706	0.557829734	0.508522507	-1.061279297	0.119628906	1.197509766	878.14	-2.411364763	-82.83825541	179.9875288	-66
18443	0	0.400024414	-0.007629395	0.04864502	0.999489784	0.020133972	0.013932228	0.020488739	10.00061035	-0.190734863	1.216125488	1.006869704	0.696729798	1.024611061	-1.088867188	0.227783203	1.164306641	878.08	-14.6710068	-80.87948601	-165.2884988	-67
18444	0	0.466124535	0.025619507	0.043278694	0.999302864	0.013707161	0.017366409	0.03004837	11.65311337	0.640487671	1.081967354	0.685517194	0.868522097	1.502767394	-1.110107422	0.370849609	1.104980469	877.9	-26.46674253	-77.77349201	-151.6765501	-67
18445	0	0.417236328	-0.018066406	0.058898926	0.999277115	0.010575294	0.017562866	0.031993866	10.4309082	-0.451660156	1.472473145	0.528892055	0.878354773	1.600078515	-1.116943359	0.506591797	1.03125	877.96	-33.84910137	-74.17332328	-142.8049335	-61
18446	0	0.360519409	-0.039565086	0.06443119	0.999307632	0.008881569	0.017443657	0.031636238	9.012985229	-0.989127159	1.610779762	0.444180944	0.872384157	1.582177008	-1.111572266	0.633056641	0.951904297	877.98	-38.27827531	-70.41437991	-137.0725515	-63
18447	0	0.323059082	-0.052307129	0.059509277	0.99933815	0.003685951	0.016582489	0.032165527	8.076477051	-1.307678223	1.487731934	0.184338229	0.829307407	1.608631253	-1.093505859	0.739257813	0.867675781	877.98	-41.87088298	-66.58345437	-132.7448491	-63
18448	0	0.307837486	-0.078828812	0.048847198	0.999464035	0.007305145	0.014399529	0.02846241	7.695937157	-1.970720291	1.221179962	0.365322482	0.720104981	1.423374606	-1.058349609	0.825439453	0.795898438	878.02	-43.71427956	-63.15775162	-129.7738824	-59
18449	0	0.312255859	-0.081604004	0.044006348	0.999593735	0.013661385	0.01166153	0.022098541	7.806396484	-2.040100098	1.100158691	0.683161588	0.583155315	1.105076461	-1.020263672	0.902587891	0.712890625	878.02	-43.80946464	-60.44665096	-127.8801291	-61
18450	0	0.338378906	-0.072692871	0.048583984	0.999757767	0.012646675	0.008530617	0.015857697	8.459472656	-1.817321777	1.214599609	0.632384793	0.426565265	0.792948823	-0.9765625	0.959716797	0.637207031	878.06	-43.42487551	-58.49613301	-126.635444	-59
18451	0	0.378684998	-0.064539909	0.059290886	0.999892235	0.008821487	0.005547523	0.010284424	9.467124939	-1.613497734	1.482272148	0.441090131	0.277386086	0.514239565	-0.944091797	0.993408203	0.569580078	877.98	-43.0665579	-57.2427152	-125.85727	-61
18452	0	0.399417877	-0.042638779	0.057909966	0.999985695	0.000725746	0.002977371	0.004268646	9.98544693	-1.065969467	1.447749138	0.036287475	0.148869246	0.213433294	-0.913085938	1.000732422	0.524414063	878.06	-43.1530635	-56.68422639	-125.6467519	-59
18453	0	0.384338379	-0.033447266	0.066589355	0.999879837	-0.015017509	-0.002536774	-0.0026474	9.608459473	-0.836181641	1.664733887	-0.750905382	-0.126843736	-0.132375268	-0.897949219	0.984619141	0.5078125	878.06	-44.82619072	-57.13646412	-125.6931306	-59
18454	0	0.406108856	-0.113613129	0.104164124	0.999679565	-0.013735771	-0.01239872	-0.017251968	10.15272141	-2.840328217	2.604103088	-0.686861841	-0.620002138	-0.862690461	-0.891845703	0.938720703	0.536865234	877.96	-45.75906746	-59.57791197	-126.436031	-55
18455	0	0.447998047	-0.111450195	0.10760498	0.99954319	-0.004459381	-0.012606621	-0.027080536	11.19995117	-2.786254883	2.690124512	-0.223002967	-0.630426907	-1.354232729	-0.905761719	0.869140625	0.569335938	878.02	-44.10090098	-62.83408509	-128.9048612	-55
18456	0	0.455224037	-0.039579391	0.085350037	0.999365807	-0.01466465	-0.013124466	-0.029663086	11.38060093	-0.989484787	2.133750916	-0.733387446	-0.656361971	-1.483467718	-0.931152344	0.791015625	0.588378906	878.02	-42.7212214	-66.31056767	-132.2857941	-57
18457	0	0.329650879	-0.029541016	0.095336914	0.999187469	-0.019431114	-0.015762329	-0.031578064	8.241271973	-0.738525391	2.383422852	-0.971818739	-0.788329822	-1.579330655	-0.956054688	0.695556641	0.632080078	878.06	-41.17465877	-70.12261782	-136.3442493	-53
18458	0	0.390583992	-0.064241409	0.103507042	0.999268532	-0.008655548	-0.019004822	-0.032020569	9.7645998	-1.606035233	2.587676048	-0.432882886	-0.950472691	-1.601418661	-0.96875	0.593261719	0.675537109	877.92	-37.55830022	-74.1833773	-141.1888168	-52
18459	0	0.446960449	-0.057739258	0.098999023	0.999507904	-0.00228405	-0.015647888	-0.027065277	11.17401123	-1.443481445	2.474975586	-0.11422121	-0.782522596	-1.353485573	-0.972900391	0.510253906	0.708251953	877.98	-31.61010068	-77.46805593	-147.6008851	-50
18460	0	0.382827759	-0.053235054	0.09940052	0.999637604	-0.004142761	-0.013392448	-0.022963524	9.57069397	-1.33087635	2.485013008	-0.207163059	-0.669703231	-1.148314755	-0.975097656	0.440185547	0.737060547	878.02	-23.7389322	-80.09277634	-156.1145434	-48
18461	0	0.354858398	-0.071960449	0.093811035	0.999733925	-0.002033234	-0.011557579	-0.019851685	8.871459961	-1.79901123	2.345275879	-0.101670695	-0.577930184	-0.992672226	-0.973144531	0.381103516	0.761962891	877.98	-12.53661732	-82.09611718	-167.6922246	-48
18462	0	0.347655296	-0.083415985	0.086569786	0.999792099	-0.001168251	-0.00965023	-0.017910004	8.691382408	-2.085399628	2.164244652	-0.058416595	-0.482544921	-0.895562172	-0.961669922	0.328125	0.771484375	877.96	3.039790485	-83.39427169	176.4703005	-48
18463	0	0.337158203	-0.073913574	0.088684082	0.999853134	-0.005141258	-0.006999969	-0.014728546	8.428955078	-1.847839355	2.217102051	-0.25707544	-0.350015531	-0.736463196	-0.959716797	0.277587891	0.78125	877.98	19.05161672	-83.863744	159.766827	-49
18464	0	0.327997208	-0.078354836	0.093215942	0.999907494	-0.007782936	-0.005250931	-0.009829521	8.199930191	-1.958870888	2.33039856	-0.389158789	-0.262554625	-0.491491195	-0.948242188	0.229003906	0.790283203	878.08	30.38354196	-83.93060301	147.4734611	-50
18465	0	0.336486816	-0.076416016	0.09362793	0.999957085	-0.006725311	-0.003764153	-0.005077362	8.41217041	-1.910400391	2.340698242	-0.336270338	-0.188210298	-0.253871707	-0.942138672	0.187255859	0.802001953	878.02	36.63606857	-83.95550703	140.410485	-47
18466	0	0.349265099	-0.082548141	0.090853691	0.99997139	-0.007117271	-0.002106667	-0.000628471	8.731627464	-2.063703537	2.271342278	-0.355866862	-0.105334302	-0.031423859	-0.93359375	0.154052734	0.801269531	878.06	37.89769055	-84.08988186	138.3220839	-48
18467	0	0.411682129	-0.081298828	0.087097168	0.999980927	-0.006033897	-0.001098633	-0.000701904	10.29205322	-2.032470703	2.177429199	-0.301696786	-0.05493199	-0.035095438	-0.92578125	0.129638672	0.811523438	878.06	38.64649423	-84.12585837	136.8750385	-49
18468	0	0.463312149	-0.072706223	0.089354515	0.999946594	-0.009967804	0.000758171	-0.002407074	11.58280373	-1.817655563	2.233862877	-0.49839898	0.037909222	-0.12035582	-0.919677734	0.100830078	0.810791016	878.02	39.04485373	-83.87341897	135.3273497	-48
18469	0	0.478942871	-0.049560547	0.08807373	0.999931335	-0.010867119	0.002353668	-0.003643036	11.97357178	-1.239013672	2.201843262	-0.543368341	0.117686096	-0.182155951	-0.922607422	0.061523438	0.805419922	878.02	39.15061995	-83.39002938	133.9685836	-48
18470	0	0.48098278	-0.033820152	0.100513458	0.999970436	-0.007448196	0.001586914	0.000662804	12.02456951	-0.845503807	2.512836456	-0.372413448	0.079346476	0.033140505	-0.930419922	0.024414063	0.803222656	877.96	36.76556192	-83.28264486	135.5089878	-48
18471	0	0.431884766	-0.043457031	0.082702637	0.99992466	0.007915497	0.007512093	0.005535126	10.79711914	-1.086425781	2.067565918	0.395784718	0.375614003	0.276763193	-0.946289063	0.009521484	0.802490234	877.96	29.32208826	-82.89479146	143.914885	-48
18472	0	0.410786629	0.003582954	0.050400734	0.999344826	0.02957058	0.01162529	0.017315865	10.26966572	0.08957386	1.260018349	1.478851832	0.581391422	0.865982285	-0.970703125	0.038818359	0.787109375	878.02	14.47551922	-82.37875148	162.2901451	-46
18473	0	0.436523438	0.079284668	0.016662598	0.998851776	0.03129673	0.016086578	0.032485962	10.91308594	1.982116699	0.416564941	1.565435305	0.804636705	1.624919653	-1.004394531	0.127441406	0.747314453	877.96	-7.856753286	-80.69525562	-171.5214299	-45
18474	0	0.435600281	0.050092697	0.025555611	0.998984337	0.021203995	0.015354156	0.036663055	10.89000702	1.252317429	0.638890266	1.060558685	0.767967744	1.833773414	-1.027099609	0.241943359	0.698974609	878.02	-24.17712629	-77.7943919	-152.4447312	-45
18475	0	0.430297852	0.00567627	0.047424316	0.999135971	0.01163578	0.015846252	0.03660965	10.75744629	0.141906738	1.18560791	0.581956582	0.792540822	1.831009694	-1.040039063	0.345214844	0.651123047	877.96	-33.95906	-74.14540488	-140.9900348	-45
18476	0	0.370984077	-0.02244091	0.058898926	0.999142647	0.000287056	0.016237259	0.038072586	9.274601936	-0.561022758	1.472473145	0.0143569	0.812094946	1.904173289	-1.043212891	0.439453125	0.600585938	877.98	-41.08407116	-70.00218913	-133.4664825	-48
18477	0	0.30090332	-0.048095703	0.054504395	0.999253273	-0.000671387	0.014611244	0.035747528	7.522583008	-1.202392578	1.362609863	-0.033577688	0.730743977	1.787821111	-1.036132813	0.517822266	0.553710938	878.06	-45.65002843	-65.9706376	-128.622124	-47
18478	0	0.30209446	-0.063783646	0.047226906	0.999483109	0.00830555	0.011437416	0.028870583	7.552361488	-1.594591141	1.180672646	0.415349033	0.571969336	1.443777846	-1.015136719	0.593505859	0.509277344	877.96	-47.42369052	-62.67266447	-125.5930085	-46
18479	0	0.319335938	-0.049133301	0.040527344	0.999622345	0.013058662	0.00976944	0.022109985	7.983398438	-1.22833252	1.013183594	0.65301529	0.488533457	1.105638391	-0.99609375	0.660644531	0.468261719	877.92	-47.52614634	-60.05957191	-123.765328	-46
18480	0	0.342226028	-0.044997215	0.042859077	0.999893188	0.007575989	0.005883217	0.010951042	8.555650711	-1.124930382	1.071476936	0.37881282	0.294171234	0.547571451	-0.976318359	0.708007813	0.426025391	877.96	-47.23074502	-58.69693284	-123.0924342	-46
18481	0	0.390197754	-0.06237793	0.049987793	0.999994278	-0.000216484	0.002998352	0.000907898	9.754943848	-1.559448242	1.249694824	-0.010824221	0.149917849	0.045394972	-0.967041016	0.725097656	0.3984375	877.98	-46.93638056	-58.41076649	-123.4583	-46
18482	0	0.39445591	-0.058968544	0.056905746	0.999921799	-0.008347511	-0.001156807	-0.009158134	9.861397743	-1.4742136	1.422643661	-0.41738634	-0.057841841	-0.457918545	-0.966552734	0.716064453	0.387695313	878.08	-46.84182379	-59.29811738	-124.6760314	-46
18483	0	0.389404297	-0.108337402	0.078308105	0.999720573	-0.008888245	-0.009032249	-0.019927979	9.735107422	-2.708435059	1.957702637	-0.44445355	-0.451654461	-0.996491565	-0.979492188	0.681640625	0.408447266	877.92	-46.39205792	-61.70340271	-126.3524365	-47
18484	0	0.412534714	-0.111248016	0.084731102	0.999544144	-0.00112915	-0.011363029	-0.027924538	10.31336784	-2.781200409	2.11827755	-0.056466087	-0.568237695	-1.396438771	-0.998779297	0.625488281	0.428466797	878.02	-43.83338902	-64.92798972	-129.3513333	-49
18485	0	0.461669922	-0.047485352	0.06060791	0.999444962	-0.010439873	-0.010883331	-0.029685974	11.54174805	-1.187133789	1.515197754	-0.522090141	-0.544267168	-1.484573115	-1.01953125	0.555908203	0.446777344	878.08	-41.14516617	-68.19007775	-133.5756433	-50
18486	0	0.34379673	-0.02660656	0.073773384	0.99928093	-0.022337914	-0.013720512	-0.027376175	8.594918251	-0.665163994	1.844334602	-1.117163287	-0.686189993	-1.369136717	-1.037841797	0.473388672	0.480224609	877.96	-39.93787755	-71.46986573	-137.5820598	-49
18487	0	0.430175781	-0.071411133	0.096984863	0.999375343	-0.011795044	-0.019156456	-0.027233124	10.75439453	-1.78527832	2.424621582	-0.589874909	-0.958022097	-1.361939513	-1.041992188	0.388183594	0.524658203	877.98	-37.68259341	-75.18158423	-141.3456143	-51
18488	0	0.489004135	-0.050376892	0.100166321	0.999598503	-0.002800941	-0.016456604	-0.022878647	12.22510338	-1.259422302	2.50415802	-0.140065802	-0.822940238	-1.144085322	-1.037353516	0.316162109	0.570556641	878.06	-33.49708474	-78.28491992	-145.9786845	-60
18489	0	0.384277344	-0.029602051	0.102478027	0.999759674	-0.005717278	-0.01366806	-0.016132355	9.606933594	-0.74005127	2.561950684	-0.285886739	-0.683457671	-0.806682247	-1.031005859	0.263427734	0.600097656	877.98	-29.95959249	-80.62810291	-150.2455438	-63
18490	0	0.328050613	-0.04278183	0.092778206	0.999866486	-0.00117588	-0.011576653	-0.011465073	8.201265335	-1.069545746	2.319455147	-0.058796637	-0.578858373	-0.57327913	-1.017822266	0.219238281	0.625976563	877.96	-26.2815302	-82.45010879	-154.1044205	-57
18491	0	0.333740234	-0.057495117	0.081359863	0.999892235	0.000926971	-0.009730339	-0.010871887	8.343505859	-1.43737793	2.033996582	0.046350223	-0.486534285	-0.543613727	-1.007324219	0.190429688	0.636474609	878.02	-19.92145006	-83.99218526	-160.4021688	-52
18492	0	0.359881401	-0.063216209	0.082383156	0.999912262	-0.004007339	-0.007351875	-0.010233879	8.997035027	-1.580405235	2.059578896	-0.200372813	-0.367604478	-0.511708866	-0.999511719	0.166259766	0.655029297	877.92	-10.42395729	-85.13338718	-170.3995121	-50
18493	0	0.359985352	-0.06427002	0.09552002	0.999928474	-0.006549835	-0.005255699	-0.008419037	8.999633789	-1.606750488	2.388000488	-0.327499479	-0.262791151	-0.420961765	-0.991455078	0.135253906	0.663085938	878.06	0.799804165	-85.82442383	177.592445	-51
18494	0	0.354352951	-0.057211876	0.104086876	0.999974251	-0.004619598	-0.003515244	-0.004074097	8.858823776	-1.430296898	2.602171898	-0.230981856	-0.17576365	-0.203706542	-0.985595703	0.106445313	0.665039063	877.96	7.821437333	-86.18841778	170.0244944	-49
18495	0	0.364746094	-0.052246094	0.098266602	0.999996185	-0.001494408	-0.00213623	0.000205994	9.118652344	-1.306152344	2.456665039	-0.074720468	-0.106811645	0.010299694	-0.980224609	0.088867188	0.668945313	877.98	8.233329247	-86.42530287	169.4409099	-49
18496	0	0.387402534	-0.055800438	0.093149185	0.999993324	-0.002345085	-0.000263214	0.002502441	9.685063362	-1.395010948	2.32872963	-0.117254488	-0.013160732	0.125122317	-0.977539063	0.084228516	0.660644531	877.96	3.794015726	-86.47435581	173.6215464	-47
18497	0	0.403869629	-0.07421875	0.091430664	0.999995232	-0.00233078	0.00155735	0.001220703	10.09674072	-1.85546875	2.285766602	-0.116539183	0.077867629	0.061035251	-0.979492188	0.079833984	0.655517578	877.96	1.496290251	-86.28977566	175.6588784	-47
18498	0	0.437602997	-0.057650566	0.079465866	0.999979973	-0.003419876	0.004882813	0.001722336	10.94007492	-1.441264153	1.986646652	-0.170994902	0.244142192	0.086117343	-0.981201172	0.071044922	0.639160156	878.02	-1.479019788	-85.71589766	178.2509708	-47
18499	0	0.409606934	-0.043334961	0.081054688	0.999887466	-0.013274193	0.006191254	0.002986908	10.24017334	-1.083374023	2.026367188	-0.663734361	0.309574213	0.149350961	-0.989990234	0.060302734	0.62890625	878.06	-6.40209008	-84.96875651	-178.3330466	-45
18500	0	0.495279312	-0.098686218	0.085256577	0.999904633	-0.011894226	0.006775856	0.001591682	12.3819828	-2.467155457	2.131414413	-0.59473013	0.338803526	0.079586641	-0.998046875	0.036132813	0.608398438	877.96	-8.486370572	-84.1582846	-177.6071541	-45
18501	0	0.399658203	-0.058105469	0.07623291	0.999899864	-0.001602173	0.012063026	0.007217407	9.991455078	-1.452636719	1.905822754	-0.080111315	0.603171446	0.360882402	-1.010742188	0.019042969	0.58203125	878.02	-13.33477705	-82.62503431	-172.913321	-45
18502	0	0.395920753	-0.00812912	0.050320625	0.999712944	0.006132126	0.014533997	0.017988205	9.898018837	-0.203227997	1.258015633	0.306635551	0.726769176	0.899496076	-1.021972656	0.021240234	0.548095703	877.98	-22.28807972	-80.3843841	-163.156681	-43
18503	0	0.437988281	0.022033691	0.033447266	0.999437332	0.006844521	0.015522003	0.028907776	10.94970703	0.550842285	0.836181641	0.342290139	0.776245549	1.445659565	-1.034912109	0.065185547	0.508056641	878.02	-32.21881452	-77.26096965	-152.2412485	-42
18504	0	0.438820839	-0.026842117	0.04761219	0.999407768	0.012021065	0.012882233	0.029542923	10.97052097	-0.671052933	1.190304756	0.601171833	0.644238724	1.477437608	-1.045898438	0.120117188	0.466796875	877.96	-38.26649666	-74.08879527	-144.5806704	-43
18505	0	0.420288086	-0.03692627	0.057739258	0.999359131	0.017613411	0.013061523	0.028263092	10.50720215	-0.923156738	1.443481445	0.880858479	0.653215536	1.413456163	-1.048095703	0.179443359	0.439208984	878.06	-41.05756313	-70.86481289	-139.5367088	-43
18506	0	0.369228363	-0.033425331	0.062168121	0.999423981	0.013520241	0.012639046	0.028429985	9.230709076	-0.835633278	1.554203033	0.676141766	0.632073558	1.421772039	-1.052001953	0.236328125	0.400390625	878.06	-43.25884645	-67.6052505	-135.5233582	-43
18507	0	0.354553223	-0.051025391	0.047729492	0.999560356	0.014480591	0.010994911	0.023418427	8.863830566	-1.275634766	1.193237305	0.724135653	0.549826129	1.171092933	-1.053710938	0.288818359	0.364746094	877.96	-43.98806672	-64.84839918	-132.9087971	-43
18508	0	0.364349365	-0.035826683	0.032824516	0.999711037	0.011944771	0.00989151	0.018321037	9.108734131	-0.895667076	0.820612907	0.597295908	0.494623007	0.916139856	-1.052734375	0.328125	0.344238281	877.96	-44.03901411	-62.58777998	-131.3199248	-43
18509	0	0.339355469	-0.037719727	0.03527832	0.999843597	0.007199287	0.007530212	0.014286041	8.483886719	-0.942993164	0.881958008	0.359983129	0.376530241	0.714339286	-1.055908203	0.358642578	0.321777344	877.96	-44.24185629	-60.84768661	-130.1469942	-43
18510	0	0.344148636	-0.045326233	0.045028687	0.999919891	0.006731987	0.003750801	0.010020256	8.603715897	-1.133155823	1.125717163	0.336608315	0.187545049	0.501026146	-1.061279297	0.380859375	0.308837891	878.02	-44.34929583	-59.76310852	-129.1295896	-43
18511	0	0.362976074	-0.051879883	0.056518555	0.999978065	0.004795074	-0.000376701	0.004505157	9.074401855	-1.29699707	1.412963867	0.239755459	-0.018835204	0.225259504	-1.066894531	0.396484375	0.31640625	878.02	-44.4459158	-59.46341744	-128.3743914	-43
18512	0	0.355294228	-0.052843094	0.06193161	0.999993324	0.000613213	-0.003347397	-0.001125336	8.88235569	-1.321077347	1.548290253	0.030660695	-0.167370201	-0.056266905	-1.071777344	0.401123047	0.327880859	877.96	-44.64408047	-59.86309654	-128.0557721	-43
18513	0	0.353088379	-0.060058594	0.063232422	0.999940872	-0.004366875	-0.006763458	-0.007305145	8.827209473	-1.501464844	1.580810547	-0.218348036	-0.338179574	-0.365264458	-1.076416016	0.390380859	0.346191406	878.06	-45.02636895	-61.04336544	-128.1822504	-43
18514	0	0.360007286	-0.082043648	0.074729919	0.999833107	-0.005220413	-0.010477066	-0.013994217	9.000182152	-2.051091194	1.868247986	-0.261035143	-0.523882368	-0.699749669	-1.083251953	0.366699219	0.3828125	877.98	-45.05347251	-63.07012773	-128.8175853	-45
18515	0	0.390197754	-0.103027344	0.087219238	0.999685287	-0.00215435	-0.013725281	-0.020885468	9.754943848	-2.575683594	2.180480957	-0.107728814	-0.686336028	-1.044382922	-1.086914063	0.327636719	0.423339844	877.98	-43.99536422	-65.91553399	-130.2511935	-46
18516	0	0.528953552	-0.111365318	0.092050552	0.999485016	-0.003698349	-0.016648293	-0.027173042	13.22383881	-2.784132957	2.301263809	-0.184949185	-0.832557483	-1.358885281	-1.085449219	0.272949219	0.470703125	877.92	-41.98956133	-69.48398965	-132.8630428	-47
18517	0	0.442199707	-0.051696777	0.09942627	0.999414444	-0.013884544	-0.013507843	-0.028171539	11.05499268	-1.292419434	2.485656738	-0.694362534	-0.675523795	-1.408851519	-1.085693359	0.207519531	0.513427734	877.98	-39.28801635	-72.81308918	-137.3821721	-46
18518	0	0.280977249	-0.041277885	0.112257004	0.999401093	-0.020857811	-0.013306618	-0.024176598	7.024431229	-1.031947136	2.806425095	-1.043098652	-0.66546365	-1.209071095	-1.080810547	0.130859375	0.55078125	878.08	-37.19420115	-75.77338844	-142.0288295	-45
18519	0	0.362121582	-0.064453125	0.098632813	0.999605179	-0.013239861	-0.012191772	-0.021533966	9.053039551	-1.611328125	2.465820313	-0.66207996	-0.609668675	-1.076839696	-1.071289063	0.058349609	0.590576172	877.96	-33.30100879	-78.38240798	-147.5748236	-43
18520	0	0.424538612	-0.061057091	0.086514473	0.999689102	-0.014101028	-0.008612633	-0.018641472	10.61346531	-1.526427269	2.162861824	-0.705124359	-0.430676186	-0.932170015	-1.057617188	-0.003417969	0.623535156	878.06	-27.57685385	-80.35544728	-155.0375668	-43
18521	0	0.413879395	-0.072387695	0.102844238	0.999817848	-0.011104584	-0.005862236	-0.014320374	10.34698486	-1.809692383	2.571105957	-0.555262761	-0.293129525	-0.716061973	-1.048583984	-0.058349609	0.647705078	878.02	-20.88608499	-81.67250317	-163.0970172	-42
18522	0	0.397266388	-0.048518181	0.106179237	0.999960899	-0.004594803	-0.002609253	-0.007058144	9.931659698	-1.212954521	2.654480934	-0.22974312	-0.130464337	-0.352911753	-1.035644531	-0.095947266	0.661621094	877.92	-16.38937558	-82.23489821	-168.1709479	-42
18523	0	0.3828125	-0.039855957	0.094665527	0.999986649	-0.005084038	0.000255585	0.000408173	9.5703125	-0.996398926	2.366638184	-0.254202994	0.012779291	0.020408719	-1.037353516	-0.111328125	0.668701172	877.96	-16.95610215	-82.20891888	-168.1861023	-42
18524	0	0.380903244	-0.044307709	0.082879066	0.999976158	-0.002163887	0.002033234	0.006147385	9.5225811	-1.107692719	2.071976662	-0.108195192	0.101662472	0.30737162	-1.039794922	-0.111083984	0.671630859	877.92	-21.13745391	-81.7729743	-164.2123703	-41
18525	0	0.382385254	-0.040405273	0.076782227	0.999948502	0.000496864	0.002986908	0.009620667	9.559631348	-1.010131836	1.919555664	0.024843637	0.14934793	0.481041481	-1.047363281	-0.099853516	0.676757813	878.06	-26.6069428	-81.02836029	-158.6210904	-40
18526	0	0.382377625	-0.037567139	0.077028275	0.999925613	0.003869057	0.003062248	0.011111259	9.559440613	-0.939178467	1.925706863	0.193457601	0.153116184	0.55557666	-1.055419922	-0.075439453	0.675292969	878.02	-31.64188981	-80.11793248	-153.0643175	-40
18527	0	0.381652832	-0.02746582	0.072998047	0.999903679	0.005157471	0.003682137	0.01228714	9.541320801	-0.686645508	1.824951172	0.25788175	0.184112692	0.614376567	-1.061523438	-0.044433594	0.678710938	878.02	-35.95966872	-79.0017011	-148.0680792	-39
18528	0	0.369550705	-0.007155418	0.076545715	0.999923706	0.001810074	0.002480507	0.011912346	9.238767624	-0.17888546	1.913642883	0.090505975	0.124028473	0.595632318	-1.067626953	-0.009277344	0.673339844	878.06	-40.0199619	-77.95773596	-143.7050528	-39
18529	0	0.389648438	-0.008178711	0.07800293	0.999949455	-8.01E-05	0.002053261	0.00976181	9.741210938	-0.204467773	1.950073242	-0.004005499	0.102664743	0.488098611	-1.076171875	0.019775391	0.682861328	878.08	-42.96500549	-77.06354639	-140.6883614	-39
18530	0	0.412366867	-0.018873215	0.075482368	0.999934196	0.008804321	0.003292084	0.0064888	10.30917168	-0.471830368	1.887059212	0.440225637	0.164607766	0.324447057	-1.079345703	0.039550781	0.681396484	877.98	-43.0290093	-76.30587326	-139.5785687	-39
18531	0	0.417419434	-0.009094238	0.053588867	0.999952316	0.006299019	0.005756378	0.004665375	10.43548584	-0.227355957	1.33972168	0.314955908	0.287823446	0.233272415	-1.087402344	0.066162109	0.676757813	878.02	-41.96797154	-75.48609601	-139.9177985	-39
18532	0	0.386096954	-0.057911873	0.042696953	0.999895096	0.013214111	0.004218102	0.004161835	9.652423859	-1.447796822	1.06742382	0.660728663	0.210912448	0.20809901	-1.095214844	0.088378906	0.666748047	877.98	-40.48148723	-74.8366138	-139.8813406	-39
18533	0	0.353820801	-0.009765625	0.039245605	0.99996376	0.007660866	0.002651215	0.002254486	8.84552002	-0.244140625	0.981140137	0.383047809	0.132562294	0.112725634	-1.103271484	0.114746094	0.659179688	877.92	-39.49156376	-74.46834111	-139.9855363	-39
18534	0	0.362697601	-0.040306091	0.042878151	0.999993324	0.002788544	0.001289368	0.001923561	9.067440033	-1.007652283	1.071953773	0.13942749	0.064468525	0.096178265	-1.108398438	0.125976563	0.655761719	877.98	-39.32798658	-74.24612427	-139.8123691	-39
18535	0	0.366699219	-0.025024414	0.042785645	0.999992371	0.003346443	0.000858307	0.001682281	9.167480469	-0.625610352	1.069641113	0.167322571	0.04291545	0.084114282	-1.113525391	0.137207031	0.660888672	877.96	-39.13636746	-74.08196513	-139.6019318	-39
18536	0	0.364486694	-0.031998634	0.053692818	0.999991417	0.003678322	-0.000673294	0.001770973	9.112167358	-0.799965858	1.342320442	0.183916617	-0.033664799	0.088548913	-1.111572266	0.145751953	0.66015625	878.02	-39.32260204	-74.04884377	-138.9600078	-40
18537	0	0.382385254	-0.026245117	0.061828613	0.999986649	0.004673958	-0.001781464	0.000400543	9.559631348	-0.65612793	1.545715332	0.233698872	-0.089073555	0.020027245	-1.109863281	0.158935547	0.661865234	877.98	-39.25183844	-74.21491587	-138.4645575	-40
18538	0	0.407835007	-0.033797264	0.075341225	0.999992371	-0.000603676	-0.00329113	-0.001486778	10.19587517	-0.844931602	1.883530617	-0.03018386	-0.164556871	-0.074339079	-1.102783203	0.158691406	0.666992188	878.08	-39.58973461	-74.65270612	-138.1729503	-39
18539	0	0.403625488	-0.04888916	0.079528809	0.999978065	-0.004234314	-0.003588676	-0.003543854	10.09063721	-1.222229004	1.988220215	-0.211717229	-0.17943512	-0.177193969	-1.100341797	0.152099609	0.676025391	877.98	-39.76582883	-75.26690355	-138.4791821	-39
18540	0	0.408474922	-0.072276115	0.074147224	0.999976158	0.00124073	-0.003107071	-0.006026268	10.21187305	-1.806902885	1.853680611	0.062037006	-0.155354776	-0.301315786	-1.09765625	0.13671875	0.694335938	878.08	-38.2761475	-76.01571893	-139.8611002	-39
18541	0	0.402282715	-0.053344727	0.071350098	0.999959946	0.004918098	-0.002738953	-0.006923676	10.05706787	-1.333618164	1.783752441	0.245908186	-0.136949449	-0.346188371	-1.094970703	0.127929688	0.695068359	877.98	-35.73731232	-76.78015438	-141.8846653	-39
18542	0	0.383629799	-0.045069695	0.071555138	0.999955177	0.005594254	-0.002748489	-0.007124901	9.590744972	-1.126742363	1.788878441	0.279716855	-0.137426522	-0.356250362	-1.094482422	0.116943359	0.695800781	877.98	-32.76271229	-77.53442525	-144.2709829	-39
18543	0	0.377685547	-0.044433594	0.069274902	0.999952316	0.006005287	-0.003017426	-0.006958008	9.442138672	-1.110839844	1.731872559	0.300269042	-0.15087363	-0.347905817	-1.094238281	0.108154297	0.705078125	878.12	-29.56112638	-78.27507962	-146.8347021	-39
18544	0	0.377225876	-0.041413307	0.07333374	0.999951363	0.005122185	-0.00321579	-0.007779121	9.430646896	-1.03533268	1.833343506	0.256113382	-0.160792092	-0.388962364	-1.089355469	0.1015625	0.711181641	878.06	-25.7077644	-79.04445926	-150.1569548	-39
18545	0	0.384521484	-0.053527832	0.071533203	0.999926567	0.008014679	-0.003241539	-0.008464813	9.613037109	-1.338195801	1.788330078	0.400743726	-0.162080905	-0.423250989	-1.086425781	0.090332031	0.706298828	878.02	-20.60072342	-79.79323829	-154.4110059	-39
18546	0	0.391909599	-0.045168877	0.069293022	0.999938965	0.006871223	-0.002778053	-0.008188248	9.797739983	-1.129221916	1.732325554	0.343568157	-0.138905488	-0.409420708	-1.081542969	0.079345703	0.715332031	878.06	-15.04166306	-80.4052428	-159.2485783	-39
18547	0	0.382995605	-0.0390625	0.066101074	0.999965668	0.004330635	-0.001876831	-0.006759644	9.574890137	-0.9765625	1.652526855	0.216534207	-0.093842616	-0.337986007	-1.081298828	0.070556641	0.721923828	877.96	-10.03622749	-80.800866	-163.8123745	-39
18548	0	0.370409966	-0.032522202	0.064284325	0.999986649	0.002466202	-0.001587868	-0.004224777	9.260249138	-0.813055038	1.607108116	0.123310633	-0.079393737	-0.211239792	-1.081054688	0.063964844	0.719482422	877.96	-6.692427248	-81.06528325	-166.9054699	-39
18549	0	0.382568359	-0.03918457	0.059020996	0.999994278	0.002232552	-0.001407623	-0.002040863	9.564208984	-0.979614258	1.475524902	0.111627786	-0.070381295	-0.102043341	-1.076171875	0.057373047	0.725585938	877.92	-4.823778536	-81.26112294	-168.5324794	-39
18550	0	0.391303062	-0.035252571	0.057958603	0.999998093	0.001088142	-0.000941277	-0.00063324	9.782576561	-0.881314278	1.448965073	0.054407142	-0.047063847	-0.031662	-1.078369141	0.055175781	0.725830078	877.96	-4.067882474	-81.38511051	-169.1654947	-39
18551	0	0.385803223	-0.034729004	0.057922363	0.999998093	0.000538826	-0.001182556	0.000793457	9.645080566	-0.868225098	1.448059082	0.02694131	-0.05912783	0.039672867	-1.073730469	0.054931641	0.725585938	878.02	-4.47513978	-81.52382236	-168.6857101	-38
18552	0	0.383821487	-0.029232025	0.058692932	0.999992371	0.002351761	-0.001275063	0.002747536	9.595537186	-0.730800629	1.467323303	0.117588331	-0.063753284	0.137377122	-1.071533203	0.059326172	0.728027344	877.96	-6.225628	-81.65039112	-166.6389217	-38
18553	0	0.387695313	-0.006286621	0.067626953	0.999956131	0.007466316	-0.001430511	0.005432129	9.692382813	-0.157165527	1.690673828	0.373321243	-0.071526614	0.271610397	-1.067626953	0.076904297	0.726318359	878.02	-9.560596031	-81.73824623	-162.3994229	-38
18554	0	0.393128395	0.02741909	0.081695557	0.999976158	0.005096436	0.000238419	0.004636765	9.828209877	0.685477257	2.042388916	0.254823796	0.011921023	0.231840063	-1.063964844	0.100830078	0.727050781	877.98	-12.31392496	-81.62181988	-159.0200756	-38
18555	0	0.394775391	0.006652832	0.077331543	0.999991417	-0.001564026	0.001553535	0.003269196	9.869384766	0.166320801	1.933288574	-0.078201497	0.077676974	0.163460201	-1.064453125	0.111816406	0.731933594	877.96	-14.462397	-81.37325678	-157.0219173	-38
18556	0	0.384863853	-0.022121429	0.062531471	0.999987602	-0.004307747	0.00235939	0.000270844	9.621596336	-0.553035736	1.563286781	-0.215388213	0.117969989	0.01354223	-1.069091797	0.114257813	0.726074219	878.02	-14.52972828	-81.11493467	-157.4454655	-38
18557	0	0.389343262	-0.03717041	0.052856445	0.999988556	-0.004302025	0.001880646	-0.000202179	9.733581543	-0.929260254	1.321411133	-0.215102034	0.094032634	-0.010108985	-1.068847656	0.107421875	0.723876953	878.06	-14.37204515	-80.92286478	-158.0977753	-39
18558	0	0.383732796	-0.031715393	0.05134201	0.99998951	-0.004499435	0.000818253	3.62E-05	9.593319893	-0.792884827	1.283550262	-0.224972555	0.040912771	0.001811988	-1.072998047	0.098876953	0.718994141	878.02	-14.60785111	-80.84174091	-158.3755867	-38
18559	0	0.389831543	-0.032409668	0.061218262	0.999986649	-0.004969597	0.000274658	0.000808716	9.745788574	-0.810241699	1.530456543	-0.248480896	0.013732968	0.040435962	-1.072753906	0.092285156	0.716796875	877.98	-15.52978798	-80.79762919	-158.0132538	-38
18560	0	0.386463165	-0.021515846	0.0691576	0.999979973	-0.006054878	0.000118256	0.001470566	9.661579132	-0.537896156	1.72894001	-0.302745871	0.005912819	0.073528766	-1.072509766	0.087890625	0.719970703	878.02	-17.04903568	-80.74739829	-157.171632	-38
18561	0	0.388549805	-0.032165527	0.076660156	0.999984741	-0.005125999	0.000274658	0.001533508	9.713745117	-0.804138184	1.916503906	-0.256301199	0.013732976	0.076675782	-1.072265625	0.081298828	0.720458984	877.96	-18.4600929	-80.67316296	-156.3322882	-39
18562	0	0.386757851	-0.034424782	0.074759483	0.999995232	-0.002822876	0.000520706	0.000864029	9.668946266	-0.860619545	1.868987083	-0.14114401	0.026035348	0.043201511	-1.072021484	0.076904297	0.715087891	878.02	-19.1005254	-80.59334051	-156.0065808	-38
18563	0	0.389404297	-0.040405273	0.069396973	0.999998093	-0.001326561	0.000530243	0.00030899	9.735107422	-1.010131836	1.734924316	-0.066328072	0.026512155	0.015449529	-1.072021484	0.076904297	0.715087891	877.98	-19.20617938	-80.53209996	-156.048894	-39
18564	0	0.38808918	-0.040147781	0.065551758	0.999999046	-0.001132011	0.000358582	6.39E-05	9.7022295	-1.003694534	1.638793945	-0.056600584	0.017929081	0.00319481	-1.074462891	0.074707031	0.718261719	877.98	-19.17549553	-80.49799784	-156.2070887	-39
18565	0	0.384521484	-0.043457031	0.067687988	0.999999046	-0.000961304	0.000119209	0.000385284	9.613037109	-1.086425781	1.692199707	-0.048065194	0.005960466	0.019264225	-1.07421875	0.0703125	0.715820313	878.02	-19.39352989	-80.47683403	-156.0937622	-39
18566	0	0.382884026	-0.043949127	0.070684433	0.999998093	0.001654625	-0.00011158	0.000900269	9.572100639	-1.09872818	1.767110825	0.082731296	-0.005578998	0.045013454	-1.07421875	0.0703125	0.715820313	878.06	-19.70113397	-80.45979994	-155.5859901	-39
18567	0	0.387512207	-0.036804199	0.070129395	0.999993324	0.003265381	-5.25E-05	0.001205444	9.687805176	-0.92010498	1.753234863	0.163269373	-0.00262261	0.060272339	-1.074462891	0.076904297	0.718017578	878.08	-20.00781168	-80.42333123	-154.8918129	-39
18568	0	0.385061264	-0.032221794	0.068343163	0.999991417	0.003556252	0.000213623	0.001856804	9.626531601	-0.805544853	1.708579063	0.177813055	0.010681181	0.092840444	-1.074707031	0.083496094	0.714599609	878.02	-20.62768731	-80.33085761	-153.8461669	-39
18569	0	0.385131836	-0.034362793	0.066589355	0.999992371	0.002732277	0.000228882	0.002422333	9.628295898	-0.859069824	1.664733887	0.136614151	0.011444117	0.121116908	-1.072753906	0.094482422	0.713623047	878.02	-21.67435411	-80.21035616	-152.462709	-39
18570	0	0.384992599	-0.035870552	0.065857887	0.999992371	0.00282383	0.000330925	0.002409935	9.624814987	-0.896763802	1.646447182	0.141191809	0.016546288	0.120497029	-1.075439453	0.101074219	0.710449219	878.02	-22.65001592	-80.07502371	-151.140458	-39
18571	0	0.383972168	-0.032043457	0.064697266	0.999996185	0.001664162	0.000267029	0.002147675	9.599304199	-0.801086426	1.617431641	0.083208187	0.013351457	0.107383861	-1.073486328	0.112060547	0.712402344	878.02	-23.58936437	-79.95420661	-149.9890966	-39
18572	0	0.38673687	-0.030675888	0.06683445	0.999998093	-0.000192642	0.000121117	0.001864433	9.668421745	-0.766897202	1.670861244	-0.009632116	0.006055835	0.093221719	-1.075927734	0.116455078	0.709228516	878.02	-24.58978639	-79.85827974	-148.9915697	-39
18573	0	0.385925293	-0.033447266	0.066467285	0.999998093	-0.00109005	0.000171661	0.001491547	9.648132324	-0.836181641	1.661682129	-0.054502518	0.008583074	0.074577374	-1.076171875	0.123046875	0.711425781	878.02	-25.44700981	-79.77208386	-148.2434769	-39
18574	0	0.381462097	-0.036014557	0.067436218	0.999995232	-0.002365112	0.000204086	0.001425743	9.536552429	-0.900363922	1.685905457	-0.118255766	0.010204328	0.071287246	-1.073730469	0.120849609	0.711669922	877.96	-26.3910619	-79.68339357	-147.5558881	-39
18575	0	0.380187988	-0.040527344	0.063964844	0.999994278	-0.002764702	9.92E-05	0.001598358	9.504699707	-1.013183594	1.599121094	-0.138235327	0.004959115	0.079918044	-1.073730469	0.120849609	0.708740234	877.96	-27.49471575	-79.59398215	-146.7524286	-39
18576	0	0.383031845	-0.042535782	0.064297676	0.999988556	-0.004388809	0.000117302	0.001433372	9.575796127	-1.063394547	1.607441902	-0.21944124	0.005865118	0.07166888	-1.076171875	0.118652344	0.71484375	878.02	-28.67443469	-79.50847989	-146.06069	-39
18577	0	0.386169434	-0.048522949	0.065002441	0.99998951	-0.004421234	-2.96E-05	0.001117706	9.65423584	-1.21307373	1.625061035	-0.221062473	-0.0014782	0.055885509	-1.076171875	0.116455078	0.71484375	878.06	-29.72145309	-79.45248328	-145.507499	-39
18578	0	0.386365891	-0.051151276	0.068072319	0.999995232	-0.002904892	-0.000141144	0.000369072	9.659147263	-1.278781891	1.701807976	-0.145244806	-0.0070572	0.018453624	-1.075927734	0.112060547	0.715332031	878.08	-30.22716273	-79.44847511	-145.3283914	-39
18579	0	0.385009766	-0.047119141	0.071594238	0.999996185	-0.002463341	-0.000232697	-0.000526428	9.625244141	-1.177978516	1.789855957	-0.123167169	-0.011634839	-0.026321439	-1.075683594	0.107666016	0.721435547	878.06	-30.23492465	-79.504416	-145.6043906	-39
18580	0	0.38826561	-0.047540665	0.068981171	0.999995232	-0.001984596	3.81E-05	-0.001979828	9.706640244	-1.188516617	1.724529266	-0.099229943	0.001907351	-0.098991524	-1.072998047	0.101074219	0.713134766	878.02	-29.31663084	-79.61522949	-146.7661879	-39
18581	0	0.388244629	-0.038696289	0.068725586	0.999993324	-0.002059937	0.000588417	-0.002746582	9.706115723	-0.967407227	1.718139648	-0.102997034	0.029420912	-0.137329379	-1.075195313	0.092285156	0.719726563	877.92	-27.7942777	-79.70785863	-148.5505395	-39
18582	0	0.389354706	-0.037624359	0.06627655	0.999995232	-0.002979279	6.48E-05	-0.000692368	9.733867645	-0.940608978	1.656913757	-0.148964161	0.003242498	-0.034618432	-1.077148438	0.0859375	0.720458984	878.06	-27.66300297	-79.73925577	-149.0279719	-39
18583	0	0.388793945	-0.04699707	0.06439209	0.999993324	-0.003540039	3.15E-05	-0.000408173	9.719848633	-1.174926758	1.609802246	-0.177002328	0.001573566	-0.020408674	-1.076904297	0.081542969	0.717773438	878.02	-27.76720607	-79.75856016	-149.3312616	-39
18584	0	0.38114357	-0.05465889	0.065493584	0.99998951	-0.00439167	9.73E-05	-0.000324249	9.528589249	-1.366472244	1.637339592	-0.219584221	0.004863755	-0.016212516	-1.076416016	0.0703125	0.715820313	878.02	-28.00137282	-79.76625402	-149.6021551	-39
18585	0	0.381774902	-0.061950684	0.065673828	0.999998093	-0.00146389	-0.00037384	1.91E-05	9.544372559	-1.54876709	1.641845703	-0.073194532	-0.018692024	0.000953675	-1.076416016	0.066162109	0.721923828	878.08	-28.23988804	-79.802442	-149.5278371	-39
18586	0	0.387316704	-0.05600071	0.067966461	0.999998093	0.001690865	-0.000382423	0.000116348	9.682917595	-1.400017738	1.69916153	0.084543271	-0.01912118	0.005817416	-1.078613281	0.063964844	0.719482422	878.06	-28.17898504	-79.83350141	-149.3908075	-39
18587	0	0.389099121	-0.04888916	0.069702148	0.999993324	0.003417969	-0.000281334	0.000190735	9.727478027	-1.222229004	1.742553711	0.170898774	-0.014066724	0.009536762	-1.076416016	0.068359375	0.724609375	877.98	-27.93355167	-79.84978068	-149.2400445	-39
18588	0	0.384726524	-0.043258667	0.06843853	0.999991417	0.004014015	-0.000135422	8.30E-05	9.618163109	-1.081466675	1.710963249	0.2007013	-0.006771106	0.004148494	-1.078857422	0.072753906	0.71875	877.92	-27.51553446	-79.85669142	-149.195276	-39
18589	0	0.38482666	-0.039550781	0.070495605	0.999996185	0.002667427	-0.000133514	-0.000171661	9.620666504	-0.988769531	1.762390137	0.133371512	-0.006675728	-0.008583079	-1.076904297	0.077148438	0.721191406	877.92	-27.10553486	-79.87639702	-149.2989585	-40
18590	0	0.385899544	-0.049728394	0.069804192	0.999998093	0.001700401	9.82E-05	-0.000546455	9.647488594	-1.243209839	1.74510479	0.085020111	0.004911425	-0.027322784	-1.077148438	0.083740234	0.726318359	878.02	-26.52582512	-79.89099325	-149.6872505	-39
18591	0	0.388671875	-0.051940918	0.06237793	0.999994278	0.003201485	-5.34E-05	-0.000614166	9.716796875	-1.298522949	1.559448242	0.160074518	-0.002670293	-0.030708367	-1.077148438	0.081542969	0.723632813	878.02	-25.78040989	-79.92350838	-150.0698412	-39
18592	0	0.388189316	-0.049305916	0.060884476	0.999991417	0.003922462	-4.96E-05	-0.000607491	9.704732895	-1.232647896	1.522111893	0.196123638	-0.00247956	-0.030374607	-1.079589844	0.088134766	0.723144531	878.08	-24.95537459	-79.95418599	-150.449041	-39
18593	0	0.385437012	-0.04473877	0.060913086	0.999984741	0.005486488	6.87E-05	0.000232697	9.635925293	-1.118469238	1.522827148	0.274325796	0.003433245	0.011634885	-1.080078125	0.094726563	0.725585938	877.98	-24.41295174	-79.9314019	-150.3593959	-39
18594	0	0.384799957	-0.037519455	0.062661171	0.999979973	0.00610733	0.000282288	0.001005173	9.619998932	-0.937986374	1.566529274	0.30536847	0.01411447	0.050258958	-1.080322266	0.101318359	0.725097656	877.96	-24.19625889	-79.84988441	-149.866902	-39
18595	0	0.385864258	-0.029663086	0.060668945	0.999985695	0.005081177	0.000294685	0.001476288	9.646606445	-0.741577148	1.516723633	0.254060027	0.014734337	0.073814738	-1.078369141	0.114501953	0.718017578	877.98	-24.3618135	-79.74512168	-149.1047706	-39
18596	0	0.384585381	-0.02809906	0.06172657	0.999992371	0.003517151	0.000283241	0.001254082	9.614634514	-0.702476501	1.543164253	0.175857955	0.014162097	0.062704233	-1.078857422	0.125488281	0.719970703	878.06	-24.57117214	-79.651895	-148.4797768	-39
