Counter	Temperature	VelInc_X	VelInc_Y	VelInc_Z	OriInc_w	OriInc_x	OriInc_y	OriInc_z	Acc_X	Acc_Y	Acc_Z	Gyr_X	Gyr_Y	Gyr_Z	Mag_X	Mag_Y	Mag_Z	Pressure	Roll	Pitch	Yaw	RSSI
16413	0	0.389587402	-0.026672363	0.078857422	0.999999046	0.001125336	0.000214577	0.000701904	9.739685059	-0.666809082	1.971435547	0.056266802	0.010728839	0.035095225	-0.60546875	0.210205078	0.715820313	877.96	-40.28633588	-73.34516845	-124.8318767	-61
16414	0	0.381537437	-0.013717651	0.082223892	0.999991417	-0.004074097	0.000600815	-0.000219345	9.538435936	-0.342941284	2.055597305	-0.203705411	0.030040826	-0.010967286	-0.607910156	0.210449219	0.715820313	878	-40.47024147	-73.32029336	-125.1174078	-62
16415	0	0.37878418	-0.028015137	0.081054688	0.999929428	-0.011809349	0.000457764	-0.000198364	9.469604492	-0.700378418	2.026367188	-0.590481203	0.022888717	-0.009918444	-0.607421875	0.197265625	0.72265625	878	-41.57679441	-73.30848916	-125.3643148	-64
16416	0	0.375612259	-0.048110008	0.08400631	0.999874115	-0.015758514	0.000344276	-0.001327515	9.390306473	-1.202750206	2.100157738	-0.787958582	0.017214539	-0.066378501	-0.606933594	0.1796875	0.726806641	878	-42.84001156	-73.39515144	-125.9192679	-64
16417	0	0.377563477	-0.060241699	0.080932617	0.999835014	-0.017837524	0.000638008	-0.003154755	9.439086914	-1.50604248	2.02331543	-0.891925064	0.031902153	-0.15774637	-0.605712891	0.148925781	0.732177734	877.96	-43.74781915	-73.60396651	-127.0933505	-65
16418	0	0.379231453	-0.078196526	0.081564903	0.999874115	-0.015273094	0.000529289	-0.004095078	9.480786324	-1.954913139	2.039122581	-0.763686572	0.026465566	-0.204762419	-0.606689453	0.118408203	0.737792969	877.94	-44.11481123	-73.89959373	-128.523808	-65
16419	0	0.373718262	-0.080383301	0.08001709	0.999960899	-0.00812912	0.000844002	-0.003307343	9.342956543	-2.00958252	2.000427246	-0.40646126	0.042200635	-0.165369269	-0.608154297	0.092041016	0.739990234	877.9	-43.78088208	-74.10599624	-129.8311057	-63
16420	0	0.379912376	-0.05181694	0.079194069	0.99994278	-0.010641098	0.000479698	-0.000825882	9.49780941	-1.295423508	1.979851723	-0.532065024	0.023985365	-0.041294884	-0.609863281	0.078857422	0.741210938	877.9	-44.54418229	-74.14593169	-130.2948331	-63
16421	0	0.379455566	-0.090209961	0.084289551	0.999915123	-0.012992859	0.000382423	0.000457764	9.48638916	-2.255249023	2.10723877	-0.649661262	0.019121709	0.022888829	-0.609130859	0.057128906	0.748535156	877.9	-45.97326976	-74.09047375	-130.347122	-62
16422	0	0.376891136	-0.06846714	0.079349518	0.999979019	-0.006207466	0.000653267	0.001363754	9.422278404	-1.711678505	1.983737946	-0.310375418	0.032663568	0.068188178	-0.608398438	0.039550781	0.747070313	877.94	-46.79183612	-73.93854781	-130.2263116	-61
16423	0	0.384155273	-0.085327148	0.081787109	0.999974251	-0.006874084	0.000561714	0.001743317	9.603881836	-2.133178711	2.044677734	-0.343707123	0.028085946	0.087166568	-0.610107422	0.030761719	0.745117188	877.9	-47.80621087	-73.76061349	-129.9807284	-61
16424	0	0.383487701	-0.077171326	0.086055756	0.999993324	-0.003054619	0.000980377	0.001206398	9.587192535	-1.929283142	2.15139389	-0.152731241	0.049018956	0.060320019	-0.609863281	0.024169922	0.742675781	877.9	-48.10960055	-73.59507691	-130.0195191	-60
16425	0	0.379455566	-0.073425293	0.08782959	0.999997139	-0.00201416	0.000763893	0.000984192	9.48638916	-1.835632324	2.195739746	-0.100708102	0.038194692	0.049209641	-0.612060547	0.019775391	0.743164063	877.84	-48.29488343	-73.46484118	-130.0567656	-60
16426	0	0.37924099	-0.075971603	0.08303833	0.999999046	0.000549316	0.000402451	0.000405312	9.481024742	-1.899290085	2.075958252	0.027465823	0.02012253	0.020265581	-0.612060547	0.019775391	0.74609375	877.84	-48.14073779	-73.41155503	-130.1412886	-60
16427	0	0.379638672	-0.073364258	0.078674316	0.999999046	0.001052856	0.000508308	2.29E-05	9.490966797	-1.834106445	1.96685791	0.052642834	0.025415426	0.001144409	-0.612304688	0.021972656	0.745849609	877.9	-47.80065075	-73.38277122	-130.3592752	-60
16428	0	0.377663612	-0.070776939	0.078229904	0.999999046	-0.000447273	0.000644684	0.000353813	9.441590309	-1.769423485	1.955747604	-0.022363665	0.032234196	0.017690661	-0.612060547	0.021972656	0.740234375	877.96	-47.67935979	-73.31540837	-130.528207	-60
16429	0	0.378051758	-0.075622559	0.080444336	0.999999046	-0.000984192	0.000271797	0.000614166	9.451293945	-1.890563965	2.011108398	-0.049209606	0.013589862	0.03070832	-0.614257813	0.019775391	0.740478516	877.9	-47.79199234	-73.25470709	-130.5172835	-60
16430	0	0.377608299	-0.076735497	0.08165741	0.999999046	9.54E-05	0.000318527	0.000587463	9.440207481	-1.918387413	2.041435242	0.004768372	0.015926362	0.029373171	-0.614501953	0.019775391	0.74609375	877.94	-47.76030916	-73.19262118	-130.5276834	-60
16431	0	0.379333496	-0.075866699	0.081359863	0.999999046	0.001091003	0.000172615	0.000522614	9.483337402	-1.89666748	2.033996582	0.054550184	0.008630755	0.026130683	-0.612060547	0.021972656	0.743164063	878	-47.6387357	-73.14734275	-130.5126492	-59
16432	0	0.379590988	-0.076939583	0.082023621	0.999996185	0.002552032	0.000197411	0.000366211	9.489774704	-1.923489571	2.050590515	0.127601766	0.00987054	0.018310567	-0.614746094	0.026367188	0.742919922	877.96	-47.30312307	-73.11341533	-130.5462778	-60
16433	0	0.378845215	-0.070068359	0.081176758	0.999993324	0.003429413	0.000386238	0.000617981	9.471130371	-1.751708984	2.029418945	0.171470993	0.019311944	0.030899111	-0.614746094	0.028564453	0.742675781	877.96	-46.87942427	-73.04390342	-130.56708	-60
16434	0	0.380221367	-0.069859505	0.081643105	0.999996185	0.002425194	0.00036335	0.000823021	9.505534172	-1.746487617	2.041077614	0.121259825	0.018167516	0.041151093	-0.617431641	0.035400391	0.7421875	877.9	-46.63035156	-72.95941008	-130.524991	-60
16435	0	0.374816895	-0.073669434	0.082824707	0.999997139	0.001880646	0.000336647	0.000808716	9.370422363	-1.84173584	2.070617676	0.094032355	0.016832364	0.04043582	-0.615234375	0.039550781	0.739013672	877.94	-46.44768865	-72.87837873	-130.4785404	-59
16436	0	0.378682137	-0.066960335	0.080949783	0.999998093	0.001232147	0.000502586	0.000491142	9.467053413	-1.674008369	2.023744583	0.061607381	0.025129327	0.024557122	-0.617675781	0.041992188	0.738769531	877.9	-46.21323672	-72.81107475	-130.563923	-59
16437	0	0.379882813	-0.072631836	0.08380127	0.999999046	0.000602722	0.000367165	0.00018692	9.497070313	-1.815795898	2.095031738	0.030136111	0.018358232	0.009346009	-0.620117188	0.044189453	0.735839844	877.9	-46.00955789	-72.77975752	-130.6924578	-60
16438	0	0.376990318	-0.067854881	0.080679893	0.999998093	0.001830101	0.000338554	0.000389099	9.424757957	-1.696372032	2.016997337	0.091505106	0.016927729	0.019454968	-0.620117188	0.046386719	0.735839844	877.9	-45.7249255	-72.73437519	-130.7585178	-59
16439	0	0.375061035	-0.064025879	0.079772949	0.999999046	4.20E-05	0.00036335	0.00069046	9.376525879	-1.600646973	1.99432373	0.002098084	0.018167498	0.034523014	-0.622558594	0.05078125	0.735595703	877.96	-45.71582661	-72.66281181	-130.7499884	-59
16440	0	0.37771225	-0.071805	0.078587532	0.999999046	-0.000546455	0.000164032	0.000967979	9.442806244	-1.795125008	1.964688301	-0.027322775	0.008201601	0.048398982	-0.620605469	0.052978516	0.740966797	877.96	-45.89719361	-72.58473953	-130.6124125	-58
16441	0	0.376281738	-0.067382813	0.078125	0.999998093	-0.001414299	0.000347137	0.000762939	9.407043457	-1.684570313	1.953125	-0.070714982	0.01735688	0.03814699	-0.622802734	0.05078125	0.73828125	877.9	-46.07637346	-72.50937902	-130.581748	-58
16442	0	0.377456665	-0.07379818	0.079154968	0.999994278	-0.002930641	-1.05E-05	0.001089096	9.436416626	-1.844954491	1.978874207	-0.146532297	-0.000524522	0.054454892	-0.622802734	0.05078125	0.73828125	877.96	-46.60347126	-72.43548468	-130.3680863	-58
16443	0	0.376831055	-0.079711914	0.081176758	0.999995232	-0.002861023	-0.000311852	0.000682831	9.420776367	-1.992797852	2.029418945	-0.143051356	-0.015592598	0.03414159	-0.622558594	0.046386719	0.738769531	878	-47.0993829	-72.41859033	-130.1792132	-57
16444	0	0.377017021	-0.080451965	0.081642151	0.999996185	-0.002573013	-0.00026989	0.000465393	9.425425529	-2.011299133	2.041053772	-0.128650813	-0.013494507	0.02326968	-0.622558594	0.041992188	0.744873047	877.9	-47.49753722	-72.41625924	-130.0584645	-58
16445	0	0.376403809	-0.077026367	0.07989502	0.999997139	-0.001815796	-0.000250816	0.00069809	9.410095215	-1.92565918	1.997375488	-0.090789853	-0.012540825	0.034904502	-0.619873047	0.037597656	0.739257813	877.88	-47.86025328	-72.39264041	-129.8842063	-57
16446	0	0.379198074	-0.082856178	0.080868721	0.999996185	-0.002419472	-0.000254631	0.000419617	9.479951859	-2.071404457	2.021718025	-0.12097371	-0.012731565	0.020980856	-0.622070313	0.037597656	0.739501953	877.94	-48.22570932	-72.39266036	-129.779183	-57
16447	0	0.377685547	-0.087890625	0.081237793	0.999999046	-0.001132965	-3.72E-05	0.000274658	9.442138672	-2.197265625	2.030944824	-0.056648267	-0.001859665	0.013732913	-0.621826172	0.031005859	0.742919922	877.94	-48.35109362	-72.38810414	-129.7723272	-57
16448	0	0.376729012	-0.084003448	0.078332901	0.999999046	-0.000361443	0.000101089	0.000324249	9.418225288	-2.100086212	1.958322525	-0.018072129	0.005054474	0.016212464	-0.619628906	0.033203125	0.742431641	877.94	-48.36332845	-72.36875924	-129.7908649	-58
16449	0	0.376281738	-0.086791992	0.079223633	0.999999046	-0.000141144	-0.000178337	0.00063324	9.407043457	-2.169799805	1.98059082	-0.00705719	-0.008916856	0.03166199	-0.619628906	0.031005859	0.745605469	877.94	-48.50036185	-72.34404949	-129.6525694	-57
16450	0	0.379433632	-0.087539673	0.07833004	0.999999046	0.000724792	-2.86E-05	0.000670433	9.485840797	-2.188491821	1.958250999	0.03623963	-0.001430512	0.033521658	-0.622314453	0.035644531	0.748291016	877.9	-48.50740003	-72.30467808	-129.5462727	-57
16451	0	0.373352051	-0.08416748	0.078186035	0.999999046	0.001098633	0.000191689	0.000331879	9.33380127	-2.104187012	1.954650879	0.054931653	0.009584429	0.016593937	-0.622314453	0.037597656	0.745117188	877.9	-48.33250355	-72.27762813	-129.5862742	-57
16452	0	0.375157356	-0.08454895	0.078941345	0.999999046	0.000601768	-0.000228882	0.000747681	9.378933907	-2.113723755	1.97353363	0.03008843	-0.011444094	0.037384039	-0.622314453	0.037597656	0.745117188	877.98	-48.42692851	-72.24696677	-129.403715	-57
16453	0	0.377441406	-0.085876465	0.080322266	0.999999046	0.000614166	-0.000464439	0.00082016	9.436035156	-2.146911621	2.008056641	0.030708319	-0.023221975	0.041008004	-0.622314453	0.037597656	0.745117188	877.9	-48.60034237	-72.2277953	-129.1369778	-57
16454	0	0.376649857	-0.08078289	0.079032898	0.999999046	0.000396729	-0.000240326	0.000727654	9.416246414	-2.019572258	1.975822449	0.019836428	-0.012016298	0.03638268	-0.622558594	0.042236328	0.747558594	877.9	-48.71631926	-72.19959446	-128.9560819	-57
16455	0	0.37701416	-0.08203125	0.078491211	0.999999046	-0.000408173	-6.77E-05	0.000793457	9.425354004	-2.05078125	1.962280273	-0.020408633	-0.003385544	0.039672857	-0.620117188	0.041992188	0.744628906	877.9	-48.89331955	-72.15270115	-128.8081966	-57
16456	0	0.375361443	-0.086964607	0.079405785	0.999999046	-6.39E-05	2.10E-05	0.000984192	9.384036064	-2.174115181	1.985144615	-0.003194809	0.001049042	0.049209603	-0.620117188	0.044189453	0.744628906	877.94	-49.05124923	-72.08243875	-128.638876	-57
16457	0	0.376403809	-0.084411621	0.077819824	0.999999046	0.000896454	2.38E-05	0.000953674	9.410095215	-2.110290527	1.945495605	0.044822706	0.001192093	0.047683729	-0.620117188	0.046386719	0.741455078	877.9	-49.09074372	-72.0146373	-128.4785765	-57
16458	0	0.376662254	-0.086454391	0.07902813	0.999999046	0.000371933	-7.25E-05	0.000679016	9.416556358	-2.161359787	1.975703239	0.018596651	-0.003623963	0.033950809	-0.620361328	0.046386719	0.747314453	877.84	-49.15251769	-71.97785013	-128.3582261	-57
16459	0	0.374938965	-0.083374023	0.078063965	0.999999046	0.000892639	-1.05E-05	0.000522614	9.373474121	-2.084350586	1.951599121	0.044631966	-0.000524521	0.026130681	-0.620605469	0.05078125	0.746826172	877.94	-49.10214379	-71.95012819	-128.2927236	-58
16460	0	0.376318932	-0.082163811	0.078201294	0.999999046	0.00014782	-0.00025177	0.000743866	9.407973289	-2.054095268	1.955032349	0.007390977	-0.012588502	0.037193302	-0.620361328	0.048583984	0.747070313	877.9	-49.25204439	-71.92150652	-128.1069471	-58
16461	0	0.375366211	-0.083251953	0.078308105	0.999999046	-0.000679016	-9.82E-05	0.000743866	9.384155273	-2.081298828	1.957702637	-0.033950811	-0.004911424	0.037193305	-0.620361328	0.05078125	0.743896484	877.84	-49.45534382	-71.88140972	-127.9642214	-58
16462	0	0.374949455	-0.085260391	0.079032898	0.999999046	-0.000574112	-0.000192642	0.000880241	9.373736382	-2.131509781	1.975822449	-0.028705602	-0.009632112	0.044012078	-0.620361328	0.05078125	0.743896484	878.04	-49.70203442	-71.83631903	-127.7633188	-58
16463	0	0.377990723	-0.084533691	0.08001709	0.999999046	-0.000999451	-0.000311852	0.000862122	9.449768066	-2.113342285	2.000427246	-0.049972549	-0.01559258	0.043106092	-0.620605469	0.052978516	0.746582031	877.88	-50.02391479	-71.80143189	-127.5341774	-58
16464	0	0.381674767	-0.087305069	0.079543114	0.999999046	-0.000571251	-6.48E-05	0.000270844	9.541869164	-2.182626724	1.988577843	-0.028562548	-0.003242493	0.013542176	-0.618164063	0.05078125	0.743896484	877.96	-50.09792298	-71.80017356	-127.5147278	-58
16465	0	0.376281738	-0.084899902	0.079650879	0.999999046	0.000370026	5.05E-05	-0.000301361	9.407043457	-2.122497559	1.991271973	0.018501282	0.002527237	-0.015068055	-0.618164063	0.05078125	0.743896484	877.94	-49.904727	-71.84075278	-127.6629814	-58
16466	0	0.375349045	-0.087362289	0.079568863	0.999999046	0.000984192	-0.000278473	-0.000259399	9.38372612	-2.184057236	1.989221573	0.049209604	-0.013923648	-0.012969973	-0.620605469	0.05078125	0.746826172	877.96	-49.73801421	-71.90183004	-127.7095338	-58
16467	0	0.378540039	-0.084960938	0.078491211	0.999999046	0.001205444	-3.72E-05	-0.000190735	9.463500977	-2.124023438	1.962280273	0.060272232	-0.001859665	-0.009536746	-0.618164063	0.05078125	0.746826172	877.9	-49.49642485	-71.93910377	-127.8082166	-58
16468	0	0.37393856	-0.082495689	0.077807426	0.999999046	0.00051403	-1.91E-06	-0.000390053	9.348464012	-2.062392235	1.945185661	0.025701525	-9.54E-05	-0.019502641	-0.620605469	0.052978516	0.743896484	877.94	-49.27831646	-71.99113333	-127.9652257	-58
16469	0	0.377563477	-0.085327148	0.078369141	0.999999046	-5.72E-05	-0.000308037	1.14E-05	9.439086914	-2.133178711	1.959228516	-0.002861023	-0.01540184	0.000572205	-0.620605469	0.052978516	0.743896484	877.84	-49.29962761	-72.03115961	-127.9394186	-58
16470	0	0.37693882	-0.082476616	0.079651833	0.999999046	0.000108719	-8.77E-05	-0.000332832	9.423470497	-2.061915398	1.991295815	0.005435944	-0.004386902	-0.016641617	-0.618164063	0.05078125	0.743896484	877.9	-49.16308816	-72.08469652	-128.0597583	-58
16471	0	0.375732422	-0.080444336	0.078552246	0.999999046	-0.000148773	-5.63E-05	-0.000228882	9.393310547	-2.011108398	1.963806152	-0.00743866	-0.002813339	-0.011444092	-0.620605469	0.055175781	0.743652344	877.96	-49.07087472	-72.12697075	-128.1637422	-58
16472	0	0.378404617	-0.086521149	0.079031944	0.999999046	0.000130653	-0.000167847	-0.000435829	9.460115433	-2.163028717	1.975798607	0.006532669	-0.008392334	-0.021791459	-0.618164063	0.05078125	0.746826172	877.9	-48.92812931	-72.19542265	-128.2880383	-58
16473	0	0.375244141	-0.082092285	0.077514648	0.999999046	0.000209808	0.000115395	-0.000453949	9.381103516	-2.052307129	1.937866211	0.010490418	0.00576973	-0.02269745	-0.615722656	0.050537109	0.743652344	877.9	-48.69494968	-72.24403919	-128.4975923	-58
16474	0	0.375423431	-0.083001137	0.07714653	0.999999046	-0.000961304	-3.62E-05	-0.000248909	9.385585785	-2.075028419	1.928663254	-0.048065193	-0.001811981	-0.012445452	-0.618164063	0.05078125	0.746826172	877.96	-48.68478715	-72.28639463	-128.613663	-58
16475	0	0.376403809	-0.086364746	0.07989502	0.999998093	-0.001688957	-3.81E-05	-0.000141144	9.410095215	-2.159118652	1.997375488	-0.084447901	-0.00190735	-0.007057193	-0.618164063	0.048583984	0.749755859	877.9	-48.78424171	-72.3194627	-128.7023104	-57
16476	0	0.376922607	-0.088608742	0.081092834	0.999998093	-0.000236511	-0.000397682	-0.001408577	9.423065186	-2.215218544	2.027320862	-0.011825566	-0.019884117	-0.070428874	-0.617919922	0.044189453	0.747314453	877.9	-48.51195108	-72.48844087	-129.0069169	-57
16477	0	0.375488281	-0.078735352	0.081298828	0.999997139	0.000545502	-0.000250816	-0.001991272	9.387207031	-1.968383789	2.032470703	0.027275105	-0.012540826	-0.09956367	-0.617919922	0.044189453	0.744384766	877.94	-47.96033413	-72.69535222	-129.5096168	-57
16478	0	0.38052845	-0.075000763	0.07722187	0.999998093	0.000281334	-0.000161171	-0.001396179	9.51321125	-1.875019073	1.930546761	0.014066701	-0.008058551	-0.069808984	-0.615478516	0.041748047	0.744384766	877.96	-47.55115085	-72.8438853	-129.8945063	-57
16479	0	0.379760742	-0.080932617	0.076660156	0.999999046	-0.000778198	-2.57E-05	-0.000900269	9.494018555	-2.02331543	1.916503906	-0.038909921	-0.001287461	-0.045013438	-0.617675781	0.037597656	0.747802734	877.96	-47.3463321	-72.93945012	-130.1927497	-57
16480	0	0.374611855	-0.087153435	0.076931	0.999999046	-0.000533104	-1.34E-05	-0.000228882	9.365296364	-2.178835869	1.923274994	-0.026655199	-0.000667572	-0.011444092	-0.615234375	0.035400391	0.747802734	878	-47.27964044	-72.97694574	-130.3172025	-57
16481	0	0.377990723	-0.084228516	0.078491211	0.999999046	0.000106812	-0.000208855	0.000205994	9.449768066	-2.105712891	1.962280273	0.005340576	-0.010442734	0.010299683	-0.617675781	0.037597656	0.747802734	877.96	-47.30446551	-72.99277395	-130.2691217	-57
16482	0	0.377929688	-0.080644608	0.08079052	0.999998093	0.001769066	-0.000332832	0.000193596	9.448242188	-2.016115189	2.019762993	0.088453341	-0.016641626	0.0096798	-0.617675781	0.037597656	0.744873047	878	-47.1699554	-73.01914705	-130.1890454	-57
16483	0	0.378356934	-0.076721191	0.078369141	0.999998093	0.001393318	-7.25E-05	-2.29E-05	9.45892334	-1.918029785	1.959228516	0.069665931	-0.003623964	-0.00114441	-0.615234375	0.037353516	0.744873047	877.94	-46.95147437	-73.04350772	-130.241827	-57
16484	0	0.375380516	-0.079539299	0.078047752	0.999999046	0.001229286	-7.63E-06	0.000166893	9.384512901	-1.988482475	1.95119381	0.061464325	-0.00038147	0.008344652	-0.615478516	0.041748047	0.744384766	877.82	-46.78297744	-73.04679298	-130.2615302	-57
16485	0	0.377807617	-0.080444336	0.077514648	0.999999046	0.000637054	-0.000155449	0.000156403	9.44519043	-2.011108398	1.937866211	0.031852725	-0.007772446	0.00782013	-0.615478516	0.043945313	0.744384766	877.96	-46.72083346	-73.06249173	-130.2410676	-57
16486	0	0.376158714	-0.078997612	0.07853508	0.999999046	-0.000289917	-4.96E-05	0.00031662	9.403967857	-1.9749403	1.963376999	-0.01449585	-0.002479553	0.015830994	-0.61328125	0.043945313	0.747070313	877.88	-46.77758723	-73.0564256	-130.2074678	-57
16487	0	0.377319336	-0.080078125	0.078186035	0.999999046	0.000225067	3.91E-05	0.000495911	9.432983398	-2.001953125	1.954650879	0.011253357	0.001955032	0.024795533	-0.615478516	0.044189453	0.747070313	877.88	-46.79764168	-73.02833045	-130.1509021	-57
16488	0	0.377175331	-0.077732086	0.078310013	0.999999046	-0.000290871	-3.81E-05	0.000712395	9.429383278	-1.943302155	1.95775032	-0.014543535	-0.001907349	0.035619739	-0.615478516	0.044189453	0.75	877.9	-46.95339559	-72.9881572	-130.0142947	-57
16489	0	0.376098633	-0.079833984	0.078369141	0.999999046	-0.000774384	9.25E-05	0.000686646	9.40246582	-1.995849609	1.959228516	-0.038719184	0.004625321	0.034332282	-0.615478516	0.041748047	0.744384766	877.9	-47.12186204	-72.93974051	-129.9226901	-57
16490	0	0.376281738	-0.078155518	0.079903603	0.999999046	-0.001041412	0.000167847	0.000564575	9.407043457	-1.953887939	1.997590065	-0.05207063	0.008392336	0.028228767	-0.615478516	0.041992188	0.747314453	877.94	-47.26855182	-72.89558495	-129.885473	-58
16491	0	0.378173828	-0.080383301	0.079772949	0.999999046	-0.001121521	0.000218391	0.00056839	9.454345703	-2.00958252	1.99432373	-0.056076065	0.010919574	0.028419502	-0.61328125	0.043945313	0.749755859	877.88	-47.4111764	-72.8470607	-129.861675	-57
16492	0	0.377922058	-0.082828522	0.082132339	0.999999046	-0.000994682	0.000282288	0.00031662	9.448051453	-2.070713043	2.053308487	-0.049734125	0.014114383	0.015830997	-0.613037109	0.041748047	0.747070313	877.9	-47.45834639	-72.81457071	-129.9230681	-57
16493	0	0.375305176	-0.084350586	0.08026123	0.999999046	-6.87E-05	0.000172615	0.000232697	9.382629395	-2.108764648	2.006530762	-0.003433228	0.008630753	0.011634827	-0.615234375	0.039550781	0.744628906	877.88	-47.40883329	-72.79740756	-129.9751409	-57
16494	0	0.375239372	-0.08154583	0.080012321	0.999999046	0.00028801	0.000169754	0.00037384	9.380984306	-2.038645744	2.000308037	0.014400483	0.008487702	0.018692017	-0.617675781	0.039794922	0.744628906	877.84	-47.35487343	-72.76842827	-129.989076	-57
16495	0	0.375610352	-0.081970215	0.080505371	0.999999046	-0.000419617	5.44E-05	0.000682831	9.390258789	-2.049255371	2.012634277	-0.020980837	0.002717972	0.034141544	-0.617675781	0.039794922	0.744628906	877.96	-47.49062478	-72.72218953	-129.8891861	-57
16496	0	0.376342773	-0.082735062	0.080353737	0.999999046	0.000247002	3.62E-05	0.000541687	9.408569336	-2.068376541	2.008843422	0.012350083	0.001811981	0.027084352	-0.613037109	0.039550781	0.747314453	878	-47.51960456	-72.68910958	-129.8210865	-57
16497	0	0.376647949	-0.081359863	0.079528809	0.999999046	0.000156403	0.000287056	0.000125885	9.41619873	-2.033996582	1.988220215	0.00782013	0.014352799	0.006294251	-0.615234375	0.039550781	0.741699219	877.9	-47.38791464	-72.67168909	-129.9323069	-57
16498	0	0.374139786	-0.079110146	0.080438614	0.999999046	-0.000844955	0.000217438	0.000288963	9.353494644	-1.977753639	2.010965347	-0.042247778	0.010871889	0.014448168	-0.613037109	0.041748047	0.747070313	878	-47.4302636	-72.64586744	-129.9807883	-57
16499	0	0.377624512	-0.086669922	0.080383301	0.999999046	-0.000545502	-0.000178337	4.58E-05	9.440612793	-2.166748047	2.00958252	-0.027275087	-0.008916855	0.002288818	-0.615234375	0.039550781	0.744628906	877.9	-47.48557655	-72.67102131	-129.9804243	-57
16500	0	0.375264168	-0.083679199	0.079974174	0.999999046	-0.000285149	8.39E-05	1.53E-05	9.381604195	-2.09197998	1.999354362	-0.014257431	0.004196167	0.000762939	-0.617675781	0.039794922	0.744628906	878	-47.43284485	-72.67828832	-130.0620028	-57
16501	0	0.37487793	-0.085449219	0.079467773	0.999999046	-0.000522614	-0.000174522	0.000358582	9.371948242	-2.136230469	1.986694336	-0.026130678	-0.008726121	0.017929078	-0.613037109	0.039550781	0.747314453	878	-47.56318941	-72.67638048	-129.9802746	-57
16502	0	0.376430511	-0.086474419	0.079610825	0.999999046	0.000343323	-9.73E-05	0.000380516	9.410762787	-2.161860466	1.990270615	0.017166138	-0.004863739	0.019025803	-0.615234375	0.041748047	0.741699219	878.08	-47.5794586	-72.66641232	-129.9142849	-57
16503	0	0.37713623	-0.08190918	0.079345703	0.999999046	0.000816345	0.000138283	0.00018692	9.428405762	-2.047729492	1.983642578	0.040817266	0.00691414	0.009346009	-0.615234375	0.039550781	0.741699219	877.94	-47.42996786	-72.65459058	-129.9657027	-57
16504	0	0.375069618	-0.080698967	0.079763412	0.999999046	0.000620842	6.48E-05	0.000198364	9.376740456	-2.017474174	1.994085312	0.031042101	0.003242493	0.009918214	-0.615234375	0.039550781	0.741699219	877.94	-47.32570215	-72.64747403	-129.9931437	-57
16505	0	0.378540039	-0.081237793	0.079223633	0.999999046	-0.00062561	0.000161171	-7.63E-05	9.463500977	-2.030944824	1.98059082	-0.03128052	0.008058549	-0.003814698	-0.615234375	0.041748047	0.741699219	877.9	-47.27018607	-72.65604065	-130.1186014	-57
16506	0	0.377428055	-0.082379341	0.07972908	0.999999046	-0.000648499	-3.81E-06	-0.000245094	9.43570137	-2.059483528	1.993227005	-0.032424929	-0.000190735	-0.012254716	-0.613037109	0.041748047	0.741455078	877.84	-47.21974553	-72.69156892	-130.2414786	-57
16507	0	0.37487793	-0.082336426	0.078918457	0.999999046	-0.000617981	1.24E-05	-0.000461578	9.371948242	-2.058410645	1.972961426	-0.030899051	0.000619888	-0.023078921	-0.617675781	0.037597656	0.747802734	877.96	-47.10708197	-72.74390756	-130.4264787	-57
16508	0	0.3770895	-0.083796501	0.079616547	0.999999046	-0.000662804	-9.35E-05	-0.000355721	9.427237511	-2.094912529	1.990413666	-0.033140186	-0.004673005	-0.017786028	-0.615234375	0.039550781	0.744628906	877.94	-47.05448544	-72.7954227	-130.5534252	-57
16509	0	0.375976563	-0.080505371	0.079528809	0.999999046	-0.000759125	0.00017643	-0.000221252	9.399414063	-2.012634277	1.988220215	-0.037956242	0.008821488	-0.011062623	-0.617431641	0.035400391	0.739257813	877.84	-46.97339265	-72.81449998	-130.7224001	-57
16510	0	0.375862122	-0.081376076	0.079597473	0.999997139	-0.00223732	0.000196457	9.82E-05	9.39655304	-2.034401894	1.989936829	-0.111866092	0.009822854	0.004911427	-0.617431641	0.033203125	0.745361328	877.96	-47.13705045	-72.8051657	-130.8121775	-57
16511	0	0.376586914	-0.085327148	0.080627441	0.999997139	-0.002304077	0.000157356	3.81E-05	9.414672852	-2.133178711	2.015686035	-0.11520396	0.00786782	0.00190735	-0.6171875	0.031005859	0.745361328	877.9	-47.30423778	-72.8037471	-130.906257	-57
16512	0	0.375576973	-0.08464241	0.083285332	0.999997139	-0.00196743	5.34E-05	-8.49E-05	9.389424324	-2.116060257	2.082133293	-0.098371569	0.00267029	-0.004243853	-0.6171875	0.028808594	0.745605469	877.9	-47.43018505	-72.82051009	-131.0031805	-57
16513	0	0.377197266	-0.089599609	0.081359863	0.999999046	-0.000915527	-0.000170708	-0.000217438	9.429931641	-2.239990234	2.033996582	-0.045776374	-0.008535386	-0.010871889	-0.619384766	0.022216797	0.749023438	877.88	-47.46425634	-72.86546125	-131.0709591	-57
16514	0	0.37720108	-0.086715698	0.081009865	0.999999046	7.06E-05	-3.43E-05	-0.000481606	9.430027008	-2.167892456	2.02524662	0.003528595	-0.001716614	-0.024080277	-0.616943359	0.022216797	0.743408203	877.98	-47.28143251	-72.92179515	-131.2471763	-57
16515	0	0.375366211	-0.086364746	0.080566406	0.999999046	0.000118256	-0.000109673	-0.000217438	9.384155273	-2.159118652	2.014160156	0.005912781	-0.005483627	-0.010871887	-0.619384766	0.024414063	0.74609375	877.94	-47.18039305	-72.9613535	-131.3318779	-57
16516	0	0.376702309	-0.085633278	0.079586983	0.999999046	0.000470161	-0.000160217	-5.82E-05	9.417557716	-2.140831947	1.989674568	0.023508073	-0.008010865	-0.002908707	-0.621582031	0.022460938	0.749267578	877.94	-47.09368754	-72.99122258	-131.3599182	-57
16517	0	0.375244141	-0.081420898	0.079345703	0.999999046	0.000286102	-0.000151634	6.10E-05	9.381103516	-2.035522461	1.983642578	0.014305115	-0.007581711	0.003051758	-0.614501953	0.024169922	0.742919922	877.94	-47.05617455	-73.01033699	-131.3582556	-57
16518	0	0.378919601	-0.081789017	0.078909874	0.999999046	0	0.000133514	7.15E-05	9.472990036	-2.044725418	1.972746849	0	0.00667572	0.003576279	-0.619384766	0.024414063	0.74609375	877.96	-46.97611435	-73.0062691	-131.4355347	-57
16519	0	0.37701416	-0.084106445	0.08001709	0.999999046	0.000148773	6.20E-05	-9.54E-05	9.425354004	-2.102661133	2.000427246	0.00743866	0.003099442	-0.004768372	-0.619384766	0.022216797	0.746337891	877.88	-46.85626762	-73.02155219	-131.5369136	-57
16520	0	0.376104355	-0.081936836	0.077950478	0.999999046	0.000527382	-0.000148773	0.00019455	9.402608871	-2.048420906	1.94876194	0.026369096	-0.00743866	0.009727479	-0.614501953	0.024169922	0.742919922	877.88	-46.82554252	-73.02904713	-131.4995049	-57
16521	0	0.37713623	-0.080505371	0.078918457	0.999999046	-0.000118256	5.05E-05	0.000270844	9.428405762	-2.012634277	1.972961426	-0.005912781	0.002527237	0.013542175	-0.619384766	0.022216797	0.746337891	877.84	-46.83399283	-73.01453605	-131.4988599	-57
16522	0	0.37757206	-0.081278801	0.078753471	0.999999046	-0.000530243	0.000114441	0.000311852	9.439301491	-2.031970024	1.968836784	-0.026512148	0.005722046	0.015592576	-0.616943359	0.024414063	0.743164063	877.9	-46.88292756	-72.99156875	-131.5048307	-57
16523	0	0.377319336	-0.083312988	0.078308105	0.999999046	-0.000217438	5.44E-05	0.000347137	9.432983398	-2.082824707	1.957702637	-0.010871888	0.002717972	0.017356873	-0.619384766	0.022216797	0.749023438	877.96	-46.9219627	-72.97027768	-131.4840926	-57
16524	0	0.377070427	-0.081839561	0.079654694	0.999999046	-0.000119209	2.67E-05	0.000163078	9.426760674	-2.045989037	1.99136734	-0.005960465	0.001335144	0.008153915	-0.616943359	0.026611328	0.742919922	877.9	-46.91040149	-72.9664956	-131.5039929	-57
16525	0	0.375366211	-0.081176758	0.079589844	0.999999046	-1.91E-05	-0.000128746	0.000156403	9.384155273	-2.029418945	1.989746094	-0.000953674	-0.006437302	0.007820129	-0.621826172	0.026611328	0.743164063	877.96	-46.92822967	-72.97538285	-131.4815384	-57
16526	0	0.378107071	-0.083190918	0.079182625	0.999999046	-0.000101089	-0.000125885	-2.67E-05	9.452676773	-2.079772949	1.97956562	-0.005054474	-0.006294251	-0.001335144	-0.619384766	0.024414063	0.740478516	878	-46.90824032	-72.9992961	-131.5087417	-57
16527	0	0.375610352	-0.082458496	0.078979492	0.999999046	-0.000499725	1.62E-05	-6.10E-05	9.390258789	-2.061462402	1.974487305	-0.024986268	0.000810623	-0.003051758	-0.619384766	0.024414063	0.743164063	877.94	-46.8864818	-73.01486374	-131.5853997	-57
16528	0	0.375556946	-0.08468914	0.078783989	0.999999046	-0.000475883	-0.000143051	0.000136375	9.388923645	-2.117228508	1.969599724	-0.023794175	-0.007152558	0.006818772	-0.621582031	0.022216797	0.746337891	877.94	-46.95681587	-73.02621255	-131.5632141	-57
16529	0	0.376403809	-0.081787109	0.079772949	0.999999046	-0.000549316	-0.000117302	0.000267029	9.410095215	-2.044677734	1.99432373	-0.027465822	-0.005865097	0.013351441	-0.619140625	0.022216797	0.743408203	877.96	-47.06208259	-73.02450463	-131.5131726	-57
16530	0	0.376440048	-0.081404686	0.079289436	0.999999046	-7.44E-05	-0.000181198	0.000243187	9.411001205	-2.035117149	1.982235909	-0.00371933	-0.009059906	0.012159348	-0.616943359	0.020019531	0.746337891	877.84	-47.12446297	-73.02971334	-131.451268	-57
16531	0	0.377319336	-0.082580566	0.078979492	0.999999046	-0.000671387	-7.15E-05	0.000118256	9.432983398	-2.06451416	1.974487305	-0.033569339	-0.003576279	0.005912781	-0.616943359	0.022216797	0.74609375	877.88	-47.19340744	-73.03678566	-131.4536642	-57
16532	0	0.377859116	-0.086745262	0.080272675	0.999999046	0.000166893	-1.91E-05	-0.000214577	9.44647789	-2.168631554	2.006816864	0.00834465	-0.000953674	-0.010728836	-0.616943359	0.022216797	0.749023438	877.94	-47.06720313	-73.06746441	-131.5598444	-57
16533	0	0.375	-0.081176758	0.077453613	0.999999046	0.000946045	-0.000124931	-0.000259399	9.375	-2.029418945	1.936340332	0.047302254	-0.006246568	-0.012969973	-0.619140625	0.022216797	0.743408203	877.94	-46.86910255	-73.11009049	-131.6481583	-57
16534	0	0.375246048	-0.0834589	0.078432083	0.999999046	-0.000598907	-8.96E-05	9.16E-05	9.381151199	-2.086472511	1.960802078	-0.029945375	-0.00448227	0.004577637	-0.619140625	0.022216797	0.743408203	877.9	-46.92901511	-73.12043116	-131.6517436	-57
16535	0	0.37701416	-0.085266113	0.079650879	0.999999046	8.01E-05	-0.000273705	0.000335693	9.425354004	-2.131652832	1.991271973	0.004005432	-0.013685227	0.016784669	-0.614501953	0.020019531	0.749023438	878.02	-47.02540003	-73.12449783	-131.536123	-57
16536	0	0.375293732	-0.082026482	0.079396248	0.999999046	9.06E-05	-0.000371933	9.54E-05	9.382343292	-2.050662041	1.984906197	0.004529953	-0.01859665	0.004768372	-0.614501953	0.021972656	0.74609375	877.9	-47.08609745	-73.15624291	-131.4563893	-57
16537	0	0.376953125	-0.08392334	0.079956055	0.999999046	0.000213623	-0.000247002	6.10E-05	9.423828125	-2.098083496	1.998901367	0.010681153	-0.012350083	0.003051758	-0.614501953	0.022216797	0.748779297	877.88	-47.08960539	-73.18093318	-131.4217821	-57
16538	0	0.378567696	-0.083692551	0.077728271	0.999999046	0.000427246	-0.000154495	4.86E-05	9.46419239	-2.092313766	1.943206787	0.021362305	-0.007724762	0.00243187	-0.619384766	0.022216797	0.746337891	877.84	-47.04024486	-73.19937666	-131.4171078	-57
16539	0	0.375488281	-0.082275391	0.078369141	0.999999046	-0.000465393	4.67E-05	2.29E-05	9.387207031	-2.056884766	1.959228516	-0.023269654	0.002336502	0.001144409	-0.616943359	0.022216797	0.74609375	877.94	-47.03081777	-73.20417016	-131.4773995	-57
16540	0	0.376636505	-0.087615013	0.078626633	0.999999046	1.81E-05	-0.00015831	0.000304222	9.415912628	-2.190375328	1.965665817	0.000905991	-0.007915497	0.015211106	-0.616943359	0.022216797	0.74609375	877.9	-47.09656933	-73.20109271	-131.4014695	-57
16541	0	0.377197266	-0.084472656	0.078125	0.999999046	0.001091003	-9.44E-05	-2.29E-05	9.429931641	-2.111816406	1.953125	0.054550182	-0.004720689	-0.001144409	-0.616943359	0.024414063	0.748779297	877.94	-46.93746157	-73.22033688	-131.4319695	-57
16542	0	0.376177788	-0.079097748	0.078164101	0.999999046	0.000631332	5.72E-06	-8.11E-05	9.404444695	-1.977443695	1.954102516	0.031566622	0.000286102	-0.004053116	-0.614746094	0.024169922	0.745849609	878	-46.78778724	-73.23662737	-131.5077467	-57
16543	0	0.376220703	-0.080688477	0.076904297	0.999999046	0.000267029	-0.000113487	7.25E-05	9.405517578	-2.017211914	1.922607422	0.013351441	-0.005674362	0.003623962	-0.616943359	0.024414063	0.74609375	877.9	-46.75307159	-73.24944644	-131.5071191	-57
16544	0	0.378361702	-0.082533836	0.07625103	0.999999046	-0.000367165	-0.000169754	-0.000205994	9.459042549	-2.063345909	1.906275749	-0.018358231	-0.008487702	-0.010299683	-0.614746094	0.024414063	0.751464844	877.9	-46.7344857	-73.28993021	-131.5653824	-57
16545	0	0.377624512	-0.083007813	0.079345703	0.999999046	-0.000667572	3.53E-05	-0.000450134	9.440612793	-2.075195313	1.983642578	-0.033378605	0.001764298	-0.022506716	-0.614746094	0.024414063	0.748779297	877.96	-46.6292113	-73.33448263	-131.7500662	-57
16546	0	0.375191689	-0.083508492	0.078831673	0.999999046	-0.000190735	-0.000324249	-0.000294685	9.379792213	-2.087712288	1.970791817	-0.009536744	-0.016212464	-0.014734269	-0.614746094	0.024169922	0.745849609	877.9	-46.61010991	-73.39413138	-131.7879038	-57
16547	0	0.377746582	-0.085571289	0.078918457	0.999999046	-8.39E-05	-0.000231743	-8.01E-05	9.443664551	-2.139282227	1.972961426	-0.004196167	-0.011587143	-0.004005432	-0.614501953	0.022216797	0.748779297	878.02	-46.61011918	-73.42837782	-131.7932941	-57
16548	0	0.377980232	-0.084486961	0.07988739	0.999999046	0.0007658	3.81E-05	-0.00011158	9.449505806	-2.112174034	1.997184753	0.038290028	0.001907349	-0.005578995	-0.614501953	0.019775391	0.74609375	877.96	-46.42914758	-73.44371467	-131.8862658	-57
16549	0	0.376831055	-0.080993652	0.077514648	0.999999046	0.000938416	-2.96E-05	7.63E-06	9.420776367	-2.024841309	1.937866211	0.046920783	-0.001478195	0.00038147	-0.614746094	0.022216797	0.751708984	877.88	-46.27910372	-73.45440047	-131.9260035	-57
16550	0	0.377810478	-0.083353043	0.079844475	0.999999046	0.001306534	-7.44E-05	-0.000106812	9.445261955	-2.083826065	1.99611187	0.065326709	-0.003719331	-0.005340578	-0.614746094	0.024169922	0.745849609	877.84	-46.06896505	-73.47787051	-131.9845079	-57
16551	0	0.377868652	-0.079772949	0.079162598	0.999998093	0.001706123	-9.16E-05	-0.000335693	9.446716309	-1.99432373	1.979064941	0.085306211	-0.004577639	-0.016784676	-0.614746094	0.026367188	0.745605469	877.96	-45.75577563	-73.52142709	-132.1027092	-57
16552	0	0.377385139	-0.078036308	0.077162743	0.999999046	0.001185417	-9.54E-06	-0.000275612	9.434628487	-1.950907707	1.929068565	0.059270873	-0.000476837	-0.013780597	-0.614990234	0.028808594	0.748291016	877.9	-45.49501045	-73.55338682	-132.2283319	-57
16553	0	0.376037598	-0.078308105	0.077575684	0.999999046	0.00062561	-7.53E-05	-2.29E-05	9.400939941	-1.957702637	1.93939209	0.03128052	-0.003767014	-0.001144409	-0.614990234	0.031005859	0.748291016	877.96	-45.38520865	-73.56989234	-132.2633925	-57
16554	0	0.378005981	-0.079413414	0.078959465	0.999999046	-0.000541687	-0.000312805	0.000205994	9.450149536	-1.98533535	1.973986626	-0.027084353	-0.01564026	0.010299683	-0.617431641	0.033203125	0.745361328	877.96	-45.53763656	-73.58672725	-132.1644685	-57
16555	0	0.379272461	-0.082702637	0.078918457	0.999999046	0.000537872	-0.00026226	-0.000133514	9.481811523	-2.067565918	1.972961426	0.026893617	-0.013113023	-0.006675721	-0.617431641	0.031005859	0.748291016	877.94	-45.46045797	-73.62706399	-132.1764147	-57
16556	0	0.378479958	-0.082335472	0.077525139	0.999998093	0.001577377	-0.000260353	-0.00042057	9.46199894	-2.058386803	1.938128471	0.078868902	-0.01301766	-0.021028528	-0.617431641	0.031005859	0.751220703	877.84	-45.18507442	-73.69050611	-132.2709294	-57
16557	0	0.376586914	-0.083312988	0.076721191	0.999998093	0.001618385	-0.0001297	-0.000831604	9.414672852	-2.082824707	1.918029785	0.080919311	-0.006484989	-0.041580223	-0.612792969	0.032958984	0.750732422	877.94	-44.75385957	-73.77630882	-132.5226963	-57
16558	0	0.378098488	-0.090075493	0.073986053	0.999998093	0.001580238	-0.000313759	-0.001041412	9.452462196	-2.251887321	1.849651337	0.079011966	-0.015687952	-0.05207065	-0.615234375	0.033203125	0.750976563	877.88	-44.31760792	-73.89315766	-132.7845063	-57
16559	0	0.377380371	-0.088867188	0.07043457	0.999993324	0.003200531	-0.000384331	-0.001529694	9.434509277	-2.221679688	1.760864258	0.16002689	-0.019216578	-0.076484842	-0.614990234	0.03515625	0.744873047	877.94	-43.57143388	-74.05372061	-133.1757102	-57
16560	0	0.374998093	-0.08105278	0.069265366	0.999995232	0.002518654	-0.000722885	-0.001318932	9.374952316	-2.026319504	1.73163414	0.125932874	-0.036144308	-0.065946674	-0.613037109	0.039550781	0.750244141	877.94	-43.05079439	-74.22479513	-133.413148	-58
16561	0	0.376037598	-0.085144043	0.070617676	0.999998093	0.000397682	-0.000713348	-0.001438141	9.400939941	-2.128601074	1.765441895	0.019884119	-0.035667436	-0.071907076	-0.613037109	0.039550781	0.747314453	877.9	-42.73055461	-74.40370131	-133.6949169	-59
16562	0	0.37789917	-0.082111359	0.06849575	0.999998093	-0.000569344	-0.000496864	-0.001522064	9.447479248	-2.052783966	1.712393761	-0.028467192	-0.024843228	-0.076103247	-0.610595703	0.037353516	0.747314453	877.94	-42.43118869	-74.57040219	-134.0699764	-60
16563	0	0.37487793	-0.079589844	0.071166992	0.999987602	-0.004714966	-0.000353813	-0.001441956	9.371948242	-1.989746094	1.779174805	-0.235749251	-0.017690731	-0.072098072	-0.610351563	0.03515625	0.744628906	878	-42.5885823	-74.71855404	-134.4633468	-60
16564	0	0.376000404	-0.095161438	0.07628727	0.999987602	-0.004466057	-0.000932693	-0.001776695	9.400010109	-2.37903595	1.90718174	-0.223303733	-0.04663486	-0.088835118	-0.612304688	0.024169922	0.745849609	877.88	-42.77967835	-74.94090255	-134.7928645	-61
16565	0	0.380249023	-0.080810547	0.076477051	0.999995232	-0.001247406	-0.000769615	-0.002597809	9.506225586	-2.020263672	1.91192627	-0.062370393	-0.038480816	-0.129890634	-0.609619141	0.015380859	0.749267578	877.9	-42.28797347	-75.2124619	-135.44737	-63
16566	0	0.375335693	-0.088208199	0.075798035	0.999993324	0.000822067	-0.000902176	-0.0032444	9.383392334	-2.205204964	1.894950867	0.041103445	-0.045108886	-0.162220326	-0.611816406	0.010986328	0.749755859	877.88	-41.36262492	-75.54186566	-136.3043282	-65
16567	0	0.375427246	-0.083374023	0.079345703	0.999992371	0.001496315	-0.001049042	-0.00320816	9.385681152	-2.084350586	1.983642578	0.07481592	-0.052452207	-0.160408384	-0.609375	0.010986328	0.746582031	877.9	-40.37581293	-75.87677187	-137.143552	-67
16568	0	0.370497704	-0.053377151	0.072322845	0.999970436	0.006920815	7.44E-05	-0.003234863	9.262442589	-1.334428787	1.808071136	0.346044092	0.003719366	-0.161744738	-0.606933594	0.012939453	0.740722656	877.96	-38.37681316	-76.1088198	-138.3845575	-66
16569	0	0.376159668	-0.029724121	0.079406738	0.999992371	0.001713753	0.000827789	-0.003387451	9.403991699	-0.743103027	1.985168457	0.085687853	0.041389569	-0.169372985	-0.612060547	0.017578125	0.746337891	877.96	-36.64991379	-76.2737985	-139.9575402	-65
16570	0	0.390481949	-0.03447628	0.086156845	0.999918938	-0.012424469	0.00154686	-0.002210617	9.762048721	-0.861907005	2.153921127	-0.621240187	0.077345071	-0.110533831	-0.614013672	0.008789063	0.741455078	877.9	-36.75921419	-76.28712268	-141.3062931	-64
16571	0	0.399414063	-0.034240723	0.092529297	0.999772072	-0.020915985	0.003956795	-0.000904083	9.985351563	-0.856018066	2.313232422	-1.045878395	0.197854708	-0.045207583	-0.617675781	-0.015136719	0.740722656	877.88	-37.65647844	-75.9929295	-142.846238	-63
16572	0	0.376955986	-0.055041313	0.089307785	0.999423027	-0.033385277	0.00520134	-0.003274918	9.423899651	-1.376032829	2.232694626	-1.669584604	0.26011696	-0.163777345	-0.629882813	-0.052246094	0.727294922	877.9	-38.79055305	-75.7607963	-145.6171215	-63
16573	0	0.383728027	-0.103881836	0.09588623	0.999739647	-0.020999908	0.005036354	-0.007362366	9.593200684	-2.597045898	2.397155762	-1.050086542	0.251839556	-0.368150232	-0.632080078	-0.104736328	0.720214844	877.9	-37.11721605	-75.82643958	-149.8231773	-61
16574	0	0.375580788	-0.072881699	0.098713875	0.999903679	-0.00759697	0.004404068	-0.010718346	9.389519691	-1.822042465	2.46784687	-0.379860636	0.220210447	-0.535934432	-0.642333984	-0.137451172	0.712158203	877.9	-32.74942053	-76.1162042	-155.2207432	-61
16575	0	0.360412598	-0.069702148	0.09387207	0.999894142	-0.005443573	0.00275898	-0.013156891	9.010314941	-1.742553711	2.346801758	-0.272188193	0.137953827	-0.657867608	-0.643554688	-0.159423828	0.699707031	877.96	-27.29207983	-76.59512888	-161.4762669	-62
16576	0	0.363455772	-0.073279381	0.084528923	0.999902725	-0.002389908	0.001168251	-0.013626099	9.08639431	-1.83198452	2.113223076	-0.119499231	0.058414429	-0.68132682	-0.649414063	-0.183349609	0.690429688	878	-21.18864976	-77.11066089	-168.0238354	-62
16577	0	0.375366211	-0.074401855	0.081054688	0.999911308	0.002792358	-0.00058651	-0.012939453	9.384155273	-1.860046387	2.026367188	0.139622006	-0.029326343	-0.646991589	-0.644042969	-0.203369141	0.697509766	877.88	-14.62924385	-77.62551646	-174.4175881	-64
16578	0	0.380869865	-0.055399895	0.078382492	0.99992466	0.002511978	-0.001554489	-0.01184845	9.521746635	-1.384997368	1.959562302	0.125602029	-0.077726389	-0.592437209	-0.645996094	-0.214111328	0.698486328	877.9	-8.301890223	-78.06397667	179.4047568	-67
16579	0	0.382324219	-0.054260254	0.080810547	0.999940872	-0.002577782	-0.002586365	-0.010204315	9.558105469	-1.356506348	2.020263672	-0.128891607	-0.129320769	-0.510225748	-0.640869141	-0.223144531	0.696044922	877.96	-3.124609833	-78.46863438	173.8157863	-66
16580	0	0.382372856	-0.060651779	0.084974289	0.999941826	-0.00470829	-0.003726959	-0.008925438	9.559321404	-1.516294479	2.124357224	-0.235419046	-0.186351556	-0.446280504	-0.637939453	-0.238525391	0.700195313	877.96	1.411544916	-78.90398085	168.6393085	-61
16581	0	0.373474121	-0.062866211	0.091247559	0.999931335	-0.006396294	-0.004512787	-0.008609772	9.336853027	-1.571655273	2.281188965	-0.3198219	-0.225644436	-0.430498302	-0.630126953	-0.254150391	0.697998047	878	5.953662164	-79.34948293	163.2668899	-60
16582	0	0.371740341	-0.073064804	0.101155281	0.999915123	-0.007926941	-0.005289078	-0.008861542	9.29350853	-1.826620102	2.528882027	-0.396358233	-0.264461352	-0.443089593	-0.622314453	-0.274169922	0.69921875	877.9	10.93705197	-79.79262917	157.274253	-66
16583	0	0.380065918	-0.081726074	0.108947754	0.999938965	-0.003947258	-0.00573349	-0.008560181	9.501647949	-2.043151855	2.723693848	-0.197366904	-0.286680316	-0.428017717	-0.619384766	-0.289794922	0.700439453	877.96	16.68869792	-80.18957768	150.9710416	-62
16584	0	0.405263901	-0.075966835	0.112846375	0.999958992	-0.000647545	-0.005126953	-0.00739193	10.13159752	-1.899170876	2.821159363	-0.032377682	-0.256351132	-0.369601492	-0.614257813	-0.298583984	0.703857422	877.9	22.32842602	-80.45448019	145.1701511	-62
16585	0	0.412414551	-0.062316895	0.113647461	0.99997139	-0.00385952	-0.003818512	-0.005260468	10.31036377	-1.557922363	2.841186523	-0.192977836	-0.190927417	-0.263025882	-0.611816406	-0.302978516	0.709716797	877.96	26.10493802	-80.6014258	140.8915539	-64
16586	0	0.407355309	-0.072052002	0.113329887	0.999977112	-0.005099297	-0.002810478	-0.003326416	10.18388271	-1.801300049	2.833247185	-0.254966739	-0.140524964	-0.166322047	-0.613769531	-0.309570313	0.701660156	878	28.28854828	-80.7102901	138.085297	-66
16587	0	0.432006836	-0.086181641	0.112609863	0.999997139	-0.000423431	-0.001639366	-0.001354218	10.8001709	-2.154541016	2.815246582	-0.021171586	-0.081968372	-0.06771093	-0.618652344	-0.307128906	0.704589844	877.94	29.40705483	-80.79822937	136.9066972	-61
16588	0	0.389115334	-0.042976379	0.098723412	0.999977112	0.00371933	0.002726555	0.004766464	9.727883339	-1.074409485	2.468085289	0.185967855	0.136328743	0.238324959	-0.630859375	-0.295898438	0.698730469	877.94	25.71106107	-80.7707722	141.0834059	-77
16589	0	0.335327148	-0.016174316	0.084655762	0.999865532	0.006072998	0.004494667	0.014499664	8.383178711	-0.40435791	2.116394043	0.303663433	0.224743367	0.72501552	-0.650390625	-0.269042969	0.688964844	877.88	15.39655918	-80.86273843	152.2308615	-66
16590	0	0.375974655	-0.037457466	0.073970795	0.99968338	0.01488018	0.004906654	0.019670486	9.399366379	-0.936436653	1.849269867	0.744087462	0.245358584	0.983628019	-0.67578125	-0.219970703	0.677734375	877.9	2.608925592	-80.63963015	166.9069531	-65
16591	0	0.439086914	-0.038391113	0.062927246	0.999500275	0.021832466	0.007350922	0.021636963	10.97717285	-0.959777832	1.573181152	1.091805116	0.367607296	1.082028326	-0.697265625	-0.155517578	0.670654297	877.84	-9.081033802	-79.62330825	-178.682603	-62
16592	0	0.450702667	-0.016292572	0.058243752	0.99943924	0.020065308	0.009919167	0.024899483	11.26756668	-0.407314301	1.456093788	1.003452917	0.496051036	1.245206854	-0.721191406	-0.078125	0.6484375	877.94	-19.38268781	-77.77534691	-165.7736456	-60
16593	0	0.427612305	-0.018188477	0.055236816	0.999515533	0.015271187	0.009914398	0.025222778	10.69030762	-0.454711914	1.38092041	0.763682544	0.495799895	1.261342404	-0.740234375	-0.005371094	0.614990234	878	-27.03805309	-75.54891693	-156.003279	-57
16594	0	0.391428947	-0.013832092	0.053025246	0.999554634	0.010536194	0.009693146	0.026171684	9.785723686	-0.345802307	1.325631142	0.526887861	0.484729201	1.308778381	-0.754394531	0.065185547	0.581298828	877.94	-33.12790562	-73.04451751	-148.3153851	-58
16595	0	0.330810547	-0.034973145	0.051330566	0.99957943	0.009105682	0.008343697	0.026226044	8.270263672	-0.874328613	1.28326416	0.455347908	0.417243281	1.31148591	-0.760742188	0.122070313	0.545410156	877.96	-37.85095973	-70.48469907	-142.2059219	-60
16596	0	0.331547737	-0.044763565	0.056210518	0.999655724	0.012015343	0.005548477	0.022616386	8.288693428	-1.119089127	1.405262947	0.60083591	0.277455618	1.130948774	-0.762451172	0.174560547	0.512695313	877.84	-40.74850639	-68.31899915	-137.6306277	-63
16597	0	0.338989258	-0.047485352	0.059448242	0.999775887	0.010044098	0.004883766	0.017978668	8.474731445	-1.187133789	1.486206055	0.502242398	0.244206544	0.89900054	-0.759277344	0.220214844	0.482910156	877.9	-42.4104432	-66.50541128	-134.5787171	-63
16598	0	0.340138435	-0.058254242	0.065184593	0.999921799	0.004843712	0.002867699	0.011156082	8.503460884	-1.456356049	1.62961483	0.242191896	0.143388665	0.557818625	-0.755126953	0.250732422	0.448730469	877.94	-43.44744744	-65.37055012	-132.8309666	-60
16599	0	0.358703613	-0.075195313	0.072753906	0.999983788	0.004703522	0.000504494	0.003070831	8.967590332	-1.879882813	1.818847656	0.235177333	0.025224819	0.153542379	-0.752929688	0.263671875	0.427490234	877.94	-43.37187008	-65.06685523	-132.3191298	-61
16600	0	0.384046555	-0.075304031	0.077747345	0.99997139	0.005022049	-0.002503395	-0.004952431	9.601163864	-1.882600784	1.943683624	0.251104792	-0.125170923	-0.247623848	-0.750244141	0.263427734	0.41015625	877.88	-42.30957388	-65.64713677	-132.8542774	-60
16601	0	0.399841309	-0.073364258	0.082214355	0.999905586	0.001049042	-0.005461693	-0.012557983	9.996032715	-1.834106445	2.055358887	0.052453737	-0.273093227	-0.627918912	-0.751708984	0.243652344	0.40625	877.94	-40.66893823	-67.05738849	-134.5152568	-59
16602	0	0.406913757	-0.091612816	0.093126297	0.999749184	-0.00166893	-0.010311127	-0.019791603	10.17284393	-2.290320396	2.328157425	-0.083453469	-0.515599378	-0.989662772	-0.752685547	0.212890625	0.400146484	877.94	-38.35641624	-69.40313324	-137.2119737	-60
16603	0	0.44317627	-0.102905273	0.096618652	0.999564171	0.001235962	-0.012454033	-0.026729584	11.07940674	-2.572631836	2.415466309	0.061807071	-0.622792086	-1.336673298	-0.755615234	0.166992188	0.412841797	877.9	-33.47039479	-72.35088534	-142.2343086	-57
16604	0	0.508337021	-0.041360855	0.068276405	0.999508858	-0.009238243	-0.010150909	-0.028149605	12.70842552	-1.034021378	1.706910133	-0.461987695	-0.507628473	-1.407710414	-0.755859375	0.112304688	0.417236328	877.88	-27.00987814	-74.98345792	-150.0692421	-60
16605	0	0.344299316	0.013977051	0.066040039	0.999361992	-0.023601532	-0.009619713	-0.024986267	8.60748291	0.34942627	1.651000977	-1.18032729	-0.48108782	-1.249578754	-0.755371094	0.044189453	0.431396484	877.9	-20.95246257	-77.16047934	-159.0969344	-59
16606	0	0.310482025	-0.012764931	0.074768066	0.999588966	-0.012365341	-0.013187408	-0.022232056	7.762050629	-0.319123268	1.86920166	-0.618351698	-0.659460688	-1.111754957	-0.750488281	-0.023925781	0.442382813	877.84	-12.71563422	-79.35215955	-168.9577851	-59
16607	0	0.411621094	0.018005371	0.052429199	0.999783516	-0.005084991	-0.012007713	-0.01618576	10.29052734	0.450134277	1.31072998	-0.254267883	-0.600428904	-0.809346308	-0.736816406	-0.074707031	0.454589844	877.88	-3.805595245	-80.98664414	-178.5925943	-58
16608	0	0.430845261	-0.014904976	0.067340851	0.999773979	-0.011816978	-0.010662079	-0.01404953	10.77113152	-0.372624397	1.683521271	-0.590893315	-0.533143997	-0.702529281	-0.726074219	-0.112304688	0.468505859	877.94	5.924267668	-82.18406422	170.2035017	-58
16609	0	0.364074707	-0.019104004	0.080993652	0.999872208	-0.006339073	-0.00837326	-0.01203537	9.101867676	-0.477600098	2.024841309	-0.316967139	-0.41868083	-0.601794086	-0.717285156	-0.15625	0.477294922	877.94	16.98695443	-82.85195894	158.3126132	-60
16610	0	0.345181465	-0.013480186	0.072444916	0.999925613	-0.00511837	-0.006993294	-0.008537292	8.629536629	-0.337004662	1.811122894	-0.255924815	-0.349673313	-0.426875153	-0.706542969	-0.189697266	0.482421875	877.9	26.29651166	-83.23383903	148.3419028	-59
16611	0	0.370239258	-0.009033203	0.066162109	0.999956131	-0.006072044	-0.005325317	-0.004699707	9.255981445	-0.225830078	1.654052734	-0.303606637	-0.266269744	-0.234988771	-0.700927734	-0.216064453	0.489990234	877.9	32.1994735	-83.49937724	141.6971253	-60
16612	0	0.355628967	-0.016913414	0.077357292	0.999973297	-0.005592346	-0.004355431	-0.00150013	8.890724182	-0.42283535	1.933932304	-0.279619756	-0.217773435	-0.075007141	-0.697509766	-0.240234375	0.491699219	878.02	35.3033187	-83.81417703	137.9268158	-63
16613	0	0.33972168	-0.032775879	0.090698242	0.999991417	-0.000621796	-0.003909111	0.000244141	8.493041992	-0.819396973	2.267456055	-0.031089864	-0.195456063	0.012207063	-0.691894531	-0.260253906	0.490234375	877.96	37.46967813	-84.18591124	135.67226	-59
16614	0	0.341442108	-0.03030777	0.087931633	0.999991417	0.002811432	-0.002542496	0.001157761	8.536052704	-0.757694244	2.198290825	0.140571962	-0.127125119	0.057888183	-0.696289063	-0.273193359	0.497314453	878	38.42418409	-84.49093806	135.0308775	-61
16615	0	0.359985352	-0.032043457	0.085449219	0.999982834	0.005234718	-0.000812531	0.002361298	8.999633789	-0.801086426	2.136230469	0.261737384	-0.040626754	0.118065542	-0.698242188	-0.284179688	0.50390625	878	37.20084779	-84.72312606	136.8539034	-61
16616	0	0.406899452	-0.033288956	0.081956863	0.999975204	0.006271362	0.000946999	0.002972603	10.17248631	-0.832223892	2.048921585	0.313570679	0.047350317	0.148631358	-0.705078125	-0.290283203	0.510498047	878.02	33.99784175	-84.8245104	140.7822493	-59
16617	0	0.465393066	-0.044372559	0.086181641	0.999991417	0.002162933	0.002079964	0.00258255	11.63482666	-1.109313965	2.154541016	0.10814695	0.103998456	0.12912784	-0.714599609	-0.292236328	0.514160156	877.88	29.86533281	-84.76819524	145.1721732	-58
16618	0	0.492197037	-0.038929939	0.083692551	0.999985695	-0.002357483	0.003965378	0.002415657	12.30492592	-0.973248482	2.092313766	-0.117874678	0.198269786	0.120783398	-0.725830078	-0.302734375	0.515625	877.96	24.51889805	-84.47745772	150.2606388	-61
16619	0	0.468383789	-0.041931152	0.082702637	0.999948502	-0.008910179	0.003612518	0.003055573	11.70959473	-1.048278809	2.067565918	-0.445516514	0.18062898	0.152781217	-0.739257813	-0.317626953	0.514648438	877.96	18.42268711	-84.20476382	155.3491244	-60
16620	0	0.429742813	-0.071988106	0.077544212	0.99997139	-0.001361847	0.006684303	0.0030756	10.74357033	-1.799702644	1.938605309	-0.068092982	0.334218283	0.153781419	-0.752685547	-0.330566406	0.513671875	878.04	12.9168561	-83.54394973	160.7121261	-58
16621	0	0.333679199	-0.027160645	0.048583984	0.999835014	0.011684418	0.010315895	0.009326935	8.34197998	-0.679016113	1.214599609	0.584253017	0.515823121	0.466372389	-0.773925781	-0.33203125	0.514892578	877.94	3.968372907	-82.50590231	171.0474557	-57
16622	0	0.397859573	0.02310276	0.014478683	0.999549866	0.017762184	0.013823509	0.019788742	9.946489334	0.577569008	0.361967087	0.888242208	0.691278969	0.989585278	-0.808105469	-0.302246094	0.517089844	877.84	-9.11136713	-80.78195314	-173.7045339	-55
16623	0	0.429260254	0.037841797	0.015563965	0.999479294	0.011269569	0.014667511	0.026432037	10.73150635	0.946044922	0.389099121	0.56357626	0.733502824	1.321831227	-0.843261719	-0.248291016	0.517578125	877.9	-21.36218126	-78.32159975	-159.9515895	-54
16624	0	0.440070152	0.001194	0.038945198	0.999569893	0.003918648	0.013702393	0.025611877	11.00175381	0.029850006	0.973629951	0.195960453	0.685217762	1.280777298	-0.878417969	-0.190185547	0.51171875	877.9	-29.47923694	-75.61257321	-151.1638876	-54
16625	0	0.398376465	-0.024475098	0.053283691	0.999594688	-0.001350403	0.013081551	0.025218964	9.959411621	-0.611877441	1.332092285	-0.067529248	0.654165748	1.26111825	-0.908691406	-0.134277344	0.497314453	877.88	-35.41182594	-72.77268012	-145.1581596	-54
16626	0	0.32341671	-0.049762726	0.059789658	0.999671936	0.001646996	0.010548592	0.023273468	8.085417747	-1.244068146	1.49474144	0.082358779	0.527487232	1.163800597	-0.936523438	-0.083007813	0.483154297	878.02	-39.35284934	-70.17244166	-140.8019965	-55
16627	0	0.297241211	-0.054016113	0.055419922	0.999650955	0.012318611	0.008220673	0.021839142	7.431030273	-1.350402832	1.385498047	0.616002056	0.411081344	1.092083849	-0.955322266	-0.025390625	0.479492188	877.94	-41.31405199	-67.81684345	-137.1885965	-56
16628	0	0.297784805	-0.042384148	0.043958664	0.999650002	0.014943123	0.007658005	0.020440102	7.444620132	-1.059603691	1.098966599	0.747243306	0.382944907	1.022124308	-0.969726563	0.04296875	0.466064453	877.9	-42.28807614	-65.58750137	-134.2604997	-57
16629	0	0.323425293	-0.030029297	0.040161133	0.999832153	0.008057594	0.00573349	0.015415192	8.085632324	-0.750732422	1.00402832	0.402902241	0.286690528	0.770802678	-0.981445313	0.102539063	0.453369141	877.84	-43.1586222	-63.89797732	-132.2716967	-58
16630	0	0.373086929	-0.047372818	0.05098629	0.999958992	0.000146866	0.00328064	0.00832653	9.327173233	-1.18432045	1.274657249	0.00734339	0.164034173	0.416332082	-0.989990234	0.14453125	0.447509766	878.02	-43.99358041	-62.96547861	-131.3134963	-57
16631	0	0.432922363	-0.070739746	0.066040039	0.999994278	-0.002467155	-0.000831604	-0.001667023	10.82305908	-1.768493652	1.651000977	-0.123357969	-0.041580266	-0.083351268	-0.995361328	0.162109375	0.440429688	878	-44.12458776	-63.17045701	-131.4791419	-56
16632	0	0.453209877	-0.074892044	0.083102226	0.99991703	-0.004551888	-0.005216599	-0.010824203	11.33024693	-1.872301102	2.077555656	-0.227600639	-0.260837103	-0.541225068	-1.004882813	0.160400391	0.455566406	877.96	-43.65768435	-64.47048583	-132.5763781	-58
16633	0	0.443481445	-0.085998535	0.094726563	0.999718666	-0.004268646	-0.010550499	-0.020774841	11.08703613	-2.149963379	2.368164063	-0.213452278	-0.527574295	-1.038839235	-1.006591797	0.136474609	0.471923828	877.9	-42.08531744	-66.9899345	-134.8331197	-59
16634	0	0.522271156	-0.088246346	0.082921982	0.999470711	-0.004091263	-0.013837814	-0.029126167	13.05677891	-2.206158638	2.073049545	-0.20459918	-0.692012612	-1.456564932	-1.005371094	0.092773438	0.501220703	877.94	-38.64716637	-70.38002061	-139.0205983	-56
16635	0	0.422668457	-0.034790039	0.079406738	0.999299049	-0.011821747	-0.012816429	-0.033123016	10.56671143	-0.869750977	1.985168457	-0.591225462	-0.640971199	-1.656537814	-1.000732422	0.024902344	0.53515625	877.9	-33.10366936	-73.82163209	-146.2609946	-55
16636	0	0.277041435	-0.024952888	0.084575653	0.99942112	-0.008700371	-0.015174866	-0.0291605	6.926035881	-0.623822212	2.114391327	-0.435102419	-0.758889586	-1.458306113	-0.988525391	-0.047851563	0.557617188	877.88	-26.17801532	-77.01212261	-154.4398984	-55
16637	0	0.395935059	-0.027038574	0.068664551	0.999564171	0.004928589	-0.016356468	-0.024074554	9.898376465	-0.675964355	1.71661377	0.246465248	-0.817942233	-1.203902614	-0.968017578	-0.10546875	0.592773438	877.96	-16.29799316	-79.7845801	-163.9430227	-55
16638	0	0.432530403	-0.006524086	0.067548752	0.999742508	0.001740456	-0.01308918	-0.018449783	10.81326008	-0.16310215	1.688718796	0.087030249	-0.65451516	-0.922568327	-0.946044922	-0.136474609	0.622558594	877.84	-4.917373249	-81.67051751	-175.2657138	-55
16639	0	0.368347168	-0.02355957	0.08013916	0.999847412	-0.004134178	-0.009983063	-0.013683319	9.208679199	-0.588989258	2.003479004	-0.206719382	-0.49917843	-0.684200622	-0.926513672	-0.165527344	0.644042969	877.96	6.398266656	-82.80764655	172.8416434	-57
16640	0	0.3378582	-0.01882267	0.073283195	0.999916077	-0.005683899	-0.007124901	-0.009188652	8.446455002	-0.47056675	1.832079887	-0.284202881	-0.356254987	-0.459445429	-0.916259766	-0.192138672	0.665771484	877.88	15.7774997	-83.41060011	162.742767	-55
16641	0	0.334777832	-0.03302002	0.070007324	0.999922752	-0.009792328	-0.005286217	-0.005435944	8.369445801	-0.825500488	1.750183105	-0.489628911	-0.264317594	-0.271804129	-0.90625	-0.212158203	0.672607422	877.9	21.80880568	-83.7821729	155.5486558	-57
16642	0	0.334978104	-0.029493332	0.072035789	0.999960899	-0.007839203	-0.003229141	-0.002280235	8.374452591	-0.737333298	1.800894737	-0.39196518	-0.161459136	-0.114013229	-0.895996094	-0.232177734	0.679199219	877.96	24.65621594	-84.01484509	151.7847856	-56
16643	0	0.318359375	-0.008605957	0.073059082	0.999943733	-0.010227203	-0.002249718	0.0014534	7.958984375	-0.215148926	1.826477051	-0.511369695	-0.112487981	0.072671337	-0.900390625	-0.240722656	0.686035156	877.84	23.13494139	-84.31174884	152.1395426	-59
16644	0	0.333472252	-0.026262283	0.077760696	0.999902725	-0.0135746	-0.002419472	0.002054214	8.336806297	-0.656557083	1.94401741	-0.678751997	-0.120977506	0.102714051	-0.900146484	-0.251708984	0.686767578	877.9	20.48165226	-84.6492286	153.2460092	-59
16645	0	0.372680664	-0.043334961	0.080871582	0.999960899	-0.00843811	-0.00203228	0.001464844	9.317016602	-1.083374023	2.021789551	-0.421910966	-0.101615311	0.073243133	-0.901855469	-0.262695313	0.685058594	877.84	18.70566748	-84.91655397	154.0612513	-60
16646	0	0.454151154	-0.043891907	0.086669922	0.999994278	-0.002018929	-0.00228405	0.001056671	11.35377884	-1.097297668	2.166748047	-0.100946602	-0.114202698	0.052833649	-0.904052734	-0.269042969	0.69140625	877.96	18.13490939	-85.19353319	154.4040038	-61
16647	0	0.486694336	-0.04864502	0.095581055	0.999996185	0.001900673	-0.001098633	0.001182556	12.1673584	-1.216125488	2.389526367	0.095033744	-0.054931698	0.059127869	-0.904541016	-0.262451172	0.702392578	877.9	17.24528021	-85.34331313	155.5177565	-65
16648	0	0.462150574	-0.028733253	0.082221985	0.999996185	-0.001144409	0.001324654	0.002096176	11.55376434	-0.718331337	2.055549622	-0.05722053	0.066232764	0.104808938	-0.909667969	-0.255615234	0.704833984	877.96	13.77457115	-85.24822081	158.8718173	-62
16649	0	0.464904785	-0.043945313	0.087402344	0.999938011	-0.010951996	0.000798225	0.001281738	11.62261963	-1.098632813	2.185058594	-0.547610948	0.039912083	0.06408822	-0.911865234	-0.255615234	0.707763672	878.02	10.51636021	-85.17494934	160.8874575	-59
16650	0	0.449643135	-0.090958595	0.086771011	0.999985695	-0.001302719	0.004987717	-0.000453949	11.24107838	-2.273964882	2.169275284	-0.065136247	0.249386947	-0.02269755	-0.923095703	-0.264160156	0.697753906	877.9	9.711134461	-84.58704912	161.5478294	-60
16651	0	0.372619629	-0.044250488	0.067138672	0.999781609	0.017765045	0.009324074	0.005760193	9.315490723	-1.106262207	1.678466797	0.888316775	0.466237552	0.288030563	-0.937744141	-0.250488281	0.691650391	877.88	4.073473321	-83.5852361	169.2565617	-60
16652	0	0.403684616	0.026088715	0.033639908	0.999516487	0.02103138	0.013999939	0.018076897	10.0921154	0.652217865	0.840997696	1.051738202	0.700109591	0.903990279	-0.961181641	-0.194824219	0.685546875	877.96	-9.240758921	-81.85340814	-174.8977798	-59
16653	0	0.399780273	0.021179199	0.028137207	0.999492645	0.013665199	0.014766693	0.024669647	9.994506836	0.52947998	0.703430176	0.683375417	0.738459415	1.233690788	-0.994628906	-0.1171875	0.663818359	877.88	-21.52392933	-79.43568525	-160.8634671	-58
16654	0	0.399492264	-0.021348	0.037237167	0.999537468	0.011697769	0.014816284	0.023831367	9.987306595	-0.533699989	0.930929184	0.584978597	0.740928378	1.191752011	-1.023193359	-0.039550781	0.635986328	877.94	-28.49158305	-76.71919489	-152.3687	-56
16655	0	0.38067627	-0.024841309	0.04473877	0.999504089	0.004273415	0.015991211	0.02678299	9.516906738	-0.621032715	1.118469238	0.213706049	0.799692708	1.339370826	-1.042236328	0.037597656	0.593505859	877.96	-34.25583852	-73.53861882	-145.893361	-55
16656	0	0.326683044	-0.048469543	0.050462723	0.999545097	0.002432823	0.014545441	0.02630043	8.167076111	-1.211738586	1.261568069	0.121659599	0.727382285	1.315220866	-1.056152344	0.110107422	0.551025391	878	-38.38202493	-70.39729741	-141.2560842	-58
16657	0	0.300048828	-0.051086426	0.043395996	0.999584198	0.009778023	0.012374878	0.024105072	7.501220703	-1.277160645	1.084899902	0.488968779	0.618829501	1.20542035	-1.063232422	0.180419922	0.511474609	877.96	-40.44927648	-67.53872991	-137.8368549	-60
16658	0	0.311027527	-0.044639587	0.040021896	0.999656677	0.014019966	0.009417534	0.019994736	7.775688171	-1.115989685	1.000547409	0.701078366	0.470930472	0.999850964	-1.062988281	0.250244141	0.468505859	877.84	-41.17580719	-65.21985758	-135.2861101	-59
16659	0	0.363830566	-0.039123535	0.040039063	0.999804497	0.012897491	0.00603199	0.013698578	9.09576416	-0.978088379	1.000976563	0.644916538	0.301619129	0.684973466	-1.057861328	0.306884766	0.434814453	877.88	-41.19793831	-63.66740019	-133.6190554	-57
16660	0	0.415318489	-0.03268528	0.0436306	0.999964714	0.006426811	0.002868652	0.004519463	10.38296223	-0.817131996	1.090764999	0.321344308	0.14343429	0.225975764	-1.056640625	0.346191406	0.405761719	877.9	-40.79254183	-63.08825674	-133.2438269	-57
16661	0	0.42767334	-0.032226563	0.051208496	0.999982834	-0.002821922	-0.001346588	-0.004772186	10.6918335	-0.805664063	1.280212402	-0.141096881	-0.067329772	-0.238610608	-1.054199219	0.352539063	0.390869141	877.9	-40.46968802	-63.57733605	-133.9620408	-56
16662	0	0.422978401	-0.043889046	0.065924644	0.999826431	-0.00906086	-0.007128716	-0.014623642	10.57446003	-1.097226143	1.648116112	-0.453069172	-0.356456379	-0.731224363	-1.060546875	0.333007813	0.389892578	877.84	-39.91048959	-65.30470578	-135.7272624	-56
16663	0	0.476318359	-0.087341309	0.082092285	0.999585152	-0.006446838	-0.013205528	-0.024753571	11.90795898	-2.183532715	2.052307129	-0.322386456	-0.660367641	-1.237849533	-1.065917969	0.289306641	0.410888672	877.9	-37.67631632	-68.28856181	-138.9552576	-57
16664	0	0.544499397	-0.04858017	0.071434021	0.999418259	-0.008687973	-0.014258385	-0.029725075	13.61248493	-1.214504242	1.785850525	-0.43448285	-0.713057419	-1.486541817	-1.068359375	0.223876953	0.439453125	877.84	-33.65546594	-71.63704882	-144.2865678	-55
16665	0	0.294067383	-0.00970459	0.08013916	0.999424934	-0.013305664	-0.015067101	-0.027305603	7.35168457	-0.242614746	2.003479004	-0.665410743	-0.753499451	-1.365541887	-1.070556641	0.149658203	0.468505859	877.96	-29.25568499	-74.77800194	-150.4679938	-55
16666	0	0.327446938	-0.006883621	0.062831879	0.999648094	-0.001726151	-0.016689301	-0.020512581	8.186173439	-0.17209053	1.570796967	-0.086317631	-0.834562729	-1.025749128	-1.058837891	0.083496094	0.501953125	877.94	-24.33652865	-77.57752285	-155.7352374	-56
16667	0	0.43951416	-0.001403809	0.051574707	0.999742508	-0.0022192	-0.016555786	-0.015300751	10.987854	-0.035095215	1.289367676	-0.110969498	-0.827860117	-0.765102979	-1.048339844	0.043945313	0.530517578	878	-19.85961516	-80.02666226	-160.5553577	-57
16668	0	0.425364494	-0.045844078	0.079565048	0.999753952	-0.008613586	-0.014309883	-0.014564514	10.63411236	-1.146101952	1.989126205	-0.43071458	-0.715552731	-0.728285325	-1.033203125	0.006347656	0.566894531	877.96	-13.49249856	-82.10624578	-167.9945086	-57
16669	0	0.352172852	-0.042358398	0.089782715	0.999833107	-0.008369446	-0.01066494	-0.012210846	8.804321289	-1.058959961	2.244567871	-0.418495511	-0.533276584	-0.610576177	-1.017822266	-0.033447266	0.589599609	877.9	-4.768729326	-83.55859658	-177.7492371	-57
16670	0	0.328098297	-0.044016838	0.086723328	0.999853134	-0.011090279	-0.00887394	-0.009553909	8.202457428	-1.100420952	2.168083191	-0.554541015	-0.443718647	-0.477718797	-1.004882813	-0.066650391	0.603027344	878	4.804171169	-84.59014915	171.3534145	-60
16671	0	0.331848145	-0.055114746	0.085876465	0.999910355	-0.008955956	-0.006858826	-0.00717926	8.296203613	-1.377868652	2.146911621	-0.44781112	-0.342951504	-0.35897371	-0.994384766	-0.099853516	0.613769531	877.9	14.686178	-85.23097922	160.4052537	-59
16672	0	0.320671082	-0.044194221	0.086957932	0.999954224	-0.007240295	-0.004940987	-0.003696442	8.016777039	-1.104855537	2.173948288	-0.362020231	-0.247053058	-0.18482487	-0.988769531	-0.122070313	0.620849609	877.9	21.37878243	-85.63534076	152.8620933	-61
16673	0	0.310913086	-0.05645752	0.094482422	0.999978065	-0.005317688	-0.003378868	-0.001804352	7.772827148	-1.411437988	2.362060547	-0.265886303	-0.168944615	-0.090218236	-0.986083984	-0.137451172	0.627685547	877.88	25.6495192	-85.8999877	147.9717132	-63
16674	0	0.355812073	-0.049974442	0.094903946	0.999997139	0.001276016	-0.001152039	0.001076698	8.895301819	-1.249361038	2.372598648	0.063800856	-0.057601968	0.053834952	-0.985595703	-0.1484375	0.628662109	877.9	25.18698978	-86.06146671	148.5840364	-62
16675	0	0.436767578	-0.049743652	0.08984375	0.999997139	0.001972198	0.000271797	0.001251221	10.91918945	-1.243591309	2.24609375	0.098610015	0.013589872	0.062561093	-0.986083984	-0.139648438	0.630859375	878	23.43801788	-86.08005937	150.5670215	-61
16676	0	0.482460022	-0.062610626	0.092913628	0.999996185	-0.000139236	0.002327919	0.000693321	12.06150055	-1.565265656	2.322840691	-0.006961829	0.116396065	0.034666096	-0.992919922	-0.137207031	0.625244141	877.9	20.99824355	-85.8499101	153.0003039	-60
16677	0	0.476623535	-0.043334961	0.080688477	0.999980927	-0.003451347	0.004417419	0.002353668	11.91558838	-1.083374023	2.017211914	-0.172568431	0.220872332	0.117684136	-0.997558594	-0.136962891	0.619873047	877.9	15.18479518	-85.43781254	158.437227	-61
16678	0	0.48580265	-0.051737785	0.082927704	0.999943733	-0.009176254	0.00419426	0.00327301	12.14506626	-1.293444633	2.073192596	-0.458821317	0.209716915	0.163653582	-1.006591797	-0.141113281	0.612060547	877.9	8.533233923	-85.02869587	164.0598494	-61
16679	0	0.427246094	-0.054931641	0.063598633	0.999919891	0.000676155	0.010421753	0.00712204	10.68115234	-1.373291016	1.58996582	0.033808655	0.521101525	0.356111474	-1.013183594	-0.147705078	0.6015625	877.9	-0.645219681	-83.87346035	173.3580657	-61
16680	0	0.399867058	-0.002920151	0.029214859	0.999675751	0.015275955	0.012497902	0.016083717	9.996676445	-0.073003769	0.730371475	0.763880305	0.624962629	0.804272777	-1.025634766	-0.123291016	0.583007813	877.88	-12.56914816	-82.21134558	-172.8716985	-63
16681	0	0.440185547	0.035217285	0.021240234	0.999438286	0.016891479	0.013638496	0.025524139	11.00463867	0.880432129	0.531005859	0.844732104	0.682052497	1.276445914	-1.044189453	-0.065673828	0.564941406	877.96	-24.92220948	-79.75981523	-158.4105692	-65
16682	0	0.430228233	-0.002802849	0.042559624	0.999477386	0.014380455	0.012387276	0.026137352	10.75570583	-0.07007122	1.063990593	0.719147848	0.619471543	1.307094971	-1.056640625	0.009277344	0.548095703	877.96	-32.69508075	-77.05466158	-148.7943084	-62
16683	0	0.393066406	-0.023681641	0.05255127	0.999470711	0.01599884	0.013344765	0.024971008	9.826660156	-0.592041016	1.313781738	0.800083086	0.667355903	1.248770597	-1.06640625	0.081787109	0.533935547	878	-36.60244415	-74.16039226	-142.8651992	-61
16684	0	0.328884125	-0.009831429	0.051599503	0.999473572	0.010694504	0.014063835	0.027189255	8.222103119	-0.245785713	1.289987564	0.534818937	0.70331504	1.359701078	-1.073730469	0.152099609	0.511474609	877.94	-39.94268747	-70.96025644	-138.0762589	-61
16685	0	0.291931152	-0.04095459	0.047851563	0.999562263	0.011657715	0.011818886	0.024478912	7.298278809	-1.023864746	1.196289063	0.582970761	0.591030484	1.22412414	-1.076171875	0.222412109	0.485839844	877.96	-41.87187183	-68.09904241	-134.5863533	-61
16686	0	0.297742844	-0.034635544	0.038779259	0.999616623	0.014744759	0.011240959	0.020542145	7.443571091	-0.865888596	0.969481468	0.737332052	0.562119714	1.027238368	-1.073730469	0.283447266	0.460449219	877.96	-42.21683634	-65.56988795	-132.3678728	-63
16687	0	0.315490723	-0.026489258	0.037658691	0.999804497	0.007804871	0.00980854	0.015239716	7.887268066	-0.662231445	0.941467285	0.39026886	0.490458849	0.762035237	-1.075927734	0.344970703	0.447021484	877.9	-42.41473232	-63.57224021	-131.1512942	-70
16688	0	0.359115601	-0.036922455	0.042347908	0.999957085	0.00024128	0.006620407	0.006422043	8.977890015	-0.923061371	1.058697701	0.012064151	0.331025052	0.321106698	-1.074707031	0.373291016	0.433105469	877.9	-42.41883589	-62.5307685	-131.1083056	-77
16689	0	0.441162109	-0.043640137	0.047241211	0.999950409	-0.009016991	0.002429962	-0.003223419	11.02905273	-1.091003418	1.181030273	-0.450856867	0.121500084	-0.161173581	-1.08203125	0.380126953	0.441650391	877.9	-42.53520131	-62.59720398	-132.1328015	-66
16690	0	0.449455261	-0.049563408	0.056509972	0.999760628	-0.016452789	-0.002599716	-0.014187813	11.23638153	-1.239085197	1.41274929	-0.822705119	-0.129996183	-0.709447256	-1.093261719	0.354492188	0.464355469	877.94	-42.40647293	-63.94413757	-134.3775466	-67
16691	0	0.442810059	-0.072143555	0.070739746	0.999480247	-0.018409729	-0.010855675	-0.024105072	11.07025146	-1.803588867	1.768493652	-0.920645741	-0.542877666	-1.205462171	-1.103271484	0.298095703	0.506835938	877.9	-41.8322855	-66.75432265	-137.319279	-66
16692	0	0.568059921	-0.116473198	0.074440956	0.999155045	-0.010343552	-0.018343925	-0.035294533	14.20149803	-2.911829948	1.861023903	-0.517323295	-0.91745469	-1.765223844	-1.107910156	0.219482422	0.556396484	877.84	-38.47616699	-71.01141816	-142.1742398	-76
16693	0	0.365112305	-0.046081543	0.079528809	0.99919796	-0.003513336	-0.017004967	-0.036075592	9.127807617	-1.152038574	1.988220215	-0.175713774	-0.850475653	-1.804261848	-1.102783203	0.125488281	0.62109375	878	-31.3505038	-75.02233996	-150.0348799	-71
16694	0	0.283970833	-0.036283493	0.064873695	0.999281883	0.009550095	-0.022377014	-0.029034615	7.099270821	-0.907087326	1.621842384	0.477619003	-1.119118462	-1.452078145	-1.086425781	0.048583984	0.677978516	877.9	-22.32686349	-78.85571666	-158.1722844	-63
16695	0	0.430419922	-0.00378418	0.031677246	0.999361038	0.020531654	-0.021572113	-0.019733429	10.76049805	-0.094604492	0.791931152	1.026801217	-1.078835223	-0.986881452	-1.057617188	0.010742188	0.742431641	877.84	-11.21189832	-81.91508858	-167.0628399	-58
16696	0	0.443400383	-0.005050659	0.043174744	0.999721527	0.001808167	-0.019246101	-0.013494492	11.08500957	-0.126266479	1.079368591	0.090416702	-0.96239423	-0.674787095	-1.028076172	0.008056641	0.801269531	877.9	0.297005386	-84.29439303	-178.4362713	-57
16697	0	0.368225098	-0.036315918	0.070556641	0.999835968	-0.005148888	-0.01449585	-0.00951767	9.205627441	-0.907897949	1.763916016	-0.257458424	-0.724832015	-0.475909441	-0.995117188	-0.014648438	0.852783203	877.9	15.27653092	-85.82094337	165.9455521	-59
16698	0	0.326992989	-0.024213791	0.079517365	0.999846458	-0.011751175	-0.011583328	-0.005866051	8.174824715	-0.605344772	1.987934113	-0.587588782	-0.579196019	-0.293317529	-0.974365234	-0.032714844	0.893310547	877.96	32.35482359	-86.77723448	147.4934175	-59
16699	0	0.339355469	-0.048583984	0.08770752	0.999855995	-0.014480591	-0.008246422	-0.002937317	8.483886719	-1.214599609	2.192687988	-0.724064096	-0.412340769	-0.146872854	-0.959716797	-0.061279297	0.935058594	877.9	48.01240733	-87.27718456	130.1609147	-63
16700	0	0.333293915	-0.0460186	0.097629547	0.999917984	-0.01174736	-0.005026817	-0.000148773	8.33234787	-1.150465012	2.440738678	-0.587383998	-0.251347707	-0.007438862	-0.943115234	-0.079345703	0.967041016	877.96	57.60580586	-87.59602019	119.2167052	-63
16701	0	0.319396973	-0.040710449	0.103088379	0.999965668	-0.007681847	-0.001865387	0.002300262	7.984924316	-1.01776123	2.577209473	-0.38409667	-0.093270402	0.115014422	-0.933837891	-0.088134766	0.998779297	877.9	58.06924652	-87.91367576	117.8773387	-63
16702	0	0.322746277	-0.04322052	0.09758091	0.99995327	-0.009143829	0.001390457	0.002778053	8.068656921	-1.080513	2.439522743	-0.457198574	0.069523938	0.138904823	-0.932128906	-0.085693359	1.030029297	877.9	48.1854923	-88.05433797	126.7259655	-63
16703	0	0.397521973	-0.052368164	0.092956543	0.999968529	-0.005615234	0.003937721	0.003868103	9.938049316	-1.309204102	2.323913574	-0.28076462	0.196888097	0.19340715	-0.934814453	-0.085449219	1.050048828	877.84	29.59115397	-87.96268782	144.693948	-62
16704	0	0.463699341	-0.063206673	0.08695507	0.999970436	-0.002179146	0.006053925	0.004034042	11.59248352	-1.580166817	2.173876762	-0.108958338	0.302699138	0.201704057	-0.945800781	-0.062988281	1.077392578	877.84	12.43460239	-87.45864909	161.6220457	-62
16705	0	0.508422852	-0.064575195	0.074401855	0.999958038	0.000489235	0.007865906	0.004646301	12.71057129	-1.614379883	1.860046387	0.024462087	0.393300775	0.232318304	-0.961425781	-0.031494141	1.098632813	877.96	0.455335777	-86.60148575	173.6822764	-60
16706	0	0.544704437	-0.056035995	0.064052582	0.999940872	-0.001307487	0.007819176	0.007313728	13.61761093	-1.400899887	1.601314545	-0.065375642	0.390966367	0.365693508	-0.980224609	0.010986328	1.119140625	877.94	-10.69456153	-85.61332301	-175.2808657	-58
16707	0	0.483581543	-0.040588379	0.051147461	0.999866486	0.00124073	0.013210297	0.009502411	12.08953857	-1.014709473	1.278686523	0.062039268	0.660544156	0.475141638	-1.001220703	0.060058594	1.130371094	877.96	-17.86496455	-83.85830228	-167.9241833	-58
16708	0	0.353129387	-0.018129349	0.031719208	0.999752998	0.007021904	0.014326096	0.015425682	8.828234673	-0.453233719	0.792980194	0.351124025	0.716363588	0.771347426	-1.034667969	0.133544922	1.123291016	878	-25.18877648	-81.66273965	-159.7179163	-58
16709	0	0.409729004	-0.007080078	0.008239746	0.999617577	0.007820129	0.014775276	0.02199173	10.2432251	-0.177001953	0.205993652	0.391056216	0.7388578	1.099726384	-1.064453125	0.235351563	1.099365234	877.96	-32.38592717	-78.94836654	-151.4944581	-55
16710	0	0.438957214	-0.032500267	0.024343491	0.999534607	0.01224041	0.013430595	0.024497986	10.97393036	-0.812506676	0.608587265	0.612115432	0.671633941	1.225089304	-1.082763672	0.349853516	1.065185547	877.9	-37.35576588	-76.07005684	-144.9542123	-54
16711	0	0.423583984	-0.028137207	0.044677734	0.999476433	0.015159607	0.013653755	0.025100708	10.58959961	-0.703430176	1.116943359	0.758112586	0.682806863	1.255254357	-1.087158203	0.472412109	1.012451172	877.96	-40.14608961	-73.044698	-140.242806	-56
16712	0	0.365084648	-0.015322685	0.04944706	0.999461174	0.011166573	0.013523102	0.027723312	9.127116203	-0.383067131	1.236176491	0.558428818	0.676276423	1.386414359	-1.081787109	0.594726563	0.947753906	877.96	-42.84562273	-69.77868768	-136.030144	-58
16713	0	0.310974121	-0.036560059	0.046447754	0.999513626	0.009652138	0.011768341	0.027194977	7.774353027	-0.914001465	1.161193848	0.482685042	0.588512342	1.35996904	-1.063964844	0.701171875	0.883544922	877.9	-44.97878572	-66.64966343	-132.5290745	-59
16714	0	0.279148102	-0.060362816	0.040417671	0.999604225	0.013401031	0.010606766	0.022331238	6.978702545	-1.509070396	1.01044178	0.670139916	0.530408209	1.1167091	-1.031494141	0.793945313	0.811279297	877.96	-45.45622404	-63.98482991	-130.3013453	-57
16715	0	0.310180664	-0.057922363	0.038391113	0.999756813	0.013839722	0.008500099	0.01486969	7.754516602	-1.448059082	0.959777832	0.69204202	0.425039314	0.743544596	-1.000488281	0.869140625	0.740478516	877.9	-44.84749079	-62.10197029	-129.1929528	-53
16716	0	0.349594116	-0.03795433	0.043011665	0.999926567	0.004973412	0.006801605	0.008605957	8.739852905	-0.948858261	1.075291634	0.24867659	0.340088484	0.430308255	-0.973144531	0.916015625	0.680664063	877.9	-44.53274158	-60.87224148	-128.8895452	-54
16717	0	0.376525879	-0.046264648	0.049072266	0.999987602	-0.003364563	0.003411293	-0.00012207	9.413146973	-1.156616211	1.226806641	-0.168228794	0.170565305	-0.006103539	-0.954345703	0.930664063	0.646972656	877.88	-44.38560211	-60.62707942	-129.4853631	-55
16718	0	0.423270226	-0.04294014	0.048681259	0.999917984	-0.009943962	-0.000599861	-0.007951736	10.58175564	-1.073503494	1.217031479	-0.497211569	-0.029993869	-0.397597589	-0.946289063	0.914794922	0.625	877.96	-44.41068548	-61.34515003	-130.7431915	-52
16719	0	0.436828613	-0.073730469	0.067077637	0.999675751	-0.01450634	-0.009407043	-0.018684387	10.92071533	-1.843261719	1.676940918	-0.725395362	-0.470402988	-0.934320291	-0.951660156	0.87109375	0.637451172	877.88	-44.56027612	-63.65195355	-132.4315311	-52
16720	0	0.467439651	-0.105480194	0.079532623	0.999454498	-0.007822037	-0.012862206	-0.029388428	11.68599129	-2.637004852	1.988315582	-0.391172942	-0.643227197	-1.469688536	-0.961181641	0.801513672	0.669433594	877.9	-42.29690935	-67.08012066	-135.8927273	-53
16721	0	0.49017334	-0.052062988	0.053833008	0.999274254	-0.010295868	-0.014754295	-0.033573151	12.2543335	-1.301574707	1.345825195	-0.514917959	-0.73789327	-1.679063711	-0.981445313	0.718994141	0.694580078	877.9	-38.66147786	-70.91335361	-141.0364862	-50
16722	0	0.34148407	-0.036273956	0.069472313	0.999138832	-0.01153183	-0.020545959	-0.034137726	8.537101746	-0.906848907	1.736807823	-0.576756958	-1.02759278	-1.707376122	-0.996582031	0.618652344	0.7265625	877.84	-34.15728254	-75.18158553	-147.1202345	-48
16723	0	0.420715332	-0.069885254	0.073730469	0.999113083	0.008698463	-0.026165009	-0.031799316	10.5178833	-1.747131348	1.843261719	0.435051683	-1.308636989	-1.590435624	-0.995605469	0.524658203	0.768554688	877.94	-25.55848625	-79.64869098	-154.919008	-49
16724	0	0.447545052	-0.008664131	0.058645248	0.99930954	0.01908493	-0.02187252	-0.023186684	11.18862629	-0.216603279	1.46613121	0.954466176	-1.093877761	-1.159601046	-0.982177734	0.476074219	0.788818359	877.96	-11.96890126	-82.92989443	-166.4671864	-48
16725	0	0.371032715	0.006713867	0.056152344	0.999720573	0.002109528	-0.018115044	-0.015007019	9.275817871	0.16784668	1.403808594	0.105486188	-0.90583641	-0.750420729	-0.96484375	0.447021484	0.8046875	877.94	3.747837085	-85.17050158	177.9748269	-48
16726	0	0.346787453	-0.012996674	0.05402565	0.999809265	-0.006890297	-0.01434803	-0.011238098	8.669686317	-0.32491684	1.350641251	-0.344536649	-0.717446904	-0.561940467	-0.942382813	0.406982422	0.826904297	877.9	26.60996241	-86.45716221	154.263112	-48
16727	0	0.349487305	-0.032348633	0.065063477	0.999747276	-0.015319824	-0.012537956	-0.010578156	8.737182617	-0.80871582	1.626586914	-0.766055543	-0.626950462	-0.528952196	-0.926757813	0.358398438	0.850097656	877.94	57.16996165	-86.71487823	121.8961108	-49
16728	0	0.339943886	-0.060388565	0.089639664	0.999783516	-0.016156197	-0.009302139	-0.009157181	8.498597145	-1.509714127	2.240991592	-0.807867923	-0.465140412	-0.457891966	-0.908203125	0.298583984	0.874023438	877.9	77.96699405	-86.1128261	99.20341847	-51
16729	0	0.302734375	-0.056945801	0.103637695	0.999891281	-0.012049675	-0.00680542	-0.005023956	7.568359375	-1.42364502	2.590942383	-0.602505516	-0.34028329	-0.25120689	-0.892089844	0.245361328	0.885986328	877.9	88.37646835	-85.60209715	87.37873565	-52
16730	0	0.315782547	-0.067387581	0.103092194	0.99998188	-0.001836777	-0.00510025	-0.002231598	7.894563675	-1.684689522	2.57730484	-0.091839363	-0.255013973	-0.111580534	-0.876464844	0.209960938	0.893798828	877.96	95.40205983	-85.30174233	80.11512819	-52
16731	0	0.369567871	-0.056640625	0.093078613	0.999995232	0.00207901	-0.002062798	0.000167847	9.239196777	-1.416015625	2.326965332	0.10395065	-0.103140025	0.008392346	-0.859619141	0.198242188	0.893798828	877.88	98.42870979	-85.27301887	77.31506497	-51
16732	0	0.438709259	-0.060865402	0.09030056	0.999998093	-0.000324249	0.001137733	0.00071907	10.96773148	-1.521635056	2.257514	-0.016212469	0.056886691	0.035953533	-0.852050781	0.19140625	0.882568359	877.96	96.80674394	-85.35853367	78.9053847	-53
16733	0	0.490356445	-0.066833496	0.08581543	0.999979019	-0.001288414	0.005260468	0.003395081	12.25891113	-1.670837402	2.145385742	-0.064421139	0.263025168	0.169755184	-0.848876953	0.177978516	0.869140625	877.88	88.95556224	-85.76975036	86.63153829	-51
16734	0	0.510498047	-0.038012505	0.072054863	0.999925613	-0.001223564	0.009047508	0.007977486	12.76245117	-0.950312614	1.801371574	-0.061179706	0.452386496	0.398884056	-0.853271484	0.171386719	0.858398438	877.96	71.06167787	-86.49037615	104.4233402	-50
16735	0	0.538146973	-0.05065918	0.068054199	0.9998703	-0.004118919	0.010913849	0.011070251	13.45367432	-1.266479492	1.70135498	-0.205954847	0.545715968	0.553536435	-0.862060547	0.169433594	0.839111328	877.94	39.99027157	-86.82762594	135.0700622	-50
16736	0	0.394141197	-0.042625427	0.056102753	0.999720573	0.001376152	0.017414093	0.015888214	9.85352993	-1.065635681	1.402568817	0.068813998	0.870785586	0.794484549	-0.887451172	0.16796875	0.814941406	877.96	2.952278726	-85.55005598	172.334049	-49
16737	0	0.380493164	-0.014221191	0.030395508	0.999493599	0.008296967	0.018719673	0.024341583	9.512329102	-0.355529785	0.759887695	0.414918315	0.936141564	1.217284492	-0.916015625	0.195068359	0.777099609	877.9	-20.37409511	-82.92611977	-163.2827033	-46
16738	0	0.449763298	-0.013242722	0.020131111	0.999082565	0.019284248	0.019225121	0.033039093	11.24408245	-0.331068039	0.503277779	0.964507239	0.961549945	1.652459759	-0.946044922	0.252685547	0.733886719	877.88	-33.31363231	-79.19897623	-147.9642561	-46
16739	0	0.451049805	-0.020751953	0.029785156	0.998915672	0.025241852	0.019028664	0.034179688	11.27624512	-0.518798828	0.744628906	1.262548965	0.951777221	1.709602346	-0.965332031	0.345214844	0.681396484	877.9	-38.65488741	-75.10803195	-139.5260582	-48
16740	0	0.426203728	-0.036592484	0.046198845	0.999097824	0.020952225	0.019371986	0.031434059	10.65509319	-0.914812088	1.154971123	1.047926189	0.968890518	1.572175472	-0.980224609	0.441894531	0.625732422	877.94	-40.6702973	-71.08685233	-134.9092607	-47
16741	0	0.371398926	-0.019104004	0.042358398	0.999238968	0.006897926	0.02130127	0.031917572	9.284973145	-0.477600098	1.058959961	0.344983753	1.065333487	1.596283182	-0.985107422	0.527099609	0.558837891	877.78	-42.71741793	-66.82484138	-131.8640123	-48
16742	0	0.31883049	-0.045783043	0.035523415	0.999317169	2.77E-05	0.02017498	0.030927658	7.970762253	-1.144576073	0.888085365	0.001383142	1.008978396	1.546734548	-0.984619141	0.596923828	0.498535156	877.94	-44.72513948	-62.70341783	-129.635802	-49
16743	0	0.304077148	-0.053405762	0.032043457	0.999515533	0.00433445	0.016838074	0.025814056	7.601928711	-1.335144043	0.801086426	0.216757493	0.842039667	1.290911289	-0.974609375	0.659912109	0.449951172	878	-45.49915778	-59.25067796	-128.1766102	-48
16744	0	0.316256523	-0.049717903	0.036705017	0.999754906	0.003972054	0.012739182	0.017649651	7.906413078	-1.242947578	0.917625427	0.198618885	0.63701106	0.882554551	-0.959472656	0.709472656	0.405029297	878	-45.61825774	-56.79566517	-127.4926119	-49
16745	0	0.337280273	-0.046142578	0.042297363	0.999927521	-0.001429558	0.007995605	0.008800507	8.432006836	-1.153564453	1.057434082	-0.071479599	0.39978983	0.440035849	-0.950927734	0.741943359	0.370361328	877.84	-45.83079525	-55.45209345	-127.4257374	-49
16746	0	0.373047829	-0.059954643	0.055012703	0.999975204	-0.006358147	0.002343178	-0.001859665	9.326195717	-1.498866081	1.375317574	-0.31790995	0.117159854	-0.092984011	-0.943847656	0.748046875	0.355224609	877.88	-46.04183157	-55.44386297	-128.0439612	-49
16747	0	0.396179199	-0.045898438	0.050842285	0.999851227	-0.012545586	-0.002532959	-0.011501312	9.90447998	-1.147460938	1.271057129	-0.627310241	-0.1266542	-0.575093995	-0.952636719	0.733154297	0.359863281	877.9	-46.41349696	-56.63009381	-129.3159366	-52
16748	0	0.398213387	-0.092177391	0.072793961	0.999501228	-0.01624012	-0.01169014	-0.024407387	9.955334663	-2.304434776	1.819849014	-0.812140867	-0.584604072	-1.220572036	-0.965576172	0.691894531	0.389648438	878.02	-46.72134975	-59.62206742	-131.1274181	-51
16749	0	0.491638184	-0.104858398	0.070922852	0.99930954	-0.009989738	-0.014503479	-0.03269577	12.29095459	-2.621459961	1.773071289	-0.499601807	-0.725340742	-1.635164519	-0.989013672	0.618408203	0.428466797	877.94	-45.23348428	-63.51867084	-134.1062356	-50
16750	0	0.429506302	-0.050423622	0.064229965	0.999114037	-0.018627167	-0.015790939	-0.034257889	10.73765755	-1.260590553	1.60574913	-0.931633296	-0.789780059	-1.713400126	-1.016601563	0.534179688	0.468261719	877.94	-43.96955467	-67.6166718	-137.8257536	-52
16751	0	0.333068848	-0.077209473	0.094177246	0.999085426	-0.012680054	-0.02282238	-0.033843994	8.326721191	-1.930236816	2.354431152	-0.634195905	-1.141466772	-1.692715423	-1.029785156	0.434082031	0.523193359	877.9	-42.53666676	-72.23077938	-140.8970604	-55
16752	0	0.481423378	-0.090081215	0.09506321	0.999249458	0.006350517	-0.024269104	-0.029489517	12.03558445	-2.252030373	2.376580238	0.317605243	-1.213758556	-1.47484447	-1.02734375	0.353027344	0.575439453	877.9	-39.06753602	-76.59451688	-143.7518675	-55
16753	0	0.457275391	-0.045349121	0.08605957	0.999549866	0.007431984	-0.019683838	-0.021381378	11.43188477	-1.133728027	2.151489258	0.371654951	-0.984339559	-1.069229307	-1.014160156	0.3046875	0.613037109	878	-35.24903871	-79.91997238	-146.7884768	-54
16754	0	0.353223801	-0.045196533	0.092350006	0.999727249	0.001935005	-0.017518044	-0.015278816	8.830595016	-1.12991333	2.308750153	0.096759035	-0.87598162	-0.764010101	-1.003417969	0.264892578	0.638671875	878	-32.69257592	-82.60576674	-149.1553141	-54
16755	0	0.329345703	-0.045959473	0.085388184	0.99980545	0.001782417	-0.015354156	-0.012210846	8.233642578	-1.148986816	2.13470459	0.089126629	-0.767757483	-0.610581789	-0.986328125	0.231689453	0.668945313	877.9	-29.59266466	-84.87295399	-152.0717665	-52
16756	0	0.343089104	-0.053418159	0.08641243	0.999827385	-0.00583744	-0.012218475	-0.01266098	8.577227592	-1.335453987	2.160310745	-0.291888745	-0.610958765	-0.633085277	-0.966796875	0.20703125	0.689941406	877.96	-19.72260389	-86.7876261	-162.6311441	-49
16757	0	0.327575684	-0.064086914	0.097167969	0.999840736	-0.012386322	-0.007464409	-0.010379791	8.18939209	-1.602172852	2.429199219	-0.619348814	-0.373240157	-0.519016976	-0.958251953	0.165283203	0.710205078	877.96	2.100123863	-87.85015173	174.1062593	-50
16758	0	0.318738937	-0.063544273	0.102829933	0.999905586	-0.010791779	-0.003927231	-0.00747776	7.968473434	-1.588606834	2.570748329	-0.539605819	-0.196367688	-0.37389972	-0.952148438	0.125488281	0.724609375	877.94	28.52501051	-88.05679747	146.4283959	-50
16759	0	0.359313965	-0.059753418	0.097595215	0.999940872	-0.009882927	-0.000865936	-0.004428864	8.982849121	-1.493835449	2.439880371	-0.494156069	-0.043297666	-0.221447533	-0.943603516	0.092285156	0.723876953	877.9	41.2324478	-87.82651587	132.5793745	-49
16760	0	0.400326729	-0.063467026	0.09129715	0.99994278	-0.01030159	0.002100945	-0.001493454	10.00816822	-1.586675644	2.282428741	-0.515089179	0.1050492	-0.074674102	-0.947265625	0.066162109	0.726318359	877.94	39.77334635	-87.50978105	132.8583912	-47
16761	0	0.42199707	-0.071594238	0.089782715	0.999950409	-0.008883476	0.004440308	0.000637054	10.54992676	-1.789855957	2.244567871	-0.444181145	0.222019046	0.031853248	-0.951171875	0.048583984	0.716552734	877.9	31.40087876	-87.11600858	140.2215977	-45
16762	0	0.442058563	-0.076885223	0.081804276	0.999951363	-0.0072155	0.006122589	0.002547264	11.05146408	-1.922130585	2.045106888	-0.360780769	0.306134356	0.127365244	-0.957275391	0.035400391	0.695068359	877.96	20.36318282	-86.58986685	150.4482131	-45
16763	0	0.440490723	-0.075561523	0.074523926	0.999941826	-0.0054245	0.008095741	0.00460434	11.01226807	-1.889038086	1.863098145	-0.271230227	0.404794901	0.230221437	-0.968261719	0.024902344	0.679443359	877.96	8.653464602	-85.80088863	161.5602385	-46
16764	0	0.517494202	-0.091873169	0.071269035	0.999938965	-0.006036758	0.007323265	0.005595207	12.93735504	-2.296829224	1.781725883	-0.301844028	0.366170662	0.279766021	-0.977050781	0.022705078	0.651367188	877.96	-0.648905358	-84.9874553	170.198378	-46
16765	0	0.432434082	-0.091491699	0.065612793	0.999885559	-0.000906944	0.013298035	0.007141113	10.81085205	-2.28729248	1.640319824	-0.045348942	0.664927075	0.357069273	-0.990478516	0.018554688	0.626708984	878.02	-7.658226748	-83.38618991	177.1366035	-45
16766	0	0.35263443	-0.042661667	0.046072006	0.999715805	0.009087563	0.015044212	0.016102791	8.815860748	-1.066541672	1.151800156	0.45442117	0.752281871	0.805215809	-1.006347656	0.025390625	0.584228516	878.06	-17.22429019	-81.27703582	-172.168494	-44
16767	0	0.410583496	-0.011413574	0.020629883	0.999419212	0.013195038	0.016373634	0.026805878	10.2645874	-0.285339355	0.51574707	0.659879594	0.818840182	1.340553313	-1.023925781	0.065185547	0.541748047	877.94	-27.52133049	-78.34098842	-160.1803899	-43
16768	0	0.471066475	-0.02910614	0.023587227	0.99917984	0.017860413	0.015339851	0.032917976	11.77666187	-0.727653503	0.589680672	0.893264589	0.767202099	1.646348453	-1.034912109	0.126708984	0.494384766	877.88	-35.13499265	-74.85405529	-150.2583518	-43
16769	0	0.458007813	-0.039550781	0.041381836	0.999080658	0.01819706	0.016021729	0.035339355	11.45019531	-0.988769531	1.034545898	0.910131733	0.801331854	1.767509119	-1.039794922	0.201171875	0.454101563	877.96	-39.82833082	-70.91890149	-143.1711714	-43
16770	0	0.406621933	-0.039560318	0.052369118	0.998961449	0.017192841	0.016267776	0.038927078	10.16554832	-0.98900795	1.309227943	0.859939679	0.813670459	1.947027835	-1.034912109	0.275146484	0.401855469	877.9	-43.23582771	-66.55823018	-137.4049395	-44
16771	0	0.396484375	-0.050170898	0.054321289	0.999036789	0.014451027	0.013690948	0.039085388	9.912109375	-1.254272461	1.358032227	0.722783238	0.684767119	1.954896602	-1.028320313	0.355957031	0.357666016	877.84	-45.92138773	-62.29683591	-132.5937411	-45
16772	0	0.37228775	-0.067358017	0.052715302	0.999164581	0.01666069	0.012124062	0.035290718	9.307193756	-1.683950424	1.317882538	0.833266552	0.606371933	1.765027404	-1.012207031	0.431884766	0.324951172	877.96	-47.10989334	-58.41396912	-129.0286999	-46
16773	0	0.31628418	-0.050109863	0.046569824	0.999281883	0.017032623	0.011773109	0.031715393	7.907104492	-1.252746582	1.164245605	0.851834919	0.588796309	1.586149051	-0.995605469	0.499023438	0.289794922	877.96	-47.38120824	-54.84364307	-126.3646475	-47
16774	0	0.304563522	-0.055149078	0.045964241	0.999560356	0.012838364	0.008153915	0.025430679	7.614088058	-1.378726959	1.149106026	0.642012157	0.407755455	1.271720114	-0.981201172	0.562011719	0.260986328	877.96	-47.62144008	-52.08458157	-124.2317186	-48
16775	0	0.351013184	-0.073730469	0.055908203	0.999808311	0.01020813	0.004185677	0.016117096	8.77532959	-1.843261719	1.397705078	0.510438952	0.209297138	0.805906043	-0.966552734	0.609863281	0.244873047	877.9	-47.54930997	-50.42587739	-122.8200766	-53
16776	0	0.365730286	-0.070121765	0.065004349	0.999977112	0.003780365	0.000437737	0.0054636	9.143257141	-1.753044128	1.625108719	0.189019646	0.021886987	0.273182026	-0.955810547	0.635742188	0.233398438	878	-47.56622056	-49.96618402	-122.2267092	-51
16777	0	0.36126709	-0.073974609	0.07635498	0.999966621	-0.004764557	-0.004118919	-0.005130768	9.031677246	-1.849365234	1.908874512	-0.238230464	-0.205948234	-0.256541213	-0.958496094	0.640380859	0.250488281	877.94	-48.04470455	-50.76209644	-122.3023511	-47
16778	0	0.356174469	-0.068887711	0.077759743	0.999830246	-0.009255409	-0.007649422	-0.013931274	8.904361725	-1.722192764	1.943993568	-0.462796555	-0.38249265	-0.696602996	-0.969970703	0.62109375	0.28125	877.88	-48.5753873	-52.5873192	-122.9622272	-44
16779	0	0.36895752	-0.095703125	0.084960938	0.999558449	-0.010948181	-0.012129784	-0.024787903	9.223937988	-2.392578125	2.124023438	-0.547489507	-0.606578314	-1.239577288	-0.985351563	0.582275391	0.313964844	878	-48.65746114	-55.69335026	-124.3854018	-43
16780	0	0.493505478	-0.126743317	0.08966732	0.999002457	-0.016382217	-0.016169548	-0.038243294	12.33763695	-3.168582916	2.241683006	-0.819383111	-0.808746109	-1.912800218	-1.009277344	0.515625	0.363525391	877.96	-48.07114414	-60.26414555	-127.2557651	-43
16781	0	0.445251465	-0.112731934	0.104431152	0.99836731	-0.025660515	-0.015644073	-0.048564911	11.13128662	-2.81829834	2.610778809	-1.283724252	-0.782629525	-2.429567541	-1.034179688	0.413574219	0.422119141	877.94	-46.12566532	-65.63358784	-132.6976863	-43
16782	0	0.344550133	-0.107086182	0.123535156	0.998415947	-0.019329071	-0.017822266	-0.049733162	8.613753319	-2.677154541	3.088378906	-0.966964025	-0.89158396	-2.487971528	-1.052978516	0.280761719	0.479736328	877.9	-41.4520135	-71.1260943	-140.085644	-41
16783	0	0.410827637	-0.087585449	0.118408203	0.998764992	-0.00680542	-0.018046379	-0.045772552	10.27069092	-2.18963623	2.960205078	-0.340411066	-0.902690387	-2.289569721	-1.055664063	0.160400391	0.524169922	877.96	-32.03895368	-75.99865838	-150.7036813	-42
16784	0	0.455440521	-0.057355881	0.104516029	0.999257088	-0.002646446	-0.013847351	-0.03586483	11.38601303	-1.433897018	2.612900734	-0.132355084	-0.692539034	-1.793685637	-1.045410156	0.063964844	0.565917969	877.9	-18.20387778	-79.25199497	-165.1785136	-43
16785	0	0.416992188	-0.030212402	0.098510742	0.999669075	-0.005306244	-0.009654045	-0.023220062	10.42480469	-0.755310059	2.462768555	-0.265341411	-0.482755411	-1.161130963	-1.033447266	-0.008789063	0.596923828	877.9	-4.821369711	-80.91138414	-179.3904434	-43
16786	0	0.374515533	-0.031882286	0.099311829	0.999855995	-0.005502701	-0.007469177	-0.014147758	9.362888336	-0.797057152	2.482795715	-0.275148167	-0.37347668	-0.707421674	-1.020019531	-0.057373047	0.614501953	877.9	5.62293384	-81.77702819	169.3993255	-45
16787	0	0.36517334	-0.039550781	0.102172852	0.999921799	-0.005419731	-0.005203247	-0.009990692	9.129333496	-0.988769531	2.554321289	-0.270993615	-0.26016913	-0.499547617	-1.009521484	-0.090576172	0.631103516	878.02	14.12161888	-82.17418654	160.1883439	-49
16788	0	0.358422279	-0.047948837	0.113649368	0.999930382	-0.010762215	-0.002176285	-0.004134178	8.960556984	-1.198720932	2.841234207	-0.538123079	-0.108816736	-0.206713651	-1.00390625	-0.116943359	0.641601563	878.02	17.08516244	-82.28322635	155.9551919	-54
16789	0	0.34765625	-0.0625	0.124938965	0.999978065	-0.006275177	0.001244545	0.001491547	8.69140625	-1.5625	3.123474121	-0.313761107	0.062227697	0.074577868	-0.998291016	-0.139160156	0.643066406	877.96	15.18848682	-82.18593324	157.1404144	-52
16790	0	0.356646538	-0.040379524	0.117523193	0.999944687	0.006205559	0.003260612	0.007817268	8.916163445	-1.009488106	2.938079834	0.31028364	0.16303362	0.390870601	-1.005371094	-0.134521484	0.637207031	877.96	9.304448043	-82.00261581	163.7935518	-50
16791	0	0.363037109	-0.013916016	0.104064941	0.999837875	0.011479378	0.004844666	0.012962341	9.075927734	-0.347900391	2.601623535	0.573999816	0.242246329	0.64815199	-1.011230469	-0.105712891	0.638183594	877.94	0.294254653	-81.566878	174.2233411	-48
16792	0	0.35633564	-0.011694908	0.092206001	0.999765396	0.01253891	0.005885124	0.016630173	8.908390999	-0.292372704	2.305150032	0.626994452	0.294279188	0.831573566	-1.020263672	-0.059326172	0.634765625	877.96	-9.884291756	-80.73092909	-174.0206803	-45
16793	0	0.383361816	-0.017700195	0.082885742	0.99973774	0.013500214	0.006268501	0.017402649	9.58404541	-0.442504883	2.072143555	0.675069691	0.313452464	0.870208514	-1.031738281	-0.006347656	0.633789063	877.9	-18.26792	-79.54959637	-163.9378395	-44
16794	0	0.384175301	-0.018321991	0.082500458	0.999771118	0.014479637	0.007525444	0.013771057	9.604382515	-0.458049774	2.062511444	0.724036883	0.3763008	0.68860519	-1.041015625	0.046630859	0.624267578	877.96	-22.43177903	-78.19908119	-157.9963266	-43
16795	0	0.415649414	0.021972656	0.041931152	0.999267578	0.036034584	0.009613037	0.008518219	10.39123535	0.549316406	1.048278809	1.802168952	0.480769169	0.426014902	-1.049804688	0.097167969	0.609130859	877.94	-20.42486909	-76.82977748	-155.8176348	-43
16796	0	0.413908958	0.079016685	0.052004814	0.999559402	0.020923615	0.009867668	0.018554688	10.34772396	1.975417137	1.300120354	1.046334129	0.493455753	0.927870411	-1.059570313	0.167724609	0.586669922	878.02	-24.0127171	-74.99473849	-149.6383026	-43
16797	0	0.411437988	0.032409668	0.04864502	0.999617577	-0.022789001	0.011239052	0.010845184	10.28594971	0.810241699	1.216125488	-1.139595075	0.562024103	0.542328222	-1.067871094	0.211669922	0.560791016	878	-28.40783321	-73.31482995	-147.7546783	-43
16798	0	0.39897728	-0.042709351	0.060586929	0.999670982	-0.022054672	0.009033203	0.009440422	9.974431992	-1.067733765	1.514673233	-1.102854421	0.451709637	0.472072815	-1.079101563	0.205322266	0.558837891	877.96	-32.12998552	-71.90337273	-146.4847063	-43
16799	0	0.40423584	-0.037902832	0.066223145	0.999873161	-0.011604309	0.005433083	0.00945282	10.105896	-0.947570801	1.655578613	-0.580239974	0.271665609	0.472660965	-1.0859375	0.203369141	0.55078125	877.84	-35.00440077	-70.81689142	-144.8455535	-44
16800	0	0.40517807	-0.043723106	0.071679115	0.999965668	0.006238937	0.004954338	0.001964569	10.12945175	-1.09307766	1.791977882	0.31195037	0.247719684	0.098229557	-1.091064453	0.214355469	0.544433594	877.96	-33.80303114	-70.25509833	-145.3510394	-43
16801	0	0.364379883	0.049316406	0.069274902	0.999993324	0.001995087	0.001843452	0.002368927	9.10949707	1.232910156	1.731872559	0.099754549	0.092172822	0.118446607	-1.09375	0.229736328	0.529052734	877.96	-33.76061588	-69.96640523	-145.1360624	-43
16802	0	0.348265648	-0.004329681	0.078934669	0.999821663	-0.018424988	-0.004056931	0.000790596	8.706641197	-0.108242035	1.973366737	-0.921304146	-0.202858584	0.03953215	-1.09375	0.229736328	0.534667969	877.94	-36.70447	-70.33432761	-144.2242558	-44
16803	0	0.373535156	-0.07824707	0.092712402	0.999879837	-0.011767387	-0.006008148	-0.008060455	9.338378906	-1.956176758	2.317810059	-0.588392862	-0.300419404	-0.403038858	-1.088378906	0.203369141	0.553710938	878.02	-36.99392778	-71.47965596	-145.3229811	-43
16804	0	0.388805389	-0.072561264	0.090753555	0.999897003	0.004894257	-0.006648064	-0.011699677	9.720134735	-1.814031601	2.268838882	0.244721193	-0.332414543	-0.585003818	-1.087402344	0.172851563	0.573486328	877.9	-34.29625201	-72.91943905	-147.5583622	-43
16805	0	0.385009766	-0.051208496	0.091003418	0.999853134	0.009922981	-0.007606506	-0.011676788	9.625244141	-1.280212402	2.275085449	0.496173268	-0.380343872	-0.583867899	-1.082275391	0.155273438	0.5859375	878	-30.76696549	-74.41142314	-150.0432383	-43
16806	0	0.385373116	-0.034416199	0.080756187	0.99982357	0.01395607	-0.0076828	-0.009899139	9.634327888	-0.860404968	2.018904686	0.697844417	-0.384162541	-0.494985995	-1.079589844	0.144287109	0.601074219	878.02	-26.86766027	-75.76521378	-152.4182582	-44
16807	0	0.38684082	-0.046020508	0.083374023	0.99992466	-0.002971649	-0.006937981	-0.009632111	9.671020508	-1.150512695	2.084350586	-0.148586167	-0.346907691	-0.48161755	-1.069824219	0.130859375	0.610351563	878	-24.33967713	-76.99230587	-155.3532167	-44
16808	0	0.384281158	-0.061465263	0.078891754	0.999947548	-0.003046989	-0.005340576	-0.008190155	9.607028961	-1.536631584	1.972293854	-0.152352135	-0.267033477	-0.40951491	-1.064453125	0.106689453	0.629150391	877.9	-21.68572229	-77.95225723	-158.418877	-45
16809	0	0.390686035	-0.071472168	0.079223633	0.99996376	-0.00405407	-0.003974915	-0.006221771	9.767150879	-1.786804199	1.98059082	-0.202705873	-0.198748078	-0.311092241	-1.059082031	0.086914063	0.639160156	877.96	-19.50136517	-78.65554976	-161.1149696	-45
16810	0	0.380394936	-0.043393135	0.083891869	0.999960899	-0.007530212	-0.002256393	-0.00398159	9.50987339	-1.084828377	2.097296715	-0.376515493	-0.112821132	-0.19908209	-1.056152344	0.069091797	0.643310547	877.96	-18.39215412	-79.07128201	-163.1159177	-45
16811	0	0.388061523	-0.061767578	0.085998535	0.999991417	-0.0037117	-0.001330376	0.000385284	9.701538086	-1.544189453	2.149963379	-0.185585507	-0.066518958	0.019264272	-1.052978516	0.051513672	0.647460938	877.9	-19.08982602	-79.22203354	-162.8372557	-45
16812	0	0.380434036	-0.046380997	0.082324982	0.999979973	-0.005084038	0.000278473	0.003513336	9.510850906	-1.159524918	2.058124542	-0.25420351	0.013923734	0.17566793	-1.050537109	0.047119141	0.647460938	877.94	-21.39406502	-79.07256492	-161.0814289	-45
16813	0	0.379882813	-0.04309082	0.07598877	0.999978065	-0.003322601	0.001690865	0.005462646	9.497070313	-1.077270508	1.899719238	-0.166131277	0.084543844	0.273134315	-1.050537109	0.051513672	0.644287109	877.96	-24.15182209	-78.67152409	-158.654438	-45
16814	0	0.381184578	-0.096069336	0.070490837	0.999960899	0.005331039	0.001228333	0.006849289	9.529614449	-2.401733398	1.762270927	0.266555385	0.061417413	0.342468833	-1.053466797	0.060302734	0.646728516	877.9	-26.56933703	-78.22758456	-155.562272	-45
16815	0	0.387939453	0.003662109	0.067993164	0.999965668	0.001847267	0.002540588	0.007610321	9.698486328	0.091552734	1.699829102	0.092364401	0.127030854	0.380520351	-1.056640625	0.084472656	0.633300781	877.96	-29.17848654	-77.5839996	-152.6707259	-45
16816	0	0.379414558	-0.084532738	0.0645504	0.999972343	0.002804756	0.002138138	0.006457329	9.48536396	-2.113318443	1.613759995	0.140239074	0.106907855	0.322869353	-1.057128906	0.09765625	0.637939453	878	-31.03384293	-77.02242631	-150.4339497	-45
16817	0	0.373535156	-0.037719727	0.062988281	0.999962807	0.005683899	0.00117588	0.006324768	9.338378906	-0.942993164	1.574707031	0.284198437	0.058794744	0.316242287	-1.058105469	0.124023438	0.627441406	878	-32.59360032	-76.54848401	-148.1546536	-45
16818	0	0.3785429	-0.077475548	0.061135292	0.999974251	-0.001197815	0.00088501	0.006924629	9.463572502	-1.936888695	1.528382301	-0.059891248	0.044250858	0.346234356	-1.056396484	0.136962891	0.626220703	878	-35.10871859	-76.04511055	-145.7000659	-45
16819	0	0.385986328	0.019287109	0.078369141	0.999976158	-2.67E-05	0.00024128	0.006782532	9.649658203	0.482177734	1.959228516	-0.001335154	0.012064073	0.33912919	-1.0546875	0.156738281	0.621582031	878	-37.42878648	-75.58854972	-143.3014421	-45
16820	0	0.391236305	-0.098826408	0.077453613	0.999986649	-0.001970291	-0.000605583	0.00467205	9.780907631	-2.47066021	1.936340332	-0.098514985	-0.030279291	0.233603539	-1.050292969	0.158935547	0.626953125	877.98	-39.35452928	-75.33524559	-141.5394057	-44
16821	0	0.386230469	-0.022705078	0.091796875	0.999966621	-0.0078125	-2.96E-05	0.002098083	9.655761719	-0.567626953	2.294921875	-0.39062926	-0.001478211	0.104905319	-1.048339844	0.171875	0.620117188	877.9	-40.86929123	-75.20862038	-140.8869698	-44
16822	0	0.384428024	-0.068576813	0.089748383	0.99998188	-0.005958557	0.000276566	-0.000337601	9.610700607	-1.714420319	2.243709564	-0.297929629	0.01382836	-0.016880136	-1.047851563	0.160888672	0.626708984	877.9	-41.27477263	-75.23495525	-141.1658876	-45
16823	0	0.37890625	-0.073547363	0.082092285	0.999996185	0.000630379	-0.001010895	-0.002307892	9.47265625	-1.838684082	2.052307129	0.031518972	-0.050544796	-0.115394722	-1.048095703	0.156494141	0.627197266	877.94	-40.64002161	-75.51949727	-141.7405263	-45
16824	0	0.377820015	-0.072069168	0.080870628	0.999992371	-0.001094818	-0.000618935	-0.003531456	9.445500374	-1.801729202	2.021765709	-0.054741034	-0.030946804	-0.176573213	-1.047607422	0.149902344	0.624755859	877.9	-39.64231584	-75.85700735	-142.8927918	-44
16825	0	0.38470459	-0.079162598	0.083679199	0.999967575	-0.006453514	-0.000789642	-0.004581451	9.617614746	-1.979064941	2.09197998	-0.322679107	-0.039482533	-0.229074986	-1.047119141	0.13671875	0.628662109	877.9	-38.88277645	-76.28001826	-144.4298584	-44
16826	0	0.374642372	-0.079271317	0.079362869	0.999994278	0.000731468	-0.001255989	-0.003000259	9.366059303	-1.981782913	1.984071732	0.036573478	-0.06279957	-0.150013248	-1.046630859	0.121582031	0.629882813	878.02	-37.9605294	-76.62531208	-145.28839	-44
16827	0	0.375427246	-0.089477539	0.078552246	0.999993324	-0.002487183	-0.001307487	-0.001941681	9.385681152	-2.236938477	1.963806152	-0.124359373	-0.065374501	-0.097084234	-1.046386719	0.114990234	0.630371094	878	-37.80159599	-76.89711888	-145.739702	-44
16828	0	0.37680912	-0.081818581	0.078621864	0.999997139	-0.001055717	-0.001506805	-0.001227379	9.420228004	-2.045464516	1.965546608	-0.052785916	-0.075340332	-0.061368992	-1.043945313	0.110351563	0.633544922	877.9	-37.81396832	-77.13510048	-145.8464379	-44
16829	0	0.375366211	-0.082214355	0.078674316	0.999998093	0.001049995	-0.001441956	-0.000469208	9.384155273	-2.055358887	1.96685791	0.052499801	-0.072097819	-0.023460401	-1.043701172	0.104003906	0.645507813	878.02	-37.87109979	-77.31231344	-145.6609226	-44
16830	0	0.375862122	-0.079491615	0.082396507	0.999997139	-0.00021553	-0.001758575	0.000871658	9.39655304	-1.987290382	2.059912682	-0.010776527	-0.087928829	0.043582945	-1.041503906	0.105957031	0.642333984	877.96	-38.72357011	-77.4207627	-144.8086122	-44
16831	0	0.383117676	-0.085021973	0.082336426	0.999996185	0.001652718	-0.001472473	0.001186371	9.577941895	-2.125549316	2.058410645	0.082635966	-0.073623735	0.059318605	-1.039306641	0.108154297	0.647705078	877.9	-39.41114463	-77.47673112	-143.9065074	-43
16832	0	0.384161949	-0.069681168	0.078686714	0.999995232	0.002491951	-0.000341415	0.00144577	9.604048729	-1.74202919	1.967167854	0.124597724	-0.017070794	0.072288615	-1.037109375	0.114746094	0.647216797	877.94	-39.73798878	-77.4110169	-143.2752767	-43
16833	0	0.382629395	-0.063537598	0.078186035	0.999993324	0.003166199	0.000119209	0.001415253	9.565734863	-1.588439941	1.954650879	0.158310254	0.005960476	0.070762776	-1.03515625	0.12109375	0.646484375	878	-39.81988567	-77.30563919	-142.8158197	-43
16834	0	0.384021759	-0.062685013	0.075375557	0.999994278	0.00314045	0.000784874	0.000985146	9.600543976	-1.56712532	1.884388924	0.157022776	0.039243773	0.049257372	-1.035400391	0.125488281	0.646240234	877.94	-39.51922298	-77.1725695	-142.7516414	-44
16835	0	0.383483887	-0.056335449	0.073120117	0.999992371	0.003548622	0.000694275	0.000652313	9.587097168	-1.40838623	1.82800293	0.177431506	0.034713823	0.032615735	-1.040283203	0.132324219	0.645751953	878	-39.07438579	-77.07150569	-142.7872459	-44
16836	0	0.383983612	-0.057567596	0.069605827	0.999990463	0.004238129	0.000847816	-0.000206947	9.599590302	-1.439189911	1.740145683	0.211907094	0.042390956	-0.010347399	-1.038085938	0.13671875	0.639648438	877.88	-38.17443125	-77.01794588	-143.2088016	-44
16837	0	0.38104248	-0.053710938	0.067504883	0.999994278	0.003109932	0.000461578	-2.29E-05	9.526062012	-1.342773438	1.68762207	0.155496853	0.023078956	-0.001144411	-1.040527344	0.141113281	0.636474609	877.9	-37.59860874	-76.98521851	-143.4304006	-44
16838	0	0.377199173	-0.057919502	0.066871643	0.999998093	0.001805305	3.15E-05	-0.000675201	9.429979324	-1.447987556	1.671791077	0.09026533	0.001573564	-0.033760092	-1.04296875	0.143310547	0.639404297	877.94	-37.04698328	-77.03643882	-143.7804896	-44
16839	0	0.381835938	-0.060668945	0.069641113	0.999999046	-0.000225067	-0.000319481	-0.001003265	9.545898438	-1.516723633	1.741027832	-0.011253359	-0.015974048	-0.050163279	-1.040527344	0.143310547	0.636474609	877.9	-36.7000966	-77.1415261	-144.1589472	-44
16840	0	0.379019737	-0.062932968	0.074313164	0.999996185	-0.002187729	-0.00032711	-0.001110077	9.475493431	-1.573324203	1.857829094	-0.109386556	-0.016355531	-0.055503902	-1.040527344	0.141113281	0.633789063	877.9	-36.53358654	-77.253661	-144.5829033	-44
16841	0	0.381103516	-0.065673828	0.076599121	0.999997139	-0.002170563	-0.000426292	-0.00088501	9.527587891	-1.641845703	1.914978027	-0.10852824	-0.021314641	-0.04425053	-1.040283203	0.134521484	0.636962891	878.02	-36.48450565	-77.35865367	-144.8848154	-44
16842	0	0.382699966	-0.070652008	0.079015732	0.999998093	-0.001114845	2.00E-05	-0.000846863	9.567499161	-1.766300201	1.975393295	-0.055742282	0.001001358	-0.042343153	-1.042480469	0.132324219	0.637451172	877.84	-36.19391156	-77.41866525	-145.3102287	-44
16843	0	0.380981445	-0.069152832	0.077941895	0.999999046	0.000205994	0.000260353	-0.000663757	9.524536133	-1.728820801	1.948547363	0.010299684	0.013017656	-0.033187869	-1.042480469	0.130126953	0.640380859	877.96	-35.7549163	-77.44255639	-145.7328162	-44
16844	0	0.378767967	-0.064224243	0.077736855	0.999999046	0.000945091	0.000366211	0.000312805	9.469199181	-1.605606079	1.943421364	0.047254571	0.01831055	0.015640262	-1.042236328	0.127929688	0.637695313	877.9	-35.60831676	-77.39008414	-145.7695134	-45
16845	0	0.379211426	-0.061096191	0.07409668	0.999999046	0.001152039	0.000359535	0.000427246	9.480285645	-1.527404785	1.852416992	0.057601944	0.017976766	0.021362311	-1.044677734	0.127929688	0.635009766	878	-35.48981325	-77.33011267	-145.7532131	-44
16846	0	0.380449295	-0.060090065	0.074812889	0.999999046	0.000375748	-2.29E-05	0.000415802	9.511232376	-1.502251625	1.870322227	0.018787385	-0.001144409	0.020790101	-1.044677734	0.132324219	0.634521484	878.02	-35.56999655	-77.30613884	-145.6239996	-44
16847	0	0.380615234	-0.061584473	0.073242188	0.999999046	5.34E-05	7.72E-05	4.96E-05	9.515380859	-1.539611816	1.831054688	0.002670288	0.003862381	0.002479553	-1.042480469	0.130126953	0.640380859	877.96	-35.50749511	-77.2968257	-145.6792062	-44
16848	0	0.378705978	-0.059661865	0.072756767	0.999999046	-0.000821114	-0.000244141	0.000376701	9.46764946	-1.491546631	1.818919182	-0.041055685	-0.012207033	0.01883507	-1.042480469	0.134521484	0.634277344	877.96	-35.77690358	-77.29530345	-145.4964492	-45
16849	0	0.380554199	-0.062927246	0.074035645	0.999998093	-0.001574516	-0.000350952	0.000492096	9.51385498	-1.573181152	1.850891113	-0.078725852	-0.017547616	0.024604809	-1.042480469	0.130126953	0.640380859	877.96	-36.21368134	-77.29522275	-145.2312028	-44
16850	0	0.380910873	-0.0625	0.074487686	0.999997139	-0.002269745	-0.000152588	0.000495911	9.522771835	-1.5625	1.862192154	-0.113487346	-0.007629401	0.024795555	-1.044677734	0.130371094	0.640625	877.9	-36.67304696	-77.27571167	-145.0242705	-44
16851	0	0.381225586	-0.0625	0.078125	0.999998093	-0.001708031	-4.20E-05	0.000637054	9.530639648	-1.5625	1.953125	-0.085401582	-0.002098085	0.03185274	-1.042480469	0.130126953	0.640380859	878.02	-37.09113995	-77.23544871	-144.793711	-44
16852	0	0.380235672	-0.063434601	0.077754974	0.999999046	-0.000628471	7.44E-05	0.000774384	9.5058918	-1.585865021	1.943874359	-0.031423574	0.00371933	0.038719184	-1.042236328	0.127929688	0.637695313	877.9	-37.40377809	-77.17416652	-144.5448298	-44
16853	0	0.383239746	-0.065124512	0.07635498	0.999999046	8.01E-05	0.000100136	0.000492096	9.580993652	-1.628112793	1.908874512	0.004005432	0.00500679	0.024604798	-1.042480469	0.127929688	0.643554688	878	-37.513765	-77.12952941	-144.4205168	-44
16854	0	0.381878853	-0.064573288	0.076501846	0.999999046	0.000289917	6.68E-05	-3.05E-05	9.546971321	-1.614332199	1.912546158	0.01449585	0.00333786	-0.001525879	-1.042480469	0.130126953	0.643310547	878	-37.40245519	-77.12389203	-144.4983284	-45
16855	0	0.381103516	-0.062988281	0.073425293	0.999999046	0.000617981	0.000142097	-0.000255585	9.527587891	-1.574707031	1.835632324	0.03089905	0.007104874	-0.012779237	-1.044677734	0.130371094	0.640625	878	-37.14193784	-77.12666427	-144.6907602	-45
16856	0	0.38056469	-0.062520027	0.073792458	1	2.67E-05	1.05E-05	-4.67E-05	9.514117241	-1.563000679	1.84481144	0.001335144	0.000524521	-0.002336502	-1.044677734	0.130126953	0.637695313	877.88	-37.07335449	-77.12661963	-144.7558843	-45
16857	0	0.380859375	-0.062438965	0.075744629	0.999999046	-0.000389099	-2.96E-05	0.00012207	9.521484375	-1.560974121	1.893615723	-0.019454957	-0.001478195	0.006103516	-1.042236328	0.127929688	0.637695313	878	-37.13267368	-77.11821957	-144.7388876	-45
16858	0	0.381275177	-0.062590599	0.075061798	0.999999046	-0.000429153	-0.000112534	0.000227928	9.531879425	-1.564764977	1.876544952	-0.021457673	-0.005626679	0.011396409	-1.042480469	0.127929688	0.643554688	877.96	-37.2646194	-77.10974808	-144.652051	-45
16859	0	0.38104248	-0.062927246	0.075622559	0.999999046	-0.00043869	1.62E-05	-2.29E-05	9.526062012	-1.573181152	1.890563965	-0.02193451	0.000810623	-0.001144409	-1.044677734	0.128173828	0.643554688	877.88	-37.25927529	-77.10658636	-144.7071464	-45
16860	0	0.38079834	-0.062732697	0.075944901	0.999999046	-4.48E-05	5.34E-05	-0.000232697	9.519958496	-1.568317413	1.898622513	-0.002241135	0.002670288	-0.011634827	-1.044677734	0.125976563	0.646728516	877.9	-37.11440297	-77.11421413	-144.8592997	-45
16861	0	0.382141113	-0.063049316	0.075012207	0.999999046	0.000247955	2.77E-05	-0.000202179	9.553527832	-1.57623291	1.875305176	0.012397766	0.001382828	-0.010108948	-1.044677734	0.127929688	0.637939453	877.94	-36.95655287	-77.12172123	-144.9901381	-45
16862	0	0.380270004	-0.064019203	0.074453354	0.999999046	-9.54E-06	6.68E-05	-0.000138283	9.506750107	-1.60048008	1.861333847	-0.000476837	0.00333786	-0.006914139	-1.044677734	0.125976563	0.640869141	877.96	-36.84299667	-77.12087387	-145.1060762	-45
16863	0	0.381713867	-0.06439209	0.075073242	0.999999046	-0.00018692	-6.77E-05	-4.58E-05	9.54284668	-1.609802246	1.876831055	-0.009346008	-0.003385544	-0.002288818	-1.044677734	0.125976563	0.640869141	877.94	-36.8283553	-77.12566069	-145.1413668	-45
16864	0	0.381424904	-0.062921524	0.076461792	0.999999046	-0.000283241	0.000175476	-0.000125885	9.535622597	-1.573038101	1.9115448	-0.014162064	0.008773804	-0.006294251	-1.044433594	0.123779297	0.641113281	877.96	-36.72022119	-77.11329016	-145.2840799	-45
16865	0	0.380371094	-0.061340332	0.075012207	0.999999046	0.000434875	0.000103951	9.16E-05	9.509277344	-1.533508301	1.875305176	0.021743775	0.005197525	0.004577637	-1.044677734	0.123779297	0.644042969	877.94	-36.63922213	-77.09233973	-145.3145734	-45
16866	0	0.380953789	-0.061772346	0.075754166	0.999999046	0.000377655	0.000259399	0.000117302	9.523844719	-1.544308662	1.893854141	0.018882752	0.012969971	0.005865097	-1.046875	0.123779297	0.644042969	877.94	-36.52952647	-77.05507266	-145.3813046	-45
16867	0	0.383728027	-0.061889648	0.073852539	0.999999046	0.000225067	0.000210762	-7.63E-05	9.593200684	-1.547241211	1.846313477	0.011253357	0.010538101	-0.003814697	-1.044677734	0.125732422	0.637939453	877.9	-36.37545583	-77.03532117	-145.511259	-45
16868	0	0.380592346	-0.061431885	0.075260162	0.999999046	-0.000231743	0.000192642	-0.000531197	9.514808655	-1.535797119	1.881504059	-0.011587144	0.009632111	-0.026559831	-1.046875	0.123779297	0.644042969	878	-36.09727741	-77.04776585	-145.8224658	-45
16869	0	0.379577637	-0.063476563	0.076538086	0.999999046	6.48E-05	-0.000105858	-0.000484467	9.489440918	-1.586914063	1.913452148	0.003242493	-0.005292893	-0.024223329	-1.046875	0.123779297	0.641113281	877.9	-35.89158244	-77.08413915	-146.0243693	-45
16870	0	0.380020142	-0.062610626	0.075732231	0.999999046	0.000276566	-1.53E-05	-0.000439644	9.50050354	-1.565265656	1.893305779	0.013828278	-0.000762939	-0.021982194	-1.046875	0.121582031	0.644287109	877.94	-35.65309032	-77.10866223	-146.2352582	-45
16871	0	0.379699707	-0.06237793	0.076599121	0.999999046	0.000297546	-9.44E-05	6.10E-05	9.492492676	-1.559448242	1.914978027	0.01487732	-0.004720688	0.003051758	-1.049072266	0.121582031	0.635742188	877.94	-35.63931036	-77.10673207	-146.2132274	-45
16872	0	0.381171227	-0.062868118	0.07583046	0.999999046	0.000123024	-0.000148773	0.000305176	9.529280663	-1.571702957	1.89576149	0.006151199	-0.00743866	0.015258789	-1.049316406	0.123779297	0.644287109	877.84	-35.76151118	-77.09328867	-146.0720088	-45
16873	0	0.380859375	-0.062011719	0.075805664	0.999999046	9.54E-05	2.77E-05	0.000339508	9.521484375	-1.550292969	1.895141602	0.004768372	0.001382828	0.016975403	-1.046875	0.123779297	0.638427734	877.96	-35.84958158	-77.06088022	-145.969192	-45
16874	0	0.380507469	-0.061523438	0.076081276	0.999999046	0.000322342	-0.000200272	0.000175476	9.512686729	-1.538085938	1.902031898	0.016117096	-0.010013581	0.008773804	-1.046875	0.123779297	0.644042969	877.9	-35.9121804	-77.06042652	-145.8659117	-45
16875	0	0.381896973	-0.061096191	0.074645996	0.999999046	0.00056839	-0.000102043	0.000198364	9.547424316	-1.527404785	1.866149902	0.028419496	-0.005102158	0.009918214	-1.046875	0.123779297	0.644042969	878	-35.92761667	-77.04919876	-145.7821808	-45
16876	0	0.381093979	-0.060857773	0.074636459	0.999999046	0.000494957	-0.000276566	0.000171661	9.527349472	-1.521444321	1.865911484	0.02474785	-0.013828278	0.008583069	-1.044677734	0.123779297	0.644042969	877.96	-35.99222304	-77.05584232	-145.6566292	-45
16877	0	0.381530762	-0.060119629	0.07434082	0.999999046	0	-0.000304222	8.01E-05	9.538269043	-1.502990723	1.858520508	0	-0.015211106	0.004005432	-1.047119141	0.125976563	0.643798828	877.9	-36.08528026	-77.07112563	-145.5598011	-45
16878	0	0.381628036	-0.062073708	0.076426506	0.999999046	-0.00060463	-0.000270844	-4.58E-05	9.540700912	-1.55184269	1.910662651	-0.030231478	-0.013542176	-0.002288819	-1.044677734	0.125976563	0.643798828	877.96	-36.18774195	-77.09159233	-145.5243773	-45
16879	0	0.381896973	-0.061645508	0.075012207	0.999999046	0	-0.000105858	7.63E-06	9.547424316	-1.541137695	1.875305176	0	-0.005292892	0.00038147	-1.047119141	0.125976563	0.643798828	877.9	-36.19442848	-77.09305311	-145.5163011	-45
16880	0	0.38075161	-0.060858727	0.075235367	0.999999046	0.000296593	-2.86E-05	-9.54E-07	9.518790245	-1.521468163	1.880884171	0.014829636	-0.001430511	-4.77E-05	-1.044677734	0.125976563	0.640869141	877.9	-36.14118162	-77.08782156	-145.5349013	-45
16881	0	0.379821777	-0.062255859	0.075744629	0.999999046	0.000228882	-0.000144005	0.000263214	9.495544434	-1.556396484	1.893615723	0.011444092	-0.007200241	0.013160706	-1.047119141	0.125976563	0.646728516	877.96	-36.23674954	-77.07519205	-145.4089539	-45
16882	0	0.386525154	-0.059802055	0.072669029	0.999999046	5.53E-05	-0.000114441	9.92E-05	9.663128853	-1.495051384	1.816725731	0.002765656	-0.005722046	0.004959106	-1.047119141	0.125976563	0.643798828	877.94	-36.27772285	-77.071004	-145.3593685	-45
16883	0	0.379699707	-0.060974121	0.074707031	0.999999046	-0.000282288	0.000206947	-0.000465393	9.492492676	-1.524353027	1.867675781	-0.014114381	0.010347367	-0.023269655	-1.044677734	0.125976563	0.646728516	877.94	-36.03555355	-77.07516788	-145.6397126	-45
16884	0	0.379238129	-0.063228607	0.076658249	0.999999046	0.000306129	-0.000102997	-0.000114441	9.480953217	-1.580715179	1.916456223	0.015306473	-0.005149841	-0.005722046	-1.044677734	0.125976563	0.643798828	877.96	-35.95919278	-77.08399913	-145.6809413	-45
16885	0	0.381591797	-0.061401367	0.073852539	0.999999046	-0.000164032	-3.72E-05	0.000125885	9.539794922	-1.53503418	1.846313477	-0.008201599	-0.001859665	0.006294251	-1.046875	0.121582031	0.644287109	877.94	-36.01514595	-77.07048516	-145.6423761	-45
16886	0	0.381886482	-0.060790062	0.075756073	0.999999046	-0.000259399	-3.62E-05	0.000320435	9.547162056	-1.519751549	1.893901825	-0.012969971	-0.001811981	0.016021729	-1.046875	0.123779297	0.646972656	877.96	-36.16024216	-77.04363362	-145.5229555	-45
16887	0	0.380981445	-0.062316895	0.077209473	0.999999046	-8.39E-05	-0.000235558	0.000564575	9.524536133	-1.557922363	1.930236816	-0.004196167	-0.011777879	0.028228762	-1.046875	0.123779297	0.641113281	878	-36.44143711	-77.01831678	-145.2434266	-45
