Counter	Temperature	VelInc_X	VelInc_Y	VelInc_Z	OriInc_w	OriInc_x	OriInc_y	OriInc_z	Acc_X	Acc_Y	Acc_Z	Gyr_X	Gyr_Y	Gyr_Z	Mag_X	Mag_Y	Mag_Z	Pressure	Roll	Pitch	Yaw	RSSI
54202	0	0.385363579	-0.034472466	0.056679726	0.999974251	-0.006677628	0.001552582	0.002120018	9.63408947	-0.861811638	1.416993141	-0.333884244	0.077629756	0.10600181	-0.645019531	0.006103516	-0.7421875	878.16	-31.46138344	-78.75419049	30.80063941	-70
54203	0	0.382751465	-0.047668457	0.06036377	0.999994278	-0.0022192	0.000892639	0.002006531	9.568786621	-1.191711426	1.509094238	-0.110960187	0.044632031	0.100326701	-0.643066406	0.016845703	-0.740234375	878.18	-32.34733537	-78.54741844	31.45731391	-70
54204	0	0.387319565	-0.039759636	0.054412842	0.999990463	0.003973007	0.000170708	0.001800537	9.68298912	-0.993990898	1.360321045	0.198650991	0.008535412	0.090027141	-0.643066406	0.019042969	-0.74609375	878.1	-32.62590348	-78.42243599	32.20764403	-70
54205	0	0.383483887	-0.031616211	0.058532715	0.999993324	0.003135681	-0.000273705	0.001594543	9.587097168	-0.790405273	1.463317871	0.156784383	-0.013685255	0.079727338	-0.640625	0.014648438	-0.740234375	878.1	-33.02738188	-78.35280855	32.98803762	-70
54206	0	0.383843422	-0.031442642	0.057538986	0.999998093	0.000134468	-0.000182152	0.001754761	9.596085548	-0.786066055	1.438474655	0.006723407	-0.009107594	0.087738083	-0.642822266	0.012451172	-0.745605469	878.14	-33.80915071	-78.26339809	33.81420589	-70
54207	0	0.389587402	-0.040527344	0.064941406	0.999997139	-0.000930786	3.15E-05	0.001918793	9.739685059	-1.013183594	1.623535156	-0.046539342	0.001573564	0.095939709	-0.643066406	0.019287109	-0.740478516	878.16	-34.70747685	-78.1409709	34.628749	-70
54208	0	0.388912201	-0.032382011	0.068018913	0.999997139	0.00156498	5.15E-05	0.001483917	9.722805023	-0.809550285	1.700472832	0.078249038	0.002574923	0.074195919	-0.643066406	0.016845703	-0.743164063	878.14	-35.10304627	-78.04366525	35.22581718	-70
54209	0	0.388549805	-0.03918457	0.069458008	0.999997139	-0.000320435	0.000325203	0.001972198	9.713745117	-0.979614258	1.736450195	-0.016021739	0.016260158	0.098609992	-0.643066406	0.019042969	-0.743164063	878.08	-35.83086008	-77.88728437	35.94322002	-70
54210	0	0.392635345	-0.036628723	0.069566727	0.999998093	0.000607491	0.000929832	0.001102448	9.815883636	-0.915718079	1.739168167	0.030374539	0.046491642	0.055122398	-0.640869141	0.021240234	-0.746337891	878.16	-35.87439482	-77.73242144	36.06604815	-70
54211	0	0.386413574	-0.038452148	0.070068359	0.999995232	-0.002655029	0.001202583	0.000514984	9.660339355	-0.961303711	1.751708984	-0.132751659	0.060129253	0.025749244	-0.640869141	0.0234375	-0.743652344	878.16	-35.95469262	-77.59188532	35.84841531	-70
54212	0	0.382235527	-0.040258408	0.070897102	0.999997139	-0.001887321	0.001354218	0.00023365	9.555888176	-1.00646019	1.772427559	-0.094366159	0.067710938	0.011682521	-0.638671875	0.027832031	-0.747070313	878.2	-35.78438624	-77.45620267	35.46124157	-70
54213	0	0.382751465	-0.037353516	0.067260742	0.99998188	-0.005760193	0.001523018	-0.000347137	9.568786621	-0.933837891	1.681518555	-0.288011353	0.076151346	-0.017356976	-0.636474609	0.032226563	-0.747558594	878.18	-35.769041	-77.3439368	34.78467987	-69
54214	0	0.382261276	-0.057405472	0.073747635	0.999986649	-0.004851341	0.001105309	-0.000730515	9.556531906	-1.435136795	1.843690872	-0.242568085	0.05526566	-0.03652588	-0.634521484	0.04296875	-0.754394531	878.18	-35.62159891	-77.29548334	34.07052069	-69
54215	0	0.384216309	-0.051025391	0.07043457	0.999999046	-0.000488281	0.000683784	-0.00031662	9.605407715	-1.275634766	1.760864258	-0.024414066	0.034189229	-0.015830996	-0.634765625	0.045166016	-0.751708984	878.16	-35.27346094	-77.25810314	33.65893997	-69
54216	0	0.384643555	-0.046024323	0.06560421	0.999991417	-0.003846169	0.000844955	-0.000136375	9.616088867	-1.150608063	1.640105247	-0.192308924	0.042247882	-0.006818789	-0.632324219	0.045166016	-0.751708984	878.06	-35.33988996	-77.19376141	33.28787779	-70
54217	0	0.383300781	-0.059692383	0.070068359	0.999998093	-0.001784325	0.00056076	0.000133514	9.582519531	-1.49230957	1.751708984	-0.089216285	0.028038041	0.006675724	-0.627929688	0.051513672	-0.752441406	878.14	-35.36747095	-77.13786098	33.11094411	-70
54218	0	0.385287285	-0.048439026	0.067337036	0.999999046	-0.00079155	0.000368118	0.000339508	9.632182121	-1.210975647	1.683425903	-0.03957749	0.018405917	0.016975405	-0.627929688	0.051757813	-0.749755859	878.22	-35.42245636	-77.08650836	33.08080214	-70
54219	0	0.383300781	-0.053771973	0.071350098	0.999993324	-0.003479004	0.000462532	0.000728607	9.582519531	-1.344299316	1.783752441	-0.173950568	0.023126652	0.036430437	-0.625488281	0.055908203	-0.758789063	878.2	-35.91553565	-77.00027341	33.1882674	-70
54220	0	0.380892754	-0.055702209	0.074674606	0.999999046	-0.000935555	0.000202179	0.000873566	9.52231884	-1.392555237	1.866865158	-0.046777738	0.010108951	0.043678296	-0.625976563	0.060302734	-0.747558594	878.22	-36.24850084	-76.92789499	33.42508764	-70
54221	0	0.380859375	-0.053344727	0.073364258	0.999999046	-0.00019455	-6.68E-06	0.001010895	9.521484375	-1.333618164	1.834106445	-0.00972748	-0.000333786	0.050544748	-0.625976563	0.0625	-0.750732422	878.06	-36.60925343	-76.86496227	33.77648239	-70
54222	0	0.382759094	-0.057504654	0.073945999	0.999998093	0.001608849	-0.000145912	0.000781059	9.568977356	-1.437616348	1.848649979	0.080442472	-0.007295612	0.039052984	-0.628417969	0.067138672	-0.75390625	878.1	-36.71222319	-76.83000038	34.06415177	-70
54223	0	0.387573242	-0.046691895	0.069030762	0.999997139	0.001926422	0.000199318	0.000926971	9.689331055	-1.167297363	1.725769043	0.09632118	0.009965904	0.046348607	-0.625976563	0.0625	-0.756347656	878.14	-36.73323994	-76.75361011	34.31036779	-70
54224	0	0.387822151	-0.048240662	0.070223808	0.999998093	-0.001407623	0.000617027	0.000787735	9.69555378	-1.206016541	1.755595207	-0.0703812	0.030851379	0.039386769	-0.628173828	0.062744141	-0.753417969	878.14	-36.95811246	-76.64862829	34.37938331	-71
54225	0	0.382873535	-0.052124023	0.071594238	0.999999046	0.000785828	0.000462532	0.000267029	9.571838379	-1.303100586	1.789855957	0.039291388	0.023126606	0.013351442	-0.625976563	0.066894531	-0.756835938	878.1	-36.77514818	-76.59367717	34.27733414	-71
54226	0	0.38278389	-0.050453186	0.067326546	0.999999046	0.000423431	0.000337601	-0.000226021	9.569597244	-1.261329651	1.683163643	0.021171571	0.016880036	-0.011301041	-0.625976563	0.064697266	-0.753662109	878.16	-36.48099138	-76.58414043	34.02031855	-71
54227	0	0.382324219	-0.050292969	0.069763184	0.999999046	0.000301361	0.0001688	-0.000518799	9.558105469	-1.257324219	1.74407959	0.015068055	0.008440018	-0.025939943	-0.623535156	0.064697266	-0.759521484	878.16	-36.13566997	-76.60993892	33.69397261	-71
54228	0	0.384057999	-0.046070099	0.066989899	0.999999046	-1.05E-05	-5.15E-05	-0.000190735	9.601449966	-1.151752472	1.674747467	-0.000524521	-0.002574921	-0.009536743	-0.623535156	0.0625	-0.759521484	878.1	-36.01518459	-76.63414533	33.56576326	-72
54229	0	0.383422852	-0.048583984	0.0703125	0.999994278	-0.003317833	8.01E-05	-0.000137329	9.585571289	-1.214599609	1.7578125	-0.165891952	0.004005439	-0.006866468	-0.623535156	0.0625	-0.759521484	878.1	-36.25689988	-76.64278871	33.42972172	-72
54230	0	0.383364677	-0.057591438	0.076095581	0.999997139	-0.002029419	-0.000200272	1.05E-05	9.584116936	-1.439785957	1.902389526	-0.101471018	-0.010013587	0.000524521	-0.626220703	0.066894531	-0.75390625	878.12	-36.48943512	-76.66708303	33.43294667	-72
54231	0	0.383239746	-0.054504395	0.077758789	0.999999046	-0.000335693	-0.000346184	0.000160217	9.580993652	-1.362609863	1.943969727	-0.016784669	-0.01730919	0.008010865	-0.626220703	0.069091797	-0.754150391	878.1	-36.62833362	-76.69431286	33.53604157	-72
54232	0	0.380958557	-0.054558754	0.080631256	0.999999046	-0.000369072	-0.000204086	0.000396729	9.523963928	-1.363968849	2.015781403	-0.018453599	-0.010204316	0.019836427	-0.626220703	0.066894531	-0.750976563	878.16	-36.82158401	-76.69179825	33.6968266	-72
54233	0	0.381713867	-0.056640625	0.08026123	0.999999046	0.000305176	5.82E-05	0.000377655	9.54284668	-1.416015625	2.006530762	0.01525879	0.002908707	0.018882752	-0.623779297	0.071289063	-0.757324219	878.1	-36.85371187	-76.66603729	33.7624602	-72
54234	0	0.382947922	-0.051573753	0.076978683	0.999999046	0.000484467	0.000276566	0.000555992	9.573698044	-1.289343834	1.924467087	0.02422333	0.013828279	0.027799609	-0.624023438	0.071289063	-0.754394531	878.06	-36.86999996	-76.60786524	33.83249556	-72
54235	0	0.38269043	-0.052612305	0.075622559	0.999999046	-0.000293732	0.000561714	0.000747681	9.567260742	-1.315307617	1.890563965	-0.014686587	0.028085713	0.037384039	-0.624023438	0.071289063	-0.754394531	878.22	-36.96584626	-76.51027666	33.89539893	-72
54236	0	0.389237404	-0.05574131	0.074622154	0.999998093	0.001501083	0.000258446	0.000537872	9.730935097	-1.393532753	1.865553856	0.075054201	0.012922293	0.026893627	-0.621582031	0.071289063	-0.760253906	878.16	-36.86290482	-76.45490112	33.96196038	-72
54237	0	0.385498047	-0.043762207	0.072265625	0.999999046	0.000694275	0.000512123	0.000812531	9.637451172	-1.094055176	1.806640625	0.034713753	0.025606161	0.040626535	-0.621582031	0.069091797	-0.754394531	878.06	-36.88278757	-76.35780483	34.06356532	-72
54238	0	0.385101318	-0.047399521	0.073700905	0.999998093	-0.001378059	0.000477791	0.001073837	9.627532959	-1.184988022	1.842522621	-0.068903007	0.023889555	0.053691893	-0.621337891	0.069091797	-0.757324219	878.12	-37.24485383	-76.24597338	34.28004664	-72
54239	0	0.381103516	-0.048706055	0.07232666	0.999998093	0.000378609	0.000667572	0.001228333	9.527587891	-1.217651367	1.808166504	0.018930442	0.033378613	0.061416647	-0.621582031	0.075683594	-0.760742188	878.16	-37.40465926	-76.10614529	34.48459944	-71
54240	0	0.382184982	-0.043244362	0.070794106	0.999997139	-0.001734734	0.000715256	0.000993729	9.554624557	-1.081109047	1.769852638	-0.086736744	0.035762814	0.049686469	-0.621582031	0.075683594	-0.760742188	878.06	-37.70183792	-75.97869943	34.58923372	-72
54241	0	0.38482666	-0.05657959	0.075683594	0.999997139	-0.00220108	0.000283241	0.000434875	9.620666504	-1.414489746	1.892089844	-0.11005411	0.014162076	0.021743793	-0.619628906	0.08203125	-0.761230469	878.14	-37.96867231	-75.92950637	34.60183211	-72
54242	0	0.380283356	-0.051685333	0.074695587	0.999999046	-3.43E-05	4.77E-05	5.72E-05	9.507083893	-1.292133331	1.867389679	-0.001716614	0.002384186	0.002861023	-0.6171875	0.079833984	-0.755371094	878.16	-37.91626047	-75.92834621	34.54436127	-72
54243	0	0.381591797	-0.051940918	0.072265625	0.999998093	-0.001517296	0.000217438	-0.000312805	9.539794922	-1.298522949	1.806640625	-0.075864823	0.010871892	-0.015640265	-0.619628906	0.08203125	-0.761230469	878.06	-37.85231387	-75.9381048	34.30036592	-72
54244	0	0.38177681	-0.057181358	0.075736046	0.999997139	-0.001997948	5.91E-05	-0.000229836	9.544420242	-1.429533958	1.893401146	-0.099897452	0.002956392	-0.011491783	-0.617431641	0.086425781	-0.764648438	878.1	-37.91789516	-75.95628285	34.12929618	-72
54245	0	0.380554199	-0.057861328	0.073486328	0.999999046	-0.000659943	-0.000155449	0.000137329	9.51385498	-1.446533203	1.837158203	-0.032997134	-0.007772446	0.006866456	-0.617431641	0.086425781	-0.76171875	878.12	-38.0238297	-75.96800698	34.15954027	-72
54246	0	0.380560875	-0.059286118	0.075242043	0.999999046	-0.000654221	-0.000225067	1.05E-05	9.514021873	-1.482152939	1.881051064	-0.032711032	-0.011253358	0.000524521	-0.619873047	0.088867188	-0.759033203	878.06	-38.10366504	-75.99484133	34.16061109	-72
54247	0	0.380187988	-0.059570313	0.075073242	0.999999046	0.000171661	-0.000292778	-0.000114441	9.504699707	-1.489257813	1.876831055	0.008583069	-0.014638901	-0.005722046	-0.617675781	0.088623047	-0.756103516	878.16	-38.06348627	-76.0364838	34.13382273	-72
54248	0	0.384518623	-0.058358192	0.076576233	0.999999046	-0.000109673	-0.000276566	5.34E-05	9.612965584	-1.458954811	1.914405823	-0.005483627	-0.013828278	0.002670288	-0.619873047	0.088867188	-0.756103516	878.14	-38.11204753	-76.0646934	34.16555748	-72
54249	0	0.383544922	-0.060668945	0.07623291	0.999999046	0.000198364	-0.000208855	9.92E-05	9.588623047	-1.516723633	1.905822754	0.009918213	-0.010442734	0.004959107	-0.619873047	0.088867188	-0.759033203	878.1	-38.12337689	-76.0833749	34.19497368	-72
54250	0	0.379841805	-0.057907104	0.075912476	0.999999046	0.000450134	-6.87E-05	0.000300407	9.496045113	-1.447677612	1.89781189	0.022506715	-0.003433228	0.015020371	-0.622314453	0.088867188	-0.755859375	878.14	-38.13923109	-76.07504897	34.25823795	-72
54251	0	0.384033203	-0.057922363	0.07220459	0.999999046	-0.000564575	7.72E-05	0.000488281	9.600830078	-1.448059082	1.805114746	-0.028228762	0.003862381	0.024414065	-0.619873047	0.086669922	-0.755859375	878.16	-38.29830313	-76.04030763	34.35584887	-72
54252	0	0.383414268	-0.059295654	0.07341671	0.999999046	0.000424385	0.000127792	0.000492096	9.585356712	-1.482391357	1.835417747	0.021219255	0.006389618	0.024604799	-0.619873047	0.088867188	-0.759033203	878.16	-38.33115875	-76.00069436	34.43568163	-72
54253	0	0.383300781	-0.056640625	0.070983887	0.999999046	0.00044632	9.63E-05	0.000461578	9.582519531	-1.416015625	1.774597168	0.022315981	0.004816056	0.02307892	-0.619873047	0.088867188	-0.759033203	878.04	-38.3596713	-75.96624055	34.51320997	-72
54254	0	0.380180359	-0.059185028	0.073550224	0.999999046	-0.000312805	0.000144958	0.000281334	9.504508972	-1.479625702	1.838755608	-0.015640259	0.007247925	0.014066697	-0.617431641	0.088623047	-0.759033203	878.04	-38.39692281	-75.94019129	34.51135773	-72
54255	0	0.381469727	-0.059020996	0.073608398	0.999999046	0.000766754	8.58E-06	0.000259399	9.536743164	-1.475524902	1.840209961	0.038337712	0.000429153	0.012969972	-0.617675781	0.093017578	-0.759521484	878.14	-38.34184661	-75.92794844	34.53095678	-72
54256	0	0.382537842	-0.056119919	0.071136475	0.999999046	0.000432014	8.77E-05	0.000231743	9.563446045	-1.402997971	1.778411865	0.021600724	0.004386902	0.011587143	-0.622070313	0.088867188	-0.76171875	878.1	-38.29313996	-75.91075513	34.52688476	-72
54257	0	0.381652832	-0.059570313	0.072814941	0.999999046	0.000141144	-6.68E-06	9.54E-05	9.541320801	-1.489257813	1.820373535	0.00705719	-0.000333786	0.004768372	-0.617431641	0.088623047	-0.761962891	878.1	-38.25634028	-75.91174965	34.49940474	-72
54258	0	0.380238533	-0.057303429	0.072580338	0.999999046	0.000291824	-0.000104904	0.000137329	9.505963326	-1.432585716	1.814508438	0.014591217	-0.005245209	0.006866455	-0.619873047	0.088867188	-0.759033203	878.1	-38.24544877	-75.91867686	34.51558085	-72
54259	0	0.381530762	-0.059631348	0.074279785	0.999999046	-7.25E-05	-0.000121117	2.29E-05	9.538269043	-1.490783691	1.856994629	-0.003623962	-0.006055832	0.001144409	-0.619628906	0.086669922	-0.76171875	878.12	-38.24032311	-75.9351288	34.49941741	-72
54260	0	0.384170532	-0.059354782	0.075214386	0.999999046	0.00026989	-0.000146866	-9.54E-07	9.604263306	-1.483869553	1.88035965	0.013494492	-0.007343292	-4.77E-05	-0.617431641	0.088623047	-0.761962891	878.04	-38.19497775	-75.9555367	34.47639046	-72
54261	0	0.383300781	-0.061401367	0.073974609	0.999999046	0.000537872	3.91E-05	2.29E-05	9.582519531	-1.53503418	1.849365234	0.026893617	0.001955032	0.001144409	-0.617431641	0.086425781	-0.758789063	878.16	-38.07561463	-75.95740831	34.4111519	-71
54262	0	0.381644249	-0.057617188	0.073698997	0.999999046	-0.000165939	3.81E-05	0.000170708	9.541106224	-1.440429688	1.842474937	-0.008296967	0.001907349	0.008535385	-0.617431641	0.086425781	-0.758789063	878.12	-38.09073833	-75.94892914	34.40218641	-71
54263	0	0.380249023	-0.060668945	0.076416016	0.999999046	-0.000667572	0.000203133	0.000343323	9.506225586	-1.516723633	1.910400391	-0.033378604	0.010156632	0.017166139	-0.617431641	0.086425781	-0.758789063	878.12	-38.17920963	-75.91317403	34.41241921	-71
54264	0	0.381887436	-0.058223724	0.074661255	0.999999046	0.000525475	5.15E-05	0.00056076	9.547185898	-1.455593109	1.866531372	0.02627373	0.002574921	0.028038028	-0.619873047	0.091064453	-0.761962891	878.12	-38.25161859	-75.87564487	34.53803293	-71
54265	0	0.384216309	-0.057312012	0.074157715	0.999999046	-1.14E-05	0.000302315	0.000541687	9.605407715	-1.432800293	1.853942871	-0.000572205	0.015115739	0.027084352	-0.619873047	0.088867188	-0.76171875	878.1	-38.3075777	-75.81695072	34.58928629	-70
54266	0	0.380570412	-0.056262016	0.073958397	0.999999046	0.000272751	0.000360489	0.000728607	9.514260292	-1.406550407	1.848959923	0.013637544	0.018024447	0.036430363	-0.617431641	0.088623047	-0.761962891	878.18	-38.38031486	-75.73981786	34.69222384	-70
54267	0	0.382019043	-0.055786133	0.072143555	0.999999046	-0.00012207	0.000279427	0.000518799	9.550476074	-1.39465332	1.803588867	-0.006103516	0.01397133	0.025939943	-0.615234375	0.090820313	-0.765136719	878.16	-38.4461664	-75.68509058	34.73806294	-70
54268	0	0.38112545	-0.057237625	0.072096825	0.999999046	-0.000725746	0.000175476	0.000411034	9.528136253	-1.430940628	1.802420616	-0.036287312	0.008773805	0.020551684	-0.615234375	0.090820313	-0.765136719	878.06	-38.57211252	-75.64752793	34.77783914	-70
54269	0	0.381591797	-0.059692383	0.073547363	0.999999046	7.63E-05	-0.000102043	-6.87E-05	9.539794922	-1.49230957	1.838684082	0.003814697	-0.005102158	-0.003433228	-0.615234375	0.093017578	-0.762451172	878.14	-38.51579831	-75.6691441	34.71888372	-70
54270	0	0.381858826	-0.057004929	0.073781967	0.999999046	0.000339508	-0.000221252	1.43E-05	9.546470642	-1.425123215	1.844549179	0.016975403	-0.011062622	0.000715256	-0.617675781	0.093017578	-0.759521484	878.12	-38.49162151	-75.69565253	34.72353674	-70
54271	0	0.381347656	-0.059509277	0.073608398	0.999999046	0.000396729	-0.000250816	-0.000179291	9.533691406	-1.487731934	1.840209961	0.019836427	-0.012540818	-0.008964539	-0.615234375	0.090820313	-0.759277344	878.12	-38.40125076	-75.73865405	34.66848823	-70
54272	0	0.384152412	-0.059130669	0.073705673	0.999999046	0.000445366	-0.000137329	-0.000126839	9.60381031	-1.478266716	1.84264183	0.022268296	-0.006866455	-0.006341934	-0.617431641	0.090820313	-0.764892578	878.16	-38.29203991	-75.76777755	34.59890888	-70
54273	0	0.383605957	-0.06060791	0.076477051	0.999999046	6.87E-05	-7.92E-05	3.43E-05	9.590148926	-1.515197754	1.91192627	0.003433228	-0.003957748	0.001716614	-0.615234375	0.090820313	-0.759277344	878.04	-38.26693443	-75.78010622	34.57020166	-70
54274	0	0.379768372	-0.058243752	0.075569153	0.999999046	-0.00063324	0.000125885	0.000293732	9.49420929	-1.456093788	1.889228821	-0.03166199	0.006294251	0.014686586	-0.614990234	0.086425781	-0.761962891	878.04	-38.35679818	-75.75552749	34.58915362	-70
54275	0	0.379150391	-0.062438965	0.075134277	0.999999046	6.10E-05	5.44E-05	0.000244141	9.478759766	-1.560974121	1.878356934	0.003051758	0.002717972	0.012207031	-0.617431641	0.088623047	-0.761962891	878.06	-38.37017022	-75.74074277	34.60755187	-70
54276	0	0.383666992	-0.059204102	0.074645996	0.999999046	0.001004219	8.01E-05	0.000228882	9.591674805	-1.480102539	1.866149902	0.050210962	0.004005433	0.011444094	-0.617675781	0.088623047	-0.756103516	878.16	-38.26312423	-75.72476082	34.61008221	-70
54277	0	0.381723404	-0.05787468	0.074856758	0.999999046	-1.14E-05	2.86E-06	0.000357628	9.543085098	-1.446866989	1.871418953	-0.000572205	0.000143051	0.017881394	-0.617431641	0.086425781	-0.758789063	878.06	-38.33950415	-75.70662606	34.68728443	-70
54278	0	0.379271507	-0.061201096	0.075977325	0.999999046	0.000432968	-7.63E-06	0.00043869	9.481787682	-1.53002739	1.899433136	0.021648408	-0.00038147	0.021934511	-0.617431641	0.088623047	-0.761962891	878.12	-38.39663145	-75.68351841	34.7922169	-70
54279	0	0.381286621	-0.062194824	0.07635498	0.999999046	0.001068115	-0.000178337	8.77E-05	9.532165527	-1.554870605	1.908874512	0.053405772	-0.008916857	0.004386903	-0.615234375	0.090820313	-0.759277344	878.22	-38.30538628	-75.70057766	34.81017957	-70
54280	0	0.382218361	-0.059414864	0.075612068	0.999999046	0.000540733	-0.00015831	-5.72E-05	9.555459023	-1.48537159	1.890301704	0.027036668	-0.007915497	-0.002861023	-0.617431641	0.086425781	-0.76171875	878.12	-38.2178461	-75.72612275	34.77771502	-70
54281	0	0.381225586	-0.06072998	0.076904297	0.999999046	0.000320435	-0.000319481	-9.92E-05	9.530639648	-1.518249512	1.922607422	0.016021729	-0.015974045	-0.004959107	-0.617431641	0.086425781	-0.76171875	878.16	-38.18567427	-75.76902457	34.77472629	-70
54282	0	0.382566452	-0.058348656	0.074804306	0.999999046	0.001079559	-9.16E-05	9.82E-05	9.564161301	-1.458716393	1.870107651	0.053977977	-0.004577638	0.004911424	-0.619628906	0.08203125	-0.761230469	878.12	-38.0729767	-75.77745094	34.78495564	-70
54283	0	0.381103516	-0.056274414	0.075561523	0.999999046	0.000141144	-1.43E-05	6.87E-05	9.527587891	-1.406860352	1.889038086	0.00705719	-0.000715256	0.003433228	-0.6171875	0.084228516	-0.764404297	878.18	-38.03542262	-75.78104611	34.75596862	-70
54284	0	0.383049965	-0.059358597	0.075016975	0.999999046	-0.000296593	3.43E-05	-1.24E-05	9.576249123	-1.48396492	1.875424385	-0.014829636	0.001716614	-0.000619888	-0.619628906	0.084472656	-0.758544922	878.12	-38.0058496	-75.78596228	34.68426391	-70
54285	0	0.38269043	-0.059326172	0.075195313	0.999999046	0.000339508	-0.000105858	-0.000225067	9.567260742	-1.483154297	1.879882813	0.016975403	-0.005292893	-0.011253357	-0.617431641	0.084228516	-0.758789063	878.1	-37.8665872	-75.81848973	34.57250648	-70
54286	0	0.37955761	-0.058309555	0.076436043	0.999998093	-0.000342369	-0.000172615	-0.000208855	9.488940239	-1.457738876	1.91090107	-0.017118455	-0.008630753	-0.010442734	-0.617431641	0.084228516	-0.758789063	878.1	-37.82938805	-75.85579424	34.48578773	-70
54287	0	0.381347656	-0.061096191	0.077026367	0.999999046	-3.05E-05	-4.48E-05	-8.39E-05	9.533691406	-1.527404785	1.92565918	-0.001525879	-0.002241135	-0.004196167	-0.617431641	0.084228516	-0.758789063	878.18	-37.76581264	-75.87255581	34.40843069	-70
54288	0	0.382584572	-0.058229446	0.077231407	0.999999046	-0.000357628	6.29E-05	0.000198364	9.564614296	-1.45573616	1.930785179	-0.017881394	0.003147125	0.009918213	-0.6171875	0.084228516	-0.764404297	878.22	-37.81105018	-75.8596477	34.40637589	-70
54289	0	0.382995605	-0.061828613	0.075927734	0.999999046	-0.000293732	0.00011158	0.000400543	9.574890137	-1.545715332	1.898193359	-0.014686585	0.005578995	0.020027162	-0.614746094	0.084228516	-0.764648438	878.06	-37.90847166	-75.82798502	34.46680654	-70
54290	0	0.38006115	-0.060530663	0.076036453	0.999999046	0.000335693	0.000131607	0.000133514	9.50152874	-1.513266563	1.900911331	0.016784668	0.006580353	0.00667572	-0.617431641	0.086425781	-0.758789063	878.16	-37.83280102	-75.81317029	34.41822931	-70
54291	0	0.383422852	-0.060546875	0.074707031	0.999999046	-0.00031662	4.29E-05	-8.01E-05	9.585571289	-1.513671875	1.867675781	-0.015830994	0.002145767	-0.004005432	-0.617431641	0.084228516	-0.755859375	878.18	-37.78060664	-75.82136217	34.3220439	-70
54292	0	0.382510185	-0.060777664	0.075310707	0.999999046	0.000489235	3.81E-06	-8.39E-05	9.562754631	-1.519441605	1.882767677	0.024461747	0.000190735	-0.004196167	-0.617431641	0.084228516	-0.758789063	878.16	-37.64593884	-75.83326686	34.23413244	-69
54293	0	0.379089355	-0.057556152	0.075012207	0.999999046	-0.000297546	0.00017643	6.48E-05	9.477233887	-1.438903809	1.875305176	-0.01487732	0.008821488	0.003242493	-0.614990234	0.084228516	-0.758789063	878.06	-37.60705865	-75.81906828	34.15232193	-69
54294	0	0.379665375	-0.059236526	0.074071884	0.999999046	-0.000364304	0.000120163	0.000163078	9.491634369	-1.480913162	1.851797104	-0.01821518	0.006008148	0.008153916	-0.617431641	0.086425781	-0.758789063	878.1	-37.62719586	-75.80310138	34.12109426	-69
54295	0	0.380493164	-0.058959961	0.074768066	0.999999046	0.000270844	-0.000121117	4.96E-05	9.512329102	-1.473999023	1.86920166	0.013542175	-0.006055832	0.002479553	-0.6171875	0.084228516	-0.761474609	878.1	-37.60085136	-75.81697	34.12079365	-69
54296	0	0.382824898	-0.057920456	0.074949265	0.999999046	-9.54E-07	-0.000179291	6.48E-05	9.570622444	-1.448011398	1.873731613	-4.77E-05	-0.008964539	0.003242493	-0.6171875	0.084228516	-0.761474609	878.06	-37.6273635	-75.83509682	34.14281399	-69
54297	0	0.383483887	-0.060913086	0.077697754	0.999999046	0.000453949	-0.000292778	-0.00025177	9.587097168	-1.522827148	1.942443848	0.02269745	-0.014638902	-0.012588502	-0.617431641	0.084228516	-0.758789063	878.12	-37.51933584	-75.88550747	34.07737169	-69
54298	0	0.379834175	-0.058334351	0.075818062	0.999999046	7.63E-06	-0.000322342	-4.58E-05	9.495854378	-1.458358765	1.895451546	0.00038147	-0.016117096	-0.002288818	-0.6171875	0.08203125	-0.758544922	878.16	-37.54498133	-75.9241554	34.10124299	-69
54299	0	0.38104248	-0.061706543	0.077575684	0.999999046	0.000495911	-0.000174522	-0.000106812	9.526062012	-1.542663574	1.93939209	0.024795533	-0.00872612	-0.005340576	-0.619628906	0.084472656	-0.758544922	878.16	-37.45173959	-75.95339877	34.05357154	-69
54300	0	0.383339882	-0.05886364	0.076278687	0.999999046	0.000533104	-1.34E-05	-0.000199318	9.583497047	-1.471590996	1.906967163	0.026655199	-0.000667572	-0.009965897	-0.6171875	0.08203125	-0.758544922	878.12	-37.27548976	-75.97430917	33.92684862	-69
54301	0	0.385864258	-0.059020996	0.07434082	0.999999046	0.000228882	-1.81E-05	0.000354767	9.646606445	-1.475524902	1.858520508	0.011444092	-0.000905991	0.017738343	-0.6171875	0.08203125	-0.758544922	878.1	-37.33782976	-75.95717383	34.01020693	-69
54302	0	0.379965782	-0.058585167	0.076122284	0.999999046	0.000572205	0.000112534	0.000338554	9.499144554	-1.464629173	1.903057098	0.028610232	0.005626679	0.01692772	-0.619628906	0.082275391	-0.758300781	878.04	-37.31862378	-75.92915783	34.04932392	-69
54303	0	0.381896973	-0.057739258	0.075378418	0.999999046	0.000267029	0.000206947	0.000225067	9.547424316	-1.443481445	1.884460449	0.013351441	0.010347367	0.011253357	-0.616943359	0.079833984	-0.764160156	878.06	-37.2670889	-75.90041961	34.02329207	-69
54304	0	0.383243561	-0.058300018	0.073980331	0.999999046	0.000424385	0.000207901	0.000125885	9.58108902	-1.457500458	1.849508286	0.021219254	0.01039505	0.006294251	-0.619628906	0.080078125	-0.758300781	878.12	-37.16181632	-75.87852166	33.95957784	-68
54305	0	0.382019043	-0.057800293	0.075866699	0.999999046	0.000495911	0.000157356	1.14E-05	9.550476074	-1.445007324	1.89666748	0.024795533	0.007867813	0.000572205	-0.619628906	0.080078125	-0.758300781	878.1	-37.02099211	-75.86911525	33.86597891	-68
54306	0	0.379980087	-0.054501534	0.073292732	0.999999046	-0.000165939	0.000301361	1.43E-05	9.499502182	-1.362538338	1.832318306	-0.008296967	0.015068054	0.000715256	-0.619384766	0.077636719	-0.760986328	878.1	-36.91773926	-75.84645422	33.73875351	-68
54307	0	0.379943848	-0.059997559	0.075561523	0.999999046	-0.000137329	0.000214577	-5.34E-05	9.498596191	-1.499938965	1.889038086	-0.006866455	0.010728836	-0.002670288	-0.6171875	0.079833984	-0.761230469	878.22	-36.81112031	-75.83626841	33.60610294	-68
54308	0	0.383579254	-0.057780266	0.075221062	0.999999046	0.000725746	7.63E-06	-6.87E-05	9.589481354	-1.444506645	1.880526543	0.036287311	0.00038147	-0.003433228	-0.616943359	0.077636719	-0.763916016	878.12	-36.65662348	-75.84611528	33.5280599	-68
54309	0	0.382324219	-0.059570313	0.07635498	0.999999046	0.00037384	-5.63E-05	-0.00044632	9.558105469	-1.489257813	1.908874512	0.018692018	-0.002813339	-0.02231598	-0.6171875	0.079833984	-0.758300781	878	-36.42187613	-75.88748096	33.31830635	-68
54310	0	0.378415108	-0.056064606	0.074644089	0.999999046	-0.000413895	1.91E-06	-0.00019455	9.460377693	-1.401615143	1.866102219	-0.020694733	9.54E-05	-0.009727478	-0.619384766	0.077636719	-0.760986328	878.12	-36.35339394	-75.90628145	33.19324355	-68
54311	0	0.381469727	-0.058898926	0.076843262	0.999999046	0.000205994	-8.68E-05	4.20E-05	9.536743164	-1.472473145	1.921081543	0.010299683	-0.004339218	0.002098084	-0.614746094	0.077636719	-0.758300781	878.16	-36.32505223	-75.91708736	33.1805337	-67
54312	0	0.382270813	-0.056581497	0.075212479	0.999999046	-1.43E-05	-9.92E-05	0.000167847	9.556770325	-1.41453743	1.880311966	-0.000715256	-0.004959106	0.008392334	-0.616943359	0.077636719	-0.763916016	878.1	-36.37183343	-75.92053313	33.22033483	-67
54313	0	0.383117676	-0.058532715	0.078186035	0.999999046	-0.000183105	-2.57E-05	-7.63E-06	9.577941895	-1.463317871	1.954650879	-0.009155273	-0.00128746	-0.00038147	-0.6171875	0.079833984	-0.761230469	878.18	-36.35362744	-75.92899872	33.1689484	-67
54314	0	0.380681038	-0.056418419	0.075641632	0.999999046	0.000307083	-0.000137329	-0.000115395	9.517025948	-1.410460472	1.891040802	0.015354157	-0.006866455	-0.00576973	-0.616943359	0.075439453	-0.760986328	878.1	-36.26976343	-75.95508416	33.11584626	-67
54315	0	0.381896973	-0.058288574	0.07598877	0.999999046	-0.000213623	8.58E-06	-0.00018692	9.547424316	-1.457214355	1.899719238	-0.010681152	0.000429153	-0.009346008	-0.616943359	0.075439453	-0.758056641	878.12	-36.17975223	-75.97245422	32.99489567	-67
54316	0	0.383259773	-0.056836128	0.077373505	0.999999046	0.00011158	-1.91E-05	-0.00017643	9.581494331	-1.420903206	1.934337616	0.005578995	-0.000953674	-0.008821487	-0.619140625	0.075439453	-0.763671875	878.16	-36.06356755	-75.99157193	32.88504616	-67
54317	0	0.380432129	-0.05657959	0.074768066	0.999999046	-0.000263214	2.77E-05	4.58E-05	9.510803223	-1.414489746	1.86920166	-0.013160706	0.001382828	0.002288818	-0.619384766	0.077636719	-0.763916016	878.12	-36.0603653	-75.99136256	32.84349756	-67
54318	0	0.381155014	-0.056471825	0.076040268	0.999999046	0.0001297	-1.14E-05	-0.000106812	9.528875351	-1.411795616	1.901006699	0.006484985	-0.000572205	-0.005340576	-0.616943359	0.077636719	-0.763916016	878.18	-35.96610282	-76.00503056	32.752901	-67
54319	0	0.38092041	-0.054138184	0.075195313	0.999999046	-9.54E-05	6.20E-05	-7.63E-06	9.523010254	-1.35345459	1.879882813	-0.004768372	0.003099442	-0.00038147	-0.619384766	0.075439453	-0.760742188	878.16	-35.91449691	-76.00526459	32.68553584	-67
54320	0	0.386099815	-0.058541298	0.072606087	0.999999046	-0.000124931	-0.000160217	-2.38E-05	9.652495384	-1.463532448	1.815152168	-0.006246567	-0.008010864	-0.001192093	-0.619384766	0.077636719	-0.763916016	878.12	-35.92112786	-76.02731376	32.6699407	-67
54321	0	0.382995605	-0.054443359	0.076171875	0.999999046	7.25E-05	-6.77E-05	-0.000343323	9.574890137	-1.361083984	1.904296875	0.003623962	-0.003385544	-0.017166138	-0.616943359	0.075439453	-0.760986328	878.18	-35.76039132	-76.0622428	32.50793587	-67
54322	0	0.377977371	-0.055027962	0.076920509	0.999999046	-0.000921249	-1.91E-06	-1.91E-05	9.44943428	-1.375699043	1.923012733	-0.046062476	-9.54E-05	-0.000953674	-0.616943359	0.075439453	-0.760986328	878.12	-35.81672819	-76.06921052	32.45515151	-66
54323	0	0.382324219	-0.059631348	0.077087402	0.999999046	0.000225067	-0.000144005	-4.20E-05	9.558105469	-1.490783691	1.927185059	0.011253357	-0.007200241	-0.002098084	-0.616943359	0.077636719	-0.758056641	878.16	-35.77210799	-76.09075079	32.42771151	-66
54324	0	0.381923676	-0.054255486	0.076451302	0.999999046	9.82E-05	-5.15E-05	-8.11E-05	9.548091888	-1.356387138	1.911282539	0.004911423	-0.002574921	-0.004053116	-0.616943359	0.075439453	-0.763671875	878.12	-35.70197845	-76.1063034	32.36320662	-66
54325	0	0.381286621	-0.05847168	0.07635498	0.999999046	-0.000476837	9.54E-07	0.000102997	9.532165527	-1.461791992	1.908874512	-0.023841859	4.77E-05	0.005149842	-0.619384766	0.075439453	-0.760742188	878.22	-35.7532701	-76.1045315	32.35835152	-66
54326	0	0.382250786	-0.056364059	0.075324059	0.999999046	0.000322342	-7.63E-05	-0.000107765	9.556269646	-1.409101486	1.883101463	0.016117096	-0.003814697	-0.00538826	-0.619384766	0.077636719	-0.760986328	878.16	-35.65481833	-76.12403076	32.28714578	-66
54327	0	0.383911133	-0.056884766	0.072753906	0.999999046	-0.000415802	6.96E-05	-0.000106812	9.59777832	-1.422119141	1.818847656	-0.020790101	0.003480911	-0.005340576	-0.616943359	0.077636719	-0.758056641	878.22	-35.60241696	-76.12994761	32.17648657	-66
54328	0	0.380250931	-0.058695793	0.073245049	0.999999046	0.000477791	-5.34E-05	-4.20E-05	9.50627327	-1.467394829	1.831126213	0.023889543	-0.002670288	-0.002098084	-0.619384766	0.077636719	-0.763916016	878.16	-35.50618599	-76.14295159	32.12507547	-66
54329	0	0.382507324	-0.056884766	0.07244873	0.999999046	0.000202179	2.00E-05	8.01E-05	9.562683105	-1.422119141	1.811218262	0.010108948	0.001001358	0.004005432	-0.616943359	0.073242188	-0.7578125	878.16	-35.46858375	-76.14105143	32.10986363	-66
54330	0	0.384264946	-0.058076859	0.07291317	0.999999046	-0.000270844	6.48E-05	0.000128746	9.60662365	-1.451921463	1.822829247	-0.013542176	0.003242493	0.006437302	-0.616943359	0.075439453	-0.760986328	878.18	-35.49239705	-76.13177874	32.09827191	-66
54331	0	0.380859375	-0.05871582	0.074951172	0.999999046	0.000331879	0.000126839	7.25E-05	9.521484375	-1.467895508	1.873779297	0.016593933	0.006341934	0.003623962	-0.616943359	0.077636719	-0.763916016	878.18	-35.40994278	-76.12036378	32.04251709	-66
54332	0	0.38602066	-0.057137489	0.072400093	0.999999046	-0.000252724	0.000171661	0.000109673	9.65051651	-1.428437233	1.810002327	-0.012636185	0.008583069	0.005483627	-0.616943359	0.077636719	-0.766845703	878.16	-35.39735512	-76.10240812	31.9909169	-66
54333	0	0.382568359	-0.057556152	0.07611084	0.999999046	-0.000125885	0.000264168	-1.91E-05	9.564208984	-1.438903809	1.902770996	-0.006294251	0.013208389	-0.000953674	-0.616943359	0.075439453	-0.763671875	878.12	-35.29736091	-76.08425751	31.86950764	-66
54334	0	0.379295349	-0.056401253	0.075502396	0.999999046	-0.000383377	0.000185013	0.000166893	9.482383728	-1.410031319	1.887559891	-0.019168854	0.009250641	0.008344651	-0.616943359	0.077636719	-0.763916016	878.22	-35.31863824	-76.06112299	31.83949978	-66
54335	0	0.382995605	-0.057922363	0.076293945	0.999999046	0.000221252	0.000222206	-9.54E-05	9.574890137	-1.448059082	1.907348633	0.011062622	0.011110306	-0.004768372	-0.616943359	0.075439453	-0.760986328	878.22	-35.16242434	-76.05177246	31.7018216	-66
54336	0	0.382911682	-0.05439949	0.073862076	0.999999046	-5.82E-05	0.000307083	-1.62E-05	9.572792053	-1.359987259	1.846551895	-0.002908707	0.015354157	-0.000810623	-0.616943359	0.075439453	-0.763671875	878.18	-35.04598537	-76.02930247	31.57226714	-65
54337	0	0.382568359	-0.05670166	0.072875977	0.999999046	-0.000213623	0.000256538	0.000179291	9.564208984	-1.417541504	1.821899414	-0.010681153	0.01282692	0.008964539	-0.616699219	0.075439453	-0.766601563	878.06	-35.03540484	-75.99878501	31.53450292	-65
54338	0	0.38244915	-0.057236671	0.072802544	0.999999046	5.34E-05	-3.81E-06	-0.000179291	9.561228752	-1.430916786	1.820063591	0.002670288	-0.000190735	-0.008964539	-0.619384766	0.077636719	-0.760986328	878.16	-34.92868907	-76.01636014	31.42431423	-65
54339	0	0.383544922	-0.05645752	0.072692871	0.999999046	-0.000141144	6.20E-05	-0.000152588	9.588623047	-1.411437988	1.817321777	-0.00705719	0.003099442	-0.007629395	-0.616943359	0.075439453	-0.763671875	878.22	-34.83748887	-76.02608963	31.31118696	-65
54340	0	0.382271767	-0.059414864	0.076079369	0.999999046	0.000107765	-9.16E-05	-0.000290871	9.556794167	-1.48537159	1.901984215	0.00538826	-0.004577637	-0.014543534	-0.616943359	0.077636719	-0.766845703	878.16	-34.70632009	-76.05914526	31.1800612	-65
54341	0	0.383789063	-0.055053711	0.074707031	0.999999046	0.000644684	0.000138283	-2.29E-05	9.594726563	-1.376342773	1.867675781	0.032234194	0.006914139	-0.001144409	-0.616699219	0.075439453	-0.766601563	878.18	-34.55490936	-76.05308191	31.09403904	-64
54342	0	0.382061005	-0.055120468	0.077201843	0.999999046	0.00015831	0.00019455	0.000102043	9.551525116	-1.378011703	1.930046082	0.007915497	0.009727478	0.005102158	-0.616699219	0.075439453	-0.76953125	878.1	-34.49211495	-76.03350837	31.04167192	-64
54343	0	0.376708984	-0.054504395	0.075195313	0.999999046	0.001029968	0.000287056	-6.48E-05	9.417724609	-1.362609863	1.879882813	0.051498423	0.014352801	-0.003242493	-0.616699219	0.073242188	-0.769287109	878.1	-34.242399	-76.01594213	30.90084853	-64
54344	0	0.38320446	-0.050095558	0.072038651	0.999999046	7.92E-05	0.00037384	0.000227928	9.580111504	-1.252388954	1.800966263	0.003957749	0.018692017	0.011396408	-0.616699219	0.071044922	-0.766357422	878.16	-34.19078237	-75.97152997	30.85717282	-64
54345	0	0.389404297	-0.056518555	0.071472168	0.999999046	2.29E-05	0.000416756	0.000118256	9.735107422	-1.412963867	1.786804199	0.001144409	0.020837784	0.005912781	-0.612060547	0.072998047	-0.766601563	878.18	-34.09442428	-75.93034553	30.75519943	-64
54346	0	0.382070541	-0.049282074	0.070754051	0.999999046	-0.000450134	0.000297546	2.19E-05	9.551763535	-1.232051849	1.76885128	-0.022506715	0.01487732	0.001096726	-0.616699219	0.075439453	-0.766601563	878.16	-34.04663445	-75.90703797	30.6451251	-64
54347	0	0.378540039	-0.05255127	0.075439453	0.999999046	-0.00050354	-1.05E-05	7.63E-06	9.463500977	-1.313781738	1.885986328	-0.025177003	-0.000524521	0.00038147	-0.616699219	0.075439453	-0.772460938	878.06	-34.07830391	-75.91397047	30.61232416	-64
54348	0	0.384034157	-0.052027702	0.079527855	0.999999046	0.000346184	-0.000341415	0.000277519	9.60085392	-1.300692558	1.988196373	0.01730919	-0.017070771	0.013875962	-0.614257813	0.072998047	-0.766601563	878.1	-34.19891848	-75.93493495	30.77559638	-63
54349	0	0.38861084	-0.054931641	0.083251953	0.999999046	-0.000808716	-0.000277519	0.000492096	9.715270996	-1.373291016	2.081298828	-0.040435798	-0.013875964	0.024604801	-0.614501953	0.075195313	-0.766845703	878.16	-34.51622254	-75.93563476	31.00425684	-63
54350	0	0.383047104	-0.058869362	0.087703705	0.999999046	-0.000131607	-0.000589371	0.000533104	9.576177597	-1.471734047	2.192592621	-0.006580353	-0.02946854	0.0266552	-0.616943359	0.077636719	-0.766845703	878.18	-34.85227592	-75.96218346	31.32914255	-63
54351	0	0.379699707	-0.057312012	0.089904785	0.999999046	5.72E-05	-0.00057888	0.000495911	9.492492676	-1.432800293	2.247619629	0.002861023	-0.028944018	0.024795535	-0.614501953	0.077392578	-0.769775391	878.06	-35.1499445	-75.9891246	31.6373829	-63
54352	0	0.374010086	-0.06133461	0.093933105	0.999999046	-0.000580788	-0.000301361	-0.000137329	9.350252151	-1.53336525	2.348327637	-0.029039385	-0.015068055	-0.006866456	-0.619384766	0.077636719	-0.766601563	878.1	-35.20912349	-76.03068377	31.6268402	-63
54353	0	0.380554199	-0.062072754	0.096618652	0.999999046	0.000339508	-7.53E-05	-0.000591278	9.51385498	-1.551818848	2.415466309	0.016975404	-0.003767014	-0.029563906	-0.619384766	0.077636719	-0.766601563	878.16	-34.92979887	-76.07992962	31.3733313	-63
54354	0	0.383982658	-0.049536705	0.086889267	0.999999046	0.000951767	0.000629425	0.000102043	9.59956646	-1.238417625	2.172231674	0.047588359	0.031471259	0.005102159	-0.619140625	0.075439453	-0.766601563	878.16	-34.6544801	-76.0170231	31.19841207	-64
54355	0	0.373413086	-0.045593262	0.083312988	0.999999046	6.87E-05	0.001210213	0.000488281	9.335327148	-1.139831543	2.082824707	0.003433229	0.060510653	0.024414069	-0.616699219	0.075439453	-0.766601563	878.1	-34.47516875	-75.8739821	31.01901547	-64
54356	0	0.384159088	-0.046934128	0.080708504	0.999999046	-0.000491142	0.001056671	-0.000496864	9.603977203	-1.173353195	2.017712593	-0.02455712	0.052833571	-0.024843223	-0.616699219	0.073242188	-0.766357422	878.12	-34.03223002	-75.80898989	30.5070159	-63
54357	0	0.39453125	-0.050170898	0.077880859	0.999993324	-0.002437592	0.000786781	-0.002277374	9.86328125	-1.254272461	1.947021484	-0.121879816	0.039339143	-0.113868936	-0.612060547	0.077392578	-0.767089844	878.16	-33.20878725	-75.88170172	29.36419601	-63
54358	0	0.38073349	-0.053162575	0.080413818	0.99998951	-0.002447128	0.000173569	-0.00361824	9.51833725	-1.329064369	2.010345459	-0.122356805	0.008678464	-0.180912594	-0.612060547	0.075195313	-0.772705078	878.16	-32.00298885	-76.09145964	27.8301516	-63
54359	0	0.382141113	-0.043518066	0.084106445	0.99998951	-0.000144958	-9.44E-05	-0.00453949	9.553527832	-1.08795166	2.102661133	-0.00724795	-0.004720704	-0.226975268	-0.612060547	0.072998047	-0.76953125	878.1	-30.17776163	-76.37217426	25.92439918	-63
54360	0	0.385665894	-0.035281181	0.081702232	0.999959946	-0.006765366	0.000760078	-0.005767822	9.641647339	-0.882029533	2.042555809	-0.338272769	0.038004426	-0.28839494	-0.614013672	0.068603516	-0.774902344	878.12	-28.32389369	-76.62188354	23.22895036	-63
54361	0	0.37902832	-0.04510498	0.092590332	0.99994278	-0.007601738	0.001251221	-0.007404327	9.475708008	-1.127624512	2.314758301	-0.380094132	0.062562226	-0.370223415	-0.614501953	0.073242188	-0.763671875	878.1	-25.6543316	-76.88085228	19.59456746	-63
54362	0	0.385540009	-0.0240345	0.089798927	0.999959946	-0.005078316	0.001667976	-0.007090569	9.638500214	-0.600862503	2.244973183	-0.253919124	0.083399915	-0.354533086	-0.614257813	0.075195313	-0.772460938	878.18	-22.63936605	-77.03974261	15.90015265	-63
54363	0	0.388244629	-0.02166748	0.085754395	0.999911308	-0.010967255	0.002961159	-0.006843567	9.706115723	-0.541687012	2.143859863	-0.548378808	0.148062278	-0.342188376	-0.611816406	0.072998047	-0.772460938	878.12	-20.12879707	-77.00996796	12.05511625	-63
54364	0	0.384036064	-0.042778969	0.092485428	0.999936104	-0.007927895	0.003612518	-0.007119179	9.600901604	-1.06947422	2.312135696	-0.396403093	0.180629726	-0.355966449	-0.605224609	0.083740234	-0.770751953	878.04	-17.07530793	-76.87672367	7.991368587	-63
54365	0	0.38482666	-0.037841797	0.088256836	0.999958992	-0.003330231	0.003499031	-0.007644653	9.620666504	-0.946044922	2.206420898	-0.166513805	0.174953938	-0.382237876	-0.603027344	0.083740234	-0.770996094	878.08	-13.35012944	-76.71748336	3.766429524	-63
54366	0	0.387853622	-0.041186333	0.083047867	0.999954224	-0.003863335	0.003491402	-0.007948875	9.696340561	-1.029658318	2.076196671	-0.19316964	0.174572711	-0.397449753	-0.59765625	0.076904297	-0.782226563	878.1	-9.658881159	-76.50419188	-0.481161233	-63
54367	0	0.381103516	-0.04095459	0.081054688	0.999960899	-0.002727509	0.003216743	-0.007698059	9.527587891	-1.023864746	2.026367188	-0.136377179	0.160839239	-0.384907897	-0.593017578	0.074462891	-0.782226563	878.12	-6.114871265	-76.25680111	-4.454282426	-64
54368	0	0.377036095	-0.03173542	0.08005619	0.999968529	-0.002783775	0.002807617	-0.006784439	9.425902367	-0.793385506	2.001404762	-0.139190197	0.140382302	-0.339225441	-0.587890625	0.067626953	-0.784912109	878.16	-3.156410465	-75.99565855	-7.828632141	-65
54369	0	0.386535645	-0.030273438	0.078552246	0.999970436	-0.00484848	0.002556801	-0.005313873	9.663391113	-0.756835938	1.963806152	-0.242426366	0.127841284	-0.265696245	-0.583007813	0.067382813	-0.787841797	878.02	-1.2240658	-75.72341225	-10.38940235	-66
54370	0	0.381546021	-0.026873589	0.080958366	0.999975204	-0.005137444	0.001957893	-0.004387856	9.538650513	-0.671839714	2.02395916	-0.256874296	0.097895476	-0.219394586	-0.580810547	0.069580078	-0.788330078	878	0.177921975	-75.50155492	-12.43877478	-67
54371	0	0.378234863	-0.019348145	0.081542969	0.999985695	-0.003902435	0.001137733	-0.003311157	9.455871582	-0.483703613	2.038574219	-0.195122659	0.056886934	-0.16555862	-0.580810547	0.069580078	-0.791015625	878.18	1.203587058	-75.36524398	-13.94963183	-69
54372	0	0.385810852	-0.01939106	0.082932472	0.999991417	-0.002861977	0.000232697	-0.002688408	9.645271301	-0.484776497	2.073311806	-0.1430992	0.011634857	-0.134420742	-0.578613281	0.073974609	-0.788818359	878.12	2.06562974	-75.3292444	-15.17627697	-70
54373	0	0.382629395	-0.006713867	0.084594727	0.999997139	-0.001041412	-0.000323296	-0.001743317	9.565734863	-0.16784668	2.114868164	-0.052070654	-0.016164791	-0.087165894	-0.578613281	0.073974609	-0.788818359	878.1	2.729347552	-75.35801655	-15.98304646	-71
54374	0	0.360537529	-0.002095222	0.085392952	0.999993324	-0.003341675	-0.000772476	-0.001148224	9.013438225	-0.052380562	2.134823799	-0.167084105	-0.038623894	-0.057411319	-0.580810547	0.073974609	-0.791503906	878.16	2.881171894	-75.44044787	-16.52311679	-72
54375	0	0.379882813	-0.005004883	0.094848633	0.999997139	-0.000621796	-0.001490593	-0.001148224	9.497070313	-0.12512207	2.37121582	-0.031089803	-0.074529697	-0.057411231	-0.581298828	0.078369141	-0.786132813	878.14	3.367463434	-75.60438721	-17.09821761	-74
54376	0	0.378105164	0.018817902	0.093071938	0.999995232	-0.002526283	-0.001117706	-0.001202583	9.452629089	0.47044754	2.326798439	-0.126314354	-0.055885399	-0.060129257	-0.5859375	0.076416016	-0.785644531	878.1	3.663351253	-75.72435712	-17.69144126	-73
54377	0	0.345581055	0.020019531	0.104309082	0.999958992	-0.008628845	-0.000323296	-0.002601624	8.639526367	0.500488281	2.607727051	-0.431448109	-0.016164999	-0.13008294	-0.588378906	0.080810547	-0.788818359	878.18	3.874174796	-75.7413786	-18.90317179	-71
54378	0	0.367764473	0.009594917	0.120717049	0.999946594	-0.009396553	0.000901222	-0.004185677	9.194111824	0.239872932	3.017926216	-0.469836002	0.045061912	-0.209287548	-0.586669922	0.093994141	-0.78125	878.16	4.661116516	-75.6009232	-20.81141989	-68
54379	0	0.392028809	0.022766113	0.128051758	0.999933243	-0.009940147	0.003177643	-0.004829407	9.800720215	0.569152832	3.201293945	-0.497018324	0.158885643	-0.241475659	-0.586914063	0.098388672	-0.784423828	878.06	5.536891888	-75.18575504	-22.86660798	-65
54380	0	0.41194725	0.007111549	0.141788483	0.999793053	-0.018080711	0.006095886	-0.006918907	10.29868126	0.177788734	3.544712067	-0.904097648	0.304815242	-0.345969114	-0.580322266	0.111572266	-0.788818359	878.12	6.127880257	-74.40522785	-25.58422771	-62
54381	0	0.38458252	0.01171875	0.153259277	0.999783516	-0.01625061	0.00993824	-0.008274078	9.614562988	0.29296875	3.831481934	-0.812588938	0.49694773	-0.413733663	-0.571533203	0.12890625	-0.790771484	878.12	7.073282181	-73.15755232	-28.47458903	-60
54382	0	0.378786087	0.007798195	0.145358086	0.999585152	-0.023939133	0.013378143	-0.008796692	9.469652176	0.194954872	3.633952141	-1.197122163	0.66899967	-0.43989542	-0.558105469	0.148193359	-0.795898438	878.16	6.901265259	-71.50456844	-31.12622285	-59
54383	0	0.385559082	-0.013122559	0.150512695	0.999633789	-0.019579887	0.016304016	-0.009025574	9.638977051	-0.328063965	3.762817383	-0.979113626	0.81530011	-0.451333659	-0.537841797	0.178222656	-0.808105469	878.1	6.932108035	-69.5160335	-33.51213279	-59
54384	0	0.392828941	-0.019395828	0.153517723	0.999622345	-0.017894745	0.018612862	-0.009371758	9.820723534	-0.484895706	3.837943077	-0.894849794	0.930760148	-0.46864682	-0.515136719	0.197265625	-0.811035156	878.06	6.925823048	-67.26014401	-35.69589962	-60
54385	0	0.38104248	-0.026611328	0.15435791	0.99951458	-0.021221161	0.020749092	-0.009418488	9.526062012	-0.665283203	3.858947754	-1.061229581	1.037622326	-0.47100051	-0.487548828	0.218261719	-0.822753906	878.06	6.285410357	-64.7660446	-37.63614457	-61
54386	0	0.37702179	-0.044732094	0.160949707	0.999534607	-0.018975258	0.022021294	-0.00924015	9.425544739	-1.118302345	4.023742676	-0.948910073	1.101235488	-0.462079193	-0.457763672	0.245849609	-0.835449219	878.1	5.682217037	-62.13955697	-39.38496742	-63
54387	0	0.370910645	-0.037475586	0.156799316	0.999592781	-0.014297485	0.02292347	-0.009155273	9.272766113	-0.936889648	3.91998291	-0.714971255	1.146328979	-0.457825777	-0.425292969	0.264404297	-0.844482422	878.22	5.441242381	-59.41954158	-40.99079035	-62
54388	0	0.366892815	-0.038581848	0.161952972	0.999528885	-0.017749786	0.02376461	-0.007761002	9.172320366	-0.964546204	4.04882431	-0.887628424	1.188416758	-0.388110902	-0.390380859	0.278564453	-0.856201172	878.12	4.433060484	-56.62920826	-42.18646693	-60
54389	0	0.348205566	-0.044067383	0.168579102	0.999554634	-0.01631546	0.023804665	-0.00749588	8.70513916	-1.10168457	4.214477539	-0.815893935	1.190409663	-0.374849563	-0.355957031	0.303955078	-0.863037109	878.16	3.50493575	-53.85104767	-43.33066592	-62
54390	0	0.336883545	-0.053871155	0.179815292	0.999566078	-0.017377853	0.022903442	-0.006340981	8.422088623	-1.34677887	4.495382309	-0.86901824	1.145337616	-0.317094846	-0.319091797	0.326904297	-0.872802734	878.24	2.263303066	-51.19921158	-44.26284779	-66
54391	0	0.30847168	-0.064086914	0.188354492	0.999663353	-0.011650085	0.022507668	-0.00548172	7.711791992	-1.602172852	4.708862305	-0.582569569	1.125509527	-0.274116722	-0.287109375	0.350097656	-0.873535156	878.18	1.544315955	-48.60932372	-45.08118488	-63
54392	0	0.294614792	-0.068353653	0.190566063	0.999682426	-0.011509895	0.021856308	-0.004796028	7.365369797	-1.708841324	4.764151573	-0.575555515	1.092930756	-0.23982672	-0.252197266	0.366455078	-0.879638672	878.1	0.736746503	-46.10599947	-45.78672947	-64
54393	0	0.265075684	-0.084472656	0.203491211	0.999668121	-0.012022972	0.02248764	-0.003627777	6.62689209	-2.111816406	5.087280273	-0.601215093	1.124506377	-0.181408917	-0.217529297	0.385009766	-0.883056641	878.18	-0.273350134	-43.54114966	-46.32135528	-64
54394	0	0.224617004	-0.099211693	0.195920944	0.999655724	-0.013248444	0.022611618	-0.000809669	5.61542511	-2.48029232	4.898023605	-0.662498102	1.130710481	-0.040488115	-0.182861328	0.403564453	-0.886474609	878.22	-1.706266991	-40.96715272	-46.45713378	-66
54395	0	0.174316406	-0.119750977	0.196166992	0.999638557	-0.012634277	0.023564339	0.002571106	4.357910156	-2.993774414	4.904174805	-0.631789857	1.178358663	0.128570762	-0.144042969	0.426757813	-0.879150391	878.18	-3.344183343	-38.27141537	-46.18953379	-75
54396	0	0.11267662	-0.124406815	0.166426659	0.999225616	-0.024168015	0.029904366	0.008346558	2.816915512	-3.110170364	4.160666466	-1.208712717	1.49560432	0.417435629	-0.095458984	0.451416016	-0.875	878.12	-6.649442866	-34.78749019	-45.29067803	-73
54397	0	0.11517334	-0.16986084	0.12322998	0.998763084	-0.026714325	0.038163185	0.017349243	2.879333496	-4.246520996	3.080749512	-1.33626697	1.908946	0.867819817	-0.029541016	0.500244141	-0.854003906	878.14	-10.60413417	-30.1776158	-43.68213009	-71
54398	0	0.165486336	-0.225704193	0.081454277	0.998323441	-0.026358604	0.042599678	0.028993607	4.137158394	-5.642604828	2.036356926	-1.318667208	2.131174988	1.450490989	0.062255859	0.547851563	-0.828613281	878.12	-14.82043886	-24.69750574	-41.20501983	-84
54399	0	0.221801758	-0.264465332	0.041992188	0.998322487	-0.005577087	0.042435646	0.038982391	5.545043945	-6.611633301	1.049804688	-0.27901037	2.122969291	1.950209964	0.168701172	0.579833984	-0.796875	878.12	-16.72655538	-18.81988008	-38.10583073	-75
54400	0	0.251064301	-0.224748611	0.006890297	0.998005867	-0.006297112	0.041702271	0.046946526	6.276607513	-5.618715286	0.172257423	-0.315064947	2.086500079	2.348887197	0.284423828	0.567138672	-0.7734375	878.18	-18.57302004	-12.65581969	-34.39343335	-72
54401	0	0.269104004	-0.280212402	0.097595215	0.998216629	0.016575813	0.035633087	0.04492569	6.727600098	-7.005310059	2.439880371	0.82928359	1.782714002	2.247620469	0.405273438	0.541259766	-0.740478516	878.18	-17.40382884	-7.21015934	-30.95667476	-73
54402	0	0.190569878	-0.34038353	0.088766098	0.998854637	0.041030884	0.020242691	0.013951302	4.764246941	-8.509588242	2.219152451	2.052327297	1.0125209	0.697831351	0.500244141	0.467529297	-0.739501953	878.14	-12.90564779	-4.588506672	-30.13560307	-68
54403	0	-0.186279297	-0.273498535	0.077392578	0.995316505	0.093933105	-0.009531975	-0.020736694	-4.656982422	-6.837463379	1.934814453	4.704000693	-0.477344125	-1.038456293	0.528076172	0.389160156	-0.777587891	878.06	-2.036564856	-6.005940354	-32.5576562	-81
54404	0	-0.208607674	0.320735931	-0.001997948	0.995013237	0.089194298	-0.019739151	0.040023804	-5.215191841	8.018398285	-0.049948692	4.467141766	-0.988601156	2.004522819	0.500488281	0.235107422	-0.852539063	878.14	7.539262813	-8.499971367	-28.49992522	-69
54405	0	0.515014648	-0.467163086	0.264160156	0.976602554	0.214375496	-0.014305115	0.009208679	12.87536621	-11.67907715	6.604003906	10.80316026	-0.720886716	0.464058808	0.491699219	0.019042969	-0.900390625	878.14	32.22581882	-10.39316432	-36.49179541	-75
54406	0	0.016716957	4.691343307	0.859409332	0.938616753	0.342088699	0.044231415	-0.003884315	0.417923927	117.2835827	21.48523331	17.46322799	2.257961991	-0.198289763	0.539306641	-0.608642578	-0.615234375	878.28	71.89577545	-6.889432855	-33.16654812	-78
54407	0	-0.050415039	0.734863281	-0.517822266	0.992873192	-0.102249146	-0.033213615	-0.05141449	-1.260375977	18.37158203	-12.94555664	-5.124636012	-1.664636793	-2.576848387	0.556640625	-0.794677734	-0.353759766	878.14	60.88957876	-2.890765841	-35.68646856	-83
54408	0	0.23291111	-0.134404182	-0.217265129	0.975090027	-0.218889236	-0.030413628	-0.018945694	5.822777748	-3.360104561	-5.431628227	-11.03624674	-1.533434463	-0.955229032	0.589599609	-0.56640625	-0.624511719	878.16	36.05481566	-3.475649664	-38.75434525	-89
54409	0	0.010152817	-0.405290604	0.107711792	0.990931511	-0.130895615	-0.029902458	0.005123138	0.253820419	-10.13226509	2.6927948	-6.564635784	-1.499658698	0.256934031	0.552246094	-0.271240234	-0.824951172	878.12	21.29967602	-6.734052769	-39.83581856	-83
54410	0	0.195941925	-0.242839813	0.979946136	0.999867439	0.00214386	-0.014545441	0.006983757	4.898548126	-6.070995331	24.49865341	0.107197727	-0.727304151	0.349203272	0.499023438	-0.104492188	-0.890380859	878.22	21.58593436	-8.632879454	-39.86393829	-83
54411	0	0.086181641	0.12109375	0.325683594	0.994520187	0.103779793	0.010742188	-0.006568909	2.154541016	3.02734375	8.142089844	5.19848799	0.538092544	-0.329046648	0.490722656	-0.185791016	-0.880371094	878.22	33.55194565	-7.234712147	-40.07094914	-76
54412	0	0.035060883	0.384439468	0.245316505	0.996735573	0.078774452	0.015634537	-0.008224487	0.876522064	9.61098671	6.132912636	3.943013642	0.782578487	-0.411672373	0.520263672	-0.355957031	-0.807617188	878.16	42.65369558	-5.247852483	-39.73733592	-75
54413	0	0.002685547	0.325195313	0.180419922	0.998387337	0.055641174	0.010605812	-0.003688812	0.067138672	8.129882813	4.510498047	2.783554866	0.530575786	-0.184539802	0.546875	-0.455566406	-0.743408203	878.18	49.13576231	-4.086629344	-39.17186479	-75
54414	0	-0.004333496	0.424982071	0.121900558	0.999816895	0.01878643	0.000447273	0.003394127	-0.108337402	10.62455177	3.047513962	0.939378615	0.022365022	0.16971666	0.558105469	-0.521728516	-0.683837891	878.32	51.49573133	-4.316886414	-38.87901458	-75
54415	0	0.03314209	0.398742676	0.192382813	0.999903679	-0.012218475	-0.004523277	0.004699707	0.828552246	9.968566895	4.809570313	-0.610943302	-0.226171096	0.234992865	0.553955078	-0.536865234	-0.682373047	878.22	50.36705433	-5.021604569	-38.94113548	-74
54416	0	0.036813736	0.33533287	0.240321159	0.999901772	-0.013245583	-0.002922058	0.003442764	0.920343399	8.383321762	6.008028984	-0.662300747	-0.146107674	0.172143833	0.544189453	-0.521240234	-0.697509766	878.22	49.1206396	-5.507846062	-38.95947739	-74
54417	0	0.036987305	0.313842773	0.219604492	0.999915123	-0.012168884	-0.001078606	0.004524231	0.924682617	7.846069336	5.490112305	-0.608461425	-0.053931808	0.226217947	0.534423828	-0.505615234	-0.715576172	878.22	47.98288825	-5.955506554	-38.73877847	-73
54418	0	0.036780357	0.336992264	0.236104012	0.999885559	-0.013989449	-0.000369072	0.005710602	0.919508934	8.424806595	5.902600288	-0.699499063	-0.018454301	0.285540963	0.529052734	-0.489990234	-0.725097656	878.24	46.63193254	-6.441106494	-38.35849559	-76
54419	0	0.04296875	0.34375	0.227905273	0.99981308	-0.01753521	0.00018692	0.008029938	1.07421875	8.59375	5.697631836	-0.876814851	0.009346588	0.401521784	0.521728516	-0.474609375	-0.743164063	878.24	44.8677839	-7.063685852	-37.73812881	-77
54420	0	0.039923668	0.320697784	0.242071152	0.999464989	-0.030573845	-0.001619339	0.011453629	0.998091698	8.017444611	6.051778793	-1.528964628	-0.080981376	0.572783468	0.518798828	-0.454833984	-0.759033203	878.1	41.59211218	-8.066495969	-36.93779926	-76
54421	0	0.067260742	0.216125488	0.288269043	0.999522209	-0.028800964	-0.002329826	0.010887146	1.681518555	5.403137207	7.206726074	-1.440277153	-0.116509837	0.54444384	0.501220703	-0.414794922	-0.795898438	878.14	38.46987505	-9.068814974	-36.19671638	-77
54422	0	0.079107285	0.23717308	0.285552979	0.99985981	-0.016012192	0.000711441	0.004764557	1.977682114	5.929327011	7.138824463	-0.800646901	0.03557371	0.238238947	0.490722656	-0.383544922	-0.812255859	878.18	36.83675266	-9.353319751	-35.76803339	-76
54423	0	0.062133789	0.15637207	0.329528809	0.999936104	-0.010532379	-0.002100945	0.003372192	1.553344727	3.909301758	8.238220215	-0.52663008	-0.105049445	0.16861318	0.489990234	-0.361572266	-0.825683594	878.18	35.80962259	-9.79269225	-35.64423813	-76
54424	0	0.087543488	0.208041191	0.306034088	0.999927521	0.011545181	0.002964973	-0.001179695	2.188587189	5.201029778	7.650852203	0.577272868	0.148252218	-0.058986167	0.485351563	-0.357177734	-0.828613281	878.18	37.29934789	-9.474886889	-35.60299641	-76
54425	0	0.067504883	0.189208984	0.311889648	0.999863625	0.015586853	0.003983498	-0.003730774	1.68762207	4.730224609	7.797241211	0.779378082	0.199183936	-0.186547177	0.495117188	-0.377197266	-0.810302734	878.18	39.2338112	-8.881526865	-35.69227546	-76
54426	0	0.071323395	0.23253727	0.339152336	0.999202728	0.038977623	0.005084038	-0.006939888	1.783084869	5.81343174	8.478808403	1.949399035	0.254269439	-0.347086608	0.505615234	-0.406005859	-0.793945313	878.14	43.83437795	-7.952383206	-35.93996391	-75
54427	0	0.041992188	0.387023926	0.215515137	0.999461174	0.032325745	0.002518654	-0.004940033	1.049804688	9.675598145	5.387878418	1.616577146	0.125955282	-0.247045953	0.519287109	-0.465820313	-0.749755859	878.22	47.74462586	-7.355080718	-36.15642286	-75
54428	0	0.045876503	0.346563339	0.225342751	0.999962807	0.008097649	-0.000301361	-0.002757072	1.146912575	8.664083481	5.633568764	0.404887375	-0.015068238	-0.137855306	0.527099609	-0.496826172	-0.727539063	878.22	48.90820634	-7.14007378	-36.41231407	-76
54429	0	0.043029785	0.342712402	0.223754883	0.999992371	-0.003512383	-0.001117706	-0.000572205	1.075744629	8.567810059	5.59387207	-0.175619533	-0.055885445	-0.028610296	0.52734375	-0.503417969	-0.724121094	878.12	48.74363834	-7.166158417	-36.57323223	-77
54430	0	0.049650192	0.298727036	0.249247551	0.999938965	-0.01063633	-0.002373695	0.001513481	1.241254807	7.468175888	6.231188774	-0.531827213	-0.118687163	0.075675584	0.527099609	-0.488037109	-0.736816406	878.16	47.73844915	-7.469929776	-36.68581359	-77
54431	0	0.0546875	0.292541504	0.263916016	0.999979973	-0.006175995	-0.000338554	0.001197815	1.3671875	7.313537598	6.597900391	-0.308801787	-0.016927831	0.059891143	0.521972656	-0.476806641	-0.743164063	878.18	47.20321314	-7.593869124	-36.64906983	-77
54432	0	0.051977158	0.297857285	0.258180618	0.999982834	-0.005592346	0.000212669	0.001265526	1.29942894	7.446432114	6.454515457	-0.279618844	0.010633527	0.063276638	0.51953125	-0.470214844	-0.752197266	878.16	46.71532305	-7.679463173	-36.55952325	-77
54433	0	0.05645752	0.289367676	0.268188477	0.999984741	-0.005328178	0.000526428	0.001224518	1.411437988	7.234191895	6.704711914	-0.26641026	0.026321543	0.061226199	0.519287109	-0.463623047	-0.758544922	878.22	46.23711546	-7.737295897	-36.44395188	-76
54434	0	0.054901123	0.276054382	0.270227432	0.999996185	-0.002520561	0.000639915	0.000837326	1.372528076	6.901359558	6.755685806	-0.126028218	0.031995813	0.041866355	0.519042969	-0.45703125	-0.759033203	878.24	46.06357546	-7.754114291	-36.34743003	-76
54435	0	0.054870605	0.288696289	0.265869141	0.999998093	-0.001482964	0.000167847	0.000324249	1.371765137	7.217407227	6.646728516	-0.074148207	0.008392337	0.01621247	0.518798828	-0.452636719	-0.762207031	878.28	46.00963304	-7.765934016	-36.33047056	-76
54436	0	0.053313255	0.278773308	0.267752647	0.999997139	-0.002018929	-0.000360489	0.000525475	1.332831383	6.969332695	6.693816185	-0.100946502	-0.018024458	0.026273747	0.519042969	-0.452636719	-0.765136719	878.14	45.88453587	-7.83523294	-36.33770475	-75
54437	0	0.058227539	0.273498535	0.277648926	0.999998093	0.001404762	-0.000114441	9.54E-05	1.455688477	6.837463379	6.941223145	0.070238137	-0.005722048	0.004768373	0.516357422	-0.450439453	-0.765136719	878.22	46.13637401	-7.851380642	-36.35886591	-76
54438	0	0.05510807	0.286019325	0.267617226	0.999990463	0.004137993	9.06E-05	-0.000523567	1.377701759	7.150483131	6.690430641	0.206900243	0.004529966	-0.026178436	0.516601563	-0.452636719	-0.762207031	878.14	46.69804937	-7.799279485	-36.4112083	-76
54439	0	0.054748535	0.295898438	0.257263184	0.999998093	0.001664162	-0.000125885	-0.000102997	1.368713379	7.397460938	6.43157959	0.083208123	-0.006294253	-0.005149844	0.516601563	-0.459228516	-0.755859375	878.22	46.97253246	-7.797857356	-36.44447042	-76
54440	0	0.054753304	0.293915749	0.262681007	0.999999046	-0.000554085	0.000255585	4.86E-05	1.368832588	7.347893715	6.567025185	-0.027704241	0.012779237	0.00243187	0.519042969	-0.459228516	-0.753173828	878.22	46.98164641	-7.778618306	-36.43201363	-75
54441	0	0.053771973	0.292175293	0.261291504	0.999997139	-0.002048492	0.000275612	0.000221252	1.344299316	7.304382324	6.532287598	-0.102424695	0.013780604	0.01106263	0.519042969	-0.459228516	-0.756103516	878.14	46.81265398	-7.771605523	-36.40412952	-76
54442	0	0.053320885	0.284872055	0.272743225	0.999998093	-0.001379967	0.000184059	8.30E-05	1.333022118	7.121801376	6.818580627	-0.068998359	0.00920296	0.004148485	0.519042969	-0.45703125	-0.756103516	878.14	46.71290535	-7.759247889	-36.39405963	-75
54443	0	0.053100586	0.287658691	0.263366699	0.999998093	-0.001532555	-0.000114441	0.000209808	1.327514648	7.191467285	6.58416748	-0.076627762	-0.005722048	0.010490422	0.521240234	-0.452636719	-0.759521484	878.24	46.59321864	-7.780362108	-36.399221	-75
54444	0	0.054074287	0.283939362	0.27026844	0.999998093	-0.00141716	-0.000128746	7.53E-05	1.351857185	7.098484039	6.756711006	-0.070858026	-0.006437304	0.003767015	0.518798828	-0.450439453	-0.762451172	878.18	46.48146976	-7.791107894	-36.41627788	-76
54445	0	0.053894043	0.283630371	0.268981934	0.999999046	-0.000522614	-0.000159264	0.000164032	1.347351074	7.090759277	6.72454834	-0.026130678	-0.007963181	0.0082016	0.518798828	-0.450439453	-0.762451172	878.18	46.46619267	-7.81115494	-36.42705879	-76
54446	0	0.055171967	0.282961845	0.271883965	0.999999046	-0.000146866	-3.05E-05	-3.43E-05	1.379299164	7.074046135	6.797099113	-0.007343292	-0.001525879	-0.001716614	0.518798828	-0.448242188	-0.762695313	878.18	46.48888133	-7.804632591	-36.44260117	-76
54447	0	0.0546875	0.286682129	0.270385742	0.999999046	0.000843048	9.63E-05	-6.48E-05	1.3671875	7.167053223	6.759643555	0.04215241	0.004816056	-0.003242493	0.518798828	-0.450439453	-0.759521484	878.14	46.62018368	-7.785220026	-36.44809837	-76
54448	0	0.054720879	0.286101341	0.266739845	0.999999046	-0.000170708	5.15E-05	-0.00011158	1.368021965	7.152533531	6.668496132	-0.008535385	0.002574921	-0.005578995	0.520996094	-0.448242188	-0.760009766	878.22	46.6335468	-7.765473177	-36.46093823	-76
54449	0	0.05291748	0.28692627	0.270385742	0.999999046	-0.000465393	4.29E-05	0.000114441	1.322937012	7.173156738	6.759643555	-0.023269654	0.002145767	0.005722046	0.520996094	-0.448242188	-0.762695313	878.18	46.60755278	-7.764505626	-36.45659619	-76
54450	0	0.054180145	0.285380363	0.270411491	0.999999046	-0.00088501	9.54E-05	0.000152588	1.354503632	7.134509087	6.760287285	-0.044250494	0.004768372	0.007629396	0.520996094	-0.450439453	-0.759765625	878.24	46.52928453	-7.76227784	-36.44200284	-76
54451	0	0.053344727	0.283630371	0.273010254	0.999999046	-0.000232697	0.000100136	-1.53E-05	1.333618164	7.090759277	6.825256348	-0.011634827	0.00500679	-0.000762939	0.518798828	-0.450439453	-0.765380859	878.22	46.52382063	-7.745412838	-36.44287902	-76
54452	0	0.053281784	0.285154343	0.26918602	0.999999046	-0.000481606	-6.29E-05	0.000178337	1.332044601	7.128858566	6.729650497	-0.024080278	-0.003147125	0.008916855	0.520996094	-0.448242188	-0.762695313	878.14	46.48763434	-7.757127547	-36.44019767	-76
54453	0	0.055541992	0.284057617	0.271850586	0.999999046	-0.000453949	-6.39E-05	0.000164032	1.388549805	7.10144043	6.796264648	-0.02269745	-0.003194809	0.008201599	0.520996094	-0.448242188	-0.762695313	878.14	46.45225452	-7.768082639	-36.43819981	-76
54454	0	0.054205894	0.285440445	0.27155304	0.999999046	-0.00019455	6.68E-05	9.16E-05	1.355147362	7.136011124	6.788825989	-0.009727478	0.00333786	0.004577637	0.520996094	-0.443847656	-0.763183594	878.06	46.44409989	-7.762613412	-36.43260151	-76
54455	0	0.053649902	0.283630371	0.270690918	0.999999046	-0.000461578	-6.77E-05	8.77E-05	1.341247559	7.090759277	6.767272949	-0.023078919	-0.003385544	0.004386902	0.520996094	-0.446044922	-0.762939453	878.14	46.40515138	-7.767177748	-36.43667933	-76
54456	0	0.05318737	0.283614159	0.27100563	0.999999046	-0.000266075	8.01E-05	2.67E-05	1.329684258	7.090353966	6.775140762	-0.013303757	0.004005432	0.001335144	0.520996094	-0.443847656	-0.766113281	878.06	46.38603327	-7.754706403	-36.43478885	-76
54457	0	0.053710938	0.284545898	0.271728516	0.999999046	-0.000217438	-8.30E-05	0	1.342773438	7.113647461	6.793212891	-0.010871887	-0.004148483	0	0.520996094	-0.446044922	-0.760009766	878.18	46.37331585	-7.752650256	-36.44520751	-76
54458	0	0.053572655	0.283511162	0.272818565	0.999999046	5.72E-05	0.000108719	6.87E-05	1.339316368	7.087779045	6.820464134	0.002861023	0.005435944	0.003433228	0.518554688	-0.446044922	-0.765625	878.14	46.38761433	-7.741019913	-36.43720511	-76
54459	0	0.053466797	0.28527832	0.269897461	0.999999046	-0.000259399	2.00E-05	9.16E-05	1.336669922	7.131958008	6.747436523	-0.012969971	0.001001358	0.004577637	0.520996094	-0.443847656	-0.763183594	878.22	46.36586668	-7.738123369	-36.43339645	-76
54460	0	0.053996086	0.28457737	0.271938324	0.999999046	-0.000529289	0.000106812	-1.14E-05	1.349902153	7.114434242	6.798458099	-0.026464464	0.005340576	-0.000572205	0.520996094	-0.443847656	-0.763183594	878.14	46.31238818	-7.719786857	-36.43011935	-76
54461	0	0.052429199	0.284301758	0.271728516	0.999999046	-0.00082016	-1.43E-05	0.000232697	1.31072998	7.107543945	6.793212891	-0.041008001	-0.000715256	0.011634828	0.520996094	-0.443847656	-0.763183594	878.12	46.22356656	-7.730884396	-36.41684502	-76
54462	0	0.054215431	0.279491425	0.275359154	0.999999046	-0.000326157	-0.000179291	7.92E-05	1.35538578	6.987285614	6.883978844	-0.016307831	-0.008964539	0.003957749	0.520996094	-0.441650391	-0.769042969	878.18	46.19289516	-7.742497241	-36.43183084	-76
54463	0	0.053100586	0.283508301	0.270996094	0.999999046	0.000217438	1.62E-05	4.96E-05	1.327514648	7.08770752	6.774902344	0.010871887	0.000810623	0.002479553	0.520996094	-0.441650391	-0.769042969	878.22	46.22233747	-7.735976626	-36.43257112	-76
54464	0	0.054950714	0.283255577	0.273742676	0.999999046	0.000149727	3.05E-05	6.77E-05	1.373767853	7.081389427	6.843566895	0.007486343	0.001525879	0.003385544	0.520751953	-0.441650391	-0.763427734	878.24	46.24285707	-7.730013315	-36.42869659	-76
54465	0	0.053161621	0.284240723	0.271179199	0.999999046	0.000392914	4.67E-05	-0.000125885	1.329040527	7.106018066	6.77947998	0.019645691	0.002336502	-0.006294251	0.523193359	-0.441894531	-0.766357422	878.18	46.29294745	-7.706583428	-36.43948777	-76
54466	0	0.05239296	0.283308029	0.272974968	0.999999046	-0.000204086	7.06E-05	5.63E-05	1.30982399	7.082700729	6.824374199	-0.010204315	0.003528595	0.002813339	0.523193359	-0.441894531	-0.766357422	878.12	46.27173727	-7.696058935	-36.43354841	-76
54467	0	0.053405762	0.282897949	0.27331543	0.999999046	-7.63E-05	-8.30E-05	0.000137329	1.335144043	7.07244873	6.832885742	-0.003814697	-0.004148483	0.006866455	0.523193359	-0.441894531	-0.766357422	878.22	46.26534532	-7.704375316	-36.43381617	-76
54468	0	0.053711891	0.283267975	0.272311211	0.999999046	7.34E-05	5.15E-05	-4.29E-05	1.342797279	7.081699371	6.807780266	0.003671646	0.002574921	-0.002145767	0.523193359	-0.441894531	-0.766357422	878.08	46.27613912	-7.687146735	-36.4373809	-76
54469	0	0.05255127	0.282043457	0.273986816	0.999999046	0.000144958	-3.34E-05	6.48E-05	1.313781738	7.051086426	6.84967041	0.007247925	-0.00166893	0.003242493	0.520751953	-0.441650391	-0.766113281	878.14	46.29414665	-7.685384414	-36.44020134	-75
54470	0	0.053705215	0.283762932	0.272618294	0.999999046	0.000423431	9.35E-05	4.48E-05	1.342630386	7.094073296	6.815457344	0.02117157	0.004673004	0.002241135	0.523193359	-0.441650391	-0.763427734	878.12	46.34256154	-7.671965445	-36.43265258	-75
54471	0	0.05267334	0.284484863	0.271728516	0.999999046	0.000236511	8.49E-05	6.10E-05	1.316833496	7.112121582	6.793212891	0.011825562	0.004243851	0.003051758	0.520751953	-0.441650391	-0.763427734	878.18	46.36936396	-7.66044928	-36.42564705	-75
54472	0	0.052905083	0.282775879	0.273495674	0.999999046	-7.34E-05	0.000102997	0.000144005	1.322627068	7.069396973	6.837391853	-0.003671646	0.005149841	0.007200241	0.523193359	-0.444091797	-0.766113281	878.22	46.35897635	-7.654321033	-36.40958774	-75
54473	0	0.053710938	0.284179688	0.274230957	0.999999046	0.000240326	6.20E-05	0	1.342773438	7.104492188	6.855773926	0.012016297	0.003099442	0	0.520751953	-0.441650391	-0.766113281	878.18	46.38609324	-7.639555948	-36.41026988	-76
54474	0	0.05215168	0.284614563	0.269949913	0.999999046	-0.000101089	-4.77E-05	-2.29E-05	1.303792	7.115364075	6.748747826	-0.005054474	-0.002384186	-0.001144409	0.523193359	-0.441650391	-0.763427734	878.24	46.37571594	-7.631421542	-36.41996194	-76
54475	0	0.053344727	0.282653809	0.273620605	0.999999046	-0.000198364	-5.25E-05	-2.29E-05	1.333618164	7.066345215	6.840515137	-0.009918213	-0.002622604	-0.001144409	0.523193359	-0.439697266	-0.766601563	878.22	46.35372422	-7.623730523	-36.43153583	-75
54476	0	0.052200317	0.281998634	0.271895409	0.999999046	0.000536919	-0.0001297	-3.15E-05	1.305007935	7.049965858	6.797385216	0.026845933	-0.006484986	-0.001573563	0.523193359	-0.441650391	-0.763427734	878.14	46.41662707	-7.621340488	-36.44866402	-75
54477	0	0.052246094	0.284606934	0.272277832	0.999999046	0.000293732	1.24E-05	0.000118256	1.306152344	7.11517334	6.806945801	0.014686585	0.000619888	0.005912781	0.520751953	-0.441650391	-0.766113281	878.14	46.44839954	-7.620030232	-36.44384539	-75
54478	0	0.053221703	0.283898354	0.271257401	0.999999046	0.000455856	-5.72E-06	5.34E-05	1.330542564	7.097458839	6.781435013	0.022792817	-0.000286102	0.002670288	0.523193359	-0.444091797	-0.766113281	878.08	46.49954989	-7.614838701	-36.44420756	-76
54479	0	0.052307129	0.284851074	0.270629883	0.999999046	9.16E-05	0.000126839	8.39E-05	1.307678223	7.121276855	6.76574707	0.004577637	0.006341934	0.004196167	0.523193359	-0.441650391	-0.763427734	878.22	46.50720079	-7.601655211	-36.43124452	-75
54480	0	0.052103043	0.284220695	0.272421837	0.999999046	-9.25E-05	1.53E-05	0.000136375	1.302576065	7.105517387	6.810545921	-0.00462532	0.000762939	0.006818771	0.523193359	-0.441650391	-0.760498047	878.22	46.49421479	-7.601535015	-36.42245829	-75
54481	0	0.05267334	0.283447266	0.271362305	0.999999046	7.63E-06	-6.77E-05	-7.63E-06	1.316833496	7.086181641	6.784057617	0.00038147	-0.003385544	-0.00038147	0.520996094	-0.441650391	-0.769042969	878.12	46.49497852	-7.596007721	-36.43550789	-75
54482	0	0.052339554	0.283696175	0.273913383	0.999999046	4.20E-05	0	0.000102043	1.308488846	7.092404366	6.847834587	0.002098084	0	0.005102158	0.523193359	-0.441894531	-0.766357422	878.12	46.49738256	-7.594193893	-36.43209138	-75
54483	0	0.052124023	0.283935547	0.271240234	0.999999046	0.000179291	4.67E-05	0.00012207	1.303100586	7.098388672	6.781005859	0.008964539	0.002336502	0.006103516	0.523193359	-0.443847656	-0.760498047	878.12	46.51473764	-7.590308589	-36.42071326	-76
54484	0	0.052412033	0.284446716	0.271570206	0.999999046	-0.000294685	-3.05E-05	0.000132561	1.310300827	7.111167908	6.789255142	-0.014734268	-0.001525879	0.006628037	0.523193359	-0.444091797	-0.763183594	878.14	46.4784732	-7.593369926	-36.41584189	-75
54485	0	0.052612305	0.282958984	0.272521973	0.999999046	0.000164032	2.77E-05	2.29E-05	1.315307617	7.073974609	6.813049316	0.008201599	0.001382828	0.001144409	0.522949219	-0.441650391	-0.7578125	878.14	46.49503868	-7.582743363	-36.41440682	-75
54486	0	0.052427292	0.285058975	0.270294189	0.999999046	-7.06E-05	1.91E-05	9.06E-05	1.310682297	7.12647438	6.757354736	-0.003528595	0.000953674	0.004529953	0.525634766	-0.444091797	-0.766357422	878.12	46.48427387	-7.578419216	-36.40962155	-75
54487	0	0.052368164	0.283691406	0.272766113	0.999999046	-0.000366211	-9.44E-05	0.00025177	1.309204102	7.092285156	6.819152832	-0.018310548	-0.004720688	0.012588501	0.523193359	-0.443847656	-0.760498047	878.24	46.43900263	-7.596426097	-36.40019142	-75
54488	0	0.053172112	0.282793045	0.273084641	0.999999046	0.000132561	-7.82E-05	6.68E-06	1.329302788	7.069826126	6.827116013	0.006628037	-0.003910065	0.000333786	0.523193359	-0.441650391	-0.760498047	878.22	46.45304562	-7.592872175	-36.41000091	-75
54489	0	0.051818848	0.284729004	0.27130127	0.999999046	-6.48E-05	-2.86E-06	-5.72E-05	1.295471191	7.118225098	6.782531738	-0.003242493	-0.000143051	-0.002861023	0.523193359	-0.443847656	-0.760498047	878.14	46.44440028	-7.577969268	-36.41791208	-75
54490	0	0.051849365	0.282623291	0.273716927	0.999999046	-8.77E-05	-0.000116348	0.000151634	1.296234131	7.065582275	6.842923164	-0.004386902	-0.005817413	0.007581711	0.523193359	-0.441894531	-0.766357422	878.18	46.43189743	-7.589295137	-36.42114867	-75
54491	0	0.052429199	0.284790039	0.271850586	0.999999046	4.96E-05	-0.000155449	2.67E-05	1.31072998	7.119750977	6.796264648	0.002479553	-0.007772446	0.001335144	0.525634766	-0.444091797	-0.763427734	878.14	46.43696145	-7.593328339	-36.43510279	-75
54492	0	0.051490784	0.283898354	0.271256447	0.999999046	-0.00032711	-2.67E-05	0.000106812	1.287269592	7.097458839	6.781411171	-0.016355515	-0.001335144	0.005340576	0.523193359	-0.441650391	-0.760498047	878.22	46.3966425	-7.593737157	-36.43246948	-75
54493	0	0.052978516	0.282531738	0.273803711	0.999999046	-0.000141144	-0.000132561	7.63E-05	1.324462891	7.063293457	6.845092773	-0.00705719	-0.006628037	0.003814697	0.523193359	-0.441650391	-0.763427734	878.14	46.37888595	-7.600037446	-36.44189939	-76
54494	0	0.052300453	0.28397274	0.272404671	0.999999046	-5.53E-05	-9.92E-05	6.68E-06	1.30751133	7.099318504	6.810116768	-0.002765656	-0.004959106	0.000333786	0.523193359	-0.439697266	-0.766601563	878.14	46.37135088	-7.597895482	-36.45552189	-76
54495	0	0.05267334	0.281494141	0.274169922	0.999999046	-0.000167847	-5.25E-05	6.10E-05	1.316833496	7.037353516	6.854248047	-0.008392334	-0.002622604	0.003051758	0.523193359	-0.441650391	-0.763427734	878.2	46.34952297	-7.596598892	-36.45892366	-75
54496	0	0.051027298	0.284020424	0.271268845	0.999999046	-0.00017643	3.81E-06	3.81E-06	1.275682449	7.100510597	6.781721115	-0.008821487	0.000190735	0.000190735	0.525634766	-0.441894531	-0.766357422	878.18	46.32684744	-7.585958699	-36.4623084	-75
54497	0	0.05279541	0.28302002	0.274353027	0.999999046	-0.000236511	8.58E-06	0.000217438	1.319885254	7.075500488	6.858825684	-0.011825562	0.000429153	0.010871887	0.523193359	-0.441894531	-0.766357422	878.14	46.29482942	-7.592678717	-36.44875589	-75
54498	0	0.052852631	0.283356667	0.271618843	0.999999046	4.20E-05	7.44E-05	0.000106812	1.321315765	7.083916664	6.790471077	0.002098084	0.00371933	0.005340576	0.522949219	-0.439453125	-0.763671875	878.22	46.29527876	-7.585076793	-36.43870081	-75
54499	0	0.051879883	0.282409668	0.274353027	0.999999046	-0.000133514	-6.68E-06	9.54E-05	1.29699707	7.060241699	6.858825684	-0.00667572	-0.000333786	0.004768372	0.525390625	-0.439697266	-0.760986328	878.14	46.27647057	-7.582890726	-36.43472906	-75
54500	0	0.052365303	0.284523964	0.272047043	0.999999046	-6.58E-05	-1.34E-05	7.92E-05	1.309132576	7.113099098	6.801176071	-0.003290176	-0.000667572	0.003957748	0.525390625	-0.439697266	-0.766601563	878.18	46.26584721	-7.579883979	-36.43440307	-75
54501	0	0.052185059	0.281005859	0.272705078	0.999999046	-0.00044632	-0.000132561	4.96E-05	1.304626465	7.025146484	6.817626953	-0.02231598	-0.006628037	0.002479553	0.522949219	-0.439453125	-0.760742188	878.08	46.21312903	-7.583892315	-36.44490469	-76
54502	0	0.051918983	0.282832146	0.272577286	0.999999046	0.000173569	-0.000196457	4.48E-05	1.297974586	7.070803642	6.814432144	0.008678436	-0.009822846	0.002241135	0.522949219	-0.437255859	-0.766601563	878.22	46.23226416	-7.592534713	-36.46366713	-75
54503	0	0.05255127	0.28314209	0.274414063	0.999999046	-3.43E-05	6.58E-05	7.63E-06	1.313781738	7.078552246	6.860351563	-0.001716614	0.003290176	0.00038147	0.522949219	-0.437255859	-0.763916016	878.14	46.22501568	-7.577312916	-36.46254084	-75
54504	0	0.052580833	0.283305168	0.274683952	0.999999046	8.11E-05	-5.91E-05	-4.96E-05	1.314520836	7.082629204	6.867098808	0.004053116	-0.00295639	-0.002479553	0.522949219	-0.437255859	-0.766601563	878.18	46.23290877	-7.567269881	-36.47713122	-76
54505	0	0.052001953	0.282226563	0.272705078	0.999999046	-0.000144958	-6.77E-05	5.34E-05	1.300048828	7.055664063	6.817626953	-0.007247925	-0.003385544	0.002670288	0.522949219	-0.439453125	-0.763671875	878.22	46.21391428	-7.566425557	-36.48232283	-75
54506	0	0.051825523	0.281469345	0.27497673	0.999999046	0.000106812	-6.68E-05	6.77E-05	1.295638084	7.036733627	6.874418259	0.005340576	-0.00333786	0.003385544	0.525634766	-0.439697266	-0.76953125	878.24	46.22342647	-7.566650053	-36.48737938	-76
54507	0	0.053222656	0.283569336	0.273620605	0.999999046	0.000167847	-2.19E-05	7.63E-05	1.330566406	7.089233398	6.840515137	0.008392334	-0.001096725	0.003814697	0.522949219	-0.437255859	-0.766601563	878.18	46.23939592	-7.5641128	-36.48866554	-75
54508	0	0.051202774	0.282431602	0.272302628	0.999999046	0.000123024	0.000185013	-5.44E-05	1.280069351	7.060790062	6.807565689	0.006151199	0.009250641	-0.002717972	0.525390625	-0.439697266	-0.763671875	878.22	46.24937886	-7.53428692	-36.48092651	-75
54509	0	0.051940918	0.284118652	0.27331543	0.999999046	-0.000179291	1.62E-05	3.05E-05	1.298522949	7.102966309	6.832885742	-0.008964539	0.000810623	0.001525879	0.525390625	-0.439697266	-0.763671875	878.2	46.22575735	-7.52485043	-36.48051796	-75
54510	0	0.050972939	0.281392097	0.273234367	0.999999046	-0.000272751	-1.34E-05	0.000174522	1.274323463	7.034802437	6.830859184	-0.013637543	-0.000667572	0.00872612	0.527832031	-0.439697266	-0.763916016	878.18	46.19016909	-7.529605458	-36.47047539	-76
54511	0	0.052185059	0.282653809	0.274414063	0.999999046	0.000160217	2.77E-05	7.63E-06	1.304626465	7.066345215	6.860351563	0.008010864	0.001382828	0.00038147	0.525390625	-0.439697266	-0.766601563	878.18	46.20545318	-7.517317786	-36.47211247	-75
54512	0	0.051625252	0.282556534	0.273226738	0.999999046	-8.49E-05	4.58E-05	8.68E-05	1.290631294	7.063913345	6.830668449	-0.004243851	0.002288818	0.004339218	0.525390625	-0.439697266	-0.766601563	878.14	46.19164345	-7.510126713	-36.46587947	-75
54513	0	0.051513672	0.280700684	0.273681641	0.999999046	0.000320435	9.63E-05	-3.81E-06	1.287841797	7.01751709	6.842041016	0.016021729	0.004816055	-0.000190735	0.525390625	-0.4375	-0.766845703	878.28	46.22456616	-7.491425551	-36.46377225	-75
54514	0	0.050665855	0.286000252	0.269478798	0.999999046	-0.000310898	4.20E-05	0.000113487	1.266646385	7.150006294	6.736969948	-0.015544892	0.002098084	0.005674362	0.525390625	-0.439697266	-0.766601563	878.12	46.1849452	-7.486666467	-36.45573868	-75
54515	0	0.052307129	0.282592773	0.274658203	0.999999046	-0.000808716	-2.96E-05	0.000240326	1.307678223	7.064819336	6.866455078	-0.040435796	-0.001478195	0.012016298	0.525390625	-0.4375	-0.766845703	878.24	46.08766244	-7.498110572	-36.44369582	-75
54516	0	0.050810814	0.281395912	0.271753311	0.999999046	-0.000712395	0.000230789	0.000232697	1.270270348	7.034897804	6.793832779	-0.035619739	0.01153946	0.011634828	0.525390625	-0.4375	-0.760986328	878.24	45.99876046	-7.488157466	-36.40842978	-75
54517	0	0.052185059	0.277709961	0.278686523	0.999999046	-0.000232697	-0.000102043	0.000225067	1.304626465	6.942749023	6.967163086	-0.011634827	-0.005102158	0.011253357	0.522949219	-0.437255859	-0.763916016	878.12	45.96805048	-7.50408902	-36.40295621	-75
54518	0	0.051087379	0.285433769	0.27154541	0.999999046	0.000339508	2.86E-05	2.86E-06	1.277184486	7.135844231	6.788635254	0.016975403	0.001430512	0.000143051	0.525390625	-0.435302734	-0.767089844	878.14	46.0042268	-7.491249033	-36.40589797	-75
54519	0	0.051086426	0.280151367	0.276184082	0.999999046	-0.000679016	-1.43E-05	-3.81E-06	1.277160645	7.00378418	6.904602051	-0.033950808	-0.000715256	-0.000190735	0.525390625	-0.4375	-0.760986328	878.2	45.9240393	-7.481247726	-36.40963894	-75
54520	0	0.050909042	0.279898643	0.275769234	0.999999046	-0.000124931	-0.000104904	0.000121117	1.272726059	6.997466087	6.894230843	-0.006246567	-0.005245209	0.006055832	0.527832031	-0.4375	-0.769775391	878.14	45.90689772	-7.488715328	-36.41307333	-75
54521	0	0.05267334	0.280761719	0.277099609	0.999999046	0.000328064	-0.000132561	-1.53E-05	1.316833496	7.019042969	6.927490234	0.016403199	-0.006628037	-0.000762939	0.525390625	-0.435302734	-0.767089844	878.12	45.94326312	-7.487234677	-36.43044425	-74
54522	0	0.051757813	0.28338623	0.272399902	0.999999046	6.10E-05	-0.000106812	-9.92E-05	1.293945313	7.084655762	6.809997559	0.003051758	-0.005340576	-0.004959106	0.527587891	-0.435302734	-0.761230469	878.14	45.94987479	-7.476807998	-36.44999478	-75
54523	0	0.050666809	0.282202721	0.273541451	0.999997139	-0.00079155	-0.000226021	3.81E-05	1.266670227	7.055068016	6.838536263	-0.039577489	-0.011301042	0.001907349	0.525146484	-0.433105469	-0.770019531	878.18	45.85874851	-7.487142755	-36.4719226	-74
54524	0	0.05111599	0.279145241	0.274589539	0.999999046	-0.000510216	9.54E-06	9.54E-05	1.277899742	6.97863102	6.864738464	-0.025510789	0.000476837	0.004768372	0.525390625	-0.435302734	-0.769775391	878.18	45.79665307	-7.48339026	-36.4682304	-75
54525	0	0.051635742	0.27722168	0.278015137	0.999999046	6.87E-05	-3.72E-05	0.000225067	1.290893555	6.930541992	6.950378418	0.003433228	-0.001859665	0.011253357	0.525390625	-0.435302734	-0.767089844	878.12	45.79973075	-7.494043361	-36.45711864	-74
54526	0	0.0526371	0.28266716	0.276323318	0.999998093	0.000779152	9.06E-05	7.92E-05	1.315927505	7.066679001	6.908082962	0.0389576	0.004529953	0.003957749	0.525146484	-0.433105469	-0.767089844	878.12	45.8844478	-7.482560168	-36.448784	-74
54527	0	0.05065918	0.281494141	0.274719238	0.999999046	-4.58E-05	-5.63E-05	0.000114441	1.266479492	7.037353516	6.867980957	-0.002288818	-0.002813339	0.005722046	0.525146484	-0.433105469	-0.764160156	878.18	45.87590162	-7.485642351	-36.44869485	-74
54528	0	0.052402496	0.282798767	0.276081085	0.999999046	-6.58E-05	-7.82E-05	0.000155449	1.310062408	7.069969177	6.90202713	-0.003290176	-0.003910065	0.007772446	0.525390625	-0.435302734	-0.767089844	878.06	45.86491419	-7.493892258	-36.44714901	-74
54529	0	0.052124023	0.278625488	0.276855469	0.999999046	-0.000465393	-0.000136375	0.0001297	1.303100586	6.965637207	6.921386719	-0.023269654	-0.006818772	0.006484986	0.527587891	-0.433105469	-0.767333984	878.14	45.80884425	-7.504711344	-36.4523389	-73
54530	0	0.052332878	0.28000164	0.276857376	0.999999046	0.000577927	-0.000162125	4.48E-05	1.308321953	7.000041008	6.921434402	0.028896334	-0.008106232	0.002241135	0.525390625	-0.435302734	-0.767089844	878.14	45.8734137	-7.510647776	-36.46653864	-73
54531	0	0.051025391	0.281860352	0.27355957	0.999999046	0.000141144	-9.44E-05	-7.63E-06	1.275634766	7.046508789	6.838989258	0.00705719	-0.004720688	-0.00038147	0.525390625	-0.435302734	-0.769775391	878.18	45.88788573	-7.506811315	-36.48031254	-73
54532	0	0.052049637	0.282182693	0.275300026	0.999999046	-0.000201225	-6.48E-05	8.01E-05	1.301240921	7.054567337	6.882500648	-0.010061264	-0.003242493	0.004005432	0.522949219	-0.435302734	-0.769775391	878.08	45.86193449	-7.507849339	-36.48490915	-73
54533	0	0.051940918	0.278930664	0.276245117	0.999999046	-0.000339508	-0.000105858	5.34E-05	1.298522949	6.973266602	6.90612793	-0.016975403	-0.005292893	0.002670288	0.525146484	-0.433105469	-0.767089844	878.14	45.82072609	-7.509991627	-36.49392502	-73
54534	0	0.052577972	0.278676033	0.275873184	0.999999046	0.000230789	-0.000150681	5.63E-05	1.31444931	6.966900826	6.896829605	0.011539459	-0.007534027	0.002813339	0.525146484	-0.433105469	-0.764160156	878.18	45.84522058	-7.51601593	-36.50549031	-73
54535	0	0.052001953	0.28125	0.275634766	0.999999046	0.000152588	3.91E-05	6.48E-05	1.300048828	7.03125	6.890869141	0.007629395	0.001955032	0.003242493	0.525146484	-0.433105469	-0.767089844	878.14	45.85862551	-7.507598921	-36.5018837	-73
54536	0	0.051650047	0.280045509	0.276407242	0.999999046	0.000155449	-7.63E-05	0.000148773	1.291251183	7.001137733	6.910181046	0.007772446	-0.003814697	0.00743866	0.525146484	-0.435302734	-0.764160156	878.12	45.8726469	-7.515285769	-36.49926406	-73
54537	0	0.051757813	0.281311035	0.276245117	0.999999046	6.48E-05	-6.39E-05	0.000137329	1.293945313	7.032775879	6.90612793	0.003242493	-0.003194809	0.006866455	0.525390625	-0.435302734	-0.767089844	878.22	45.87625591	-7.521027581	-36.49764577	-73
54538	0	0.052968979	0.280294418	0.276689529	0.999999046	3.81E-06	0.000104904	-0.000119209	1.324224472	7.007360458	6.917238235	0.000190735	0.005245209	-0.005960465	0.525390625	-0.435302734	-0.769775391	878.24	45.87365457	-7.492264608	-36.50369405	-73
54539	0	0.051879883	0.279296875	0.276611328	0.999999046	0.000419617	0.00011158	-3.81E-05	1.29699707	6.982421875	6.915283203	0.020980836	0.005578995	-0.001907349	0.525146484	-0.433105469	-0.764160156	878.14	45.91765552	-7.469651731	-36.5019524	-73
54540	0	0.050820351	0.281727791	0.274004936	0.999999046	-0.000126839	6.10E-05	9.06E-05	1.270508766	7.043194771	6.850123405	-0.006341934	0.003051758	0.004529953	0.525390625	-0.435302734	-0.769775391	878.24	45.89833007	-7.461620001	-36.49509501	-73
54541	0	0.051452637	0.28137207	0.277160645	0.999999046	-7.63E-06	8.58E-06	0.000164032	1.286315918	7.034301758	6.929016113	-0.00038147	0.000429153	0.008201599	0.527587891	-0.435302734	-0.767089844	878.18	45.89240176	-7.463800227	-36.48502593	-73
54542	0	0.05172348	0.28104496	0.275578499	0.999999046	-0.000509262	-5.34E-05	0.00014782	1.293087006	7.026124001	6.889462471	-0.025463105	-0.002670288	0.007390976	0.527587891	-0.433105469	-0.764404297	878.28	45.8298277	-7.469602453	-36.48082423	-73
54543	0	0.051391602	0.277160645	0.276184082	0.999999046	0.000148773	3.53E-05	-1.53E-05	1.284790039	6.929016113	6.904602051	0.00743866	0.001764297	-0.000762939	0.527587891	-0.433105469	-0.767333984	878.18	45.84324091	-7.454923849	-36.48371527	-73
54544	0	0.051241875	0.281271935	0.275736809	0.999999046	0.000655174	0.000114441	8.39E-05	1.281046867	7.031798363	6.893420219	0.032758715	0.005722046	0.004196167	0.527587891	-0.433105469	-0.764404297	878.28	45.91282545	-7.442071127	-36.47165313	-73
54545	0	0.050537109	0.28125	0.27532959	0.999999046	-9.16E-05	9.25E-05	0.000118256	1.263427734	7.03125	6.883239746	-0.004577637	0.00462532	0.005912781	0.525390625	-0.435302734	-0.767089844	878.28	45.89673712	-7.433746224	-36.45937133	-73
54546	0	0.05128479	0.280210495	0.276854515	0.999999046	3.62E-05	-0.000127792	9.82E-05	1.282119751	7.005262375	6.921362877	0.001811981	-0.006389618	0.004911423	0.527587891	-0.433105469	-0.764404297	878.22	45.89777874	-7.441339987	-36.46613753	-73
54547	0	0.050720215	0.280700684	0.27545166	0.999999046	-6.87E-05	-0.000102043	1.53E-05	1.268005371	7.01751709	6.886291504	-0.003433228	-0.005102158	0.000762939	0.525146484	-0.433105469	-0.764160156	878.28	45.88738302	-7.440020357	-36.47788406	-73
54548	0	0.051700592	0.282247543	0.27468586	0.999999046	0.000163078	-1.34E-05	1.43E-05	1.292514801	7.056188583	6.867146492	0.008153915	-0.000667572	0.000715256	0.525146484	-0.433105469	-0.767089844	878.3	45.90269787	-7.43156877	-36.48365326	-73
54549	0	0.051147461	0.280212402	0.274780273	0.999999046	-0.000297546	-2.96E-05	0.00019455	1.278686523	7.005310059	6.869506836	-0.01487732	-0.001478195	0.009727478	0.525390625	-0.435302734	-0.767089844	878.36	45.86352507	-7.439244667	-36.47481219	-73
54550	0	0.051883698	0.280576706	0.276286125	0.999999046	6.48E-05	7.44E-05	1.14E-05	1.297092438	7.014417648	6.90715313	0.003242493	0.00371933	0.000572205	0.525146484	-0.435302734	-0.764160156	878.2	45.86663566	-7.423597946	-36.47105701	-73
54551	0	0.050415039	0.280151367	0.275512695	0.999999046	-0.000282288	8.58E-06	0.000106812	1.260375977	7.00378418	6.887817383	-0.01411438	0.000429153	0.005340576	0.525146484	-0.433105469	-0.767089844	878.28	45.82966188	-7.420999322	-36.46706753	-73
54552	0	0.051568031	0.27796936	0.276463509	0.999999046	0.000220299	-0.000143051	0.00014019	1.289200783	6.949234009	6.911587715	0.011014939	-0.007152557	0.007009506	0.527587891	-0.430908203	-0.767333984	878.34	45.85142371	-7.433283411	-36.4733788	-73
54553	0	0.05065918	0.282287598	0.27520752	0.999999046	0.000278473	-2.19E-05	8.39E-05	1.266479492	7.057189941	6.880187988	0.013923645	-0.001096725	0.004196167	0.525146484	-0.433105469	-0.770019531	878.28	45.87923094	-7.431230849	-36.47524144	-73
54554	0	0.050413132	0.280905724	0.275353432	0.999999046	-0.000169754	-0.000156403	0.000244141	1.260328293	7.022643089	6.883835793	-0.008487702	-0.00782013	0.012207031	0.527587891	-0.433105469	-0.767333984	878.18	45.85546362	-7.453042684	-36.47301076	-73
54555	0	0.05090332	0.280090332	0.274719238	0.999999046	0.000141144	-0.000144005	0.00012207	1.272583008	7.002258301	6.867980957	0.00705719	-0.007200241	0.006103516	0.527587891	-0.433105469	-0.764404297	878.2	45.86847965	-7.463811224	-36.47830137	-73
54556	0	0.051539421	0.280277252	0.277431488	0.999998093	-0.000165939	-7.15E-05	0.000217438	1.288485527	7.006931305	6.935787201	-0.008296967	-0.003576279	0.010871887	0.525146484	-0.430908203	-0.764404297	878.3	45.84443382	-7.476636391	-36.47155565	-73
54557	0	0.050964355	0.279846191	0.27722168	0.999999046	0.000335693	4.29E-05	0.000175476	1.274108887	6.996154785	6.930541992	0.016784668	0.002145767	0.008773804	0.527587891	-0.435302734	-0.764160156	878.28	45.87698384	-7.476847746	-36.45601586	-73
54558	0	0.051039696	0.281294823	0.275388718	0.999999046	7.82E-05	-3.81E-06	8.01E-05	1.275992393	7.032370567	6.884717941	0.003910065	-0.000190735	0.004005432	0.525390625	-0.435302734	-0.767089844	878.18	45.88156371	-7.472915619	-36.45425611	-73
54559	0	0.050720215	0.28125	0.275512695	0.999999046	-7.63E-06	-8.30E-05	7.25E-05	1.268005371	7.03125	6.887817383	-0.00038147	-0.004148483	0.003623962	0.525146484	-0.433105469	-0.770019531	878.24	45.8772652	-7.474625038	-36.46211405	-73
54560	0	0.05117321	0.280016899	0.276667595	0.999999046	-0.000128746	1.53E-05	6.10E-05	1.279330254	7.000422478	6.916689873	-0.006437302	0.000762939	0.003051758	0.52734375	-0.430908203	-0.764648438	878.28	45.85807474	-7.467544732	-36.46032904	-73
54561	0	0.051757813	0.279296875	0.276000977	0.999999046	5.34E-05	-6.77E-05	9.54E-05	1.293945313	6.982421875	6.900024414	0.002670288	-0.003385544	0.004768372	0.525146484	-0.433105469	-0.767089844	878.28	45.86022891	-7.469935577	-36.46337889	-73
54562	0	0.052275658	0.28194046	0.274253845	0.999999046	0.000427246	0.000112534	-8.87E-05	1.306891441	7.048511505	6.85634613	0.021362305	0.005626679	-0.004434586	0.527587891	-0.435302734	-0.767089844	878.24	45.90531355	-7.442855853	-36.46482712	-73
54563	0	0.051147461	0.281005859	0.277038574	0.999999046	-0.000526428	-0.000136375	1.14E-05	1.278686523	7.025146484	6.925964355	-0.026321412	-0.006818772	0.000572205	0.527587891	-0.433105469	-0.764404297	878.2	45.84268688	-7.443860349	-36.47791234	-73
54564	0	0.050802231	0.279614449	0.277074814	0.999999046	0.000309944	-3.62E-05	3.34E-05	1.270055771	6.990361214	6.926870346	0.015497208	-0.001811981	0.00166893	0.525146484	-0.433105469	-0.767089844	878.18	45.87450847	-7.438653414	-36.48348863	-73
54565	0	0.050842285	0.280822754	0.275390625	0.999999046	-0.000293732	-0.000102043	0.00018692	1.271057129	7.020568848	6.884765625	-0.014686585	-0.005102158	0.009346009	0.527587891	-0.433105469	-0.767333984	878.28	45.83627588	-7.451307532	-36.48087706	-73
54566	0	0.052407265	0.278380394	0.278839111	0.999999046	0.000480652	9.54E-06	4.48E-05	1.310181618	6.95950985	6.970977783	0.024032594	0.000476837	0.002241135	0.525146484	-0.433105469	-0.770019531	878.18	45.88686293	-7.443426519	-36.48327993	-73
54567	0	0.051025391	0.282531738	0.275085449	0.999999046	0.000175476	1.62E-05	2.29E-05	1.275634766	7.063293457	6.87713623	0.008773804	0.000810623	0.001144409	0.525146484	-0.433105469	-0.764160156	878.24	45.90272921	-7.433193092	-36.48396248	-73
54568	0	0.05109024	0.281161308	0.276147842	0.999999046	5.63E-05	4.77E-05	2.86E-06	1.277256012	7.029032707	6.90369606	0.002813339	0.002384186	0.000143051	0.525146484	-0.433105469	-0.770019531	878.18	45.9047958	-7.41878887	-36.48679709	-73
54569	0	0.050170898	0.281066895	0.275146484	0.999999046	-0.000423431	-2.19E-05	0.00019455	1.254272461	7.026672363	6.878662109	-0.021171571	-0.001096726	0.009727478	0.527587891	-0.433105469	-0.770263672	878.18	45.85067265	-7.425661827	-36.47847838	-74
54570	0	0.051512718	0.279407501	0.277882576	0.999999046	-0.000299454	-4.77E-05	0.000208855	1.287817955	6.985187531	6.9470644	-0.014972687	-0.002384186	0.010442734	0.525390625	-0.435302734	-0.767089844	878.2	45.81075461	-7.435781701	-36.46842104	-74
54571	0	0.051330566	0.279907227	0.276000977	0.999999046	-8.39E-05	-7.92E-05	0.000217438	1.28326416	6.997680664	6.900024414	-0.004196167	-0.003957748	0.010871887	0.527587891	-0.433105469	-0.764404297	878.24	45.79576565	-7.449129195	-36.45910355	-74
54572	0	0.051740646	0.280142784	0.277809143	0.999999046	3.91E-05	5.53E-05	1.81E-05	1.293516159	7.003569603	6.945228577	0.001955032	0.002765656	0.000905991	0.525146484	-0.430908203	-0.767333984	878.18	45.79544142	-7.435372211	-36.45878231	-74
54573	0	0.051208496	0.281494141	0.276123047	0.999999046	5.34E-05	-7.15E-05	0	1.280212402	7.037353516	6.903076172	0.002670288	-0.003576279	0	0.527587891	-0.433105469	-0.764404297	878.14	45.79835237	-7.430260907	-36.46629329	-74
54574	0	0.051064491	0.280546188	0.2760849	0.999999046	-0.000343323	-0.000190735	4.58E-05	1.276612282	7.013654709	6.902122498	-0.017166138	-0.009536743	0.002288818	0.529785156	-0.433105469	-0.764404297	878.24	45.75661274	-7.438437163	-36.47838274	-74
54575	0	0.05065918	0.278442383	0.278381348	0.999999046	-9.92E-05	-0.000102043	0.000225067	1.266479492	6.96105957	6.959533691	-0.004959107	-0.005102158	0.011253357	0.525146484	-0.430908203	-0.767333984	878.18	45.73988584	-7.454211091	-36.47354388	-74
54576	0	0.050963402	0.279401779	0.275191307	0.999999046	0.000292778	-0.000123978	6.01E-05	1.274085045	6.985044479	6.879782677	0.014638901	-0.006198883	0.003004074	0.525146484	-0.430908203	-0.770263672	878.14	45.77006335	-7.458185255	-36.4857342	-74
54577	0	0.052062988	0.279174805	0.278442383	0.999999046	4.20E-05	8.58E-06	6.48E-05	1.301574707	6.979370117	6.96105957	0.002098083	0.000429153	0.003242493	0.525146484	-0.433105469	-0.764160156	878.34	45.76990578	-7.451992466	-36.48141161	-74
54578	0	0.051423073	0.280472755	0.275733948	0.999999046	0.000297546	3.24E-05	0.000148773	1.28557682	7.011818886	6.893348694	0.01487732	0.001621246	0.00743866	0.525146484	-0.430908203	-0.770263672	878.18	45.79794104	-7.450787898	-36.4740287	-74
54579	0	0.051513672	0.279418945	0.277404785	0.999999046	-0.0001297	-0.000113487	0.000175476	1.287841797	6.985473633	6.935119629	-0.006484985	-0.005674362	0.008773804	0.525146484	-0.433105469	-0.767089844	878.14	45.77822762	-7.463450727	-36.47266667	-74
54580	0	0.050820351	0.280060768	0.278319359	0.999999046	0.000401497	-1.34E-05	4.86E-05	1.270508766	7.001519203	6.957983971	0.020074845	-0.000667572	0.00243187	0.527587891	-0.430908203	-0.767333984	878.18	45.81955583	-7.457653239	-36.47433656	-74
54581	0	0.052246094	0.279968262	0.276123047	0.999999046	0.000152588	-3.72E-05	6.10E-05	1.306152344	6.999206543	6.903076172	0.007629395	-0.001859665	0.003051758	0.525146484	-0.433105469	-0.764160156	878.14	45.83247517	-7.454830338	-36.47468995	-74
54582	0	0.051873207	0.2768116	0.278353691	0.999999046	0.000907898	0.000108719	1.81E-05	1.296830177	6.920289993	6.958842278	0.045394904	0.005435944	0.000905991	0.527587891	-0.433105469	-0.767333984	878.22	45.93060665	-7.436865219	-36.46883551	-74
54583	0	0.051574707	0.282165527	0.27532959	0.999999046	0.000728607	6.20E-05	2.67E-05	1.289367676	7.054138184	6.883239746	0.036430362	0.003099442	0.001335144	0.527587891	-0.435302734	-0.767089844	878.24	46.00866883	-7.423349794	-36.46561507	-74
54584	0	0.051189423	0.282688141	0.276571274	0.999999046	0.000576973	8.20E-05	-8.11E-05	1.279735565	7.067203522	6.914281845	0.02884865	0.0041008	-0.004053116	0.527587891	-0.435302734	-0.764160156	878.14	46.07025991	-7.399344628	-36.46838519	-74
54585	0	0.050292969	0.283691406	0.272216797	0.999999046	-0.00030899	-0.000174522	0.000164032	1.257324219	7.092285156	6.805419922	-0.015449524	-0.00872612	0.008201599	0.525146484	-0.435302734	-0.764160156	878.2	46.03072895	-7.415928511	-36.4732462	-74
54586	0	0.05206871	0.278619766	0.277680397	0.999999046	-0.000814438	-0.000267029	9.16E-05	1.301717758	6.965494156	6.942009926	-0.040721898	-0.013351442	0.004577637	0.527587891	-0.433105469	-0.764404297	878.2	45.93482364	-7.433968568	-36.49031317	-75
54587	0	0.051513672	0.279052734	0.275695801	0.999999046	0.000461578	-4.10E-05	8.01E-05	1.287841797	6.976318359	6.89239502	0.023078919	-0.0020504	0.004005432	0.525146484	-0.433105469	-0.767089844	878.28	45.98276358	-7.433090038	-36.49324508	-74
54588	0	0.051276207	0.279603958	0.275798798	0.999999046	0.00036335	-5.72E-06	2.57E-05	1.281905174	6.990098953	6.89496994	0.018167496	-0.000286102	0.00128746	0.527587891	-0.435302734	-0.767089844	878.12	46.01956487	-7.42492969	-36.49517363	-75
54589	0	0.051147461	0.279785156	0.274963379	0.999999046	0.001029968	-1.81E-05	2.67E-05	1.278686523	6.994628906	6.874084473	0.051498422	-0.000905991	0.001335144	0.527587891	-0.435302734	-0.767089844	878.18	46.13283647	-7.417833737	-36.49974392	-75
54590	0	0.051233292	0.28547287	0.273518562	0.999999046	0.000139236	-7.63E-05	3.43E-05	1.280832291	7.136821747	6.837964058	0.006961823	-0.003814697	0.001716614	0.527832031	-0.4375	-0.766845703	878.24	46.14476386	-7.415977011	-36.50656313	-75
54591	0	0.051513672	0.279174805	0.276367188	0.999999046	0.00012207	-4.86E-05	8.39E-05	1.287841797	6.979370117	6.909179688	0.006103516	-0.00243187	0.004196167	0.527832031	-0.4375	-0.766845703	878.2	46.15374923	-7.416046551	-36.50715992	-75
54592	0	0.050977707	0.282894135	0.272508621	0.999999046	0.000121117	-0.000123978	1.53E-05	1.274442673	7.072353363	6.81271553	0.006055832	-0.006198883	0.000762939	0.527587891	-0.4375	-0.761230469	878.2	46.16426133	-7.416421529	-36.51555508	-74
54593	0	0.051147461	0.281311035	0.274230957	0.999999046	-0.00018692	-0.000220299	0.000160217	1.278686523	7.032775879	6.855773926	-0.009346008	-0.011014939	0.008010864	0.525390625	-0.4375	-0.760986328	878.24	46.13900204	-7.436429856	-36.5207473	-75
54594	0	0.052152634	0.281435013	0.276388168	0.999999046	0.000146866	-9.54E-06	-3.91E-05	1.303815842	7.03587532	6.909704208	0.007343292	-0.000476837	-0.001955032	0.525390625	-0.4375	-0.763916016	878.12	46.15170446	-7.423273187	-36.52672034	-75
54595	0	0.050476074	0.280761719	0.276245117	0.999999046	0.000335693	1.62E-05	-8.39E-05	1.261901855	7.019042969	6.90612793	0.016784668	0.000810623	-0.004196167	0.527832031	-0.4375	-0.766845703	878.18	46.18612605	-7.404323033	-36.5354915	-75
54596	0	0.051091194	0.281869888	0.27471447	0.999999046	0.000306129	-9.92E-05	3.81E-05	1.277279854	7.046747208	6.867861748	0.015306473	-0.004959107	0.001907349	0.525390625	-0.4375	-0.763916016	878.2	46.21712465	-7.404618607	-36.54359772	-75
54597	0	0.051208496	0.28314209	0.273071289	0.999999046	-0.000167847	-6.77E-05	-2.29E-05	1.280212402	7.078552246	6.826782227	-0.008392334	-0.003385544	-0.001144409	0.527587891	-0.4375	-0.764160156	878.14	46.19418176	-7.397379212	-36.55234038	-75
54598	0	0.050012589	0.279267311	0.275538445	0.999999046	0.000267029	-5.72E-06	9.82E-05	1.250314713	6.981682777	6.888461113	0.013351441	-0.000286102	0.004911423	0.527587891	-0.4375	-0.761230469	878.18	46.21901455	-7.395200889	-36.5444332	-75
54599	0	0.05078125	0.282104492	0.274902344	0.999999046	0.000286102	-0.000136375	0.000179291	1.26953125	7.052612305	6.872558594	0.014305115	-0.006818772	0.008964539	0.525390625	-0.4375	-0.763916016	878.08	46.24657968	-7.410072683	-36.54470793	-75
54600	0	0.052422523	0.283280373	0.274785995	0.999999046	-4.67E-05	1.72E-05	-7.25E-05	1.310563087	7.082009315	6.869649887	-0.002336502	0.000858307	-0.003623962	0.525390625	-0.439697266	-0.760986328	878.08	46.23696001	-7.392002727	-36.54786885	-74
54601	0	0.05078125	0.280029297	0.274536133	0.999999046	0.000366211	1.24E-05	8.77E-05	1.26953125	7.000732422	6.86340332	0.018310547	0.000619888	0.004386902	0.525390625	-0.439697266	-0.763671875	878.2	46.27297232	-7.387568205	-36.5415405	-75
54602	0	0.051574707	0.282958984	0.273681641	0.999999046	8.01E-05	-1.14E-05	0.000205994	1.289367676	7.073974609	6.842041016	0.004005432	-0.000572205	0.010299683	0.525390625	-0.4375	-0.763916016	878.06	46.27527663	-7.394844048	-36.53002212	-75
54603	0	0.051843643	0.282998085	0.274868965	0.999998093	-8.11E-05	-3.24E-05	0.000125885	1.29609108	7.074952126	6.871724129	-0.004053116	-0.001621246	0.006294251	0.527587891	-0.4375	-0.764160156	878.12	46.26015121	-7.397182935	-36.52515076	-74
54604	0	0.051524162	0.282077789	0.272433281	1	-1.72E-05	-4.86E-05	7.63E-06	1.288104057	7.051944733	6.810832024	-0.000858307	-0.00243187	0.00038147	0.527832031	-0.439697266	-0.760986328	878.18	46.25379183	-7.391052652	-36.52610515	-75
54605	0	0.051391602	0.28112793	0.273803711	0.999999046	6.87E-05	-6.39E-05	0	1.284790039	7.028198242	6.845092773	0.003433228	-0.003194809	0	0.527832031	-0.4375	-0.766845703	878.14	46.25747963	-7.385520857	-36.53582533	-74
54606	0	0.050876617	0.283301353	0.272476196	0.999999046	-2.67E-05	-3.43E-05	0.000171661	1.271915436	7.082533836	6.811904907	-0.001335144	-0.001716614	0.008583069	0.525390625	-0.4375	-0.760986328	878.2	46.24825363	-7.391857516	-36.5258161	-74
54607	0	0.051574707	0.281494141	0.275024414	0.999999046	-3.81E-05	4.77E-06	6.87E-05	1.289367676	7.037353516	6.875610352	-0.001907349	0.000238419	0.003433228	0.527832031	-0.439697266	-0.763916016	878.14	46.23829213	-7.38659566	-36.51948895	-74
54608	0	0.050634384	0.282564163	0.274557114	0.999999046	0.000178337	-2.10E-05	3.72E-05	1.265859604	7.06410408	6.863927841	0.008916855	-0.001049042	0.001859665	0.527587891	-0.4375	-0.764160156	878.2	46.2537352	-7.380744814	-36.52055413	-74
54609	0	0.051086426	0.282348633	0.273986816	0.999999046	6.87E-05	-8.68E-05	8.39E-05	1.277160645	7.05871582	6.84967041	0.003433228	-0.004339218	0.004196167	0.527832031	-0.439697266	-0.763916016	878.08	46.25684208	-7.383983875	-36.52082205	-74
54610	0	0.051792145	0.282621384	0.273999214	0.999999046	-7.63E-05	-1.53E-05	0.000102997	1.294803619	7.065534592	6.849980354	-0.003814697	-0.000762939	0.005149841	0.527587891	-0.4375	-0.761230469	878.12	46.24238829	-7.383174237	-36.513298	-75
54611	0	0.050476074	0.280334473	0.273925781	0.999999046	6.87E-05	2.00E-05	3.43E-05	1.261901855	7.008361816	6.848144531	0.003433228	0.001001358	0.001716614	0.525390625	-0.439697266	-0.760986328	878.12	46.24481141	-7.373868944	-36.50762918	-74
54612	0	0.050545692	0.282565117	0.274559975	0.999999046	0.000308037	-1.34E-05	0.000144958	1.263642311	7.064127922	6.863999367	0.015401841	-0.000667572	0.007247925	0.527832031	-0.439697266	-0.766845703	878.18	46.27388354	-7.376339229	-36.50008409	-74
54613	0	0.050598145	0.283508301	0.272521973	0.999999046	0.000175476	-5.25E-05	0.000125885	1.264953613	7.08770752	6.813049316	0.008773804	-0.002622604	0.006294251	0.527832031	-0.439697266	-0.760986328	878.18	46.28847431	-7.38031546	-36.49230409	-75
54614	0	0.050820351	0.282858849	0.273881912	0.999999046	5.34E-05	4.96E-05	0.000185966	1.270508766	7.071471214	6.847047806	0.002670288	0.002479553	0.009298325	0.530029297	-0.439697266	-0.761230469	878.2	46.28737886	-7.381177697	-36.47014489	-74
54615	0	0.051513672	0.282714844	0.272705078	0.999999046	-0.000209808	-0.000109673	0.000106812	1.287841797	7.067871094	6.817626953	-0.010490418	-0.005483627	0.005340576	0.527587891	-0.439697266	-0.758056641	878.12	46.25869341	-7.388130415	-36.46581173	-75
54616	0	0.051695824	0.282465935	0.275192261	1	2.86E-05	-4.29E-05	2.86E-06	1.292395592	7.061648369	6.879806519	0.001430511	-0.002145767	0.000143051	0.527832031	-0.439697266	-0.763916016	878.18	46.25763888	-7.381214632	-36.46939725	-74
54617	0	0.05090332	0.281005859	0.272766113	0.999999046	0.000457764	-1.43E-05	-1.53E-05	1.272583008	7.025146484	6.819152832	0.022888184	-0.000715256	-0.000762939	0.527587891	-0.439697266	-0.758056641	878.14	46.30563737	-7.370539646	-36.46777166	-75
54618	0	0.050780296	0.282784462	0.274825096	0.999999046	0.000328064	-5.34E-05	0.000209808	1.269507408	7.069611549	6.870627403	0.016403199	-0.002670288	0.010490418	0.527832031	-0.439697266	-0.760986328	878.06	46.33685446	-7.381590981	-36.45474714	-75
54619	0	0.052368164	0.282287598	0.273193359	0.999999046	0.000518799	2.38E-05	-1.14E-05	1.309204102	7.057189941	6.829833984	0.025939943	0.001192093	-0.000572205	0.525390625	-0.439697266	-0.758056641	878.14	46.39136538	-7.368263962	-36.45321687	-75
54620	0	0.050823212	0.285133362	0.27173996	0.999999046	-4.48E-05	-5.72E-06	-8.87E-05	1.270580292	7.128334045	6.793498993	-0.002241135	-0.000286102	-0.004434586	0.527832031	-0.441894531	-0.763671875	878.08	46.38252992	-7.350852877	-36.4612698	-75
54621	0	0.050354004	0.28137207	0.273193359	0.999999046	-0.000305176	-8.68E-05	9.54E-05	1.258850098	7.034301758	6.829833984	-0.015258789	-0.004339218	0.004768372	0.527832031	-0.439697266	-0.763916016	878.12	46.34279739	-7.355107411	-36.46295799	-74
