Counter	Temperature	VelInc_X	VelInc_Y	VelInc_Z	OriInc_w	OriInc_x	OriInc_y	OriInc_z	Acc_X	Acc_Y	Acc_Z	Gyr_X	Gyr_Y	Gyr_Z	Mag_X	Mag_Y	Mag_Z	Pressure	Roll	Pitch	Yaw	RSSI
17243	0	0.379150391	-0.070800781	0.072937012	0.999998093	0.00061512	0.000282288	0.00157547	9.478759766	-1.770019531	1.823425293	0.030756012	0.014114387	0.078773537	-0.623535156	-0.054199219	0.761474609	877.9	-50.00711822	-73.78688684	-130.7979538	-57
17244	0	0.37737751	-0.066105843	0.070300102	0.999998093	-0.000389099	0.000401497	0.00165081	9.434437752	-1.652646065	1.757502556	-0.019454966	0.020074855	0.082540554	-0.621337891	-0.050048828	0.758300781	877.9	-50.30179683	-73.62257159	-130.5330769	-57
17245	0	0.38659668	-0.075256348	0.06842041	0.999995232	-0.002620697	0.001011848	0.000919342	9.664916992	-1.881408691	1.710510254	-0.131035042	0.050592496	0.045967169	-0.621337891	-0.052246094	0.764160156	877.96	-50.48315007	-73.47847268	-130.6525191	-57
17246	0	0.381546974	-0.080415726	0.070238113	0.999993324	-0.003299713	0.001022339	0.000445366	9.538674355	-2.010393143	1.755952835	-0.16498599	0.051117047	0.02226834	-0.625732422	-0.056396484	0.76171875	878	-50.62233704	-73.37589299	-130.8973019	-57
17247	0	0.37322998	-0.086975098	0.071716309	0.999998093	-0.001616478	0.000473022	0.000572205	9.330749512	-2.174377441	1.792907715	-0.080823941	0.023651136	0.028610245	-0.625488281	-0.05859375	0.756347656	877.92	-50.76269323	-73.30198039	-130.9397766	-57
17248	0	0.376970291	-0.085684776	0.071369171	0.999999046	0.000494957	-4.39E-05	0.000911713	9.424257278	-2.142119408	1.784229279	0.024747853	-0.002193451	0.045585641	-0.627685547	-0.060791016	0.753662109	877.9	-50.89514761	-73.23536323	-130.7382493	-57
17249	0	0.377746582	-0.088500977	0.076965332	0.999998093	0.000370979	-0.000450134	0.001548767	9.443664551	-2.212524414	1.924133301	0.018548974	-0.022506724	0.07743839	-0.625488281	-0.060791016	0.759277344	877.9	-51.31085295	-73.14066239	-130.2552957	-57
17250	0	0.378520012	-0.088274956	0.076871872	0.999992371	0.003331184	-0.000504494	0.001764297	9.463000298	-2.206873894	1.921796799	0.166559621	-0.025224746	0.088215087	-0.627929688	-0.054199219	0.753173828	878	-51.44888226	-73.02972348	-129.7076674	-57
17251	0	0.377502441	-0.084899902	0.079101563	0.999983788	0.005241394	-0.000739098	0.001976013	9.437561035	-2.122497559	1.977539063	0.262071097	-0.036955076	0.098801185	-0.626220703	-0.045410156	0.755126953	877.94	-51.48049934	-72.91626352	-129.0417107	-57
17252	0	0.381339073	-0.078435898	0.079416275	0.999978065	0.006352425	-0.000301361	0.001842499	9.53347683	-1.960897446	1.985406876	0.317623552	-0.015068164	0.092125612	-0.626464844	-0.036621094	0.757324219	878	-51.22075527	-72.78410032	-128.5467013	-57
17253	0	0.378356934	-0.071716309	0.078491211	0.99998188	0.005760193	0.000203133	0.001365662	9.45892334	-1.792907715	1.962280273	0.288011328	0.010156691	0.06828348	-0.624755859	-0.0234375	0.759033203	877.96	-50.77030409	-72.65948674	-128.3211538	-57
17254	0	0.376672745	-0.068930626	0.077361107	0.999992371	0.003647804	0.000512123	0.00117588	9.416818619	-1.723265648	1.934027672	0.182390668	0.025606219	0.058794168	-0.625244141	-0.012451172	0.760986328	877.96	-50.42928101	-72.53036646	-128.2336833	-57
17255	0	0.376525879	-0.073547363	0.077697754	0.999998093	0.001454353	0.000492096	0.00100708	9.413146973	-1.838684082	1.942443848	0.072717707	0.024604811	0.050354032	-0.625244141	-0.008300781	0.754882813	878	-50.30541713	-72.41823857	-128.181919	-57
17256	0	0.378183365	-0.080320358	0.074213028	0.999999046	0.000462532	0.000457764	0.000655174	9.454584122	-2.008008957	1.855325699	0.023126605	0.022888187	0.032758717	-0.627929688	-0.001464844	0.757324219	878	-50.22339093	-72.34008195	-128.2050217	-57
17257	0	0.380065918	-0.084411621	0.073730469	0.999999046	0.000682831	0.000435829	0.000244141	9.501647949	-2.110290527	1.843261719	0.034141545	0.021791461	0.012207033	-0.630371094	-0.001464844	0.757568359	878	-50.0281309	-72.29999045	-128.3209391	-57
17258	0	0.375443459	-0.082418442	0.075084686	0.999999046	0.000623703	0.000175476	0.000328064	9.386086464	-2.060461044	1.877117157	0.031185153	0.008773804	0.0164032	-0.627929688	-0.001464844	0.751708984	877.92	-49.93077455	-72.27191934	-128.3413598	-57
17259	0	0.375610352	-0.087341309	0.075012207	0.999999046	0.001148224	4.77E-06	0.000488281	9.390258789	-2.183532715	1.875305176	0.057411209	0.000238419	0.024414069	-0.6328125	0.000732422	0.754638672	877.96	-49.85748087	-72.24251696	-128.2734671	-57
17260	0	0.377175331	-0.083695412	0.073741913	0.999996185	0.002561569	-9.63E-05	0.000938416	9.429383278	-2.092385292	1.843547821	0.12807862	-0.004816061	0.046920835	-0.630615234	0.005126953	0.754150391	877.9	-49.75363655	-72.18155536	-128.0675457	-57
17261	0	0.37322998	-0.078796387	0.075317383	0.999996185	0.00224781	-0.000259399	0.001369476	9.330749512	-1.969909668	1.88293457	0.112390649	-0.012969986	0.068473896	-0.630859375	0.009521484	0.75390625	877.9	-49.8276109	-72.09537467	-127.7124194	-57
17262	0	0.378048897	-0.082658768	0.077383041	0.999997139	0.001464844	-0.000240326	0.001277924	9.45122242	-2.066469193	1.934576035	0.073242234	-0.012016304	0.06389622	-0.633544922	0.018310547	0.753173828	877.92	-49.96267971	-72.01591948	-127.3867101	-58
17263	0	0.377990723	-0.079223633	0.076049805	0.999998093	0.001477242	-0.000343323	0.001075745	9.449768066	-1.98059082	1.901245117	0.073862118	-0.017166148	0.053787262	-0.631347656	0.018310547	0.758789063	877.96	-50.07593807	-71.96207623	-127.0825844	-57
17264	0	0.377449036	-0.077433586	0.075162888	0.999998093	0.000797272	-0.000346184	0.001274109	9.436225891	-1.935839653	1.879072189	0.039863602	-0.017309196	0.06370547	-0.631103516	0.020507813	0.752929688	877.94	-50.31013818	-71.89127737	-126.7330457	-58
17265	0	0.378540039	-0.079223633	0.07623291	0.999998093	-0.000823021	-0.000202179	0.001110077	9.463500977	-1.98059082	1.905822754	-0.04115106	-0.010108951	0.055503863	-0.631347656	0.024902344	0.752685547	877.96	-50.65138622	-71.82443266	-126.4655164	-57
17266	0	0.377529144	-0.08513546	0.078259468	0.999999046	-0.000993729	-0.000190735	0.000862122	9.438228607	-2.128386497	1.956486702	-0.049686447	-0.009536746	0.043106092	-0.629150391	0.024902344	0.752441406	877.96	-50.95190164	-71.77851696	-126.261362	-58
17267	0	0.378112793	-0.08605957	0.07611084	0.999999046	-3.81E-06	-0.000113487	0.000465393	9.452819824	-2.151489258	1.902770996	-0.000190735	-0.005674362	0.023269654	-0.631347656	0.024902344	0.755371094	877.96	-51.03010098	-71.76240237	-126.1719291	-58
17268	0	0.376646996	-0.084641457	0.075046539	0.999999046	0.0002985	7.44E-05	0.000472069	9.416174889	-2.116036415	1.876163483	0.014925004	0.00371933	0.023603441	-0.631591797	0.027099609	0.755371094	877.9	-51.02391471	-71.73245811	-126.1347278	-58
17269	0	0.377685547	-0.08581543	0.076599121	0.999999046	0.000598907	-9.06E-05	0.000301361	9.442138672	-2.145385742	1.914978027	0.029945376	-0.004529953	0.015068055	-0.631591797	0.027099609	0.758056641	877.96	-50.9901748	-71.72987191	-126.0903649	-58
17270	0	0.379355431	-0.086503983	0.075228691	0.999999046	0.000898361	-0.000131607	0.000102043	9.483885765	-2.162599564	1.880717278	0.044918067	-0.006580354	0.005102158	-0.629150391	0.027099609	0.752197266	877.9	-50.88951438	-71.74829203	-126.0804736	-58
17271	0	0.379516602	-0.083312988	0.07635498	0.999999046	0.000232697	7.72E-05	-0.000640869	9.487915039	-2.082824707	1.908874512	0.011634828	0.003862381	-0.03204346	-0.631591797	0.029296875	0.755126953	877.94	-50.64451223	-71.81788774	-126.302424	-58
17272	0	0.376439095	-0.084870338	0.07797718	0.999999046	3.91E-05	6.29E-05	-0.000794411	9.410977364	-2.121758461	1.949429512	0.001955033	0.003147126	-0.039720539	-0.631591797	0.029296875	0.758056641	877.94	-50.38900554	-71.9019657	-126.5585419	-58
17273	0	0.375610352	-0.086730957	0.077026367	0.999999046	9.92E-05	0.000115395	-0.000988007	9.390258789	-2.168273926	1.92565918	0.004959107	0.005769731	-0.049400338	-0.634033203	0.029541016	0.758056641	877.92	-50.0661726	-71.99892114	-126.8781147	-57
17274	0	0.375947952	-0.087194443	0.076824188	0.999999046	0.000598907	-8.39E-05	-0.000762939	9.398698807	-2.179861069	1.920604706	0.029945378	-0.004196168	-0.038146979	-0.629150391	0.027099609	0.752197266	877.9	-49.78808182	-72.0903619	-127.0906046	-57
17275	0	0.376098633	-0.086547852	0.075805664	0.999999046	0.001163483	3.53E-05	-0.000728607	9.40246582	-2.163696289	1.895141602	0.058174152	0.001764298	-0.03643037	-0.631591797	0.027099609	0.755371094	877.96	-49.41859654	-72.16965305	-127.3311227	-57
17276	0	0.37591362	-0.086191177	0.075422287	0.999999046	0.000699043	-6.29E-05	-0.000541687	9.3978405	-2.154779434	1.885557175	0.034952168	-0.003147126	-0.027084354	-0.631591797	0.027099609	0.758056641	877.96	-49.17051236	-72.23971419	-127.4999476	-57
17277	0	0.374755859	-0.085510254	0.07611084	0.999999046	0.000473022	-2.57E-05	-0.000175476	9.368896484	-2.137756348	1.902770996	0.023651124	-0.00128746	-0.008773804	-0.631591797	0.029296875	0.758056641	878	-49.02319989	-72.27511078	-127.5899831	-57
17278	0	0.375095367	-0.086894035	0.076416969	0.999999046	0.000289917	-0.000137329	2.67E-05	9.377384186	-2.172350883	1.910424232	0.01449585	-0.006866455	0.001335144	-0.633789063	0.02734375	0.755371094	878.08	-48.97482057	-72.30131862	-127.5986617	-57
17279	0	0.376953125	-0.090515137	0.077819824	0.999998093	0.001877785	-9.16E-05	2.29E-05	9.423828125	-2.262878418	1.945495605	0.093889292	-0.004577639	0.00114441	-0.631591797	0.029296875	0.752197266	877.9	-48.73172952	-72.32420425	-127.6207957	-57
17280	0	0.375497818	-0.08316803	0.076048851	0.999994278	0.003089905	-0.000208855	0.00019455	9.38744545	-2.079200745	1.901221275	0.154495487	-0.010442751	0.009727494	-0.631835938	0.033691406	0.754638672	877.92	-48.42218181	-72.34132258	-127.5668766	-58
17281	0	0.375183105	-0.081176758	0.07409668	0.999996185	0.002678871	-0.000217438	0.000495911	9.379577637	-2.029418945	1.852416992	0.133943724	-0.010871901	0.024795563	-0.632080078	0.038085938	0.760009766	877.96	-48.23439108	-72.3336193	-127.4346144	-58
17282	0	0.374707222	-0.081817627	0.0753479	0.999997139	0.002113342	-8.39E-05	0.000605583	9.36768055	-2.045440674	1.88369751	0.105667199	-0.00419617	0.030279184	-0.629882813	0.044677734	0.753662109	877.9	-48.10227351	-72.30662901	-127.3117323	-58
17283	0	0.377441406	-0.079650879	0.076965332	0.999998093	0.001530647	-0.000156403	0.000301361	9.436035156	-1.991271973	1.924133301	0.076532395	-0.007820133	0.01506806	-0.632324219	0.046875	0.756591797	877.9	-47.98328691	-72.31143359	-127.2453452	-58
17284	0	0.375768661	-0.080741882	0.076849937	0.999999046	0.000760078	-0.000114441	0.000350952	9.394216537	-2.018547058	1.921248436	0.038003926	-0.005722047	0.01754761	-0.635009766	0.049316406	0.759277344	877.96	-47.95341012	-72.30898273	-127.1780984	-58
17285	0	0.378601074	-0.08203125	0.077270508	0.999999046	0.000606537	-1.43E-05	-1.14E-05	9.465026855	-2.05078125	1.931762695	0.030326845	-0.000715256	-0.000572205	-0.630126953	0.051269531	0.750244141	878.02	-47.82727305	-72.32980646	-127.2302809	-58
17286	0	0.374698639	-0.08058548	0.078271866	0.999999046	-0.000162125	8.01E-05	1.43E-05	9.367465973	-2.014636993	1.956796646	-0.008106232	0.004005432	0.000715256	-0.630126953	0.051269531	0.753173828	877.88	-47.77000051	-72.34122712	-127.302656	-58
17287	0	0.376281738	-0.084106445	0.078125	0.999999046	0.000247955	4.29E-05	0.000263214	9.407043457	-2.102661133	1.953125	0.012397766	0.002145767	0.013160706	-0.632568359	0.051269531	0.753417969	877.94	-47.73615008	-72.33435289	-127.3013899	-58
17288	0	0.37879467	-0.083168983	0.078136444	0.999999046	0.001072884	0.000104904	0.00038147	9.469866753	-2.079224586	1.953411102	0.053644192	0.00524521	0.01907349	-0.632568359	0.053466797	0.756103516	878	-47.62019665	-72.31273114	-127.2870556	-59
17289	0	0.375976563	-0.077514648	0.078063965	0.999999046	0.000324249	0.000401497	0.000556946	9.399414063	-1.937866211	1.951599121	0.016212465	0.020074846	0.027847293	-0.632568359	0.055664063	0.75	878.02	-47.55366139	-72.25356932	-127.3107626	-58
17290	0	0.377655029	-0.079776764	0.079882622	0.999999046	-0.000585556	0.000415802	0.000632286	9.441375732	-1.994419098	1.997065544	-0.029277806	0.020790103	0.031614308	-0.6328125	0.055664063	0.752929688	877.96	-47.60554141	-72.18704098	-127.3195596	-59
17291	0	0.37487793	-0.08001709	0.08001709	0.999999046	-0.00069046	0.00048542	0.000514984	9.371948242	-2.000427246	2.000427246	-0.034523016	0.024271015	0.025749211	-0.632568359	0.053466797	0.753173828	877.92	-47.62253201	-72.12513678	-127.3777929	-59
17292	0	0.37563324	-0.0809412	0.079048157	0.999999046	-0.0011549	0.000465393	0.000426292	9.390830994	-2.023530006	1.976203918	-0.057744997	0.02326966	0.021314627	-0.635009766	0.053466797	0.750488281	878	-47.67670467	-72.07239905	-127.4527404	-58
17293	0	0.377380371	-0.08380127	0.079223633	0.999998093	-0.001372337	0.00030899	0.00019455	9.434509277	-2.095031738	1.98059082	-0.06861689	0.015449529	0.009727481	-0.635009766	0.053466797	0.750488281	878.02	-47.74163406	-72.05141869	-127.542423	-59
17294	0	0.376749039	-0.083922386	0.079469681	0.999999046	-0.00097847	0.00028038	0.000175476	9.418725967	-2.098059654	1.98674202	-0.048923501	0.014019015	0.008773805	-0.635009766	0.051269531	0.753417969	878.06	-47.76449662	-72.03429651	-127.6291162	-59
17295	0	0.375854492	-0.084594727	0.080505371	0.999999046	-0.000659943	0.000206947	1.14E-05	9.396362305	-2.114868164	2.012634277	-0.032997134	0.010347367	0.000572205	-0.637207031	0.051513672	0.747802734	878.02	-47.73115111	-72.03669527	-127.7365166	-59
17296	0	0.376246452	-0.08336544	0.079329491	0.999999046	-0.000821114	0.000211716	3.34E-05	9.406161308	-2.084136009	1.983237267	-0.041055684	0.010585786	0.00166893	-0.634521484	0.046875	0.748046875	877.94	-47.72028124	-72.03689617	-127.8400656	-60
17297	0	0.374755859	-0.082946777	0.08026123	0.999999046	-0.000812531	0.000123024	-2.29E-05	9.368896484	-2.073669434	2.006530762	-0.04062653	0.0061512	-0.001144409	-0.639404297	0.047119141	0.748291016	878.02	-47.71808509	-72.04870276	-127.9332439	-59
17298	0	0.377669334	-0.082817078	0.080889702	0.999999046	-0.001024246	7.82E-05	1.05E-05	9.44173336	-2.070426941	2.022242546	-0.05121232	0.003910065	0.000524521	-0.636962891	0.049316406	0.745117188	877.88	-47.75955447	-72.06116907	-128.0055051	-59
17299	0	0.378051758	-0.085754395	0.081542969	0.999997139	-0.001918793	0.000145912	-0.000579834	9.451293945	-2.143859863	2.038574219	-0.095939701	0.007295613	-0.028991719	-0.636962891	0.044921875	0.751220703	877.98	-47.74488461	-72.11839166	-128.2447764	-60
17300	0	0.374222755	-0.087408066	0.082535744	0.999999046	-0.000769615	3.81E-05	-0.000634193	9.355568886	-2.185201645	2.063393593	-0.038480765	0.001907349	-0.031709676	-0.639160156	0.040527344	0.751708984	877.96	-47.61283108	-72.18816366	-128.4693719	-60
17301	0	0.374511719	-0.087463379	0.08190918	0.999999046	0.00030899	-7.53E-05	-0.000488281	9.362792969	-2.186584473	2.047729492	0.015449525	-0.003767014	-0.024414064	-0.639160156	0.040527344	0.751708984	878.02	-47.42108437	-72.25393592	-128.6266607	-60
17302	0	0.375402451	-0.087169647	0.080989838	0.999999046	0.00122261	-3.05E-05	-0.000237465	9.385061264	-2.17924118	2.024745941	0.061130539	-0.001525879	-0.011873248	-0.638916016	0.038330078	0.751953125	877.9	-47.17303455	-72.29471226	-128.7335329	-60
17303	0	0.375	-0.08215332	0.078918457	0.999998093	0.001400948	-9.92E-05	0.000102997	9.375	-2.053833008	1.972961426	0.070047402	-0.004959108	0.005149843	-0.63671875	0.040527344	0.748779297	877.9	-47.00549017	-72.31218776	-128.7342017	-59
17304	0	0.374937057	-0.083842278	0.078590393	0.999999046	0.000794411	-0.000198364	0.000339508	9.373426437	-2.096056938	1.964759827	0.03972054	-0.009918214	0.016975405	-0.639160156	0.042724609	0.751464844	878	-46.99195648	-72.31756952	-128.6461568	-59
17305	0	0.375366211	-0.082702637	0.078918457	0.999999046	0.00063324	-0.00032711	0.000370026	9.384155273	-2.067565918	1.972961426	0.031661991	-0.016355516	0.018501284	-0.63671875	0.042724609	0.748535156	877.88	-47.03864537	-72.3304521	-128.5144654	-60
17306	0	0.375296593	-0.080683708	0.078468323	0.999999046	0.000143051	-0.000324249	0.000225067	9.382414818	-2.017092705	1.961708069	0.007152558	-0.016212464	0.011253357	-0.636962891	0.044921875	0.748291016	877.9	-47.10551786	-72.35532032	-128.4203368	-60
17307	0	0.377441406	-0.083679199	0.078979492	0.999999046	-0.000301361	-0.000388145	0.000125885	9.436035156	-2.09197998	1.974487305	-0.015068055	-0.019407273	0.006294251	-0.636962891	0.044921875	0.751220703	877.9	-47.21653833	-72.39343543	-128.333434	-60
17308	0	0.377116203	-0.081809044	0.079612732	0.999999046	-0.000290871	-0.000270844	-1.91E-05	9.427905083	-2.045226097	1.990318298	-0.014543534	-0.013542176	-0.000953674	-0.636962891	0.044921875	0.751220703	878	-47.25998974	-72.43458841	-128.3161962	-59
17309	0	0.376098633	-0.080688477	0.08001709	0.999999046	-0.000396729	-0.000281334	0.000175476	9.40246582	-2.017211914	2.000427246	-0.019836427	-0.014066697	0.008773804	-0.634521484	0.044677734	0.75390625	877.96	-47.36614491	-72.46016228	-128.2458672	-60
17310	0	0.376297951	-0.081129074	0.080471992	0.999999046	-0.000740051	-3.43E-05	5.72E-05	9.407448769	-2.028226852	2.011799812	-0.037002567	-0.001716614	0.002861023	-0.63671875	0.042724609	0.748535156	877.96	-47.41659575	-72.47647978	-128.2754635	-60
17311	0	0.375732422	-0.084777832	0.08013916	0.999999046	-0.000461578	-0.000124931	-0.000106812	9.393310547	-2.119445801	2.003479004	-0.023078919	-0.006246567	-0.005340576	-0.634521484	0.042480469	0.754150391	878	-47.41921175	-72.51349213	-128.3215569	-59
17312	0	0.380347252	-0.085805893	0.077339172	0.999999046	-0.000229836	6.87E-05	-0.000362396	9.508681297	-2.145147324	1.933479309	-0.011491776	0.003433228	-0.018119813	-0.634277344	0.040283203	0.751464844	877.94	-47.28076804	-72.55694528	-128.4880119	-60
17313	0	0.37487793	-0.08380127	0.079345703	0.999999046	0.000171661	-2.86E-06	-0.000469208	9.371948242	-2.095031738	1.983642578	0.008583069	-0.000143051	-0.023460389	-0.634277344	0.040283203	0.748535156	877.9	-47.08830459	-72.61465915	-128.6627688	-60
17314	0	0.375811577	-0.084276199	0.079493523	0.999999046	0.000198364	-5.72E-05	7.63E-05	9.395289421	-2.106904984	1.987338066	0.009918213	-0.002861023	0.003814697	-0.63671875	0.038330078	0.754638672	878.02	-47.04300799	-72.63057681	-128.6803925	-59
17315	0	0.376647949	-0.083740234	0.078552246	0.999999046	0.000347137	3.91E-05	2.29E-05	9.41619873	-2.093505859	1.963806152	0.017356873	0.001955032	0.001144409	-0.634277344	0.040283203	0.748535156	877.96	-46.94184018	-72.64333375	-128.7384234	-59
17316	0	0.376027107	-0.083642006	0.079126358	0.999999046	0.000220299	0.000164032	0.000277519	9.400677681	-2.091050148	1.978158951	0.011014939	0.008201599	0.013875962	-0.63671875	0.040527344	0.751708984	877.9	-46.88582974	-72.62484996	-128.7645316	-59
17317	0	0.37713623	-0.082702637	0.078491211	0.999999046	0.000453949	7.72E-05	0.000350952	9.428405762	-2.067565918	1.962280273	0.02269745	0.003862381	0.017547608	-0.636962891	0.042724609	0.754394531	877.9	-46.84502839	-72.60697355	-128.7465415	-60
17318	0	0.375846863	-0.079416275	0.078558922	0.999999046	-1.53E-05	0.00012207	9.44E-05	9.39617157	-1.985406876	1.963973045	-0.000762939	0.006103516	0.004720688	-0.634521484	0.044677734	0.748291016	877.96	-46.78180171	-72.60707827	-128.8082342	-59
17319	0	0.376281738	-0.079833984	0.078857422	0.999999046	-0.000419617	-7.15E-05	0.000236511	9.407043457	-1.995849609	1.971435547	-0.020980836	-0.003576279	0.011825562	-0.63671875	0.042724609	0.748535156	878.06	-46.85208831	-72.61052559	-128.7789628	-59
17320	0	0.376558304	-0.082824707	0.078000069	0.999999046	-0.000576973	-0.000125885	-2.77E-05	9.413957596	-2.070617676	1.950001717	-0.02884865	-0.006294251	-0.001382828	-0.634277344	0.040283203	0.751464844	877.9	-46.88921567	-72.64027053	-128.8034299	-59
17321	0	0.377807617	-0.082824707	0.079345703	0.999999046	-0.000232697	-0.000288963	-0.000179291	9.44519043	-2.070617676	1.983642578	-0.011634827	-0.014448166	-0.008964539	-0.634521484	0.040527344	0.757080078	878	-46.89272085	-72.6953945	-128.8216337	-59
17322	0	0.376905441	-0.079797745	0.079638481	0.999999046	-0.000143051	-0.000171661	-0.000270844	9.422636032	-1.994943619	1.990962029	-0.007152558	-0.008583069	-0.013542176	-0.63671875	0.038330078	0.751708984	878.02	-46.83100756	-72.74896949	-128.897663	-60
17323	0	0.37487793	-0.081970215	0.079833984	0.999999046	-0.000404358	-3.34E-05	-0.000347137	9.371948242	-2.049255371	1.995849609	-0.020217896	-0.00166893	-0.017356873	-0.634521484	0.040283203	0.754394531	877.92	-46.74227753	-72.79789056	-129.0327837	-60
17324	0	0.378969193	-0.083725929	0.080166817	0.999999046	-0.000308037	-8.01E-05	-0.000325203	9.474229813	-2.093148232	2.004170418	-0.015401841	-0.004005432	-0.016260148	-0.634277344	0.038085938	0.745849609	878.02	-46.66031161	-72.84842252	-129.14965	-59
17325	0	0.377258301	-0.082275391	0.079833984	0.999999046	-0.000236511	1.62E-05	-9.92E-05	9.43145752	-2.056884766	1.995849609	-0.011825562	0.000810623	-0.004959106	-0.636474609	0.038330078	0.74609375	877.96	-46.60148891	-72.87235723	-129.2336491	-60
17326	0	0.37873745	-0.085718155	0.080903053	0.999999046	-0.000333786	6.48E-05	-0.000247955	9.468436241	-2.142953873	2.022576332	-0.016689301	0.003242493	-0.012397766	-0.634033203	0.035888672	0.749023438	878	-46.50278633	-72.904513	-129.3711871	-59
17327	0	0.37286377	-0.083557129	0.082275391	0.999999046	0.001091003	0.000100136	6.48E-05	9.321594238	-2.088928223	2.056884766	0.054550182	0.005006791	0.003242493	-0.634033203	0.035888672	0.749023438	877.9	-46.31132525	-72.90747201	-129.4350776	-59
17328	0	0.376010895	-0.080136299	0.080204964	0.999998093	0.001836777	3.15E-05	0.000358582	9.400272369	-2.003407478	2.005124092	0.09183889	0.001573564	0.017929088	-0.634277344	0.038085938	0.748779297	877.94	-46.12860599	-72.89142535	-129.400403	-59
17329	0	0.378417969	-0.078979492	0.08026123	0.999999046	0.001125336	0.000382423	0.000293732	9.460449219	-1.974487305	2.006530762	0.056266799	0.019121175	0.014686588	-0.63671875	0.042724609	0.748535156	878.02	-45.91683965	-72.85283389	-129.4810744	-59
17330	0	0.376112938	-0.078655243	0.080114365	0.999999046	0.000635147	0.00025177	0.00026989	9.402823448	-1.966381073	2.002859116	0.031757358	0.012588502	0.013494493	-0.63671875	0.042724609	0.751464844	877.96	-45.79038195	-72.82654702	-129.531451	-59
17331	0	0.374938965	-0.078430176	0.078918457	0.999999046	0.000297546	0.000229836	0.000461578	9.373474121	-1.960754395	1.972961426	0.01487732	0.011491776	0.02307892	-0.634521484	0.042480469	0.748535156	877.9	-45.75829453	-72.78627635	-129.5236371	-59
17332	0	0.37531662	-0.080195427	0.07828331	0.999999046	-7.72E-05	-8.01E-05	0.000385284	9.382915497	-2.004885674	1.957082748	-0.003862381	-0.004005432	0.019264222	-0.63671875	0.042724609	0.745605469	877.96	-45.83200398	-72.77703607	-129.450103	-59
17333	0	0.378356934	-0.081970215	0.079589844	0.999999046	0.000160217	-0.00032711	3.43E-05	9.45892334	-2.049255371	1.989746094	0.008010864	-0.016355515	0.001716614	-0.634521484	0.044677734	0.748291016	877.92	-45.8540737	-72.81628999	-129.4019132	-59
17334	0	0.376694679	-0.078003883	0.079732895	0.999999046	-0.000131607	-0.000276566	-0.000133514	9.417366982	-1.950097084	1.993322372	-0.006580353	-0.013828278	-0.00667572	-0.634765625	0.046875	0.750976563	877.9	-45.85279025	-72.86534793	-129.4130063	-58
17335	0	0.375610352	-0.079162598	0.07989502	0.999999046	-0.000556946	-0.000384331	5.72E-05	9.390258789	-1.979064941	1.997375488	-0.027847292	-0.019216539	0.002861023	-0.634521484	0.044677734	0.748291016	877.9	-45.9785977	-72.90725554	-129.3425048	-58
17336	0	0.376456261	-0.082897186	0.080672264	0.999999046	-0.000184059	-0.000501633	2.19E-05	9.411406517	-2.072429657	2.016806602	-0.009202958	-0.025081636	0.001096726	-0.634277344	0.040283203	0.751464844	877.9	-46.08485082	-72.96115816	-129.24824	-58
17337	0	0.377075195	-0.082214355	0.079223633	0.999999046	0.000682831	-0.000433922	-0.000137329	9.426879883	-2.055358887	1.98059082	0.034141544	-0.021696093	-0.006866456	-0.632080078	0.040283203	0.754150391	878	-46.03291932	-73.0226742	-129.2153956	-58
17338	0	0.376249313	-0.079563141	0.078516006	0.999999046	0.000242233	-0.000257492	-0.000198364	9.406232834	-1.989078522	1.962900162	0.012111664	-0.012874604	-0.009918213	-0.632080078	0.042480469	0.751220703	877.9	-45.96791925	-73.07514577	-129.248723	-58
17339	0	0.376708984	-0.081115723	0.077697754	0.999999046	-0.000347137	-0.000445366	4.96E-05	9.417724609	-2.027893066	1.942443848	-0.017356873	-0.022268296	0.002479553	-0.632080078	0.042480469	0.748291016	877.88	-46.08683988	-73.12203805	-129.1605146	-58
17340	0	0.379151344	-0.081880569	0.078949928	0.999999046	0.000121117	-0.000366211	-0.000199318	9.478783607	-2.047014236	1.973748207	0.006055832	-0.018310547	-0.009965897	-0.629638672	0.040283203	0.751220703	877.96	-46.06596862	-73.18302847	-129.1625713	-57
17341	0	0.37701416	-0.078674316	0.078430176	0.999999046	-0.000576019	-0.000319481	-0.000183105	9.425354004	-1.96685791	1.960754395	-0.028800967	-0.015974046	-0.009155274	-0.627441406	0.040039063	0.751220703	878.06	-46.11653111	-73.23891599	-129.173274	-57
17342	0	0.376422882	-0.081558228	0.079376221	0.999999046	-0.000478745	-0.00044632	-0.000287056	9.410572052	-2.038955688	1.984405518	-0.023937227	-0.022315981	-0.0143528	-0.627197266	0.038085938	0.754150391	877.94	-46.16369706	-73.31325003	-129.176038	-57
17343	0	0.375671387	-0.078918457	0.079101563	0.999999046	6.10E-05	-0.000185966	-0.000396729	9.391784668	-1.972961426	1.977539063	0.003051758	-0.009298325	-0.019836426	-0.627197266	0.035888672	0.754394531	878.02	-46.04777977	-73.3758128	-129.284619	-57
17344	0	0.376375198	-0.080685616	0.079275131	0.999999046	-0.000912666	-9.73E-05	-0.000545502	9.409379959	-2.017140388	1.981878281	-0.045633325	-0.00486374	-0.027275091	-0.629638672	0.035888672	0.757324219	877.96	-45.97853801	-73.44331196	-129.4606285	-57
17345	0	0.377990723	-0.085876465	0.079101563	0.999999046	-0.000938416	-0.000166893	-0.000457764	9.449768066	-2.146911621	1.977539063	-0.046920785	-0.008344652	-0.022888188	-0.626953125	0.031494141	0.754638672	877.96	-45.95507158	-73.50868901	-129.5922645	-57
17346	0	0.375427246	-0.082885742	0.078735352	0.999999046	-0.000488281	-7.25E-05	-0.000183105	9.385681152	-2.072143555	1.968383789	-0.024414064	-0.003623963	-0.009155274	-0.626953125	0.031494141	0.757568359	877.96	-45.92774484	-73.54358114	-129.6739646	-57
17347	0	0.376281738	-0.08380127	0.07800293	0.999999046	-0.000240326	0.000134468	0.000400543	9.407043457	-2.095031738	1.950073242	-0.012016297	0.006723404	0.020027161	-0.626953125	0.03125	0.751708984	877.98	-45.97237253	-73.51359578	-129.6511838	-57
17348	0	0.377472878	-0.085607529	0.079648972	0.999999046	0.000515938	0.000326157	0.000606537	9.436821938	-2.140188217	1.991224289	0.025796893	0.016307833	0.030326847	-0.624755859	0.03125	0.754638672	877.96	-45.93310102	-73.45096766	-129.6256393	-57
17349	0	0.375671387	-0.081420898	0.078735352	0.999999046	0.001003265	0.000329018	0.000572205	9.391784668	-2.035522461	1.968383789	0.050163281	0.016450886	0.028610236	-0.626953125	0.033447266	0.751708984	878	-45.82849715	-73.39073171	-129.6100241	-57
17350	0	0.376444817	-0.078519821	0.079077721	0.999999046	0.000505447	0.000247955	0.00077343	9.411120415	-1.962995529	1.976943016	0.025272373	0.012397768	0.038671499	-0.626953125	0.033447266	0.751708984	877.9	-45.85698204	-73.32034338	-129.5151314	-57
17351	0	0.378967285	-0.077087402	0.079772949	0.999999046	0.000297546	0.000210762	0.000408173	9.474182129	-1.927185059	1.99432373	0.01487732	0.010538102	0.020408631	-0.629394531	0.035888672	0.748779297	877.96	-45.82163858	-73.28295909	-129.5115069	-57
17352	0	0.378810883	-0.075579643	0.079304695	0.999999046	-0.000277519	0.000461578	0.000353813	9.470272064	-1.889491081	1.982617378	-0.013875962	0.02307892	0.01769066	-0.629638672	0.038085938	0.754150391	878.06	-45.76889061	-73.23008606	-129.5945826	-57
17353	0	0.377929688	-0.08026123	0.079162598	0.999999046	-0.000782013	0.000416756	1.53E-05	9.448242188	-2.006530762	1.979064941	-0.039100652	0.020837787	0.00076294	-0.629638672	0.038085938	0.751464844	878.02	-45.69688358	-73.20847581	-129.7582309	-57
17354	0	0.374627113	-0.079357147	0.078128815	0.999999046	-0.001188278	0.000513077	0.00014782	9.365677834	-1.98392868	1.953220367	-0.059413927	0.025653846	0.007390978	-0.629394531	0.035888672	0.751464844	878.02	-45.68095279	-73.16819714	-129.9121312	-57
17355	0	0.375854492	-0.083435059	0.078796387	0.999996185	-0.002425194	0.000652313	0.000286102	9.396362305	-2.085876465	1.969909668	-0.121259818	0.032615696	0.01430513	-0.631591797	0.031494141	0.751953125	877.92	-45.80647746	-73.10528643	-130.0665837	-57
17356	0	0.377103806	-0.08812809	0.079838753	0.999998093	-0.001607895	0.000571251	0.000583649	9.427595139	-2.203202248	1.995968819	-0.080394788	0.028562561	0.02918245	-0.631591797	0.029296875	0.749267578	877.96	-45.93937514	-73.02412265	-130.1155902	-57
17357	0	0.375488281	-0.086242676	0.08013916	0.999999046	-0.000621796	0.000508308	0.000907898	9.387207031	-2.156066895	2.003479004	-0.03108979	0.025415427	0.045394909	-0.631591797	0.029296875	0.749267578	878.06	-46.0608212	-72.92100136	-130.0584445	-57
17358	0	0.376594543	-0.085927963	0.080109596	0.999999046	0.000116348	0.0004673	0.000926971	9.414863586	-2.148199081	2.002739906	0.005817414	0.023365025	0.04634858	-0.633789063	0.029296875	0.749511719	878.02	-46.11330018	-72.81934483	-129.9851101	-58
17359	0	0.375976563	-0.082275391	0.080993652	0.999999046	0.000335693	0.000546455	0.000957489	9.399414063	-2.056884766	2.024841309	0.016784672	0.027322775	0.047874461	-0.634033203	0.031494141	0.749267578	877.96	-46.12672434	-72.70880771	-129.9261601	-57
17360	0	0.37512207	-0.081964493	0.08041954	0.999999046	0.000517845	0.000371933	0.000770569	9.378051758	-2.04911232	2.01048851	0.025892262	0.018596652	0.038528449	-0.636474609	0.033935547	0.746337891	877.96	-46.11757382	-72.62757012	-129.8689501	-57
17361	0	0.376037598	-0.082519531	0.078918457	0.999999046	0.000747681	0.000256538	0.00062561	9.400939941	-2.062988281	1.972961426	0.03738404	0.012826922	0.031280523	-0.636230469	0.031738281	0.749511719	878	-46.07589692	-72.56755234	-129.8185668	-57
17362	0	0.376690865	-0.079271317	0.080021858	0.999999046	-0.000305176	0.000312805	0.000281334	9.417271614	-1.981782913	2.000546455	-0.01525879	0.015640259	0.014066697	-0.634033203	0.035888672	0.749023438	877.96	-46.05273697	-72.5316596	-129.8745697	-57
17363	0	0.375	-0.083618164	0.081115723	0.999999046	-0.001033783	0.000397682	0.000221252	9.375	-2.090454102	2.027893066	-0.051689159	0.019884114	0.011062624	-0.638671875	0.033935547	0.746582031	877.96	-46.07592433	-72.49394099	-129.9698694	-57
17364	0	0.374957085	-0.085175514	0.082518578	0.999999046	-0.000750542	9.16E-05	-4.67E-05	9.373927116	-2.129387856	2.062964439	-0.037527088	0.004577637	-0.002336502	-0.638671875	0.033935547	0.746582031	878.08	-46.07940645	-72.50255654	-130.0516971	-57
17365	0	0.375854492	-0.083496094	0.081420898	0.999999046	-0.000888824	0.000237465	-1.14E-05	9.396362305	-2.087402344	2.035522461	-0.044441229	0.011873247	-0.000572205	-0.636230469	0.031738281	0.746582031	878	-46.06948547	-72.49664537	-130.1642815	-57
17366	0	0.375023842	-0.087660789	0.081319809	0.999999046	-0.000991821	-1.53E-05	-0.00011158	9.375596046	-2.191519737	2.032995224	-0.049591073	-0.00076294	-0.005578996	-0.636230469	0.029296875	0.743896484	878.06	-46.11282966	-72.51892574	-130.23356	-57
17367	0	0.375305176	-0.086425781	0.08215332	0.999999046	4.20E-05	-0.000224113	5.72E-05	9.382629395	-2.160644531	2.053833008	0.002098084	-0.011205673	0.002861023	-0.636230469	0.029296875	0.743896484	878	-46.13537807	-72.54371192	-130.2004477	-57
17368	0	0.374720573	-0.086156845	0.081197739	0.999999046	4.10E-05	-0.000177383	-0.000237465	9.368014336	-2.153921127	2.029943466	0.0020504	-0.008869171	-0.011873245	-0.638427734	0.029541016	0.743896484	878.06	-46.07161018	-72.58900194	-130.2579418	-57
17369	0	0.375854492	-0.086181641	0.081054688	0.999999046	0.000175476	-0.000235558	-9.54E-05	9.396362305	-2.154541016	2.026367188	0.008773804	-0.011777878	-0.004768372	-0.633789063	0.029296875	0.746582031	878	-46.04399513	-72.62706839	-130.2613548	-57
17370	0	0.373954773	-0.083885193	0.080357552	0.999999046	-0.000267029	-0.000131607	0.000110626	9.348869324	-2.097129822	2.008938789	-0.013351441	-0.006580353	0.005531311	-0.638671875	0.029541016	0.749755859	878	-46.09226567	-72.63982486	-130.238468	-57
17371	0	0.375366211	-0.088928223	0.080871582	0.999999046	-0.000473022	-0.000235558	9.16E-05	9.384155273	-2.223205566	2.021789551	-0.023651124	-0.011777878	0.004577637	-0.633544922	0.024902344	0.747070313	877.9	-46.18760186	-72.66217608	-130.1913864	-57
17372	0	0.374289513	-0.086204529	0.080429077	0.999999046	8.30E-05	-0.000326157	6.68E-06	9.357237816	-2.15511322	2.010726929	0.004148483	-0.016307831	0.000333786	-0.638427734	0.029541016	0.746826172	877.96	-46.22225266	-72.69858582	-130.1407052	-57
17373	0	0.374511719	-0.084899902	0.079467773	0.999999046	-0.000247955	-0.00026989	3.81E-05	9.362792969	-2.122497559	1.986694336	-0.012397766	-0.013494492	0.001907349	-0.635986328	0.02734375	0.746826172	877.96	-46.28842972	-72.72786045	-130.0970051	-57
17374	0	0.376685143	-0.087960243	0.081478119	0.999999046	-0.000230789	-0.000366211	1.81E-05	9.417128563	-2.199006081	2.036952972	-0.01153946	-0.018310547	0.000905991	-0.633789063	0.027099609	0.749755859	877.92	-46.37389738	-72.76618709	-130.0310104	-57
17375	0	0.375915527	-0.08416748	0.079772949	0.999999046	9.92E-05	-0.000304222	0.000156403	9.397888184	-2.104187012	1.99432373	0.004959107	-0.015211106	0.00782013	-0.633789063	0.024902344	0.752685547	877.92	-46.44064278	-72.78807513	-129.9452983	-57
17376	0	0.374655724	-0.084147453	0.080536842	0.999999046	-0.000401497	-0.000305176	6.48E-05	9.366393089	-2.103686333	2.013421059	-0.020074845	-0.01525879	0.003242493	-0.633789063	0.027099609	0.749755859	877.98	-46.54194429	-72.81752119	-129.8831596	-57
17377	0	0.375488281	-0.086608887	0.080444336	0.999999046	-0.000125885	-0.000441551	-0.000167847	9.387207031	-2.165222168	2.011108398	-0.006294251	-0.022077561	-0.008392334	-0.633789063	0.024902344	0.749755859	877.88	-46.58961913	-72.87688013	-129.844396	-57
17378	0	0.375279427	-0.081803322	0.078565598	0.999999046	-0.000310898	-0.000162125	-0.000232697	9.381985664	-2.045083046	1.964139938	-0.015544892	-0.008106232	-0.011634827	-0.631347656	0.022705078	0.752685547	877.94	-46.56639594	-72.91967151	-129.9019912	-57
17379	0	0.380493164	-0.085632324	0.079345703	0.999999046	-0.00113678	-6.39E-05	-0.00018692	9.512329102	-2.140808105	1.983642578	-0.056839002	-0.00319481	-0.00934601	-0.631347656	0.022705078	0.75	877.96	-46.62312944	-72.950867	-129.9747369	-57
17380	0	0.375470161	-0.086960793	0.082028389	0.999999046	4.77E-06	-0.000106812	-0.000226021	9.386754036	-2.174019814	2.050709724	0.000238419	-0.005340576	-0.011301041	-0.633544922	0.020507813	0.753173828	878.02	-46.55058731	-72.98841278	-130.0461385	-57
17381	0	0.374206543	-0.083740234	0.078552246	0.999999046	0.000728607	-0.000288963	-0.000160217	9.355163574	-2.093505859	1.963806152	0.036430363	-0.014448167	-0.008010865	-0.633544922	0.022705078	0.747070313	877.98	-46.46148443	-73.03475588	-130.0479824	-57
17382	0	0.378552437	-0.08551693	0.079921722	0.999999046	0.000429153	-0.00028801	-0.000576019	9.463810921	-2.137923241	1.99804306	0.021457674	-0.014400484	-0.028800967	-0.631103516	0.022705078	0.744140625	877.96	-46.29832901	-73.11538698	-130.163104	-57
17383	0	0.377319336	-0.082824707	0.079345703	0.999999046	9.16E-05	-0.000155449	-0.000385284	9.432983398	-2.070617676	1.983642578	0.004577637	-0.007772446	-0.019264222	-0.631103516	0.022705078	0.747070313	877.96	-46.18647866	-73.1695883	-130.264965	-57
17384	0	0.376065254	-0.083864212	0.079303741	0.999999046	-0.000422478	-0.000303268	-0.000236511	9.401631355	-2.096605301	1.982593536	-0.021123887	-0.015163422	-0.011825562	-0.631103516	0.020507813	0.75	878	-46.21284057	-73.22305699	-130.284112	-57
17385	0	0.375915527	-0.086486816	0.080688477	0.999999046	5.72E-05	-0.000292778	-0.000213623	9.397888184	-2.16217041	2.017211914	0.002861023	-0.014638901	-0.010681153	-0.631103516	0.020507813	0.752929688	878.02	-46.18767259	-73.2735113	-130.2996279	-57
17386	0	0.376913071	-0.084302902	0.079316139	0.999999046	0.000757217	-0.000297546	-0.000374794	9.422826767	-2.107572556	1.982903481	0.037860875	-0.014877321	-0.018739703	-0.62890625	0.020507813	0.75	877.96	-46.04086944	-73.33748988	-130.3584644	-57
17387	0	0.375610352	-0.084289551	0.078857422	0.999999046	0.001060486	-0.000353813	-0.000652313	9.390258789	-2.10723877	1.971435547	0.053024307	-0.017690664	-0.032615671	-0.631103516	0.020507813	0.752929688	877.96	-45.80007404	-73.42856188	-130.4792027	-57
17388	0	0.375183105	-0.088500977	0.078369141	0.999998093	0.001304626	-0.000319481	-0.000831604	9.379577637	-2.212524414	1.959228516	0.06523135	-0.015974051	-0.041580217	-0.631347656	0.022705078	0.752685547	878.06	-45.47220311	-73.53105324	-130.6614416	-58
17389	0	0.375232697	-0.087580681	0.078751564	0.999996185	0.002074242	-0.000400543	-0.000985146	9.380817413	-2.189517021	1.968789101	0.103712176	-0.020027179	-0.049257323	-0.62890625	0.022705078	0.752685547	878.02	-45.03389186	-73.6518788	-130.8670257	-58
17390	0	0.377307892	-0.086192131	0.077906609	0.999996185	0.002137184	-0.000639915	-0.000999451	9.432697296	-2.154803276	1.947665215	0.106859314	-0.031995805	-0.049972584	-0.62890625	0.022705078	0.749755859	877.96	-44.64704362	-73.79261307	-131.011583	-58
17391	0	0.377746582	-0.089294434	0.07623291	0.999993324	0.003036499	-0.000540733	-0.001468658	9.443664551	-2.23236084	1.905822754	0.151825246	-0.027036719	-0.073433065	-0.629150391	0.027099609	0.755126953	877.88	-43.99259516	-73.96204893	-131.3271174	-58
17392	0	0.378991127	-0.084564209	0.073166847	0.999988556	0.004308701	-0.000460625	-0.002008438	9.474778175	-2.114105225	1.829171181	0.215435847	-0.023031322	-0.100422287	-0.626953125	0.03125	0.751708984	877.9	-43.00266249	-74.16601105	-131.8397602	-59
17393	0	0.37677002	-0.080993652	0.073120117	0.999994278	0.001992226	-0.000900269	-0.002513885	9.419250488	-2.024841309	1.82800293	0.099611467	-0.045013511	-0.125694507	-0.626953125	0.03125	0.749023438	877.96	-42.23046263	-74.44398975	-132.4015062	-60
17394	0	0.375628471	-0.085836411	0.07248497	0.999994278	-0.002055168	-0.001246452	-0.002353668	9.390711784	-2.145910263	1.812124252	-0.102758601	-0.062322734	-0.117683633	-0.626953125	0.03125	0.749023438	877.98	-42.05185577	-74.73747117	-132.8274757	-60
17395	0	0.379455566	-0.103515625	0.071289063	0.999993324	0.000358582	-0.001727104	-0.003189087	9.48638916	-2.587890625	1.782226563	0.017929117	-0.086355401	-0.159454699	-0.622070313	0.024658203	0.754882813	877.96	-41.45591746	-75.13411951	-133.3993635	-60
17396	0	0.392343521	-0.084728241	0.073047638	0.999986649	0.002271652	-0.00200367	-0.0041008	9.808588028	-2.118206024	1.826190948	0.113583103	-0.100183921	-0.205040866	-0.621826172	0.022460938	0.752197266	877.92	-40.38083494	-75.6206498	-134.2389309	-60
17397	0	0.388000488	-0.072631836	0.073181152	0.99998188	0.000247955	-0.001959801	-0.005596161	9.700012207	-1.815795898	1.829528809	0.012397839	-0.097990611	-0.279809687	-0.619384766	0.020263672	0.755126953	877.92	-38.9252654	-76.20777674	-135.7073903	-61
17398	0	0.367323875	-0.050484657	0.07085228	0.999974251	-0.001155853	-0.001199722	-0.006887436	9.183096886	-1.262116432	1.771306992	-0.057793147	-0.059986617	-0.344374678	-0.614501953	0.011230469	0.761474609	878	-36.77773852	-76.80569666	-138.0490317	-61
17399	0	0.352539063	-0.039733887	0.071533203	0.999966621	-0.003414154	-0.000697136	-0.007339478	8.813476563	-0.993347168	1.788330078	-0.170709581	-0.03485718	-0.366977914	-0.616210938	0.000244141	0.750976563	877.96	-34.34789449	-77.364778	-140.9400811	-61
17400	0	0.372678757	-0.035835266	0.077037811	0.999952316	-0.004665375	-0.00099659	-0.008416176	9.316968918	-0.895881653	1.925945282	-0.233272377	-0.04983026	-0.420815356	-0.615722656	-0.015136719	0.752197266	878.06	-31.41186564	-77.9889527	-144.4891628	-62
17401	0	0.409362793	-0.037963867	0.089477539	0.999909401	-0.008800507	-0.00165844	-0.009975433	10.23406982	-0.94909668	2.236938477	-0.44003851	-0.082924466	-0.498786608	-0.612548828	-0.034912109	0.756591797	877.96	-28.00379016	-78.72453864	-148.9945473	-61
17402	0	0.409291267	-0.039112091	0.090548515	0.999891281	-0.009362221	-0.000782967	-0.011354446	10.23228168	-0.977802277	2.263712883	-0.468127985	-0.039149748	-0.567742873	-0.611328125	-0.061279297	0.758544922	878	-23.14867141	-79.36997296	-155.0286695	-61
17403	0	0.382995605	-0.015380859	0.079589844	0.999773979	-0.017242432	0.000935555	-0.012329102	9.574890137	-0.384521484	1.989746094	-0.862186281	0.046781236	-0.61650134	-0.607666016	-0.092285156	0.758056641	877.96	-17.65540702	-79.7634332	-162.6187604	-61
17404	0	0.367723465	-0.049545288	0.081022263	0.999617577	-0.023346901	0.001817703	-0.014651299	9.193086624	-1.238632202	2.025556564	-1.167493554	0.090896725	-0.732658121	-0.607910156	-0.140380859	0.750732422	877.96	-10.86254143	-79.97399196	-172.2329141	-60
17405	0	0.366149902	-0.060546875	0.08996582	0.999651909	-0.019664764	0.001839638	-0.017486572	9.153747559	-1.513671875	2.249145508	-0.98335229	0.091992559	-0.874430048	-0.610351563	-0.190917969	0.740478516	877.96	-1.648094002	-79.97813907	176.1248901	-60
17406	0	0.365356445	-0.057067871	0.094238281	0.999682426	-0.016384125	0.000770569	-0.019104004	9.133911133	-1.426696777	2.355957031	-0.819292825	0.038532515	-0.955301156	-0.610351563	-0.241455078	0.727539063	877.96	8.71551226	-79.74679072	163.6921546	-60
17407	0	0.373168945	-0.059631348	0.093139648	0.99969101	-0.014594078	-0.000488281	-0.020095825	9.329223633	-1.490783691	2.328491211	-0.72977897	-0.024416574	-1.004894626	-0.598876953	-0.285888672	0.721923828	877.96	19.18674639	-79.23535386	151.3433984	-60
17408	0	0.390380859	-0.056584358	0.091588974	0.999704361	-0.014076233	-0.000794411	-0.019800186	9.759521484	-1.414608955	2.28972435	-0.703880968	-0.039724448	-0.99010682	-0.589599609	-0.332275391	0.7109375	877.96	28.25388402	-78.39598108	140.4568455	-64
17409	0	0.387878418	-0.05291748	0.096618652	0.999717712	-0.01583004	-0.000804901	-0.017658234	9.696960449	-1.322937012	2.415466309	-0.791576294	-0.040248834	-0.882994557	-0.583007813	-0.372070313	0.702636719	877.96	34.67688366	-77.41221545	132.0324289	-67
17410	0	0.374023438	-0.066650391	0.104858398	0.99984169	-0.010588646	-0.001475334	-0.014175415	9.350585938	-1.666259766	2.621459961	-0.529460117	-0.073770585	-0.708807996	-0.576660156	-0.411865234	0.694091797	878.02	39.4480475	-76.56690829	125.8858013	-59
17411	0	0.374572754	-0.057556152	0.108093262	0.99994278	-0.004450798	-0.002037048	-0.009506226	9.364318848	-1.438903809	2.702331543	-0.222544142	-0.101854358	-0.475320337	-0.573242188	-0.434082031	0.684082031	877.96	42.84680739	-76.02916972	121.8549425	-63
17412	0	0.401852608	-0.06158638	0.115036964	0.999974251	-0.004530907	-0.002399445	-0.004920006	10.04631519	-1.5396595	2.87592411	-0.22654724	-0.119973239	-0.24600236	-0.5703125	-0.445068359	0.687744141	878.06	44.60720159	-75.84557164	119.4980063	-60
17413	0	0.428588867	-0.08605957	0.121826172	0.999986649	-0.004214287	-0.002037048	-0.001995087	10.71472168	-2.151489258	3.045654297	-0.210715249	-0.101852856	-0.099754764	-0.574707031	-0.449462891	0.677001953	878	45.28950033	-75.86127264	118.2891149	-64
17414	0	0.431316376	-0.087661743	0.117618561	0.999997139	-0.00144577	-0.000890732	0.001570702	10.78290939	-2.191543579	2.94046402	-0.072288578	-0.04453663	0.07853515	-0.586425781	-0.451171875	0.674804688	877.9	44.74534219	-76.07679356	118.6690137	-60
17415	0	0.463745117	-0.066650391	0.106872559	0.99997139	0.000535011	0.000434875	0.007488251	11.59362793	-1.666259766	2.671813965	0.026750817	0.021743979	0.374416066	-0.605957031	-0.433105469	0.674560547	877.9	41.90569171	-76.64789304	121.6596761	-63
17416	0	0.419047356	-0.019487381	0.091201782	0.999827385	0.002493858	0.00343895	0.018048286	10.47618389	-0.487184525	2.280044556	0.124700063	0.171957333	0.902466036	-0.630371094	-0.403808594	0.667724609	877.96	33.7542595	-77.62288911	130.3210902	-61
17417	0	0.316345215	0.001159668	0.08203125	0.999513626	0.008946419	0.003715515	0.029640198	7.908630371	0.028991699	2.05078125	0.447393465	0.185805878	1.482250173	-0.665527344	-0.354248047	0.665527344	877.96	19.00976475	-78.76533409	146.4244737	-58
17418	0	0.332296371	-0.021517754	0.07288456	0.99906826	0.025775909	0.003866196	0.034395218	8.307409286	-0.53794384	1.822113991	1.289195844	0.193369837	1.72029515	-0.701660156	-0.274169922	0.657958984	877.98	1.424335155	-79.01885217	167.3161624	-60
17419	0	0.445556641	0.003601074	0.057495117	0.998671532	0.034618378	0.006276131	0.037647247	11.13891602	0.090026855	1.43737793	1.731685772	0.313945567	1.883196351	-0.729492188	-0.163574219	0.650390625	877.96	-15.32831077	-77.73109849	-171.5283597	-57
17420	0	0.497354507	0.022346497	0.058213234	0.998906136	0.026841164	0.008699417	0.037272453	12.43386269	0.558662415	1.455330849	1.342547477	0.43512944	1.864302116	-0.750976563	-0.040039063	0.627197266	877.96	-27.42231532	-75.18440383	-155.7802687	-60
17421	0	0.454650879	0.006408691	0.056030273	0.999177933	0.016690254	0.010017395	0.035545349	11.36627197	0.160217285	1.400756836	0.834741311	0.501006956	1.777754309	-0.763916016	0.058837891	0.591064453	877.98	-35.3660516	-72.03113049	-145.3952581	-57
17422	0	0.364198685	-0.022764206	0.054305077	0.999368668	0.012965202	0.008414268	0.031986237	9.104967117	-0.569105148	1.357626915	0.648396546	0.420801966	1.599648413	-0.768798828	0.140136719	0.550292969	878	-40.40745815	-68.97674745	-138.4222134	-58
17423	0	0.307678223	-0.04498291	0.061584473	0.999585152	0.013145447	0.006127357	0.024871826	7.691955566	-1.124572754	1.539611816	0.657363181	0.306410217	1.243763186	-0.764160156	0.207519531	0.512939453	878.08	-42.9713661	-66.52049457	-133.9973347	-57
17424	0	0.30219841	-0.053365707	0.061161041	0.999711037	0.010727882	0.006149292	0.020599365	7.554960251	-1.334142685	1.529026031	0.536445737	0.307494187	1.030067376	-0.756103516	0.257568359	0.471191406	878.02	-44.41219483	-64.34822127	-131.0479863	-59
17425	0	0.303100586	-0.056884766	0.055847168	0.999849319	0.009324074	0.004928589	0.013786316	7.577514648	-1.422119141	1.396179199	0.466227103	0.24644182	0.689350415	-0.747314453	0.289794922	0.433837891	878.02	-44.80613825	-62.80902866	-129.4086298	-58
17426	0	0.321192741	-0.055742264	0.058708191	0.999968529	0.004329681	0.002655029	0.005963326	8.029818535	-1.393556595	1.467704773	0.216486284	0.132752822	0.298169324	-0.742919922	0.309326172	0.400390625	877.96	-44.82323709	-62.08873099	-128.8238684	-58
17427	0	0.363647461	-0.076477051	0.068237305	0.999988556	0.001137733	-0.001075745	-0.00440979	9.091186523	-1.91192627	1.705932617	0.056886881	-0.053787428	-0.220490307	-0.737548828	0.306640625	0.374511719	877.96	-44.16596338	-62.51288932	-129.415174	-60
17428	0	0.421264648	-0.080993652	0.077392578	0.999869347	0.00098896	-0.00561142	-0.015075684	10.53161621	-2.024841309	1.934814453	0.049450154	-0.280583131	-0.753816815	-0.741210938	0.284667969	0.362304688	877.94	-42.42219177	-64.15347014	-131.2388494	-60
17429	0	0.447509766	-0.064758301	0.079833984	0.999657631	-0.006275177	-0.008986473	-0.023738861	11.18774414	-1.61895752	1.995849609	-0.313794612	-0.449374868	-1.187078342	-0.746337891	0.243164063	0.360351563	877.98	-40.14944746	-66.71694448	-134.5280662	-57
17430	0	0.460654259	-0.110239983	0.095740318	0.999340057	-0.008341789	-0.015267372	-0.031881332	11.51635647	-2.755999565	2.393507957	-0.417181214	-0.763536533	-1.594417283	-0.746337891	0.186035156	0.362060547	877.96	-36.5752941	-70.35662611	-139.3945409	-59
17431	0	0.534179688	-0.123840332	0.09576416	0.999106407	-0.003768921	-0.017664909	-0.038200378	13.35449219	-3.096008301	2.394104004	-0.188502169	-0.883508522	-1.910587775	-0.748535156	0.114013672	0.388183594	878.06	-28.83560629	-74.43659	-147.9645195	-58
17432	0	0.420944214	-0.035286903	0.082144737	0.999170303	-0.013748169	-0.014201164	-0.035603523	10.52360535	-0.882172585	2.053618431	-0.687598577	-0.710254607	-1.78066854	-0.742919922	0.034912109	0.403076172	877.94	-17.94990956	-77.57130156	-160.8040417	-56
17433	0	0.264343262	-0.020385742	0.077209473	0.999354362	-0.018497467	-0.014777184	-0.027000427	6.608581543	-0.509643555	1.930236816	-0.925072245	-0.739018067	-1.350311683	-0.735107422	-0.044189453	0.414794922	878.06	-6.665822477	-79.90279533	-174.4715835	-57
17434	0	0.381756783	-0.011315346	0.048656464	0.999716759	-0.007566452	-0.01367569	-0.017949104	9.543919563	-0.282883644	1.216411591	-0.378358327	-0.683849056	-0.897539964	-0.720947266	-0.110595703	0.433837891	877.92	4.922417743	-81.51294944	172.903734	-57
17435	0	0.436828613	0.009643555	0.049865723	0.999743462	-0.017314911	-0.011008263	-0.009544373	10.92071533	0.241088867	1.246643066	-0.86581945	-0.550460119	-0.477259367	-0.707519531	-0.156982422	0.445556641	877.98	12.05131641	-82.60564139	163.6989963	-57
17436	0	0.362747192	-0.015604019	0.078154564	0.999708176	-0.022140503	-0.008488655	-0.004515648	9.06867981	-0.390100479	1.953864098	-1.107132676	-0.424473981	-0.225804326	-0.698486328	-0.203369141	0.448730469	878.02	15.5208449	-83.42991631	157.6437513	-60
17437	0	0.320617676	-0.025268555	0.083679199	0.999779701	-0.019535065	-0.00732708	-0.002243042	8.015441895	-0.631713867	2.09197998	-0.976824932	-0.36638088	-0.112160332	-0.692138672	-0.243164063	0.446044922	878.06	17.75204411	-84.1615027	153.1439786	-57
17438	0	0.338373184	-0.042125702	0.079496384	0.999866486	-0.015147209	-0.005757332	-0.001807213	8.459329605	-1.053142548	1.987409592	-0.75739402	-0.287879349	-0.090364646	-0.688232422	-0.278320313	0.442871094	877.96	20.1941487	-84.71754648	148.9421228	-60
17439	0	0.348693848	-0.041015625	0.083190918	0.999970436	-0.00585556	-0.004481316	-0.001781464	8.717346191	-1.025390625	2.079772949	-0.292780823	-0.22406793	-0.089074035	-0.687011719	-0.306884766	0.442382813	877.96	23.73570714	-85.11565564	144.7073688	-63
17440	0	0.345010757	-0.028150558	0.093748093	0.999992371	0.000936508	-0.003460884	-0.000730515	8.625268936	-0.703763962	2.343702316	0.046825513	-0.173044591	-0.036525808	-0.686035156	-0.333251953	0.447265625	878.02	26.68599504	-85.43494453	141.846632	-59
17441	0	0.342102051	-0.028686523	0.097473145	0.999996185	0.001713753	-0.001815796	3.43E-05	8.55255127	-0.717163086	2.436828613	0.085687726	-0.090789889	0.001716616	-0.689697266	-0.352783203	0.44921875	878	27.89115342	-85.61550179	140.8254468	-59
17442	0	0.372896194	-0.042062759	0.093395233	0.999997139	0.001754761	8.01E-05	0.000984192	9.322404861	-1.051568985	2.334880829	0.087738096	0.004005435	0.049209628	-0.693847656	-0.368164063	0.453613281	877.96	26.50760175	-85.65073105	142.4044667	-62
17443	0	0.450012207	-0.070129395	0.098571777	0.999988556	0.00464344	0.000663757	0.000713348	11.25030518	-1.753234863	2.464294434	0.232172883	0.033187991	0.035667553	-0.705078125	-0.383056641	0.458251953	877.92	25.36630161	-85.60815077	144.0695222	-62
17444	0	0.487405777	-0.092235565	0.100747108	0.999944687	0.010036469	0.002490044	0.001512527	12.18514442	-2.30588913	2.518677711	0.50183256	0.124504448	0.07562775	-0.714111328	-0.395751953	0.462646484	877.96	22.68637121	-85.40606011	147.8912003	-65
17445	0	0.47644043	-0.045471191	0.086791992	0.999957085	0.006580353	0.005448341	0.003536224	11.91101074	-1.136779785	2.169799805	0.329022327	0.27242095	0.176813738	-0.728271484	-0.399658203	0.475097656	877.92	16.12428967	-84.9349042	155.2139774	-64
17446	0	0.449196815	-0.059591293	0.090022087	0.999945641	-0.00676918	0.006147385	0.004858971	11.22992039	-1.489782333	2.250552177	-0.338465064	0.307374725	0.242952874	-0.751464844	-0.407714844	0.482910156	877.9	7.684067255	-84.3381238	162.8966775	-62
17447	0	0.36907959	-0.077209473	0.075927734	0.999905586	0.002742767	0.011120796	0.00756073	9.226989746	-1.930236816	1.898193359	0.137142672	0.556057268	0.378048368	-0.772216797	-0.415771484	0.481689453	877.92	-0.816528107	-83.08811474	171.7370793	-58
17448	0	0.410522461	-0.038208008	0.043518066	0.999625206	0.017228127	0.014663696	0.015361786	10.26306152	-0.955200195	1.08795166	0.861513725	0.733276227	0.768185058	-0.803466797	-0.403564453	0.490966797	877.96	-10.53679336	-81.20164064	-176.4991233	-55
17449	0	0.448303223	0.02746582	0.016784668	0.999315262	0.016228676	0.019302368	0.027061462	11.20758057	0.686645508	0.419616699	0.81161895	0.965338635	1.353381873	-0.843017578	-0.358398438	0.489501953	877.96	-21.7767433	-78.1620901	-163.2210798	-52
17450	0	0.441278458	0.019755363	0.028400421	0.999246597	0.006760597	0.01819706	0.033599854	11.03196144	0.493884087	0.710010529	0.338114753	0.910081478	1.680414581	-0.893066406	-0.284179688	0.489013672	878	-31.38376115	-74.52862473	-152.5506753	-55
17451	0	0.407287598	-0.040588379	0.049133301	0.999292374	0.002663612	0.016029358	0.033901215	10.18218994	-1.014709473	1.22833252	0.13321201	0.801656805	1.695460263	-0.938232422	-0.208251953	0.470947266	877.96	-37.97417321	-70.77261585	-145.3283865	-56
17452	0	0.363298416	-0.064109802	0.055652618	0.999325752	0.003960609	0.013845444	0.033756256	9.082460403	-1.602745056	1.39131546	0.198074952	0.69242768	1.688191912	-0.974365234	-0.123779297	0.448730469	877.96	-42.51919995	-67.0334479	-139.9657867	-55
17453	0	0.317504883	-0.068481445	0.051940918	0.999466896	0.007392883	0.011811256	0.029506683	7.93762207	-1.712036133	1.298522949	0.369709796	0.590667676	1.475596117	-1.000976563	-0.039550781	0.434570313	877.9	-44.9557725	-63.69458009	-136.34428	-55
17454	0	0.29087925	-0.056674957	0.043766975	0.999583244	0.011541367	0.010297775	0.02436924	7.271981239	-1.416873932	1.094174385	0.577148486	0.514960283	1.218631239	-1.020507813	0.040039063	0.411865234	878.02	-45.76363171	-60.86031165	-133.9284377	-57
17455	0	0.307006836	-0.031433105	0.040466309	0.999772072	0.00818634	0.008290291	0.017845154	7.675170898	-0.785827637	1.011657715	0.409348008	0.414545926	0.892325247	-1.037109375	0.110595703	0.392822266	877.88	-46.08843985	-58.71877176	-132.4573655	-59
17456	0	0.3354702	-0.025308609	0.047644615	0.999916077	0.002841949	0.00584507	0.011140823	8.38675499	-0.632715225	1.191115379	0.142101413	0.292261598	0.557056614	-1.053466797	0.166015625	0.377685547	877.9	-46.39242703	-57.32930494	-131.7064732	-57
17457	0	0.39263916	-0.041992188	0.059875488	0.999998093	0.001015663	0.000831604	0.000579834	9.815979004	-1.049804688	1.496887207	0.050783175	0.041580214	0.028991709	-1.061523438	0.196777344	0.369873047	878.06	-46.22891128	-57.21949164	-131.7555829	-56
17458	0	0.453637123	-0.04916954	0.06182766	0.999907494	-0.004421234	-0.003749847	-0.012264252	11.34092808	-1.22923851	1.54569149	-0.221068487	-0.187498121	-0.613231394	-1.073486328	0.203857422	0.366943359	878.02	-45.65766147	-58.54183702	-133.0221566	-55
17459	0	0.442443848	-0.098144531	0.08404541	0.999488831	-0.009379387	-0.01266861	-0.02779007	11.06109619	-2.453613281	2.101135254	-0.469049166	-0.633538293	-1.389739978	-1.084472656	0.173583984	0.384521484	878.08	-44.59116923	-61.8435617	-135.4840679	-56
17460	0	0.528113365	-0.137096405	0.09390831	0.999064445	-0.000853539	-0.016849518	-0.039805412	13.20283413	-3.427410126	2.347707748	-0.042690231	-0.842738558	-1.990891141	-1.084472656	0.103759766	0.421630859	878.08	-40.4281361	-66.37857282	-140.2117257	-54
17461	0	0.421081543	-0.043701172	0.081176758	0.999082565	-0.007548332	-0.015346527	-0.039245605	10.52703857	-1.092529297	2.029418945	-0.377531988	-0.76756093	-1.96288015	-1.079101563	0.018066406	0.462646484	877.92	-34.96227844	-70.55603336	-147.0079547	-57
17462	0	0.272717476	-0.055354118	0.091345787	0.999182701	-0.004405975	-0.020347595	-0.034646988	6.817936897	-1.383852959	2.283644676	-0.2203588	-1.017657006	-1.732821476	-1.062011719	-0.065673828	0.494384766	877.9	-28.54941035	-74.66273008	-154.2488994	-54
17463	0	0.430053711	-0.059265137	0.073120117	0.999197006	0.01504612	-0.021392822	-0.030345917	10.75134277	-1.481628418	1.82800293	0.752507361	-1.069927434	-1.517701985	-1.034179688	-0.134277344	0.544433594	877.96	-17.39149943	-78.31442697	-163.9434592	-54
17464	0	0.455494881	-0.010231018	0.072977066	0.999611855	0.002512932	-0.018209457	-0.020904541	11.38737202	-0.255775452	1.824426651	0.125662824	-0.910590498	-1.045362089	-1.000488281	-0.172363281	0.591552734	878.06	-6.556745724	-80.88501421	-174.6599549	-53
17465	0	0.378540039	-0.055603027	0.100524902	0.999750137	-0.0061903	-0.015422821	-0.014907837	9.463500977	-1.390075684	2.513122559	-0.309540717	-0.771205126	-0.74545378	-0.973632813	-0.210205078	0.627441406	878.02	4.544923877	-82.70585425	173.4121873	-55
17466	0	0.317224503	-0.047568321	0.104028702	0.999880791	-0.001583099	-0.011882782	-0.009670258	7.930612564	-1.189208031	2.600717545	-0.079158098	-0.594162592	-0.483531997	-0.949462891	-0.241699219	0.654541016	878.02	15.87612455	-83.86155268	161.8232225	-58
17467	0	0.315490723	-0.04876709	0.094177246	0.999936104	-0.005786896	-0.008208275	-0.005157471	7.887268066	-1.219177246	2.354431152	-0.289350935	-0.410422461	-0.257879014	-0.927978516	-0.257568359	0.677490234	878.02	24.03335841	-84.54623477	152.960884	-56
17468	0	0.326943398	-0.048099518	0.087461472	0.999930382	-0.010806084	-0.004261017	-0.001989365	8.173584938	-1.202487946	2.186536789	-0.540316691	-0.213055774	-0.099470534	-0.920410156	-0.272949219	0.687011719	877.96	27.45520982	-84.88411674	148.2842352	-58
17469	0	0.321350098	-0.04901123	0.094909668	0.99995327	-0.009414673	-0.001662254	0.000656128	8.033752441	-1.225280762	2.372741699	-0.470740847	-0.083113989	0.032806899	-0.915039063	-0.290771484	0.690917969	878.02	26.70304809	-85.08257878	147.9589279	-62
17470	0	0.341091156	-0.04589653	0.098303795	0.99996376	-0.008021355	0.00045681	0.00268364	8.5272789	-1.147413254	2.457594872	-0.40107253	0.022840773	0.134183581	-0.914794922	-0.297363281	0.694335938	878.02	22.30942773	-85.15542531	151.4488899	-59
17471	0	0.390563965	-0.057128906	0.097167969	0.999973297	-0.006205559	0.001674652	0.003456116	9.764099121	-1.428222656	2.429199219	-0.310280693	0.083733348	0.17280732	-0.924072266	-0.301513672	0.6953125	877.92	16.48082459	-85.09725141	156.5877026	-57
17472	0	0.455635071	-0.076172829	0.100400925	0.999986649	-0.003332138	0.002465248	0.002878189	11.39087677	-1.904320717	2.510023117	-0.16660761	0.123262929	0.143910065	-0.931396484	-0.299072266	0.698242188	878.06	11.62639968	-84.89274798	161.0805284	-57
17473	0	0.499694824	-0.068847656	0.088500977	0.999979019	-0.000239372	0.005344391	0.00346756	12.49237061	-1.721191406	2.212524414	-0.011968694	0.267221354	0.173379165	-0.945800781	-0.293945313	0.704345703	877.96	6.353727068	-84.3372511	166.3518928	-57
17474	0	0.453989983	-0.03810215	0.080524445	0.999933243	-0.007994652	0.006314278	0.005360603	11.34974957	-0.952553749	2.013111115	-0.399741419	0.315720856	0.268036087	-0.960205078	-0.282714844	0.692871094	877.9	-0.783512768	-83.62926508	172.6128395	-57
17475	0	0.461975098	-0.08380127	0.08795166	0.999934196	-0.006656647	0.006993294	0.006145477	11.54937744	-2.095031738	2.198791504	-0.332839603	0.349672322	0.307280573	-0.974609375	-0.275634766	0.693115234	877.92	-7.052705299	-82.7643039	178.1637946	-56
17476	0	0.378746033	-0.069759369	0.059469223	0.999807358	0.011753082	0.01106739	0.011136055	9.468650818	-1.743984222	1.486730576	0.587691792	0.553405002	0.55683845	-0.996582031	-0.246337891	0.683349609	877.96	-13.15206904	-81.27058149	-174.31787	-55
17477	0	0.431762695	-0.004760742	0.029846191	0.999424934	0.023609161	0.012864113	0.020629883	10.79406738	-0.119018555	0.746154785	1.180684139	0.643328823	1.031691683	-1.022705078	-0.177734375	0.658935547	878.08	-21.07269258	-79.13911505	-163.5387595	-53
17478	0	0.466957092	0.019461632	0.030563354	0.999300957	0.017766953	0.014034271	0.02972126	11.67392731	0.486540794	0.764083862	0.888554441	0.701876928	1.486408973	-1.047851563	-0.073730469	0.637451172	878.06	-29.94983366	-76.19180027	-152.3655546	-53
17479	0	0.447937012	-0.007019043	0.050231934	0.99930191	0.012890816	0.013645172	0.032276154	11.19842529	-0.175476074	1.25579834	0.644690641	0.68241723	1.614182886	-1.065429688	0.029541016	0.58984375	877.92	-36.54156487	-72.83560929	-143.9877358	-53
17480	0	0.365641594	-0.029385567	0.054616928	0.99925518	0.012541771	0.014307022	0.033553123	9.141039848	-0.734639168	1.365423203	0.627244148	0.715528607	1.678072455	-1.068603516	0.125976563	0.5390625	877.9	-40.82934308	-69.13854129	-137.9284574	-54
17481	0	0.278503418	-0.03692627	0.053283691	0.999342918	0.007881165	0.01364994	0.032619476	6.962585449	-0.923156738	1.332092285	0.394144476	0.682646405	1.631330792	-1.066894531	0.219726563	0.479736328	877.98	-43.98706955	-65.45370944	-133.5221476	-56
17482	0	0.257486343	-0.067196846	0.051247597	0.999512672	0.008649826	0.011781693	0.027574539	6.437158585	-1.67992115	1.281189919	0.43256154	0.589180294	1.378950867	-1.057373047	0.293701172	0.430175781	877.98	-45.61216957	-62.26419892	-130.6045369	-56
17483	0	0.287231445	-0.058532715	0.047790527	0.999650002	0.012046814	0.009854317	0.021369934	7.180786133	-1.463317871	1.194763184	0.602410884	0.492773247	1.068621207	-1.047607422	0.358886719	0.387207031	877.96	-45.84325222	-59.72211602	-128.7587163	-54
17484	0	0.350654602	-0.057547569	0.05186367	0.999866486	0.008584976	0.006199837	0.012440681	8.766365051	-1.438689232	1.296591759	0.429267907	0.310005628	0.622061747	-1.039794922	0.411132813	0.345214844	877.98	-45.65451952	-58.21106402	-127.8275007	-54
17485	0	0.442932129	-0.073425293	0.057983398	0.99998951	0.003837585	0.002243996	0.000934601	11.07330322	-1.835632324	1.449584961	0.191879932	0.112200169	0.046730202	-1.035644531	0.437011719	0.320068359	877.9	-45.0303553	-57.96800477	-128.041962	-54
17486	0	0.447645187	-0.054730415	0.057053566	0.999940872	-0.004853249	-0.000239372	-0.009688377	11.19112968	-1.368260384	1.426339149	-0.242667181	-0.011968847	-0.484428354	-1.040039063	0.434814453	0.300292969	878	-44.32292563	-58.79063304	-129.5226765	-55
17487	0	0.423950195	-0.068847656	0.070617676	0.99967289	-0.013587952	-0.007998466	-0.020126343	10.59875488	-1.721191406	1.765441895	-0.679471623	-0.399966908	-1.006426805	-1.050537109	0.404541016	0.303466797	878.02	-44.11359394	-61.08553844	-131.5591923	-52
17488	0	0.452298164	-0.09901619	0.086461067	0.999435425	-0.008796692	-0.012421608	-0.029932022	11.30745411	-2.475404739	2.16152668	-0.439917297	-0.62119718	-1.49688251	-1.064697266	0.34375	0.329345703	877.92	-42.123967	-64.50479882	-134.9244296	-55
17489	0	0.470581055	-0.03338623	0.064147949	0.999353409	-0.01331234	-0.011699677	-0.031253815	11.76452637	-0.834655762	1.60369873	-0.66576028	-0.585109758	-1.563027144	-1.073730469	0.267333984	0.355957031	878	-39.45472263	-67.90274533	-139.5034468	-55
17490	0	0.336669922	-0.008911133	0.075927734	0.999150276	-0.023136139	-0.016819	-0.029666901	8.416748047	-0.22277832	1.898193359	-1.157134628	-0.841188223	-1.48376521	-1.080322266	0.184570313	0.388916016	877.88	-38.14987744	-71.58016107	-143.7161574	-55
17491	0	0.397705078	-0.080932617	0.102661133	0.999211311	-0.003383636	-0.022234917	-0.032722473	9.942626953	-2.02331543	2.56652832	-0.169226311	-1.112038172	-1.636553881	-1.077148438	0.099121094	0.427490234	877.94	-33.10146598	-75.88162394	-149.3755709	-57
17492	0	0.441090584	-0.015626907	0.088951111	0.999455452	0.008223534	-0.018699646	-0.025900841	11.0272646	-0.390672684	2.223777771	0.411251289	-0.935151951	-1.295277021	-1.060791016	0.028564453	0.466552734	878.08	-24.98104555	-79.2411246	-156.7274259	-54
17493	0	0.383056641	-0.040161133	0.099853516	0.999640465	0.000579834	-0.01703167	-0.020656586	9.576416016	-1.00402832	2.496337891	0.028995165	-0.851685293	-1.032952766	-1.045654297	-0.020019531	0.512695313	877.96	-15.36983003	-81.9302644	-166.4002842	-56
17494	0	0.337274551	-0.034453392	0.092582703	0.999765396	0.004376411	-0.01347065	-0.016347885	8.431863785	-0.861334801	2.314567566	0.218837639	-0.673585017	-0.817458008	-1.030273438	-0.062011719	0.543945313	878.02	-1.600748175	-83.76700612	-179.7702841	-56
17495	0	0.343566895	-0.024841309	0.079589844	0.99985218	-0.005245209	-0.010512352	-0.01253891	8.589172363	-0.621032715	1.989746094	-0.262273344	-0.525643467	-0.62697635	-1.015136719	-0.095214844	0.568847656	878.08	13.82342225	-84.83137748	164.1288275	-57
17496	0	0.332022667	-0.050596237	0.082019806	0.999861717	-0.010825157	-0.007482529	-0.010087967	8.300566673	-1.26490593	2.050495148	-0.541282664	-0.37414358	-0.504421462	-1	-0.128417969	0.587890625	878.08	28.9725974	-85.20879325	147.6817653	-57
17497	0	0.313293457	-0.054443359	0.090087891	0.999905586	-0.010150909	-0.004954338	-0.007823944	7.832336426	-1.361083984	2.252197266	-0.507561443	-0.247724699	-0.391209515	-0.991699219	-0.163818359	0.598876953	878.06	40.72694897	-85.14996953	134.7218157	-56
17498	0	0.322242737	-0.065098763	0.099712372	0.99992466	-0.0102005	-0.003080368	-0.005951881	8.05606842	-1.627469063	2.492809296	-0.510037688	-0.154022226	-0.297601459	-0.985839844	-0.192382813	0.603759766	877.96	48.21132779	-84.90703345	126.0394702	-58
17499	0	0.38482666	-0.071472168	0.097839355	0.999975204	-0.006045341	-0.000728607	-0.003509521	9.620666504	-1.786804199	2.445983887	-0.302269563	-0.036430659	-0.175477519	-0.980224609	-0.218994141	0.611328125	878.02	51.16668767	-84.63770793	122.3789594	-57
17500	0	0.457176208	-0.053349495	0.088274956	0.999966621	-0.008023262	0.001161575	-7.53E-05	11.42940521	-1.333737373	2.206873894	-0.401167496	0.058079402	-0.003767055	-0.986328125	-0.238525391	0.610595703	877.96	49.27155899	-84.53081039	123.3619146	-57
17501	0	0.49798584	-0.073303223	0.08996582	0.999958992	-0.008457184	0.002209663	0.00226593	12.449646	-1.832580566	2.249145508	-0.422864939	0.110484671	0.113298049	-0.98828125	-0.249511719	0.608642578	878.02	44.50634981	-84.53469799	127.1782796	-56
17502	0	0.476204872	-0.052829742	0.084248543	0.99995327	-0.006977081	0.004013062	0.005316734	11.9051218	-1.320743561	2.10621357	-0.348859475	0.200656188	0.265840839	-0.992675781	-0.255859375	0.606445313	877.96	35.66625375	-84.56355198	135.2577184	-57
17503	0	0.469177246	-0.075134277	0.095092773	0.99995327	-0.004489899	0.003243446	0.007884979	11.72943115	-1.878356934	2.377319336	-0.224498408	0.162174827	0.394255064	-0.997314453	-0.255615234	0.604003906	877.96	24.76573544	-84.68551687	145.6906672	-58
17504	0	0.381754875	-0.077918053	0.067239761	0.999773979	0.015379906	0.009311676	0.011312485	9.54387188	-1.947951317	1.680994034	0.769053128	0.465618822	0.565666783	-1.004882813	-0.2421875	0.606201172	877.96	10.57795546	-84.04209438	161.7139701	-57
17505	0	0.423461914	0.008544922	0.025512695	0.999281883	0.02872467	0.011605263	0.021781921	10.58654785	0.213623047	0.637817383	1.43657706	0.580401934	1.089356575	-1.023681641	-0.188964844	0.60546875	878.08	-8.073462832	-82.72692117	-176.2050423	-56
17506	0	0.450318336	0.028504372	0.022432327	0.999094963	0.02567482	0.013713837	0.031012535	11.25795841	0.712609291	0.560808182	1.28412837	0.685898743	1.551094661	-1.0390625	-0.098388672	0.601806641	878	-24.89768737	-80.15798996	-156.2245678	-55
17507	0	0.428649902	-0.011291504	0.038879395	0.999135017	0.023075104	0.013180733	0.031963348	10.71624756	-0.282287598	0.971984863	1.154087699	0.65922657	1.598628009	-1.057128906	0.000732422	0.591796875	877.9	-34.31414191	-77.00532627	-143.9222015	-57
17508	0	0.396983147	-0.024190903	0.048915863	0.999215126	0.017184258	0.014915466	0.032409668	9.924578667	-0.604772568	1.222896576	0.859437597	0.745968368	1.620907226	-1.067871094	0.091064453	0.573486328	877.92	-39.6483439	-73.38929277	-136.3671489	-60
17509	0	0.307495117	-0.032409668	0.048156738	0.999303818	0.011200905	0.014972687	0.032268524	7.68737793	-0.810241699	1.203918457	0.560175151	0.748807993	1.613800462	-1.075683594	0.174560547	0.555664063	878	-43.22770175	-69.64616562	-131.2372953	-60
17510	0	0.271453857	-0.052487373	0.040980339	0.999427795	0.01220417	0.013615608	0.028445244	6.786346436	-1.312184334	1.024508476	0.610324863	0.680910218	1.422533381	-1.083251953	0.249267578	0.535400391	877.96	-44.90273869	-66.25340839	-127.9176915	-66
17511	0	0.315673828	-0.045715332	0.032897949	0.999526024	0.015350342	0.012684822	0.023448944	7.891845703	-1.142883301	0.82244873	0.767638203	0.634341187	1.172632216	-1.090576172	0.319580078	0.518798828	878.02	-44.97620467	-63.32729954	-125.8880288	-62
17512	0	0.341920853	-0.014557838	0.027699471	0.999726295	0.010474205	0.011447906	0.017454147	8.548021317	-0.363945961	0.692486763	0.523757869	0.572447369	0.872786717	-1.093017578	0.381103516	0.510986328	878.02	-44.68498903	-60.99490408	-124.8545478	-61
17513	0	0.387268066	-0.011657715	0.034118652	0.999925613	-0.002409935	0.007415771	0.009334564	9.68170166	-0.291442871	0.852966309	-0.120499721	0.370797717	0.466739719	-1.104492188	0.425537109	0.516357422	877.98	-45.21074096	-59.65431017	-124.5602973	-63
17514	0	0.467861176	-0.039945602	0.043337822	0.999914169	-0.012822151	0.001795769	-0.001997948	11.69652939	-0.99864006	1.083445549	-0.641125899	0.089791005	-0.099900242	-1.114746094	0.437011719	0.5390625	878	-46.12975968	-59.70033346	-125.1889374	-63
17515	0	0.443237305	-0.064453125	0.062988281	0.9997015	-0.017417908	-0.006983757	-0.015636444	11.08093262	-1.611328125	1.574707031	-0.870982013	-0.349222584	-0.781899972	-1.130859375	0.413818359	0.584716797	878.06	-46.94060161	-61.58478726	-126.5370782	-63
17516	0	0.462122917	-0.118530273	0.090085983	0.999472618	-0.008381844	-0.01379776	-0.028149605	11.55307293	-2.963256836	2.252149582	-0.419165766	-0.690009137	-1.407727378	-1.141357422	0.353027344	0.653320313	878	-45.71428566	-65.04814786	-128.9729977	-63
17517	0	0.505004883	-0.044189453	0.057861328	0.999417305	-0.006759644	-0.013266563	-0.03068924	12.62512207	-1.104736328	1.446533203	-0.338047754	-0.663456871	-1.534759695	-1.149169922	0.285888672	0.722167969	878.06	-43.05653466	-68.6403659	-132.6923973	-63
17518	0	0.332056046	-0.00813961	0.063245773	0.9992733	-0.015208244	-0.018015862	-0.029932022	8.301401138	-0.203490257	1.581144333	-0.760596329	-0.901011178	-1.496963466	-1.146972656	0.211669922	0.779541016	878.02	-41.47512491	-72.52299532	-136.2000615	-63
17519	0	0.391723633	-0.03503418	0.063903809	0.999362946	-0.007273674	-0.019962311	-0.028648376	9.79309082	-0.875854492	1.597595215	-0.363760854	-0.998327283	-1.432722701	-1.128417969	0.130371094	0.854003906	877.9	-38.44749762	-76.43380901	-140.1965597	-72
17520	0	0.447201729	-0.015534401	0.056336403	0.999546051	-0.009906769	-0.01677227	-0.022943497	11.18004322	-0.388360023	1.408410072	-0.495413255	-0.838740172	-1.147348102	-1.101318359	0.074951172	0.920166016	878.02	-34.92284111	-79.59473931	-144.9438337	-71
17521	0	0.394042969	-0.062866211	0.079528809	0.999557495	-0.015604973	-0.015041351	-0.02035141	9.851074219	-1.571655273	1.988220215	-0.780363636	-0.752178407	-1.017720467	-1.07421875	0.015136719	0.980712891	878.02	-29.93572186	-82.34605915	-151.7844637	-66
17522	0	0.333697319	-0.07671833	0.092412949	0.999754906	-0.004005432	-0.012636185	-0.017683029	8.342432976	-1.91795826	2.310323715	-0.200287912	-0.631860676	-0.884223445	-1.049072266	-0.040039063	1.026855469	878.02	-19.27807255	-84.54808154	-162.9652391	-68
17523	0	0.312561035	-0.073852539	0.09588623	0.99984169	0.000386238	-0.011161804	-0.013816833	7.814025879	-1.846313477	2.397155762	0.019312921	-0.558119573	-0.690878023	-1.025634766	-0.060302734	1.075927734	877.96	-2.597201946	-86.13849079	-179.6451949	-69
17524	0	0.320156097	-0.074268341	0.091653824	0.999913216	-0.001645088	-0.007347107	-0.010785103	8.003902435	-1.856708527	2.291345596	-0.082256782	-0.36736594	-0.539270692	-1.002685547	-0.065185547	1.114990234	877.96	19.80136027	-86.7992498	157.739926	-65
17525	0	0.310913086	-0.074645996	0.093017578	0.999936104	-0.006660461	-0.004477501	-0.007919312	7.772827148	-1.866149902	2.325439453	-0.333030128	-0.223879789	-0.395973966	-0.986816406	-0.067626953	1.157470703	878.02	38.25910632	-86.79345419	138.5054472	-73
17526	0	0.341137886	-0.081325531	0.097222328	0.999959946	-0.006508827	-0.002560616	-0.005459785	8.528447151	-2.033138275	2.430558205	-0.325445631	-0.128032457	-0.272992855	-0.977783203	-0.069824219	1.185791016	878.02	49.09287474	-86.55212879	126.9206875	-69
17527	0	0.428466797	-0.083251953	0.093505859	0.999979019	-0.005763054	0.000564575	-0.002861023	10.71166992	-2.081298828	2.337646484	-0.288154698	0.028228956	-0.143052142	-0.969482422	-0.059082031	1.21875	878.06	51.10661502	-86.23878957	124.2548118	-64
17528	0	0.502403259	-0.064763069	0.096001625	0.999952316	-0.009155273	0.003346443	-5.72E-06	12.56008148	-1.619076729	2.400040627	-0.457770921	0.167324809	-0.000286107	-0.975585938	-0.038818359	1.245849609	877.98	45.88032388	-85.9651493	128.4558133	-62
17529	0	0.498718262	-0.064453125	0.094482422	0.99988842	-0.012969971	0.006726265	0.002983093	12.46795654	-1.611328125	2.362060547	-0.648522571	0.336325713	0.149160191	-0.990722656	-0.020751953	1.256835938	878.06	34.12671686	-85.57514976	138.7659216	-66
17530	0	0.48360157	-0.052645683	0.087734222	0.999865532	-0.012210846	0.00761795	0.007825851	12.09003925	-1.316142082	2.19335556	-0.61056961	0.380914562	0.391310077	-1.010498047	0.004150391	1.264404297	878.02	17.98791898	-85.16345138	153.5697053	-69
17531	0	0.44744873	-0.05279541	0.065063477	0.999817848	-0.005710602	0.012326241	0.013378143	11.18621826	-1.319885254	1.626586914	-0.285547393	0.616349374	0.668947699	-1.035644531	0.046630859	1.256591797	877.96	-0.873359178	-83.96140261	171.87341	-64
17532	0	0.340071678	-0.029459	0.037294388	0.999623299	0.010964394	0.013620377	0.021125793	8.501791954	-0.736474991	0.932359695	0.548288417	0.681104216	1.056422112	-1.071777344	0.133300781	1.231201172	877.98	-17.09202327	-82.00152388	-170.5104917	-63
17533	0	0.418762207	-0.00592041	0.016540527	0.99932766	0.021266937	0.013852119	0.02645874	10.46905518	-0.148010254	0.413513184	1.063585237	0.692761236	1.323233579	-1.098144531	0.272216797	1.184082031	877.96	-27.97696225	-79.34166345	-157.0001701	-66
17534	0	0.459442139	0.006264687	0.021785736	0.999306679	0.018770218	0.014173508	0.02885437	11.48605347	0.156617165	0.544643402	0.938727792	0.708839165	1.44305193	-1.10546875	0.425537109	1.103271484	877.96	-34.89289593	-76.21327052	-147.7091673	-65
17535	0	0.418579102	-0.022338867	0.044128418	0.999451637	0.012290955	0.013634682	0.027545929	10.46447754	-0.55847168	1.103210449	0.614660017	0.681858648	1.377548101	-1.102539063	0.556396484	1.020751953	877.96	-39.18105292	-73.05694798	-141.7855858	-64
17536	0	0.346928596	-0.039890289	0.04999733	0.999546051	0.010887146	0.012389183	0.025198936	8.673214912	-0.997257233	1.249933243	0.544439623	0.619552833	1.260137365	-1.089111328	0.660644531	0.939697266	878.02	-41.72174722	-70.10092888	-137.779095	-65
17537	0	0.301635742	-0.048217773	0.043334961	0.999593735	0.012185097	0.010429382	0.023544312	7.540893555	-1.205444336	1.083374023	0.609337277	0.521539678	1.177374869	-1.065429688	0.744873047	0.860107422	878.02	-43.32380495	-67.39808452	-134.5516609	-67
17538	0	0.291192055	-0.057003021	0.036208153	0.999622345	0.018721581	0.00832653	0.018286705	7.279801369	-1.425075531	0.905203819	0.936196735	0.416378875	0.914450227	-1.031738281	0.817871094	0.777832031	877.96	-43.13849396	-65.27290072	-132.4025085	-79
17539	0	0.298400879	-0.028076172	0.025024414	0.999670982	0.019935608	0.007367134	0.014347076	7.460021973	-0.701904297	0.625610352	0.996889665	0.368397085	0.717432459	-1	0.877685547	0.699707031	877.94	-42.1548704	-63.54838543	-130.9517968	-64
17540	0	0.340263367	-0.017987251	0.026495934	0.999910355	0.009271622	0.004292488	0.008543015	8.506584167	-0.449681282	0.662398338	0.463594791	0.21463075	0.427163355	-0.967285156	0.913330078	0.620361328	877.98	-41.84711274	-62.54436455	-130.095194	-60
17541	0	0.440124512	-0.032409668	0.028381348	0.999999046	-0.000335693	0.001137733	0.000164032	11.00311279	-0.810241699	0.709533691	-0.016784672	0.056886687	0.008201601	-0.940673828	0.914306641	0.575927734	877.98	-41.71815882	-62.45947615	-130.2735055	-72
17542	0	0.456830025	-0.029040337	0.03080368	0.999885559	-0.011002541	-0.003516197	-0.009718895	11.42075062	-0.726008415	0.77009201	-0.550147925	-0.175816538	-0.485963206	-0.9296875	0.883056641	0.557861328	878.06	-41.84758492	-63.53542817	-131.5318374	-60
17543	0	0.468139648	-0.077331543	0.058227539	0.999574661	-0.013678551	-0.013881683	-0.021663666	11.70349121	-1.933288574	1.455688477	-0.684024362	-0.694182432	-1.083336639	-0.932128906	0.819580078	0.577636719	877.98	-41.68812411	-66.41518425	-133.4286853	-57
17544	0	0.500061035	-0.101027489	0.071557045	0.999405861	-0.003056526	-0.015205383	-0.030770302	12.50152588	-2.525687218	1.788926125	-0.152856569	-0.760419697	-1.538819715	-0.945556641	0.734619141	0.611083984	877.98	-38.01516598	-70.05787192	-137.7583667	-56
17545	0	0.410095215	-0.014404297	0.052612305	0.999402046	-0.009960175	-0.015006065	-0.029495239	10.25238037	-0.360107422	1.315307617	-0.498107915	-0.750452704	-1.475055686	-0.963134766	0.645507813	0.633789063	878.02	-33.84813733	-73.48326543	-143.3484382	-54
17546	0	0.325627327	-0.049309731	0.079975128	0.999249458	-0.010967255	-0.02363205	-0.028663635	8.140683174	-1.232743263	1.999378204	-0.548499948	-1.181898149	-1.433540386	-0.971435547	0.549316406	0.670654297	877.98	-29.72102515	-77.5634569	-148.9146635	-52
17547	0	0.45526123	-0.088134766	0.08404541	0.999263763	0.015713692	-0.02355957	-0.025852203	11.38153076	-2.203369141	2.101135254	0.785877246	-1.178267372	-1.292927134	-0.959472656	0.463867188	0.722900391	878	-19.32972445	-81.29861093	-157.6741948	-48
17548	0	0.42387867	-0.003802299	0.078597069	0.999660492	0.011295319	-0.018439293	-0.014484406	10.59696674	-0.095057487	1.96492672	0.564829711	-0.922068765	-0.724302064	-0.948974609	0.428466797	0.742431641	878.06	-9.518039909	-83.79746796	-166.2785681	-50
17549	0	0.342773438	-0.039428711	0.087585449	0.999874115	-0.001223564	-0.014518738	-0.006175995	8.569335938	-0.985717773	2.18963623	-0.061180761	-0.725967193	-0.308812634	-0.929199219	0.395019531	0.766845703	878.06	-3.829156978	-85.55854526	-172.1425281	-49
17550	0	0.308343887	-0.024372101	0.080864906	0.999944687	-0.000617027	-0.010298729	-0.001709938	7.708597183	-0.609302521	2.021622658	-0.030851927	-0.514945834	-0.085498461	-0.909667969	0.370361328	0.78515625	878	-1.271422757	-86.76453284	-174.7840735	-49
17551	0	0.334594727	-0.037719727	0.079711914	0.999905586	-0.011627197	-0.007231712	-0.000434875	8.364868164	-0.942993164	1.992797852	-0.58137805	-0.361596928	-0.021744455	-0.892333984	0.343505859	0.797851563	878.06	-1.339451707	-87.6075238	-176.0512861	-50
17552	0	0.334070206	-0.060580254	0.092118263	0.999921799	-0.011634827	-0.003567696	0.002784729	8.351755142	-1.51450634	2.302956581	-0.581756445	-0.178389415	0.139240067	-0.881835938	0.308349609	0.817382813	877.92	-11.40813536	-87.99037668	-167.3121914	-50
17553	0	0.324829102	-0.049560547	0.101257324	0.999970436	-0.004432678	-0.000834465	0.006137848	8.120727539	-1.239013672	2.531433105	-0.221636054	-0.041723655	0.306895363	-0.873779297	0.283935547	0.824707031	877.92	-30.35101036	-87.83858233	-148.8684638	-51
17554	0	0.360488892	-0.05436039	0.096411705	0.999974251	-0.000953674	0.00173378	0.006829262	9.01222229	-1.359009743	2.410292625	-0.047684118	0.086689726	0.341465966	-0.871337891	0.279296875	0.824951172	878.02	-41.96628279	-87.22510116	-137.3526323	-49
17555	0	0.430053711	-0.05078125	0.080871582	0.999957085	-0.00560379	0.004887581	0.005455017	10.75134277	-1.26953125	2.021789551	-0.280193486	0.244382508	0.272754721	-0.87109375	0.274902344	0.825195313	877.98	-43.66856501	-86.39931221	-136.288981	-49
17556	0	0.464377403	-0.07373333	0.082976341	0.999898911	-0.012115479	0.006670952	0.003182411	11.60943508	-1.843333244	2.074408531	-0.605794263	0.33355879	0.159125902	-0.879638672	0.257568359	0.815673828	877.98	-41.2565875	-85.59413906	-140.0952183	-50
17557	0	0.489929199	-0.071289063	0.080322266	0.999912262	-0.009493828	0.00888443	0.00246048	12.24822998	-1.782226563	2.008056641	-0.474705247	0.444234463	0.123027578	-0.899658203	0.234130859	0.812988281	878	-37.15439471	-84.62668856	-145.3013963	-49
17558	0	0.430722237	-0.053794861	0.0887146	0.999890327	-0.011566162	0.008052826	0.004372597	10.76805592	-1.344871521	2.21786499	-0.578329095	0.40265591	0.218637772	-0.924560547	0.217529297	0.807128906	878.02	-36.79611908	-83.58473123	-146.9908822	-49
17559	0	0.418334961	-0.103027344	0.08026123	0.999938965	-0.002699852	0.01008606	0.003410339	10.45837402	-2.575683594	2.006530762	-0.134995314	0.50431312	0.170520397	-0.947509766	0.202880859	0.801025391	877.98	-34.10238165	-82.40853305	-150.0146835	-48
17560	0	0.417934418	-0.078080177	0.043370247	0.999773979	0.015545845	0.012529373	0.007187843	10.44836044	-1.952004433	1.084256172	0.777350602	0.626515687	0.359419145	-0.978027344	0.214599609	0.775878906	878.02	-31.632126	-80.74637443	-150.7112237	-45
17561	0	0.465576172	-0.002380371	0.013916016	0.999645233	0.01339817	0.016876221	0.015655518	11.6394043	-0.059509277	0.347900391	0.669987756	0.843910835	0.78286846	-1.009765625	0.261474609	0.736572266	878.02	-32.6474223	-78.14791138	-148.1155675	-45
17562	0	0.42947197	-0.003133774	0.032858849	0.999591827	0.000769615	0.015847206	0.023733139	10.73679924	-0.078344345	0.821471214	0.038485987	0.792467973	1.186818196	-1.039306641	0.314697266	0.685058594	877.9	-37.46797462	-75.09442452	-143.0681523	-44
17563	0	0.401123047	-0.055847168	0.05480957	0.999585152	0.002929688	0.013569832	0.025230408	10.02807617	-1.396179199	1.370239258	0.146504629	0.678585406	1.261694813	-1.052978516	0.374267578	0.646728516	877.98	-41.31268541	-72.05666473	-138.706986	-48
17564	0	0.350470543	-0.064742088	0.05567646	0.999544144	0.00787735	0.012309074	0.026379585	8.761763573	-1.618552208	1.391911507	0.393927217	0.615547046	1.319179269	-1.057128906	0.435546875	0.598876953	877.96	-43.95320283	-68.97323279	-134.9455656	-45
17565	0	0.299377441	-0.061340332	0.054016113	0.999492645	0.011219978	0.011089325	0.027648926	7.484436035	-1.533508301	1.350402832	0.561093705	0.554559933	1.382679873	-1.049804688	0.507324219	0.555419922	877.98	-45.86840246	-65.8406392	-131.4747741	-48
17566	0	0.305296898	-0.060213089	0.041799545	0.999483109	0.015849113	0.009955406	0.026115417	7.632422447	-1.505327225	1.044988632	0.792592081	0.497855992	1.305995641	-1.031005859	0.580810547	0.502441406	878.02	-46.61862661	-62.89841344	-128.6233734	-46
17567	0	0.337402344	-0.041320801	0.034240723	0.999679565	0.01359272	0.008354187	0.019634247	8.435058594	-1.03302002	0.856018066	0.679708524	0.417753923	0.981817097	-1.011474609	0.643554688	0.447509766	878	-46.61612863	-60.62030716	-126.8520179	-46
17568	0	0.335510254	-0.037780762	0.03692627	0.99990654	0.002437592	0.006371498	0.011829376	8.387756348	-0.944519043	0.923156738	0.121883366	0.318584807	0.591487195	-0.989257813	0.688476563	0.405517578	877.94	-46.99420405	-59.15331895	-126.0838184	-47
17569	0	0.372924805	-0.053527832	0.045166016	0.999984741	-0.004591942	0.001613617	0.002338409	9.323120117	-1.338195801	1.129150391	-0.229598207	0.080681239	0.116921039	-0.975341797	0.701171875	0.386474609	878.02	-47.57359952	-58.85861085	-126.0122401	-46
17570	0	0.404465675	-0.048487663	0.049637794	0.999911308	-0.009910583	-0.003211975	-0.008229256	10.11164188	-1.212191582	1.240944862	-0.495543733	-0.160603473	-0.411474872	-0.974609375	0.687988281	0.384765625	877.96	-48.07716295	-59.83955025	-126.7355897	-48
17571	0	0.398498535	-0.098693848	0.077514648	0.999630928	-0.010520935	-0.011591911	-0.022201538	9.962463379	-2.467346191	1.937866211	-0.526111476	-0.579666877	-1.110213484	-0.982910156	0.648925781	0.405517578	877.92	-47.95472264	-62.65872868	-128.2365134	-48
17572	0	0.4874506	-0.104024887	0.078784943	0.999447823	-0.003527641	-0.013080597	-0.030328751	12.18626499	-2.600622177	1.969623566	-0.176414517	-0.65415018	-1.516716537	-0.999267578	0.583740234	0.434814453	877.98	-45.63323131	-66.26345706	-131.2452628	-48
17573	0	0.460876465	-0.02722168	0.065673828	0.999352455	-0.016120911	-0.011710167	-0.029945374	11.52191162	-0.680541992	1.641845703	-0.806219435	-0.585634669	-1.49759171	-1.019775391	0.503417969	0.459716797	878.08	-43.73427106	-69.681527	-135.27758	-49
17574	0	0.315740585	-0.058947563	0.093119621	0.999382973	-0.013134003	-0.017885208	-0.027197838	7.893514633	-1.473689079	2.327990532	-0.656835063	-0.894444146	-1.360171301	-1.03125	0.420654297	0.501464844	877.96	-42.56220896	-73.35695793	-138.0986908	-53
17575	0	0.439147949	-0.08380127	0.082336426	0.999454498	0.010048866	-0.018558502	-0.025390625	10.97869873	-2.095031738	2.058410645	0.502534642	-0.928093778	-1.269762012	-1.031005859	0.348632813	0.535888672	878.02	-38.15428036	-76.90921105	-141.4764922	-57
17576	0	0.458429337	-0.025403976	0.065056801	0.999735832	0.002196312	-0.014122009	-0.017959595	11.46073341	-0.635099411	1.626420021	0.109825242	-0.706162474	-0.898058598	-1.02734375	0.3046875	0.562255859	878	-34.41710071	-79.47797716	-145.0416655	-50
17577	0	0.394470215	-0.044494629	0.080078125	0.999774933	-0.01299572	-0.011528015	-0.012149811	9.861755371	-1.112365723	2.001953125	-0.649834674	-0.576443938	-0.60753605	-1.016357422	0.258300781	0.588378906	877.96	-33.23282978	-81.39268792	-147.7536678	-51
17578	0	0.349905014	-0.045435905	0.089464188	0.999861717	-0.010068893	-0.00951767	-0.009162903	8.747625351	-1.135897636	2.236604691	-0.503467827	-0.475905371	-0.458166213	-1.0078125	0.212158203	0.608886719	878.06	-32.01232754	-82.91500381	-150.1543347	-49
17579	0	0.341796875	-0.06427002	0.096252441	0.999894142	-0.009548187	-0.00820446	-0.007217407	8.544921875	-1.606750488	2.406311035	-0.477426119	-0.410237405	-0.360883027	-0.999511719	0.174804688	0.628662109	878.02	-30.9328246	-84.18065812	-152.3442732	-50
17580	0	0.34366703	-0.069606781	0.100018501	0.999950409	-0.006864548	-0.004929543	-0.005168915	8.591675758	-1.740169525	2.500462532	-0.343233001	-0.246481159	-0.258449967	-0.991455078	0.143798828	0.639404297	877.98	-28.94689206	-84.99149829	-155.1309263	-48
17581	0	0.32244873	-0.062072754	0.102478027	0.999978065	-0.004905701	-0.002596855	-0.003582001	8.061218262	-1.551818848	2.561950684	-0.245286818	-0.129843703	-0.179101339	-0.985595703	0.119628906	0.643798828	877.98	-26.43173653	-85.46469301	-158.2194548	-48
17582	0	0.325220108	-0.053894043	0.09292984	0.999996185	-0.000628471	-0.000666618	-0.00236702	8.130502701	-1.347351074	2.323246002	-0.031423602	-0.033330953	-0.11835111	-0.982421875	0.099609375	0.642578125	877.94	-23.33912062	-85.66078438	-161.3943909	-47
17583	0	0.366760254	-0.050598145	0.081237793	0.999996185	-0.001402855	0.001037598	-0.001804352	9.169006348	-1.264953613	2.030944824	-0.07014282	0.051879937	-0.090217685	-0.981933594	0.090820313	0.637451172	878.02	-19.99133536	-85.63374059	-164.9112307	-46
17584	0	0.419201851	-0.063459396	0.076189995	0.999979973	-0.004982948	0.003330231	-0.001858711	10.48004627	-1.586484909	1.90474987	-0.24914905	0.166512628	-0.092936172	-0.983398438	0.073242188	0.624755859	877.92	-16.12935626	-85.33864347	-169.3559406	-45
17585	0	0.445617676	-0.056152344	0.067626953	0.999958992	-0.006916046	0.005700111	0.000301361	11.14044189	-1.403808594	1.690673828	-0.345806942	0.285009389	0.015068256	-0.989257813	0.051269531	0.615478516	878	-14.9851158	-84.69827429	-171.298693	-45
17586	0	0.427409172	-0.041545868	0.065954208	0.999890327	-0.012138367	0.006984711	0.004808426	10.6852293	-1.038646698	1.648855209	-0.606940515	0.349248297	0.240430081	-0.993164063	0.038330078	0.602294922	878.14	-19.02431189	-83.76840342	-168.6350295	-45
17587	0	0.485107422	-0.090332031	0.074768066	0.999895096	-0.012290001	0.005744934	0.00504303	12.12768555	-2.258300781	1.86920166	-0.614521502	0.287256734	0.252160294	-1.004150391	0.025390625	0.581054688	877.96	-22.85633018	-82.94282771	-166.1929309	-44
17588	0	0.355377197	-0.083803177	0.075890541	0.999932289	-0.000573158	0.008749008	0.007562637	8.884429932	-2.095079422	1.897263527	-0.028658554	0.437460184	0.378140316	-1.012451172	0.005615234	0.565917969	877.96	-25.58185596	-81.66685872	-163.5094203	-43
17589	0	0.359863281	-0.055175781	0.056945801	0.999778748	0.013661385	0.009037018	0.01316452	8.996582031	-1.379394531	1.42364502	0.683119514	0.451884154	0.658274469	-1.019287109	0.016601563	0.536865234	877.98	-29.2581943	-80.04556288	-158.2011472	-43
17590	0	0.455115318	-0.018157959	0.031220436	0.999580383	0.018204689	0.011218071	0.019510269	11.37788296	-0.453948975	0.780510902	0.910361614	0.56098191	0.975649741	-1.027587891	0.052001953	0.514404297	878.02	-33.41091786	-77.77961202	-151.8441472	-41
17591	0	0.477233887	-0.027099609	0.042602539	0.999574661	0.016720772	0.010772705	0.021324158	11.93084717	-0.677490234	1.065063477	0.836157123	0.538711622	1.066359053	-1.038330078	0.098144531	0.485351563	878	-36.81393252	-75.36397677	-146.3749005	-41
17592	0	0.448338509	-0.026528358	0.05330658	0.999535561	0.019303322	0.010229111	0.021238327	11.20846272	-0.663208961	1.33266449	0.965315485	0.511534701	1.06208072	-1.046875	0.139892578	0.465332031	878.06	-38.77808361	-72.95103186	-142.0329284	-42
17593	0	0.388549805	-0.00567627	0.053833008	0.999523163	0.014733315	0.011039734	0.024784088	9.713745117	-0.141906738	1.345825195	0.736782807	0.552074424	1.239401359	-1.05078125	0.188232422	0.435791016	878.06	-41.12074575	-70.1667442	-137.7825195	-42
17594	0	0.362992287	-0.014722824	0.041784286	0.999516487	0.013557434	0.010280609	0.026003838	9.074807167	-0.368070602	1.044607162	0.677980854	0.514113225	1.300401235	-1.057128906	0.236572266	0.415039063	877.96	-43.16004802	-67.3085487	-133.925933	-43
17595	0	0.376281738	-0.017883301	0.022827148	0.999617577	0.009571075	0.010529518	0.023685455	9.407043457	-0.44708252	0.570678711	0.478614687	0.526542921	1.184423512	-1.059082031	0.291259766	0.399169922	877.98	-44.52991792	-64.58041324	-131.2214569	-45
17596	0	0.349082947	-0.029120445	0.027853012	0.999775887	0.005805016	0.008174896	0.018595695	8.727073669	-0.728011131	0.696325302	0.290272374	0.408775224	0.929853953	-1.060791016	0.337402344	0.384033203	877.92	-45.51740011	-62.43964435	-129.3699074	-45
17597	0	0.340087891	-0.037719727	0.042419434	0.999880791	0.003608704	0.004925728	0.014141083	8.502197266	-0.942993164	1.06048584	0.180442316	0.246296132	0.7070821	-1.057373047	0.374511719	0.372070313	878	-46.40530457	-60.91669591	-127.8846974	-48
17598	0	0.34206295	-0.05832386	0.056196213	0.999961853	0.005272865	1.05E-05	0.006843567	8.551573753	-1.458096504	1.404905319	0.263646544	0.000524527	0.342182601	-1.061035156	0.403076172	0.369873047	878.06	-46.7254125	-60.38533601	-126.8154603	-52
17599	0	0.389831543	-0.071899414	0.058288574	0.999980927	0.004841805	-0.003688812	-0.000732422	9.745788574	-1.797485352	1.457214355	0.242091742	-0.184441768	-0.036621323	-1.059570313	0.416503906	0.385986328	878.08	-46.58258345	-60.78054864	-126.3308135	-54
17600	0	0.381965637	-0.080205917	0.066752434	0.999927521	0.002086639	-0.007956505	-0.008789063	9.54914093	-2.005147934	1.668810844	0.10433449	-0.39783485	-0.439463739	-1.059814453	0.414306641	0.403320313	878.06	-46.25026299	-62.18668882	-126.4208678	-49
17601	0	0.374755859	-0.097229004	0.079589844	0.999778748	0.005539894	-0.012809753	-0.015727997	9.368896484	-2.430725098	1.989746094	0.277015121	-0.640534879	-0.786457804	-1.063964844	0.392822266	0.425292969	878.08	-45.16845349	-64.55207491	-126.9061905	-47
17602	0	0.419775963	-0.086030006	0.080060959	0.99965477	0.007084846	-0.014380455	-0.020777702	10.49439907	-2.15075016	2.001523972	0.354282999	-0.719105309	-1.039004401	-1.065673828	0.362304688	0.462402344	877.9	-43.05527356	-67.44546822	-128.3153352	-44
17603	0	0.408691406	-0.056335449	0.082641602	0.999624252	-0.00228405	-0.013343811	-0.023822784	10.21728516	-1.40838623	2.066040039	-0.114216795	-0.667274068	-1.191288323	-1.066894531	0.322998047	0.497070313	877.92	-40.63181657	-70.4609965	-131.1709598	-42
17604	0	0.383605957	-0.025665283	0.081754684	0.999599457	-0.014104843	-0.010548592	-0.022150993	9.590148926	-0.64163208	2.043867111	-0.705336327	-0.527500008	-1.107697557	-1.062744141	0.266113281	0.530273438	877.98	-38.57802322	-73.06679336	-135.0154808	-40
17605	0	0.359130859	-0.023803711	0.080932617	0.999477386	-0.022578239	-0.009437561	-0.021114349	8.978271484	-0.595092773	2.02331543	-1.129108619	-0.471960249	-1.055901366	-1.062988281	0.202636719	0.563964844	878.02	-36.59935393	-75.45540161	-139.740245	-40
17606	0	0.349444389	-0.04593277	0.088903427	0.999601364	-0.018651009	-0.008608818	-0.019343376	8.736109734	-1.148319244	2.222585678	-0.932674214	-0.430498038	-0.967297187	-1.055664063	0.132568359	0.592285156	877.96	-33.37834454	-77.58698565	-145.2416527	-39
17607	0	0.401123047	-0.06072998	0.095031738	0.999782562	-0.010924339	-0.007724762	-0.015983582	10.02807617	-1.518249512	2.375793457	-0.546256527	-0.386266073	-0.799236961	-1.049072266	0.075439453	0.613769531	878.06	-29.01580235	-79.33959637	-150.970171	-40
17608	0	0.453099251	-0.057683945	0.103266716	0.999880791	-0.004832268	-0.006364822	-0.013144493	11.32748127	-1.442098618	2.5816679	-0.241622918	-0.318253672	-0.657250579	-1.040527344	0.033447266	0.634033203	877.96	-23.49236356	-80.70006023	-157.140368	-40
17609	0	0.415893555	-0.028442383	0.104614258	0.999938965	-0.005698204	-0.004272461	-0.008384705	10.39733887	-0.71105957	2.615356445	-0.284915949	-0.213627356	-0.419243686	-1.032714844	0.002685547	0.656005859	878.02	-19.27990389	-81.53844247	-162.0634897	-41
17610	0	0.386359215	-0.041606903	0.097762108	0.999976158	-0.003629684	-0.002994537	-0.004908562	9.65898037	-1.040172577	2.444052696	-0.181485621	-0.149728021	-0.245429977	-1.029541016	-0.017089844	0.663330078	878.02	-16.39934025	-82.06280448	-165.3917525	-42
17611	0	0.394836426	-0.031982422	0.082458496	0.999995232	-0.001674652	-0.000613213	-0.002407074	9.870910645	-0.799560547	2.061462402	-0.08373273	-0.030660675	-0.120353879	-1.024414063	-0.030517578	0.672607422	878.12	-14.47748616	-82.22486723	-167.5234505	-43
17612	0	0.377931595	-0.028558731	0.085435867	0.999993324	-0.003323555	0.000692368	-1.62E-05	9.448289871	-0.713968277	2.135896683	-0.166178069	0.034618444	-0.000810625	-1.023925781	-0.039306641	0.667724609	877.98	-14.38157945	-82.16598822	-168.0017711	-43
17613	0	0.370605469	-0.023010254	0.085510254	0.999994278	0.000721931	0.002098083	0.002410889	9.265136719	-0.575256348	2.137756348	0.036096637	0.104904363	0.120544649	-1.026367188	-0.0390625	0.667724609	878.08	-15.45604174	-81.87795359	-166.8306167	-44
17614	0	0.369147301	-0.007100105	0.079072952	0.999979973	-0.000202179	0.003223419	0.005314827	9.228682518	-0.177502632	1.976823807	-0.010109013	0.161171998	0.265743061	-1.029296875	-0.028076172	0.669921875	877.98	-18.4166077	-81.36225967	-163.856101	-44
17615	0	0.365905762	-0.015930176	0.075744629	0.999974251	0.001174927	0.003281593	0.006141663	9.147644043	-0.398254395	1.893615723	0.058746826	0.16408103	0.307085682	-1.034179688	-0.019287109	0.663818359	878.12	-21.41636986	-80.78469207	-160.6794338	-44
17616	0	0.395271301	-0.011174202	0.067313194	0.999965668	0.004026413	0.003127098	0.006429672	9.881782532	-0.279355049	1.682829857	0.201322907	0.156356659	0.32148722	-1.041992188	-0.001464844	0.662597656	878.06	-23.94523533	-80.18728563	-157.6422466	-43
17617	0	0.407226563	-0.0078125	0.063964844	0.999966621	0.003890991	0.002930641	0.006492615	10.18066406	-0.1953125	1.599121094	0.194551697	0.146533668	0.324634302	-1.044921875	0.016357422	0.655761719	878.08	-26.25410791	-79.58685774	-154.8380875	-43
17618	0	0.384482384	-0.000914574	0.062728882	0.999970436	0.004022598	0.002590179	0.00601387	9.612059593	-0.022864342	1.568222046	0.201131893	0.129510247	0.300696472	-1.050537109	0.036132813	0.657226563	878.08	-28.11059891	-79.02927739	-152.4722044	-43
17619	0	0.358764648	-0.003417969	0.058654785	0.999978065	0.003063202	0.002038002	0.00535202	8.969116211	-0.085449219	1.466369629	0.153161172	0.101900817	0.267602894	-1.055908203	0.053955078	0.653076172	878	-29.69843441	-78.55142673	-150.4871722	-43
17620	0	0.380642891	-0.014080048	0.051674843	0.999988556	0.002374649	0.001307487	0.003781319	9.516072273	-0.35200119	1.291871071	0.118732881	0.06537461	0.189066615	-1.056396484	0.069335938	0.651855469	877.98	-30.69165207	-78.2288823	-149.1854189	-43
17621	0	0.383300781	-0.023803711	0.056152344	0.999992371	0.003540993	0.000686646	0.001480103	9.582519531	-0.595092773	1.403808594	0.177050085	0.034332362	0.074005314	-1.059326172	0.078125	0.656982422	877.96	-30.60619776	-78.1005273	-148.8490908	-43
17622	0	0.359743118	-0.031181335	0.065714836	0.999983788	0.005582809	-0.000728607	0.000677109	8.993577957	-0.779533386	1.642870903	0.279141968	-0.036430554	0.03385562	-1.062011719	0.084960938	0.656738281	877.98	-30.30384818	-78.15867661	-148.4972723	-43
17623	0	0.357299805	-0.042541504	0.063110352	0.999961853	0.008477211	-0.001594543	-0.000247955	8.932495117	-1.063537598	1.577758789	0.423865811	-0.079728162	-0.01239792	-1.060058594	0.097900391	0.655517578	877.92	-29.4724562	-78.35614213	-148.3460612	-43
17624	0	0.353301048	-0.040058136	0.060353279	0.999967575	0.0079422	-0.001233101	-0.000441551	8.832526207	-1.0014534	1.508831978	0.397114274	-0.06165571	-0.022077799	-1.058349609	0.108886719	0.663085938	877.96	-28.50255408	-78.52845931	-148.3990752	-43
17625	0	0.3671875	-0.044799805	0.063842773	0.999970436	0.007324219	-0.001917839	-3.81E-05	9.1796875	-1.119995117	1.596069336	0.366214436	-0.095892869	-0.001907367	-1.056396484	0.119873047	0.662109375	878.08	-27.98566899	-78.747538	-148.0623603	-43
17626	0	0.429278374	-0.043596268	0.066991806	0.99996376	0.008065224	-0.0023489	0.000496864	10.73195934	-1.089906693	1.674795151	0.403265944	-0.117446378	0.024843509	-1.052246094	0.128662109	0.672607422	878.06	-27.78264799	-78.9821175	-147.3216199	-42
17627	0	0.497924805	-0.044494629	0.067749023	0.999967575	0.007294655	-0.002609253	0.002086639	12.44812012	-1.112365723	1.693725586	0.364736656	-0.130464046	0.10433309	-1.050537109	0.139404297	0.677246094	878.06	-28.59934194	-79.15678671	-145.6338597	-43
17628	0	0.414160728	-0.012770653	0.074681282	0.999984741	0.005086899	8.49E-05	-0.002123833	10.35401821	-0.319266319	1.867032051	0.254346229	0.004243872	-0.106192173	-1.044433594	0.156982422	0.684082031	878.06	-26.68399764	-79.28498763	-146.9787278	-42
17629	0	0.322509766	-0.0078125	0.071960449	0.999998093	0.001858711	0.000385284	7.63E-05	8.062744141	-0.1953125	1.79901123	0.092935618	0.019264233	0.0038147	-1.051025391	0.152587891	0.676269531	878.02	-26.2248977	-79.2640169	-147.223477	-42
17630	0	0.359451294	-0.022865295	0.05419445	0.999949455	0.006679535	-0.000240326	0.007395744	8.986282349	-0.571632385	1.354861259	0.333982277	-0.012016495	0.369793341	-1.049316406	0.163574219	0.683837891	878.02	-29.24333457	-78.91712334	-143.3696823	-42
17631	0	0.414306641	-0.022827148	0.049255371	0.999991417	-0.00138092	-6.39E-05	0.003772736	10.35766602	-0.570678711	1.231384277	-0.069046206	-0.003194818	0.188637287	-1.045410156	0.185546875	0.678955078	877.98	-31.14842091	-78.73171854	-141.5787675	-42
17632	0	0.417813301	-0.047521591	0.064332962	0.999996185	-0.002529144	0.000349998	-0.000362396	10.44533253	-1.18803978	1.608324051	-0.126457355	0.017499943	-0.018119832	-1.048095703	0.189941406	0.684326172	878.02	-30.9996941	-78.74457558	-142.0150133	-42
17633	0	0.38470459	-0.034606934	0.068969727	0.999997139	0.001914978	7.34E-05	-0.001419067	9.617614746	-0.86517334	1.724243164	0.095748992	0.00367165	-0.070953436	-1.047851563	0.185546875	0.681884766	877.9	-29.89337989	-78.8445676	-142.9123952	-41
17634	0	0.370337486	-0.037110329	0.060317039	0.999998093	0.001137733	-0.000966072	0.000494003	9.258437157	-0.927758217	1.507925987	0.056886696	-0.048303624	0.024700175	-1.050048828	0.183349609	0.679443359	877.96	-30.13779004	-78.93635002	-142.5258525	-41
17635	0	0.380187988	-0.047485352	0.052490234	0.999999046	0.000530243	-0.000792503	0.000160217	9.504699707	-1.187133789	1.312255859	0.02651215	-0.039625174	0.008010866	-1.047851563	0.187744141	0.681640625	877.96	-30.24191863	-79.02973508	-142.3512271	-41
17636	0	0.389228821	-0.046089172	0.052714348	0.999999046	-0.000123024	-0.000478745	-0.000534058	9.73072052	-1.152229309	1.317858696	-0.0061512	-0.023937227	-0.026702883	-1.048095703	0.185546875	0.687744141	877.98	-29.9773213	-79.13181165	-142.6293247	-41
17637	0	0.390014648	-0.045532227	0.059997559	0.999997139	-0.002220154	-0.000548363	-0.000263214	9.750366211	-1.138305664	1.499938965	-0.111007788	-0.027418161	-0.013160717	-1.047851563	0.183349609	0.685058594	878.06	-30.11580289	-79.22467522	-142.7408742	-41
17638	0	0.384368896	-0.042499542	0.063109398	0.999985695	-0.005186081	-0.00062561	-0.000910759	9.609222412	-1.062488556	1.577734947	-0.259305262	-0.031280664	-0.045538162	-1.047851563	0.178955078	0.691162109	877.96	-30.28126647	-79.36185193	-143.1698522	-41
17639	0	0.378173828	-0.051513672	0.065307617	0.999979019	-0.006281853	-0.000556946	-0.000652313	9.454345703	-1.287841797	1.63269043	-0.31409474	-0.027847477	-0.03261588	-1.044921875	0.16796875	0.694580078	878	-30.69005991	-79.47642669	-143.4800925	-41
17640	0	0.382840157	-0.060125351	0.063821793	0.999991417	-0.003922462	-0.000314713	-0.000816345	9.571003914	-1.503133774	1.595544815	-0.196123651	-0.015735669	-0.040817371	-1.044677734	0.156982422	0.695556641	878.02	-30.66957404	-79.57561567	-143.9532236	-41
17641	0	0.394348145	-0.052124023	0.06427002	0.999996185	-0.002394676	-8.39E-05	-0.000232697	9.858703613	-1.303100586	1.606750488	-0.119733926	-0.004196171	-0.011634838	-1.044189453	0.150390625	0.696044922	878.02	-30.71515965	-79.61699649	-144.181332	-41
17642	0	0.386013985	-0.036524773	0.068058014	0.999999046	-0.000465393	-0.000831604	0.000969887	9.650349617	-0.913119316	1.701450348	-0.02326966	-0.041580213	0.048494354	-1.044189453	0.148193359	0.693359375	878.08	-31.42790649	-79.66017296	-143.506775	-41
17643	0	0.381835938	-0.042419434	0.071044922	0.999997139	-0.001407623	-0.000952721	0.001102448	9.545898438	-1.06048584	1.776123047	-0.070381213	-0.047636065	0.055122413	-1.044189453	0.150390625	0.696044922	878.02	-32.36706958	-79.70431037	-142.7110098	-41
17644	0	0.387957573	-0.050606728	0.067173004	0.999998093	-0.001432419	-0.000388145	0.000152588	9.698939323	-1.26516819	1.679325104	-0.071620968	-0.01940728	0.007629397	-1.041748047	0.148193359	0.696044922	878	-32.61992229	-79.74982201	-142.6158661	-41
17645	0	0.388122559	-0.057128906	0.065429688	0.999995232	-0.002735138	5.82E-05	-0.001003265	9.703063965	-1.428222656	1.635742188	-0.136757091	0.002908711	-0.05016334	-1.041748047	0.145996094	0.69921875	878	-32.25454219	-79.82209025	-143.2999692	-41
17646	0	0.388538361	-0.058851242	0.06667614	0.999997139	-0.001497269	0.000297546	-0.001243591	9.713459015	-1.471281052	1.666903496	-0.074863482	0.014877329	-0.062179606	-1.041503906	0.137207031	0.702636719	878	-31.53245611	-79.88323002	-144.2034832	-41
17647	0	0.388061523	-0.05657959	0.066772461	0.999999046	0.000247955	0.000664711	-0.000461578	9.701538086	-1.414489746	1.669311523	0.012397768	0.033235554	-0.023078921	-1.043701172	0.1328125	0.700439453	878	-30.91659195	-79.858939	-144.7963306	-41
17648	0	0.380824089	-0.055707932	0.065169334	0.999998093	0.001321793	0.000634193	0.000476837	9.520602226	-1.392698288	1.62923336	0.066089656	0.031709684	0.023841867	-1.046142578	0.135253906	0.700195313	878.06	-30.71116826	-79.78078355	-144.8469463	-41
17649	0	0.386779785	-0.058410645	0.061584473	0.999996185	0.002236366	0.000400543	0.000789642	9.669494629	-1.460266113	1.539611816	0.111818421	0.02002718	0.039482155	-1.046142578	0.139648438	0.699951172	877.98	-30.65459333	-79.70651208	-144.6396682	-41
17650	0	0.385484695	-0.053058624	0.064021111	0.999994278	0.003230095	0.000349998	0.000846863	9.637117386	-1.326465607	1.600527763	0.161505049	0.017499957	0.042343219	-1.043945313	0.141601563	0.696777344	877.94	-30.53498371	-79.63318528	-144.3811114	-41
17651	0	0.37298584	-0.044189453	0.063537598	0.999990463	0.004067421	-0.000320435	0.001209259	9.324645996	-1.104736328	1.588439941	0.203371662	-0.016021777	0.060463134	-1.046386719	0.148193359	0.690673828	878.02	-30.72899949	-79.60419875	-143.7060228	-41
17652	0	0.390599251	-0.052674294	0.063713074	0.999993324	0.003054619	-0.000713348	0.001317978	9.76498127	-1.316857338	1.592826843	0.152731236	-0.035667488	0.065899022	-1.044433594	0.156982422	0.692626953	877.92	-31.22608119	-79.60605025	-142.8403987	-41
17653	0	0.391296387	-0.037353516	0.061645508	0.999995232	0.002857208	-0.000300407	0.000648499	9.782409668	-0.933837891	1.541137695	0.142860619	-0.015020392	0.032424974	-1.044677734	0.163574219	0.689208984	878.06	-31.25498185	-79.60639806	-142.4736589	-41
17654	0	0.380901337	-0.044431686	0.065453529	0.999999046	-4.39E-05	-0.000392914	0.000325203	9.522533417	-1.11079216	1.636338234	-0.002193451	-0.019645692	0.016260148	-1.042480469	0.16796875	0.688720703	878.02	-31.47579304	-79.63436669	-142.2495679	-41
17655	0	0.381713867	-0.054321289	0.06842041	0.999998093	0.001824379	-0.000656128	-6.87E-05	9.54284668	-1.358032227	1.710510254	0.091219006	-0.032806417	-0.00343323	-1.042724609	0.16796875	0.691650391	878.06	-31.36206718	-79.71061086	-142.1486063	-41
17656	0	0.387906075	-0.045126915	0.063132286	0.999998093	0.001527786	-0.000546455	-0.000340462	9.697651863	-1.128172874	1.578307152	0.076389348	-0.027322782	-0.017023094	-1.040283203	0.169921875	0.69140625	878.06	-31.10028832	-79.79189571	-142.2325928	-41
17657	0	0.385253906	-0.044311523	0.065490723	0.999999046	-0.000900269	-0.00039196	-0.000171661	9.631347656	-1.107788086	1.637268066	-0.045013435	-0.01959801	-0.00858307	-1.040283203	0.169921875	0.69140625	878.08	-31.15796556	-79.84745245	-142.274637	-41
17658	0	0.384104729	-0.054984093	0.067896843	0.999999046	-0.00069046	-0.000322342	0.000712395	9.602618217	-1.374602318	1.697421074	-0.034523017	-0.016117099	0.035619742	-1.037841797	0.167724609	0.694335938	878.08	-31.65606606	-79.842491	-141.8452549	-41
17659	0	0.390014648	-0.059082031	0.068603516	0.999999046	0.00043869	-0.000136375	0.000583649	9.750366211	-1.477050781	1.715087891	0.021934511	-0.006818772	0.029182437	-1.040283203	0.169921875	0.69140625	878.06	-31.8957879	-79.82568143	-141.5468773	-41
17660	0	0.384482384	-0.049402237	0.066892624	0.999999046	0.000145912	0.000637054	0.000746727	9.612059593	-1.235055923	1.672315598	0.00729561	0.031852727	0.037336356	-1.038085938	0.172119141	0.691162109	878.02	-31.99678515	-79.72292159	-141.4235098	-41
17661	0	0.381530762	-0.053100586	0.069091797	0.999996185	0.00206852	0.000324249	0.001289368	9.538269043	-1.327514648	1.727294922	0.103426084	0.01621248	0.064468449	-1.038085938	0.174316406	0.690917969	877.98	-32.27008924	-79.61649655	-140.9014408	-41
17662	0	0.389296532	-0.049071312	0.066370964	0.999993324	0.003269196	0.000509262	0.001327515	9.732413292	-1.226782799	1.659274101	0.163460124	0.025463158	0.066375873	-1.038330078	0.178710938	0.693359375	878.02	-32.35812949	-79.48900327	-140.427843	-41
17663	0	0.385925293	-0.043518066	0.063964844	0.999995232	0.00283432	0.000592232	0.001022339	9.648132324	-1.08795166	1.599121094	0.141716226	0.029611634	0.051117024	-1.041015625	0.1875	0.689941406	878	-32.30507819	-79.37191692	-140.1478536	-41
17664	0	0.382346153	-0.042477608	0.063435555	0.999998093	0.001413345	0.000443459	0.00101757	9.558653831	-1.061940193	1.585888863	0.070667305	0.02217294	0.050878552	-1.038818359	0.191894531	0.686767578	878.06	-32.45764608	-79.26930437	-139.8242073	-41
17665	0	0.382202148	-0.046142578	0.063659668	0.999999046	-0.000259399	0.000367165	0.000968933	9.555053711	-1.153564453	1.591491699	-0.012969973	0.018358234	0.048446664	-1.041259766	0.194091797	0.683837891	878.06	-32.79778145	-79.17656622	-139.5046741	-41
17666	0	0.383218765	-0.050092697	0.063059807	0.999999046	3.81E-06	0.000226974	0.000537872	9.580469131	-1.252317429	1.576495171	0.000190735	0.011348725	0.026893617	-1.0390625	0.198486328	0.683349609	878.06	-32.93452001	-79.12361231	-139.361199	-41
17667	0	0.387817383	-0.051635742	0.062438965	0.999999046	-0.000453949	0.000153542	0.000133514	9.69543457	-1.290893555	1.560974121	-0.02269745	0.007677079	0.00667572	-1.0390625	0.200683594	0.683105469	878.02	-32.9467384	-79.10266802	-139.3978918	-41
17668	0	0.387845039	-0.048074722	0.064466476	0.999999046	-0.000437737	0.00019455	-0.000175476	9.696125984	-1.201868057	1.611661911	-0.021886827	0.009727478	-0.008773804	-1.041259766	0.198486328	0.677734375	878.14	-32.7906833	-79.09679542	-139.6043661	-41
17669	0	0.383483887	-0.049621582	0.064208984	0.999997139	-0.002113342	0.000294685	-0.000396729	9.587097168	-1.240539551	1.605224609	-0.105667197	0.01473428	-0.019836441	-1.038818359	0.194091797	0.680664063	878.08	-32.68541506	-79.09464441	-139.9547769	-41
17670	0	0.382081032	-0.052044868	0.067386627	0.999994278	-0.003252983	0.000144005	-0.000542641	9.552025795	-1.301121712	1.68466568	-0.16264945	0.007200254	-0.027132084	-1.041015625	0.189697266	0.684082031	878.08	-32.6874801	-79.1155499	-140.3288451	-41
17671	0	0.383666992	-0.058776855	0.069763184	0.999995232	-0.002742767	-3.34E-05	-0.000606537	9.591674805	-1.469421387	1.74407959	-0.137138547	-0.001668932	-0.030326883	-1.040771484	0.183105469	0.678955078	878.06	-32.65792188	-79.15679366	-140.6757358	-41
17672	0	0.385637283	-0.061017036	0.07062149	0.999999046	-0.001067162	-5.72E-05	-0.000573158	9.640932083	-1.525425911	1.765537262	-0.053358091	-0.002861024	-0.02865792	-1.04296875	0.178710938	0.682128906	878.02	-32.46235122	-79.197365	-140.9963543	-41
17673	0	0.383789063	-0.059570313	0.070495605	0.999999046	0.000267029	5.05E-05	-0.000312805	9.594726563	-1.489257813	1.762390137	0.013351441	0.002527237	-0.015640259	-1.04296875	0.178710938	0.682128906	878.06	-32.21262339	-79.21054599	-141.2163753	-41
17674	0	0.382229805	-0.056303024	0.070990562	0.999999046	0.001016617	0.000221252	4.86E-05	9.555745125	-1.407575607	1.774764061	0.05083085	0.011062624	0.00243187	-1.042724609	0.176513672	0.679443359	878.06	-32.00814102	-79.18427043	-141.3032513	-41
17675	0	0.3828125	-0.055725098	0.069274902	0.999998093	0.001362801	0.000305176	0.000514984	9.5703125	-1.393127441	1.731872559	0.068140055	0.015258795	0.025749216	-1.04296875	0.178710938	0.682128906	878.02	-31.97658303	-79.12090365	-141.1736542	-41
17676	0	0.382779121	-0.051541328	0.067877769	0.999998093	0.001541138	0.000618935	0.000681877	9.569478035	-1.288533211	1.696944237	0.077056926	0.030946748	0.034093875	-1.04296875	0.185302734	0.673095703	878.06	-31.91057628	-79.01654868	-141.0578795	-41
17677	0	0.382751465	-0.051818848	0.068847656	0.999999046	0.000476837	0.000260353	0.000728607	9.568786621	-1.295471191	1.721191406	0.023841861	0.013017656	0.036430364	-1.04296875	0.185302734	0.676025391	878.08	-32.10125022	-78.94379289	-140.8052202	-41
17678	0	0.382944107	-0.052618027	0.067935944	0.999999046	0.00050354	0.000238419	0.000606537	9.573602676	-1.315450668	1.69839859	0.025177005	0.01192093	0.030326847	-1.04296875	0.185302734	0.676025391	877.98	-32.23399966	-78.88015499	-140.6085495	-41
17679	0	0.383728027	-0.051818848	0.068603516	0.999999046	0.000320435	0.00011158	0.000511169	9.593200684	-1.295471191	1.715087891	0.01602173	0.005578995	0.025558473	-1.045410156	0.1875	0.676025391	878.06	-32.37950479	-78.83426297	-140.4201019	-41
17680	0	0.381584167	-0.051737785	0.069514275	0.999999046	-0.000214577	8.39E-05	0.000563622	9.539604187	-1.293444633	1.737856865	-0.010728837	0.004196167	0.028181078	-1.045654297	0.189697266	0.672851563	878.02	-32.61976947	-78.78737394	-140.1973978	-41
17681	0	0.382324219	-0.055114746	0.068481445	0.999999046	0.000160217	-0.000136375	0.00075531	9.558105469	-1.377868652	1.712036133	0.008010865	-0.006818772	0.037765507	-1.043212891	0.189697266	0.675537109	878.06	-32.97840684	-78.74924457	-139.8104345	-41
17682	0	0.384397507	-0.054513931	0.069186211	0.999999046	-3.81E-06	-0.000114441	0.000701904	9.609937668	-1.362848282	1.729655266	-0.000190735	-0.005722046	0.035095218	-1.043457031	0.194091797	0.678222656	878.08	-33.32189115	-78.71158927	-139.457767	-41
17683	0	0.381958008	-0.054626465	0.070129395	0.999999046	5.72E-05	-4.48E-05	0.001010895	9.548950195	-1.365661621	1.753234863	0.002861023	-0.002241135	0.050544747	-1.043457031	0.194091797	0.680908203	877.98	-33.78167382	-78.64687621	-138.9796724	-41
17684	0	0.382340431	-0.055758476	0.070649147	0.999999046	0.000403404	-8.20E-05	0.001055717	9.55851078	-1.393961906	1.766228676	0.020170216	-0.0041008	0.052785885	-1.043701172	0.198486328	0.674804688	877.98	-34.23027505	-78.58170508	-138.4721646	-41
17685	0	0.383422852	-0.054138184	0.070922852	0.999999046	0.000518799	-7.15E-05	0.001068115	9.585571289	-1.35345459	1.773071289	0.025939948	-0.00357628	0.053405774	-1.041259766	0.198486328	0.677734375	878.06	-34.66279974	-78.51366538	-137.9678544	-41
17686	0	0.392100334	-0.05710125	0.070009232	0.999999046	-0.000289917	0.000198364	0.000445366	9.802508354	-1.427531242	1.750230789	-0.01449585	0.009918213	0.022268296	-1.041503906	0.200683594	0.677490234	878.06	-34.81004656	-78.46014525	-137.8488699	-41
17687	0	0.383544922	-0.054748535	0.072998047	0.999999046	-0.000236511	0.000580788	3.05E-05	9.588623047	-1.368713379	1.824951172	-0.011825562	0.029039385	0.001525879	-1.0390625	0.200439453	0.674560547	878.06	-34.63776066	-78.39735427	-138.0498193	-41
17688	0	0.381810188	-0.056331635	0.071704865	0.999999046	0.000720024	0.000490189	0.000171661	9.545254707	-1.408290863	1.792621613	0.03600121	0.024509433	0.00858307	-1.041503906	0.202880859	0.674316406	878.02	-34.45163232	-78.33349558	-138.1530696	-41
17689	0	0.386779785	-0.055114746	0.069824219	0.999999046	0.000808716	0.00073719	0.000102997	9.669494629	-1.377868652	1.745605469	0.040435799	0.03685952	0.005149842	-1.043701172	0.202880859	0.674560547	878	-34.14939575	-78.2504663	-138.3648287	-41
17690	0	0.381723404	-0.055083275	0.068582535	0.999999046	0.000572205	0.000772476	-2.77E-05	9.543085098	-1.377081871	1.71456337	0.028610234	0.038623816	-0.001382828	-1.046142578	0.202880859	0.671875	878.06	-33.80835016	-78.17211366	-138.6440258	-41
17691	0	0.380737305	-0.058044434	0.06817627	0.999999046	0.000228882	0.000283241	-2.67E-05	9.518432617	-1.45111084	1.704406738	0.011444092	0.014162064	-0.001335144	-1.043945313	0.205078125	0.671630859	878.06	-33.65997844	-78.13994304	-138.7662887	-41
17692	0	0.380212784	-0.056222916	0.069331169	0.999999046	0.000134468	-0.000162125	-0.000164032	9.505319595	-1.405572891	1.733279228	0.006723404	-0.008106232	-0.008201599	-1.048339844	0.203125	0.669189453	878.08	-33.59602188	-78.15880959	-138.813729	-41
17693	0	0.383117676	-0.05670166	0.072265625	0.999999046	-0.000675201	-0.000315666	-0.000343323	9.577941895	-1.417541504	1.806640625	-0.033760075	-0.015783312	-0.01716614	-1.045898438	0.202880859	0.666015625	878.08	-33.59015983	-78.20346911	-138.8962858	-41
17694	0	0.381797791	-0.057146072	0.070664406	0.999999046	-0.000396729	-0.00047493	-4.77E-06	9.544944763	-1.42865181	1.766610146	-0.019836427	-0.023746492	-0.000238419	-1.045898438	0.200683594	0.666259766	877.96	-33.75684527	-78.24163736	-138.7702982	-41
17695	0	0.382995605	-0.05682373	0.072814941	0.999999046	-0.000202179	-0.000502586	1.14E-05	9.574890137	-1.420593262	1.820373535	-0.010108948	-0.025129319	0.000572205	-1.043701172	0.200683594	0.674804688	877.98	-33.91868738	-78.28105599	-138.6265024	-41
17696	0	0.384227753	-0.058449745	0.073624611	0.999999046	0.000329018	-0.000455856	0.000136375	9.605693817	-1.461243629	1.840615273	0.016450883	-0.022792817	0.006818772	-1.046142578	0.200683594	0.674804688	878.02	-34.06410323	-78.30759779	-138.437459	-41
17697	0	0.383728027	-0.053894043	0.069763184	0.999999046	0.001316071	-0.000227928	0.000278473	9.593200684	-1.347351074	1.74407959	0.065803548	-0.011396412	0.013923649	-1.046142578	0.200683594	0.674804688	878.08	-34.09134048	-78.30324062	-138.2538268	-41
17698	0	0.382510185	-0.051847458	0.07039547	0.999999046	0.00078392	-0.000205994	0.000228882	9.562754631	-1.296186447	1.759886742	0.039196019	-0.010299684	0.011444093	-1.043945313	0.205078125	0.671630859	878.08	-34.14951493	-78.29990083	-138.1001776	-41
17699	0	0.384094238	-0.0546875	0.068786621	0.999999046	0.00088501	-0.000365257	0.000385284	9.602355957	-1.3671875	1.719665527	0.044250496	-0.018262866	0.019264225	-1.043945313	0.205078125	0.674316406	877.98	-34.31757335	-78.30144917	-137.8229703	-41
17700	0	0.388375282	-0.052304268	0.067556381	0.999999046	0.000803947	-0.000139236	-0.000161171	9.709382057	-1.307606697	1.688909531	0.040197377	-0.006961823	-0.008058549	-1.043945313	0.205078125	0.674316406	878.06	-34.17453139	-78.31692497	-137.8729235	-41
17701	0	0.383422852	-0.051330566	0.068786621	0.999999046	-0.000476837	-5.25E-05	-0.000366211	9.585571289	-1.28326416	1.719665527	-0.023841859	-0.002622605	-0.018310548	-1.043945313	0.205078125	0.671630859	877.98	-34.05663255	-78.3373633	-138.046715	-41
17702	0	0.383164406	-0.053984642	0.06832695	0.999999046	-7.25E-05	-0.000175476	-0.0002985	9.579110146	-1.349616051	1.708173752	-0.003623962	-0.008773804	-0.014925003	-1.043945313	0.207275391	0.668457031	878.02	-33.96181164	-78.36506438	-138.1492515	-41
17703	0	0.383666992	-0.052246094	0.066650391	0.999999046	-0.0001297	-8.68E-05	-0.000320435	9.591674805	-1.306152344	1.666259766	-0.006484985	-0.004339218	-0.016021729	-1.046142578	0.203125	0.677490234	877.96	-33.83572507	-78.38578106	-138.291344	-41
17704	0	0.383405685	-0.050553322	0.066508293	0.999998093	-0.001489639	-9.63E-05	-0.00037384	9.585142136	-1.263833046	1.662707329	-0.074481994	-0.004816057	-0.018692024	-1.043701172	0.200683594	0.680419922	878.08	-33.84346397	-78.4109322	-138.4555835	-41
17705	0	0.38458252	-0.056945801	0.069030762	0.999997139	-0.002037048	-0.000113487	-0.000293732	9.614562988	-1.42364502	1.725769043	-0.101852489	-0.005674366	-0.014686595	-1.041259766	0.198486328	0.674804688	878.02	-33.9575673	-78.4325106	-138.5749026	-41
17706	0	0.380970001	-0.057376862	0.070479393	0.999998093	-0.001803398	-0.000256538	-0.000214577	9.524250031	-1.434421539	1.761984825	-0.090169957	-0.012826927	-0.010728842	-1.043457031	0.196289063	0.677978516	878.06	-34.12766386	-78.46241939	-138.6098975	-40
17707	0	0.384216309	-0.06048584	0.069152832	0.999998093	-0.001395226	-0.000492096	0.000102997	9.605407715	-1.512145996	1.728820801	-0.069761302	-0.024604806	0.005149843	-1.041015625	0.194091797	0.677978516	878.08	-34.47548328	-78.49390483	-138.4159033	-41
17708	0	0.384515762	-0.061369896	0.069273949	0.999999046	-0.000275612	-0.000413895	7.92E-05	9.612894058	-1.534247398	1.731848717	-0.013780594	-0.020694734	0.003957749	-1.043457031	0.191894531	0.681152344	877.98	-34.66184828	-78.51908599	-138.2562273	-41
17709	0	0.383972168	-0.057189941	0.069091797	0.999999046	0.00038147	-0.000273705	0.0001297	9.599304199	-1.429748535	1.727294922	0.019073487	-0.013685227	0.006484986	-1.041015625	0.191894531	0.681152344	878.08	-34.75247519	-78.52749577	-138.1172962	-41
17710	0	0.383628845	-0.056199074	0.069411278	0.999999046	0.000228882	-0.000236511	0.000335693	9.59072113	-1.404976845	1.735281944	0.011444092	-0.011825562	0.016784669	-1.041015625	0.189697266	0.681152344	878.02	-34.94437145	-78.51866814	-137.8932905	-41
17711	0	0.384155273	-0.057250977	0.069396973	0.999999046	0.000640869	-0.000254631	0.000385284	9.603881836	-1.431274414	1.734924316	0.03204346	-0.012731553	0.019264223	-1.043457031	0.191894531	0.678222656	878.08	-35.11789634	-78.50793533	-137.6394212	-40
17712	0	0.384209633	-0.053857803	0.068841934	0.999999046	0.000763893	-0.000139236	0.000285149	9.605240822	-1.346445084	1.721048355	0.038194661	-0.006961823	0.014257433	-1.041259766	0.196289063	0.68359375	878.08	-35.19304061	-78.49281367	-137.471016	-41
17713	0	0.383666992	-0.054138184	0.068664551	0.999999046	0.000465393	-0.000197411	0.000156403	9.591674805	-1.35345459	1.71661377	0.023269654	-0.00987053	0.00782013	-1.041259766	0.194091797	0.683837891	878.08	-35.26159133	-78.49153066	-137.3450068	-41
17714	0	0.387032509	-0.056943893	0.067342758	0.999999046	0.000959396	-0.000150681	-8.58E-06	9.675812721	-1.423597336	1.683568954	0.047969826	-0.007534028	-0.000429154	-1.041259766	0.196289063	0.677734375	878.08	-35.18301463	-78.4967157	-137.3108733	-40
17715	0	0.383239746	-0.051330566	0.068115234	0.999999046	0.00082016	-0.000220299	0.000202179	9.580993652	-1.28326416	1.702880859	0.041008001	-0.01101494	0.010108949	-1.0390625	0.200683594	0.683105469	878.06	-35.23912948	-78.49451911	-137.1551628	-41
17716	0	0.383673668	-0.054552078	0.065958977	0.999999046	0.000515938	-9.54E-05	0.000414848	9.591841698	-1.363801956	1.648974419	0.025796892	-0.004768372	0.020742418	-1.036621094	0.198242188	0.683105469	878.02	-35.38705443	-78.46652426	-136.9423003	-41
