Counter	Temperature	VelInc_X	VelInc_Y	VelInc_Z	OriInc_w	OriInc_x	OriInc_y	OriInc_z	Acc_X	Acc_Y	Acc_Z	Gyr_X	Gyr_Y	Gyr_Z	Mag_X	Mag_Y	Mag_Z	Pressure	Roll	Pitch	Yaw	RSSI
22025	0	0.363769531	-0.059814453	0.124328613	0.999983788	-0.005512238	0.000172615	0.000778198	9.094238281	-1.495361328	3.108215332	-0.275613302	0.008630797	0.038910113	-0.763183594	0.578369141	0.643554688	883.94	-28.23747989	-68.15234788	-134.5052601	-62
22026	0	0.371302605	-0.072869301	0.129278183	0.999990463	-0.004330635	-0.000557899	6.48E-05	9.282565117	-1.821732521	3.231954575	-0.216532442	-0.027895062	0.003242503	-0.765380859	0.571777344	0.649902344	883.96	-28.80466187	-68.20603419	-134.4130352	-62
22027	0	0.368530273	-0.07434082	0.133544922	0.999996185	-0.002635002	-0.000190735	0.000259399	9.213256836	-1.858520508	3.338623047	-0.131750262	-0.009536754	0.012969986	-0.762939453	0.567382813	0.653076172	883.96	-29.17659323	-68.2115008	-134.3227319	-62
22028	0	0.362802505	-0.081283569	0.134689331	0.999998093	0.001564026	0.000344276	0.00082016	9.070062637	-2.032089233	3.367233276	0.078201336	0.017213831	0.041008018	-0.762939453	0.567382813	0.653076172	883.96	-29.13357755	-68.13135448	-134.1656587	-62
22029	0	0.364746094	-0.075561523	0.127990723	0.999990463	0.00414753	6.48E-05	0.001247406	9.118652344	-1.889038086	3.199768066	0.207377129	0.003242503	0.062370495	-0.762939453	0.569580078	0.649902344	884	-28.94009487	-68.05535256	-133.8582128	-62
22030	0	0.367687225	-0.062067032	0.12641716	0.999990463	0.003975868	0.000452995	0.001741409	9.192180634	-1.551675797	3.160429001	0.198794042	0.022649837	0.087070741	-0.758544922	0.580322266	0.643310547	884	-28.8338303	-67.91361933	-133.4726318	-62
22031	0	0.36895752	-0.061950684	0.12512207	0.999998093	0.001675606	0.000217438	0.000858307	9.223937988	-1.54876709	3.128051758	0.083780339	0.010871894	0.04291537	-0.758789063	0.586914063	0.639892578	884.06	-28.80289368	-67.84487355	-133.286207	-63
22032	0	0.369039536	-0.062348366	0.125490189	0.999999046	0.001280785	-0.000341415	-0.000286102	9.225988388	-1.558709145	3.137254715	0.06403925	-0.017070775	-0.014305119	-0.756347656	0.586669922	0.639648438	884.02	-28.60955161	-67.89578896	-133.3249666	-62
22033	0	0.364135742	-0.060852051	0.126098633	0.999999046	-0.001022339	-0.00032711	1.91E-05	9.103393555	-1.52130127	3.15246582	-0.051116953	-0.016355518	0.000953674	-0.759033203	0.589111328	0.642578125	883.96	-28.75276228	-67.92873689	-133.2824722	-62
22034	0	0.365011215	-0.063451767	0.130002022	0.999998093	-0.001635551	-0.000477791	0.00044632	9.12528038	-1.586294174	3.250050545	-0.081777615	-0.023889554	0.022315991	-0.756347656	0.586669922	0.639648438	883.96	-29.09209629	-67.95311721	-133.1024732	-62
22035	0	0.364685059	-0.065307617	0.131408691	0.999997139	-0.002063751	-0.000563622	1.91E-05	9.117126465	-1.63269043	3.285217285	-0.10318764	-0.028181098	0.000953675	-0.758789063	0.584716797	0.642822266	883.86	-29.38652999	-68.00957924	-133.0242265	-63
22036	0	0.367331505	-0.073431015	0.130508423	0.999990463	-0.004076004	-0.001036644	-0.00044632	9.183287621	-1.835775375	3.262710571	-0.203800809	-0.051832354	-0.022316046	-0.756347656	0.582519531	0.648681641	884.02	-29.8642033	-68.13917022	-132.991558	-63
22037	0	0.362976074	-0.074645996	0.135253906	0.999975204	-0.006728172	-0.000106812	-0.001678467	9.074401855	-1.866149902	3.381347656	-0.336411312	-0.005340619	-0.083924013	-0.756103516	0.573730469	0.657714844	883.9	-30.20903815	-68.24661296	-133.4258177	-63
22038	0	0.361379623	-0.061144829	0.143086433	0.999979019	-0.006367683	-0.000126839	0.000197411	9.034490585	-1.52862072	3.577160835	-0.318386325	-0.006341977	0.009870596	-0.758300781	0.562988281	0.664550781	883.94	-30.97808444	-68.24767299	-133.362938	-63
22039	0	0.35925293	-0.062072754	0.146240234	0.999993324	-0.003368378	0.000832558	-0.001026154	8.981323242	-1.551818848	3.656005859	-0.168419252	0.041627975	-0.05130779	-0.760498047	0.556640625	0.670898438	883.9	-30.95771726	-68.2257297	-133.7816109	-63
22040	0	0.369924545	-0.079655647	0.140521049	0.999995232	-0.000771523	0.001844406	-0.002295494	9.248113632	-1.991391182	3.513026237	-0.038576186	0.092220449	-0.114774881	-0.764892578	0.550292969	0.671630859	884.06	-30.18005246	-68.17605535	-134.6989012	-63
22041	0	0.365966797	-0.072937012	0.136962891	0.999994278	0.000355721	0.001605988	-0.002719879	9.149169922	-1.823425293	3.424072266	0.017786056	0.080299513	-0.135994187	-0.771728516	0.548339844	0.672119141	884	-29.20428783	-68.16844287	-135.690142	-63
22042	0	0.354876518	-0.068289757	0.131071091	0.999996185	0.002573967	-0.000432014	-0.000812531	8.871912956	-1.707243919	3.276777267	0.128698509	-0.02160075	-0.040626576	-0.773925781	0.548339844	0.672119141	884.06	-28.73385954	-68.25426834	-135.8679687	-63
22043	0	0.364624023	-0.061157227	0.116821289	0.999979973	0.005355835	-0.003085136	-8.01E-05	9.115600586	-1.528930664	2.920532227	0.267793453	-0.154257803	-0.004005458	-0.776611328	0.557128906	0.671630859	884	-28.49564906	-68.56700657	-135.453529	-63
22044	0	0.373142242	-0.052807808	0.112101555	0.99997139	0.004362106	-0.006028175	-0.000355721	9.328556061	-1.320195198	2.802538872	0.218107333	-0.301411555	-0.017786191	-0.774902344	0.565917969	0.676513672	883.94	-28.72609415	-69.19204333	-134.6576115	-63
22045	0	0.374023438	-0.053283691	0.111206055	0.999976158	-0.002311707	-0.005946159	-0.002262115	9.350585938	-1.332092285	2.780151367	-0.11558621	-0.297310239	-0.113106638	-0.765869141	0.572265625	0.686767578	884.06	-29.2329461	-69.91370694	-134.3653856	-63
22046	0	0.393564224	-0.07859993	0.101590157	0.999957085	-0.006311417	-0.005308151	-0.004179001	9.839105606	-1.964998245	2.539753914	-0.315575327	-0.265411343	-0.208953019	-0.761230469	0.563476563	0.701416016	883.96	-29.5918025	-70.67953908	-134.708994	-63
22047	0	0.385620117	-0.074035645	0.092224121	0.999979973	-0.004322052	-0.002840996	-0.003494263	9.64050293	-1.850891113	2.305603027	-0.216104003	-0.142050712	-0.174714269	-0.760986328	0.546142578	0.725585938	883.9	-29.51246312	-71.16180219	-135.2893803	-63
22048	0	0.362381935	-0.046417236	0.083043098	0.999910355	-0.012928009	-0.002921104	-0.001865387	9.059548378	-1.160430908	2.076077461	-0.646419753	-0.146059583	-0.093272133	-0.765136719	0.535400391	0.732421875	884.02	-30.9129226	-71.56151612	-135.3293449	-63
22049	0	0.343078613	-0.053649902	0.088806152	0.99971199	-0.023909569	-0.001548767	0.000705719	8.576965332	-1.341247559	2.220153809	-1.195592949	-0.077445772	0.03528933	-0.762207031	0.507324219	0.754394531	883.9	-34.11192821	-71.67131652	-134.7898106	-64
22050	0	0.331431389	-0.084283829	0.097361565	0.99969101	-0.024632454	-0.002131462	0.002371788	8.285784721	-2.107095718	2.434039116	-1.231749368	-0.106584066	0.118601598	-0.763183594	0.468261719	0.783203125	883.96	-38.00246638	-71.71197528	-133.6208094	-64
22051	0	0.369445801	-0.113708496	0.106872559	0.999931335	-0.010695457	-0.00352478	0.003032684	9.23614502	-2.842712402	2.671813965	-0.534784996	-0.176243009	0.151637654	-0.755615234	0.437744141	0.816650391	883.9	-40.79387724	-71.80560587	-131.9596993	-64
22052	0	0.398256302	-0.116465569	0.104614258	0.999983788	0.005255699	-0.002073288	0.000412941	9.956407547	-2.911639214	2.615356445	0.262786363	-0.103664953	0.020647159	-0.746337891	0.433105469	0.827880859	883.94	-40.75158036	-71.95566129	-131.3791144	-64
22053	0	0.401550293	-0.090881348	0.09362793	0.999930382	0.011741638	-0.000609398	-0.000118256	10.03875732	-2.272033691	2.340698242	0.587095438	-0.030470597	-0.005912917	-0.7421875	0.448242188	0.817871094	884.02	-39.49001323	-72.0186732	-131.3036735	-64
22054	0	0.399719238	-0.054496765	0.090294838	0.999909401	0.013246536	0.001907349	0.001197815	9.992980957	-1.362419128	2.257370949	0.662346744	0.095370302	0.059892549	-0.745361328	0.472167969	0.813232422	883.96	-37.8571855	-71.76406215	-131.4374743	-64
22055	0	0.378540039	-0.050231934	0.081481934	0.999933243	0.011128426	0.001415253	0.002418518	9.463500977	-1.25579834	2.03704834	0.556433494	0.070764188	0.120928558	-0.748291016	0.493896484	0.794433594	884.02	-36.92217923	-71.46982811	-131.0902159	-63
22056	0	0.380470276	-0.047729492	0.078371048	0.999974251	0.006546974	0.001577377	0.002085686	9.511756897	-1.193237305	1.959276199	0.327351421	0.078869519	0.10428515	-0.746826172	0.517822266	0.783935547	883.96	-36.39311868	-71.18652749	-130.8506014	-64
22057	0	0.372436523	-0.066467285	0.082702637	0.999997139	-0.000961304	0.001358986	0.001144409	9.310913086	-1.661682129	2.067565918	-0.048065218	0.067949341	0.057220498	-0.749267578	0.524414063	0.777832031	883.9	-36.51537102	-70.98853968	-130.8214283	-64
22058	0	0.383893013	-0.088393211	0.090229034	0.999997139	-0.002016068	0.000745773	-0.000998497	9.597325325	-2.209830284	2.255725861	-0.10080347	0.037288701	-0.049924897	-0.746826172	0.520019531	0.778076172	883.94	-36.30894944	-70.99301777	-131.2657411	-64
22059	0	0.371826172	-0.081481934	0.100402832	0.999987602	-0.004821777	0.000451088	-0.000621796	9.295654297	-2.03704834	2.510070801	-0.241089825	0.022554487	-0.031089906	-0.751220703	0.515869141	0.781494141	883.86	-36.58373824	-70.99885801	-131.5359132	-64
22060	0	0.366523743	-0.087661743	0.111791611	0.999977112	-0.006692886	0.000206947	0.000668526	9.163093567	-2.191543579	2.794790268	-0.334646843	0.010347444	0.033426537	-0.755371094	0.500732422	0.788818359	884.02	-37.46496527	-70.93803185	-131.4015679	-64
22061	0	0.373168945	-0.096374512	0.116027832	0.999998093	-0.001315117	0.000225067	0.001121521	9.329223633	-2.409362793	2.900695801	-0.065755877	0.011253363	0.056076078	-0.755126953	0.494140625	0.789306641	884	-37.84321186	-70.84222498	-131.1563821	-64
22062	0	0.367846489	-0.093087196	0.106733322	0.99998188	0.005672455	0.000802994	0.001401901	9.196162224	-2.327179909	2.668333054	0.283624386	0.040149922	0.070095469	-0.755371094	0.498535156	0.791748047	883.94	-37.37771489	-70.67361566	-130.9673833	-64
22063	0	0.366149902	-0.093017578	0.101379395	0.999973297	0.007180214	0.000423431	0.001296997	9.153747559	-2.325439453	2.534484863	0.359013893	0.021171758	0.064850431	-0.753417969	0.509277344	0.78515625	884.08	-36.79155015	-70.5469906	-130.7257237	-64
22064	0	0.373584747	-0.090350151	0.096831322	0.999973297	0.007099152	0.000212669	0.001114845	9.339618683	-2.258753777	2.420783043	0.354960638	0.01063356	0.055742744	-0.75390625	0.524414063	0.775390625	883.94	-36.2121974	-70.45291659	-130.4826851	-63
22065	0	0.369384766	-0.083190918	0.095275879	0.999985695	0.004943848	0.000447273	0.001853943	9.234619141	-2.079772949	2.381896973	0.24719354	0.022363767	0.092697577	-0.749755859	0.537353516	0.771240234	883.9	-36.02883654	-70.28785509	-130.076619	-64
22066	0	0.368584633	-0.077127457	0.097829819	0.999994278	0.002879143	0.000212669	0.001758575	9.214615822	-1.928186417	2.445745468	0.143957412	0.010633489	0.087928939	-0.75	0.550292969	0.755859375	883.96	-36.09928414	-70.15132003	-129.6417512	-63
22067	0	0.375183105	-0.082580566	0.096618652	0.999996185	0.002148628	0.000221252	0.00138092	9.379577637	-2.06451416	2.415466309	0.107431529	0.011062634	0.069046096	-0.745605469	0.558837891	0.749267578	884	-36.15340668	-70.0396379	-129.3067755	-63
22068	0	0.382658005	-0.084558487	0.098613739	0.999991417	0.003825188	-5.72E-05	0.001164436	9.566450119	-2.113962173	2.465343475	0.191259894	-0.002861031	0.058221972	-0.743408203	0.563232422	0.748779297	883.9	-36.01203149	-69.96874702	-128.9803167	-63
22069	0	0.379150391	-0.06640625	0.100097656	0.999995232	0.002700806	0.000565529	0.000659943	9.478759766	-1.66015625	2.502441406	0.135040464	0.028276481	0.032997176	-0.741210938	0.569580078	0.739746094	883.94	-35.75522255	-69.87500837	-128.9099727	-63
22070	0	0.374608994	-0.070446014	0.101266861	0.999998093	0.001469612	0.000426292	0.000304222	9.365224838	-1.76115036	2.531671524	0.073480636	0.02131463	0.015211112	-0.738769531	0.571533203	0.733642578	883.94	-35.5748089	-69.81856974	-128.9077291	-63
22071	0	0.372375488	-0.069702148	0.103637695	0.999999046	0.000160217	0.000844002	-3.43E-05	9.309387207	-1.742553711	2.590942383	0.008010865	0.042200094	-0.001716614	-0.741210938	0.575927734	0.725097656	883.96	-35.38290648	-69.74606148	-129.0706465	-63
22072	0	0.369211197	-0.076234818	0.105993271	0.999995232	-0.002243996	0.001813889	0.000142097	9.230279922	-1.905870438	2.649831772	-0.112199939	0.090694554	0.007104884	-0.740966797	0.571533203	0.725341797	883.9	-35.33886504	-69.57118875	-129.371138	-63
22073	0	0.36328125	-0.084106445	0.104187012	0.999994278	-0.002287865	0.002204895	0.000873566	9.08203125	-2.102661133	2.604675293	-0.114393441	0.110244951	0.043678363	-0.740722656	0.567138672	0.722900391	884	-35.41713977	-69.31121225	-129.5493216	-63
22074	0	0.370482445	-0.073659897	0.110308647	0.999984741	-0.004910469	0.002083778	0.001214027	9.262061119	-1.841497421	2.757716179	-0.245524677	0.104189439	0.060701673	-0.743164063	0.567382813	0.720214844	883.94	-35.89881792	-69.04032481	-129.6090615	-63
22075	0	0.376159668	-0.084777832	0.111877441	0.999993324	-0.002487183	0.002179146	0.001262665	9.403991699	-2.119445801	2.796936035	-0.124359391	0.108957518	0.063133372	-0.745117188	0.55859375	0.720947266	883.86	-36.0950142	-68.75753625	-129.688527	-63
22076	0	0.372138977	-0.069736481	0.112851143	0.999996185	9.92E-05	0.002274513	-0.000787735	9.303474426	-1.743412018	2.821278572	0.004959111	0.113725772	-0.039386787	-0.747314453	0.558837891	0.720947266	883.9	-35.49201036	-68.60359193	-130.3057706	-63
22077	0	0.377807617	-0.074401855	0.106811523	0.999995232	-0.001487732	0.00224781	-0.001174927	9.44519043	-1.860046387	2.670288086	-0.074386704	0.11239068	-0.058746423	-0.751708984	0.552246094	0.716064453	883.9	-34.99077221	-68.47617853	-131.013075	-63
22078	0	0.359010696	-0.076258659	0.108136177	0.999998093	-0.001729012	0.000632286	-0.000133514	8.97526741	-1.906466484	2.703404427	-0.086450626	0.031614322	-0.006675724	-0.753662109	0.545898438	0.711181641	883.9	-35.03778274	-68.43110153	-131.1659224	-63
22079	0	0.354187012	-0.080505371	0.115234375	0.999998093	-0.000369072	-0.001281738	0.000934601	8.854675293	-2.012634277	2.880859375	-0.018453606	-0.064086942	0.046730062	-0.753662109	0.543701172	0.714111328	883.96	-35.5022645	-68.49445454	-130.7084748	-63
22080	0	0.364525795	-0.083471298	0.117045403	0.999999046	0.00090313	-0.000555038	-2.48E-05	9.113144875	-2.086782455	2.926135063	0.045156487	-0.027751928	-0.001239777	-0.749023438	0.545654297	0.708007813	883.9	-35.47226852	-68.5529856	-130.6214556	-63
22081	0	0.376037598	-0.080993652	0.118896484	0.999999046	-7.25E-05	0.000638008	-0.00056839	9.400939941	-2.024841309	2.972412109	-0.003623963	0.03190041	-0.028419498	-0.748779297	0.543457031	0.7109375	883.92	-35.22269034	-68.53609043	-130.8923637	-63
22082	0	0.372071266	-0.083885193	0.122226715	0.999995232	-0.002389908	0.001249313	-0.000665665	9.301781654	-2.097129822	3.055667877	-0.119495546	0.062465748	-0.033283276	-0.750976563	0.537109375	0.708740234	883.86	-35.11330849	-68.4677426	-131.3001796	-63
22083	0	0.366760254	-0.077392578	0.124633789	0.999999046	-0.000617981	0.000477791	-0.00030899	9.169006348	-1.934814453	3.115844727	-0.030899051	0.023889544	-0.015449526	-0.750732422	0.530517578	0.709228516	883.96	-35.01413243	-68.44772601	-131.4868051	-63
22084	0	0.370592117	-0.081414223	0.130440712	0.999998093	0.001390457	0.000130653	-6.10E-05	9.264802933	-2.035355568	3.261017799	0.06952288	0.006532671	-0.003051759	-0.755126953	0.528320313	0.706787109	883.96	-34.80047492	-68.44335322	-131.557186	-63
22085	0	0.367736816	-0.087341309	0.12487793	0.999994278	0.003129005	0.001216888	-0.000331879	9.19342041	-2.183532715	3.121948242	0.156450568	0.060844537	-0.016593965	-0.752929688	0.532714844	0.703613281	883.94	-34.14532391	-68.35325221	-131.8851511	-63
22086	0	0.366211891	-0.080781937	0.122615814	0.999984741	0.005286217	0.001509666	0.000424385	9.155297279	-2.019548416	3.065395355	0.264312176	0.075483705	0.021219361	-0.755371094	0.537109375	0.697753906	883.98	-33.38153496	-68.18539567	-132.0710631	-63
22087	0	0.362304688	-0.075927734	0.119018555	0.999978065	0.006103516	0.001732826	0.001338959	9.057617188	-1.898193359	2.975463867	0.30517792	0.086641919	0.066948406	-0.755615234	0.545654297	0.685546875	883.96	-32.71426682	-67.93818389	-132.053375	-63
22088	0	0.366667747	-0.068863869	0.115272522	0.999984741	0.005125046	0.000956535	0.001448631	9.166693687	-1.721596718	2.881813049	0.256253539	0.047827	0.072431918	-0.755859375	0.556396484	0.673339844	883.92	-32.30747022	-67.75987577	-131.869993	-63
22089	0	0.363342285	-0.063293457	0.11517334	0.999998093	0.001595497	0.000724792	0.000553131	9.083557129	-1.582336426	2.879333496	0.079774901	0.036239644	0.027656571	-0.755859375	0.560791016	0.673095703	883.94	-32.12787137	-67.65976542	-131.8754988	-63
22090	0	0.366149902	-0.063563347	0.11962986	0.999998093	-0.001704216	-3.72E-05	-0.000185013	9.153747559	-1.589083672	2.990746498	-0.085210842	-0.001859666	-0.009250645	-0.755859375	0.562988281	0.667236328	883.94	-32.26411085	-67.6791568	-131.9351832	-63
22091	0	0.361694336	-0.071655273	0.126586914	0.999993324	-0.003376007	-0.000338554	-0.000823975	9.042358398	-1.791381836	3.164672852	-0.168800697	-0.016927754	-0.041198814	-0.755859375	0.55859375	0.673339844	883.92	-32.48509639	-67.76694825	-132.1077664	-63
22092	0	0.364175797	-0.080388069	0.134342194	0.999992371	-0.00359726	-0.00065136	-0.000982285	9.104394913	-2.009701729	3.35855484	-0.179863406	-0.032568056	-0.049114345	-0.7578125	0.547851563	0.677001953	883.96	-32.74069672	-67.89442984	-132.278544	-63
22093	0	0.366027832	-0.090820313	0.135375977	0.999999046	-0.000991821	-1.43E-05	-0.000831604	9.150695801	-2.270507813	3.384399414	-0.049591078	-0.000715256	-0.041580212	-0.759765625	0.541503906	0.677734375	883.96	-32.63648273	-67.95037008	-132.5224757	-63
22094	0	0.36521244	-0.094566345	0.132552147	0.999997139	0.002031326	0.00038147	0.000190735	9.130311012	-2.36415863	3.313803673	0.101566388	0.0190735	0.00953675	-0.757324219	0.5390625	0.677734375	883.96	-32.37009348	-67.90396926	-132.5773727	-63
22095	0	0.363769531	-0.082519531	0.12487793	0.999986649	0.005009651	0.000164032	0.000976563	9.094238281	-2.062988281	3.121948242	0.250483648	0.008201635	0.048828337	-0.760009766	0.545898438	0.680175781	884.02	-31.98373236	-67.83039337	-132.4014416	-63
22096	0	0.36200428	-0.070274353	0.123627663	0.999986649	0.004907608	-0.000390053	0.000921249	9.050107002	-1.756858826	3.090691566	0.245381428	-0.019502721	0.046062662	-0.760253906	0.554443359	0.670898438	883.86	-31.67800908	-67.81469002	-132.147396	-63
22097	0	0.366516113	-0.072937012	0.12286377	0.999994278	0.003056526	-0.000564575	0.000133514	9.162902832	-1.823425293	3.071594238	0.152826556	-0.028228805	0.006675731	-0.755859375	0.562988281	0.661621094	883.94	-31.42139257	-67.863956	-132.0538424	-63
22098	0	0.363826752	-0.072714806	0.122227669	0.999999046	0.00107193	-0.000274658	0.000106812	9.095668793	-1.81787014	3.055691719	0.053596508	-0.013732913	0.005340577	-0.755859375	0.565185547	0.661376953	883.94	-31.34290059	-67.88669892	-132.0122675	-63
22099	0	0.364929199	-0.077880859	0.125915527	0.999999046	-0.001155853	-0.00032711	0.00030899	9.12322998	-1.947021484	3.147888184	-0.057792678	-0.016355519	0.015449528	-0.755859375	0.565185547	0.661376953	883.94	-31.57636952	-67.90232478	-131.906212	-63
22100	0	0.36459446	-0.084996223	0.128653526	0.999999046	-0.00052166	-0.000200272	0.000323296	9.114861488	-2.124905586	3.216338158	-0.026082994	-0.010013581	0.016164781	-0.755859375	0.562988281	0.664306641	883.94	-31.72270476	-67.90415841	-131.8211023	-63
22101	0	0.366882324	-0.080078125	0.127563477	0.999999046	0.000656128	-0.000247002	0.000576019	9.172058105	-2.001953125	3.189086914	0.032806401	-0.012350084	0.028800968	-0.753417969	0.562744141	0.661376953	883.96	-31.80180906	-67.89502766	-131.6637167	-63
22102	0	0.36648941	-0.077101707	0.125102043	0.999998093	0.001431465	0.000357628	0.000899315	9.16223526	-1.927542686	3.127551079	0.071573293	0.017881402	0.044965766	-0.753662109	0.564941406	0.6640625	883.94	-31.77938374	-67.80742579	-131.5251557	-63
22103	0	0.365600586	-0.073852539	0.124084473	0.999999046	0.001266479	0.000184059	8.77E-05	9.140014648	-1.846313477	3.102111816	0.063323992	0.00920296	0.004386903	-0.756103516	0.567382813	0.6640625	883.96	-31.60728721	-67.7858074	-131.5691381	-63
22104	0	0.368225098	-0.075378418	0.123840332	0.999999046	0.000950813	0.000125885	-5.34E-05	9.205627441	-1.884460449	3.096008301	0.047540672	0.006294251	-0.002670288	-0.753662109	0.569335938	0.660888672	884.02	-31.44626336	-67.77842627	-131.6346188	-63
22105	0	0.367248535	-0.075439453	0.121704102	0.999999046	0.000255585	-6.39E-05	-0.000232697	9.181213379	-1.885986328	3.042602539	0.012779236	-0.003194809	-0.011634827	-0.753662109	0.569335938	0.660888672	883.9	-31.34988123	-67.80045748	-131.7156475	-63
22106	0	0.363942146	-0.074170113	0.123708725	0.999999046	-0.000993729	-0.000101089	-0.000404358	9.098553658	-1.854252815	3.092718124	-0.049686442	-0.005054475	-0.020217899	-0.756103516	0.569335938	0.658203125	884	-31.36062402	-67.8364128	-131.8294818	-63
22107	0	0.364624023	-0.076660156	0.127441406	0.999998093	-0.001757622	-0.000148773	-0.000202179	9.115600586	-1.916503906	3.186035156	-0.087881134	-0.007438664	-0.010108953	-0.753662109	0.569335938	0.660888672	883.96	-31.51429654	-67.86486601	-131.8760263	-63
22108	0	0.36706543	-0.080200195	0.128295898	0.999999046	-0.000498772	3.81E-05	-7.25E-05	9.176635742	-2.005004883	3.207397461	-0.024938584	0.001907349	-0.003623963	-0.753662109	0.564941406	0.6640625	883.9	-31.52758319	-67.86709362	-131.9277846	-63
22109	0	0.366638184	-0.079528809	0.127258301	0.999999046	0.001285553	0.000287056	0.000202179	9.16595459	-1.988220215	3.18145752	0.064277668	0.014352803	0.010108951	-0.755859375	0.565185547	0.661376953	883.96	-31.3660405	-67.82837456	-131.9517192	-63
22110	0	0.364644051	-0.073186874	0.126617432	0.999997139	0.001968384	0.000307083	0.000125885	9.116101265	-1.82967186	3.165435791	0.098419255	0.015354167	0.006294255	-0.756103516	0.567382813	0.6640625	883.98	-31.10499475	-67.79219496	-132.0031584	-63
22111	0	0.364440918	-0.07598877	0.126403809	0.999998093	0.001545906	5.72E-05	-2.67E-05	9.111022949	-1.899719238	3.160095215	0.077295334	0.002861024	-0.001335145	-0.756103516	0.569580078	0.660888672	883.96	-30.8922066	-67.78944331	-132.0524551	-63
22112	0	0.365651131	-0.075405121	0.123687744	0.999999046	0.000359535	7.06E-05	-5.82E-05	9.141278267	-1.885128021	3.092193604	0.017976761	0.003528595	-0.002908707	-0.756103516	0.571533203	0.660888672	884	-30.80609917	-67.78727967	-132.1079323	-63
22113	0	0.366577148	-0.076416016	0.127746582	0.999999046	0.000293732	0.000172615	0.000301361	9.164428711	-1.910400391	3.193664551	0.014686585	0.008630753	0.015068055	-0.753662109	0.571533203	0.652099609	883.92	-30.79956233	-67.75387836	-132.0787516	-63
22114	0	0.366856575	-0.070764542	0.126997948	0.999999046	0.000263214	0.00043869	0.000296593	9.171414375	-1.769113541	3.174948692	0.013160706	0.021934511	0.014829636	-0.756103516	0.573730469	0.655029297	883.9	-30.75673986	-67.69467007	-132.0937143	-63
22115	0	0.367004395	-0.074890137	0.127075195	0.999999046	0.000301361	0.000370979	0.000339508	9.175109863	-1.872253418	3.176879883	0.015068055	0.018548967	0.016975404	-0.756103516	0.571533203	0.657958984	883.96	-30.72958728	-67.63963476	-132.0963757	-63
22116	0	0.364868164	-0.074584961	0.125610352	0.999999046	0.000824928	0.000225067	-3.43E-05	9.121704102	-1.864624023	3.140258789	0.041246419	0.011253358	-0.001716614	-0.756103516	0.573730469	0.652099609	883.98	-30.57384385	-67.62089514	-132.1659772	-63
22117	0	0.363952637	-0.075073242	0.124816895	0.999999046	0.000663757	1.24E-05	0.000324249	9.098815918	-1.876831055	3.120422363	0.033187869	0.000619888	0.016212465	-0.756103516	0.573730469	0.655029297	884.02	-30.55288737	-67.60228003	-132.1155885	-63
22118	0	0.365792274	-0.076120377	0.126329422	0.999999046	0.000429153	-4.58E-05	0.000282288	9.144806862	-1.903009415	3.15823555	0.021457673	-0.002288818	0.014114381	-0.756103516	0.575927734	0.651855469	884.02	-30.5571841	-67.59188259	-132.061642	-63
22119	0	0.365112305	-0.07824707	0.126647949	0.999999046	0.000461578	-1.05E-05	-0.000175476	9.127807617	-1.956176758	3.16619873	0.023078919	-0.000524521	-0.008773804	-0.758544922	0.575927734	0.655029297	883.98	-30.44360953	-67.60459966	-132.1362156	-63
22120	0	0.363981247	-0.073302269	0.12768364	0.999999046	-0.0001688	-5.72E-06	-0.000183105	9.099531174	-1.832556725	3.192090988	-0.008440018	-0.000286102	-0.009155274	-0.758544922	0.573730469	0.65234375	883.9	-30.39950066	-67.61725709	-132.2142915	-62
22121	0	0.364624023	-0.079284668	0.12713623	0.999999046	-0.000389099	-0.000212669	-8.77E-05	9.115600586	-1.982116699	3.178405762	-0.019454957	-0.010633469	-0.004386902	-0.760986328	0.576171875	0.655029297	883.98	-30.43320442	-67.64472393	-132.231581	-63
22122	0	0.363654137	-0.077917099	0.127957344	0.999999046	-0.000263214	-1.34E-05	0.000152588	9.091353416	-1.947927475	3.198933601	-0.013160706	-0.000667572	0.007629395	-0.758300781	0.573730469	0.649414063	883.98	-30.48239785	-67.63841302	-132.2143329	-63
22123	0	0.36328125	-0.079467773	0.129150391	0.999999046	0.000354767	-3.34E-05	0.000835419	9.08203125	-1.986694336	3.228759766	0.017738345	-0.00166893	0.041770941	-0.758544922	0.573730469	0.65234375	883.98	-30.62757486	-67.59406829	-132.0238992	-62
22124	0	0.367008209	-0.076023102	0.129117012	0.999998093	0.001197815	0.00033474	0.00109005	9.175205231	-1.900577545	3.227925301	0.059890774	0.016736992	0.054502512	-0.756347656	0.578125	0.651855469	883.96	-30.68398041	-67.4983825	-131.8216102	-63
22125	0	0.365356445	-0.07434082	0.126647949	0.999998093	0.001412392	0.000404358	0.000602722	9.133911133	-1.858520508	3.16619873	0.070619613	0.020217904	0.030136121	-0.758544922	0.580322266	0.648925781	884.02	-30.58942633	-67.42441539	-131.7579042	-63
22126	0	0.366390228	-0.070461273	0.125922203	0.999999046	0.000452042	0.000202179	0.00077343	9.159755707	-1.76153183	3.148055077	0.022602084	0.010108949	0.038671499	-0.758789063	0.582519531	0.648681641	883.84	-30.67305149	-67.36068389	-131.6198256	-63
22127	0	0.364807129	-0.073059082	0.126098633	0.999999046	0.000225067	-0.000247002	0.000545502	9.120178223	-1.826477051	3.15246582	0.011253358	-0.012350083	0.027275087	-0.756591797	0.582519531	0.651367188	883.92	-30.7912451	-67.35462613	-131.4755156	-63
22128	0	0.366985321	-0.074501991	0.125827789	0.999999046	0.000483513	-0.000371933	-0.000100136	9.174633026	-1.862549782	3.145694733	0.024175645	-0.01859665	-0.00500679	-0.754150391	0.584472656	0.648193359	883.94	-30.74493823	-67.39887759	-131.4687611	-63
22129	0	0.366577148	-0.073425293	0.126953125	0.999999046	0.000606537	-0.000750542	-0.000473022	9.164428711	-1.835632324	3.173828125	0.030326849	-0.037527092	-0.023651128	-0.754150391	0.584472656	0.648193359	884.02	-30.64906043	-67.50240017	-131.5000132	-63
22130	0	0.365556717	-0.074634552	0.126799583	0.999999046	0.000320435	-0.000684738	-0.000324249	9.138917923	-1.8658638	3.169989586	0.01602173	-0.034236912	-0.016212465	-0.754150391	0.584472656	0.648193359	883.86	-30.6117075	-67.59079985	-131.5025472	-63
22131	0	0.362548828	-0.077453613	0.127624512	0.999999046	-0.000225067	-0.000273705	-7.63E-05	9.063720703	-1.936340332	3.190612793	-0.011253357	-0.013685227	-0.003814697	-0.756591797	0.584716797	0.651367188	883.9	-30.6381852	-67.62406748	-131.5061462	-63
22132	0	0.363546371	-0.080568314	0.127204895	0.999999046	0.000248909	-0.000234604	0.000212669	9.088659286	-2.01420784	3.180122375	0.01244545	-0.011730194	0.010633469	-0.756591797	0.584716797	0.6484375	884.06	-30.67466097	-67.63642439	-131.4389543	-62
22133	0	0.364196777	-0.078125	0.127624512	0.999998093	0.001446724	-0.000179291	0.000362396	9.104919434	-1.953125	3.190612793	0.072336224	-0.008964542	0.018119819	-0.754150391	0.584472656	0.651123047	884.02	-30.60220432	-67.63447264	-131.3490623	-62
22134	0	0.368214607	-0.076739311	0.128568649	0.999998093	0.001221657	-0.000243187	0.000797272	9.205365181	-1.91848278	3.214216232	0.061082862	-0.012159352	0.039863601	-0.754394531	0.586669922	0.650878906	884.06	-30.66880258	-67.61338637	-131.1392123	-63
22135	0	0.36529541	-0.076416016	0.126220703	0.999997139	0.002197266	-7.53E-05	0.000873566	9.132385254	-1.910400391	3.155517578	0.109863384	-0.003767017	0.043678324	-0.751953125	0.588867188	0.650634766	883.9	-30.61794972	-67.5712959	-130.9400693	-63
22136	0	0.364025116	-0.073937416	0.125696182	0.999996185	0.002388	2.96E-05	0.000731468	9.100627899	-1.848435402	3.142404556	0.119400149	0.001478197	0.036573448	-0.749755859	0.593017578	0.647460938	883.86	-30.49622951	-67.52733701	-130.7915569	-63
22137	0	0.365539551	-0.07208252	0.125549316	0.999998093	0.001488686	-3.05E-05	0.000236511	9.13848877	-1.802062988	3.13873291	0.074434309	-0.001525879	0.011825566	-0.75	0.597412109	0.638427734	883.9	-30.36764305	-67.5183532	-130.7496853	-63
22138	0	0.363801956	-0.0747509	0.125444412	0.999999046	0.000295639	-3.43E-05	0.00025177	9.095048904	-1.868772507	3.136110306	0.014781952	-0.001716614	0.012588501	-0.752441406	0.601806641	0.641113281	883.98	-30.38010969	-67.50896041	-130.6995713	-62
22139	0	0.364807129	-0.077758789	0.126098633	0.999999046	2.29E-05	-7.53E-05	0.000469208	9.120178223	-1.943969727	3.15246582	0.001144409	-0.003767014	0.023460389	-0.75	0.601806641	0.638183594	883.9	-30.48181635	-67.49098501	-130.5836677	-62
22140	0	0.364632607	-0.07589817	0.127877235	0.999999046	0.00048542	0.000135422	0.000781059	9.115815163	-1.897454262	3.196930885	0.024271015	0.006771089	0.039052969	-0.75	0.601806641	0.641113281	883.96	-30.57492265	-67.43395982	-130.4276787	-63
22141	0	0.365966797	-0.075195313	0.12902832	0.999999046	0.000396729	3.53E-05	0.000720978	9.149169922	-1.879882813	3.225708008	0.019836428	0.001764298	0.036048893	-0.750244141	0.604003906	0.640869141	883.96	-30.67727264	-67.39020822	-130.2718394	-63
22142	0	0.36401844	-0.075375557	0.127586365	0.999999046	0.000705719	5.15E-05	0.000595093	9.100461006	-1.884388924	3.189659119	0.035285955	0.002574921	0.029754643	-0.750244141	0.606201172	0.640625	883.96	-30.71171901	-67.35217723	-130.1509241	-62
22143	0	0.365539551	-0.076049805	0.127441406	0.999999046	0.00050354	1.62E-05	0.000717163	9.13848877	-1.901245117	3.186035156	0.025177005	0.000810623	0.035858159	-0.748046875	0.605957031	0.643310547	883.96	-30.80277318	-67.31047384	-129.999729	-62
22144	0	0.363656998	-0.075284004	0.127222061	0.999999046	-0.000130653	-0.000164032	0.00031662	9.091424942	-1.882100105	3.180551529	-0.006532669	-0.008201599	0.015830994	-0.745605469	0.605957031	0.640380859	883.98	-30.89718509	-67.3100031	-129.9188059	-62
22145	0	0.364929199	-0.079040527	0.12713623	0.999999046	-0.000370026	-0.000346184	0.000171661	9.12322998	-1.976013184	3.178405762	-0.018501283	-0.01730919	0.008583069	-0.748046875	0.608154297	0.640380859	883.9	-31.01097952	-67.33591797	-129.842294	-63
22146	0	0.365479469	-0.077612877	0.127739906	0.999999046	-0.000391006	-0.000255585	-0.000183105	9.136986732	-1.940321922	3.193497658	-0.019550324	-0.012779236	-0.009155274	-0.750488281	0.608398438	0.643310547	883.96	-31.03107348	-67.3738642	-129.8713492	-62
22147	0	0.365234375	-0.078430176	0.127929688	0.999999046	-4.96E-05	-0.000136375	6.10E-05	9.130859375	-1.960754395	3.198242188	-0.002479553	-0.006818771	0.003051758	-0.748046875	0.605957031	0.640625	883.92	-31.0527814	-67.38564895	-129.8567093	-62
22148	0	0.362390518	-0.076717377	0.127882957	0.999999046	9.06E-05	-0.00028801	-0.000134468	9.059762955	-1.917934418	3.197073936	0.004529953	-0.014400482	-0.006723404	-0.748046875	0.605957031	0.640625	883.92	-31.03377705	-67.42382349	-129.8679555	-62
22149	0	0.364379883	-0.080749512	0.127868652	0.999999046	0.000354767	-0.000296593	0.000385284	9.10949707	-2.018737793	3.196716309	0.017738343	-0.014829637	0.019264222	-0.748046875	0.605957031	0.640625	883.98	-31.10887404	-67.43198272	-129.7471353	-62
22150	0	0.366896629	-0.079782486	0.128072739	0.999999046	0.001091003	-0.000112534	0.000357628	9.172415733	-1.994562149	3.201818466	0.054550183	-0.00562668	0.017881397	-0.748046875	0.608154297	0.645996094	884.02	-31.06713801	-67.42364492	-129.667187	-62
22151	0	0.364990234	-0.076171875	0.127441406	0.999999046	0.001026154	8.87E-05	0.000148773	9.124755859	-1.904296875	3.186035156	0.051307687	0.004434586	0.007438661	-0.748046875	0.608154297	0.637451172	883.92	-30.95482782	-67.40794192	-129.6675006	-63
22152	0	0.362748146	-0.074253082	0.125276566	0.999999046	6.01E-05	-3.05E-05	0.000205994	9.068703651	-1.856327057	3.131914139	0.003004074	-0.001525879	0.010299683	-0.745849609	0.610351563	0.640136719	883.92	-30.98351065	-67.40069692	-129.6314094	-63
22153	0	0.366333008	-0.07800293	0.127502441	0.999999046	-0.000808716	-0.000182152	0.000213623	9.158325195	-1.950073242	3.187561035	-0.040435796	-0.009107591	0.010681154	-0.745849609	0.610351563	0.640136719	883.98	-31.13516904	-67.40787298	-129.5670891	-63
22154	0	0.365795135	-0.08080864	0.129008293	0.999999046	-0.000442505	0.000154495	3.43E-05	9.144878387	-2.020215988	3.225207329	-0.022125245	0.007724762	0.001716614	-0.748291016	0.610351563	0.645751953	883.98	-31.15496267	-67.39249047	-129.6056979	-62
22155	0	0.366149902	-0.08001709	0.12890625	0.999999046	0.00019455	0.000340462	0.000114441	9.153747559	-2.000427246	3.22265625	0.009727478	0.017023087	0.005722046	-0.745605469	0.605957031	0.640380859	883.96	-31.09440001	-67.35402017	-129.655594	-63
22156	0	0.365251541	-0.075595856	0.127656937	0.999998093	0.001354218	0.000441551	-0.000183105	9.131288528	-1.889896393	3.191423416	0.0677109	0.022077568	-0.009155277	-0.748291016	0.610351563	0.643066406	883.84	-30.81678646	-67.32316372	-129.7958498	-63
22157	0	0.364501953	-0.074035645	0.126220703	0.999999046	0.001148224	0.000206947	-0.000289917	9.112548828	-1.850891113	3.155517578	0.057411208	0.010347369	-0.014495853	-0.745849609	0.610351563	0.640136719	883.98	-30.57069118	-67.32158245	-129.9254743	-63
22158	0	0.364624023	-0.075866699	0.126281738	0.999999046	0.00087738	0.000183105	-6.48E-05	9.115600586	-1.89666748	3.157043457	0.043869024	0.009155275	-0.003242493	-0.748046875	0.610351563	0.637451172	883.92	-30.41228194	-67.30919729	-129.9956643	-63
22159	0	0.364746094	-0.076049805	0.127990723	0.999999046	-8.01E-05	0.000306129	-0.000190735	9.118652344	-1.901245117	3.199768066	-0.004005432	0.015306473	-0.009536743	-0.750488281	0.610595703	0.640380859	883.9	-30.31697046	-67.29191762	-130.1190455	-62
22160	0	0.365245819	-0.076236725	0.128322601	0.999999046	-0.000800133	0.000322342	-0.00049305	9.131145477	-1.905918121	3.208065033	-0.040006644	0.016117099	-0.024652485	-0.750488281	0.612548828	0.637207031	883.98	-30.23061901	-67.29046052	-130.3088156	-63
22161	0	0.363342285	-0.075927734	0.129943848	0.999999046	-0.000812531	0.000378609	-0.00038147	9.083557129	-1.898193359	3.248596191	-0.040626532	0.018930438	-0.019073489	-0.750488281	0.610595703	0.640380859	884.02	-30.16435368	-67.27683498	-130.4807255	-63
22162	0	0.363972664	-0.076290131	0.130460739	0.999999046	-0.000314713	0.000291824	8.77E-05	9.099316597	-1.907253265	3.261518478	-0.015735627	0.014591218	0.004386902	-0.750244141	0.608398438	0.637695313	883.92	-30.16406068	-67.24467617	-130.5202603	-62
22163	0	0.36340332	-0.07623291	0.129211426	0.999999046	-0.000205994	0.000252724	0.000217438	9.085083008	-1.905822754	3.230285645	-0.010299683	0.012636185	0.010871887	-0.750244141	0.608154297	0.634765625	883.96	-30.18739564	-67.20890231	-130.518277	-63
22164	0	0.362329483	-0.072598457	0.129118919	0.999999046	-0.000664711	0.000139236	0.000777245	9.058237076	-1.814961433	3.227972984	-0.033235556	0.006961824	0.038862235	-0.752685547	0.606201172	0.640869141	883.92	-30.41000407	-67.15205475	-130.3696494	-63
22165	0	0.364562988	-0.069885254	0.130615234	0.999998093	-0.001200676	8.77E-05	0.000972748	9.114074707	-1.747131348	3.265380859	-0.060033822	0.004386904	0.04863741	-0.750244141	0.606201172	0.640625	883.98	-30.74494401	-67.08872607	-130.1620649	-63
22166	0	0.362695694	-0.06980896	0.13161087	0.999999046	-0.001146317	-0.000133514	0.000342369	9.067392349	-1.745223999	3.290271759	-0.05731584	-0.006675722	0.017118458	-0.750488281	0.608398438	0.640380859	883.98	-30.95566113	-67.08388974	-130.0737719	-63
22167	0	0.364318848	-0.071472168	0.13293457	0.999999046	-0.000495911	-0.000655174	-0.000839233	9.107971191	-1.786804199	3.323364258	-0.024795538	-0.03275872	-0.04196168	-0.750488281	0.606201172	0.646240234	883.9	-30.88842039	-67.19988416	-130.2103011	-63
22168	0	0.36302948	-0.073741913	0.132506371	0.999998093	-0.000101089	-0.000884056	-0.001263618	9.075737	-1.843547821	3.312659264	-0.005054476	-0.044202822	-0.063180949	-0.752685547	0.606201172	0.646484375	883.92	-30.70615616	-67.36309835	-130.4176336	-62
22169	0	0.360656738	-0.067443848	0.132507324	0.999998093	-0.00020504	-0.001350403	-0.001377106	9.016418457	-1.686096191	3.312683105	-0.010252005	-0.067520184	-0.068855329	-0.752441406	0.601806641	0.646728516	883.98	-30.57030146	-67.57864559	-130.589337	-63
22170	0	0.360702515	-0.06552887	0.130224228	0.999996185	-0.002009392	-0.00121212	-0.001218796	9.017562866	-1.638221741	3.255605698	-0.100469706	-0.060606073	-0.06093986	-0.754882813	0.602050781	0.649658203	883.92	-30.65644536	-67.77130718	-130.7342296	-63
22171	0	0.364318848	-0.071716309	0.131896973	0.999991417	-0.003761292	-0.001097679	-0.001266479	9.107971191	-1.792907715	3.297424316	-0.188065107	-0.054884112	-0.063324154	-0.757080078	0.595458984	0.653320313	883.9	-30.91463123	-67.95547806	-130.9086544	-63
22172	0	0.364556313	-0.074728012	0.132853508	0.999991417	-0.003634453	-0.001325607	-0.001047134	9.113907814	-1.868200302	3.3213377	-0.181723127	-0.066280542	-0.05235686	-0.754882813	0.591308594	0.667724609	883.9	-31.24533409	-68.14903678	-130.9898097	-63
22173	0	0.36730957	-0.076293945	0.130004883	0.999996185	-0.002375603	-0.000808716	-0.000869751	9.182739258	-1.907348633	3.25012207	-0.118780276	-0.040435839	-0.0434876	-0.757080078	0.584716797	0.674072266	883.96	-31.39928347	-68.28128095	-131.1140562	-63
22174	0	0.363891602	-0.069335938	0.116149902	0.999998093	-0.001543999	-0.000597954	-0.000759125	9.097290039	-1.733398438	2.903747559	-0.077199979	-0.029897706	-0.037956259	-0.756835938	0.580566406	0.679931641	884.02	-31.45326757	-68.38672712	-131.2472363	-63
22175	0	0.348510742	-0.064208984	0.108825684	0.999992371	-0.003619194	-0.001014709	4.20E-05	8.712768555	-1.605224609	2.72064209	-0.180960128	-0.050735593	0.002098088	-0.759277344	0.578369141	0.683105469	883.98	-32.00674523	-68.48519579	-131.0933006	-63
22176	0	0.335654259	-0.066515923	0.103392601	0.999960899	-0.008395195	-0.002706528	0.000570297	8.391356468	-1.662898064	2.584815025	-0.419765217	-0.135328148	0.028515233	-0.759277344	0.57421875	0.697753906	883.9	-33.51098961	-68.7132411	-130.495505	-63
22177	0	0.371887207	-0.079589844	0.111450195	0.999883652	-0.014109612	-0.00478363	-0.003063202	9.297180176	-1.989746094	2.786254883	-0.70550778	-0.239190742	-0.153166001	-0.756591797	0.561035156	0.709960938	884.04	-35.15207491	-69.36696308	-130.4221544	-63
22178	0	0.41322422	-0.123920441	0.123187065	0.999694824	-0.022549629	-0.004637718	-0.008886337	10.33060551	-3.098011017	3.079676628	-1.127595924	-0.231909451	-0.444361972	-0.755859375	0.526611328	0.752441406	883.96	-36.30361957	-70.39549515	-131.8810011	-63
22179	0	0.394287109	-0.132019043	0.130615234	0.999864578	-0.009634972	-0.004077911	-0.012641907	9.857177734	-3.300476074	3.265380859	-0.481770204	-0.203904721	-0.632123709	-0.759033203	0.481201172	0.779052734	883.96	-34.75030667	-71.61818457	-134.6558859	-63
22180	0	0.356754303	-0.107545853	0.133704185	0.999929428	0.00169754	-0.005515099	-0.010293961	8.918857574	-2.688646317	3.342604637	0.084878984	-0.275761329	-0.514709976	-0.767333984	0.453125	0.787597656	883.98	-32.56728961	-72.79558466	-136.7469129	-63
22181	0	0.353637695	-0.093017578	0.126953125	0.999933243	0.007019997	-0.006095886	-0.006774902	8.840942383	-2.325439453	3.173828125	0.351007574	-0.304801035	-0.338752589	-0.765136719	0.451171875	0.799072266	883.92	-30.76304715	-73.7925197	-137.8035463	-63
22182	0	0.34521389	-0.086978912	0.118532181	0.999957085	0.005592346	-0.004627228	-0.005717278	8.630347252	-2.174472809	2.96330452	0.279621288	-0.231364681	-0.285867944	-0.762939453	0.455322266	0.798583984	883.8	-29.0320229	-74.57117183	-138.9389399	-63
22183	0	0.342407227	-0.092285156	0.112731934	0.999976158	-0.000179291	-0.003558159	-0.00586319	8.560180664	-2.307128906	2.81829834	-0.008964609	-0.177909339	-0.293161785	-0.758789063	0.461669922	0.800537109	883.92	-27.56200365	-75.23867177	-140.4495449	-63
22184	0	0.336513519	-0.094737053	0.109148979	0.99996376	-0.004266739	-0.003041267	-0.006485939	8.412837982	-2.368426323	2.72872448	-0.213339417	-0.152065132	-0.324300709	-0.756347656	0.457275391	0.809326172	883.92	-26.07927192	-75.87262321	-142.4279071	-61
22185	0	0.3515625	-0.109191895	0.11328125	0.999946594	-0.006678581	-0.002853394	-0.007236481	8.7890625	-2.729797363	2.83203125	-0.333934912	-0.142672177	-0.361830375	-0.753662109	0.450683594	0.8125	883.92	-24.36349692	-76.50670149	-144.8925546	-63
22186	0	0.353071213	-0.114246368	0.118145943	0.999958038	-0.005070686	-0.002667427	-0.007061958	8.826780319	-2.85615921	2.953648567	-0.253537812	-0.133373191	-0.353102783	-0.753662109	0.444335938	0.827392578	883.96	-22.31152624	-77.08990109	-147.4868983	-64
22187	0	0.363098145	-0.114135742	0.133483887	0.999970436	-0.00100708	-0.003699303	-0.006656647	9.077453613	-2.853393555	3.337097168	-0.050354499	-0.184966953	-0.33283561	-0.751464844	0.446533203	0.82421875	884.02	-19.95916787	-77.7388228	-149.8758236	-63
22188	0	0.393737793	-0.105538368	0.142324448	0.999970436	0.001206398	-0.002954483	-0.006863594	9.843444824	-2.638459206	3.558111191	0.060320477	-0.147725562	-0.34318298	-0.747070313	0.454833984	0.817626953	883.96	-16.8618666	-78.28367206	-152.7246578	-63
22189	0	0.405944824	-0.085510254	0.135131836	0.999980927	-0.000639915	-0.000579834	-0.006092072	10.14862061	-2.137756348	3.378295898	-0.031995975	-0.028991882	-0.304605499	-0.742431641	0.463378906	0.793945313	883.98	-13.81128787	-78.5052068	-155.6964265	-63
22190	0	0.433035851	-0.087999344	0.146720886	0.999979019	-0.004235268	0.002375603	-0.004094124	10.82589626	-2.199983597	3.668022156	-0.211764806	0.118780935	-0.204707568	-0.742431641	0.474121094	0.770263672	883.86	-11.85727359	-78.31429018	-157.9706414	-63
22191	0	0.495422363	-0.072875977	0.130981445	0.999967575	-0.002676964	0.00711441	-0.002319336	12.38555908	-1.821899414	3.274536133	-0.133849599	0.355724265	-0.115968018	-0.746582031	0.476074219	0.739013672	883.86	-10.30767625	-77.53481876	-159.766707	-63
22192	0	0.461914063	-0.019470215	0.094482422	0.999857903	-0.011214256	0.012355804	-0.002178192	11.54785156	-0.486755371	2.362060547	-0.560739281	0.617819382	-0.108914748	-0.757568359	0.48046875	0.688232422	883.9	-9.583742815	-76.15431622	-161.7921676	-68
22193	0	0.354048729	0.002879143	0.09017086	0.999695778	-0.021043777	0.012740135	0.000736237	8.851218224	0.071978569	2.254271507	-1.05229512	0.637071082	0.036815546	-0.774414063	0.463378906	0.639404297	883.9	-11.37044862	-74.67575419	-162.4298939	-64
22194	0	0.315246582	-0.006958008	0.087890625	0.999788284	-0.016192436	0.009793282	0.008026123	7.881164551	-0.173950195	2.197265625	-0.809678836	0.489698567	0.401334418	-0.782226563	0.44140625	0.596191406	883.92	-15.50166239	-73.34313523	-160.0699059	-64
22195	0	0.367987633	0.003320694	0.075901985	0.999897957	-0.001581192	0.008347511	0.011387825	9.199690819	0.083017349	1.897549629	-0.079062261	0.417389608	0.569410409	-0.776855469	0.440917969	0.556152344	883.98	-18.8250489	-72.01821632	-156.7892668	-64
22196	0	0.396897316	0.015068054	0.091948509	0.999931335	0.000860214	0.008198738	0.008244514	9.922432899	0.376701355	2.29871273	0.043011686	0.409946193	0.412235063	-0.771484375	0.451171875	0.500976563	883.96	-20.46575283	-70.79253692	-154.9625206	-68
22197	0	0.329589844	0.004394531	0.108154297	0.999926567	-0.008407593	0.007199287	0.004741669	8.239746094	0.109863281	2.703857422	-0.420389799	0.35997307	0.237089165	-0.768554688	0.450927734	0.461181641	883.92	-22.03108981	-69.80469717	-154.3299975	-64
22198	0	0.303894043	-0.053833008	0.118041992	0.999980927	-0.002192497	0.003769875	0.00421524	7.597351074	-1.345825195	2.951049805	-0.109625535	0.188494884	0.210763316	-0.767822266	0.444091797	0.430419922	883.96	-23.05336494	-69.19812357	-153.5151081	-66
22199	0	0.325378418	-0.06854248	0.125732422	0.999903679	0.013339996	0.002228737	0.003093719	8.134460449	-1.713562012	3.143310547	0.667021218	0.111440419	0.154690937	-0.7578125	0.44140625	0.401855469	883.98	-22.14224746	-68.80311711	-152.8633023	-63
22200	0	0.324104309	-0.057010651	0.138425827	0.999832153	0.018260956	0.000607491	0.000303268	8.102607727	-1.425266266	3.460645676	0.913098613	0.030376218	0.015164266	-0.750488281	0.447265625	0.364013672	883.9	-20.08794033	-68.70172092	-152.8311003	-64
22201	0	0.306091309	-0.048461914	0.143188477	0.999917984	0.012700081	0.000701904	-0.001228333	7.652282715	-1.211547852	3.579711914	0.635021327	0.03509617	-0.061418298	-0.742431641	0.444580078	0.321044922	883.96	-18.24292928	-68.64678426	-153.2576978	-61
22202	0	0.289896011	-0.051748276	0.15345192	0.999984741	0.005368233	0.000151634	-0.001269341	7.247400284	-1.293706894	3.836297989	0.268412999	0.007581749	-0.063467348	-0.732421875	0.4375	0.287109375	883.98	-17.27835884	-68.64756225	-153.6408201	-62
22203	0	0.329284668	-0.074035645	0.176330566	0.999978065	0.00630188	-0.000658989	-0.001419067	8.232116699	-1.850891113	4.40826416	0.315096208	-0.032949679	-0.070953868	-0.721923828	0.421875	0.265136719	883.92	-16.23357633	-68.7373202	-153.9965823	-62
22204	0	0.368590355	-0.068992615	0.172095299	0.999947548	0.009696007	-0.000246048	-0.003011703	9.214758873	-1.724815369	4.302382469	0.484808673	-0.01230261	-0.150587763	-0.701904297	0.407714844	0.22265625	883.96	-14.30756772	-68.82463833	-154.8799425	-61
22205	0	0.418701172	-0.048400879	0.176574707	0.99998188	0.002910614	-0.001677513	-0.004924774	10.4675293	-1.210021973	4.414367676	0.145531563	-0.083876153	-0.246240167	-0.681640625	0.3828125	0.186523438	883.92	-12.68833136	-69.11225495	-156.2668817	-62
22206	0	0.417347908	-0.045239449	0.183387756	0.999947548	-0.008398056	-0.003055573	-0.004891396	10.4336977	-1.130986214	4.584693909	-0.419910065	-0.152781268	-0.244574009	-0.658447266	0.340576172	0.157470703	883.92	-12.42894447	-69.54437798	-157.5840531	-65
22207	0	0.477233887	-0.09161377	0.214782715	0.999948502	-0.00498867	-0.006370544	-0.00604248	11.93084717	-2.290344238	5.369567871	-0.249437757	-0.318532636	-0.302129159	-0.632324219	0.280761719	0.135498047	883.92	-11.59500034	-70.36962081	-159.0963568	-66
22208	0	0.469872475	-0.082216263	0.196626663	0.999954224	0.007314682	-0.001547813	-0.005857468	11.74681187	-2.05540657	4.91566658	0.365739599	-0.077391834	-0.292877786	-0.607910156	0.209960938	0.120117188	883.9	-9.024399805	-70.63039837	-160.9570469	-63
22209	0	0.368835449	-0.040649414	0.157226563	0.999960899	0.006946564	0.004925728	0.002155304	9.22088623	-1.016235352	3.930664063	0.347332653	0.24628956	0.107766584	-0.602294922	0.131347656	0.112060547	883.96	-8.71197705	-69.99998689	-160.4740329	-61
22210	0	0.360088348	-0.027329445	0.12814045	0.999845505	0.004321098	0.00832653	0.014829636	9.00220871	-0.683236122	3.203511238	0.216066006	0.416347892	0.741519839	-0.606445313	0.06640625	0.111816406	883.92	-12.23252454	-68.71743671	-156.2173882	-63
22211	0	0.428344727	-0.02722168	0.09161377	0.999713898	0.000554085	0.011192322	0.021102905	10.70861816	-0.680541992	2.290344238	0.027706876	0.559669351	1.055245688	-0.628173828	0.025634766	0.119140625	883.9	-17.130289	-66.83041378	-150.8908708	-64
22212	0	0.385426521	-0.020570755	0.076721191	0.999620438	-0.011327744	0.013495445	0.021176338	9.635663033	-0.514268875	1.918029785	-0.566458838	0.674857637	1.058950875	-0.664794922	0.005126953	0.125732422	883.98	-22.34838505	-64.52621282	-146.6164152	-63
22213	0	0.306335449	-0.021911621	0.072265625	0.999377251	-0.024383545	0.010552406	0.023212433	7.65838623	-0.547790527	1.806640625	-1.219430312	0.527729834	1.160862554	-0.706542969	-0.001953125	0.134277344	883.98	-28.90211379	-62.26034412	-142.4340397	-63
22214	0	0.279566765	-0.055188179	0.070665359	0.999317169	-0.024390221	0.004477501	0.027384758	6.989169121	-1.379704475	1.766633987	-1.219788612	0.223926003	1.36954956	-0.746337891	0.003662109	0.138671875	883.96	-36.0238366	-60.12071443	-137.5156925	-63
22215	0	0.270263672	-0.089538574	0.080749512	0.999641418	-0.007849693	0.001743317	0.025508881	6.756591797	-2.238464355	2.018737793	-0.392531475	0.087176228	1.275596147	-0.784912109	0.026855469	0.153076172	883.92	-40.56378857	-58.13297279	-133.2900169	-63
22216	0	0.267163277	-0.099767685	0.101056099	0.999803543	0.010473251	-0.000288963	0.016811371	6.679081917	-2.494192123	2.526402473	0.52369682	-0.014449111	0.840623525	-0.821533203	0.058837891	0.172363281	883.96	-41.68287799	-56.87379587	-130.552479	-63
22217	0	0.290466309	-0.092773438	0.121154785	0.999761581	0.020031929	-0.001331329	0.008563995	7.261657715	-2.319335938	3.028869629	1.001675993	-0.066571754	0.428233774	-0.850830078	0.083740234	0.194580078	883.92	-40.66394714	-56.32740775	-129.0335205	-63
22218	0	0.313573837	-0.097719193	0.140411377	0.999857903	0.01625824	-0.003612518	0.002325058	7.839345932	-2.442979813	3.510284424	0.812950306	-0.18063443	0.116258379	-0.882568359	0.111083984	0.211181641	883.96	-39.51030739	-56.4590946	-128.1898828	-64
22219	0	0.379272461	-0.100463867	0.165222168	0.999897957	0.0115242	-0.006365776	-0.00541687	9.481811523	-2.51159668	4.130554199	0.576229487	-0.318299555	-0.270852655	-0.906982422	0.127441406	0.239501953	883.98	-38.14796082	-57.40570033	-128.2457087	-69
22220	0	0.436239243	-0.106328964	0.188611984	0.999809265	0.009742737	-0.009684563	-0.013865471	10.90598106	-2.658224106	4.715299606	0.487167776	-0.484258885	-0.69331757	-0.933349609	0.128417969	0.269287109	883.9	-36.05733522	-59.2413461	-129.3944986	-71
22221	0	0.482421875	-0.116638184	0.213500977	0.99958992	0.016877174	-0.010673523	-0.020523071	12.06054688	-2.91595459	5.337524414	0.843974083	-0.533749107	-1.02629385	-0.954345703	0.118408203	0.299560547	883.92	-31.88255299	-61.56414269	-131.9734524	-72
22222	0	0.491430283	-0.075937271	0.189437866	0.999486923	0.015826225	-0.010731697	-0.025693893	12.28575706	-1.898431778	4.735946655	0.791446616	-0.536676636	-1.284914416	-0.963623047	0.1015625	0.335693359	883.92	-26.2028559	-64.06653177	-136.3191434	-68
22223	0	0.471130371	-0.035522461	0.157287598	0.999526978	-0.008498192	-0.009075165	-0.028110504	11.77825928	-0.888061523	3.932189941	-0.424976528	-0.45382972	-1.40574662	-0.969970703	0.073974609	0.372314453	883.92	-21.69637454	-66.32620613	-142.3546454	-65
22224	0	0.317446709	-0.032009125	0.160419464	0.999377251	-0.029746056	-0.004392624	-0.018432617	7.936167717	-0.800228119	4.010486603	-1.487611292	-0.219676753	-0.921822033	-0.975341797	0.024169922	0.402099609	883.9	-20.88494389	-67.5598711	-146.941748	-64
22225	0	0.291748047	-0.084655762	0.150634766	0.999671936	-0.024477959	-0.003921509	-0.006420135	7.293701172	-2.116394043	3.765869141	-1.224031739	-0.196096876	-0.32104187	-0.978759766	-0.016845703	0.425537109	883.98	-22.39110228	-68.24312288	-148.3456986	-62
22226	0	0.372422218	-0.107859612	0.122149467	0.999998093	-0.001414299	0.000124931	-0.001132965	9.310555458	-2.696490288	3.053736687	-0.070714989	0.00624657	-0.056648286	-0.978759766	-0.023193359	0.446044922	884.02	-22.22227337	-68.27323381	-148.7050017	-61
22227	0	0.376220703	-0.06817627	0.115112305	0.99994278	0.005436897	0.005905151	-0.007015228	9.405517578	-1.704406738	2.877807617	0.271850013	0.295263161	-0.350768058	-0.984375	-0.003417969	0.453125	884.02	-19.12125346	-67.91855862	-151.3777289	-62
22228	0	0.305840492	-0.034468651	0.119133949	0.999818802	-0.01512146	0.006749153	-0.009290695	7.646012306	-0.86171627	2.978348732	-0.756118436	0.337477937	-0.464562677	-0.993896484	0.001220703	0.444824219	884.02	-17.77864899	-67.51622278	-154.7024511	-62
22229	0	0.268737793	-0.067932129	0.118225098	0.999629974	-0.026759148	0.003440857	-0.003295898	6.718444824	-1.698303223	2.955627441	-1.338122174	0.172064037	-0.164815219	-1.004638672	-0.015869141	0.438232422	883.92	-19.67354403	-67.25768232	-155.9744081	-62
22230	0	0.291503906	-0.124420166	0.149380684	0.999980927	-0.00599575	-0.000678062	0.000918388	7.287597656	-3.11050415	3.734517097	-0.299789383	-0.033903332	0.045919703	-1.013671875	-0.022216797	0.43359375	883.92	-20.65957647	-67.28542324	-155.6552775	-62
22231	0	0.305541992	-0.107910156	0.152770996	0.999746323	0.022446632	-0.000644684	0.001213074	7.638549805	-2.697753906	3.819274902	1.122426242	-0.03223691	0.0606588	-1.021484375	-0.002197266	0.440917969	883.96	-18.46425459	-67.29706903	-155.252787	-63
22232	0	0.299198151	-0.048418999	0.148588181	0.999714851	0.02383709	-0.001243591	0.000290871	7.479953766	-1.210474968	3.714704514	1.1919677	-0.062185472	0.014544915	-1.030273438	0.037109375	0.438232422	883.96	-15.91440731	-67.41027103	-155.0608826	-64
22233	0	0.30480957	-0.030151367	0.161499023	0.999986649	0.004174232	-0.002555847	0.001560211	7.620239258	-0.75378418	4.037475586	0.208712542	-0.12779292	0.078010902	-1.047607422	0.061767578	0.445556641	883.9	-16.04845244	-67.62777878	-154.4024566	-64
22234	0	0.329818726	-0.07035923	0.182925224	0.999950409	-0.008446693	-0.004979134	0.001075745	8.24546814	-1.758980751	4.573130608	-0.42234152	-0.248960718	0.053788104	-1.069335938	0.075683594	0.454101563	883.96	-17.71746193	-68.12062743	-153.6497819	-65
22235	0	0.381530762	-0.082763672	0.192504883	0.999969482	-0.001761436	-0.007442474	0.001167297	9.538269043	-2.069091797	4.81262207	-0.088072702	-0.372127431	0.05836545	-1.091064453	0.083007813	0.477539063	883.86	-18.92671614	-68.86867416	-152.5720545	-63
22236	0	0.41516304	-0.060229301	0.186684608	0.999937057	0.003406525	-0.00996685	0.0036726	10.379076	-1.505732536	4.667115211	0.170329765	-0.498352849	0.183633798	-1.118408203	0.112548828	0.510742188	883.96	-20.61158707	-69.78043842	-150.3581724	-61
22237	0	0.576538086	-0.101135254	0.221679688	0.99975872	0.018123627	-0.012331963	0.000202179	14.41345215	-2.528381348	5.541992188	0.906253934	-0.616647528	0.010109758	-1.135009766	0.161132813	0.547363281	883.92	-19.97630279	-71.07588502	-148.8307148	-60
22238	0	0.563293457	-0.05456543	0.150878906	0.999689102	0.024838448	0.000958443	-0.001766205	14.08233643	-1.364135742	3.771972656	1.242050951	0.047927096	-0.088319384	-1.149658203	0.22265625	0.560058594	883.92	-16.4712589	-71.01444937	-149.5273795	-60
22239	0	0.409851074	0.008728027	0.082275391	0.999921799	0.00357914	0.009628296	0.007091522	10.24627686	0.218200684	2.056884766	0.178961633	0.481427297	0.354585319	-1.164794922	0.270751953	0.511474609	883.96	-17.33715374	-69.70527493	-148.1720667	-60
22240	0	0.385173798	0.023533821	0.064977646	0.999593735	-0.016933441	0.010165215	0.02054882	9.62934494	0.588345528	1.624441147	-0.846786729	0.508329564	1.027580179	-1.160400391	0.304931641	0.451660156	883.96	-23.87977812	-67.7719718	-143.2364017	-60
22241	0	0.364807129	-0.024780273	0.066833496	0.999350548	-0.026615143	0.009896278	0.022182465	9.120178223	-0.619506836	1.670837402	-1.331045277	0.494921056	1.109363378	-1.142333984	0.336914063	0.411132813	883.98	-30.94301865	-65.58571032	-138.8701809	-63
22242	0	0.285964966	-0.053139687	0.066346169	0.999458313	-0.025170326	0.010058403	0.018604279	7.149124146	-1.328492165	1.658654213	-1.25874313	0.503010791	0.930381578	-1.121826172	0.351318359	0.400390625	883.88	-36.20646312	-63.44118218	-136.2396181	-63
22243	0	0.233642578	-0.064575195	0.068847656	0.999706268	-0.015860558	0.005741119	0.017360687	5.841064453	-1.614379883	1.721191406	-0.793105339	0.287084008	0.86811915	-1.103271484	0.359130859	0.384521484	883.96	-40.24169022	-61.69016291	-133.7466515	-63
22244	0	0.238275528	-0.094717026	0.092401505	0.999882698	-0.001919746	0.001958847	0.015032768	5.956888199	-2.367925644	2.310037613	-0.095991056	0.097946164	0.751667668	-1.087890625	0.378173828	0.382080078	883.98	-42.52124078	-60.38013293	-131.3984264	-63
22245	0	0.266662598	-0.107788086	0.101318359	0.999908447	0.008896828	0.003101349	0.009647369	6.666564941	-2.694702148	2.532958984	0.444854868	0.155072144	0.48238309	-1.077148438	0.401855469	0.388183594	883.9	-42.48598336	-59.36891207	-130.2660047	-63
22246	0	0.27057457	-0.105752945	0.119506836	0.999940872	0.009148598	0.002127647	0.005389214	6.764364243	-2.643823624	2.987670898	0.457438827	0.106384449	0.269465945	-1.071289063	0.427734375	0.388671875	883.9	-41.92110266	-58.77116038	-129.7072369	-64
22247	0	0.35949707	-0.111083984	0.144714355	0.999974251	0.006965637	0.001038551	0.00031662	8.987426758	-2.777099609	3.617858887	0.348284745	0.051927997	0.015831125	-1.072265625	0.4453125	0.392822266	883.92	-41.02990884	-58.65713787	-129.8200659	-63
22248	0	0.419055939	-0.108613014	0.149429321	0.999943733	0.007119179	0.000736237	-0.007791519	10.47639847	-2.715325356	3.735733032	0.355965579	0.036812515	-0.389583226	-1.077392578	0.456298828	0.395019531	883.96	-38.97989808	-59.1685458	-131.2639406	-63
22249	0	0.494567871	-0.086975098	0.15057373	0.99987793	0.004311562	-0.000240326	-0.015007019	12.36419678	-2.174377441	3.764343262	0.215586842	-0.012016785	-0.750381452	-1.088623047	0.446044922	0.405029297	884.02	-36.16746856	-60.24623564	-133.9501872	-64
22250	0	0.459834099	-0.083230972	0.162365913	0.999871254	0.002153397	-0.001207352	-0.015846252	11.49585247	-2.080774307	4.059147835	0.107674446	-0.060370172	-0.79234659	-1.106689453	0.424804688	0.419189453	883.9	-33.37155039	-61.4056341	-136.8701539	-64
22251	0	0.543518066	-0.093322754	0.166870117	0.999773979	0.0054245	-0.004954338	-0.019916534	13.58795166	-2.333068848	4.17175293	0.27124535	-0.247735513	-0.995901529	-1.115234375	0.403564453	0.432617188	884.02	-29.59053111	-63.09602796	-140.4386217	-64
22252	0	0.431152344	-0.049804688	0.137451172	0.999727249	-0.001468658	0.000336647	-0.023284912	10.77880859	-1.245117188	3.436279297	-0.073439588	0.016833879	-1.164351278	-1.1328125	0.373779297	0.438964844	883.98	-24.89175127	-64.29986231	-145.8636733	-59
22253	0	0.31938076	-0.034703255	0.163085938	0.999744415	-0.015454292	-0.001403809	-0.016375542	7.984519005	-0.867581367	4.077148438	-0.772780177	-0.070196385	-0.818846555	-1.145019531	0.330566406	0.446044922	883.98	-23.12684784	-65.22426579	-149.7689745	-60
22254	0	0.353814125	-0.083908081	0.162251472	0.999909401	-0.011978149	-0.002304077	-0.005657196	8.845353127	-2.097702026	4.056286812	-0.598925518	-0.115207329	-0.282868326	-1.151367188	0.302734375	0.468505859	883.96	-23.38422904	-65.73436305	-150.9930433	-59
22255	0	0.352355957	-0.103515625	0.135009766	0.999979019	0.004570961	0.00031662	-0.004390717	8.808898926	-2.587890625	3.375244141	0.228549584	0.0158311	-0.219537301	-1.151611328	0.304931641	0.473876953	883.96	-21.761033	-65.90456065	-152.1969807	-58
22256	0	0.298743248	-0.05462265	0.148105621	0.999962807	0.002591133	0.002111435	-0.00790596	7.4685812	-1.365566254	3.702640533	0.129558247	0.105573043	-0.395302858	-1.149658203	0.320068359	0.458496094	883.9	-19.33766711	-66.00453696	-154.5219353	-58
22257	0	0.231811523	-0.05255127	0.125305176	0.999903679	-0.012771606	0.003170967	-0.004375458	5.795288086	-1.313781738	3.132629395	-0.638600792	0.158553437	-0.218779901	-1.149169922	0.317626953	0.447265625	883.92	-19.43918282	-65.83445112	-156.010841	-62
22258	0	0.217588425	-0.090563774	0.13336277	0.999941826	-0.01055336	8.01E-05	0.001389503	5.439710617	-2.264094353	3.334069252	-0.527677965	0.004005508	0.069476486	-1.148925781	0.315429688	0.427490234	884.08	-20.94556472	-65.77416694	-155.6844324	-59
22259	0	0.26550293	-0.102416992	0.153564453	0.99997139	0.007264137	-0.001182556	0.001701355	6.637573242	-2.560424805	3.839111328	0.363210318	-0.05912837	0.085068558	-1.137695313	0.330078125	0.417236328	883.92	-20.60267907	-65.83210963	-155.1483607	-62
22260	0	0.304764748	-0.065033913	0.153369904	0.999967575	0.007751465	-0.001736641	-0.000813484	7.61911869	-1.625847816	3.834247589	0.387577361	-0.086832969	-0.040674642	-1.123779297	0.344726563	0.384033203	883.96	-19.64971641	-66.04983531	-155.219654	-63
22261	0	0.315307617	-0.059082031	0.167297363	0.999994278	0.000985146	-0.002929688	-0.00044632	7.88269043	-1.477050781	4.182434082	0.049257359	-0.146484613	-0.022316015	-1.114013672	0.346435547	0.363525391	883.8	-19.66161236	-66.38009667	-155.0840472	-62
22262	0	0.338721275	-0.081617355	0.180491447	0.99998188	0.001285553	-0.005817413	-0.000375748	8.468031883	-2.040433884	4.512286186	0.064278031	-0.290872394	-0.018787496	-1.106201172	0.334960938	0.338378906	883.92	-19.92385793	-67.01652086	-154.6400293	-58
22263	0	0.393676758	-0.091064453	0.198303223	0.999947548	0.004470825	-0.008860588	-0.002323151	9.841918945	-2.276611328	4.957580566	0.223545131	-0.443037075	-0.116159543	-1.101074219	0.323974609	0.341796875	883.9	-19.61733792	-68.05433426	-154.42	-57
22264	0	0.479919434	-0.104370117	0.217529297	0.999883652	0.007053375	-0.012381554	-0.00528717	11.99798584	-2.60925293	5.438232422	0.352682342	-0.61910152	-0.2643687	-1.097900391	0.306396484	0.340332031	883.96	-18.51055536	-69.58331867	-154.7433645	-58
22265	0	0.582763672	-0.129394531	0.251708984	0.999739647	0.020233154	-0.008425713	-0.00629425	14.5690918	-3.234863281	6.292724609	1.011745411	-0.421322149	-0.314739805	-1.097412109	0.2890625	0.353027344	883.98	-15.04030408	-70.70289128	-155.9724762	-58
22266	0	0.495176315	-0.05591774	0.167612076	0.999767303	0.020443916	0.006241798	0.002717972	12.37940788	-1.397943497	4.190301895	1.022274934	0.312114076	0.135909109	-1.099609375	0.286865234	0.342041016	883.9	-13.04805379	-69.92001984	-155.606413	-58
22267	0	0.386108398	0.000427246	0.107116699	0.999659538	0.009231567	0.012597084	0.020866394	9.652709961	0.010681152	2.67791748	0.461630645	0.629925536	1.043437862	-1.104736328	0.317382813	0.297119141	883.92	-16.99725404	-67.89231699	-150.2467195	-60
22268	0	0.40178299	0.015825272	0.068655968	0.999405861	-0.003050804	0.014457703	0.031134605	10.04457474	0.39563179	1.716399193	-0.152570418	0.723028303	1.557038589	-1.092529297	0.379638672	0.248779297	883.9	-23.70181359	-65.08714461	-143.3238287	-61
22269	0	0.375793457	-0.013977051	0.070495605	0.999415398	-0.015396118	0.013752937	0.027248383	9.394836426	-0.34942627	1.762390137	-0.769955927	0.687780874	1.362684635	-1.071044922	0.441650391	0.199951172	884.02	-29.66200158	-62.27435607	-138.6471716	-63
22270	0	0.303949356	-0.035327911	0.049461365	0.999324799	-0.026650429	0.014760017	0.020512581	7.598733902	-0.883197784	1.236534119	-1.332821187	0.738166882	1.025859757	-1.051025391	0.479980469	0.161621094	883.96	-34.66367408	-59.59585678	-136.4228434	-64
22271	0	0.247009277	-0.067871094	0.05090332	0.999537468	-0.020076752	0.008976936	0.020973206	6.175231934	-1.696777344	1.272583008	-1.003992163	0.448915933	1.048821758	-1.030517578	0.502929688	0.135986328	884.02	-39.08319788	-57.33881957	-133.9425037	-64
22272	0	0.27907753	-0.089686394	0.072119713	0.99975872	-0.000767708	0.004770279	0.021389008	6.976938248	-2.242159843	1.802992821	-0.038388468	0.238533065	1.069536102	-1.012939453	0.532714844	0.124023438	883.92	-41.44438954	-55.34860866	-131.218198	-66
22273	0	0.266967773	-0.083190918	0.086181641	0.999848366	0.008323669	0.001992226	0.015140533	6.674194336	-2.079772949	2.154541016	0.416204456	0.099616305	0.757064843	-0.997314453	0.560302734	0.095458984	883.9	-42.09892247	-54.03648712	-129.2539837	-63
22274	0	0.282470703	-0.103881836	0.127075195	0.999909401	0.011367798	-0.001708984	0.006938934	7.061767578	-2.597045898	3.176879883	0.568406974	-0.085451787	0.346957143	-0.990722656	0.575195313	0.082519531	883.86	-41.78114712	-53.6660357	-128.0407182	-60
22275	0	0.302734375	-0.122253418	0.139770508	0.999911308	0.012886047	-0.003325462	0.00050354	7.568359375	-3.056335449	3.494262695	0.644321416	-0.166278033	0.025177746	-1	0.579833984	0.071289063	883.9	-40.7031717	-53.93076841	-127.5531743	-59
22276	0	0.36788559	-0.122576714	0.160858154	0.999885559	0.012039185	-0.006331444	-0.00653553	9.19713974	-3.064417839	4.021453857	0.601982079	-0.316584207	-0.326788909	-1.013427734	0.567138672	0.067382813	883.92	-39.16645605	-54.98609033	-127.7521918	-60
22277	0	0.430419922	-0.090270996	0.171081543	0.999869347	0.005722046	-0.007761955	-0.012954712	10.76049805	-2.256774902	4.277038574	0.286114733	-0.388114635	-0.647763755	-1.029052734	0.548095703	0.072509766	883.86	-37.60112366	-56.62732969	-128.8552603	-64
22278	0	0.425138474	-0.093747139	0.193320274	0.999772072	0.000190735	-0.008882523	-0.019392967	10.62846184	-2.343678474	4.833006859	0.009537467	-0.444159817	-0.969721912	-1.053710938	0.514404297	0.102294922	883.98	-35.7028141	-58.79519046	-131.075911	-69
22279	0	0.563842773	-0.112548828	0.188415527	0.999591827	0.003575325	-0.00945282	-0.026691437	14.09606934	-2.813720703	4.710388184	0.178790529	-0.472705181	-1.334753089	-1.082519531	0.467773438	0.133056641	883.9	-31.89485468	-61.42666613	-134.9935192	-69
22280	0	0.466432571	-0.0692873	0.157608032	0.999606133	-0.007138252	-0.005033493	-0.026658058	11.66081429	-1.732182503	3.940200806	-0.356959441	-0.251707673	-1.33307779	-1.105957031	0.403320313	0.162353516	883.96	-28.16014847	-63.48682091	-140.1260161	-81
22281	0	0.328308105	-0.055175781	0.165405273	0.999799728	-0.011515617	-0.006820679	-0.014831543	8.207702637	-1.379394531	4.135131836	-0.575819175	-0.341056624	-0.741626485	-1.122802734	0.343261719	0.199462891	883.96	-27.06678784	-64.99526497	-142.8064766	-71
22282	0	0.329935074	-0.112717628	0.154795647	0.999960899	-0.001842499	-0.007759094	-0.003686905	8.248376846	-2.817940712	3.869891167	-0.092126124	-0.387959703	-0.184347617	-1.12890625	0.311035156	0.230957031	883.92	-27.30258435	-66.00409297	-142.7828568	-63
22283	0	0.337524414	-0.11907959	0.13848877	0.999931335	0.01006031	-0.005760193	-0.001552582	8.438110352	-2.976989746	3.462219238	0.503026988	-0.288016211	-0.077630859	-1.124755859	0.309082031	0.261962891	883.96	-26.43106573	-66.69614882	-142.4779839	-59
22284	0	0.303095818	-0.07192421	0.1270895	0.999975204	0.003822327	-0.001584053	-0.005679131	7.577395439	-1.79810524	3.177237511	0.191117906	-0.079203304	-0.283958864	-1.125244141	0.315673828	0.275634766	883.98	-24.76187866	-67.16218538	-143.8149613	-55
22285	0	0.249633789	-0.01385498	0.119873047	0.999707222	-0.023399353	0.001095772	-0.005962372	6.240844727	-0.346374512	2.996826172	-1.170081613	0.054793926	-0.29814763	-1.127441406	0.307128906	0.296386719	883.98	-25.79741674	-67.36017511	-145.5960776	-55
22286	0	0.240844727	-0.08770752	0.152893066	0.999028206	-0.04365921	0.001152039	-0.005786896	6.021118164	-2.192687988	3.82232666	-2.183667294	0.057620579	-0.28943847	-1.134277344	0.281494141	0.330078125	883.9	-29.19350706	-67.56486847	-147.3341305	-55
22287	0	0.264648438	-0.135437012	0.161010742	0.999540329	-0.029639244	0.001602173	-0.006034851	6.616210938	-3.385925293	4.025268555	-1.482188907	0.080120897	-0.301788713	-1.138427734	0.253662109	0.361083984	883.92	-30.86927975	-67.76271123	-149.1930572	-54
22288	0	0.266500473	-0.154011726	0.15743351	0.999977112	0.005327225	-0.000376701	-0.004071236	6.662511826	-3.850293159	3.935837746	0.266363239	-0.018835209	-0.203563313	-1.142578125	0.232177734	0.383056641	884.02	-29.28376088	-68.03907011	-150.2465694	-58
22289	0	0.307006836	-0.098571777	0.180419922	0.999957085	0.008197784	-0.003767967	-0.001953125	7.675170898	-2.464294434	4.510498047	0.409895043	-0.188401037	-0.097657637	-1.140869141	0.245361328	0.393066406	883.96	-28.33976732	-68.52612202	-150.2515438	-60
22290	0	0.36920166	-0.10534668	0.190124512	0.999979973	0.004451752	-0.004432678	-0.000274658	9.230041504	-2.633666992	4.753112793	0.222589052	-0.221635372	-0.013733001	-1.134521484	0.256103516	0.408935547	883.96	-28.34396272	-68.98541992	-149.6997088	-56
22291	0	0.437438965	-0.102355957	0.187561035	0.999996185	-0.002402306	-0.000431061	0.000606537	10.93597412	-2.558898926	4.689025879	-0.120115407	-0.021553062	0.030326875	-1.125732422	0.260253906	0.425292969	883.96	-28.80505233	-68.99072867	-149.5008409	-54
22292	0	0.490187645	-0.12861824	0.196655273	0.999972343	-0.007260323	-0.001226425	0.000736237	12.25469112	-3.215456009	4.916381836	-0.363019442	-0.061321818	0.036812165	-1.123291016	0.253662109	0.431396484	883.9	-29.9768086	-69.06494962	-149.1379284	-55
22293	0	0.622192383	-0.15826416	0.187011719	0.999937057	0.010899544	0.002204895	-0.000644684	15.55480957	-3.956604004	4.675292969	0.544988459	0.110247031	-0.032234859	-1.123046875	0.238525391	0.455322266	884.02	-28.21502567	-68.87317578	-149.6906104	-56
22294	0	0.462029457	-0.079201698	0.109997749	0.999800682	0.015239716	0.011041641	0.006546974	11.55073643	-1.980042458	2.749943733	0.76203621	0.5521186	0.327370374	-1.134521484	0.236816406	0.453125	883.98	-26.65375062	-67.39949476	-149.4964105	-57
22295	0	0.409301758	-0.049133301	0.082702637	0.999690056	0.007278442	0.010220528	0.02148056	10.23254395	-1.22833252	2.067565918	0.363959665	0.511079105	1.074138823	-1.144775391	0.258789063	0.451904297	883.9	-29.49521169	-65.20484336	-145.4902525	-61
22296	0	0.408325195	-0.044555664	0.069519043	0.9995327	0.004650116	0.00988102	0.028533936	10.20812988	-1.113891602	1.737976074	0.232541985	0.494127873	1.426918827	-1.152099609	0.317871094	0.461669922	884.02	-33.43080074	-62.53363056	-140.5213699	-66
22297	0	0.332397461	-0.049316406	0.077148438	0.999573708	0.001773834	0.009381294	0.027557373	8.309936523	-1.232910156	1.928710938	0.088704289	0.469131233	1.378064055	-1.157226563	0.383544922	0.465087891	884.02	-36.78985753	-59.844036	-136.4627474	-78
22298	0	0.254927635	-0.034754753	0.074428558	0.999629974	-0.005721092	0.008021355	0.025339127	6.37319088	-0.868868828	1.860713959	-0.286089862	0.401117158	1.267112459	-1.162597656	0.447021484	0.479980469	884.08	-40.21918151	-57.32695456	-133.2180961	-72
22299	0	0.20916748	-0.060668945	0.066162109	0.999650955	-0.007521629	0.003429413	0.025058746	5.229187012	-1.516723633	1.654052734	-0.376125123	0.171490547	1.253082761	-1.160644531	0.501464844	0.512451172	883.96	-43.86911657	-55.12422136	-129.8701473	-66
22300	0	0.216142654	-0.092817307	0.093884468	0.999800682	0.003554344	-0.000553131	0.019618988	5.40356636	-2.320432663	2.347111702	0.177728995	-0.027658389	0.981014458	-1.155029297	0.567138672	0.560791016	883.92	-45.74311569	-53.59836886	-127.0681064	-60
22301	0	0.245544434	-0.113525391	0.112060547	0.999793053	0.017944336	-0.000750542	0.009532928	6.13861084	-2.838134766	2.801513672	0.897278632	-0.037529671	0.476679274	-1.151611328	0.634765625	0.603271484	883.92	-44.79280362	-52.89725206	-125.6914209	-58
22302	0	0.287088394	-0.11639595	0.115779877	0.999838829	0.017738342	-0.002677917	0.000406265	7.177209854	-2.909898758	2.894496918	0.886964717	-0.13390306	0.020314353	-1.150634766	0.708984375	0.636962891	883.9	-43.08230645	-53.10185034	-125.288793	-63
22303	0	0.366577148	-0.112243652	0.151977539	0.999912262	0.009350777	-0.00636673	-0.006801605	9.164428711	-2.806091309	3.799438477	0.467552412	-0.318345732	-0.340090138	-1.149169922	0.770019531	0.674560547	883.9	-41.892418	-54.1850916	-125.4321087	-63
22304	0	0.42990303	-0.120656013	0.174015045	0.999845505	0.006980896	-0.007164955	-0.01444149	10.74757576	-3.016400337	4.350376129	0.349062756	-0.358266187	-0.722111656	-1.147460938	0.811767578	0.733398438	884.02	-40.06465302	-55.91246858	-126.6781431	-61
22305	0	0.485595703	-0.124206543	0.189758301	0.999680519	0.010738373	-0.006724358	-0.021835327	12.13989258	-3.105163574	4.74395752	0.536975687	-0.336253603	-1.091882357	-1.154052734	0.838623047	0.777099609	883.96	-36.52872765	-58.09400168	-129.4145176	-58
22306	0	0.542683601	-0.114547729	0.190335274	0.999510765	0.006326675	-0.00815773	-0.029520035	13.56709003	-2.863693237	4.758381844	0.316385356	-0.40795302	-1.476242436	-1.173828125	0.856689453	0.799316406	884.04	-31.93089643	-60.80084882	-133.8904035	-57
22307	0	0.501220703	-0.071838379	0.192626953	0.999340057	-0.01406002	-0.0051651	-0.033081055	12.53051758	-1.795959473	4.815673828	-0.703155624	-0.2583118	-1.654416489	-1.203857422	0.836181641	0.836914063	883.92	-27.8718898	-63.23772335	-140.2801535	-55
22308	0	0.317560196	-0.064969063	0.180128098	0.999385834	-0.027572632	-0.003016472	-0.021408081	7.939004898	-1.62422657	4.503202438	-1.378913828	-0.15085447	-1.070623188	-1.244140625	0.777099609	0.892089844	883.9	-26.84750501	-64.69967609	-144.9128764	-55
22309	0	0.327697754	-0.113220215	0.178955078	0.999917984	-0.009119987	-0.005187988	-0.007324219	8.192443848	-2.830505371	4.473876953	-0.456011819	-0.259406493	-0.366220932	-1.255126953	0.736572266	0.949951172	883.96	-26.80408035	-65.6311664	-146.1021371	-56
22310	0	0.37416935	-0.099682808	0.133140564	0.99992466	0.011590958	-0.000469208	-0.003903389	9.354233742	-2.492070198	3.328514099	0.579562353	-0.023460974	-0.195174322	-1.252441406	0.775634766	0.966552734	883.9	-24.58459739	-65.89486738	-147.069184	-58
22311	0	0.319396973	-0.03137207	0.128723145	0.999948502	0.002984047	0.004016876	-0.008785248	7.984924316	-0.784301758	3.218078613	0.149204889	0.200847233	-0.439269874	-1.252441406	0.843017578	0.938232422	883.9	-21.71751173	-65.88779763	-149.8120532	-58
22312	0	0.250933647	-0.042938232	0.136383057	0.999632835	-0.024535179	0.004671097	-0.01042366	6.273341179	-1.073455811	3.409576416	-1.226908762	0.233583361	-0.521246658	-1.269042969	0.856445313	0.921142578	883.96	-21.55503766	-65.84791858	-153.0426665	-60
22313	0	0.216308594	-0.096557617	0.136901855	0.999696732	-0.023753166	0.002159119	-0.005970001	5.407714844	-2.41394043	3.422546387	-1.187778002	0.107966812	-0.298530144	-1.282470703	0.828857422	0.949707031	883.96	-22.60326761	-65.88887305	-154.8588903	-60
22314	0	0.243122101	-0.137244225	0.154118538	0.999985695	0.002702713	-0.00021553	-0.004437447	6.078052521	-3.431105614	3.852963448	0.13513626	-0.010776568	-0.22187333	-1.277832031	0.828857422	0.960693359	884.04	-21.21163182	-66.10981189	-156.0348243	-56
22315	0	0.27557373	-0.104248047	0.163024902	0.999715805	0.023282051	-0.000816345	-0.005046844	6.889343262	-2.606201172	4.075622559	1.164212821	-0.040821127	-0.252366127	-1.265625	0.884765625	0.921386719	883.92	-17.33475762	-66.39324456	-157.3484081	-54
22316	0	0.30737114	-0.067417145	0.183205605	0.999735832	0.022515297	-0.001291275	-0.004385948	7.684278488	-1.685428619	4.580140114	1.125863908	-0.064569432	-0.219316706	-1.248535156	0.953369141	0.846679688	883.9	-13.69377889	-66.67070479	-158.4958417	-55
22317	0	0.338806152	-0.046325684	0.187255859	0.999941826	0.0104599	-0.001540184	-0.001842499	8.470153809	-1.15814209	4.681396484	0.523005035	-0.077010679	-0.092126707	-1.228759766	1.012939453	0.772705078	883.92	-12.07143081	-66.8874489	-158.945909	-54
22318	0	0.431248665	-0.054517746	0.200556755	0.999990463	0.002501488	-0.003287315	0.000240326	10.78121662	-1.362943649	5.013918877	0.125074744	-0.164366237	0.012016331	-1.201416016	1.048828125	0.72265625	883.96	-12.00015529	-67.24643252	-158.7024737	-56
22319	0	0.457946777	-0.042541504	0.188781738	0.999977112	-0.005213737	-0.003112793	0.002815247	11.44866943	-1.063537598	4.719543457	-0.260688821	-0.155640811	0.14076338	-1.173583984	1.067138672	0.688476563	883.98	-13.50815359	-67.51947848	-157.7082569	-54
22320	0	0.563526154	-0.077885628	0.220991135	0.999979973	-0.002293587	-0.00538826	0.002077103	14.08815384	-1.947140694	5.524778366	-0.114680074	-0.269414728	0.103855801	-1.140869141	1.0703125	0.663818359	884.02	-14.67359389	-68.05702499	-156.728046	-53
22321	0	0.488342285	-0.061889648	0.167358398	0.999982834	0.003170967	0.0027771	0.004020691	12.20855713	-1.547241211	4.183959961	0.158549252	0.138855766	0.201035683	-1.1171875	1.077880859	0.630615234	883.98	-15.173891	-67.62850975	-155.7928265	-55
22322	0	0.409165382	-0.040495872	0.111837387	0.999919891	0.001236916	0.005253792	0.011426926	10.22913456	-1.012396812	2.795934677	0.061847426	0.262696583	0.571361492	-1.100097656	1.085693359	0.569335938	884.02	-17.58585882	-66.68159154	-153.0209816	-56
22323	0	0.424865723	-0.035888672	0.105712891	0.99979496	0.002223969	0.006001472	0.019184113	10.62164307	-0.897216797	2.642822266	0.111206007	0.300094082	0.959271024	-1.064941406	1.103515625	0.509277344	883.92	-21.44573168	-65.30197226	-148.5181392	-58
22324	0	0.352314949	-0.03567028	0.095619202	0.999746323	-0.003189087	0.008631706	0.020531654	8.807873726	-0.891757011	2.390480042	-0.159467802	0.431621733	1.026669351	-1.016113281	1.132080078	0.450195313	883.86	-25.47242327	-63.46413814	-144.4583078	-59
22325	0	0.271850586	-0.043212891	0.101867676	0.999687195	-0.009902	0.008659363	0.02123642	6.796264648	-1.080322266	2.546691895	-0.495151528	0.433013182	1.061931448	-0.969238281	1.143066406	0.409912109	883.96	-29.84161767	-61.46350748	-140.8124044	-63
22326	0	0.222700119	-0.051795959	0.082865715	0.999633789	-0.011828423	0.007515907	0.023138046	5.567502975	-1.294898987	2.071642876	-0.591493282	0.375841212	1.157043457	-0.908691406	1.149658203	0.386230469	883.9	-34.33307873	-59.33462731	-137.2088987	-58
22327	0	0.196166992	-0.069885254	0.092895508	0.999726295	-0.007526398	0.004052162	0.021774292	4.904174805	-1.747131348	2.322387695	-0.376354213	0.20262659	1.088813912	-0.84765625	1.149658203	0.357421875	883.92	-38.01535437	-57.49697776	-133.9026029	-59
22328	0	0.230783463	-0.10322094	0.124206543	0.999874115	0.003229141	0.001423836	0.015407562	5.769586563	-2.580523491	3.105163574	0.161463786	0.071194753	0.770410196	-0.788818359	1.140869141	0.343505859	883.92	-39.58900421	-56.27337176	-131.5869157	-60
22329	0	0.269897461	-0.115661621	0.1328125	0.999902725	0.011723518	0.001499176	0.007305145	6.747436523	-2.891540527	3.3203125	0.586194781	0.074961213	0.365269017	-0.747802734	1.124267578	0.314208984	883.96	-39.03483191	-55.62016882	-130.6399736	-63
22330	0	0.333585739	-0.110913277	0.147323608	0.99992466	0.012216568	-0.000646591	-0.000565529	8.339643478	-2.772831917	3.68309021	0.61084367	-0.032330368	-0.02827715	-0.729492188	1.094970703	0.270263672	883.96	-37.61937391	-55.72991688	-130.6641869	-60
22331	0	0.422546387	-0.103881836	0.177185059	0.999927521	0.009243965	-0.003463745	-0.006778717	10.56365967	-2.597045898	4.429626465	0.462209305	-0.173191395	-0.338943953	-0.727539063	1.053222656	0.247802734	884	-35.97647158	-56.52741906	-131.3721512	-58
22332	0	0.4848423	-0.097967148	0.182513237	0.999895096	0.007259369	-0.003731728	-0.011955261	12.12105751	-2.449178696	4.562830925	0.362981123	-0.186592897	-0.597783941	-0.741699219	1.010253906	0.238037109	883.96	-33.7699174	-57.68015424	-133.0136877	-61
22333	0	0.506896973	-0.096923828	0.194885254	0.999809265	0.005642891	-0.006668091	-0.017463684	12.67242432	-2.423095703	4.872131348	0.282162479	-0.333425732	-0.873239702	-0.765136719	0.9609375	0.231933594	883.92	-31.00909064	-59.41974562	-135.4949239	-66
22334	0	0.554842949	-0.073771477	0.198851585	0.999628067	-0.005391121	-0.00612545	-0.026010513	13.87107372	-1.844286919	4.971289635	-0.269589443	-0.306310453	-1.300686796	-0.804931641	0.901367188	0.244628906	884	-27.61511709	-61.51842157	-140.1059249	-69
22335	0	0.353027344	-0.054870605	0.179931641	0.999541283	-0.021411896	-0.002436638	-0.021251678	8.825683594	-1.371765137	4.498291016	-1.070758306	-0.121850502	-1.062746219	-0.858398438	0.831542969	0.278808594	883.86	-26.14818279	-62.8936652	-144.5397784	-66
22336	0	0.288888931	-0.070021629	0.18453598	0.999880791	-0.012885094	-0.00485611	-0.006903648	7.222223282	-1.750540733	4.613399506	-0.644280164	-0.242815084	-0.34519607	-0.893798828	0.765625	0.322998047	883.88	-26.66257357	-63.76440714	-145.6232195	-63
22337	0	0.361755371	-0.091186523	0.141967773	0.999980927	0.005547523	-0.002567291	-0.000274658	9.043884277	-2.279663086	3.549194336	0.277377906	-0.128365364	-0.013732996	-0.906982422	0.737792969	0.348632813	883.92	-26.19387042	-64.06207026	-145.4443885	-61
22338	0	0.368463516	-0.057388306	0.122838974	0.999925613	0.010209084	0.003239632	-0.005831718	9.211587906	-1.434707642	3.07097435	0.510466832	0.161985598	-0.291593151	-0.91796875	0.727294922	0.341796875	884.04	-23.41444298	-64.02657682	-147.2368606	-61
22339	0	0.278076172	-0.022949219	0.125061035	0.999789238	-0.014953613	0.005871773	-0.012733459	6.951904297	-0.573730469	3.126525879	-0.74773304	0.293609205	-0.636717574	-0.947021484	0.702148438	0.333984375	883.92	-21.78621268	-63.98614669	-150.950799	-63
22340	0	0.232582092	-0.060337067	0.130228996	0.999388695	-0.033722878	0.003313065	-0.008520126	5.814552307	-1.508426666	3.255724907	-1.686487138	0.165686952	-0.426093043	-0.982910156	0.653320313	0.362548828	883.94	-23.45416492	-64.02846594	-153.3924132	-70
22341	0	0.239990234	-0.122741699	0.14251709	0.999820709	-0.018332481	-0.000259399	-0.004623413	5.999755859	-3.06854248	3.562927246	-0.916678697	-0.012970744	-0.231184431	-1.007080078	0.606689453	0.401855469	883.92	-24.5369875	-64.28466643	-154.5245529	-80
22342	0	0.268396378	-0.133821487	0.162437439	0.999914169	0.011658669	-0.001896858	-0.005598068	6.709909439	-3.345537186	4.060935974	0.582950027	-0.094845612	-0.279911383	-1.027587891	0.581298828	0.427734375	883.96	-22.1077437	-64.74767115	-155.7386926	-79
22343	0	0.288879395	-0.087158203	0.177246094	0.999710083	0.022953987	-0.003078461	-0.006568909	7.221984863	-2.178955078	4.431152344	1.147810236	-0.153937905	-0.328477166	-1.043457031	0.581787109	0.411621094	883.96	-18.18297717	-65.34371806	-157.1673089	-73
22344	0	0.322236061	-0.057611465	0.195794106	0.999890327	0.012803078	-0.005540848	-0.004805565	8.055901527	-1.440286636	4.894852638	0.640177115	-0.277052443	-0.240286963	-1.064697266	0.584716797	0.409667969	883.98	-15.92343714	-66.11433776	-158.0363523	-60
22345	0	0.376403809	-0.06854248	0.216369629	0.999958992	0.004981995	-0.007082939	-0.002471924	9.410095215	-1.713562012	5.409240723	0.249103099	-0.354151744	-0.123597862	-1.07421875	0.587158203	0.421142578	884.04	-15.18775276	-66.97102774	-158.2155231	-61
22346	0	0.406986237	-0.066122055	0.210878372	0.999970436	0.004613876	-0.006090164	-0.000674248	10.17465591	-1.653051376	5.271959305	0.230696079	-0.304511195	-0.033712718	-1.086181641	0.592041016	0.432861328	883.92	-14.87649239	-67.66145897	-157.9797419	-77
22347	0	0.479736328	-0.088439941	0.235046387	0.999922752	0.00674057	-0.010115623	-0.002250671	11.9934082	-2.210998535	5.876159668	0.337037088	-0.505794057	-0.112536436	-1.091552734	0.60546875	0.440673828	884.02	-14.17225875	-68.84208928	-157.9060581	-57
22348	0	0.597162247	-0.091934204	0.238700867	0.999819756	0.017237663	-0.0039711	-0.00687027	14.92905617	-2.298355103	5.967521667	0.8619349	-0.198566911	-0.343534109	-1.098876953	0.612060547	0.443359375	883.92	-10.40094308	-69.44671137	-159.8285425	-55
22349	0	0.447998047	-0.054992676	0.160217285	0.999929428	0.008282661	0.007766724	-0.003410339	11.19995117	-1.374816895	4.005432129	0.414142774	0.388345279	-0.170520963	-1.1171875	0.619140625	0.406738281	883.92	-8.046977948	-68.62270107	-161.3334714	-59
22350	0	0.388505936	-0.034700394	0.128487587	0.999840736	0.003156662	0.01111412	0.013577461	9.712648392	-0.867509842	3.212189674	0.157841461	0.555735466	0.678909029	-1.137695313	0.625976563	0.364746094	883.92	-10.92071647	-67.10238809	-157.8445371	-62
22351	0	0.403808594	-0.032775879	0.097595215	0.999507904	0.002369881	0.013828278	0.028026581	10.09521484	-0.819396973	2.439880371	0.118513442	0.691527129	1.401558569	-1.127197266	0.670898438	0.317871094	883.98	-16.77257556	-64.78803808	-151.1458058	-68
22352	0	0.325737953	-0.025998116	0.09379673	0.999306679	-0.0053339	0.014879227	0.033686638	8.14344883	-0.649952888	2.344918251	-0.266756607	0.744133127	1.684720833	-1.093994141	0.736816406	0.259521484	884.02	-23.42317671	-61.85543221	-144.393909	-56
22353	0	0.265686035	-0.031799316	0.077819824	0.999132156	-0.017882347	0.013320923	0.03515625	6.642150879	-0.79498291	1.945495605	-0.894375836	0.66623869	1.758320666	-1.044677734	0.800292969	0.217529297	883.88	-30.53730822	-58.66691894	-138.5677424	-53
22354	0	0.262436867	-0.051568985	0.052020073	0.999099731	-0.024399757	0.007763863	0.033805847	6.560921669	-1.289224625	1.300501823	-1.220353849	0.388309583	1.690799423	-0.986328125	0.854980469	0.212890625	883.92	-37.54052039	-55.76698728	-133.5710833	-50
22355	0	0.254211426	-0.089233398	0.07244873	0.999513626	-0.014143944	0.004184723	0.02746582	6.355285645	-2.230834961	1.811218262	-0.707311798	0.209270054	1.373513571	-0.927734375	0.894287109	0.226318359	883.96	-42.12534713	-53.39317246	-129.9407649	-51
22356	0	0.23986721	-0.113952637	0.107319832	0.999868393	0.003700256	0.001301765	0.015723228	5.99668026	-2.848815918	2.682995796	0.185020916	0.065091121	0.786195835	-0.877685547	0.925292969	0.220947266	883.98	-43.30626146	-52.07375784	-127.9295571	-55
22357	0	0.252075195	-0.133728027	0.139587402	0.999746323	0.021569252	-0.000907898	0.006328583	6.301879883	-3.343200684	3.489685059	1.078553591	-0.045398727	0.316455835	-0.849853516	0.939453125	0.195556641	883.98	-41.60422604	-51.67322603	-126.9571711	-51
22358	0	0.307950974	-0.124277115	0.155005455	0.999491692	0.031703949	-0.002925873	0.000914574	7.698774338	-3.106927872	3.875136375	1.585465612	-0.146318388	0.045736419	-0.834960938	0.940673828	0.137939453	883.96	-38.34400637	-51.87604477	-126.4881212	-50
22359	0	0.37713623	-0.096740723	0.182495117	0.999576569	0.027684212	-0.005905151	-0.00667572	9.428405762	-2.418518066	4.56237793	1.3844058	-0.295299208	-0.333833084	-0.833496094	0.93359375	0.075927734	884	-34.89272595	-52.89144513	-126.843148	-55
22360	0	0.450745583	-0.075790405	0.209035873	0.999749184	0.016430855	-0.006698608	-0.01349926	11.26863956	-1.894760132	5.225896835	0.821610816	-0.334958174	-0.675018928	-0.847900391	0.907714844	0.033447266	883.94	-31.81601417	-54.4033576	-128.3256887	-54
22361	0	0.46307373	-0.073303223	0.197814941	0.999764442	0.005332947	-0.008666039	-0.019123077	11.57684326	-1.832580566	4.945373535	0.266668197	-0.433335819	-0.956228662	-0.874023438	0.869384766	0.015136719	883.88	-29.18059357	-56.39577344	-130.7827461	-55
22362	0	0.555537224	-0.071430206	0.199319839	0.999513626	-0.00351429	-0.012646675	-0.028269768	13.8884306	-1.785755157	4.982995987	-0.175742955	-0.632436182	-1.413717348	-0.911376953	0.813964844	0.02734375	883.86	-26.06470908	-59.21324126	-134.9352021	-54
22363	0	0.426757813	-0.062866211	0.222412109	0.999438286	-0.01342392	-0.009119987	-0.029308319	10.66894531	-1.571655273	5.560302734	-0.671321601	-0.456084716	-1.465690212	-0.960205078	0.741699219	0.052978516	883.9	-22.94715614	-61.58835425	-140.2854743	-54
22364	0	0.305997849	-0.060503006	0.208946228	0.999741554	-0.014719963	-0.006494522	-0.016036987	7.649946213	-1.51257515	5.223655701	-0.736061469	-0.32475404	-0.801918346	-0.999755859	0.671630859	0.089355469	883.98	-21.89303939	-63.00172831	-143.3837307	-52
22365	0	0.385925293	-0.063903809	0.147705078	0.999979973	0.002227783	-0.004469872	-0.003715515	9.648132324	-1.597595215	3.692626953	0.11138988	-0.223495019	-0.185776957	-1.017089844	0.633056641	0.107666016	883.92	-21.17519415	-63.65870677	-143.9063292	-54
22366	0	0.406570435	-0.029809952	0.123951912	0.999978065	0.005033493	0.003017426	-0.002863884	10.16426086	-0.745248795	3.098797798	0.251676441	0.150872349	-0.143195216	-1.018310547	0.613525391	0.097900391	884.04	-19.68637165	-63.47574782	-144.9263648	-57
22367	0	0.295837402	0.008117676	0.123535156	0.999670982	-0.02312851	0.008442879	-0.007125854	7.395935059	0.202941895	3.088378906	-1.15655214	0.422190174	-0.356331749	-1.026611328	0.58984375	0.088867188	883.98	-20.11107828	-62.87041505	-147.4161062	-57
22368	0	0.231247902	-0.040255547	0.118069649	0.99874115	-0.0495224	0.005343437	-0.005932808	5.781197548	-1.006388664	2.951741219	-2.477159583	0.267284031	-0.296764939	-1.039306641	0.555419922	0.106689453	883.82	-24.06226583	-62.58369558	-149.3528234	-58
22369	0	0.241394043	-0.124023438	0.137329102	0.999272346	-0.0376091	9.25E-05	-0.006309509	6.034851074	-3.100585938	3.433227539	-1.880911095	0.004626442	-0.315551978	-1.047851563	0.516845703	0.147216797	883.86	-27.04550777	-62.90801162	-150.8433944	-58
22370	0	0.265128136	-0.1650877	0.145946503	0.999937057	0.001626015	-0.003138542	-0.010575294	6.628203392	-4.127192497	3.648662567	0.08130242	-0.156930361	-0.528775682	-1.056152344	0.48046875	0.181884766	883.98	-24.95822185	-63.78044357	-152.9697319	-60
22371	0	0.270874023	-0.12677002	0.164489746	0.999419212	0.030883789	-0.005763054	-0.013175964	6.771850586	-3.169250488	4.112243652	1.544488314	-0.288208463	-0.658925721	-1.06640625	0.445800781	0.179443359	883.92	-18.97134769	-64.97090462	-155.6839983	-58
22372	0	0.280431747	-0.07055378	0.181407928	0.999311447	0.035194397	-0.006855965	-0.009462357	7.010793686	-1.76384449	4.535198212	1.760123422	-0.34287685	-0.473226333	-1.076904297	0.424316406	0.162109375	883.88	-13.08309216	-66.03374473	-157.7216394	-60
22373	0	0.307006836	-0.040527344	0.194030762	0.999727249	0.021195412	-0.00818634	-0.005271912	7.675170898	-1.013183594	4.850769043	1.059866703	-0.409354141	-0.263619489	-1.083007813	0.405029297	0.161132813	883.98	-9.670406417	-67.07664915	-158.7937608	-54
22374	0	0.369925499	-0.039206505	0.213991165	0.99992466	0.009471893	-0.007137299	-0.003060341	9.248137474	-0.980162621	5.349779129	0.473606508	-0.356873853	-0.15302087	-1.080078125	0.389648438	0.165039063	883.86	-8.006471443	-67.93911845	-159.4196338	-48
22375	0	0.408325195	-0.030700684	0.216674805	0.999990463	-0.001158714	-0.003681183	-0.001724243	10.20812988	-0.76751709	5.416870117	-0.057935887	-0.184059691	-0.086212415	-1.08203125	0.374511719	0.186279297	883.86	-7.74965453	-68.38154885	-159.8394762	-50
22376	0	0.453369141	-0.058410645	0.229919434	0.999936104	-0.009455681	-0.006072998	-0.00031662	11.33422852	-1.460266113	5.74798584	-0.472794002	-0.303656299	-0.015831327	-1.081542969	0.355224609	0.204833984	883.96	-8.958329163	-69.07013205	-159.7059273	-45
22377	0	0.576211929	-0.087231636	0.242935181	0.999991417	0.002353668	-0.002997398	-0.000564575	14.40529823	-2.180790901	6.073379517	0.117683702	-0.14987029	-0.02822883	-1.078857422	0.333496094	0.229248047	883.92	-8.622412173	-69.41269774	-159.7792694	-46
22378	0	0.459234238	-0.051186562	0.16805172	0.999964714	0.004655838	0.006509781	0.002443314	11.48085594	-1.27966404	4.201292992	0.232794618	0.325492843	0.122167106	-1.085205078	0.314208984	0.242431641	883.88	-8.490037675	-68.62653538	-159.3538752	-45
22379	0	0.376586914	-0.012634277	0.123046875	0.999864578	-0.001311302	0.008655548	0.013870239	9.414672852	-0.315856934	3.076171875	-0.065568049	0.432796812	0.693543062	-1.089355469	0.305664063	0.240478516	883.94	-12.04305003	-67.36133039	-155.689305	-45
22380	0	0.413374901	-0.020046234	0.098078728	0.999718666	-0.003109932	0.008390427	0.021944046	10.33437252	-0.501155853	2.451968193	-0.155511156	0.41956061	1.097305027	-1.092773438	0.325439453	0.250488281	883.92	-17.42266013	-65.78923761	-150.2214814	-48
22381	0	0.395996094	-0.029174805	0.089782715	0.999644279	-0.002357483	0.010239601	0.024505615	9.899902344	-0.729370117	2.244567871	-0.117888117	0.51204074	1.22542599	-1.092285156	0.364501953	0.261474609	883.94	-22.42266859	-63.73099612	-144.9988064	-49
22382	0	0.336478233	-0.033233643	0.093598366	0.999639511	-0.003436089	0.010733604	0.024363518	8.411955833	-0.830841064	2.339959145	-0.171825068	0.536744698	1.218322238	-1.094482422	0.414794922	0.263183594	883.88	-26.70761598	-61.45775544	-140.6206922	-51
22383	0	0.332885742	-0.039001465	0.072387695	0.999650002	-0.002193451	0.008259773	0.025028229	8.322143555	-0.975036621	1.809692383	-0.109685335	0.413036822	1.251557367	-1.087890625	0.473388672	0.272216797	883.92	-30.56946614	-59.26370459	-136.470795	-51
22384	0	0.320347786	-0.04265213	0.069618225	0.999675751	0.001241684	0.006581306	0.024550438	8.008694649	-1.066303253	1.740455627	0.062090901	0.329100849	1.227654421	-1.078857422	0.538330078	0.277832031	883.98	-33.61290871	-57.14672989	-132.7260461	-54
22385	0	0.325195313	-0.061462402	0.091552734	0.999756813	0.006542206	0.003834724	0.020690918	8.129882813	-1.536560059	2.288818359	0.327136772	0.191751743	1.034629649	-1.061035156	0.609619141	0.279541016	883.92	-35.40975356	-55.46256702	-129.6667272	-62
22386	0	0.327939987	-0.072338104	0.106238365	0.999790192	0.014172554	0.003037453	0.014415741	8.19849968	-1.808452606	2.655959129	0.708677066	0.151883215	0.720837261	-1.042480469	0.669921875	0.273681641	884.04	-35.4034263	-54.24704673	-127.6884702	-58
22387	0	0.318786621	-0.071289063	0.114807129	0.999836922	0.016605377	0.001942635	0.006771088	7.969665527	-1.782226563	2.870178223	0.830313889	0.097136997	0.338572744	-1.025878906	0.719482422	0.262939453	883.98	-34.19372259	-53.6499166	-126.8292597	-55
22388	0	0.332009315	-0.06737709	0.13395977	0.999902725	0.01386261	0.000294685	-0.001202583	8.300232887	-1.684427261	3.348994255	0.693152872	0.014734744	-0.060131107	-1.019775391	0.749511719	0.245849609	883.98	-32.41436613	-53.72869924	-127.061767	-51
22389	0	0.345397949	-0.057312012	0.139831543	0.999947548	0.006305695	-0.000998497	-0.007949829	8.63494873	-1.432800293	3.495788574	0.315290192	-0.049925716	-0.397498343	-1.020019531	0.760498047	0.233642578	883.98	-30.69250044	-54.33738821	-128.2886227	-46
22390	0	0.354675293	-0.05291748	0.152709961	0.999902725	-0.004828453	-0.002718925	-0.012775421	8.866882324	-1.322937012	3.817749023	-0.241430457	-0.135950668	-0.638791704	-1.029296875	0.754150391	0.243164063	883.88	-29.65318631	-55.37982642	-130.2253789	-47
22391	0	0.367080688	-0.066374779	0.17734623	0.999803543	-0.009444237	-0.004074097	-0.016838074	9.177017212	-1.659369469	4.433655739	-0.472242483	-0.203718054	-0.841958323	-1.042480469	0.728759766	0.263183594	883.88	-28.54314268	-56.76493755	-132.8554013	-47
22392	0	0.399935722	-0.075866699	0.173828125	0.999696732	-0.007728577	-0.005961418	-0.022590637	9.998393059	-1.89666748	4.345703125	-0.386467848	-0.298101001	-1.1296459	-1.064697266	0.692626953	0.292724609	884.04	-26.26158555	-58.60359949	-136.5892165	-46
22393	0	0.47265625	-0.067443848	0.163330078	0.999436378	-0.011367798	-0.008471489	-0.030410767	11.81640625	-1.686096191	4.083251953	-0.568496596	-0.423653965	-1.52082378	-1.091064453	0.641601563	0.323974609	883.94	-22.76738215	-60.97777073	-142.119937	-47
22394	0	0.460160255	-0.06593132	0.177995682	0.999155998	-0.02113533	-0.00970459	-0.033858299	11.50400639	-1.648283005	4.449892044	-1.05706391	-0.485366048	-1.693391391	-1.12109375	0.562255859	0.366210938	884.04	-19.00384308	-63.44615186	-149.091451	-46
22395	0	0.347717285	-0.066162109	0.19152832	0.999360085	-0.023838043	-0.009512901	-0.024909973	8.692932129	-1.654052734	4.788208008	-1.192156431	-0.475746536	-1.245764362	-1.150634766	0.469970703	0.412353516	883.94	-16.68652941	-65.39710044	-154.6810942	-45
22396	0	0.332902908	-0.089631081	0.184051514	0.999899864	-0.002757072	-0.009981155	-0.009589195	8.322572708	-2.240777016	4.601287842	-0.137858199	-0.499074338	-0.47947568	-1.157958984	0.405273438	0.457763672	883.92	-15.25400573	-66.83020349	-156.5991184	-45
22397	0	0.390991211	-0.047119141	0.137573242	0.999860764	0.01580143	-0.004535675	-0.002685547	9.774780273	-1.177978516	3.439331055	0.790108029	-0.226794241	-0.134283554	-1.155517578	0.396484375	0.469726563	883.98	-12.96047494	-67.43956082	-157.1266728	-44
22398	0	0.381958008	0.017822266	0.12713623	0.999977112	0.001286507	0.002884865	-0.005966187	9.548950195	0.445556641	3.178405762	0.064325821	0.144244336	-0.298311592	-1.158203125	0.407470703	0.463134766	883.92	-10.96272722	-67.28819599	-159.1196104	-44
22399	0	0.333068848	0.015686035	0.138549805	0.999562263	-0.028366089	0.004277229	-0.007106781	8.326721191	0.392150879	3.463745117	-1.418510991	0.21389261	-0.355390798	-1.166748047	0.388183594	0.462402344	883.88	-12.0006666	-66.99856745	-161.5012711	-44
22400	0	0.356054306	-0.052311897	0.164752007	0.999547958	-0.029590607	0.001805305	-0.004937172	8.901357651	-1.307797432	4.118800163	-1.479753153	0.090278868	-0.246895774	-1.176513672	0.340576172	0.475341797	883.82	-13.89883805	-66.94968795	-163.1120379	-45
22401	0	0.368347168	-0.077148438	0.168884277	0.999983788	-0.003395081	0.002636909	-0.003566742	9.208679199	-1.928710938	4.222106934	-0.169754911	0.13184616	-0.178338025	-1.182617188	0.310546875	0.492431641	883.92	-13.1105686	-66.77459731	-164.3878449	-45
22402	0	0.339855194	-0.021453857	0.155939102	0.999941826	0.010192871	0.003011703	-0.001447678	8.496379852	-0.536346436	3.898477554	0.509653329	0.150588062	-0.072385269	-1.187011719	0.308349609	0.475585938	883.98	-11.3159159	-66.49377917	-165.0650302	-46
22403	0	0.317199707	-0.002807617	0.157836914	0.999990463	0.003956795	0.000782013	0.001586914	7.929992676	-0.07019043	3.945922852	0.197840356	0.039100769	0.079345952	-1.189453125	0.319335938	0.466552734	883.94	-11.14813886	-66.39014082	-164.7441581	-46
22404	0	0.329835892	-0.032013893	0.167395592	0.999988556	0.003959656	-0.000344276	0.002307892	8.245897293	-0.800347328	4.184889793	0.197983485	-0.017213882	0.115394999	-1.189941406	0.330078125	0.465576172	883.92	-11.22450778	-66.39552426	-164.1560404	-46
22405	0	0.337646484	-0.029602051	0.162109375	0.999941826	0.010513306	0.000287056	0.001995087	8.441162109	-0.74005127	4.052734375	0.525675323	0.014353073	0.099756239	-1.188232422	0.345214844	0.461425781	883.94	-10.43987198	-66.33699509	-163.6882084	-45
22406	0	0.346398354	-0.016179085	0.158699989	0.999949455	0.009437561	0.000350952	0.003321648	8.659958839	-0.404477119	3.967499733	0.471885934	0.017547901	0.166085157	-1.186523438	0.362792969	0.459960938	883.94	-10.11708467	-66.24552887	-162.850512	-45
22407	0	0.351623535	-0.019042969	0.157470703	0.999959946	0.006493568	0.000743866	0.006103516	8.790588379	-0.476074219	3.936767578	0.324682749	0.037193794	0.305179849	-1.185058594	0.386474609	0.452148438	884	-10.81786794	-66.05044565	-161.261275	-46
22408	0	0.349964142	-0.024224281	0.146876335	0.999952316	0.00592041	0.0010252	0.007646561	8.749103546	-0.605607033	3.671908379	0.296025174	0.051260803	0.38233406	-1.181396484	0.410400391	0.447265625	883.82	-11.93699872	-65.77879522	-159.2837464	-46
22409	0	0.347351074	-0.029541016	0.140625	0.999946594	0.005620003	0.000999451	0.008605957	8.683776855	-0.738525391	3.515625	0.281005132	0.049973422	0.4303055	-1.173339844	0.440429688	0.44140625	883.86	-13.29354107	-65.46899309	-157.0785071	-47
22410	0	0.369374275	-0.026667595	0.132724762	0.999943733	0.004432678	0.00107193	0.009493828	9.23435688	-0.666689873	3.318119049	0.221638009	0.053597488	0.474700168	-1.169921875	0.470703125	0.438720703	883.92	-14.94855835	-65.10375629	-154.6890561	-47
22411	0	0.375671387	-0.031860352	0.128601074	0.999944687	0.00206852	0.000320435	0.010234833	9.391784668	-0.796508789	3.215026855	0.103427861	0.01602202	0.511750947	-1.156982422	0.500976563	0.438476563	883.92	-17.04052385	-64.76698441	-152.1095525	-47
22412	0	0.385790825	-0.041770935	0.135475159	0.999940872	0.003202438	-0.00130558	0.010289192	9.644770622	-1.044273376	3.386878967	0.160125062	-0.065280289	0.514469713	-1.146728516	0.531005859	0.435546875	883.92	-19.083878	-64.56763168	-149.4350534	-47
22413	0	0.343566895	-0.046081543	0.130065918	0.999928474	0.0052948	-0.001208305	0.010639191	8.589172363	-1.152038574	3.251647949	0.264746286	-0.060416705	0.531972185	-1.131591797	0.561035156	0.432128906	883.82	-20.92021184	-64.30612703	-146.7202936	-46
22414	0	0.334359169	-0.042426109	0.124120712	0.99991703	0.005559921	-0.002193451	0.011392593	8.358979225	-1.060652733	3.103017807	0.278003733	-0.109675572	0.569645384	-1.114501953	0.595214844	0.434082031	883.92	-22.93468162	-64.07875692	-143.768829	-46
22415	0	0.376831055	-0.04888916	0.141296387	0.999951363	0.002132416	-0.002646446	0.009159088	9.420776367	-1.222229004	3.532409668	0.106622485	-0.132324416	0.457961692	-1.097167969	0.625244141	0.436523438	883.92	-24.86762518	-63.95943498	-141.3397552	-45
22416	0	0.389853477	-0.060664177	0.1442976	0.999977112	0.002716064	-0.001515388	0.005889893	9.746336937	-1.516604424	3.607439995	0.135804227	-0.075769985	0.294496806	-1.081542969	0.646484375	0.436767578	884	-25.91214625	-63.85691936	-139.8231782	-45
22417	0	0.370422363	-0.050354004	0.150756836	0.999959946	0.005723	-0.001350403	0.006668091	9.260559082	-1.258850098	3.768920898	0.286153748	-0.067521031	0.333408933	-1.070556641	0.661376953	0.437744141	883.92	-26.74485454	-63.68736078	-138.1599486	-44
22418	0	0.364767075	-0.033946991	0.167842865	0.999954224	0.002404213	-0.001095772	0.009177208	9.119176865	-0.848674774	4.196071625	0.120212475	-0.054789422	0.458867372	-1.057617188	0.687011719	0.434814453	883.96	-28.414429	-63.3427415	-135.9815811	-44
22419	0	0.379150391	-0.045532227	0.17199707	0.999982834	-0.001471519	0.000724792	0.005569458	9.478759766	-1.138305664	4.299926758	-0.073576387	0.036239828	0.278474465	-1.046875	0.703857422	0.432861328	883.94	-29.56317047	-62.99224461	-134.8761018	-44
22420	0	0.360545158	-0.062955856	0.157326698	0.999985695	-0.004370689	0.003004074	-0.000479698	9.01362896	-1.573896408	3.933167458	-0.218535502	0.150204415	-0.023985022	-1.040039063	0.712402344	0.434814453	884.04	-29.59419085	-62.75142339	-135.3938113	-44
22421	0	0.335144043	-0.064025879	0.151916504	0.999962807	-0.00617218	0.003441811	-0.004867554	8.378601074	-1.600646973	3.797912598	-0.308612796	0.172092642	-0.243380672	-1.046875	0.708251953	0.432617188	883.88	-28.93612585	-62.71063529	-136.9186774	-44
22422	0	0.349679947	-0.084999084	0.155950546	0.999974251	-0.003717422	0.001153946	-0.005984306	8.741998672	-2.124977112	3.898763657	-0.185872703	0.057697786	-0.299217858	-1.058105469	0.69140625	0.440185547	883.92	-28.01620128	-62.95069064	-138.4239903	-44
22423	0	0.350463867	-0.095214844	0.145019531	0.999970436	0.004173279	-0.000529289	-0.006427765	8.76159668	-2.380371094	3.625488281	0.208665993	-0.026464723	-0.321391406	-1.069091797	0.678710938	0.444824219	883.86	-26.24893997	-63.36873678	-139.8637401	-44
22424	0	0.349379539	-0.090736389	0.145979881	0.999922752	0.010310173	-0.002204895	-0.006512642	8.734488487	-2.268409729	3.649497032	0.515521848	-0.110247573	-0.325640431	-1.075683594	0.670166016	0.442871094	883.82	-23.87056698	-63.94055619	-141.1956643	-44
22425	0	0.364685059	-0.087402344	0.150878906	0.999897957	0.012706757	-0.003207207	-0.005588531	9.117126465	-2.185058594	3.771972656	0.635359325	-0.160365762	-0.279436029	-1.084716797	0.666015625	0.435302734	883.98	-21.43579273	-64.55195606	-142.2793165	-44
22426	0	0.368409157	-0.070221901	0.146680832	0.999945641	0.009489059	-0.002210617	-0.003639221	9.21022892	-1.755547523	3.667020798	0.474461527	-0.110532846	-0.18196434	-1.089355469	0.670410156	0.420898438	883.92	-19.66237137	-64.96039106	-143.0329061	-43
22427	0	0.352600098	-0.061950684	0.14440918	0.999998093	-0.000510216	-0.001449585	-0.000572205	8.815002441	-1.54876709	3.610229492	-0.025510799	-0.072479281	-0.028610242	-1.091552734	0.666259766	0.421386719	883.86	-19.66289107	-65.16308335	-143.0930651	-43
22428	0	0.349097252	-0.079954147	0.149113655	0.999978065	-0.005877495	-0.001874924	0.002009392	8.727431297	-1.998853683	3.727841377	-0.293876803	-0.093746843	0.100470294	-1.091552734	0.6640625	0.430175781	883.94	-20.92447722	-65.3080617	-142.4427304	-43
22429	0	0.353271484	-0.090087891	0.151489258	0.999988556	-0.00316906	-0.00258255	0.002193451	8.831787109	-2.252197266	3.787231445	-0.158453556	-0.129127966	0.10967294	-1.087158203	0.6640625	0.441162109	883.92	-21.99846242	-65.51388081	-141.6594879	-43
22430	0	0.358002663	-0.079152107	0.153846741	0.999979973	-0.004938126	-0.003599167	0.00137043	8.950066566	-1.978802681	3.846168518	-0.246907894	-0.17995952	0.068521948	-1.080322266	0.666015625	0.44921875	883.98	-23.20171191	-65.85580082	-140.9577418	-43
22431	0	0.362792969	-0.085998535	0.159301758	0.999967575	-0.007155418	-0.003517151	0.001060486	9.069824219	-2.149963379	3.982543945	-0.357774778	-0.17585944	0.053024864	-1.075927734	0.663818359	0.471923828	883.94	-24.6069449	-66.19530153	-140.3159486	-43
22432	0	0.353226662	-0.090554237	0.16610527	0.999975204	-0.005918503	-0.0030756	0.001768112	8.830666542	-2.263855934	4.15263176	-0.295927489	-0.153781204	0.088406311	-1.069091797	0.659423828	0.483154297	883.88	-26.01670209	-66.44566402	-139.5169142	-43
22433	0	0.36340332	-0.102416992	0.17175293	0.999988556	0.001339912	-0.00320816	0.003177643	9.085083008	-2.560424805	4.293823242	0.066995868	-0.160408613	0.158882729	-1.059814453	0.654785156	0.500244141	883.88	-26.9649398	-66.62841655	-138.3184938	-43
22434	0	0.362018585	-0.091568947	0.167842865	0.99994278	0.009314537	-0.001912117	0.004836082	9.05046463	-2.289223671	4.196071625	0.465735687	-0.095607664	0.24180871	-1.053222656	0.667724609	0.495849609	884	-27.24366453	-66.58513685	-136.8546442	-43
22435	0	0.357849121	-0.076599121	0.158874512	0.99992466	0.010520935	-0.000784874	0.006214142	8.946228027	-1.914978027	3.971862793	0.526059898	-0.039244679	0.310714856	-1.044677734	0.686767578	0.485351563	884.06	-27.56065903	-66.35004988	-135.1963946	-43
22436	0	0.366436958	-0.070399284	0.15207386	0.999949455	0.008109093	0.000818253	0.005829811	9.160923958	-1.759982109	3.801846504	0.405461421	0.040913313	0.291495433	-1.033935547	0.712402344	0.471191406	883.88	-27.84761347	-65.96860296	-133.8677054	-43
22437	0	0.360900879	-0.065673828	0.145385742	0.999978065	0.004322052	0.001904488	0.004512787	9.022521973	-1.641845703	3.634643555	0.216104137	0.095225058	0.225640948	-1.02734375	0.731689453	0.455078125	883.94	-28.11552194	-65.54516241	-133.0308641	-43
22438	0	0.359294891	-0.071352005	0.143640518	0.99998951	0.002498627	0.002269745	0.002801895	8.982372284	-1.783800125	3.591012955	0.124931736	0.113487608	0.140095206	-1.020751953	0.742431641	0.4453125	884	-28.15592828	-65.17610661	-132.6716714	-43
22439	0	0.352111816	-0.076721191	0.143371582	0.999990463	0.003876686	0.001419067	0.00094223	8.80279541	-1.918029785	3.584289551	0.193834884	0.070953581	0.047111652	-1.020751953	0.748779297	0.442138672	883.94	-27.73042938	-64.99315746	-132.6520278	-43
22440	0	0.352972984	-0.071883202	0.143956184	0.99998188	0.005894661	0.000549316	-0.000387192	8.824324608	-1.79708004	3.59890461	0.294734777	0.027465981	-0.019359702	-1.023193359	0.755371094	0.427490234	884	-26.8859337	-64.96856203	-132.8393137	-43
22441	0	0.354919434	-0.067382813	0.148925781	0.99998951	0.004318237	-0.000239372	-0.001274109	8.87298584	-1.684570313	3.723144531	0.215912597	-0.011968653	-0.06370566	-1.023193359	0.757568359	0.418701172	883.82	-26.11346555	-65.06882613	-133.1462368	-43
22442	0	0.358786583	-0.074604034	0.153739929	0.99998951	0.003807068	-0.001138687	-0.002109528	8.969664574	-1.865100861	3.84349823	0.190354036	-0.056934549	-0.105476735	-1.025390625	0.759765625	0.415771484	883.88	-25.30494065	-65.30112403	-133.5570048	-43
22443	0	0.357116699	-0.069824219	0.151306152	0.999987602	0.00415802	-0.001238823	-0.002090454	8.92791748	-1.745605469	3.782653809	0.207901805	-0.061941386	-0.104523109	-1.027832031	0.759765625	0.413085938	883.98	-24.45993234	-65.53994236	-133.9631544	-43
22444	0	0.359443665	-0.068735123	0.155819893	0.999991417	0.003293037	-0.001550674	-0.001661301	8.986091614	-1.718378067	3.895497322	0.16465231	-0.077533929	-0.083065255	-1.029785156	0.755371094	0.405029297	883.94	-23.83479001	-65.78841656	-134.2362195	-43
22445	0	0.355834961	-0.067443848	0.15423584	0.999996185	0.001694679	-0.001605988	-0.001419067	8.895874023	-1.686096191	3.855895996	0.084734068	-0.080299477	-0.070953457	-1.032226563	0.7578125	0.405029297	883.92	-23.44785455	-66.0298583	-134.4481894	-43
22446	0	0.357949257	-0.072673798	0.156082153	0.999997139	0.000907898	-0.001443863	-0.001269341	8.948731422	-1.81684494	3.902053833	0.045394932	-0.0721932	-0.063467074	-1.034423828	0.755615234	0.408203125	883.98	-23.16563591	-66.24603232	-134.6443353	-43
22447	0	0.35546875	-0.072631836	0.155029297	0.999997139	0.001338959	-0.001078606	-0.00113678	8.88671875	-1.815795898	3.875732422	0.066947984	-0.053930321	-0.05683903	-1.034423828	0.753417969	0.411132813	884.06	-22.8252599	-66.41634497	-134.8500743	-43
22448	0	0.356935501	-0.073251724	0.149329185	0.999998093	0.000207901	-0.000695229	-0.001293182	8.923387527	-1.831293106	3.733229637	0.010395054	-0.034761442	-0.064659142	-1.036621094	0.751464844	0.411376953	884.04	-22.53545146	-66.5518442	-135.14183	-43
22449	0	0.354492188	-0.071960449	0.149902344	0.999999046	-0.000770569	-0.000620842	-0.000934601	8.862304688	-1.79901123	3.747558594	-0.038528454	-0.031042109	-0.046730056	-1.0390625	0.747070313	0.417724609	883.94	-22.43662214	-66.6625415	-135.347897	-43
22450	0	0.365196228	-0.076025009	0.149024963	0.999999046	-0.00047493	-0.000469208	-0.000733376	9.129905701	-1.900625229	3.725624084	-0.023746494	-0.023460392	-0.036668783	-1.038818359	0.744873047	0.412109375	883.94	-22.33852779	-66.74760081	-135.515907	-43
22451	0	0.358154297	-0.06842041	0.146118164	0.999999046	-0.000694275	-0.000243187	-0.000514984	8.953857422	-1.710510254	3.652954102	-0.03471375	-0.012159349	-0.02574921	-1.041259766	0.745117188	0.41796875	883.98	-22.2968789	-66.79857414	-135.6500698	-43
22452	0	0.358847618	-0.069965363	0.147615433	0.999999046	-0.000662804	-0.000173569	0.000202179	8.971190453	-1.749134064	3.690385818	-0.033140185	-0.008678437	0.010108949	-1.041259766	0.742919922	0.41796875	884	-22.42293725	-66.81032235	-135.5980714	-43
22453	0	0.357543945	-0.070007324	0.15032959	0.999999046	-0.000938416	-0.000208855	0.0001297	8.938598633	-1.750183105	3.758239746	-0.046920784	-0.010442735	0.006484986	-1.041259766	0.740722656	0.423828125	883.88	-22.56729865	-66.82818134	-135.5608634	-43
22454	0	0.358748436	-0.069348335	0.151636124	0.999998093	0.001227379	-0.000576973	0.000308037	8.968710899	-1.733708382	3.790903091	0.061368962	-0.028848657	0.015401845	-1.038818359	0.740722656	0.418212891	883.92	-22.54630702	-66.87637954	-135.4334372	-43
22455	0	0.351928711	-0.070495605	0.152954102	0.999998093	0.001709938	-0.000411987	5.34E-05	8.798217773	-1.762390137	3.823852539	0.085496947	-0.020599376	0.002670289	-1.038818359	0.740722656	0.418212891	883.94	-22.39078055	-66.91736113	-135.3924798	-43
22456	0	0.354125023	-0.067316055	0.155822754	0.999995232	0.00300312	-0.000576019	0.000170708	8.853125572	-1.682901382	3.895568848	0.150156256	-0.028801009	0.008535398	-1.038818359	0.742675781	0.41796875	883.94	-22.13311125	-66.96971569	-135.3016439	-43
22457	0	0.360961914	-0.067504883	0.154907227	0.999994278	0.00325489	4.20E-05	0.000259399	9.024047852	-1.68762207	3.872680664	0.162744811	0.002098087	0.012969994	-1.036621094	0.747070313	0.417480469	884	-21.8064102	-66.95196681	-135.2544901	-43
22458	0	0.361462593	-0.066946983	0.152445793	0.999993324	0.003448486	0.000545502	0.000566483	9.036564827	-1.673674583	3.811144829	0.172424676	0.027275142	0.028324186	-1.034179688	0.749023438	0.408691406	883.94	-21.48510937	-66.86705431	-135.1773414	-43
22459	0	0.364440918	-0.062133789	0.152709961	0.999995232	0.002349854	0.00124073	0.001338959	9.111022949	-1.553344727	3.817749023	0.117492849	0.062036606	0.066948036	-1.036621094	0.753417969	0.399902344	884.06	-21.41415034	-66.67524839	-134.9647066	-43
22460	0	0.354691505	-0.060857773	0.149785995	0.999996185	-0.000116348	0.001732826	0.00209713	8.867287636	-1.521444321	3.744649887	-0.005817421	0.086641419	0.104856621	-1.034423828	0.757568359	0.390869141	883.92	-21.76102558	-66.39840088	-134.6041268	-43
22461	0	0.359069824	-0.062683105	0.143981934	0.999996185	-0.000128746	0.001399994	0.002338409	8.976745605	-1.567077637	3.59954834	-0.00643731	0.069999782	0.116920616	-1.032226563	0.761962891	0.393310547	884.06	-22.1922069	-66.145585	-134.1526495	-43
22462	0	0.357034683	-0.062561035	0.144538879	0.999997139	-0.00015831	0.000900269	0.001864433	8.925867081	-1.564025879	3.613471985	-0.007915503	0.04501346	0.093221731	-1.030029297	0.766113281	0.387207031	883.98	-22.5548987	-65.96514817	-133.7788672	-43
22463	0	0.35546875	-0.061828613	0.14276123	0.999999046	-0.000396729	0.000199318	0.000869751	8.88671875	-1.545715332	3.569030762	-0.019836429	0.009965898	0.043487556	-1.027832031	0.768310547	0.389648438	883.94	-22.77486885	-65.90210803	-133.5910643	-43
22464	0	0.355483055	-0.06311512	0.148711205	0.999999046	0.000163078	-0.0007267	7.53E-05	8.887076378	-1.577877998	3.717780113	0.008153916	-0.036334995	0.003767014	-1.027832031	0.772705078	0.389404297	884.04	-22.83449733	-65.97184801	-133.5083618	-43
22465	0	0.359375	-0.063293457	0.151977539	0.999999046	0.000549316	-0.000975609	-0.000312805	8.984375	-1.582336426	3.799438477	0.027465826	-0.048780452	-0.015640262	-1.025390625	0.768310547	0.389648438	884	-22.78264134	-66.08489898	-133.4995663	-43
22466	0	0.364352226	-0.06204319	0.153225899	0.999998093	0.000571251	-0.000958443	-0.000855446	9.108805656	-1.55107975	3.830647469	0.028562555	-0.04792215	-0.042772307	-1.022949219	0.768066406	0.38671875	883.88	-22.595892	-66.21994492	-133.6351472	-43
22467	0	0.358764648	-0.060913086	0.153442383	0.999999046	-0.000465393	-0.000639915	-0.000926971	8.969116211	-1.522827148	3.83605957	-0.023269659	-0.031995781	-0.046348583	-1.025146484	0.766113281	0.386962891	883.94	-22.47689825	-66.32394306	-133.8263832	-43
22468	0	0.358107567	-0.063997269	0.156585693	0.999999046	-3.91E-05	-0.000514984	-0.001091957	8.952689171	-1.599931717	3.914642334	-0.001955033	-0.025749213	-0.054597868	-1.025146484	0.76171875	0.390136719	883.94	-22.25489313	-66.42110737	-134.076891	-43
22469	0	0.356872559	-0.063537598	0.156616211	0.999998093	-0.00014782	-0.000152588	-0.001625061	8.921813965	-1.588439941	3.915405273	-0.007390979	-0.007629398	-0.081253088	-1.02734375	0.759521484	0.393310547	884.04	-21.87727181	-66.50161283	-134.5105617	-43
22470	0	0.353956223	-0.064326286	0.153558731	0.999998093	-0.000748634	7.92E-05	-0.001674652	8.848905563	-1.608157158	3.838968277	-0.037431738	0.003957751	-0.083732652	-1.031982422	0.755371094	0.391113281	883.98	-21.53148894	-66.55790419	-134.9842915	-43
22471	0	0.356201172	-0.067077637	0.152709961	0.999998093	-0.000582695	0.000209808	-0.001365662	8.905029297	-1.676940918	3.817749023	-0.029134761	0.010490421	-0.068283107	-1.034179688	0.753417969	0.391357422	884	-21.22930559	-66.5857625	-135.3896468	-43
22472	0	0.357245445	-0.070371628	0.15363121	0.999999046	0.000142097	-1.53E-05	-0.000801086	8.931136131	-1.759290695	3.840780258	0.007104874	-0.00076294	-0.040054326	-1.033935547	0.746826172	0.39453125	884	-21.00537312	-66.61304383	-135.6199185	-43
22473	0	0.361755371	-0.066345215	0.152587891	0.999999046	0.000709534	0.000378609	-0.000350952	9.043884277	-1.658630371	3.814697266	0.035476689	0.018930438	-0.01754761	-1.036132813	0.746826172	0.389160156	884	-20.79112321	-66.57903364	-135.7685631	-43
22474	0	0.358265877	-0.061362267	0.151907921	0.999998093	-0.00105381	0.000868797	0.000314713	8.956646919	-1.534056664	3.797698021	-0.052690523	0.043439879	0.015735631	-1.033691406	0.746826172	0.386230469	884	-20.89786931	-66.46501891	-135.7873673	-43
22475	0	0.35723877	-0.063415527	0.153137207	0.999997139	-0.001907349	0.001130104	0.000831604	8.930969238	-1.585388184	3.828430176	-0.095367521	0.056505256	0.041580239	-1.038330078	0.744628906	0.386474609	883.94	-21.203852	-66.30144411	-135.6960358	-43
22476	0	0.35464859	-0.063314438	0.154858589	0.999998093	-0.001214981	0.001036644	0.00087738	8.866214752	-1.582860947	3.871464729	-0.060749088	0.051832228	0.043869043	-1.036132813	0.746826172	0.391845703	883.98	-21.44822474	-66.1453378	-135.5853174	-43
22477	0	0.358215332	-0.060546875	0.15435791	0.999999046	-0.000534058	0.000767708	0.000511169	8.955383301	-1.513671875	3.858947754	-0.026702886	0.038385399	0.025558477	-1.036132813	0.746826172	0.389160156	883.92	-21.55008453	-66.03292833	-135.5448429	-43
22478	0	0.357004166	-0.059000969	0.153499603	0.999998093	-0.001311302	0.000897408	0.000178337	8.925104141	-1.475024223	3.837490082	-0.065565137	0.044870396	0.008916859	-1.035888672	0.744628906	0.386474609	884.04	-21.6481841	-65.92057344	-135.6058181	-43
22479	0	0.356689453	-0.061828613	0.155517578	0.999999046	-0.000972748	0.000626564	5.34E-05	8.917236328	-1.545715332	3.887939453	-0.048637401	0.031328208	0.002670289	-1.036132813	0.746826172	0.383300781	883.88	-21.70315812	-65.84214696	-135.6710508	-43
22480	0	0.358808517	-0.060459137	0.154810905	0.999999046	-0.000479698	0.00044632	-0.000137329	8.970212936	-1.511478424	3.870272636	-0.023984911	0.022315981	-0.006866456	-1.036132813	0.746826172	0.383300781	884.06	-21.67326108	-65.79088975	-135.7674813	-43
22481	0	0.358703613	-0.05871582	0.153747559	0.999999046	-0.001110077	0.000580788	-0.000255585	8.967590332	-1.467895508	3.843688965	-0.05550386	0.029039391	-0.012779239	-1.035888672	0.742431641	0.389404297	884	-21.67482567	-65.73029491	-135.9094133	-43
22482	0	0.358616829	-0.06076622	0.153600693	0.999997139	-0.002212524	0.000535965	-0.000451088	8.965420723	-1.519155502	3.840017319	-0.11062632	0.026798272	-0.022554418	-1.035888672	0.744628906	0.386474609	883.94	-21.76091446	-65.68279147	-136.0961705	-43
22483	0	0.353637695	-0.065673828	0.154418945	0.999999046	-0.001174927	7.34E-05	-0.000610352	8.840942383	-1.641845703	3.860473633	-0.058746355	0.003671647	-0.030517587	-1.038085938	0.73828125	0.386962891	883.92	-21.73450394	-65.69109645	-136.2766774	-43
22484	0	0.355098724	-0.065422058	0.155109406	0.999999046	0.000763893	-0.000411987	-0.000718117	8.877468109	-1.635551453	3.877735138	0.038194664	-0.02059937	-0.035905846	-1.040527344	0.73828125	0.390136719	883.98	-21.50585308	-65.75527671	-136.4355516	-43
22485	0	0.354125977	-0.064208984	0.156066895	0.999999046	0.000450134	-0.000304222	-0.000751495	8.853149414	-1.605224609	3.901672363	0.022506717	-0.015211108	-0.037574773	-1.040527344	0.736083984	0.393066406	883.98	-21.29441302	-65.80882219	-136.6151736	-43
22486	0	0.359200478	-0.064261436	0.156088829	0.999999046	-0.000677109	-0.000162125	-0.000579834	8.98001194	-1.606535912	3.902220726	-0.033855443	-0.008106233	-0.028991703	-1.042724609	0.733886719	0.390380859	883.94	-21.23946214	-65.83970286	-136.7645132	-43
22487	0	0.358947754	-0.06652832	0.157592773	0.999999046	-0.00113678	0.000153542	-0.000156403	8.973693848	-1.663208008	3.939819336	-0.056839002	0.00767708	-0.007820131	-1.042480469	0.731933594	0.393554688	884	-21.30912402	-65.81898263	-136.8352422	-43
22488	0	0.356661797	-0.066775322	0.157488823	0.999999046	-0.000760078	-7.44E-05	0.000361443	8.916544914	-1.669383049	3.937220573	-0.038003926	-0.00371933	0.01807213	-1.040283203	0.729492188	0.396484375	884	-21.48023678	-65.80066596	-136.7478306	-43
22489	0	0.354431152	-0.065063477	0.155395508	0.999999046	-0.000671387	-0.000178337	0.000411987	8.860778809	-1.626586914	3.884887695	-0.03356934	-0.008916856	0.020599367	-1.042724609	0.731933594	0.396240234	883.88	-21.66300404	-65.79094405	-136.6361084	-43
22490	0	0.356994629	-0.06831646	0.157250404	0.999999046	0.0008564	-0.000635147	0.00032711	8.924865723	-1.707911491	3.931260109	0.042819986	-0.031757361	0.016355518	-1.040283203	0.731689453	0.396240234	884.04	-21.69412135	-65.83305318	-136.4988777	-43
22491	0	0.359558105	-0.062133789	0.156311035	0.999998093	0.001282692	-0.000549316	0.000419617	8.988952637	-1.553344727	3.907775879	0.06413462	-0.02746583	0.020980842	-1.040527344	0.733886719	0.398925781	883.86	-21.69020768	-65.86195813	-136.3467895	-43
22492	0	0.358823776	-0.060143471	0.155704498	0.999999046	0.000206947	-0.000244141	0.000736237	8.970594406	-1.503586769	3.892612457	0.010347367	-0.012207033	0.036811833	-1.035644531	0.733886719	0.393066406	883.98	-21.85547396	-65.84474974	-136.143622	-43
22493	0	0.362487793	-0.060974121	0.15637207	0.999999046	-0.000476837	3.53E-05	0.000602722	9.062194824	-1.524353027	3.909301758	-0.02384186	0.001764298	0.030136111	-1.038085938	0.73828125	0.392822266	883.98	-22.04005428	-65.80326218	-136.0046686	-43
22494	0	0.353553772	-0.060753822	0.153652191	0.999999046	-6.29E-05	-5.53E-05	0.000273705	8.838844299	-1.518845558	3.841304779	-0.003147125	-0.002765656	0.013685227	-1.035644531	0.735839844	0.392822266	883.92	-22.10742929	-65.78534543	-135.9425961	-43
22495	0	0.355651855	-0.060974121	0.154846191	0.999999046	-0.000267029	-6.01E-05	-0.000205994	8.891296387	-1.524353027	3.871154785	-0.013351441	-0.003004074	-0.010299683	-1.038085938	0.736083984	0.395751953	883.94	-22.08495831	-65.7885061	-136.0049044	-43
22496	0	0.357344627	-0.064206123	0.155744553	0.999999046	0.000121117	-0.000110626	-0.000664711	8.933615685	-1.605153084	3.893613815	0.006055832	-0.005531311	-0.033235553	-1.038085938	0.736083984	0.398681641	883.94	-21.91428546	-65.81653162	-136.1808944	-43
22497	0	0.358703613	-0.063903809	0.158203125	0.999999046	0.000148773	1.62E-05	-0.00043869	8.967590332	-1.597595215	3.955078125	0.00743866	0.000810623	-0.02193451	-1.038085938	0.736083984	0.395751953	883.94	-21.78152306	-65.82100557	-136.3112986	-43
