Counter	Temperature	VelInc_X	VelInc_Y	VelInc_Z	OriInc_w	OriInc_x	OriInc_y	OriInc_z	Acc_X	Acc_Y	Acc_Z	Gyr_X	Gyr_Y	Gyr_Z	Mag_X	Mag_Y	Mag_Z	Pressure	Roll	Pitch	Yaw	RSSI
22901	0	0.351196289	-0.074890137	0.165161133	0.999946594	0.007927895	-0.006523132	4.58E-05	8.779907227	-1.872253418	4.12902832	0.396401694	-0.326162346	0.002288859	-0.811523438	0.616210938	0.507080078	883.92	-18.40990747	-63.74942654	-137.226581	-63
22902	0	0.362206459	-0.059095383	0.168792725	0.999969482	0.005002022	-0.005654335	0.001888275	9.055161476	-1.477384567	4.219818115	0.250103614	-0.282719605	0.09441471	-0.807373047	0.622558594	0.514892578	884.06	-18.65150947	-64.30903503	-136.3204288	-62
22903	0	0.360900879	-0.054260254	0.178405762	0.99998951	-0.00044632	-0.003726006	0.002277374	9.022521973	-1.356506348	4.460144043	-0.022316051	-0.186300876	0.113869079	-0.798095703	0.626708984	0.511230469	883.96	-19.48180337	-64.64044916	-135.4559673	-62
22904	0	0.358002663	-0.056848526	0.184479713	0.999988556	-0.003778458	-0.00197506	0.001732826	8.950066566	-1.42121315	4.611992836	-0.188923549	-0.098753324	0.086641617	-0.791259766	0.626464844	0.522216797	883.9	-20.4435477	-64.7971748	-134.8702082	-61
22905	0	0.354675293	-0.045410156	0.190551758	0.999985695	-0.004642487	-0.001299858	0.001983643	8.866882324	-1.135253906	4.763793945	-0.23212538	-0.064993199	0.099182578	-0.788818359	0.619873047	0.531005859	884.02	-21.50827	-64.86520539	-134.2806479	-61
22906	0	0.349337578	-0.052043915	0.183253288	0.999995232	-0.002630234	0.000411987	0.00098896	8.733439445	-1.30109787	4.581332207	-0.131511865	0.020599393	0.04944808	-0.781982422	0.619873047	0.533447266	883.9	-21.96232713	-64.78829986	-134.1100752	-62
22907	0	0.359375	-0.064208984	0.172241211	0.999992371	0.003510475	0.001251221	-7.25E-05	8.984375	-1.605224609	4.306030273	0.175524164	0.06256118	-0.003623971	-0.784423828	0.617675781	0.539550781	883.9	-21.39746115	-64.66602548	-134.2889655	-62
22908	0	0.367149353	-0.051954269	0.165166855	0.999978065	0.006354332	0.001642227	0.000658035	9.178733826	-1.298856735	4.129171371	0.317718902	0.082111954	0.032902002	-0.786621094	0.624267578	0.527832031	884	-20.64068508	-64.47082752	-134.3190579	-63
22909	0	0.348937988	-0.043823242	0.15045166	0.999995232	0.001598358	0.002282143	0.001174927	8.723449707	-1.095581055	3.761291504	0.07991803	0.114107306	0.058746427	-0.786865234	0.6328125	0.518554688	883.86	-20.49347129	-64.18629303	-134.2765113	-63
22910	0	0.351234436	-0.05796814	0.149859428	0.999995232	-0.001548767	0.002271652	0.001026154	8.780860901	-1.449203491	3.74648571	-0.077438466	0.113582774	0.051307752	-0.786865234	0.6328125	0.518554688	884	-20.67506995	-63.90897972	-134.269647	-63
22911	0	0.357727051	-0.064453125	0.147216797	0.999998093	-0.000193596	0.001701355	0.00030899	8.94317627	-1.611328125	3.680419922	-0.009679799	0.085067792	0.015449532	-0.789306641	0.635009766	0.510009766	884.02	-20.59266323	-63.72212004	-134.3839875	-63
22912	0	0.354579926	-0.060212135	0.142968178	0.999999046	0.000418663	0.001127243	0.000408173	8.864498138	-1.505303383	3.574204445	0.020933157	0.056362167	0.020408636	-0.791748047	0.639648438	0.509765625	883.92	-20.51064191	-63.59338457	-134.4201193	-63
22913	0	0.354675293	-0.063171387	0.147277832	0.999998093	0.000592232	0.000450134	0.001243591	8.866882324	-1.579284668	3.681945801	0.029611598	0.022506722	0.062179587	-0.789306641	0.641601563	0.503662109	883.96	-20.64505215	-63.50404278	-134.1926827	-63
22914	0	0.353416443	-0.06076622	0.145896912	0.999995232	0.002031326	-0.000108719	0.00231266	8.835411072	-1.519155502	3.647422791	0.101566475	-0.005435952	0.115633194	-0.789550781	0.643798828	0.503662109	883.96	-20.88926993	-63.43130612	-133.6589735	-63
22915	0	0.356933594	-0.057434082	0.149108887	0.999996185	0.001156807	-0.00043869	0.00220108	8.923339844	-1.435852051	3.727722168	0.057840409	-0.021934533	0.110054133	-0.787353516	0.648193359	0.508789063	883.96	-21.23571203	-63.39773218	-133.1230212	-63
22916	0	0.360469818	-0.060007095	0.154666901	0.999998093	0.000276566	-0.000807762	0.00138855	9.011745453	-1.500177383	3.866672516	0.013828284	-0.040388125	0.069427521	-0.782958984	0.654541016	0.502441406	884	-21.54065997	-63.43642899	-132.745507	-63
22917	0	0.35546875	-0.060119629	0.15802002	0.999998093	0.000752449	-0.001029968	0.001300812	8.88671875	-1.502990723	3.950500488	0.037622473	-0.051498442	0.065040624	-0.782958984	0.654541016	0.505126953	883.92	-21.79248945	-63.50169853	-132.3673299	-63
22918	0	0.354910851	-0.060435295	0.160736084	0.999996185	0.001828194	-0.001000404	0.00154686	8.872771263	-1.510882378	4.0184021	0.091409786	-0.050020274	0.077343074	-0.778076172	0.654296875	0.499267578	883.96	-21.97243059	-63.55254684	-131.9319641	-63
22919	0	0.356994629	-0.061645508	0.163513184	0.999997139	0.001419067	-0.00090313	0.001274109	8.924865723	-1.541137695	4.08782959	0.070953422	-0.045156512	0.063705492	-0.776123047	0.658447266	0.498779297	883.84	-22.13369636	-63.60398668	-131.5698719	-63
22920	0	0.357747078	-0.057709694	0.159549713	0.999999046	0.000390053	-0.000339508	0.00082016	8.943676949	-1.442742348	3.988742828	0.019502643	-0.016975405	0.041008002	-0.773925781	0.662841797	0.50390625	883.96	-22.2669743	-63.61486552	-131.3706249	-63
22921	0	0.360473633	-0.059936523	0.16394043	0.999998093	-0.001170158	-7.25E-05	0.000793457	9.01184082	-1.498413086	4.098510742	-0.058507939	-0.003623964	0.039672865	-0.771728516	0.662841797	0.50390625	883.9	-22.54944368	-63.59811914	-131.2042421	-63
22922	0	0.354844093	-0.062101364	0.162828445	0.999996185	-0.001433372	0.00017643	0.000919342	8.871102333	-1.552534103	4.070711136	-0.07166866	0.008821492	0.045967125	-0.769287109	0.660644531	0.509521484	883.96	-22.86599526	-63.54880951	-131.0337503	-63
22923	0	0.354858398	-0.063659668	0.160705566	0.999999046	-0.000293732	-6.39E-05	0.000919342	8.871459961	-1.591491699	4.01763916	-0.014686587	-0.003194809	0.045967109	-0.769287109	0.662841797	0.509521484	883.9	-23.07270942	-63.52430465	-130.8398168	-63
22924	0	0.360194206	-0.063807487	0.16263485	0.999999046	0.000958443	-3.62E-05	0.000559807	9.004855156	-1.595187187	4.065871239	0.047922144	-0.001811982	0.027990347	-0.769287109	0.662841797	0.509521484	884.02	-23.05692606	-63.51273813	-130.7342881	-63
22925	0	0.355285645	-0.061218262	0.155700684	0.999999046	-0.000255585	0.000473976	0.000312805	8.882141113	-1.530456543	3.89251709	-0.012779237	0.023698808	0.01564026	-0.769287109	0.664794922	0.503662109	883.96	-23.08183095	-63.45855525	-130.7381826	-63
22926	0	0.349246025	-0.06102562	0.149529457	0.999999046	-0.001205444	0.000476837	0.000292778	8.731150627	-1.525640488	3.738236427	-0.060272235	0.023841865	0.014638905	-0.769287109	0.662597656	0.503662109	884	-23.21098561	-63.40519249	-130.7474563	-63
22927	0	0.356201172	-0.061523438	0.157348633	0.999996185	-0.002585411	0.000343323	7.63E-05	8.905029297	-1.538085938	3.93371582	-0.1292707	0.017166157	0.003814702	-0.769287109	0.662841797	0.509521484	883.96	-23.46417249	-63.37575983	-130.7947042	-63
22928	0	0.352359772	-0.063486099	0.156775475	0.999993324	-0.003096581	0.000391006	-0.00037384	8.808994293	-1.587152481	3.919386864	-0.15482928	0.019550356	-0.018692047	-0.771484375	0.658447266	0.510009766	883.86	-23.67679575	-63.36197153	-130.9528794	-63
22929	0	0.356018066	-0.068969727	0.162597656	0.999995232	-0.002925873	0.000195503	-0.000495911	8.90045166	-1.724243164	4.064941406	-0.146293856	0.009775176	-0.024795569	-0.771484375	0.654052734	0.515869141	883.92	-23.86216956	-63.37425506	-131.1198309	-63
22930	0	0.355290413	-0.069764137	0.164403915	0.999997139	-0.001815796	9.92E-05	-0.000920296	8.882260323	-1.744103432	4.110097885	-0.090789858	0.00495911	-0.046014818	-0.773925781	0.652099609	0.521972656	883.96	-23.84019896	-63.41599235	-131.376406	-63
22931	0	0.35736084	-0.067138672	0.167358398	0.999998093	-0.001151085	0.000209808	-0.00094223	8.934020996	-1.678466797	4.183959961	-0.057554267	0.010490421	-0.047111529	-0.773681641	0.647705078	0.522216797	883.9	-23.72631484	-63.4465696	-131.6503876	-63
22932	0	0.358148575	-0.067036629	0.16912365	0.999996185	-0.002080917	0.00101757	-0.000782013	8.953714371	-1.675915718	4.22809124	-0.104045972	0.050878575	-0.039100686	-0.778320313	0.645751953	0.525634766	884	-23.67780309	-63.38434433	-131.9703438	-63
22933	0	0.350646973	-0.069274902	0.168395996	0.999994278	-0.002799034	0.001594543	-0.000656128	8.766174316	-1.731872559	4.209899902	-0.139951958	0.079727316	-0.032806456	-0.777832031	0.636962891	0.526123047	883.86	-23.68601877	-63.25507558	-132.319338	-63
22934	0	0.355648041	-0.073517799	0.165518761	0.999997139	-0.001804352	0.001251221	-0.000846863	8.891201019	-1.837944984	4.137969017	-0.090217674	0.062561093	-0.042343179	-0.782470703	0.637207031	0.523681641	883.9	-23.57384544	-63.17003912	-132.6754474	-63
22935	0	0.350952148	-0.072631836	0.161071777	0.999998093	-0.000342369	0.001274109	-0.000545502	8.773803711	-1.815795898	4.026794434	-0.01711846	0.063705466	-0.027275095	-0.784667969	0.6328125	0.524169922	883.96	-23.35688616	-63.06810524	-132.9620533	-63
22936	0	0.352205276	-0.070343971	0.161432266	0.999998093	0.00084877	0.001255989	0.000393867	8.805131912	-1.758599281	4.035806656	0.042438524	0.062799479	0.019693383	-0.789550781	0.635253906	0.524169922	883.92	-23.20150108	-62.92495331	-133.0267693	-63
22937	0	0.35925293	-0.067077637	0.160339355	0.999998093	0.001633644	0.000572205	0.000743866	8.981323242	-1.676940918	4.008483887	0.081682254	0.028610246	0.03719332	-0.787109375	0.637207031	0.518066406	883.88	-23.08949466	-62.83818987	-132.9415444	-64
22938	0	0.370707512	-0.054106712	0.160512924	0.999994278	0.000628471	0.001534462	0.00288105	9.267687798	-1.352667809	4.012823105	0.031423627	0.07672324	0.144052771	-0.784912109	0.641601563	0.517822266	883.9	-23.44214723	-62.55399997	-132.4627677	-64
22939	0	0.357666016	-0.051757813	0.155456543	0.999979019	-0.002364159	0.001888275	0.005607605	8.941650391	-1.293945313	3.886413574	-0.118208731	0.094414396	0.280382146	-0.78515625	0.647949219	0.514404297	883.9	-24.63530053	-62.1032762	-131.4202751	-64
22940	0	0.343127251	-0.065682411	0.154806137	0.999984741	-1.91E-06	0.000891685	0.005369186	8.578181267	-1.64206028	3.870153427	-9.54E-05	0.044584494	0.268460646	-0.780761719	0.654541016	0.516357422	884.02	-25.57090235	-61.75894047	-130.3593427	-64
22941	0	0.32989502	-0.067993164	0.153991699	0.999993324	0.003475189	-0.000605583	0.000644684	8.247375488	-1.699829102	3.84979248	0.173759833	-0.030279224	0.032234261	-0.774169922	0.665039063	0.515136719	883.9	-25.32461286	-61.79927313	-130.1852166	-64
22942	0	0.334384918	-0.067191124	0.151124954	0.999978065	0.00186348	-0.001728058	-0.005991936	8.359622955	-1.679778099	3.778123856	0.093174639	-0.086403503	-0.299598902	-0.776611328	0.665283203	0.515380859	883.92	-24.06331472	-62.2755847	-131.3691723	-64
22943	0	0.358337402	-0.068115234	0.148925781	0.999938965	-0.002230644	-0.002082825	-0.010601044	8.958435059	-1.702880859	3.723144531	-0.111534474	-0.104143348	-0.530062937	-0.787841797	0.654785156	0.51953125	883.96	-22.31402128	-62.98329914	-133.6241575	-64
22944	0	0.360042572	-0.070156097	0.151129723	0.999916077	-0.006959915	-0.002049446	-0.010734558	9.001064301	-1.753902435	3.778243065	-0.348005495	-0.102475173	-0.536742923	-0.801025391	0.631347656	0.530761719	883.9	-20.97819285	-63.66523446	-136.0097614	-63
22945	0	0.351501465	-0.08203125	0.155700684	0.99995327	-0.006511688	-0.002635002	-0.006519318	8.787536621	-2.05078125	3.89251709	-0.325589396	-0.131752124	-0.325970871	-0.812011719	0.607910156	0.544677734	883.86	-20.48526356	-64.22112543	-137.3888445	-63
22946	0	0.359589577	-0.094550133	0.161046028	0.999988556	0.001385689	-0.004174232	-0.001515388	8.989739418	-2.363753319	4.026150703	0.069284689	-0.208712377	-0.075769698	-0.815917969	0.590576172	0.552001953	883.9	-20.30914746	-64.73804324	-137.4100567	-63
22947	0	0.35760498	-0.089172363	0.158691406	0.999941826	0.009521484	-0.004942894	0.000915527	8.940124512	-2.229309082	3.967285156	0.476083418	-0.247149475	0.045777252	-0.811523438	0.592529297	0.554443359	883.92	-19.82354988	-65.24127397	-136.7446828	-63
22948	0	0.357629776	-0.070955276	0.162945747	0.999920845	0.011490822	-0.004560471	0.002214432	8.9407444	-1.773881912	4.073643684	0.574556198	-0.228029524	0.110724499	-0.802734375	0.607666016	0.552734375	883.9	-19.39318064	-65.65468995	-135.772511	-62
22949	0	0.366943359	-0.054748535	0.156433105	0.999949455	0.00881958	-0.002638817	0.003952026	9.173583984	-1.368713379	3.910827637	0.440986381	-0.131943049	0.197604624	-0.793701172	0.620361328	0.542724609	883.96	-19.53227107	-65.79492821	-134.5132369	-62
22950	0	0.364025116	-0.034930229	0.157874107	0.999983788	-0.001623154	8.01E-05	0.005432129	9.100627899	-0.87325573	3.946852684	-0.081158119	0.004005454	0.271607901	-0.78515625	0.637207031	0.53515625	883.9	-20.98149086	-65.57683075	-133.1273978	-63
22951	0	0.359436035	-0.051269531	0.161315918	0.999946594	-0.008284569	0.000926971	0.005950928	8.985900879	-1.281738281	4.032897949	-0.414235682	0.046349382	0.297551589	-0.780517578	0.639404297	0.540283203	883.92	-23.20114359	-65.22776072	-131.7309013	-63
22952	0	0.358503342	-0.06864357	0.149424553	0.999987602	-2.00E-05	-5.72E-05	0.00493145	8.962583542	-1.716089249	3.735613823	-0.001001362	-0.002861035	0.246573494	-0.773681641	0.639160156	0.548583984	883.92	-24.30298041	-65.01207189	-130.5208029	-62
22953	0	0.361083984	-0.052124023	0.157165527	0.999959946	0.007954597	7.25E-05	0.003986359	9.027099609	-1.303100586	3.929138184	0.397735122	0.00362401	0.199320562	-0.764892578	0.649658203	0.544433594	883.86	-24.25093892	-64.82264533	-129.5735214	-62
22954	0	0.359193802	-0.043007851	0.155029297	0.999985695	0.005041122	0.000480652	0.00157547	8.979845047	-1.075196266	3.875732422	0.252057303	0.024032705	0.078773868	-0.758300781	0.666748047	0.528320313	884	-23.9500293	-64.70481275	-129.2673092	-63
22955	0	0.358215332	-0.049621582	0.144226074	0.999998093	0.001351357	0.000694275	-0.000167847	8.955383301	-1.240539551	3.605651855	0.067567852	0.034713759	-0.008392337	-0.760742188	0.671386719	0.525390625	883.8	-23.66380951	-64.64644482	-129.4123772	-62
22956	0	0.355287552	-0.056865692	0.144080162	0.999997139	0.001282692	0.000297546	-0.001735687	8.882188797	-1.421642303	3.602004051	0.064134649	0.014877331	-0.086784431	-0.760742188	0.673339844	0.522216797	883.9	-23.07565321	-64.70095041	-129.9000431	-63
22957	0	0.360229492	-0.059204102	0.145263672	0.999994278	-0.000395775	-1.53E-05	-0.00334549	9.005737305	-1.480102539	3.631591797	-0.019788779	-0.000762941	-0.167274792	-0.765136719	0.669189453	0.520019531	883.86	-22.34446092	-64.8576585	-130.7580599	-63
22958	0	0.352315903	-0.065322876	0.141537666	0.999993324	-0.000793457	-0.000123978	-0.003479958	8.807897568	-1.633071899	3.538441658	-0.039672936	-0.006198896	-0.173998249	-0.771972656	0.665039063	0.523681641	883.92	-21.62930588	-65.02719219	-131.6479533	-63
22959	0	0.355529785	-0.066589355	0.140808105	0.999994278	0.001221657	-0.001296997	-0.002815247	8.888244629	-1.664733887	3.520202637	0.061082953	-0.064849973	-0.14076259	-0.774169922	0.658691406	0.521484375	883.9	-20.93092777	-65.28983626	-132.2638047	-62
22960	0	0.367108345	-0.067698479	0.149180412	0.999993324	0.00206089	-0.001525879	-0.001911163	9.177708626	-1.692461967	3.729510307	0.103044686	-0.076294075	-0.095558329	-0.778808594	0.656738281	0.524658203	883.96	-20.35705687	-65.53756675	-132.6362561	-63
22961	0	0.359008789	-0.065246582	0.150268555	0.999998093	0.001152992	-0.001083374	-0.000598907	8.975219727	-1.631164551	3.756713867	0.05764964	-0.054168727	-0.029945388	-0.781005859	0.654541016	0.522216797	883.96	-20.15423829	-65.68430786	-132.7151313	-62
22962	0	0.359600067	-0.065136909	0.152142525	0.999998093	0.00093174	-0.000849724	0.000815392	8.990001678	-1.628422737	3.803563118	0.046587008	-0.042486207	0.040769592	-0.776367188	0.656494141	0.524414063	883.96	-20.29412212	-65.74947069	-132.4459006	-62
22963	0	0.362060547	-0.063232422	0.155822754	0.999998093	0.000649452	-0.000167847	0.001419067	9.051513672	-1.580810547	3.895568848	0.032472624	-0.008392337	0.070953398	-0.774169922	0.658691406	0.527099609	883.96	-20.55121723	-65.71638179	-132.0838821	-62
22964	0	0.362001419	-0.060703278	0.154375076	0.999998093	-0.000144958	0.000596046	0.001597404	9.050035477	-1.51758194	3.859376907	-0.007247928	0.029802337	0.079870263	-0.771972656	0.660644531	0.526855469	883.86	-20.87208643	-65.59305788	-131.7515697	-62
22965	0	0.363342285	-0.056030273	0.151672363	0.999997139	-0.000549316	0.001069069	0.002044678	9.083557129	-1.400756836	3.791809082	-0.027465846	0.053453496	0.102233983	-0.769775391	0.665039063	0.526367188	883.92	-21.29736341	-65.39972516	-131.3548435	-62
22966	0	0.362921715	-0.055726051	0.14884758	0.999994278	-0.001353264	0.001526833	0.002474785	9.07304287	-1.393151283	3.721189499	-0.067663309	0.07634176	0.123739455	-0.767333984	0.665039063	0.5234375	883.96	-21.86481104	-65.13814956	-130.9023848	-62
22967	0	0.360534668	-0.055236816	0.148620605	0.999995232	-0.000522614	0.001488686	0.002540588	9.013366699	-1.38092041	3.715515137	-0.026130715	0.074434391	0.127029608	-0.767333984	0.666992188	0.520263672	884.06	-22.34516223	-64.87620831	-130.4400687	-62
22968	0	0.360526085	-0.049959183	0.145370483	0.999996185	-7.63E-06	0.001418114	0.002067566	9.013152122	-1.248979568	3.634262085	-0.00038147	0.07090576	0.103378404	-0.762939453	0.671142578	0.514160156	883.92	-22.65734469	-64.64160243	-130.096964	-63
22969	0	0.356079102	-0.052001953	0.144958496	0.999997139	-0.00157547	0.001107216	0.001132965	8.901977539	-1.300048828	3.623962402	-0.078773564	0.05536084	0.056648302	-0.762939453	0.673339844	0.510986328	883.96	-22.96444875	-64.48098727	-129.9576017	-62
22970	0	0.356164932	-0.060357094	0.14842701	0.999999046	0.000156403	0.000249863	0.000160217	8.904123306	-1.508927345	3.71067524	0.00782013	0.012493134	0.008010864	-0.762939453	0.673339844	0.516845703	883.92	-22.9369121	-64.45432695	-129.9695083	-63
22971	0	0.355895996	-0.056518555	0.149475098	0.999998093	0.00099659	-0.000572205	-0.001033783	8.897399902	-1.412963867	3.736877441	0.049829503	-0.028610241	-0.051689169	-0.762939453	0.673339844	0.516845703	884	-22.62458086	-64.56767585	-130.1900245	-63
22972	0	0.358620644	-0.054321289	0.149112701	0.999996185	0.001014709	-0.001049995	-0.001899719	8.96551609	-1.358032227	3.727817535	0.050735522	-0.052499821	-0.094986053	-0.762695313	0.671142578	0.511230469	883.9	-22.1567029	-64.7690581	-130.5796375	-62
22973	0	0.360473633	-0.055969238	0.155151367	0.999997139	6.87E-05	-0.001067162	-0.002006531	9.01184082	-1.399230957	3.87878418	0.00343323	-0.053358124	-0.100326625	-0.765136719	0.669189453	0.511474609	883.92	-21.76752	-64.97552108	-131.0013303	-62
22974	0	0.359232903	-0.061526299	0.15921402	0.999996185	-0.001458168	-0.000834465	-0.002085686	8.980822563	-1.538157463	3.980350494	-0.072908489	-0.041723301	-0.104284411	-0.76953125	0.665039063	0.517822266	883.9	-21.50802162	-65.15908271	-131.4725498	-63
22975	0	0.355224609	-0.065002441	0.158752441	0.999997139	-0.000286102	-0.001177788	-0.001689911	8.880615234	-1.625061035	3.968811035	-0.014305125	-0.058889431	-0.084495605	-0.771728516	0.658447266	0.521240234	883.86	-21.23176906	-65.36120448	-131.8139962	-62
22976	0	0.35789299	-0.064373016	0.158116341	0.999997139	0.001252174	-0.001077652	-0.001375198	8.947324753	-1.609325409	3.952908516	0.062608767	-0.05388264	-0.068759971	-0.774169922	0.656494141	0.530029297	883.96	-20.83917768	-65.53826564	-132.0893831	-62
22977	0	0.355651855	-0.059387207	0.160766602	0.999999046	0.000354767	-0.000536919	-0.000743866	8.891296387	-1.484680176	4.019165039	0.017738345	-0.026845936	-0.037193304	-0.774169922	0.658691406	0.521484375	884.02	-20.64658416	-65.63047897	-132.2569046	-62
22978	0	0.358118057	-0.066983223	0.157011032	0.999999046	0.001018524	-0.000335693	5.25E-05	8.952951431	-1.674580574	3.925275803	0.050926218	-0.016784671	0.002622605	-0.774169922	0.658691406	0.524169922	883.92	-20.54889887	-65.66821479	-132.2372683	-62
22979	0	0.357543945	-0.060852051	0.151245117	0.999997139	0.001968384	-3.72E-05	0.00069809	8.938598633	-1.52130127	3.78112793	0.098419261	-0.001859666	0.034904505	-0.773925781	0.656494141	0.521484375	884.02	-20.46964773	-65.6477363	-132.0783646	-62
22980	0	0.360953331	-0.057720184	0.148514748	0.999998093	0.000473022	0.000594139	0.001188278	9.023833275	-1.443004608	3.71286869	0.023651131	0.029706965	0.05941393	-0.774169922	0.663085938	0.520996094	884	-20.62173435	-65.53974438	-131.8531706	-63
22981	0	0.361022949	-0.060180664	0.145263672	0.999997139	-0.000797272	0.000805855	0.001628876	9.02557373	-1.504516602	3.631591797	-0.039863613	0.040292766	0.08144384	-0.771972656	0.665039063	0.517822266	884.02	-21.00236894	-65.39082391	-131.5365305	-63
22982	0	0.35822773	-0.059432983	0.138544083	0.999997139	0.000261307	0.000152588	0.002040863	8.955693245	-1.485824585	3.463602066	0.013065347	0.0076294	0.102043224	-0.771972656	0.667236328	0.520507813	884	-21.41355074	-65.29411925	-131.0530106	-62
22983	0	0.36340332	-0.057800293	0.146972656	0.999992371	0.002915382	-0.000289917	0.002449036	9.085083008	-1.445007324	3.674316406	0.145769474	-0.014495885	0.12245208	-0.769775391	0.669433594	0.514648438	884.02	-21.65276671	-65.22648329	-130.4238565	-62
22984	0	0.3636446	-0.04357338	0.149637222	0.999998093	-0.000415802	1.43E-05	0.001644135	9.091114998	-1.089334488	3.740930557	-0.02079011	0.000715256	0.082206765	-0.763183594	0.679931641	0.516113281	883.92	-22.05621826	-65.15971427	-130.0327873	-62
22985	0	0.360473633	-0.05267334	0.147338867	0.999998093	-0.001265526	0.000144958	0.000827789	9.01184082	-1.316833496	3.68347168	-0.063276315	0.007247928	0.041389481	-0.763183594	0.679931641	0.516113281	884.02	-22.3554599	-65.11368181	-129.8638489	-62
22986	0	0.359674454	-0.051748276	0.146519661	0.999999046	-0.000482559	-0.000242233	0.000315666	8.991861343	-1.293706894	3.662991524	-0.024127962	-0.012111665	0.015783311	-0.760986328	0.679931641	0.516113281	883.92	-22.48317787	-65.13107226	-129.7849738	-63
22987	0	0.361328125	-0.05065918	0.146606445	0.999999046	-0.00062561	-0.00026226	-0.000717163	9.033203125	-1.266479492	3.665161133	-0.031280523	-0.013113024	-0.03585816	-0.763183594	0.67578125	0.51953125	883.9	-22.39198994	-65.19607221	-129.9657	-63
22988	0	0.358800888	-0.055339813	0.151230812	0.999998093	-0.000867844	-0.000330925	-0.001613617	8.970022202	-1.383495331	3.780770302	-0.043392206	-0.016546259	-0.080680894	-0.763183594	0.67578125	0.51953125	883.96	-22.1270433	-65.30698843	-130.367527	-63
22989	0	0.35723877	-0.05670166	0.148498535	0.999996185	-0.001265526	-0.000427246	-0.002029419	8.930969238	-1.417541504	3.712463379	-0.063276353	-0.021362326	-0.101471047	-0.767578125	0.671386719	0.517089844	883.92	-21.81668238	-65.44509625	-130.8689589	-63
22990	0	0.357862473	-0.061009407	0.152797699	0.999996185	-0.001526833	-0.00042057	-0.002128601	8.946561813	-1.525235176	3.819942474	-0.076341719	-0.021028543	-0.106430179	-0.769775391	0.667236328	0.526123047	883.92	-21.50799459	-65.58523637	-131.4013288	-63
22991	0	0.356872559	-0.06427002	0.153930664	0.999997139	-0.000801086	-0.000376701	-0.001945496	8.921813965	-1.606750488	3.848266602	-0.040054352	-0.018835082	-0.097274854	-0.771972656	0.663085938	0.529541016	883.9	-21.1510589	-65.71129448	-131.894993	-63
22992	0	0.357913017	-0.064831734	0.152029037	0.999998093	-0.000635147	-0.000185966	-0.001605988	8.947825432	-1.620793343	3.800725937	-0.031757371	-0.009298329	-0.080299418	-0.774414063	0.660888672	0.529785156	883.84	-20.83532951	-65.80139748	-132.3221304	-63
22993	0	0.35546875	-0.066223145	0.151794434	0.999999046	-0.000789642	-1.05E-05	-0.000728607	8.88671875	-1.655578613	3.79486084	-0.039482124	-0.000524521	-0.036430366	-0.776611328	0.656494141	0.532958984	883.86	-20.73001829	-65.83588659	-132.5384067	-63
22994	0	0.360515594	-0.068685532	0.152165413	0.999999046	0.000221252	-0.000101089	0.00020504	9.012889862	-1.71713829	3.804135323	0.011062622	-0.005054474	0.010251999	-0.778808594	0.654541016	0.533447266	883.86	-20.74129556	-65.84169261	-132.5003391	-63
22995	0	0.363098145	-0.063659668	0.148498535	0.999999046	0.000915527	-9.82E-05	0.001022339	9.077453613	-1.591491699	3.712463379	0.045776382	-0.004911424	0.051116959	-0.778808594	0.656738281	0.530273438	883.92	-20.86882591	-65.81377642	-132.2475271	-63
22996	0	0.363915443	-0.06284523	0.15165329	0.999999046	0.000523567	-0.000102997	0.001205444	9.097886086	-1.571130753	3.791332245	0.026178368	-0.005149843	0.060272234	-0.774169922	0.658691406	0.527099609	883.86	-21.08548255	-65.77832362	-131.9459715	-63
22997	0	0.358093262	-0.059997559	0.149475098	0.999998093	0.000969887	9.54E-05	0.001125336	8.952331543	-1.499938965	3.736877441	0.048494357	0.004768373	0.056266805	-0.774414063	0.660888672	0.532714844	883.86	-21.21336182	-65.72442518	-131.6862046	-63
22998	0	0.360078812	-0.054166794	0.151967049	0.999999046	-0.000183105	0.00044632	0.001070976	9.001970291	-1.354169846	3.799176216	-0.009155276	0.022315984	0.053548825	-0.771972656	0.665039063	0.523681641	883.98	-21.42655979	-65.63487779	-131.476562	-63
22999	0	0.359680176	-0.061279297	0.153198242	0.999999046	-0.000152588	0.000668526	0.000785828	8.992004395	-1.531982422	3.829956055	-0.007629396	0.033426291	0.039291389	-0.769775391	0.667236328	0.523193359	883.9	-21.54753225	-65.53307554	-131.3643069	-63
23000	0	0.357006073	-0.056394577	0.153718948	0.999998093	0.001331329	0.000647545	0.000733376	8.925151825	-1.409864426	3.842973709	0.066566498	0.032377258	0.036668794	-0.769775391	0.669433594	0.520263672	883.96	-21.48715095	-65.43545876	-131.2645764	-63
23001	0	0.356994629	-0.057250977	0.153015137	0.999998093	0.000874519	0.000923157	0.000644684	8.924865723	-1.431274414	3.825378418	0.043725982	0.046157853	0.032234203	-0.770019531	0.673828125	0.522705078	883.92	-21.43280672	-65.31203365	-131.2158212	-63
23002	0	0.357988358	-0.054642677	0.150841713	0.999998093	0.000435829	0.001580238	0.000558853	8.949708939	-1.366066933	3.771042824	0.021791469	0.079011957	0.027942671	-0.770019531	0.673583984	0.517089844	883.96	-21.34901191	-65.12214105	-131.2547456	-63
23003	0	0.360229492	-0.058898926	0.146789551	0.999997139	-0.000999451	0.001812935	0.000511169	9.005737305	-1.472473145	3.66973877	-0.049972572	0.090646812	0.025558491	-0.770019531	0.673583984	0.517089844	884.04	-21.39861964	-64.90964697	-131.3280828	-63
23004	0	0.361104965	-0.061268806	0.145962715	0.999998093	-0.000421524	0.001513481	0.000850677	9.02762413	-1.531720161	3.649067879	-0.021076214	0.075674097	0.042533897	-0.772460938	0.677978516	0.511230469	883.92	-21.48626886	-64.71523244	-131.2858297	-63
23005	0	0.359558105	-0.057556152	0.14440918	0.999998093	-0.000124931	0.001182556	0.001182556	8.988952637	-1.438903809	3.610229492	-0.00624657	0.059127835	0.059127835	-0.770019531	0.677978516	0.505371094	883.92	-21.64287513	-64.54254984	-131.1296128	-63
23006	0	0.357738495	-0.056242943	0.14609623	0.999998093	-0.000653267	0.000790596	0.001284599	8.943462372	-1.40607357	3.652405739	-0.03266336	0.039529818	0.064229994	-0.770019531	0.677978516	0.508300781	883.92	-21.91522326	-64.40742823	-130.9126464	-63
23007	0	0.360717773	-0.054138184	0.146728516	0.999997139	-0.002204895	0.000573158	0.000598907	9.017944336	-1.35345459	3.668212891	-0.110244853	0.02865794	0.029945401	-0.767822266	0.682373047	0.5078125	883.86	-22.23024227	-64.32499357	-130.8441908	-63
23008	0	0.359314919	-0.055799484	0.154524803	0.999996185	-0.002605438	0.000409126	-2.00E-05	8.982872963	-1.394987106	3.863120079	-0.130272063	0.020456338	-0.001001359	-0.770019531	0.677978516	0.513916016	883.96	-22.46789136	-64.28694052	-130.9132814	-63
23009	0	0.359985352	-0.059082031	0.156860352	0.999995232	-0.00276947	-4.86E-05	-0.000701904	8.999633789	-1.477050781	3.921508789	-0.138473699	-0.002431873	-0.035095263	-0.770019531	0.673583984	0.514160156	883.92	-22.61523503	-64.32742436	-131.1031088	-63
23010	0	0.352519989	-0.062515259	0.157944679	0.999998093	-0.001101494	-0.000357628	-0.000901222	8.812999725	-1.56288147	3.948616982	-0.055074712	-0.0178814	-0.045061128	-0.769775391	0.669433594	0.517333984	883.96	-22.55510893	-64.40918393	-131.3112712	-63
23011	0	0.351989746	-0.064819336	0.161376953	0.999998093	0.000626564	-0.000728607	-0.001106262	8.799743652	-1.620483398	4.034423828	0.031328213	-0.036430372	-0.05531313	-0.771972656	0.667236328	0.514892578	883.9	-22.28391164	-64.5384768	-131.5337198	-63
23012	0	0.357673645	-0.063891411	0.158678055	0.999998093	0.000787735	-0.000449181	-0.001339912	8.941841125	-1.597285271	3.96695137	0.039386766	-0.02245904	-0.06699565	-0.771972656	0.667236328	0.517822266	883.86	-21.91407595	-64.64739694	-131.8446718	-63
23013	0	0.364868164	-0.060974121	0.157653809	0.999999046	-0.000518799	9.54E-07	-0.000778198	9.121704102	-1.524353027	3.941345215	-0.025939945	4.77E-05	-0.038909918	-0.774414063	0.665039063	0.520996094	883.9	-21.7775318	-64.68387305	-132.0632743	-63
23014	0	0.36196804	-0.05831337	0.154663086	0.999992371	-0.003598213	0.000958443	5.34E-05	9.049201012	-1.457834244	3.866577148	-0.179911076	0.047922245	0.002670294	-0.776611328	0.663085938	0.521240234	883.9	-22.09394428	-64.5831857	-132.1705583	-63
23015	0	0.356567383	-0.063964844	0.152526855	0.999991417	-0.003910065	0.000992775	0.000450134	8.91418457	-1.599121094	3.813171387	-0.195503772	0.049638884	0.022506776	-0.776367188	0.656494141	0.52734375	883.9	-22.53057169	-64.46187382	-132.1851254	-63
23016	0	0.352721214	-0.069087982	0.153973579	0.999999046	-0.001345634	0.000289917	0.000113487	8.818030357	-1.727199554	3.849339485	-0.067281744	0.014495854	0.005674364	-0.778564453	0.654541016	0.527587891	883.92	-22.66297754	-64.42955757	-132.2112826	-63
23017	0	0.354309082	-0.065063477	0.150695801	0.999999046	0.000694275	-0.000113487	-0.00062561	8.857727051	-1.626586914	3.76739502	0.03471375	-0.005674363	-0.031280522	-0.776367188	0.654296875	0.527587891	884.02	-22.43546554	-64.47245496	-132.3770276	-63
23018	0	0.357599258	-0.064770699	0.152900696	0.999999046	0.000282288	-0.000181198	-0.000514984	8.939981461	-1.619267464	3.822517395	0.014114381	-0.009059907	-0.025749208	-0.781005859	0.656738281	0.524658203	884	-22.28562917	-64.51749182	-132.5084826	-63
23019	0	0.360229492	-0.065429688	0.15625	0.999999046	0.000354767	-0.000212669	3.81E-05	9.005737305	-1.635742188	3.90625	0.017738343	-0.010633469	0.001907349	-0.781005859	0.656738281	0.524658203	883.96	-22.25342332	-64.54166514	-132.5006337	-63
23020	0	0.358520508	-0.06406498	0.1560812	0.999999046	0.000630379	7.63E-06	0.000834465	8.963012695	-1.601624489	3.902029991	0.031518942	0.00038147	0.041723259	-0.776367188	0.656494141	0.521728516	883.92	-22.34689363	-64.50775262	-132.3185736	-63
23021	0	0.358581543	-0.060791016	0.153320313	0.999999046	0.00037384	6.58E-05	0.001163483	8.964538574	-1.519775391	3.833007813	0.018692021	0.003290177	0.058174148	-0.778564453	0.656494141	0.521728516	883.96	-22.53680108	-64.45318191	-132.0629115	-63
23022	0	0.357625008	-0.061752319	0.15524292	0.999999046	0.000179291	0.000164032	0.00083828	8.940625191	-1.543807983	3.881072998	0.00896454	0.0082016	0.041913992	-0.776367188	0.656494141	0.521728516	883.92	-22.66702547	-64.40222015	-131.8980534	-63
23023	0	0.356750488	-0.056274414	0.154724121	0.999999046	0.000160217	0.000164986	0.000484467	8.918762207	-1.406860352	3.868103027	0.008010865	0.008249283	0.024223329	-0.776367188	0.658691406	0.524414063	883.96	-22.72007808	-64.36678908	-131.8209397	-63
23024	0	0.359026909	-0.054803848	0.152905464	0.999999046	-0.000815392	0.000297546	-0.000115395	8.975672722	-1.370096207	3.822636604	-0.040769582	0.014877321	-0.00576973	-0.776367188	0.658691406	0.521484375	883.96	-22.73960754	-64.34414945	-131.9040368	-63
23025	0	0.358398438	-0.061218262	0.154296875	0.999997139	-0.002090454	0.000565529	-0.000442505	8.959960938	-1.530456543	3.857421875	-0.10452279	0.028276467	-0.022125262	-0.776367188	0.658691406	0.524414063	884	-22.80839992	-64.30780591	-132.093991	-63
23026	0	0.352602005	-0.065466881	0.156741142	0.999998093	-0.001299858	0.000258446	-0.000556946	8.815050125	-1.63667202	3.918528557	-0.064992927	0.012922291	-0.0278473	-0.778564453	0.654541016	0.527587891	883.9	-22.78995218	-64.30879612	-132.2811629	-63
23027	0	0.355712891	-0.063781738	0.154602051	0.999999046	0.000183105	-0.00039196	-0.000450134	8.892822266	-1.594543457	3.86505127	0.009155274	-0.019598008	-0.022506715	-0.781005859	0.65234375	0.528076172	883.96	-22.6847811	-64.37368256	-132.3765034	-63
23028	0	0.357539177	-0.063770294	0.153733253	0.999999046	0.000163078	-0.000314713	-0.000664711	8.938479424	-1.594257355	3.843331337	0.008153916	-0.015735628	-0.033235553	-0.781005859	0.65234375	0.528076172	883.92	-22.52694092	-64.43978827	-132.532278	-63
23029	0	0.357971191	-0.066040039	0.156433105	0.999999046	0.000331879	-0.000395775	-0.00063324	8.949279785	-1.651000977	3.910827637	0.016593935	-0.019788744	-0.031661991	-0.780761719	0.647949219	0.528320313	883.86	-22.36361444	-64.51277924	-132.6733892	-63
23030	0	0.357260704	-0.064935684	0.155094147	0.999999046	0.001213074	-0.000411987	2.57E-05	8.931517601	-1.623392105	3.877353668	0.060653703	-0.020599371	0.001287461	-0.780761719	0.645751953	0.53125	883.96	-22.24707515	-64.55858735	-132.6519072	-63
23031	0	0.355712891	-0.064819336	0.155395508	0.999998093	0.00124073	-0.000347137	0.000740051	8.892822266	-1.620483398	3.884887695	0.062036537	-0.017356879	0.037002577	-0.780761719	0.650146484	0.525390625	883.9	-22.28097729	-64.56636496	-132.4589451	-62
23032	0	0.357802391	-0.062523842	0.155056953	0.999999046	0.000741005	-0.000228882	0.000537872	8.945059776	-1.563096046	3.876423836	0.037050253	-0.011444093	0.02689362	-0.778564453	0.650146484	0.528076172	883.96	-22.31636344	-64.5702977	-132.3282929	-63
23033	0	0.355895996	-0.058227539	0.153503418	0.999999046	0.000286102	-0.000151634	0.000587463	8.897399902	-1.455688477	3.837585449	0.014305116	-0.007581711	0.029373171	-0.778808594	0.654541016	0.530517578	883.98	-22.40747378	-64.56386925	-132.1929961	-63
23034	0	0.358276367	-0.062194824	0.152587891	0.999999046	-0.000453949	-0.000164032	0.000545502	8.95690918	-1.554870605	3.814697266	-0.022697451	-0.0082016	0.027275088	-0.778564453	0.65234375	0.527832031	883.92	-22.57519209	-64.56053103	-132.0668606	-63
23035	0	0.35748291	-0.059692383	0.153259277	0.999999046	0.000156403	-0.00039196	0.000293732	8.937072754	-1.49230957	3.831481934	0.00782013	-0.019598008	0.014686585	-0.776123047	0.652099609	0.524902344	883.92	-22.63781049	-64.59235259	-131.979058	-63
23036	0	0.355369568	-0.059610367	0.151227951	0.999999046	-0.000306129	-0.000553131	8.77E-05	8.884239197	-1.490259171	3.780698776	-0.015306474	-0.027656557	0.004386902	-0.776367188	0.654296875	0.530273438	883.9	-22.72254189	-64.65036413	-131.9254587	-63
23037	0	0.35760498	-0.063659668	0.153991699	0.999999046	0.000488281	-0.001059532	-0.000366211	8.940124512	-1.591491699	3.84979248	0.024414069	-0.052976621	-0.018310551	-0.776367188	0.65234375	0.533447266	884.08	-22.66232711	-64.7819095	-131.9323459	-63
23038	0	0.358705521	-0.061173439	0.152436256	0.999998093	0.000605583	-0.001088142	-0.00067997	8.967638016	-1.529335976	3.81090641	0.03027917	-0.054407138	-0.033998501	-0.778564453	0.65234375	0.530761719	883.9	-22.51998443	-64.93031298	-132.0145227	-62
23039	0	0.358093262	-0.063110352	0.155090332	0.999999046	0.000102997	-0.000941277	-0.000614166	8.952331543	-1.577758789	3.877258301	0.005149842	-0.047063838	-0.03070832	-0.776367188	0.65234375	0.533447266	883.96	-22.43530042	-65.06002347	-132.0962034	-62
23040	0	0.357671738	-0.063066483	0.15626049	0.999999046	9.54E-07	-0.000715256	-0.000385284	8.941793442	-1.576662064	3.90651226	4.77E-05	-0.035762791	-0.019264223	-0.776367188	0.650146484	0.536376953	883.86	-22.39257592	-65.15546236	-132.1451439	-62
23041	0	0.356933594	-0.064147949	0.157348633	0.999999046	9.16E-05	-0.00039196	-0.000392914	8.923339844	-1.60369873	3.93371582	0.004577637	-0.019598008	-0.019645692	-0.776123047	0.647949219	0.533691406	883.92	-22.30693651	-65.21655053	-132.2297111	-62
23042	0	0.356436729	-0.063716888	0.1583004	0.999999046	0.000131607	-0.000106812	-0.000229836	8.910918236	-1.592922211	3.957509995	0.006580353	-0.005340576	-0.011491776	-0.776123047	0.645751953	0.531005859	883.9	-22.22702569	-65.23981693	-132.3029063	-62
23043	0	0.357788086	-0.062683105	0.157043457	0.999999046	-0.000511169	0.000424385	0.000225067	8.944702148	-1.567077637	3.926086426	-0.025558474	0.021219255	0.011253358	-0.778564453	0.645751953	0.536865234	883.9	-22.27534671	-65.18665119	-132.3169638	-63
23044	0	0.355185509	-0.062333107	0.157096863	0.999999046	-0.000645638	0.000688553	0.000709534	8.879637718	-1.558327675	3.92742157	-0.032281883	0.034427651	0.035476693	-0.778564453	0.647949219	0.536621094	883.9	-22.42478548	-65.08401447	-132.2357837	-63
23045	0	0.354980469	-0.059631348	0.156555176	0.999998093	-0.001196861	0.000629425	0.000637054	8.874511719	-1.490783691	3.913879395	-0.059843086	0.031471264	0.031852734	-0.778564453	0.647949219	0.533935547	883.92	-22.62505957	-64.99045213	-132.167374	-63
23046	0	0.360139847	-0.05857563	0.157479286	0.999997139	-0.002096176	0.000328064	0.000437737	9.00349617	-1.464390755	3.936982155	-0.104808889	0.016403211	0.021886843	-0.778564453	0.647949219	0.536621094	883.84	-22.9102013	-64.93731558	-132.1185344	-63
23047	0	0.359375	-0.056152344	0.161560059	0.999997139	-0.001926422	-0.000121117	0.000526428	8.984375	-1.403808594	4.039001465	-0.09632117	-0.006055836	0.026321429	-0.778564453	0.647949219	0.542480469	883.86	-23.23713778	-64.92718311	-132.002162	-63
23048	0	0.35771656	-0.047814369	0.16165638	0.999998093	-0.001752853	-0.000370979	0.000754356	8.942914009	-1.19535923	4.041409492	-0.087642725	-0.018548977	0.037717843	-0.776367188	0.647949219	0.542236328	883.92	-23.61739802	-64.93250062	-131.8038124	-63
23049	0	0.345703125	-0.044616699	0.160217285	0.999993324	-0.003585815	7.34E-05	0.000598907	8.642578125	-1.11541748	4.005432129	-0.179291167	0.003671654	0.02994544	-0.776367188	0.647949219	0.55078125	883.96	-24.12626494	-64.89753376	-131.694913	-63
23050	0	0.342629433	-0.050398827	0.161497116	0.999984741	-0.005272865	2.86E-06	-0.001049995	8.565735817	-1.259970665	4.037427902	-0.263644535	0.000143052	-0.052500024	-0.776611328	0.645996094	0.559570313	883.86	-24.46488016	-64.94683752	-131.9857532	-63
23051	0	0.346069336	-0.057250977	0.159912109	0.999979973	-0.005500793	-0.000403404	-0.003009796	8.651733398	-1.431274414	3.997802734	-0.275041483	-0.020170345	-0.150490797	-0.781005859	0.639648438	0.565917969	883.96	-24.42925205	-65.13127403	-132.7167047	-63
23052	0	0.340386391	-0.059612274	0.150616646	0.999973297	-0.005884171	-0.001395226	-0.003965378	8.509659767	-1.490306854	3.765416145	-0.294211091	-0.069761884	-0.198270618	-0.785400391	0.62890625	0.578369141	883.96	-24.31358651	-65.46366027	-133.5830578	-63
23053	0	0.311950684	-0.061828613	0.142272949	0.999977112	-0.005427361	-0.002845764	-0.002838135	7.79876709	-1.545715332	3.55682373	-0.27137009	-0.14228929	-0.141907817	-0.790039063	0.622558594	0.590576172	884	-24.54469949	-65.89357274	-134.0088185	-63
23054	0	0.32910347	-0.081729889	0.142504692	0.999972343	-0.003387451	-0.005886078	-0.002861023	8.227586746	-2.043247223	3.562617302	-0.169374092	-0.294306558	-0.143052442	-0.792480469	0.616210938	0.608154297	883.96	-24.86391907	-66.64106138	-134.0827264	-63
23055	0	0.407287598	-0.114868164	0.159851074	0.999913216	0.003864288	-0.009802818	-0.0078125	10.18218994	-2.871704102	3.996276855	0.193219958	-0.490154972	-0.390636203	-0.790039063	0.609863281	0.622802734	883.9	-23.53927412	-68.02947921	-135.038298	-63
23056	0	0.424901962	-0.111631393	0.16131115	0.999810219	0.008461952	-0.009805679	-0.014540672	10.62254906	-2.790784836	4.03277874	0.423124354	-0.490314956	-0.72707957	-0.790283203	0.60546875	0.637451172	883.98	-19.60500294	-69.68299432	-138.2163461	-63
23057	0	0.360717773	-0.086486816	0.156311035	0.999844551	0.001041412	-0.009554863	-0.014766693	9.017944336	-2.16217041	3.907775879	0.052073312	-0.47776787	-0.738372862	-0.796875	0.597167969	0.641357422	884.02	-15.86102213	-71.23478897	-142.059768	-63
23058	0	0.32102108	-0.090917587	0.157570839	0.999904633	-0.004239082	-0.009732246	-0.008749008	8.025527	-2.272939682	3.939270973	-0.211960802	-0.486627668	-0.437464207	-0.798828125	0.577636719	0.662841797	883.9	-14.25574242	-72.56155093	-144.2605096	-63
23059	0	0.322692871	-0.099487305	0.16192627	0.999947548	0.003356934	-0.008994102	-0.003364563	8.067321777	-2.487182617	4.048156738	0.167849575	-0.44971288	-0.168231051	-0.791992188	0.573242188	0.679931641	883.96	-13.44463592	-73.6398008	-144.7100847	-63
23060	0	0.324874878	-0.079377174	0.159646988	0.999950409	0.006811142	-0.006403923	-0.002923965	8.121871948	-1.984429359	3.991174698	0.340562545	-0.320201273	-0.146200611	-0.780517578	0.581542969	0.67578125	883.9	-12.08977513	-74.41114513	-145.3110156	-63
23061	0	0.326416016	-0.063842773	0.151855469	0.999980927	0.000847816	-0.00377655	-0.004638672	8.160400391	-1.596069336	3.796386719	0.042391081	-0.188828663	-0.231935005	-0.771728516	0.598632813	0.668212891	883.98	-10.40672096	-74.91776672	-146.9555683	-63
23062	0	0.335173607	-0.073311806	0.145062447	0.999951363	-0.007202148	-0.00210762	-0.006372452	8.379340172	-1.832795143	3.626561165	-0.360113239	-0.105382714	-0.318627736	-0.769775391	0.604980469	0.664794922	883.9	-8.697597327	-75.25301509	-149.5751173	-64
23063	0	0.35333252	-0.08996582	0.148864746	0.999936104	-0.008426666	-0.002619743	-0.007030487	8.833312988	-2.249145508	3.721618652	-0.421342253	-0.130989947	-0.351531812	-0.769287109	0.598388672	0.659667969	883.98	-6.780458172	-75.63251003	-152.5487916	-64
23064	0	0.370615005	-0.103573799	0.161335945	0.999962807	-0.001868248	-0.004413605	-0.007105827	9.265375137	-2.589344978	4.033398628	-0.093413543	-0.220682939	-0.355295717	-0.766357422	0.587402344	0.648925781	883.96	-4.012795842	-76.18360373	-155.6206657	-64
23065	0	0.418884277	-0.090148926	0.164306641	0.999957085	0.005786896	-0.004847527	-0.005268097	10.47210693	-2.253723145	4.107666016	0.289348874	-0.242379751	-0.263408566	-0.765869141	0.587158203	0.626220703	883.92	-1.02810926	-76.73401164	-158.0093006	-64
23066	0	0.487504959	-0.070633888	0.17100811	0.99997139	0.006464958	-0.002287865	-0.002906799	12.18762398	-1.765847206	4.275202751	0.323250899	-0.114394292	-0.14534131	-0.756103516	0.591064453	0.591308594	883.98	1.037837694	-76.96333977	-159.3715288	-63
23067	0	0.522277832	-0.038146973	0.146789551	0.999992371	-0.001566887	0.003364563	-0.000514984	13.0569458	-0.953674316	3.66973877	-0.078344528	0.168228543	-0.025749267	-0.755371094	0.590576172	0.545898438	883.96	0.972534893	-76.54368816	-159.4884085	-63
23068	0	0.441921234	-0.012815475	0.126409531	0.999837875	-0.015443802	0.008433342	0.003680229	11.04803085	-0.320386887	3.160238266	-0.772231692	0.421689814	0.184021372	-0.758544922	0.577392578	0.495849609	884.06	-2.540533955	-75.53780953	-157.690859	-66
23069	0	0.332275391	0.001525879	0.108154297	0.999637604	-0.022799492	0.010192871	0.009967804	8.306884766	0.038146973	2.703857422	-1.140112019	0.509704993	0.498450279	-0.759277344	0.553222656	0.466796875	883.96	-9.007054859	-74.2250756	-153.7057828	-66
23070	0	0.309393883	0.003706932	0.095538139	0.999624252	-0.020855904	0.00864315	0.015500069	7.734847069	0.092673302	2.388453484	-1.042925562	0.432211549	0.775100332	-0.748535156	0.530761719	0.433837891	883.96	-16.57408542	-72.82881497	-148.3202235	-66
23071	0	0.370056152	-0.01348877	0.101379395	0.999794006	-0.010138512	0.006904602	0.016151428	9.251403809	-0.337219238	2.534484863	-0.506960342	0.345253774	0.807626785	-0.733642578	0.521484375	0.411132813	883.92	-22.37057751	-71.42950576	-143.4657515	-69
23072	0	0.394752502	0.003344536	0.122870445	0.999895096	-0.003732681	0.008587837	0.011051178	9.868812561	0.083613396	3.071761131	-0.186640591	0.429406878	0.552578223	-0.718994141	0.520751953	0.376220703	883.96	-25.00275396	-69.98550996	-141.1410764	-65
23073	0	0.326721191	-0.007629395	0.128112793	0.999900818	-0.007857323	0.00945282	0.006797791	8.168029785	-0.190734863	3.202819824	-0.392879055	0.472656535	0.339900704	-0.708740234	0.513427734	0.339355469	883.98	-26.52341504	-68.63837101	-140.4861674	-65
23074	0	0.295096397	-0.037759781	0.132929802	0.999948502	-0.004910469	0.00741291	0.004872322	7.377409935	-0.943994522	3.323245049	-0.24552766	0.370651874	0.243620278	-0.702880859	0.5	0.303222656	883.9	-27.37082985	-67.59505852	-140.1879844	-67
23075	0	0.322875977	-0.070251465	0.136291504	0.999960899	0.005302429	0.00660038	0.002227783	8.071899414	-1.756286621	3.407287598	0.265124847	0.330023213	0.111390583	-0.687988281	0.486328125	0.272216797	883.98	-26.49327634	-66.7718844	-140.4905038	-65
23076	0	0.304859161	-0.063097	0.120610237	0.999866486	0.014909744	0.006476402	0.00139904	7.621479034	-1.577425003	3.015255928	0.745520292	0.323834483	0.069955115	-0.677246094	0.474609375	0.229980469	883.96	-24.39043457	-65.99998146	-140.9311689	-65
23077	0	0.28137207	-0.027709961	0.123352051	0.999970436	0.00459671	0.005692482	0.001995087	7.034301758	-0.692749023	3.08380127	0.229837713	0.284626828	0.09975529	-0.661621094	0.456298828	0.179443359	883.9	-23.7380925	-65.27896166	-141.078129	-66
23078	0	0.288043976	-0.068685532	0.158402443	0.99992466	-0.01084137	0.004142761	0.003821373	7.201099396	-1.71713829	3.960061073	-0.542081971	0.207143216	0.191073404	-0.638916016	0.427001953	0.143798828	883.98	-25.41037434	-64.63190568	-140.6137671	-68
23079	0	0.333679199	-0.114929199	0.182189941	0.999962807	-0.007297516	0.001900673	0.004116058	8.34197998	-2.87322998	4.554748535	-0.364880282	0.095034815	0.205805449	-0.61328125	0.38671875	0.1171875	883.92	-26.93193601	-64.19357423	-139.8684485	-67
23080	0	0.410806656	-0.111779213	0.187598228	0.999999046	-0.000660896	0.000270844	0.000766754	10.2701664	-2.794480324	4.689955711	-0.033044821	0.013542178	0.038337715	-0.592041016	0.329345703	0.095214844	883.86	-27.1425549	-64.09119644	-139.7384359	-65
23081	0	0.469970703	-0.083435059	0.185913086	0.999950409	-0.00940609	-0.001804352	-0.002655029	11.74926758	-2.085876465	4.647827148	-0.470312232	-0.090219076	-0.13275365	-0.583984375	0.259277344	0.080566406	883.92	-27.85998524	-64.38234995	-140.1615165	-65
23082	0	0.529700279	-0.112439156	0.216079712	0.999867439	-0.013782501	-0.005630493	-0.006518364	13.24250698	-2.810978889	5.401992798	-0.689155403	-0.281537054	-0.325932548	-0.590087891	0.178710938	0.079101563	883.92	-28.69080679	-65.27316439	-141.0155267	-63
23083	0	0.433105469	-0.108093262	0.181030273	0.999988556	0.000237465	-0.002223969	-0.004039764	10.82763672	-2.702331543	4.525756836	0.011873287	-0.11119882	-0.201988938	-0.613037109	0.107910156	0.097412109	883.9	-28.03801398	-65.68641683	-141.7342672	-61
23084	0	0.334647179	-0.049854279	0.124025345	0.999896049	0.013533592	-0.001928329	0.004398346	8.366179466	-1.246356964	3.100633621	0.676702871	-0.096419788	0.219924857	-0.641357422	0.054443359	0.120361328	883.92	-27.69944305	-65.61669649	-140.4340479	-62
23085	0	0.370910645	-0.028015137	0.104187012	0.999943733	0.008823395	-0.000407219	0.005748749	9.272766113	-0.700378418	2.604675293	0.441177906	-0.020361324	0.28744276	-0.677978516	0.027587891	0.14453125	883.98	-28.00723491	-65.32415552	-139.0074622	-61
23086	0	0.376598358	-0.059567451	0.087021828	0.999987602	0.00371933	0.001235962	0.002860069	9.414958954	-1.489186287	2.175545692	0.185967221	0.061798338	0.143004025	-0.709960938	0.004882813	0.16796875	883.96	-28.05760247	-65.02281017	-138.5000039	-62
23087	0	0.316040039	-0.044677734	0.080688477	0.999984741	0.004429817	0.001785278	0.002521515	7.901000977	-1.116943359	2.017211914	0.221491937	0.08926435	0.126076358	-0.747070313	-0.006835938	0.187988281	883.96	-27.88404133	-64.68729835	-138.1438771	-63
23088	0	0.270054817	-0.04715538	0.095435143	0.999986649	0.00056076	-0.000243187	0.005041122	6.75137043	-1.178884506	2.385878563	0.028038145	-0.0121594	0.252057205	-0.779785156	-0.014160156	0.204589844	883.96	-28.90936528	-64.41917506	-136.9472261	-64
23089	0	0.279602051	-0.061035156	0.102539063	0.999973297	0.000279427	0.000278473	0.007202148	6.99005127	-1.525878906	2.563476563	0.01397145	0.013923766	0.360110544	-0.812744141	-0.012939453	0.223388672	883.98	-30.32173367	-63.96679051	-135.3511442	-66
23090	0	0.272014618	-0.071313858	0.101813316	0.999970436	-0.004451752	0.001955032	0.005819321	6.800365448	-1.782846451	2.545332909	-0.222589719	0.097752554	0.290968823	-0.841308594	-0.007568359	0.241455078	883.96	-31.7474877	-63.4151675	-134.3368458	-65
23091	0	0.293457031	-0.098937988	0.12701416	0.999968529	-0.007743835	0.00048542	0.001106262	7.336425781	-2.473449707	3.175354004	-0.387195737	0.02427126	0.055313677	-0.871826172	-0.006347656	0.254394531	883.9	-32.78427956	-63.284517	-134.1763652	-70
23092	0	0.333076477	-0.12967968	0.139389038	0.99998188	-0.00152874	-0.001489639	-0.005598068	8.326911926	-3.241991997	3.484725952	-0.076437454	-0.07448241	-0.279905086	-0.90234375	-0.009521484	0.281738281	883.86	-32.05474467	-63.75613972	-135.1939422	-79
23093	0	0.373168945	-0.131347656	0.145751953	0.999920845	0.00617981	-0.004000664	-0.010185242	9.329223633	-3.283691406	3.643798828	0.308998612	-0.200038454	-0.509275491	-0.930664063	-0.017089844	0.3125	883.9	-29.76182138	-64.7326118	-136.9606237	-70
23094	0	0.458848953	-0.1317873	0.17358017	0.999871254	0.010099411	-0.004684448	-0.01154995	11.47122383	-3.294682503	4.339504242	0.504992212	-0.234232459	-0.577522254	-0.952148438	-0.018310547	0.34765625	883.96	-26.62891691	-65.81502585	-139.142244	-66
23095	0	0.476745605	-0.102783203	0.196655273	0.999892235	0.010757446	-0.000235558	-0.009971619	11.91864014	-2.569580078	4.916381836	0.537891609	-0.0117783	-0.498598818	-0.971679688	-0.010986328	0.376708984	883.98	-23.09490877	-66.30369891	-141.6659728	-63
23096	0	0.484941483	-0.081091881	0.197221756	0.99995327	0.004666328	0.000608444	-0.008340836	12.12353706	-2.02729702	4.9305439	0.233319988	0.030422676	-0.417048154	-0.984375	0.004882813	0.395996094	884.02	-20.47456892	-66.57766161	-143.9454163	-62
23097	0	0.46661377	-0.042602539	0.171203613	0.999923706	-0.007441521	0.004402161	-0.008804321	11.66534424	-1.065063477	4.280090332	-0.372085478	0.220113619	-0.440227237	-0.994384766	0.018554688	0.412353516	883.9	-18.75926854	-66.4267927	-146.747351	-61
23098	0	0.290154457	-0.021098137	0.171415329	0.999706268	-0.023545265	0.005105019	-0.002246857	7.253861427	-0.527453423	4.285383224	-1.177378169	0.255275845	-0.1123538	-1.001464844	0.018798828	0.415527344	883.9	-20.46656881	-65.94636767	-147.8322651	-63
23099	0	0.322937012	-0.07019043	0.154602051	0.999863625	-0.014499664	-0.000174522	0.007801056	8.073425293	-1.754760742	3.86505127	-0.72501598	-0.008726514	0.390070423	-1.006591797	0.027587891	0.420898438	883.9	-23.98827831	-65.61033109	-145.7968532	-66
23100	0	0.430019379	-0.072453499	0.116790771	0.999920845	0.007939339	0.003414154	0.009067535	10.75048447	-1.811337471	2.919769287	0.396977316	0.170712167	0.453388627	-1.008544922	0.066894531	0.428955078	883.92	-24.78227456	-64.81163807	-143.9244342	-66
23101	0	0.329162598	-0.012268066	0.104309082	0.999960899	0.003463745	0.00697422	0.00409317	8.229064941	-0.30670166	2.607727051	0.17318949	0.348715512	0.204661148	-1.012695313	0.114990234	0.419677734	883.9	-24.57751972	-63.87901808	-143.7127649	-66
23102	0	0.241975784	-0.026682854	0.110989571	0.999849319	-0.016558647	0.004250526	0.002635956	6.049394608	-0.667071342	2.774739265	-0.82797365	0.212536921	0.131804364	-1.020263672	0.134765625	0.404296875	883.96	-26.59682059	-63.29928478	-143.5787313	-66
23103	0	0.225524902	-0.092468262	0.132141113	0.999985695	-0.004375458	-0.000353813	0.002902985	5.638122559	-2.311706543	3.303527832	-0.218773898	-0.01769074	0.145149901	-1.031982422	0.141601563	0.401611328	883.98	-27.72061339	-63.17181619	-142.8861527	-66
23104	0	0.251139641	-0.096511841	0.148220062	0.999777794	0.021042824	-0.00100708	-3.81E-05	6.27849102	-2.412796021	3.705501556	1.052219031	-0.050357729	-0.00190749	-1.046875	0.163818359	0.400390625	883.92	-25.40387362	-63.26315628	-142.785515	-65
23105	0	0.279907227	-0.056213379	0.154418945	0.999755859	0.021874428	-0.00182724	-0.00233078	6.997680664	-1.405334473	3.860473633	1.093810231	-0.091369421	-0.116548468	-1.066894531	0.195068359	0.396240234	883.96	-22.57813385	-63.54808243	-143.1464819	-67
23106	0	0.308263779	-0.054930687	0.168828964	0.999998093	-0.000901222	-0.001561165	0.000100136	7.706594467	-1.373267174	4.220724106	-0.045061136	-0.078058285	0.005006793	-1.093505859	0.219726563	0.395507813	883.92	-22.83862375	-63.69274965	-142.9740124	-66
23107	0	0.340087891	-0.105651855	0.191894531	0.999933243	-0.010867119	-0.002960205	0.002410889	8.502197266	-2.641296387	4.797363281	-0.543367957	-0.148013527	0.120547099	-1.120117188	0.23828125	0.412597656	883.9	-24.87410066	-63.87349186	-142.0966146	-64
23108	0	0.400909424	-0.119008064	0.200187683	0.999984741	-0.001256943	-0.004582405	0.002490044	10.0227356	-2.975201607	5.004692078	-0.062847439	-0.229121353	0.124502779	-1.145019531	0.267578125	0.428466797	883.96	-26.01070246	-64.20624609	-140.996088	-62
23109	0	0.42779541	-0.067687988	0.176025391	0.999975204	-0.00278759	-0.005157471	0.003822327	10.69488525	-1.692199707	4.400634766	-0.139380639	-0.25787564	0.191117893	-1.158935547	0.313720703	0.439697266	883.98	-27.69730821	-64.51817761	-139.4806695	-62
23110	0	0.521972656	-0.100402832	0.220092773	0.999892235	-0.008262634	-0.012039185	-0.000675201	13.04931641	-2.510070801	5.502319336	-0.413146428	-0.601980667	-0.033761273	-1.158203125	0.348632813	0.448242188	883.96	-29.92584982	-65.74777078	-138.0669268	-60
23111	0	0.52327919	-0.098207474	0.175415993	0.999905586	0.008890152	-0.00552845	-0.008617401	13.08197975	-2.455186844	4.385399818	0.444521221	-0.276430972	-0.43088326	-1.147216797	0.361572266	0.463623047	883.98	-27.62462915	-66.76383043	-139.4667254	-59
23112	0	0.367208481	-0.048129082	0.09283638	0.999857903	0.016423225	-0.000238419	-0.003555298	9.180212021	-1.203227043	2.3209095	0.821199927	-0.01192149	-0.177773261	-1.139404297	0.354492188	0.4296875	883.92	-24.90820969	-66.95644029	-140.3771224	-60
23113	0	0.412719727	-0.008422852	0.088500977	0.999897003	0.013112068	-0.000179291	0.005817413	10.31799316	-0.210571289	2.212524414	0.655625898	-0.008964846	0.290880644	-1.122558594	0.355957031	0.400146484	883.92	-24.82687032	-66.68683138	-138.8357714	-60
23114	0	0.36430645	-0.004312515	0.067027092	0.999982834	-0.001263618	0.00436306	0.003696442	9.107661247	-0.107812881	1.675677299	-0.063181285	0.218154247	0.184823139	-1.108642578	0.359619141	0.387695313	883.96	-25.34925748	-66.0510334	-138.4270624	-60
23115	0	0.252197266	-0.027526855	0.077148438	0.999940872	-0.009383202	0.001419067	0.005180359	6.304931641	-0.688171387	1.928710938	-0.469169221	0.070954752	0.259022991	-1.103515625	0.350830078	0.385498047	883.92	-27.43362263	-65.6396928	-137.3249557	-60
23116	0	0.241210938	-0.079345703	0.095336914	0.999961853	-3.81E-05	-0.001303673	0.008560181	6.030273438	-1.983642578	2.383422852	-0.001907372	-0.065184454	0.428014382	-1.096679688	0.348388672	0.396484375	883.96	-29.47188008	-65.30151543	-135.0945957	-66
23117	0	0.240649223	-0.070785522	0.101290703	0.999889374	0.010590553	-0.000553131	0.01030159	6.016230583	-1.769638062	2.53226757	0.529546958	-0.027657563	0.515098265	-1.086181641	0.374267578	0.40234375	883.96	-30.51166949	-64.76362753	-132.6138867	-63
23118	0	0.253079414	-0.069394112	0.122102737	0.999952316	0.001889229	0.000248909	0.009558678	6.326985359	-1.734852791	3.052568436	0.094462937	0.012445647	0.477941451	-1.080810547	0.408935547	0.410644531	883.98	-32.21120159	-64.16568113	-130.494368	-66
23119	0	0.297058105	-0.102966309	0.146850586	0.999950409	-0.008879662	-0.000831604	0.00440979	7.426452637	-2.574157715	3.671264648	-0.443990403	-0.041580886	0.22049314	-1.074951172	0.432861328	0.425537109	884.02	-34.19546446	-63.96388695	-129.4221767	-65
23120	0	0.399961472	-0.13335228	0.173659325	0.999994278	-0.000705719	-0.002720833	-0.001713753	9.999036789	-3.333806992	4.341483116	-0.035286013	-0.136041887	-0.085687792	-1.073730469	0.443847656	0.452880859	884.02	-34.29449037	-64.32647952	-129.405139	-64
23121	0	0.5078125	-0.109741211	0.177246094	0.999919891	0.010663033	-0.000602722	-0.006668091	12.6953125	-2.743530273	4.431152344	0.533165714	-0.030136905	-0.333413351	-1.074462891	0.45703125	0.466064453	883.98	-31.79478532	-64.79699482	-130.8228516	-62
23122	0	0.502898216	-0.058488846	0.180562973	0.999965668	0.004246712	0.002709389	-0.006536484	12.57245541	-1.462221146	4.514074326	0.212337997	0.135470974	-0.326827898	-1.079833984	0.472412109	0.465087891	883.9	-29.58244775	-64.91033823	-132.7302653	-58
23123	0	0.581970215	-0.046203613	0.165710449	0.999814987	-0.015746117	0.004272461	-0.010181427	14.54925537	-1.155090332	4.14276123	-0.787354372	0.213636217	-0.509102736	-1.086914063	0.477050781	0.462158203	883.98	-28.67095678	-65.05317945	-135.7252112	-58
23124	0	0.421059608	-0.023866653	0.1304636	0.999192238	-0.037549019	0.008039474	-0.011767387	10.52649021	-0.596666336	3.261590004	-1.877956042	0.402081869	-0.588527661	-1.100097656	0.453613281	0.470458984	883.84	-29.4628522	-64.90844001	-139.5961955	-60
23125	0	0.325073242	-0.050598145	0.153625488	0.999331474	-0.036071777	0.003560066	-0.004585266	8.126831055	-1.264953613	3.840637207	-1.803990368	0.178042937	-0.229314343	-1.107910156	0.412597656	0.482910156	883.96	-32.15817063	-64.83216527	-141.1827266	-62
23126	0	0.377144814	-0.092941284	0.138001442	0.999956131	-0.008563042	0.00357914	-0.000612259	9.428620338	-2.323532104	3.450036049	-0.428158258	0.178959566	-0.030613387	-1.104980469	0.401611328	0.486572266	883.96	-32.51963139	-64.52857167	-141.8669241	-61
23127	0	0.365966797	-0.057983398	0.089111328	0.999954224	0.003163338	0.007839203	-0.00447464	9.149169922	-1.449584961	2.227783203	0.158169297	0.391966121	-0.223735406	-1.100585938	0.416503906	0.459472656	883.92	-30.24657414	-64.03663575	-143.9842639	-60
23128	0	0.276958466	-0.027111053	0.10939312	0.999799728	-0.015850067	0.00772953	-0.009431839	6.923961639	-0.677776337	2.734827995	-0.792556191	0.386502282	-0.471623389	-1.104492188	0.4140625	0.420166016	884.02	-29.21302912	-63.8117442	-147.1515791	-61
23129	0	0.232788086	-0.073425293	0.115600586	0.999644279	-0.025085449	0.005417824	-0.007255554	5.819702148	-1.835632324	2.890014648	-1.254421197	0.270923313	-0.36282073	-1.107177734	0.381347656	0.391601563	883.92	-29.96646686	-63.68905485	-149.5137639	-63
23130	0	0.217963219	-0.116158485	0.13932991	0.99997139	-0.006093025	0.002461433	-0.00371933	5.449080467	-2.903962135	3.483247757	-0.304654156	0.12307284	-0.185968259	-1.107910156	0.348632813	0.377197266	883.92	-29.60388055	-63.65896629	-150.6971497	-64
23131	0	0.24005127	-0.114868164	0.162780762	0.999970436	0.007049561	0.002278328	-0.002040863	6.001281738	-2.871704102	4.069519043	0.352481497	0.113917518	-0.102044156	-1.102294922	0.337402344	0.34375	883.96	-28.10218994	-63.54213092	-151.4723523	-63
23132	0	0.271281242	-0.115317345	0.150772095	0.999996185	0.000705719	0.002388954	-0.00049305	6.782031059	-2.882933617	3.769302368	0.035285988	0.119447837	-0.024652508	-1.101318359	0.328369141	0.316162109	883.96	-27.64217316	-63.32289153	-151.897681	-60
23133	0	0.320556641	-0.131347656	0.174560547	0.999993324	-0.003303528	0.000107765	0.001247406	8.013916016	-3.283691406	4.364013672	-0.165176735	0.005388271	0.06237043	-1.102783203	0.317382813	0.297119141	883.96	-28.24111015	-63.23888902	-151.6536374	-60
23134	0	0.404808998	-0.121826172	0.188436508	0.999984741	-0.004029274	-0.003144264	0.00195694	10.12022495	-3.045654297	4.710912704	-0.201464705	-0.157213996	0.097847473	-1.104736328	0.30859375	0.289550781	883.86	-29.42310487	-63.43961832	-150.8508826	-59
23135	0	0.467773438	-0.112548828	0.195922852	0.99995327	-0.006656647	-0.006213188	0.00295639	11.69433594	-2.813720703	4.898071289	-0.332837421	-0.310664154	0.147821777	-1.106933594	0.306640625	0.292724609	883.86	-31.48717745	-63.87563659	-149.4018556	-60
23136	0	0.546113968	-0.165322304	0.242287636	0.999925613	0.00803566	-0.00895977	-0.001498222	13.6528492	-4.133057594	6.057190895	0.40179284	-0.447999494	-0.074912954	-1.109619141	0.309082031	0.303955078	883.84	-31.35960187	-64.83437237	-148.5249166	-61
23137	0	0.457763672	-0.121582031	0.171569824	0.999648094	0.026252747	-0.001460075	-0.003295898	11.4440918	-3.039550781	4.289245605	1.312791	-0.073012316	-0.164814215	-1.107666016	0.319824219	0.294433594	883.86	-27.80853377	-65.15945862	-149.1263339	-62
23138	0	0.357949257	-0.048853874	0.124005318	0.999602318	0.027111053	6.87E-05	0.00771904	8.948731422	-1.221346855	3.100132942	1.355732257	0.003433682	0.386003127	-1.107421875	0.334716797	0.253417969	883.9	-26.36223664	-64.74401939	-147.2968784	-64
23139	0	0.434875488	-0.02734375	0.108703613	0.999551773	0.026703835	0.001098633	0.013458252	10.87188721	-0.68359375	2.717590332	1.335391068	0.054939842	0.673013062	-1.096435547	0.368896484	0.210205078	883.9	-26.04853493	-63.94846779	-144.2526907	-64
23140	0	0.355931282	-0.044114113	0.086684227	0.999738693	0.019300461	0.00338459	0.011730194	8.898282051	-1.102852821	2.167105675	0.965106947	0.169244221	0.5865607	-1.085205078	0.396484375	0.159179688	883.86	-25.90067241	-63.01305056	-141.9485828	-67
23141	0	0.264404297	-0.041931152	0.09161377	0.999835014	0.012645721	0.003865242	0.012424469	6.610107422	-1.048278809	2.290344238	0.632320771	0.193272706	0.621257541	-1.075439453	0.406494141	0.112304688	883.86	-26.51367571	-61.99030377	-139.6271536	-70
23142	0	0.220098495	-0.049366951	0.076641083	0.999855995	0.006975174	0.003765106	0.014997482	5.502462387	-1.234173775	1.916027069	0.348775426	0.18826434	0.749910083	-1.065917969	0.414794922	0.082763672	883.86	-28.13873656	-60.82251957	-136.870502	-67
23143	0	0.222595215	-0.066650391	0.082214355	0.999865532	0.004085541	0.002652168	0.015625	5.564880371	-1.666259766	2.055358887	0.204286159	0.132614335	0.781284883	-1.059326172	0.4296875	0.063964844	883.96	-30.13868211	-59.69059811	-134.0332993	-63
23144	0	0.264930725	-0.084604263	0.115477562	0.999936104	0.002583504	0.001331329	0.010910034	6.623268127	-2.115106583	2.886939049	0.129177931	0.066567882	0.545513299	-1.060058594	0.44921875	0.059570313	883.92	-31.51195144	-58.92508321	-132.0977587	-62
23145	0	0.315979004	-0.106994629	0.136169434	0.999990463	0.002903938	-0.000461578	0.003002167	7.899475098	-2.674865723	3.40423584	0.145197342	-0.023078986	0.150108779	-1.067382813	0.456054688	0.065185547	883.8	-31.70455762	-58.79668273	-131.4901346	-68
23146	0	0.40210247	-0.126012802	0.15794754	0.999936104	0.01061821	-0.002710342	-0.002610207	10.05256176	-3.150320053	3.948688507	0.530921722	-0.135519987	-0.130513091	-1.076904297	0.454345703	0.080078125	883.9	-30.32417864	-59.22534956	-131.6877295	-74
23147	0	0.516418457	-0.096679688	0.171142578	0.999836922	0.016792297	-0.001414299	-0.006462097	12.91046143	-2.416992188	4.278564453	0.839660458	-0.07071879	-0.323122402	-1.091064453	0.450439453	0.098144531	883.9	-27.42844245	-59.73752554	-132.8216211	-64
23148	0	0.450963974	-0.044801712	0.170284271	0.999977112	0.00304985	0.002175331	-0.005504608	11.27409935	-1.120042801	4.257106781	0.15249365	0.108767359	-0.275232441	-1.104980469	0.446777344	0.102050781	883.86	-25.91044803	-59.81383992	-134.1784094	-64
23149	0	0.527587891	-0.051635742	0.192260742	0.99988842	-0.012916565	0.000214577	-0.007499695	13.18969727	-1.290893555	4.806518555	-0.645852267	0.010729235	-0.374998688	-1.112060547	0.442626953	0.122558594	883.86	-26.01966797	-60.18826143	-135.7630674	-61
23150	0	0.415019989	-0.034889221	0.161602974	0.99956131	-0.026978493	0.003336906	-0.011724472	10.37549973	-0.87223053	4.040074348	-1.349121756	0.166869703	-0.586309267	-1.118896484	0.42578125	0.155761719	883.92	-26.68035754	-60.46499588	-138.5597866	-59
23151	0	0.31439209	-0.057067871	0.19934082	0.999426842	-0.032165527	-0.001772881	-0.010314941	7.859802246	-1.426696777	4.983520508	-1.608583213	-0.08866094	-0.515845471	-1.129882813	0.395996094	0.192871094	883.92	-28.63282688	-61.21486483	-140.5434307	-59
23152	0	0.315872192	-0.134705544	0.198372841	0.999957085	1.43E-05	-0.00538826	-0.007514	7.89680481	-3.367638588	4.959321022	0.000715266	-0.269416833	-0.37570535	-1.134521484	0.376708984	0.237304688	883.82	-27.73714099	-62.18337217	-141.5588031	-58
23153	0	0.308044434	-0.109191895	0.14831543	0.999335289	0.035728455	-0.003958702	-0.00605011	7.70111084	-2.729797363	3.707885742	1.786818599	-0.197978967	-0.302572528	-1.134765625	0.374755859	0.257324219	884.02	-22.78368596	-62.9050795	-142.5279268	-56
23154	0	0.275375366	-0.013323784	0.129535675	0.999671936	0.024821281	-0.000475883	-0.006175995	6.884384155	-0.333094597	3.238391876	1.241199484	-0.02379677	-0.308833437	-1.135253906	0.392089844	0.241699219	883.96	-18.64524267	-63.22142335	-143.977051	-55
23155	0	0.236572266	-0.016235352	0.120361328	0.999921799	-0.011271477	0.001461029	-0.005096436	5.914306641	-0.405883789	3.009033203	-0.563588412	0.073053342	-0.254828367	-1.135498047	0.396484375	0.235595703	883.98	-18.70111782	-63.26379496	-145.356553	-58
23156	0	0.244914055	-0.076303482	0.145731926	0.999779701	-0.020886421	0.001190186	-0.001628876	6.122851372	-1.907587051	3.643298149	-1.044397713	0.059513645	-0.081449765	-1.135253906	0.387939453	0.250488281	883.92	-20.62563149	-63.20992056	-145.8794238	-64
23157	0	0.265625	-0.111938477	0.182678223	0.999972343	-0.007350922	0.000279427	0.000350952	6.640625	-2.798461914	4.566955566	-0.367549404	0.013971455	0.017547766	-1.135253906	0.379150391	0.268310547	883.92	-21.4946057	-63.17363394	-145.8499823	-61
23158	0	0.308959961	-0.095092773	0.188293457	0.999974251	0.006458282	-0.002170563	0.002090454	7.723999023	-2.377319336	4.707336426	0.322916857	-0.108529056	0.10452359	-1.135498047	0.377197266	0.282714844	883.96	-21.35477185	-63.32303764	-145.179775	-58
23159	0	0.371418953	-0.077256203	0.19917202	0.999947548	0.008396149	-0.004397392	0.003436089	9.285473824	-1.931405067	4.979300499	0.419814546	-0.219873338	0.171807339	-1.131347656	0.383789063	0.299072266	884.02	-21.47410337	-63.65234867	-143.9732321	-58
23160	0	0.440487862	-0.058446884	0.203192711	0.99998951	-0.00049305	-0.003843307	0.00219059	11.01219654	-1.461172104	5.079817772	-0.024652562	-0.192166009	0.109529857	-1.129638672	0.390380859	0.321044922	883.92	-22.31379071	-63.97160698	-143.1015832	-58
23161	0	0.471740723	-0.074829102	0.200195313	0.999934196	-0.009960175	-0.005610466	0.000518799	11.79351807	-1.870727539	5.004882813	-0.498019598	-0.280529423	0.025940508	-1.132568359	0.386474609	0.364257813	883.96	-24.06828085	-64.54417268	-142.4220541	-60
23162	0	0.568463326	-0.100517273	0.226301193	0.999973297	-0.004395485	-0.004437447	-0.003640175	14.21158314	-2.512931824	5.657529831	-0.219776161	-0.221874262	-0.182010329	-1.137695313	0.371826172	0.422607422	883.92	-24.17755984	-65.18471994	-142.8596964	-62
23163	0	0.411437988	-0.05871582	0.161315918	0.999994278	-0.00108242	0.002323151	-0.002017975	10.28594971	-1.467895508	4.032897949	-0.054121113	0.116157738	-0.100898922	-1.151855469	0.361572266	0.458251953	883.96	-23.58577292	-65.04141992	-143.6512297	-65
23164	0	0.355446815	-0.050815582	0.115614891	0.999964714	0.004330635	0.001274109	0.006949425	8.886170387	-1.270389557	2.890372276	0.216534232	0.063706173	0.347475214	-1.168701172	0.362304688	0.487548828	883.96	-24.4830833	-64.59178485	-142.1158859	-63
23165	0	0.409057617	-0.049682617	0.089355469	0.999913216	0.008930206	0.001648903	0.009502411	10.22644043	-1.24206543	2.233886719	0.446523173	0.082447519	0.475134226	-1.1796875	0.391357422	0.516845703	883.9	-25.32130485	-63.9740651	-140.0544487	-63
23166	0	0.307423592	-0.04456234	0.092471123	0.999977112	0.004057884	0.002232552	0.00476265	7.68558979	-1.114058495	2.311778069	0.202895703	0.1116284	0.238134228	-1.193359375	0.426757813	0.548828125	883.96	-25.61007035	-63.52259245	-139.2162361	-62
23167	0	0.215270996	-0.048950195	0.096740723	0.999972343	-0.004005432	0.002526283	0.005588531	5.381774902	-1.223754883	2.418518066	-0.200273397	0.126315293	0.279429074	-1.214111328	0.456054688	0.593017578	883.92	-26.93360294	-62.99334435	-138.2496527	-62
23168	0	0.204149246	-0.06965065	0.081419945	0.99993515	-0.002569199	0.001423836	0.010947227	5.103731155	-1.741266251	2.035498619	-0.128462681	0.071193312	0.547373094	-1.226074219	0.498291016	0.644287109	883.92	-29.20189434	-62.27266756	-136.0293827	-63
23169	0	0.246704102	-0.078186035	0.097961426	0.999932289	-0.000171661	0.000245094	0.011615753	6.167602539	-1.954650879	2.449035645	-0.008583262	0.012254991	0.580800729	-1.228027344	0.570556641	0.706542969	883.96	-31.33858344	-61.59113641	-133.6308812	-72
23170	0	0.319635391	-0.087638855	0.143986702	0.999979973	0.003789902	-0.000335693	0.004982948	7.990884781	-2.190971375	3.599667549	0.189496328	-0.016784778	0.249149047	-1.218505859	0.655761719	0.758789063	883.84	-31.82448881	-61.3386228	-132.5797243	-65
23171	0	0.352905273	-0.080383301	0.131591797	0.999994278	0.002396584	0.001861572	0.001018524	8.822631836	-2.00958252	3.289794922	0.119829382	0.093078772	0.050926295	-1.208740234	0.740478516	0.796875	883.9	-31.51553274	-61.11085097	-132.6107724	-58
23172	0	0.451025009	-0.088190079	0.156154633	0.999996185	-0.001600266	-0.000563622	-0.002023697	11.27562523	-2.204751968	3.903865814	-0.080013368	-0.028181109	-0.101184963	-1.198730469	0.821044922	0.829345703	883.92	-31.38809116	-61.30460751	-132.9529892	-57
23173	0	0.492004395	-0.089782715	0.176269531	0.999968529	-0.005191803	0.001893044	-0.00566864	12.30010986	-2.244567871	4.406738281	-0.259592861	0.094653165	-0.283434967	-1.183105469	0.883789063	0.851806641	883.92	-30.74301191	-61.4742701	-134.3486518	-58
23174	0	0.54656601	-0.113203049	0.201370239	0.999915123	-0.001394272	-0.001796722	-0.012784958	13.66415024	-2.830076218	5.034255981	-0.069715552	-0.089838646	-0.639265861	-1.17578125	0.925048828	0.870849609	883.9	-28.68982755	-62.40191704	-136.8356382	-60
23175	0	0.471374512	-0.074462891	0.161193848	0.999822617	-0.008452415	0.001792908	-0.016731262	11.78436279	-1.861572266	4.029846191	-0.422645754	0.089650685	-0.836612558	-1.181396484	0.951416016	0.86328125	883.96	-26.14485799	-63.12712779	-140.7583545	-64
23176	0	0.299777985	-0.054695129	0.191924095	0.999712944	-0.021828651	0.000770569	-0.009790421	7.494449615	-1.367378235	4.798102379	-1.091536818	0.038532122	-0.489567783	-1.199951172	0.941162109	0.873535156	883.9	-26.53536172	-63.5670196	-143.0960234	-67
23177	0	0.335754395	-0.10949707	0.182189941	0.999983788	-0.00510788	-0.002360344	-2.29E-05	8.393859863	-2.737426758	4.554748535	-0.25539533	-0.118017819	-0.001144415	-1.195556641	0.943359375	0.890380859	883.96	-27.33495496	-63.82777561	-142.8447927	-63
23178	0	0.365849495	-0.095555305	0.141102791	0.999863625	0.016466141	-0.000398636	5.82E-05	9.146237373	-2.388882637	3.527569771	0.823344269	-0.019932695	0.002908838	-1.171875	0.999023438	0.870361328	883.92	-25.47533625	-63.88399865	-142.8039694	-57
23179	0	0.300415039	-0.022766113	0.137084961	0.999931335	0.010746956	0.002902985	-0.003528595	7.510375977	-0.569152832	3.427124023	0.537360008	0.14515253	-0.176433759	-1.159423828	1.067626953	0.79296875	883.9	-23.184728	-63.76539158	-143.9656666	-57
23180	0	0.239013672	-0.025626183	0.11874485	0.999900818	-0.013444901	0.003626823	-0.001577377	5.975341797	-0.640654564	2.968621254	-0.672267033	0.181347108	-0.078871448	-1.155029297	1.095458984	0.7421875	884.02	-24.02262057	-63.47396809	-144.7298921	-55
23181	0	0.239013672	-0.064331055	0.141235352	0.999930382	-0.011539459	0.001259804	0.002044678	5.975341797	-1.608276367	3.530883789	-0.576986322	0.062991647	0.102236254	-1.141357422	1.099365234	0.73828125	884.02	-25.61555208	-63.25961118	-144.4144945	-57
23182	0	0.258553505	-0.10682106	0.165173531	0.999974251	0.006877899	0.000921249	0.001224518	6.463837624	-2.670526505	4.129338264	0.343897804	0.046062851	0.061226398	-1.113525391	1.115722656	0.715576172	884.02	-24.96022142	-63.11592158	-144.2587892	-64
23183	0	0.286804199	-0.072509766	0.170410156	0.999773979	0.021217346	-0.000121117	0.000526428	7.17010498	-1.812744141	4.260253906	1.060946973	-0.006056287	0.026323388	-1.087890625	1.146972656	0.643310547	883.96	-22.61969208	-63.11357464	-144.1513394	-61
23184	0	0.338050842	-0.060097694	0.182799339	0.999934196	0.010846138	0.000581741	0.003641129	8.451271057	-1.50244236	4.569983482	0.542318762	0.029087703	0.182060409	-1.062255859	1.180419922	0.5625	883.9	-22.05502666	-62.90117101	-143.3825438	-56
23185	0	0.410095215	-0.060241699	0.195495605	0.999973297	-0.006724358	-0.000339508	0.002830505	10.25238037	-1.50604248	4.887390137	-0.33622087	-0.016975554	0.141526527	-1.031738281	1.196289063	0.505615234	883.98	-23.40770474	-62.81965383	-142.7181265	-55
23186	0	0.437007904	-0.068448067	0.184972763	0.999794006	-0.020152092	-0.001578331	0.001571655	10.9251976	-1.711201668	4.624319077	-1.007673644	-0.078921957	0.078588148	-1.005859375	1.184814453	0.502441406	883.96	-26.15259398	-62.91762657	-142.21976	-57
23187	0	0.49810791	-0.120544434	0.221191406	0.999824524	-0.016085625	-0.00944519	-0.001087189	12.45269775	-3.01361084	5.529785156	-0.804328043	-0.472287007	-0.0543626	-0.981689453	1.157958984	0.525878906	883.9	-28.74197251	-63.94514556	-141.3802362	-62
23188	0	0.455202103	-0.109052658	0.208057404	0.999930382	0.00908947	-0.006780624	-0.002988815	11.38005257	-2.726316452	5.201435089	0.454483913	-0.339038991	-0.149444191	-0.962402344	1.133544922	0.535400391	883.96	-27.80702773	-64.80053695	-141.2620644	-62
23189	0	0.37713623	-0.066345215	0.121459961	0.999732018	0.022808075	-0.003493309	-0.001674652	9.428405762	-1.658630371	3.036499023	1.140505499	-0.174681035	-0.083740076	-0.951904297	1.1328125	0.475341797	883.92	-25.17592789	-65.25446417	-141.2818549	-59
23190	0	0.421995163	-0.040701866	0.109224319	0.999806404	0.019603729	-0.000953674	0.001302719	10.54987907	-1.017546654	2.730607986	0.980249681	-0.047686791	0.065140157	-0.938720703	1.133789063	0.389160156	883.96	-23.28989284	-65.30582268	-140.8839229	-55
23191	0	0.370605469	-0.022277832	0.092468262	0.999983788	0.003643036	0.004223824	0.000614166	9.265136719	-0.556945801	2.311706543	0.18215275	0.211192286	0.030708474	-0.922851563	1.117431641	0.321533203	883.92	-22.57240333	-64.84850082	-141.2117593	-55
23192	0	0.261318207	-0.033639908	0.094314575	0.999913216	-0.012043953	0.004518509	0.002678871	6.53295517	-0.840997696	2.35786438	-0.602214977	0.225931947	0.133947412	-0.916503906	1.088867188	0.289306641	883.96	-24.08095319	-64.26791719	-141.0675165	-58
23193	0	0.231933594	-0.069763184	0.095397949	0.999885559	-0.012618065	0.003047943	0.007652283	5.798339844	-1.74407959	2.38494873	-0.630927122	0.152402924	0.382628617	-0.8984375	1.048828125	0.286132813	883.98	-26.81012692	-63.59185475	-139.6421284	-61
23194	0	0.224237442	-0.084550858	0.095931053	0.999938965	-0.002169609	0.001870155	0.010581017	5.60593605	-2.113771439	2.398276329	-0.108482626	0.09350964	0.529061423	-0.869384766	1.021972656	0.292236328	883.84	-28.96118081	-62.85078182	-137.5179497	-63
23195	0	0.264404297	-0.091674805	0.124572754	0.999945641	0.007316589	-0.000849724	0.007339478	6.610107422	-2.291870117	3.114318848	0.36583606	-0.042486956	0.36698049	-0.840332031	1.001220703	0.278320313	884.02	-29.617285	-62.53879698	-135.8431114	-59
23196	0	0.338672638	-0.097201347	0.138274193	0.999863625	0.016449928	-0.000862122	0.001038551	8.466815948	-2.430033684	3.45685482	0.822533763	-0.043108037	0.051929925	-0.820068359	0.974121094	0.256591797	883.92	-28.00872958	-62.58241425	-135.5393676	-57
23197	0	0.411315918	-0.091430664	0.152282715	0.99985981	0.01651001	-0.000472069	-0.002536774	10.28289795	-2.285766602	3.807067871	0.825538912	-0.023604538	-0.126844588	-0.816162109	0.945556641	0.230224609	883.96	-25.64692666	-62.77714406	-136.0759681	-60
23198	0	0.499046326	-0.044778824	0.15188694	0.999974251	0.005701065	0.001928329	-0.003773689	12.47615814	-1.119470596	3.7971735	0.285055651	0.096417284	-0.18868605	-0.819091797	0.915039063	0.207519531	883.9	-24.03209343	-62.77725008	-137.1634679	-70
23199	0	0.473999023	-0.04876709	0.18371582	0.999899864	-0.012992859	0.002671242	-0.004905701	11.84997559	-1.219177246	4.592895508	-0.649664603	0.133566541	-0.245293212	-0.829589844	0.878417969	0.222412109	883.9	-24.25866519	-62.74862657	-138.5886121	-64
23200	0	0.554018974	-0.068531036	0.183542252	0.999825478	-0.015332222	0.001430511	-0.010538101	13.85047436	-1.713275909	4.58855629	-0.766655592	0.071529725	-0.52693564	-0.846923828	0.835693359	0.249511719	883.9	-23.70013313	-63.11369112	-141.1942553	-60
23201	0	0.376953125	-0.030578613	0.156005859	0.99956131	-0.026404381	0.00345993	-0.01292038	9.423828125	-0.764465332	3.900146484	-1.32041189	0.173021791	-0.646113349	-0.880371094	0.784667969	0.286865234	883.98	-23.68790201	-63.37019302	-144.6011263	-59
23202	0	0.312220573	-0.058012962	0.190982819	0.999549866	-0.029343605	-0.002066612	-0.005829811	7.805514336	-1.450324059	4.774570465	-1.467400248	-0.103346106	-0.291534262	-0.913574219	0.727539063	0.333007813	883.92	-25.99033558	-63.88741918	-145.791329	-60
23203	0	0.352294922	-0.122619629	0.178161621	0.99998951	-0.002456665	-0.003565788	-0.001022339	8.807373047	-3.065490723	4.454040527	-0.122833657	-0.178290002	-0.051117112	-0.933837891	0.69140625	0.379638672	883.9	-26.39127632	-64.32501867	-145.6687045	-64
23204	0	0.317214012	-0.071880341	0.15131855	0.999864578	0.016254425	-0.001015663	-0.002338409	7.930350304	-1.797008514	3.782963753	0.812757925	-0.050785449	-0.116925747	-0.949951172	0.683349609	0.386962891	883.9	-24.08959312	-64.56233392	-146.1627018	-76
23205	0	0.246276855	-0.009643555	0.136901855	0.999984741	-0.00266552	0.002128601	-0.004123688	6.156921387	-0.241088867	3.422546387	-0.133276622	0.106430562	-0.206185371	-0.973144531	0.684082031	0.374023438	883.96	-23.23805736	-64.54485095	-147.4434026	-73
23206	0	0.206083298	-0.059399605	0.138192177	0.999824524	-0.018460274	0.002705574	-0.00159359	5.152082443	-1.48499012	3.45480442	-0.923067637	0.135286609	-0.079684146	-0.995849609	0.663085938	0.391113281	883.96	-24.6996015	-64.34892298	-148.1675068	-69
23207	0	0.232055664	-0.108459473	0.163024902	0.999980927	-0.005812645	0.001579285	-0.000602722	5.801391602	-2.711486816	4.075622559	-0.290634023	0.078964716	-0.030136292	-1.019042969	0.648925781	0.416259766	883.94	-25.04005884	-64.22281513	-148.5299777	-67
23208	0	0.284545898	-0.101836205	0.173613548	0.999921799	0.012256622	0.001608849	-0.001817703	7.113647461	-2.545905113	4.340338707	0.612847062	0.080444522	-0.090887527	-1.037841797	0.653808594	0.416748047	883.98	-23.05238053	-64.14494764	-149.1786971	-69
23209	0	0.31060791	-0.074829102	0.18762207	0.999927521	0.011719704	0.002410889	-0.000545502	7.765197754	-1.870727539	4.690551758	0.585999196	0.120547316	-0.027275738	-1.056884766	0.669433594	0.396728516	883.96	-21.34188522	-63.91543243	-149.5868454	-64
23210	0	0.389923096	-0.064498901	0.200352669	0.999997139	-0.001104355	0.000312805	0.002095222	9.748077393	-1.612472534	5.008816719	-0.055217795	0.015640274	0.104761223	-1.068847656	0.687255859	0.381591797	883.94	-21.86131122	-63.79523547	-149.1467808	-64
23211	0	0.46307373	-0.064758301	0.20135498	0.99992466	-0.011436462	0.000916481	0.004291534	11.57684326	-1.61895752	5.033874512	-0.571837421	0.045825197	0.214582088	-1.078857422	0.696289063	0.389892578	883.98	-23.96799147	-63.50946307	-148.2558789	-65
23212	0	0.499146461	-0.10708046	0.218358994	0.999921799	-0.010608673	-0.005747795	0.003251076	12.47866154	-2.67701149	5.458974838	-0.53044746	-0.287397235	0.162558018	-1.081787109	0.707519531	0.400634766	883.96	-26.40016012	-63.95006202	-146.8966416	-63
23213	0	0.530029297	-0.113586426	0.209777832	0.999949455	0.008838654	-0.004603386	-0.000324249	13.25073242	-2.839660645	5.244445801	0.441940001	-0.23017311	-0.016212732	-1.084716797	0.714111328	0.414306641	883.8	-25.7644572	-64.44428297	-146.4766466	-71
23214	0	0.366290092	-0.053171158	0.122959137	0.999920845	0.012506485	0.000946045	0.000562668	9.157252312	-1.329278946	3.073978424	0.625340678	0.047303489	0.028134131	-1.091796875	0.729492188	0.390869141	883.92	-24.32361113	-64.32442025	-146.4838126	-78
23215	0	0.398193359	-0.044311523	0.109924316	0.999979973	0.004077911	-3.72E-05	0.004695892	9.954833984	-1.107788086	2.74810791	0.203896883	-0.001859677	0.23479613	-1.089599609	0.746582031	0.358154297	883.9	-24.83977503	-64.11318089	-145.3893042	-54
23216	0	0.416893959	-0.051609993	0.08704567	0.999980927	0.000553131	0.004343987	0.00414753	10.42234898	-1.290249825	2.176141739	0.027656723	0.217200642	0.207377737	-1.082763672	0.761474609	0.333740234	883.88	-25.19302425	-63.47432678	-144.9221513	-55
23217	0	0.268249512	-0.04296875	0.089538574	0.999957085	-0.005561829	0.004284859	0.006034851	6.706237793	-1.07421875	2.238464355	-0.278095404	0.214245996	0.301746864	-1.077880859	0.767578125	0.295898438	883.9	-26.60518191	-62.74510714	-144.0512037	-54
23218	0	0.213728905	-0.061354637	0.103775978	0.999914169	-0.003869057	0.001896858	0.012365341	5.343222618	-1.533865929	2.594399452	-0.193458364	0.094845621	0.61828473	-1.063720703	0.771240234	0.280761719	883.9	-29.21635446	-61.90365077	-141.6048015	-56
23219	0	0.221496582	-0.086914063	0.091918945	0.999884605	0.006767273	0.001057625	0.013549805	5.537414551	-2.172851563	2.297973633	0.338376648	0.052883273	0.677516265	-1.036376953	0.789794922	0.266357422	883.94	-30.78310611	-61.03605872	-138.9416286	-57
23220	0	0.239942551	-0.094554901	0.113511086	0.999907494	0.009791374	0.000192642	0.00939846	5.998563766	-2.363872528	2.837777138	0.489583745	0.009632406	0.46993745	-1.010742188	0.808349609	0.229492188	883.92	-31.27341787	-60.47508579	-137.0959242	-50
23221	0	0.295227051	-0.105529785	0.141967773	0.999958992	0.00868988	-0.000220299	0.002151489	7.38067627	-2.638244629	3.549194336	0.434499826	-0.011015086	0.107575901	-0.989746094	0.818359375	0.204589844	883.92	-30.6599698	-60.38222713	-136.657729	-49
23222	0	0.362366676	-0.112742424	0.139257431	0.999970436	0.007255554	0.000112534	-0.00222683	9.059166908	-2.8185606	3.481435776	0.362781194	0.005626732	-0.111342546	-0.982421875	0.815673828	0.184570313	883.92	-29.41714041	-60.51188225	-137.1328571	-53
23223	0	0.448364258	-0.108703613	0.171875	0.999965668	0.006966591	-0.000976563	-0.004364014	11.20910645	-2.717590332	4.296875	0.348333523	-0.048828683	-0.218203176	-0.978759766	0.798095703	0.160400391	883.9	-27.92310207	-60.86469051	-137.9338658	-49
23224	0	0.496800423	-0.081296921	0.171291351	0.999982834	0.004461288	0.000473976	-0.003743172	12.42001057	-2.032423019	4.282283783	0.223065692	0.023698942	-0.18715965	-0.984375	0.774169922	0.139892578	883.92	-26.6694489	-61.03104318	-138.7874587	-48
23225	0	0.538513184	-0.09777832	0.203674316	0.999964714	0.0041008	-0.003172874	-0.006515503	13.46282959	-2.444458008	5.09185791	0.205042348	-0.158645556	-0.325778911	-0.989990234	0.748046875	0.116699219	883.92	-25.24859676	-61.70515708	-139.8747543	-51
23226	0	0.504489899	-0.035913467	0.162656784	0.999951363	-0.00123024	0.00144577	-0.00965786	12.61224747	-0.897836685	4.066419601	-0.061512987	0.07228968	-0.482900787	-1.001953125	0.711181641	0.09765625	883.9	-23.35662934	-62.0340225	-142.183629	-54
23227	0	0.32434082	-0.010620117	0.164794922	0.99968338	-0.024172783	0.001819611	-0.006729126	8.108520508	-0.26550293	4.119873047	-1.208766676	0.09099013	-0.3364918	-1.018798828	0.666015625	0.099365234	883.96	-24.60892924	-62.18108922	-143.90565	-57
23228	0	0.314250946	-0.076390266	0.192946434	0.99981308	-0.019210815	-0.001488686	0.000862122	7.856273651	-1.90975666	4.823660851	-0.960600337	-0.074438896	0.043108752	-1.024658203	0.629394531	0.125488281	883.94	-27.09203564	-62.31328813	-143.5951403	-56
23229	0	0.345031738	-0.106018066	0.15838623	0.999964714	0.008369446	0.000462532	0.000514984	8.625793457	-2.65045166	3.959655762	0.418477209	0.023126874	0.025749509	-1.026123047	0.607666016	0.130126953	883.9	-26.1622539	-62.26031697	-143.570198	-57
23230	0	0.309782982	-0.029675484	0.131779671	0.999923706	0.011044502	0.003930092	-0.003858566	7.744574547	-0.741887093	3.294491768	0.552239133	0.196509582	-0.192933212	-1.031982422	0.588134766	0.103515625	883.92	-23.74845833	-62.05985014	-144.8730256	-55
23231	0	0.23651123	-0.020202637	0.124938965	0.999830246	-0.017214775	0.004940033	-0.004104614	5.912780762	-0.505065918	3.123474121	-0.860787193	0.247015548	-0.205242262	-1.037597656	0.562011719	0.088867188	883.94	-24.45066293	-61.75559356	-146.3146678	-53
23232	0	0.226322174	-0.091702461	0.135909081	0.999659538	-0.025956154	0.00229454	-1.81E-05	5.658054352	-2.292561531	3.397727013	-1.297954604	0.114740007	-0.000906093	-1.041259766	0.531738281	0.108642578	883.92	-27.17940348	-61.53795833	-146.5975972	-56
23233	0	0.243103027	-0.140319824	0.159545898	0.999977112	-0.006743431	0	0.000244141	6.077575684	-3.507995605	3.988647461	-0.337174113	0	0.012207124	-1.045654297	0.514892578	0.135986328	884.02	-27.97340133	-61.53953976	-146.5775768	-60
23234	0	0.272825241	-0.129502296	0.178201675	0.999923706	0.011862755	-0.002448082	-0.002157211	6.820631027	-3.237557411	4.455041885	0.593152706	-0.122407187	-0.107863287	-1.047363281	0.501708984	0.134277344	883.96	-26.42248109	-61.9129048	-146.7986707	-60
23235	0	0.301025391	-0.102783203	0.184814453	0.999872208	0.01536274	-0.003566742	-0.00239563	7.525634766	-2.569580078	4.620361328	0.76816956	-0.178344662	-0.119786575	-1.049072266	0.482177734	0.135986328	883.9	-24.50520759	-62.40789364	-146.9799557	-65
23236	0	0.334011078	-0.087937355	0.199051857	0.999956131	0.008338928	-0.004158974	-2.38E-05	8.350276947	-2.198433876	4.976296425	0.416952446	-0.207951694	-0.00119211	-1.052978516	0.46484375	0.137451172	883.9	-23.90166317	-62.84922341	-146.587431	-86
23237	0	0.393432617	-0.084960938	0.212463379	0.999979973	0.003704071	-0.004500389	0.002391815	9.83581543	-2.124023438	5.311584473	0.185204778	-0.225020944	0.11959155	-1.054931641	0.454101563	0.141357422	883.92	-24.36163696	-63.2119042	-145.5983875	-63
23238	0	0.413552284	-0.083882332	0.196487427	0.999954224	0.003647804	-0.006268501	0.006155968	10.33880711	-2.097058296	4.912185669	0.182392964	-0.313429792	0.307803028	-1.050048828	0.438964844	0.165039063	883.98	-25.80501726	-63.56736993	-143.520468	-55
23239	0	0.560668945	-0.108825684	0.230529785	0.999882698	0.011325836	-0.010214806	0.000301361	14.01672363	-2.72064209	5.763244629	0.566313775	-0.510760091	0.015068639	-1.052490234	0.428222656	0.197265625	883.9	-25.59384464	-64.61215782	-142.3163497	-52
23240	0	0.49311924	-0.073410034	0.163168907	0.999857903	0.0160532	-0.001544952	-0.00474453	12.327981	-1.835250854	4.079222679	0.802697799	-0.077251258	-0.237237661	-1.059082031	0.409179688	0.224853516	883.94	-22.83119758	-65.00364048	-143.3412695	-48
23241	0	0.385375977	-0.040649414	0.112182617	0.99998188	0.005298615	0.002598763	0.000453949	9.634399414	-1.016235352	2.80456543	0.264932272	0.129938884	0.022697581	-1.077148438	0.388183594	0.241699219	884.02	-22.06034792	-64.71776491	-143.5284833	-48
23242	0	0.397316933	-0.034725189	0.09325695	0.999938965	0.001801491	0.003201485	0.010416985	9.932923317	-0.86812973	2.331423759	0.090076371	0.160077489	0.52085982	-1.091552734	0.388671875	0.268066406	883.88	-23.82040538	-63.927545	-141.3547561	-46
23243	0	0.399353027	-0.042785645	0.091552734	0.999901772	0.002552032	0.00515461	0.012710571	9.983825684	-1.069641113	2.288818359	0.127605763	0.257738846	0.635549183	-1.100341797	0.417480469	0.297363281	883.94	-25.65304041	-62.79860826	-138.9847253	-45
23244	0	0.318546295	-0.028826714	0.081848145	0.999899864	-0.002017021	0.006282806	0.012449265	7.963657379	-0.720667839	2.046203613	-0.100854396	0.314150715	0.622483824	-1.106933594	0.454833984	0.308837891	883.86	-27.66914402	-61.53545244	-136.9706093	-46
23245	0	0.281921387	-0.04510498	0.080810547	0.999864578	-0.005259514	0.004020691	0.015045166	7.048034668	-1.127624512	2.020263672	-0.262987536	0.2010436	0.75229218	-1.111328125	0.496582031	0.328613281	883.98	-30.56318137	-60.31679346	-134.3524941	-48
23246	0	0.30569458	-0.059248924	0.090398788	0.999883652	0.001166344	0.003361702	0.014769554	7.642364502	-1.481223106	2.259969711	0.058319428	0.168091565	0.738506117	-1.102050781	0.546630859	0.349609375	883.92	-32.54349734	-59.12828324	-131.9067846	-48
23247	0	0.294311523	-0.061950684	0.104492188	0.999929428	0.005131721	0.003219604	0.010131836	7.357788086	-1.54876709	2.612304688	0.256592035	0.160983964	0.506603564	-1.093017578	0.607421875	0.358154297	883.86	-33.21884466	-58.21555149	-130.4253085	-48
23248	0	0.315173149	-0.066361427	0.124638557	0.999965668	0.006151199	0.003134727	0.004505157	7.879328728	-1.659035683	3.115963936	0.307563451	0.156738149	0.225260425	-1.083251953	0.650390625	0.354248047	883.98	-32.88257281	-57.66197885	-129.9852636	-55
23249	0	0.32220459	-0.067749023	0.123962402	0.999990463	0.000908852	0.0041008	0.000167847	8.055114746	-1.693725586	3.099060059	0.045442715	0.205040582	0.008392359	-1.079833984	0.678710938	0.357421875	883.94	-32.39610031	-57.28677783	-130.4319358	-55
23250	0	0.359404564	-0.079758644	0.143416405	0.999951363	-0.008296967	0.003458023	-0.003874779	8.985114098	-1.993966103	3.585410118	-0.414854952	0.172903915	-0.193742031	-1.078125	0.693847656	0.355957031	883.96	-32.42181613	-57.22304693	-131.5214296	-51
23251	0	0.374084473	-0.098510742	0.157592773	0.999882698	-0.013134003	0.003235817	-0.007091522	9.352111816	-2.462768555	3.939819336	-0.656725668	0.161797138	-0.354589897	-1.080566406	0.689697266	0.373535156	883.98	-32.53515341	-57.38088289	-133.1650397	-49
23252	0	0.377523422	-0.098183632	0.174962044	0.999925613	-0.008308411	0.002465248	-0.008579254	9.438085556	-2.454590797	4.374051094	-0.415430829	0.123265461	-0.42897334	-1.087158203	0.674804688	0.392089844	883.88	-31.92593656	-57.70123312	-135.0075726	-51
23253	0	0.434692383	-0.102233887	0.175537109	0.999923706	-0.001925468	-0.000770569	-0.012138367	10.86730957	-2.555847168	4.388427734	-0.096275856	-0.038529416	-0.606933675	-1.091552734	0.662109375	0.402099609	883.88	-30.28490073	-58.53233084	-137.1899897	-48
23254	0	0.554583549	-0.074014664	0.170650482	0.999761581	-0.006037712	-0.002429008	-0.020829201	13.86458874	-1.850366592	4.266262054	-0.30190957	-0.121460066	-1.041542714	-1.106933594	0.636474609	0.416259766	883.86	-27.66492741	-59.97470702	-141.0252808	-45
23255	0	0.412597656	-0.053466797	0.183959961	0.999501228	-0.022071838	-0.001158714	-0.022548676	10.31494141	-1.336669922	4.598999023	-1.103775373	-0.057945346	-1.127621194	-1.128417969	0.580810547	0.436279297	883.92	-26.16562909	-61.30562877	-145.6281605	-43
23256	0	0.312459946	-0.07925415	0.209177017	0.999834061	-0.015468597	-0.005551338	-0.007772446	7.811498642	-1.98135376	5.22942543	-0.773472481	-0.277582202	-0.388643694	-1.149414063	0.518554688	0.462402344	884.02	-26.9354816	-62.31034802	-146.767475	-43
23257	0	0.382629395	-0.095397949	0.168762207	0.999849319	0.016736031	-0.003181458	0.003311157	9.565734863	-2.38494873	4.219055176	0.836843539	-0.159080862	0.165566173	-1.147216797	0.507568359	0.485839844	883.92	-25.93186776	-62.50458256	-145.7483328	-43
23258	0	0.37322998	-0.012395859	0.118245125	0.999757767	0.021702766	0.003350258	-0.000914574	9.330749512	-0.309896469	2.95612812	1.085225706	0.167526383	-0.045732366	-1.143554688	0.544433594	0.465576172	883.94	-22.91002611	-62.23744958	-146.3452593	-43
23259	0	0.331665039	0.024047852	0.131652832	0.999883652	-0.011202812	0.004867554	-0.009078979	8.291625977	0.601196289	3.291320801	-0.560162236	0.243387082	-0.453966501	-1.152587891	0.551025391	0.434326172	883.96	-21.90835469	-62.15837789	-148.900175	-43
23260	0	0.305570602	-0.038458824	0.159381866	0.999588966	-0.027401924	0.001609802	-0.008199692	7.63926506	-0.961470604	3.984546661	-1.37028368	0.080501126	-0.410040688	-1.167724609	0.514648438	0.446533203	883.9	-23.1999347	-62.38638551	-150.9667795	-43
23261	0	0.326049805	-0.102050781	0.171569824	0.999979019	-9.82E-05	-0.001644135	-0.006141663	8.151245117	-2.551269531	4.289245605	-0.004911456	-0.08220728	-0.307085199	-1.178222656	0.478027344	0.467285156	883.9	-22.03357243	-62.86588113	-152.2886012	-43
23262	0	0.369484901	-0.057513237	0.15954113	0.999583244	0.028104782	-0.002132416	-0.006187439	9.237122536	-1.437830925	3.988528252	1.405434205	-0.106635591	-0.309414901	-1.182861328	0.48046875	0.470214844	883.9	-17.59502489	-63.36997401	-153.6508062	-43
23263	0	0.347229004	0.002685547	0.150695801	0.999775887	0.020465851	-0.001856804	-0.004970551	8.680725098	0.067138672	3.76739502	1.023368793	-0.092847113	-0.248546046	-1.185546875	0.495605469	0.443359375	883.98	-14.19352147	-63.76378525	-154.8178536	-43
23264	0	0.329918861	-0.001399994	0.153630257	0.999975204	0.006490707	-0.002272606	-0.001507759	8.247971535	-0.034999847	3.840756416	0.324538051	-0.113631234	-0.075388578	-1.190185547	0.502197266	0.431884766	884.02	-13.15682412	-64.08979733	-155.1293242	-43
23265	0	0.334350586	-0.022583008	0.150634766	0.999980927	0.005925179	-0.001152039	-2.29E-05	8.358764648	-0.564575195	3.765869141	0.296260725	-0.057602279	-0.001144416	-1.190673828	0.510986328	0.433837891	883.86	-12.45679356	-64.25053411	-155.1387542	-44
23266	0	0.32773304	-0.017889977	0.147294044	0.999962807	0.008522034	-0.000137329	0.000234604	8.193325996	-0.447249413	3.682351112	0.426106848	-0.006866538	0.011730336	-1.188476563	0.51953125	0.430175781	883.96	-11.46516444	-64.29116127	-155.1428884	-44
23267	0	0.342102051	-0.019165039	0.148620605	0.999975204	0.00685215	-0.000408173	0.001506805	8.55255127	-0.479125977	3.715515137	0.342610318	-0.020408798	0.075340891	-1.189208984	0.534667969	0.423339844	883.98	-10.97528789	-64.33397014	-154.8010462	-45
23268	0	0.348930359	-0.021612167	0.147600174	0.999970436	0.006508827	-0.000686646	0.00393486	8.723258972	-0.540304184	3.690004349	0.325444524	-0.034332609	0.196744924	-1.184814453	0.547607422	0.419189453	883.9	-11.108188	-64.35553544	-153.814912	-45
23269	0	0.336975098	-0.019714355	0.147338867	0.99995327	0.006755829	-0.000929832	0.006717682	8.424377441	-0.492858887	3.68347168	0.337796602	-0.046492333	0.335889224	-1.176513672	0.571289063	0.416992188	883.98	-11.87737985	-64.33758258	-152.0915996	-45
23270	0	0.343255997	-0.016853333	0.141781807	0.99994278	0.005820274	-0.001475334	0.008824348	8.581399918	-0.421333313	3.544545174	0.291019243	-0.073768109	0.4412258	-1.168457031	0.6015625	0.411132813	883.92	-13.27152553	-64.31452166	-149.7926178	-45
23271	0	0.361816406	-0.023254395	0.141845703	0.99995327	0.003749847	-0.002017021	0.008655548	9.045410156	-0.581359863	3.546142578	0.187495278	-0.100852623	0.432784117	-1.155517578	0.631591797	0.407958984	883.86	-14.89478155	-64.33098037	-147.5012837	-44
23272	0	0.40333271	-0.044780731	0.15182209	0.999967575	0.002361298	-0.003979683	0.006472588	10.08331776	-1.11951828	3.795552254	0.118066126	-0.198986246	0.323632794	-1.138427734	0.659423828	0.418945313	883.82	-16.31605109	-64.60591905	-145.6116367	-43
23273	0	0.360473633	-0.041748047	0.141540527	0.999962807	0.004329681	-0.002612114	0.006965637	9.01184082	-1.043701172	3.538513184	0.216486743	-0.13060731	0.348286161	-1.127441406	0.676513672	0.422607422	884.02	-17.55875983	-64.69575173	-143.6788154	-44
23274	0	0.314317703	-0.036912918	0.125860214	0.999938965	0.003539085	-0.003434181	0.009843826	7.857942581	-0.922822952	3.146505356	0.176957845	-0.17171253	0.492201259	-1.112304688	0.702148438	0.422607422	883.94	-19.63022081	-64.74572713	-140.9320467	-44
23275	0	0.366394043	-0.046264648	0.127990723	0.999940872	0.002186775	-0.004688263	0.009479523	9.159851074	-1.156616211	3.199768066	0.109340886	-0.234417704	0.473985349	-1.090087891	0.729736328	0.421875	883.94	-21.89831486	-64.90130201	-138.1395	-44
23276	0	0.422091484	-0.053120613	0.134259224	0.999979973	0.003203392	-0.003967285	0.00357914	10.5522871	-1.328015327	3.356480598	0.160170638	-0.198365541	0.178958143	-1.072753906	0.753173828	0.433349609	883.98	-22.67383164	-65.2067496	-136.8671729	-43
23277	0	0.369567871	-0.042907715	0.137207031	0.999995232	0.000976563	-0.001746178	0.002105713	9.239196777	-1.072692871	3.430175781	0.048828194	-0.087309006	0.105285793	-1.061523438	0.763671875	0.443115234	883.98	-23.17014464	-65.33776066	-136.1876423	-43
23278	0	0.341846466	-0.040819168	0.149641037	0.999979019	-0.001801491	-0.001830101	0.005825996	8.546161652	-1.020479202	3.741025925	-0.090075148	-0.091505669	0.291301788	-1.057128906	0.770019531	0.442382813	883.94	-24.8455533	-65.29775213	-134.5659369	-43
23279	0	0.35748291	-0.060424805	0.146362305	0.999974251	-0.00453186	-0.000304222	0.005508423	8.937072754	-1.510620117	3.659057617	-0.226594943	-0.015211235	0.275423482	-1.041503906	0.782714844	0.451904297	883.98	-26.58709282	-65.09497391	-133.2124108	-43
23280	0	0.364257813	-0.069580078	0.145812988	0.99998951	-0.004374504	0.000110626	0.001190186	9.106445313	-1.739501953	3.645324707	-0.218725954	0.00553133	0.059509481	-1.032714844	0.786865234	0.465332031	883.96	-27.29829419	-65.06113579	-132.9735658	-43
23281	0	0.355407715	-0.080322266	0.151245117	0.999982834	-0.00474453	-0.00069046	-0.003078461	8.885192871	-2.008056641	3.78112793	-0.23722777	-0.034523197	-0.153923868	-1.032714844	0.784667969	0.474121094	883.94	-27.20264552	-65.33088123	-133.6688517	-42
23282	0	0.374398232	-0.094770432	0.156416893	0.99998951	0.000938416	-0.001440048	-0.004131317	9.359955788	-2.369260788	3.910422325	0.046920933	-0.072002651	-0.206566546	-1.034912109	0.776123047	0.483398438	883.9	-26.29043434	-65.72741087	-134.5484511	-42
23283	0	0.394287109	-0.075195313	0.148010254	0.999983788	0.005233765	0.000214577	-0.002056122	9.857177734	-1.879882813	3.700256348	0.261689614	0.010728893	-0.102806634	-1.041748047	0.771972656	0.484130859	883.98	-25.15520657	-65.84284244	-135.1353724	-42
23284	0	0.386852264	-0.061203957	0.147245407	0.999993324	-0.002650261	0.001880646	-0.001616478	9.67130661	-1.530098915	3.681135178	-0.132513337	0.094032494	-0.080824076	-1.043945313	0.771972656	0.472900391	883.9	-24.84179345	-65.76055453	-135.8060656	-42
23285	0	0.358032227	-0.086730957	0.153686523	0.999961853	-0.008109093	0.001373291	-0.002792358	8.950805664	-2.168273926	3.842163086	-0.405459734	0.068665414	-0.139619675	-1.050537109	0.761474609	0.479736328	883.9	-24.93913388	-65.78539602	-136.7129662	-42
23286	0	0.354307175	-0.109814644	0.156178474	0.999995232	0.000101089	-0.001075745	-0.002820969	8.857679367	-2.745366096	3.904461861	0.005054482	-0.053787313	-0.141048646	-1.057373047	0.752929688	0.495117188	883.94	-24.34864914	-66.06270586	-137.3464736	-41
23287	0	0.338500977	-0.110412598	0.129089355	0.999908447	0.013100624	-0.003231049	0.00031662	8.462524414	-2.760314941	3.227233887	0.655051093	-0.161557335	0.015831474	-1.061767578	0.750976563	0.489746094	884.02	-23.23144272	-66.41567159	-136.9326514	-41
23288	0	0.351596832	-0.120147705	0.140571594	0.999593735	0.026470184	-0.008858681	0.005725861	8.789920807	-3.003692627	3.514289856	1.323688382	-0.442993997	0.286331786	-1.052978516	0.765869141	0.4765625	883.96	-22.50350268	-67.12300427	-134.4345152	-41
23289	0	0.364562988	-0.084716797	0.126098633	0.999173164	0.03812027	-0.00846386	0.011238098	9.114074707	-2.117919922	3.15246582	1.906538378	-0.423309519	0.562059648	-1.028564453	0.808349609	0.443359375	884.04	-21.8545492	-67.56134648	-130.4140517	-41
23290	0	0.346546173	-0.030927658	0.118867874	0.999687195	0.022305489	-0.005530357	0.009783745	8.663654327	-0.773191452	2.971696854	1.115390421	-0.276546627	0.489238117	-1.001953125	0.861572266	0.389404297	883.94	-22.39530291	-67.7524026	-127.0639703	-42
23291	0	0.355407715	0.03112793	0.164489746	0.999566078	-0.028614044	0.000561714	0.006923676	8.885192871	0.778198242	4.112243652	-1.430909031	0.028089769	0.346233821	-0.979248047	0.882568359	0.380859375	883.94	-27.33316167	-67.38630478	-125.2544307	-42
23292	0	0.346079826	-0.063591957	0.160847664	0.999451637	-0.032982826	0.00125885	-0.002409935	8.651995659	-1.589798927	4.021191597	-1.6494425	0.062954	-0.120518757	-0.970458984	0.867431641	0.449707031	884.04	-30.34292641	-67.41761036	-126.0800635	-42
23293	0	0.380615234	-0.099731445	0.152832031	0.999694824	-0.021574974	0.00522995	-0.010787964	9.515380859	-2.493286133	3.820800781	-1.078858264	0.261524056	-0.539452976	-0.983398438	0.824707031	0.493652344	883.98	-29.48627735	-67.53745691	-129.682277	-42
23294	0	0.365226746	-0.073853493	0.14897728	0.999785423	-0.017549515	0.005739212	-0.009311676	9.13066864	-1.846337318	3.724431992	-0.87753829	0.286981058	-0.465616991	-1.003173828	0.781982422	0.515380859	883.94	-28.44259582	-67.49982014	-132.9894405	-42
23295	0	0.361877441	-0.109191895	0.155456543	0.999966621	-0.007305145	0.000306129	-0.003574371	9.046936035	-2.729797363	3.886413574	-0.365261295	0.015306642	-0.17872054	-1.022949219	0.75	0.533203125	883.98	-28.33731355	-67.68208138	-134.0144159	-42
23296	0	0.364393234	-0.117032051	0.149997711	0.999862671	0.016170502	-0.002959251	0.00198555	9.109830856	-2.925801277	3.74994278	0.808562038	-0.147969333	0.099282034	-1.022949219	0.747802734	0.530517578	884.08	-27.34076202	-67.89160769	-133.0977821	-41
23297	0	0.372619629	-0.088500977	0.13861084	0.999584198	0.02840519	-0.002986908	0.003768921	9.315490723	-2.212524414	3.465270996	1.420456014	-0.149366065	0.188472122	-1.014404297	0.775634766	0.5078125	883.92	-25.39561631	-68.0210847	-131.6912346	-42
23298	0	0.373840332	-0.057184219	0.137265205	0.99979496	0.020069122	-0.001255035	0.002334595	9.346008301	-1.429605484	3.431630135	1.003524664	-0.062756057	0.11673771	-1.005615234	0.809814453	0.461914063	883.98	-23.82681937	-68.05442307	-130.9040875	-41
23299	0	0.368225098	-0.057250977	0.134338379	0.999985695	0.004966736	0.000981331	0.00120163	9.205627441	-1.431274414	3.358459473	0.248337913	0.049066765	0.060081753	-1.001220703	0.826904297	0.440429688	883.9	-23.43801458	-67.9097037	-130.7087891	-41
23300	0	0.366070747	-0.072203636	0.138644218	0.999995232	-0.001151085	0.001916885	0.001945496	9.151768684	-1.805090904	3.466105461	-0.057554329	0.095844409	0.097274923	-1.001220703	0.831298828	0.428710938	884.02	-23.83593579	-67.63178806	-130.4216283	-41
23301	0	0.366455078	-0.077148438	0.135681152	0.99998951	0.002922058	0.0014925	0.003044128	9.161376953	-1.928710938	3.392028809	0.146103393	0.074625264	0.152206929	-0.996826172	0.835449219	0.428222656	883.86	-24.08702481	-67.34592462	-129.790053	-41
23302	0	0.361474991	-0.054934502	0.147575378	0.999968529	0.006393433	0.001098633	0.00450325	9.036874771	-1.373362541	3.68938446	0.319674954	0.054932212	0.225164846	-0.992431641	0.846191406	0.418457031	883.88	-24.33439683	-67.03087789	-128.7301855	-41
23303	0	0.363830566	-0.044921875	0.148193359	0.99998951	0.002277374	0.001854897	0.003288269	9.09576416	-1.123046875	3.704833984	0.113869082	0.092745128	0.164413985	-0.988037109	0.858886719	0.400146484	883.88	-24.6515692	-66.69230659	-128.1028546	-41
23304	0	0.361651421	-0.062261581	0.133945465	0.999985695	0.00496769	0.001075745	0.001166344	9.041285515	-1.556539536	3.348636627	0.248385602	0.053787475	0.058317449	-0.983642578	0.867431641	0.402099609	883.82	-24.22823522	-66.53584468	-127.9462805	-41
23305	0	0.35748291	-0.059020996	0.143676758	0.999966621	0.008106232	0.000542641	0.000480652	8.937072754	-1.475524902	3.591918945	0.405316059	0.027132334	0.024032858	-0.981201172	0.871582031	0.384521484	883.98	-23.33964233	-66.4673012	-127.904732	-41
23306	0	0.351297379	-0.056779861	0.137180328	0.999988556	0.004555702	0.000466347	-0.000963211	8.782434464	-1.419496536	3.429508209	0.227785942	0.023317422	-0.048160729	-0.983642578	0.878173828	0.3671875	883.82	-22.5182236	-66.47136004	-128.2324581	-41
23307	0	0.354003906	-0.063903809	0.142456055	0.999991417	0.003707886	0.000382423	-0.001308441	8.850097656	-1.597595215	3.561401367	0.185394769	0.01912122	-0.065422228	-0.985595703	0.878173828	0.358642578	883.88	-21.71854838	-66.49690611	-128.6429366	-41
23308	0	0.36241436	-0.060937881	0.148989677	0.999998093	6.10E-05	0.00024128	-0.00168705	9.060359001	-1.523447037	3.724741936	0.003051759	0.012063986	-0.084352534	-0.990234375	0.878173828	0.353271484	883.92	-21.25639755	-66.55107099	-129.1406343	-41
23309	0	0.357055664	-0.068481445	0.150268555	0.999992371	-0.003214836	0.000144958	-0.001804352	8.926391602	-1.712036133	3.756713867	-0.160742171	0.007247941	-0.090217795	-0.992431641	0.874023438	0.359375	883.98	-21.14903305	-66.61859046	-129.6609606	-41
23310	0	0.353917122	-0.072570801	0.15075779	0.999997139	-0.00220108	-0.000303268	-0.000844955	8.847928047	-1.81427002	3.76894474	-0.11005412	-0.015163436	-0.042247812	-0.997070313	0.867675781	0.363037109	883.92	-21.20582351	-66.69323342	-129.8765154	-41
23311	0	0.354919434	-0.066223145	0.151489258	0.999999046	-4.96E-05	-0.000750542	-0.000526428	8.87298584	-1.655578613	3.787231445	-0.002479554	-0.03752709	-0.026321415	-0.994628906	0.865478516	0.371582031	883.98	-21.13823921	-66.8016108	-129.9593455	-41
23312	0	0.358390808	-0.063603401	0.153079987	0.999999046	0.000367165	-0.000869751	-0.000466347	8.959770203	-1.59008503	3.826999664	0.018358234	-0.043487557	-0.023317341	-0.996826172	0.86328125	0.36328125	883.92	-21.04913205	-66.91937007	-130.0130223	-41
23313	0	0.361755371	-0.059997559	0.153930664	0.999998093	-0.001559258	-0.000663757	-0.000247955	9.043884277	-1.499938965	3.848266602	-0.077962913	-0.033187882	-0.012397772	-0.996826172	0.86328125	0.369140625	884.02	-21.21556796	-67.00533576	-130.0289243	-41
23314	0	0.361321449	-0.061161995	0.156128883	0.999997139	-0.002105713	-0.000295639	1.91E-05	9.033036232	-1.529049873	3.903222084	-0.105285724	-0.014781963	0.000953675	-0.996826172	0.861083984	0.372070313	883.92	-21.47623409	-67.03999844	-130.0105468	-41
23315	0	0.360534668	-0.058959961	0.154418945	0.999999046	-0.000572205	3.53E-05	-0.000198364	9.013366699	-1.473999023	3.860473633	-0.028610231	0.001764298	-0.009918213	-0.996826172	0.859130859	0.375	883.98	-21.47349443	-67.04768614	-130.0875795	-41
23316	0	0.361768723	-0.059536934	0.148820877	0.999999046	0.000571251	0.000354767	-0.000720978	9.044218063	-1.488423347	3.720521927	0.02856255	0.017738345	-0.036048895	-0.999023438	0.856933594	0.372558594	883.94	-21.17655745	-67.04245181	-130.341795	-41
23317	0	0.357727051	-0.057983398	0.148071289	0.999999046	-0.000404358	0.00067234	-0.000804901	8.94317627	-1.449584961	3.701782227	-0.0202179	0.033617027	-0.040245065	-0.999023438	0.856933594	0.378173828	883.92	-20.93969456	-67.00572603	-130.6522702	-41
23318	0	0.35952282	-0.06252861	0.146733284	0.999998093	-0.000826836	0.000716209	-0.000985146	8.988070488	-1.563215256	3.6683321	-0.041341797	0.035810484	-0.049257296	-1.001220703	0.852539063	0.370117188	883.94	-20.70310832	-66.97066679	-131.0148313	-41
23319	0	0.359863281	-0.061645508	0.146118164	0.999998093	-0.001318932	0.000549316	-0.000511169	8.996582031	-1.541137695	3.652954102	-0.065946604	0.027465831	-0.025558481	-1.001220703	0.850341797	0.373291016	883.92	-20.65965339	-66.93357006	-131.2291259	-41
23320	0	0.36226368	-0.062587738	0.150501251	0.999999046	-0.001236916	0.000547409	-9.54E-05	9.056591988	-1.564693451	3.762531281	-0.061845798	0.027370461	-0.004768373	-1.005615234	0.846191406	0.376708984	883.88	-20.71250664	-66.87931706	-131.3290377	-41
23321	0	0.360900879	-0.05645752	0.151489258	0.999999046	-0.000846863	0.000393867	-0.000167847	9.022521973	-1.411437988	3.787231445	-0.042343146	0.019693378	-0.008392335	-1.005615234	0.846191406	0.376708984	883.98	-20.71693341	-66.8440059	-131.4327022	-41
23322	0	0.356830597	-0.053791046	0.153814316	0.999999046	-0.00075531	0.000659943	-0.000385284	8.920764923	-1.344776154	3.845357895	-0.03776551	0.032997138	-0.019264225	-1.005615234	0.843994141	0.376708984	883.92	-20.6309003	-66.78834748	-131.6233368	-41
23323	0	0.360717773	-0.058105469	0.152648926	0.999998093	-0.000842094	0.000679016	-0.000881195	9.017944336	-1.452636719	3.816223145	-0.042104735	0.033950817	-0.044059768	-1.0078125	0.842041016	0.371337891	883.94	-20.42972622	-66.74988829	-131.9498995	-41
23324	0	0.360004425	-0.058703423	0.151939392	0.999997139	-0.001400948	0.000879288	-0.001065254	9.000110626	-1.467585564	3.798484802	-0.070047424	0.043964414	-0.053262745	-1.010009766	0.837646484	0.377441406	884.02	-20.22919517	-66.69632385	-132.3460173	-41
23325	0	0.359375	-0.059570313	0.153625488	0.999998093	-0.00127697	0.000751495	-0.001079559	8.984375	-1.489257813	3.840637207	-0.063848531	0.037574789	-0.053977997	-1.012207031	0.833496094	0.377929688	883.88	-20.02407185	-66.65599093	-132.7317727	-41
23326	0	0.356096268	-0.05784893	0.152852058	0.999997139	-0.001974106	0.00066185	-0.000935555	8.902406693	-1.446223259	3.82130146	-0.098705377	0.033092528	-0.046777766	-1.014404297	0.831298828	0.381103516	883.86	-19.94388896	-66.61878862	-133.0685072	-41
23327	0	0.358947754	-0.060180664	0.153930664	0.999999046	-0.001300812	0.000302315	-0.000225067	8.973693848	-1.504516602	3.848266602	-0.065040608	0.015115743	-0.01125336	-1.016357422	0.824951172	0.37890625	883.92	-19.99683985	-66.59196616	-133.1763637	-41
23328	0	0.36077404	-0.058523178	0.152469635	0.999999046	-0.000552177	0.000339508	-0.000339508	9.019351006	-1.463079453	3.811740875	-0.027608874	0.016975404	-0.016975404	-1.018798828	0.827148438	0.375976563	883.88	-19.93256423	-66.56525456	-133.3182116	-41
23329	0	0.358276367	-0.056640625	0.153442383	0.999999046	-0.000404358	8.87E-05	-0.000350952	8.95690918	-1.416015625	3.83605957	-0.020217897	0.004434586	-0.017547608	-1.018798828	0.824951172	0.379150391	883.98	-19.87121557	-66.56554918	-133.4386758	-41
23330	0	0.356700897	-0.05474472	0.153887749	0.999999046	-0.000640869	-0.000253677	-0.000393867	8.91752243	-1.368618011	3.847193718	-0.03204346	-0.01268387	-0.019693377	-1.021240234	0.822998047	0.385009766	883.98	-19.85673377	-66.60396744	-133.5377653	-41
23331	0	0.358459473	-0.059265137	0.15447998	0.999999046	-0.000282288	-0.000723839	-0.000293732	8.961486816	-1.481628418	3.861999512	-0.014114382	-0.036191944	-0.014686586	-1.0234375	0.820800781	0.388183594	883.92	-19.86857802	-66.68867915	-133.5634283	-41
23332	0	0.355604172	-0.057190895	0.154358864	0.999999046	-2.38E-05	-0.000843048	-0.000416756	8.890104294	-1.429772377	3.858971596	-0.001192093	-0.042152411	-0.020837787	-1.0234375	0.818603516	0.388427734	883.98	-19.83064027	-66.79050857	-133.6108949	-41
23333	0	0.35736084	-0.054321289	0.156555176	0.999995232	-0.002490997	-0.000712395	-0.001010895	8.934020996	-1.358032227	3.913879395	-0.124550026	-0.035619782	-0.050544804	-1.0234375	0.818603516	0.391113281	883.98	-19.91328569	-66.90085937	-133.8342525	-41
23334	0	0.358937263	-0.065242767	0.156633377	0.999997139	-0.001806259	-0.000432968	-0.000717163	8.973431587	-1.631069183	3.915834427	-0.090313017	-0.021648421	-0.035858178	-1.025634766	0.814453125	0.39453125	883.98	-19.9664804	-66.96902018	-134.0045202	-41
23335	0	0.355224609	-0.062927246	0.151123047	0.999997139	0.002227783	-0.000464439	0.000148773	8.880615234	-1.573181152	3.778076172	0.111389257	-0.02322199	0.007438666	-1.025634766	0.812255859	0.397460938	884	-19.78024915	-67.00623791	-133.9331417	-41
23336	0	0.357058525	-0.050396919	0.151321411	0.999998093	-0.001325607	-0.000868797	0.000131607	8.926463127	-1.259922981	3.783035278	-0.066280393	-0.043439883	0.006580356	-1.025634766	0.812255859	0.397460938	883.92	-20.03366462	-67.08737846	-133.8261037	-41
23337	0	0.358764648	-0.064086914	0.159118652	0.99998951	-0.004550934	-0.000468254	-7.63E-05	8.969116211	-1.602172852	3.977966309	-0.227547486	-0.023412786	-0.003814711	-1.025634766	0.812255859	0.403320313	883.86	-20.56829938	-67.13261796	-133.8148473	-41
23338	0	0.35483551	-0.072809219	0.158983231	0.999999046	0.000293732	-0.000307083	0.000356674	8.870887756	-1.820230484	3.974580765	0.014686585	-0.015354157	0.017833711	-1.025634766	0.810058594	0.409179688	883.98	-20.64455849	-67.14204073	-133.6992347	-41
23339	0	0.35369873	-0.070007324	0.152648926	0.99998951	0.004329681	-0.001051903	0.001056671	8.842468262	-1.750183105	3.816223145	0.216484826	-0.052595322	0.052833742	-1.0234375	0.812255859	0.408691406	884.06	-20.50942574	-67.20245426	-133.3115272	-41
23340	0	0.36078167	-0.066311836	0.155334473	0.999978065	0.006407738	-0.001430511	0.000823021	9.01954174	-1.657795906	3.883361816	0.320389225	-0.071526096	0.041151347	-1.018798828	0.81640625	0.399658203	883.88	-20.113618	-67.31286113	-132.9483468	-41
23341	0	0.364807129	-0.058959961	0.155578613	0.99998188	0.005714417	-0.000884056	0.001075745	9.120178223	-1.473999023	3.889465332	0.285722473	-0.044203059	0.053787542	-1.019042969	0.824951172	0.393310547	883.94	-19.81066663	-67.35485326	-132.5707197	-41
23342	0	0.355321884	-0.050602913	0.151931763	0.999993324	0.0031147	0.000724792	0.001338959	8.883047104	-1.265072823	3.798294067	0.155735328	0.036239697	0.066948071	-1.014404297	0.831298828	0.384033203	883.94	-19.72237584	-67.21323868	-132.2828565	-41
23343	0	0.355773926	-0.05657959	0.151489258	0.999997139	-0.001117706	0.001343727	0.000934601	8.894348145	-1.414489746	3.787231445	-0.055885352	0.0671864	0.046730072	-1.014404297	0.835693359	0.375	883.92	-19.9562158	-67.0201084	-132.1710872	-41
23344	0	0.355372429	-0.064172745	0.15089798	0.999998093	-0.001152039	0.001374245	0.000647545	8.884310722	-1.604318619	3.772449493	-0.057601964	0.068712276	0.032377263	-1.012207031	0.837890625	0.377685547	883.92	-20.11708375	-66.83441737	-132.143157	-41
23345	0	0.354248047	-0.06652832	0.153381348	0.999999046	0.00107193	0.000500679	0.00056076	8.856201172	-1.663208008	3.834533691	0.053596512	0.025033958	0.028038033	-1.012207031	0.835693359	0.377929688	883.86	-20.08190298	-66.74563815	-132.0517816	-41
23346	0	0.357136726	-0.062021255	0.154603004	0.999997139	0.001848221	0.000118256	0.001102448	8.928418159	-1.550531387	3.865075111	0.092411113	0.005912785	0.055122418	-1.010009766	0.83984375	0.374511719	883.92	-20.12816542	-66.67627859	-131.7747099	-41
23347	0	0.363647461	-0.061767578	0.152893066	0.999997139	0.001743317	0.000149727	0.001407623	9.091186523	-1.544189453	3.82232666	0.087165906	0.00748635	0.070381224	-1.010009766	0.842041016	0.368652344	883.92	-20.25866076	-66.5911418	-131.4188542	-41
23348	0	0.363437653	-0.058409691	0.154058456	0.999998093	0.000801086	0.000515938	0.001402855	9.085941315	-1.460242271	3.851461411	0.04005434	0.025796903	0.07014278	-1.005615234	0.848388672	0.367919922	883.92	-20.45994735	-66.46632899	-131.103061	-41
23349	0	0.360412598	-0.052734375	0.152770996	0.999998093	0.00073719	0.000984192	0.001113892	9.010314941	-1.318359375	3.819274902	0.036859529	0.049209617	0.055694606	-1.003173828	0.850585938	0.364746094	883.88	-20.55108115	-66.30256175	-130.9151094	-41
23350	0	0.358775139	-0.056612968	0.148188591	0.999999046	8.39E-05	0.001083374	0.000582695	8.969378471	-1.415324211	3.704714775	0.004196168	0.054168715	0.029134758	-1.000976563	0.852539063	0.361572266	883.94	-20.57681723	-66.14964667	-130.8800882	-41
23351	0	0.358642578	-0.054870605	0.147399902	0.999998093	-0.001265526	0.000881195	0.000114441	8.966064453	-1.371765137	3.684997559	-0.063276316	0.044059771	0.005722048	-1.003173828	0.852539063	0.358886719	883.86	-20.66149226	-66.03760299	-130.9496418	-41
23352	0	0.361357689	-0.062226295	0.148306847	0.999999046	-0.000662804	0.000263214	-0.00042057	9.033942223	-1.555657387	3.707671165	-0.033140186	0.013160707	-0.021028521	-1.003173828	0.852539063	0.353271484	883.86	-20.60488159	-66.01367957	-131.0980686	-41
23353	0	0.360107422	-0.050354004	0.151611328	0.999999046	-0.000652313	-0.00026226	-0.000434875	9.002685547	-1.258850098	3.790283203	-0.032615665	-0.013113023	-0.021743777	-1.005615234	0.850585938	0.362060547	883.98	-20.590256	-66.04691958	-131.1997481	-41
23354	0	0.357058525	-0.053108215	0.150072098	0.999993324	-0.003341675	-0.000745773	-0.000957489	8.926463127	-1.327705383	3.751802444	-0.167084092	-0.037288744	-0.047874552	-1.003173828	0.850341797	0.361816406	883.92	-20.80087412	-66.15343624	-131.3912672	-41
23355	0	0.363464355	-0.06262207	0.149963379	0.999993324	-0.002891541	-0.001360893	-0.001678467	9.086608887	-1.565551758	3.749084473	-0.14457734	-0.06804481	-0.083923522	-1.005371094	0.843994141	0.37109375	883.94	-20.84113924	-66.35552879	-131.7127938	-41
23356	0	0.361942291	-0.059481621	0.151684761	0.999997139	-0.000994682	-0.001888275	-0.000958443	9.048557281	-1.48704052	3.792119026	-0.049734161	-0.094413843	-0.047922178	-1.007568359	0.837646484	0.380371094	883.92	-20.88789525	-66.58482028	-131.7901678	-41
23357	0	0.35925293	-0.046630859	0.154602051	0.999997139	-0.00094986	-0.001818657	-0.001197815	8.981323242	-1.165771484	3.86505127	-0.047493026	-0.090932932	-0.059890803	-1.007568359	0.837646484	0.377441406	883.98	-20.86103905	-66.81639908	-131.9409794	-41
23358	0	0.35624218	-0.068769455	0.14981842	0.999995232	0.000644684	-0.002363205	-0.001468658	8.906054497	-1.719236374	3.74546051	0.032234236	-0.118160408	-0.073433022	-1.007568359	0.831054688	0.386474609	883.92	-20.63340924	-67.11685023	-132.1119552	-41
23359	0	0.360900879	-0.060546875	0.144348145	0.999985695	0.0039711	-0.003123283	-0.0014534	9.022521973	-1.513671875	3.608703613	0.198555907	-0.156164889	-0.072670318	-1.009765625	0.829101563	0.392333984	883.94	-20.09399719	-67.4979083	-132.2077178	-41
23360	0	0.36461544	-0.049684525	0.149983406	0.999995232	0.000187874	-0.002246857	-0.00189209	9.115386009	-1.242113113	3.749585152	0.009393706	-0.112342997	-0.094604629	-1.009765625	0.826904297	0.389892578	883.88	-19.78053012	-67.80129671	-132.5267602	-41
23361	0	0.36151123	-0.062561035	0.149780273	0.999996185	-0.000418663	-0.001976013	-0.001613617	9.037780762	-1.564025879	3.744506836	-0.020933175	-0.098800769	-0.080680937	-1.012207031	0.827148438	0.395507813	883.98	-19.57823983	-68.06370472	-132.8001584	-41
23362	0	0.359350204	-0.053472519	0.149902344	0.999996185	0.001393318	-0.001626015	-0.001174927	8.983755112	-1.336812973	3.747558594	0.069665978	-0.081300816	-0.058746396	-1.014404297	0.822753906	0.401611328	883.94	-19.2470603	-68.27064601	-132.9889647	-41
23363	0	0.361022949	-0.061584473	0.153808594	0.999999046	0.000514984	-0.000197411	-0.000682831	9.02557373	-1.539611816	3.845214844	0.02574921	-0.00987053	-0.034141545	-1.016601563	0.820556641	0.396240234	883.98	-19.01270903	-68.30331374	-133.1814576	-41
23364	0	0.358725548	-0.061365128	0.152386665	0.999998093	0.001596451	3.91E-05	-4.29E-05	8.968138695	-1.534128189	3.809666634	0.079822574	0.001955033	-0.002145768	-1.016601563	0.820800781	0.402099609	883.88	-18.80707421	-68.28555456	-133.2103283	-41
23365	0	0.362792969	-0.057617188	0.147949219	0.999997139	0.002037048	1.62E-05	0.00063324	9.069824219	-1.440429688	3.698730469	0.101852494	0.000810624	0.031662011	-1.014160156	0.822753906	0.393310547	883.92	-18.73777731	-68.24492209	-133.0375302	-41
23366	0	0.361978531	-0.061148643	0.144791603	0.999998093	0.001732826	0.000264168	0.000720024	9.049463272	-1.528716087	3.619790077	0.086641363	0.013208397	0.036001227	-1.014404297	0.827148438	0.392822266	883.94	-18.70485142	-68.17394108	-132.863231	-41
23367	0	0.360351563	-0.055419922	0.14263916	0.999994278	0.002850533	0.000209808	0.001415253	9.008789063	-1.385498047	3.565979004	0.142526868	0.010490435	0.070762754	-1.014404297	0.829345703	0.389892578	883.94	-18.73654989	-68.08316468	-132.4816769	-41
23368	0	0.363388062	-0.049371719	0.138921738	0.999995232	0.002354622	0.000263214	0.001620293	9.084701538	-1.234292984	3.473043442	0.117731256	0.013160724	0.081014744	-1.010009766	0.835693359	0.383300781	883.92	-18.87302561	-67.97903409	-132.0475272	-41
23369	0	0.364501953	-0.049133301	0.139892578	0.999998093	0.000943184	0.000484467	0.001377106	9.112548828	-1.22833252	3.497314453	0.047159219	0.02422334	0.06885532	-1.0078125	0.83984375	0.377197266	883.94	-19.08263817	-67.85974386	-131.7082898	-41
23370	0	0.366425514	-0.050307274	0.139792442	0.999998093	0.000279427	0.000561714	0.001383781	9.160637856	-1.257681847	3.494811058	0.013971334	0.028085719	0.069189098	-1.005371094	0.842041016	0.376953125	883.94	-19.35961903	-67.73161434	-131.3784236	-40
23371	0	0.365600586	-0.046020508	0.139465332	0.999999046	-0.000293732	0.000527382	0.001045227	9.140014648	-1.150512695	3.486633301	-0.014686588	0.026369101	0.052261365	-1.005615234	0.843994141	0.376708984	884.04	-19.61242666	-67.6199804	-131.1454303	-40
23372	0	0.365100861	-0.051506042	0.140795708	0.999999046	-0.000323296	0.000389099	0.000472069	9.127521515	-1.287651062	3.519892693	-0.016164781	0.019454958	0.023603441	-1.000976563	0.846191406	0.373535156	884	-19.72964517	-67.54538996	-131.0620139	-40
23373	0	0.366638184	-0.049255371	0.142456055	0.999999046	0	0.000115395	-8.77E-05	9.16595459	-1.231384277	3.561401367	0	0.00576973	-0.004386902	-1.000976563	0.846191406	0.373535156	883.92	-19.6885276	-67.52224642	-131.1099648	-40
