Counter	Temperature	VelInc_X	VelInc_Y	VelInc_Z	OriInc_w	OriInc_x	OriInc_y	OriInc_z	Acc_X	Acc_Y	Acc_Z	Gyr_X	Gyr_Y	Gyr_Z	Mag_X	Mag_Y	Mag_Z	Pressure	Roll	Pitch	Yaw	RSSI
25012	0	0.353153229	-0.118515015	0.10726738	0.999991417	-0.00121212	0.001838684	0.003422737	8.828830719	-2.962875366	2.681684494	-0.06060617	0.091934458	0.171137329	-0.785644531	0.273193359	0.747070313	883.92	-38.83243178	-68.5938141	-139.2374742	-63
25013	0	0.352600098	-0.117492676	0.142456055	0.99997139	0.004380226	0.003070831	0.005332947	8.815002441	-2.937316895	3.561401367	0.219013389	0.153543025	0.266649875	-0.788085938	0.275634766	0.747070313	884.06	-38.93139724	-67.94323377	-138.5917277	-63
25014	0	0.321637154	-0.100262642	0.110574722	0.999966621	0.004575729	0.004163742	0.005171776	8.040928841	-2.506566048	2.764368057	0.228788948	0.208189359	0.258591593	-0.788818359	0.297363281	0.739746094	883.94	-38.76487329	-67.20582199	-138.2046422	-63
25015	0	0.337768555	-0.092285156	0.092529297	0.999926567	0.011940002	0.000100136	0.001823425	8.444213867	-2.307128906	2.313232422	0.59701464	0.005006912	0.091173482	-0.794189453	0.319091797	0.723876953	883.94	-37.7366796	-67.07370274	-137.8359701	-62
25016	0	0.399814606	-0.082792282	0.135072708	0.999995232	0.001261711	-0.002679825	-0.000529289	9.995365143	-2.069807053	3.376817703	0.063085651	-0.133991444	-0.026464502	-0.790039063	0.33203125	0.72265625	883.98	-37.89205154	-67.36005602	-137.509829	-62
25017	0	0.403503418	-0.129455566	0.149353027	0.999988556	0.004307747	-0.001789093	-0.000297546	10.08758545	-3.23638916	3.733825684	0.215388129	-0.089454977	-0.014877374	-0.787841797	0.33203125	0.725341797	884	-37.60299732	-67.54806408	-137.2888494	-62
25018	0	0.363165855	-0.077684402	0.12504673	0.99992466	0.011901855	-0.002010345	0.002138138	9.079146385	-1.942110062	3.126168251	0.595107678	-0.100519791	0.106909568	-0.785888672	0.344970703	0.721435547	883.98	-37.01494364	-67.58780484	-136.4503929	-62
25019	0	0.343078613	-0.032287598	0.092285156	0.999973297	0.007203102	-0.000408173	-0.000850677	8.576965332	-0.807189941	2.307128906	0.360158274	-0.02040881	-0.042534249	-0.779785156	0.368652344	0.719238281	884	-36.02867684	-67.69042767	-136.6230805	-62
25020	0	0.373605728	-0.068099976	0.092913628	0.999980927	-0.005643845	-0.001049995	-0.002225876	9.340143204	-1.70249939	2.322840691	-0.282194013	-0.052500103	-0.111294496	-0.782226563	0.37109375	0.713378906	883.92	-36.30652795	-67.94659572	-137.0195711	-62
25021	0	0.385009766	-0.096923828	0.113769531	0.999946594	-0.009970665	-0.000671387	-0.002609253	9.625244141	-2.423095703	2.844238281	-0.498542113	-0.033569933	-0.130464966	-0.781982422	0.360107422	0.725585938	883.94	-36.9301774	-68.19529749	-137.5776768	-62
25022	0	0.379356384	-0.088947296	0.126506805	0.999985695	-0.003858566	-0.000606537	-0.003391266	9.483909607	-2.223682404	3.162670135	-0.192929175	-0.030326979	-0.16956405	-0.783447266	0.338378906	0.733154297	883.92	-36.6555382	-68.49188969	-138.3492687	-62
25023	0	0.377075195	-0.045532227	0.125366211	0.999993324	-0.002773285	-0.000369072	-0.00233078	9.426879883	-1.138305664	3.134155273	-0.138664552	-0.018453639	-0.116539259	-0.787841797	0.329833984	0.739746094	884.04	-36.44674402	-68.69372806	-138.9145182	-62
25024	0	0.37521553	-0.068297386	0.105541229	0.999978065	-0.006186485	-0.000379562	-0.001921654	9.38038826	-1.707434654	2.638530731	-0.309326435	-0.018978252	-0.096083362	-0.787597656	0.319091797	0.743408203	883.98	-36.72227456	-68.86935954	-139.3786101	-62
25025	0	0.36138916	-0.076293945	0.107849121	0.999987602	-0.002403259	-0.000208855	-0.004241943	9.034729004	-1.907348633	2.696228027	-0.120163441	-0.010442775	-0.21209801	-0.789306641	0.306152344	0.747558594	883.88	-35.96765293	-69.18612397	-140.4811398	-62
25026	0	0.366091728	-0.080059052	0.107913971	0.999985695	-0.001134872	-0.000219345	-0.005162239	9.152293205	-2.001476288	2.697849274	-0.056743886	-0.010967306	-0.258113158	-0.791259766	0.295166016	0.748535156	884	-34.80906086	-69.55822818	-141.8575064	-62
25027	0	0.374755859	-0.099304199	0.119445801	0.999975204	-0.005156517	-0.000610352	-0.004676819	9.368896484	-2.48260498	2.98614502	-0.25782795	-0.030517827	-0.233842846	-0.795410156	0.282226563	0.749755859	883.98	-34.26615426	-69.92741124	-143.0655517	-62
25028	0	0.362202644	-0.057575226	0.116384506	0.999992371	-0.003175735	0.000781059	-0.002099991	9.055066109	-1.439380646	2.909612656	-0.158787173	0.039053062	-0.104999807	-0.797363281	0.269287109	0.756591797	883.94	-33.89804505	-69.99557062	-143.8445123	-63
25029	0	0.364990234	-0.063232422	0.132080078	0.999932289	-0.011322021	0.000954628	-0.002304077	9.124755859	-1.580810547	3.302001953	-0.566113756	0.047732469	-0.115206438	-0.801513672	0.258544922	0.752197266	883.94	-34.37415944	-70.05969938	-144.7166837	-63
25030	0	0.364268303	-0.082331657	0.127200127	0.999937057	-0.010632515	0.001156807	-0.003171921	9.106707573	-2.058291435	3.180003166	-0.531636775	0.057841547	-0.158599329	-0.805175781	0.232666016	0.762939453	883.92	-34.50523931	-70.16120321	-145.8722203	-63
25031	0	0.357543945	-0.082885742	0.110351563	0.999970436	-0.007022858	1.24E-05	-0.003101349	8.938598633	-2.072143555	2.758789063	-0.351146333	0.000619894	-0.155068967	-0.811523438	0.213378906	0.767578125	883.88	-34.44043952	-70.36569935	-146.7957956	-63
25032	0	0.366004944	-0.104704857	0.115048409	0.99998188	-0.004069328	-0.00138855	-0.004199028	9.150123596	-2.617621422	2.876210213	-0.20346764	-0.069427908	-0.209952665	-0.810791016	0.195800781	0.774658203	883.94	-33.98458671	-70.77088983	-147.7739866	-62
25033	0	0.378723145	-0.11315918	0.116027832	0.99998188	0.003959656	-0.000811577	-0.004455566	9.468078613	-2.828979492	2.900695801	0.197983982	-0.040579087	-0.222779664	-0.815185547	0.187255859	0.781494141	883.92	-32.39700805	-71.12955911	-148.9747371	-62
25034	0	0.376026154	-0.094413757	0.102692604	0.999959946	0.008681297	0.000569344	-0.002031326	9.400653839	-2.360343933	2.567315102	0.434070639	0.028467557	-0.101567666	-0.815429688	0.189453125	0.778320313	883.94	-30.68063328	-71.1961714	-149.7388757	-62
25035	0	0.372741699	-0.075744629	0.096984863	0.999986649	0.00458622	0.000888824	0.001750946	9.31854248	-1.893615723	2.424621582	0.229311941	0.044441407	0.087547665	-0.818359375	0.204833984	0.774414063	883.88	-30.47141186	-71.00686882	-149.4057095	-63
25036	0	0.363841057	-0.072393417	0.092494965	0.999991417	0.001694679	0.000318527	0.003761292	9.096026421	-1.809835434	2.312374115	0.084734205	0.015926407	0.188065112	-0.821044922	0.215820313	0.773681641	883.98	-31.25682766	-70.75531037	-148.3702502	-63
25037	0	0.371826172	-0.083984375	0.100769043	0.999976158	0.005725861	-0.000685692	0.0037117	9.295654297	-2.099609375	2.519226074	0.286295274	-0.03428486	0.185586477	-0.814453125	0.228759766	0.772216797	883.94	-31.72225405	-70.60110865	-147.1835529	-63
25038	0	0.374712944	-0.082342148	0.098928452	0.999864578	0.01595211	-0.001116753	0.003756523	9.367823601	-2.058553696	2.473211288	0.797641388	-0.055840143	0.187834604	-0.812988281	0.250488281	0.770507813	883.98	-31.09640591	-70.48711057	-145.9112406	-63
25039	0	0.382324219	-0.05065918	0.099121094	0.999819756	0.018276215	-0.001959801	0.004589081	9.558105469	-1.266479492	2.478027344	0.913865403	-0.097995899	0.229467769	-0.809814453	0.287353516	0.761474609	883.92	-30.57049692	-70.41255426	-144.248901	-63
25040	0	0.386122704	-0.027947426	0.100217819	0.999926567	0.010878563	-0.00147438	0.005042076	9.653067589	-0.698685646	2.50544548	0.543941377	-0.073720818	0.252109938	-0.804199219	0.323974609	0.752441406	884	-30.92492671	-70.26618402	-142.5495103	-63
25041	0	0.379699707	-0.027160645	0.101379395	0.999991417	-0.001255035	-0.00101757	0.003604889	9.492492676	-0.679016113	2.534484863	-0.062751933	-0.050878657	0.180244915	-0.795654297	0.343261719	0.747558594	884	-32.1825404	-70.15494579	-141.3653211	-64
25042	0	0.367675781	-0.057250977	0.097229004	0.999996185	-0.000952721	-0.000605583	0.002422333	9.191894531	-1.431274414	2.430725098	-0.047636089	-0.030279196	0.121116782	-0.793457031	0.345458984	0.753173828	883.94	-33.00765764	-70.07043306	-140.6043892	-63
25043	0	0.366271973	-0.061462402	0.102722168	0.999992371	0.003235817	-0.001533508	0.001159668	9.156799316	-1.536560059	2.568054199	0.16179123	-0.076675596	0.057983535	-0.7890625	0.351806641	0.749511719	883.98	-33.17578723	-70.15219182	-140.0319824	-63
25044	0	0.382801056	-0.070128441	0.108776093	0.999983788	0.005379677	-0.001310349	-0.0004282	9.570026398	-1.753211021	2.719402313	0.268985224	-0.065517762	-0.021410098	-0.786865234	0.356201172	0.751953125	883.98	-32.63772605	-70.31217888	-139.9498412	-63
25045	0	0.384094238	-0.078613281	0.105407715	0.999967575	0.007763863	-0.001644135	-0.000537872	9.602355957	-1.965332031	2.635192871	0.388197224	-0.082207593	-0.026893899	-0.784912109	0.364746094	0.75390625	883.88	-31.85151261	-70.51163935	-139.841538	-63
25046	0	0.376771927	-0.065224648	0.108921051	0.999952316	0.009520531	-0.001519203	0.000731468	9.419298172	-1.630616188	2.723026276	0.476033952	-0.075961343	0.03657398	-0.782958984	0.375488281	0.747070313	883.88	-31.18833091	-70.62341374	-139.3895935	-63
25047	0	0.367858887	-0.059448242	0.115112305	0.999987602	0.004711151	-0.000296593	0.001514435	9.196472168	-1.486206055	2.877807617	0.235558521	-0.014829696	0.075722051	-0.778808594	0.392822266	0.737060547	883.9	-31.08645619	-70.56968529	-138.9258197	-63
25048	0	0.370879173	-0.072867393	0.113929749	0.999982834	0.005655289	-0.000390053	0.000774384	9.271979332	-1.821684837	2.848243713	0.282765978	-0.019502746	0.038719388	-0.776855469	0.397216797	0.7421875	883.92	-30.68673321	-70.56894409	-138.6640502	-63
25049	0	0.377990723	-0.070251465	0.109191895	0.999972343	0.007392883	-8.30E-05	-4.58E-05	9.449768066	-1.756286621	2.729797363	0.369647533	-0.004148521	-0.002288839	-0.779541016	0.408203125	0.735839844	883.92	-29.80873399	-70.58610393	-138.6982636	-63
25050	0	0.375389099	-0.057965279	0.106640816	0.999988556	0.004609108	-0.00033474	0.000131607	9.384727478	-1.449131966	2.666020393	0.230456219	-0.016737044	0.006580376	-0.775146484	0.416503906	0.726318359	883.92	-29.33983385	-70.61852006	-138.6365454	-63
25051	0	0.370727539	-0.057617188	0.11126709	0.999999046	0.000247955	-0.000323296	0.000270844	9.268188477	-1.440429688	2.781677246	0.012397767	-0.01616478	0.013542176	-0.77734375	0.420898438	0.720458984	883.88	-29.40784087	-70.64206969	-138.5352101	-63
25052	0	0.368140221	-0.063316345	0.110387802	0.999997139	-0.001883507	0.000278473	0.000839233	9.203505516	-1.58290863	2.759695053	-0.094175407	0.013923655	0.0419617	-0.777587891	0.423339844	0.728759766	883.92	-29.7846992	-70.57322732	-138.3655168	-63
25053	0	0.370300293	-0.072814941	0.111816406	0.999995232	-0.00276947	0.000695229	0.00088501	9.257507324	-1.820373535	2.795410156	-0.138473717	0.034761481	0.044250554	-0.777587891	0.418945313	0.726318359	883.94	-30.20752721	-70.45964952	-138.2550559	-63
25054	0	0.36907959	-0.078186035	0.114440918	0.999998093	-0.001273155	0.000279427	0.00056076	9.226989746	-1.954650879	2.861022949	-0.063657782	0.013971333	0.028038034	-0.777587891	0.416748047	0.732177734	883.98	-30.43561894	-70.40518105	-138.169647	-63
25055	0	0.369688034	-0.074513435	0.114953995	0.999997139	0.000259399	0.000164986	0.001159668	9.242200851	-1.862835884	2.873849869	0.012969974	0.008249285	0.057983412	-0.774902344	0.414550781	0.729248047	883.94	-30.67253358	-70.32654604	-137.888645	-63
25056	0	0.372523308	-0.074472427	0.115656853	0.999994278	0.002742767	-0.00045681	0.001919746	9.313082695	-1.861810684	2.891421318	0.137138628	-0.022840543	0.095987503	-0.775146484	0.418701172	0.729003906	883.88	-30.93457371	-70.26370536	-137.2787638	-63
25057	0	0.37121582	-0.067016602	0.110961914	0.999988556	0.004193306	-0.000553131	0.001899719	9.280395508	-1.675415039	2.774047852	0.20966605	-0.027656654	0.094986302	-0.770751953	0.427246094	0.725341797	884	-31.03862925	-70.2108467	-136.6597099	-63
25058	0	0.371730804	-0.057607651	0.111458778	0.999993324	0.003078461	-0.000434875	0.001674652	9.293270111	-1.440191269	2.78646946	0.153923355	-0.02174382	0.083732779	-0.768798828	0.436035156	0.71875	883.92	-31.18673119	-70.15948752	-136.1290525	-63
25059	0	0.376342773	-0.06817627	0.110534668	0.999999046	0.00107193	-0.000266075	0.000549316	9.408569336	-1.704406738	2.763366699	0.05359651	-0.01330376	0.027465827	-0.766601563	0.442382813	0.720947266	884	-31.23070182	-70.15820327	-135.9533239	-63
25060	0	0.372722626	-0.070363998	0.110424995	0.999997139	0.002140999	-5.15E-05	0.000121117	9.318065643	-1.75909996	2.760624886	0.107050024	-0.002574923	0.006055837	-0.766845703	0.444580078	0.723632813	884	-31.00110718	-70.16130627	-135.9385735	-63
25061	0	0.372375488	-0.064880371	0.110534668	0.999999046	0.001045227	-8.68E-05	0.000892639	9.309387207	-1.622009277	2.763366699	0.052261369	-0.00433922	0.044631972	-0.766845703	0.446777344	0.712158203	883.94	-31.11245453	-70.12237747	-135.6946535	-63
25062	0	0.371180534	-0.064702988	0.110237122	0.999999046	0.000530243	7.25E-05	0.000678062	9.279513359	-1.617574692	2.75592804	0.026512149	0.003623963	0.033903126	-0.764648438	0.448730469	0.714599609	883.94	-31.1977677	-70.08052464	-135.5411855	-63
25063	0	0.37322998	-0.068725586	0.112243652	0.999999046	-0.000701904	0.000329018	0.000282288	9.330749512	-1.718139648	2.806091309	-0.035095219	0.016450884	0.014114381	-0.764648438	0.450927734	0.711669922	884	-31.27502727	-70.03695998	-135.5461946	-63
25064	0	0.372139931	-0.069885254	0.111352921	0.999998093	-0.00056839	0.000538826	0.000213623	9.303498268	-1.747131348	2.783823013	-0.028419498	0.026941302	0.010681154	-0.764404297	0.448730469	0.711669922	883.98	-31.28442995	-69.97691724	-135.607446	-63
25065	0	0.371032715	-0.067260742	0.111694336	0.999999046	-0.000976563	0.000580788	0.000289917	9.275817871	-1.681518555	2.792358398	-0.048828136	0.02903939	0.014495853	-0.766845703	0.448974609	0.711914063	883.98	-31.3542373	-69.90827285	-135.6541591	-63
25066	0	0.374092102	-0.067157745	0.11742878	0.999999046	-0.000995636	0.000465393	1.05E-05	9.352302551	-1.678943634	2.93571949	-0.049781809	0.023269658	0.000524521	-0.766845703	0.444580078	0.718017578	883.94	-31.36979824	-69.86747684	-135.7613498	-63
25067	0	0.370178223	-0.066223145	0.115356445	0.999999046	-0.000831604	0.00074482	-0.00043869	9.254455566	-1.655578613	2.883911133	-0.04158021	0.037240991	-0.021934515	-0.766601563	0.442382813	0.712402344	883.98	-31.20126639	-69.82593423	-136.0442806	-63
25068	0	0.370248795	-0.06908226	0.116219521	0.999999046	-0.000985146	0.000761032	-0.000252724	9.256219864	-1.727056503	2.905488014	-0.049257292	0.038051615	-0.012636188	-0.771240234	0.442626953	0.712646484	883.88	-31.09810241	-69.77139513	-136.2762698	-63
25069	0	0.37286377	-0.069946289	0.114807129	0.999999046	-0.000862122	0.000824928	0.000282288	9.321594238	-1.748657227	2.870178223	-0.04310609	0.041246425	0.014114383	-0.771240234	0.440429688	0.712890625	883.9	-31.1137961	-69.6788061	-136.3668001	-63
25070	0	0.367017746	-0.069987297	0.115962982	0.999997139	-0.002128601	0.000862122	0.000112534	9.175443649	-1.749682426	2.899074554	-0.106430147	0.043106117	0.005626683	-0.770996094	0.438232422	0.710205078	883.92	-31.22398006	-69.59250766	-136.5111762	-63
25071	0	0.36541748	-0.074707031	0.115600586	0.999997139	-0.001850128	0.000638008	1.91E-05	9.135437012	-1.867675781	2.890014648	-0.092506468	0.031900426	0.000953675	-0.773193359	0.436035156	0.713378906	883.86	-31.31415438	-69.53354611	-136.6431123	-63
25072	0	0.367279053	-0.079610825	0.117361069	0.999999046	-0.000779152	0.000146866	0.00014782	9.181976318	-1.990270615	2.934026718	-0.0389576	0.007343293	0.007390977	-0.773193359	0.431640625	0.716552734	883.92	-31.39482026	-69.51464639	-136.6547699	-63
25073	0	0.367980957	-0.076721191	0.117919922	0.999997139	0.001976013	-0.000250816	0.000823975	9.199523926	-1.918029785	2.947998047	0.098800736	-0.012540827	0.041198762	-0.773193359	0.431640625	0.713623047	883.88	-31.4008247	-69.49396898	-136.4093612	-63
25074	0	0.369318962	-0.075223923	0.115955353	0.999990463	0.004031181	-0.000721931	0.001194	9.232974052	-1.880598068	2.89888382	0.201559678	-0.036096682	0.059700193	-0.770996094	0.438232422	0.712890625	883.9	-31.34386426	-69.49719271	-135.9796603	-63
25075	0	0.37310791	-0.067687988	0.115234375	0.999991417	0.003986359	-0.000769615	0.000793457	9.327697754	-1.692199707	2.880859375	0.199318501	-0.038480868	0.039672965	-0.769042969	0.446777344	0.709228516	883.92	-31.19480816	-69.52931163	-135.6533703	-63
25076	0	0.371283531	-0.06864357	0.114905357	0.999992371	0.003742218	-0.000462532	0.000478745	9.28208828	-1.716089249	2.872633934	0.187111351	-0.023126658	0.023937283	-0.766845703	0.453125	0.708740234	884	-30.94240149	-69.55037224	-135.4672795	-62
25077	0	0.369995117	-0.066711426	0.115234375	0.999999046	0.001308441	2.38E-05	8.77E-05	9.24987793	-1.667785645	2.880859375	0.065422077	0.001192093	0.004386903	-0.767089844	0.457519531	0.705566406	884.04	-30.78874512	-69.54688277	-135.4731244	-63
25078	0	0.367962837	-0.069343567	0.115310669	0.999999046	-0.000415802	0.000310898	-0.000348091	9.19907093	-1.733589172	2.882766724	-0.020790101	0.015544892	-0.017404557	-0.76953125	0.457763672	0.705566406	883.98	-30.67264409	-69.54060337	-135.6498057	-63
25079	0	0.369873047	-0.073242188	0.116943359	0.999999046	-0.000774384	0.000370979	-0.000282288	9.246826172	-1.831054688	2.923583984	-0.038719183	0.018548968	-0.014114382	-0.769287109	0.455322266	0.700195313	884	-30.60620923	-69.52430411	-135.8173932	-63
25080	0	0.369825363	-0.072240829	0.118508339	0.999999046	-6.58E-05	0.000204086	0.000164032	9.245634079	-1.806020737	2.962708473	-0.003290176	0.010204315	0.008201599	-0.769287109	0.455566406	0.702880859	884.06	-30.60289319	-69.498206	-135.8311505	-63
25081	0	0.371887207	-0.068847656	0.117675781	0.999999046	0.000396729	6.20E-05	0.000549316	9.297180176	-1.721191406	2.941894531	0.019836427	0.003099442	0.027465822	-0.766845703	0.453125	0.703125	884	-30.67012959	-69.46360365	-135.7133983	-63
25082	0	0.370152473	-0.065131187	0.120152473	0.999999046	0.000389099	0.000352859	-0.000149727	9.253811836	-1.628279686	3.003811836	0.019454957	0.017642976	-0.007486344	-0.769287109	0.453369141	0.703125	883.86	-30.50816979	-69.44105754	-135.8412058	-62
25083	0	0.368041992	-0.067199707	0.118591309	0.999999046	-0.000423431	0.0004282	4.20E-05	9.201049805	-1.679992676	2.964782715	-0.021171571	0.02140999	0.002098084	-0.771484375	0.455566406	0.697265625	883.98	-30.47803836	-69.39978773	-135.9270607	-62
25084	0	0.368422508	-0.074228287	0.118293762	0.999999046	-0.000529289	0.000270844	-5.82E-05	9.210562706	-1.855707169	2.957344055	-0.026464464	0.013542176	-0.002908707	-0.769287109	0.455322266	0.697265625	883.94	-30.45880788	-69.37966746	-136.0142442	-62
25085	0	0.368103027	-0.074951172	0.118164063	0.999999046	-0.000427246	0.000302315	1.91E-05	9.202575684	-1.873779297	2.954101563	-0.021362306	0.015115739	0.000953674	-0.771484375	0.451171875	0.700683594	884.04	-30.4440864	-69.35173991	-136.0849768	-62
25086	0	0.366821289	-0.074584961	0.119445801	0.999998093	0.001343727	-0.000117302	0.000484467	9.170532227	-1.864624023	2.98614502	0.067186379	-0.005865099	0.024223336	-0.769042969	0.451171875	0.700439453	883.94	-30.41365807	-69.3379991	-135.9558333	-62
25087	0	0.372680664	-0.064880371	0.11895752	0.999996185	0.00256443	-0.000217438	-0.00019455	9.317016602	-1.622009277	2.973937988	0.128221654	-0.010871899	-0.009727489	-0.769287109	0.455322266	0.697265625	883.98	-30.07987241	-69.37362497	-136.0009646	-62
25088	0	0.373182297	-0.060097694	0.11892128	0.999999046	-0.000287056	0.000156403	-0.001049995	9.329557419	-1.50244236	2.973031998	-0.014352801	0.007820131	-0.052499782	-0.771484375	0.457763672	0.697265625	883.94	-29.78830746	-69.42117712	-136.3492928	-62
25089	0	0.368591309	-0.069152832	0.119873047	0.999996185	-0.002474785	0.00069809	-0.000923157	9.214782715	-1.728820801	2.996826172	-0.123739396	0.034904523	-0.046157894	-0.771484375	0.453369141	0.697509766	883.88	-29.69837784	-69.40707686	-136.7499646	-62
25090	0	0.366670609	-0.074864388	0.11909771	0.999997139	-0.00217247	0.000337601	-0.000458717	9.166765213	-1.871609688	2.977442741	-0.108623596	0.01688005	-0.022935887	-0.773681641	0.448974609	0.697998047	883.92	-29.75232766	-69.40215137	-136.9603003	-62
25091	0	0.370422363	-0.073181152	0.120483398	0.999997139	-0.00227356	-4.10E-05	0.000141144	9.260559082	-1.829528809	3.012084961	-0.113678077	-0.002050402	0.007057196	-0.7734375	0.444580078	0.701171875	884	-30.03442874	-69.40059164	-136.9396509	-62
25092	0	0.366078377	-0.071826935	0.122140884	0.999994278	-0.003160477	6.20E-05	-0.000442505	9.151959419	-1.79567337	3.05352211	-0.158024103	0.003099447	-0.022125282	-0.775390625	0.438232422	0.698974609	883.98	-30.24848105	-69.42206397	-137.1002875	-62
25093	0	0.363952637	-0.077148438	0.127563477	0.999996185	-0.002421379	-0.000102997	-0.000408173	9.098815918	-1.928710938	3.189086914	-0.121069076	-0.005149846	-0.020408651	-0.777587891	0.431884766	0.705322266	883.92	-30.41257334	-69.45735349	-137.2244116	-62
25094	0	0.369477272	-0.081914902	0.126052856	0.999997139	0.001724243	-0.00084877	0.000405312	9.236931801	-2.047872543	3.151321411	0.086212214	-0.042438534	0.020265592	-0.775390625	0.433837891	0.705078125	883.92	-30.43294931	-69.51855144	-136.9947727	-62
25095	0	0.369506836	-0.075805664	0.121643066	0.999984741	0.005322456	-0.000797272	0.00063324	9.237670898	-1.895141602	3.04107666	0.26612412	-0.039863782	0.031662142	-0.773193359	0.438232422	0.701660156	883.98	-30.09418069	-69.56138119	-136.7089524	-62
25096	0	0.365148544	-0.070197105	0.117539406	0.999988556	0.004631042	-0.000517845	0.000655174	9.128713608	-1.754927635	2.938485146	0.231552979	-0.025892353	0.032758834	-0.771240234	0.446777344	0.700927734	883.86	-29.79761711	-69.57565156	-136.4623307	-62
25097	0	0.368652344	-0.067321777	0.116210938	0.999995232	0.002719879	-0.00039196	0.00113678	9.216308594	-1.683044434	2.905273438	0.135994158	-0.019598036	0.056839073	-0.771484375	0.453369141	0.700439453	883.98	-29.82923392	-69.5502375	-136.0989803	-62
25098	0	0.368164063	-0.07232666	0.116333008	0.999995232	0.002696991	-0.000385284	0.001251221	9.204101563	-1.808166504	2.908325195	0.13484975	-0.01926425	0.062561129	-0.767089844	0.459716797	0.696777344	883.92	-29.8930184	-69.51747137	-135.7036227	-62
25099	0	0.372619629	-0.064697266	0.117370605	0.999995232	0.002635956	-0.000571251	0.001125336	9.315490723	-1.617431641	2.934265137	0.131797978	-0.028562586	0.056266865	-0.767333984	0.466308594	0.693359375	884	-29.95789932	-69.51039173	-135.3142704	-62
25100	0	0.373413086	-0.062194824	0.116821289	0.999995232	0.002682686	-0.000385284	0.000637054	9.335327148	-1.554870605	2.920532227	0.134134466	-0.019264246	0.031852763	-0.765136719	0.470458984	0.690185547	883.94	-29.85846239	-69.51305056	-135.0945694	-62
25101	0	0.369934082	-0.065429688	0.116394043	0.999998093	0.001812935	-9.54E-05	0.000396729	9.248352051	-1.635742188	2.909851074	0.090646796	-0.004768374	0.019836437	-0.765136719	0.47265625	0.687011719	884	-29.75030675	-69.50085224	-134.990692	-63
25102	0	0.371062279	-0.067195892	0.116078377	0.999997139	0.002155304	-6.68E-05	0.000422478	9.276556969	-1.679897308	2.901959419	0.107765284	-0.003337863	0.021123903	-0.762939453	0.479003906	0.686523438	883.98	-29.6055158	-69.48456095	-134.8835199	-63
25103	0	0.370300293	-0.067810059	0.116577148	0.999995232	0.003005981	-0.000102043	0.000579834	9.257507324	-1.695251465	2.914428711	0.150299307	-0.005102166	0.028991745	-0.760742188	0.481201172	0.680419922	884	-29.41069064	-69.46310587	-134.7260664	-63
25104	0	0.371284485	-0.066073418	0.117081642	0.999996185	0.002557755	-0.000134468	0.000385284	9.282112122	-1.651835442	2.927041054	0.127887869	-0.006723411	0.019264243	-0.763183594	0.487792969	0.682861328	883.98	-29.22028275	-69.45612172	-134.6187469	-63
25105	0	0.372253418	-0.064147949	0.117614746	0.999995232	0.002849579	-0.000197411	0.000419617	9.306335449	-1.60369873	2.940368652	0.142479141	-0.009870543	0.020980864	-0.760986328	0.491943359	0.676757813	883.92	-29.01479061	-69.45382359	-134.4915533	-63
25106	0	0.368339539	-0.064027786	0.118383408	0.999995232	0.002929688	-0.000116348	0.000353813	9.208488464	-1.600694656	2.95958519	0.146484588	-0.005817422	0.017690684	-0.761230469	0.498535156	0.676269531	883.98	-28.77032535	-69.44727726	-134.3960061	-63
25107	0	0.369018555	-0.063598633	0.117004395	0.999997139	0.002109528	-0.000159264	0.000274658	9.225463867	-1.58996582	2.925109863	0.105476459	-0.007963187	0.013732921	-0.761230469	0.500732422	0.673339844	883.98	-28.60488798	-69.44966533	-134.3167088	-63
25108	0	0.369324684	-0.064471245	0.116425514	0.999999046	0.000954628	-8.01E-05	0.000164032	9.233117104	-1.61178112	2.910637856	0.047731407	-0.004005433	0.0082016	-0.759033203	0.502685547	0.670166016	884	-28.53062633	-69.45036091	-134.2810228	-63
25109	0	0.367919922	-0.064941406	0.117980957	0.999999046	0.000171661	4.67E-05	0.000278473	9.197998047	-1.623535156	2.949523926	0.008583069	0.002336502	0.013923645	-0.761474609	0.502929688	0.670166016	883.94	-28.55833389	-69.43207668	-134.2326698	-63
25110	0	0.367506027	-0.064678192	0.119256973	0.999999046	-0.000314713	-0.000156403	0.000865936	9.187650681	-1.616954803	2.981424332	-0.015735629	-0.007820131	0.04329682	-0.759033203	0.502685547	0.670166016	883.9	-28.82852026	-69.40184717	-133.9849751	-63
25111	0	0.369812012	-0.066101074	0.118896484	0.999999046	-0.001083374	-7.92E-05	0.000362396	9.245300293	-1.652526855	2.972412109	-0.054168713	-0.003957749	0.018119816	-0.759277344	0.507080078	0.669677734	883.98	-29.0405043	-69.39145796	-133.8921853	-63
25112	0	0.36886692	-0.065897942	0.12095356	0.999996185	-0.00220871	-2.19E-05	0.000171661	9.221673012	-1.64744854	3.023838997	-0.110435576	-0.001096726	0.008583076	-0.756835938	0.502685547	0.672851563	883.94	-29.32180569	-69.38580443	-133.863705	-62
25113	0	0.366394043	-0.065734863	0.12121582	0.999996185	-0.002562523	0.000114441	0.000709534	9.159851074	-1.643371582	3.030395508	-0.128126296	0.005722053	0.035476726	-0.759033203	0.500732422	0.676025391	883.98	-29.76503556	-69.33599804	-133.7057994	-63
25114	0	0.368765831	-0.072622299	0.121968269	0.999997139	-0.00202179	0.000169754	0.000778198	9.219145775	-1.81555748	3.049206734	-0.101089557	0.008487708	0.038909943	-0.754394531	0.498291016	0.678710938	884.06	-30.15485821	-69.27613396	-133.5388107	-63
25115	0	0.369384766	-0.076843262	0.121337891	0.999999046	-0.001064301	0.000271797	0.000770569	9.234619141	-1.921081543	3.033447266	-0.053215043	0.013589863	0.038528454	-0.758789063	0.494140625	0.682128906	884.04	-30.41669373	-69.2060067	-133.3929937	-63
25116	0	0.370734215	-0.072057724	0.121141434	0.999999046	0.000311852	-3.24E-05	0.00094223	9.26835537	-1.8014431	3.028535843	0.015592578	-0.001621247	0.047111519	-0.759033203	0.498535156	0.681884766	884.04	-30.61082842	-69.15562294	-133.1500045	-62
25117	0	0.368896484	-0.067810059	0.120605469	0.999999046	-7.25E-05	0.000149727	0.000183105	9.222412109	-1.695251465	3.015136719	-0.003623962	0.007486343	0.009155274	-0.756591797	0.498535156	0.678955078	883.98	-30.62342586	-69.13143911	-133.1478064	-62
25118	0	0.366394043	-0.067290306	0.119728088	0.999999046	0.000610352	2.86E-05	-0.000167847	9.159851074	-1.682257652	2.993202209	0.03051758	0.001430512	-0.008392335	-0.756591797	0.496337891	0.678955078	884	-30.48500392	-69.13967775	-133.224197	-62
25119	0	0.371276855	-0.069946289	0.118347168	0.999999046	9.16E-05	3.53E-05	-8.01E-05	9.281921387	-1.748657227	2.958679199	0.004577637	0.001764297	-0.004005432	-0.759033203	0.496337891	0.679199219	883.88	-30.42769922	-69.14221789	-133.277456	-63
25120	0	0.36914444	-0.078350067	0.118569374	0.999999046	-0.001130104	0.000196457	6.01E-05	9.228610992	-1.958751678	2.964234352	-0.056505216	0.009822848	0.003004075	-0.756591797	0.498535156	0.678955078	883.98	-30.52317967	-69.12055155	-133.3156544	-63
25121	0	0.363830566	-0.070922852	0.120483398	0.999997139	-0.001995087	0.000100136	0.000617981	9.09576416	-1.773071289	3.012084961	-0.099754406	0.005006794	0.03089907	-0.758789063	0.496337891	0.676269531	883.86	-30.87621038	-69.07566035	-133.1843064	-63
25122	0	0.368290901	-0.07516098	0.12166214	0.999996185	-0.002373695	5.82E-05	0.000601768	9.20727253	-1.879024506	3.041553497	-0.118684887	0.00290871	0.030088455	-0.756591797	0.494140625	0.679199219	884.1	-31.2741071	-69.03536112	-133.051358	-62
25123	0	0.365234375	-0.083740234	0.120788574	0.999999046	-0.000892639	0.000401497	0.000751495	9.130859375	-2.093505859	3.019714355	-0.044631969	0.020074849	0.037574778	-0.756347656	0.491943359	0.682128906	883.94	-31.48728438	-68.95189399	-132.9355417	-63
25124	0	0.36722374	-0.074558258	0.119851112	0.999999046	0.000304222	-3.62E-05	0.001132965	9.180593491	-1.863956451	2.996277809	0.015211109	-0.001811982	0.056648267	-0.756347656	0.491943359	0.682128906	884	-31.72685607	-68.88801558	-132.6451051	-63
25125	0	0.367004395	-0.076660156	0.122070313	0.999999046	0.000659943	-0.000304222	0.000980377	9.175109863	-1.916503906	3.051757813	0.03299714	-0.015211109	0.049018872	-0.756591797	0.496337891	0.684814453	884.06	-31.92788226	-68.85886548	-132.3518461	-62
25126	0	0.37046814	-0.076860428	0.121883392	0.999998093	0.001706123	-0.000134468	0.000910759	9.261703491	-1.921510696	3.047084808	0.085306221	-0.006723408	0.045537977	-0.751953125	0.49609375	0.681640625	883.94	-31.96430755	-68.81710768	-132.1070525	-62
25127	0	0.36895752	-0.074523926	0.118225098	0.999996185	0.002388954	-0.000152588	0.00094986	9.223937988	-1.863098145	2.955627441	0.11944784	-0.007629403	0.047493033	-0.752197266	0.502685547	0.681152344	883.92	-31.93462234	-68.77482559	-131.8486514	-63
25128	0	0.36800766	-0.068930626	0.116548538	0.999998093	0.001220703	-6.77E-05	0.000937462	9.200191498	-1.723265648	2.913713455	0.06103518	-0.003385545	0.046873111	-0.75	0.504638672	0.677978516	883.9	-32.02131474	-68.72529225	-131.6087452	-63
25129	0	0.369140625	-0.069763184	0.115783691	0.999999046	-0.000827789	0.000172615	0.000350952	9.228515625	-1.74407959	2.894592285	-0.041389471	0.008630754	0.01754761	-0.752441406	0.507080078	0.677978516	883.92	-32.15796336	-68.68830076	-131.5661277	-62
25130	0	0.367092133	-0.076688766	0.119383812	0.999999046	-0.001186371	0.000232697	-0.000203133	9.177303314	-1.917219162	2.984595299	-0.059318557	0.01163483	-0.010156634	-0.752441406	0.507080078	0.680664063	884	-32.1884877	-68.67925787	-131.6810861	-62
25131	0	0.368530273	-0.076477051	0.120910645	0.999999046	-0.00062561	0.000191689	-0.000343323	9.213256836	-1.91192627	3.022766113	-0.03128052	0.009584428	-0.017166139	-0.752197266	0.504882813	0.677978516	883.94	-32.12627814	-68.68269519	-131.8265481	-62
25132	0	0.370794296	-0.075213432	0.119797707	0.999999046	-0.000508308	0.000352859	-0.000118256	9.269857407	-1.880335808	2.994942665	-0.025415422	0.017642976	-0.005912781	-0.754394531	0.500488281	0.67578125	884	-32.08141212	-68.656811	-131.9402235	-62
25133	0	0.365356445	-0.075927734	0.118774414	0.999998093	-0.001223564	0.000507355	-0.000526428	9.133911133	-1.898193359	2.969360352	-0.061178228	0.025367745	-0.02632142	-0.752197266	0.502685547	0.681152344	883.98	-31.99332545	-68.64069467	-132.1867637	-62
25134	0	0.367509842	-0.076878548	0.122376442	0.999996185	-0.0024786	0.000609398	-0.000775337	9.187746048	-1.921963692	3.059411049	-0.123930124	0.030469931	-0.038766907	-0.754394531	0.498291016	0.678710938	883.9	-31.97151424	-68.62957083	-132.5162556	-62
25135	0	0.365661621	-0.082702637	0.124572754	0.999997139	-0.001449585	0.000607491	-0.001178741	9.141540527	-2.067565918	3.114318848	-0.072479295	0.030374547	-0.058937111	-0.754150391	0.491943359	0.682128906	883.98	-31.73222655	-68.64238191	-132.9539537	-63
25136	0	0.364904404	-0.079520226	0.125088692	0.999999046	0.000214577	0.000167847	-0.000362396	9.122610092	-1.988005638	3.127217293	0.010728836	0.008392334	-0.018119813	-0.758789063	0.491943359	0.685058594	884	-31.573374	-68.64810944	-133.1013159	-62
25137	0	0.3671875	-0.079711914	0.123168945	0.999998093	0.001511574	0.000133514	3.43E-05	9.1796875	-1.992797852	3.079223633	0.075578719	0.006675723	0.001716614	-0.760986328	0.491943359	0.6796875	883.9	-31.37067055	-68.63308268	-133.136718	-62
25138	0	0.367089272	-0.072669983	0.117383003	0.999998093	0.001490593	0.000145912	0.000224113	9.177231789	-1.816749573	2.934575081	0.074529676	0.007295611	0.011205678	-0.758789063	0.494140625	0.679199219	884	-31.2161474	-68.6057151	-133.1227303	-63
25139	0	0.366149902	-0.070251465	0.118286133	0.999999046	-0.000629425	-4.10E-05	-0.000526428	9.153747559	-1.756286621	2.95715332	-0.031471256	-0.0020504	-0.026321414	-0.758789063	0.494140625	0.676513672	884	-31.14477275	-68.64143288	-133.2789816	-62
25140	0	0.366116524	-0.075329781	0.121395111	0.999998093	-0.001461029	-4.29E-05	-0.000492096	9.152913094	-1.883244514	3.034877777	-0.073051482	-0.002145768	-0.024604807	-0.760986328	0.491943359	0.6796875	883.98	-31.17742725	-68.67523848	-133.4260898	-62
25141	0	0.364257813	-0.080444336	0.122924805	0.999999046	-0.000907898	-0.000277519	-5.34E-05	9.106445313	-2.011108398	3.073120117	-0.045394904	-0.013875963	-0.002670288	-0.760986328	0.489990234	0.685546875	884.12	-31.29312002	-68.70575625	-133.416975	-63
25142	0	0.367630959	-0.081119537	0.124098778	0.999999046	0.000564575	-0.000688553	0.00033474	9.190773964	-2.027988434	3.102469444	0.028228764	-0.034427648	0.016736987	-0.760986328	0.487792969	0.685546875	883.94	-31.40132748	-68.75306889	-133.2363274	-62
25143	0	0.366699219	-0.076904297	0.121948242	0.999998093	0.001488686	-0.000534058	0.000217438	9.167480469	-1.922607422	3.048706055	0.074434312	-0.026702892	0.010871892	-0.760986328	0.489990234	0.682617188	883.98	-31.35097439	-68.79210722	-133.1118041	-62
25144	0	0.36612606	-0.069257736	0.120969772	0.999999046	0.000876427	-0.00060463	5.72E-05	9.153151512	-1.731443405	3.024244308	0.043821343	-0.030231482	0.002861023	-0.756591797	0.494140625	0.682128906	883.94	-31.34074501	-68.84771006	-133.0174009	-63
25145	0	0.367675781	-0.075683594	0.119567871	0.999999046	0.000198364	-0.000254631	0.00018692	9.191894531	-1.892089844	2.989196777	0.009918213	-0.012731552	0.009346009	-0.758789063	0.494140625	0.679199219	884	-31.38748712	-68.86131	-132.9454372	-63
25146	0	0.366548538	-0.07815361	0.120692253	0.999999046	0.000494003	-0.000471115	0.000235558	9.163713455	-1.953840256	3.017306328	0.024700167	-0.023555758	0.011777879	-0.756591797	0.494140625	0.682128906	884.06	-31.44666465	-68.89300967	-132.8245518	-62
25147	0	0.368286133	-0.077209473	0.122741699	0.999999046	0.000385284	-0.000323296	8.01E-05	9.20715332	-1.930236816	3.06854248	0.019264222	-0.01616478	0.004005432	-0.754150391	0.49609375	0.678955078	884.04	-31.4563373	-68.91935149	-132.7686437	-63
25148	0	0.366336823	-0.075528145	0.120120049	0.999999046	0.000809669	-0.000329971	0.000105858	9.158420563	-1.888203621	3.003001213	0.04048348	-0.016498568	0.005292893	-0.756835938	0.498535156	0.684570313	884.04	-31.42511324	-68.94473999	-132.7053951	-63
25149	0	0.367004395	-0.076660156	0.123291016	0.999999046	0.001014709	-8.68E-05	0.000175476	9.175109863	-1.916503906	3.082275391	0.050735483	-0.004339219	0.008773805	-0.754394531	0.498291016	0.681640625	884.04	-31.35037685	-68.94198303	-132.6638252	-63
25150	0	0.368774414	-0.078918457	0.120300293	0.999996185	0.002663612	-0.000266075	0.000564575	9.219360352	-1.972961426	3.007507324	0.133180784	-0.013303773	0.028228795	-0.756835938	0.500488281	0.678710938	883.98	-31.21388162	-68.93353731	-132.4874468	-63
25151	0	0.369018555	-0.075073242	0.115783691	0.999992371	0.003685951	-0.00069046	0.000671387	9.225463867	-1.876831055	2.894592285	0.184298007	-0.034523094	0.033569417	-0.754638672	0.507080078	0.675292969	883.94	-31.05336301	-68.96071585	-132.2106087	-63
25152	0	0.369815826	-0.071957588	0.117574692	0.999997139	0.001959801	-0.000656128	0.000535011	9.24539566	-1.798939705	2.939367294	0.09799011	-0.032806421	0.026750585	-0.75	0.511230469	0.671875	883.9	-31.05081995	-68.99289328	-131.9750623	-63
25153	0	0.366760254	-0.067382813	0.117248535	0.999997139	0.002059937	-0.000823021	0.000427246	9.169006348	-1.684570313	2.931213379	0.102996914	-0.041151082	0.021362323	-0.750244141	0.513427734	0.668701172	884.04	-31.03486742	-69.04806118	-131.7420846	-63
25154	0	0.370312691	-0.069897652	0.118085861	0.999999046	0.000579834	-0.000511169	0.000392914	9.257817268	-1.747441292	2.95214653	0.028991703	-0.025558475	0.019645693	-0.750488281	0.517822266	0.674072266	884	-31.13178073	-69.07476786	-131.569474	-63
25155	0	0.369018555	-0.074462891	0.117919922	0.999999046	-0.000354767	-3.34E-05	2.67E-05	9.225463867	-1.861572266	2.947998047	-0.017738343	-0.00166893	0.001335144	-0.748046875	0.519775391	0.670898438	883.98	-31.16823654	-69.07628943	-131.5739199	-63
25156	0	0.365909576	-0.071149826	0.119247437	0.999999046	-0.001223564	-0.000146866	0.000277519	9.14773941	-1.778745651	2.981185913	-0.061178224	-0.007343294	0.013875965	-0.748046875	0.517822266	0.676757813	884.04	-31.38587578	-69.07401596	-131.4924903	-63
25157	0	0.367614746	-0.079711914	0.122558594	0.999999046	-0.00075531	5.82E-05	0.000480652	9.190368652	-1.992797852	3.063964844	-0.037765508	0.002908707	0.024032596	-0.748046875	0.517822266	0.674072266	884	-31.570017	-69.03914415	-131.3888324	-63
25158	0	0.368989944	-0.077993393	0.121994972	0.999999046	0.000886917	5.91E-05	0.00100708	9.224748611	-1.949834824	3.049874306	0.044345869	0.002956391	0.050354019	-0.748046875	0.517822266	0.676757813	884.06	-31.69936551	-68.97223821	-131.1448417	-63
25159	0	0.370666504	-0.069580078	0.121948242	0.999999046	0.000770569	3.15E-05	0.000850677	9.266662598	-1.739501953	3.048706055	0.038528451	0.001573563	0.042533884	-0.745849609	0.521972656	0.673583984	883.98	-31.80486398	-68.91734826	-130.9386278	-63
25160	0	0.370038986	-0.077345848	0.122577667	0.999999046	0.000130653	0.000305176	0.000674248	9.250974655	-1.933646202	3.064441681	0.00653267	0.01525879	0.03371239	-0.745849609	0.521972656	0.670654297	884	-31.89552618	-68.84621603	-130.8271669	-63
25161	0	0.368591309	-0.070556641	0.118225098	0.999999046	0.000701904	0.000271797	0.000473022	9.214782715	-1.763916016	2.955627441	0.035095219	0.013589861	0.023651126	-0.74609375	0.526367188	0.670410156	883.98	-31.8744665	-68.79069227	-130.7638785	-63
25162	0	0.369262695	-0.075012207	0.118225098	0.999999046	0.000946045	0.000110626	0.000423431	9.231567383	-1.875305176	2.955627441	0.047302255	0.005531312	0.021171574	-0.74609375	0.526367188	0.670410156	883.98	-31.83808815	-68.75398256	-130.6885835	-63
25163	0	0.366333008	-0.071472168	0.116027832	0.999999046	0.001327515	3.91E-05	7.63E-06	9.158325195	-1.786804199	2.900695801	0.066375752	0.001955033	0.00038147	-0.74609375	0.528564453	0.664550781	883.94	-31.66479811	-68.74961549	-130.7120202	-63
25164	0	0.364003181	-0.068908691	0.117398262	0.999999046	-0.000105858	5.72E-06	-0.00042057	9.100079536	-1.722717285	2.934956551	-0.005292893	0.000286102	-0.021028519	-0.74609375	0.530761719	0.667236328	883.88	-31.55286858	-68.7744122	-130.8444944	-63
25165	0	0.368408203	-0.07635498	0.12286377	0.999999046	-0.001266479	0.000184059	-0.000339508	9.210205078	-1.908874512	3.071594238	-0.063323993	0.00920296	-0.016975408	-0.748535156	0.528564453	0.670166016	883.94	-31.56662034	-68.77676855	-130.9857707	-63
25166	0	0.363714218	-0.077279091	0.124814987	0.999999046	-0.001146317	0.000455856	-3.81E-05	9.092855453	-1.931977272	3.12037468	-0.057315841	0.022792822	-0.001907349	-0.748535156	0.526367188	0.673339844	883.96	-31.60040323	-68.73422077	-131.0917428	-63
25167	0	0.367248535	-0.071472168	0.124938965	0.999996185	-0.002181053	0.000656128	0.00094986	9.181213379	-1.786804199	3.123474121	-0.109052769	0.03280643	0.047493029	-0.748291016	0.526367188	0.670410156	884.04	-31.96758035	-68.61259083	-130.9651111	-63
25168	0	0.362487793	-0.070068359	0.12286377	0.999993324	-0.003336906	0.000831604	0.000991821	9.062194824	-1.751708984	3.071594238	-0.166845678	0.041580289	0.04959117	-0.748291016	0.524169922	0.670654297	883.88	-32.44634917	-68.47105734	-130.8598386	-63
25169	0	0.362223625	-0.071507454	0.124254227	0.999978065	-0.006328583	0.000584602	0.000701904	9.05559063	-1.787686348	3.106355667	-0.316431294	0.029230317	0.035095454	-0.748046875	0.517822266	0.676757813	883.9	-33.23067665	-68.37087928	-130.7939089	-63
25170	0	0.360450745	-0.077703476	0.130505562	0.999985695	-0.005250931	0.000402451	0.000309944	9.011268616	-1.942586899	3.262639046	-0.262547757	0.020122621	0.01549728	-0.750244141	0.509033203	0.683349609	884.06	-33.82201513	-68.31220141	-130.8051866	-63
25171	0	0.369262695	-0.07232666	0.128845215	0.999990463	-0.00424099	0.000118256	-0.000453949	9.231567383	-1.808166504	3.221130371	-0.212050128	0.005912799	-0.022697518	-0.750244141	0.507080078	0.691894531	883.92	-34.15802993	-68.32946232	-130.9640744	-63
25172	0	0.372106552	-0.075294495	0.130249977	0.999983788	-0.005003929	0.000106812	-0.002610207	9.302663803	-1.882362366	3.256249428	-0.250197786	0.005340605	-0.130511023	-0.75	0.498291016	0.695556641	883.9	-34.06434391	-68.48637475	-131.6766678	-63
25173	0	0.368591309	-0.069458008	0.127624512	0.999991417	-0.002731323	-0.000376701	-0.003002167	9.214782715	-1.736450195	3.190612793	-0.13656654	-0.01883512	-0.150108753	-0.756591797	0.487792969	0.702392578	883.94	-33.68372847	-68.71322657	-132.4202045	-63
25174	0	0.362086296	-0.069950104	0.118602753	0.999994278	-0.001088142	-0.001009941	-0.002863884	9.052157402	-1.748752594	2.965068817	-0.054407214	-0.050497143	-0.143194447	-0.761230469	0.483398438	0.703125	883.94	-33.23815206	-68.99004845	-133.0295296	-63
25175	0	0.343200684	-0.073974609	0.112670898	0.999997139	-0.00069046	-0.001891136	-0.00094223	8.58001709	-1.849365234	2.816772461	-0.034523039	-0.094556886	-0.04711155	-0.763427734	0.477050781	0.712158203	884	-33.36487678	-69.229576	-132.981512	-63
25176	0	0.333789825	-0.073980331	0.104592323	0.99998951	-0.003689766	-0.002422333	9.54E-07	8.344745636	-1.849508286	2.614808083	-0.184488896	-0.121117031	4.77E-05	-0.760986328	0.477050781	0.71484375	883.98	-34.16986905	-69.45938881	-132.5713184	-63
25177	0	0.366760254	-0.085632324	0.116516113	0.999900818	-0.013327599	-0.003379822	-0.002750397	9.169006348	-2.140808105	2.912902832	-0.666401767	-0.168996627	-0.137524343	-0.758544922	0.466308594	0.732666016	883.98	-35.56961616	-69.95629295	-132.6962858	-63
25178	0	0.398723602	-0.134036064	0.120276451	0.999833107	-0.016456604	-0.001340866	-0.007722855	9.968090057	-3.350901604	3.006911278	-0.822875773	-0.067047018	-0.386164117	-0.760253906	0.440185547	0.751953125	884	-35.6766999	-70.59437124	-134.5688719	-63
25179	0	0.387084961	-0.143676758	0.124633789	0.999919891	-0.007655144	-0.000640869	-0.010040283	9.677124023	-3.591918945	3.115844727	-0.382767383	-0.032044311	-0.502027533	-0.768310547	0.405761719	0.76953125	884	-33.92314373	-71.30680265	-137.3444387	-64
25180	0	0.361791611	-0.131019592	0.123039246	0.999949455	-0.000718117	-0.001398087	-0.009842873	9.044790268	-3.275489807	3.07598114	-0.035906433	-0.069905485	-0.492151781	-0.774414063	0.384277344	0.774414063	884	-31.3894568	-72.04321248	-140.0984008	-63
25181	0	0.350708008	-0.102416992	0.127502441	0.999950409	0.006043434	-0.005111694	-0.006027222	8.767700195	-2.560424805	3.187561035	0.302176692	-0.255588933	-0.301366056	-0.776611328	0.375732422	0.778076172	883.94	-29.75143947	-72.88919754	-141.0960852	-63
25182	0	0.333837509	-0.065624237	0.130541801	0.999960899	0.002233505	-0.006467819	-0.005519867	8.345937729	-1.640605927	3.263545036	0.111676701	-0.323395127	-0.275996903	-0.774414063	0.382080078	0.777587891	884.06	-28.8554231	-73.83345508	-141.7613785	-63
25183	0	0.343322754	-0.083129883	0.130187988	0.99994278	-0.005976677	-0.005737305	-0.006744385	8.583068848	-2.07824707	3.254699707	-0.298839531	-0.286870691	-0.337225653	-0.765136719	0.379638672	0.785644531	884	-28.2359716	-74.76628129	-143.101209	-63
25184	0	0.345793724	-0.102745056	0.127430916	0.999892235	-0.012148857	-0.004009247	-0.007070541	8.644843102	-2.568626404	3.185772896	-0.607464489	-0.200469481	-0.353539659	-0.760253906	0.364257813	0.803710938	883.94	-27.74239083	-75.53541897	-145.028984	-64
25185	0	0.334350586	-0.111755371	0.122314453	0.999861717	-0.014755249	-0.002692223	-0.007099152	8.358764648	-2.793884277	3.057861328	-0.737796314	-0.134617308	-0.354973873	-0.759521484	0.342529297	0.816894531	884	-27.14327153	-76.16437093	-147.3604337	-66
25186	0	0.329777718	-0.124107361	0.123031616	0.999855042	-0.015616417	-0.002099037	-0.006434441	8.24444294	-3.102684021	3.075790405	-0.78085855	-0.104956926	-0.321737565	-0.756347656	0.320800781	0.821289063	884	-26.68452373	-76.68952806	-149.6335204	-64
25187	0	0.344360352	-0.13293457	0.132995605	0.999920845	-0.011043549	-0.001608849	-0.005764008	8.609008789	-3.323364258	3.324890137	-0.55219195	-0.080444544	-0.288207957	-0.755859375	0.305664063	0.831054688	883.94	-25.79400162	-77.12007645	-151.7966916	-66
25188	0	0.37469101	-0.134541512	0.138572693	0.999944687	-0.008338928	-0.001915932	-0.005970955	9.367275238	-3.363537788	3.464317322	-0.416953976	-0.095798323	-0.298553162	-0.753173828	0.296630859	0.825927734	884.06	-24.46376395	-77.57898997	-154.0737899	-65
25189	0	0.390930176	-0.163757324	0.140869141	0.999985695	0.002571106	-0.000750542	-0.004482269	9.773254395	-4.093933105	3.521728516	0.128555882	-0.037527255	-0.224114483	-0.74609375	0.298583984	0.816894531	884.04	-22.24714062	-77.82695946	-155.9739096	-66
25190	0	0.449176788	-0.120538712	0.133135796	0.999958038	0.007704735	0.001006126	-0.004804611	11.22941971	-3.013467789	3.32839489	0.385242099	0.05030702	-0.240233902	-0.741943359	0.322265625	0.791992188	884	-18.88521514	-77.87568908	-158.4561307	-65
25191	0	0.492248535	-0.119140625	0.132873535	0.999987602	0.001792908	0.001717567	-0.0041008	12.30621338	-2.978515625	3.321838379	0.089645729	0.085878701	-0.205040763	-0.744384766	0.341552734	0.750732422	883.94	-16.44962521	-77.79284038	-160.704906	-67
25192	0	0.525756836	-0.097961426	0.124633789	0.999964714	0.004803658	0.005565643	-0.003913879	13.1439209	-2.449035645	3.115844727	0.240185654	0.278285383	-0.195696232	-0.750976563	0.352539063	0.707519531	883.9	-13.33719901	-77.25402969	-163.3134553	-69
25193	0	0.406702995	-0.050433159	0.118299484	0.999951363	0.006502151	0.006611824	-0.002970695	10.16757488	-1.260828972	2.957487106	0.325112712	0.330596426	-0.148537122	-0.759521484	0.361083984	0.644775391	884	-10.62407667	-76.54609136	-165.3285557	-64
25194	0	0.307935715	-0.01920414	0.104587555	0.999887466	0.012907982	0.005827904	0.004817009	7.698392868	-0.480103493	2.614688873	0.645423168	0.291406057	0.240859433	-0.765869141	0.3671875	0.584960938	883.88	-10.96442197	-75.74839203	-163.4668392	-69
25195	0	0.338562012	0.018615723	0.073730469	0.999749184	0.016159058	0.007397652	0.013607025	8.464050293	0.465393066	1.843261719	0.808020359	0.369913475	0.680408079	-0.760742188	0.386230469	0.520507813	883.88	-14.25458928	-74.54102979	-158.1656833	-69
25196	0	0.409953117	0.036636353	0.059049606	0.999832153	0.003110886	0.011218071	0.014099121	10.24882793	0.915908813	1.476240158	0.155552949	0.560934806	0.704995339	-0.751464844	0.411621094	0.458251953	883.9	-18.04791993	-72.8192372	-153.8493569	-64
25197	0	0.356323242	0.026672363	0.071655273	0.999752998	-0.015964508	0.012051582	0.009601593	8.908081055	0.666809082	1.791381836	-0.798290911	0.602628569	0.48011905	-0.743652344	0.415283203	0.403564453	884.04	-21.66281739	-71.11250911	-151.9748946	-65
25198	0	0.304092407	-0.023779869	0.08846283	0.999790192	-0.017680168	0.007422447	0.007137299	7.602310181	-0.594496727	2.21157074	-0.884070097	0.371148258	0.356889832	-0.735351563	0.397460938	0.370361328	883.94	-24.90187473	-69.97541189	-150.6986619	-66
25199	0	0.29675293	-0.039489746	0.092773438	0.999960899	-0.004962921	0.004414558	0.005722046	7.418823242	-0.987243652	2.319335938	-0.248149236	0.220730748	0.28610596	-0.72265625	0.383789063	0.345214844	884.06	-26.50109055	-69.20384644	-149.6129246	-64
25200	0	0.293590546	-0.044248581	0.104291916	0.999991417	0.000653267	0.002088547	0.003286362	7.339763641	-1.106214523	2.607297897	0.03266343	0.104427609	0.164318512	-0.705322266	0.374267578	0.313720703	884	-27.04893786	-68.7897553	-148.9589308	-64
25201	0	0.300720215	-0.057556152	0.120788574	0.999985695	-0.00497818	0.001603127	0.000461578	7.518005371	-1.438903809	3.019714355	-0.24891014	0.080156695	0.023079024	-0.687744141	0.358154297	0.282958984	884	-27.5492096	-68.57142123	-149.0465032	-66
25202	0	0.297391891	-0.095612526	0.134897232	0.999979973	-0.006153107	0.001447678	-0.000166893	7.434797287	-2.390313148	3.372430801	-0.307657385	0.072384363	-0.008344706	-0.671875	0.326904297	0.250488281	883.9	-28.04232041	-68.40142403	-149.2914257	-68
25203	0	0.321044922	-0.114196777	0.155578613	0.999991417	-0.003135681	-0.000693321	0.002513885	8.026123047	-2.854919434	3.889465332	-0.156784492	-0.034666158	0.125694623	-0.648681641	0.288818359	0.212646484	884.06	-29.16377271	-68.29892881	-148.4953013	-67
25204	0	0.389966965	-0.118941307	0.170535088	0.999984741	-0.001188278	-0.002749443	0.004508018	9.749174118	-2.973532677	4.26337719	-0.0594142	-0.137472824	0.225402025	-0.629882813	0.239990234	0.181396484	883.94	-30.84779643	-68.27736703	-146.8620991	-65
25205	0	0.477966309	-0.111633301	0.173339844	0.999983788	-0.001350403	-0.002188683	0.004962921	11.94915771	-2.79083252	4.333496094	-0.067520493	-0.109434698	0.248147349	-0.615234375	0.180419922	0.156982422	883.98	-32.56864536	-68.15570888	-145.215799	-63
25206	0	0.46502018	-0.086657524	0.160393715	0.999933243	-0.010169029	-0.001387596	0.005288124	11.62550449	-2.166438103	4.009842873	-0.508462758	-0.069381348	0.264412079	-0.619140625	0.114990234	0.142822266	884.06	-35.2207761	-67.91467975	-143.6572209	-66
25207	0	0.496520996	-0.137756348	0.177001953	0.999937057	-0.009428978	-0.005641937	0.001903534	12.4130249	-3.443908691	4.425048828	-0.47145867	-0.28210271	0.09517867	-0.635253906	0.048095703	0.151855469	884.12	-37.7106861	-68.26982848	-142.1869962	-65
25208	0	0.423304558	-0.097132683	0.123072624	0.999928474	0.011433601	-0.003452301	2.86E-05	10.58261395	-2.42831707	3.076815605	0.571693661	-0.172619155	0.001430545	-0.668212891	-0.007324219	0.172363281	883.98	-37.02909046	-68.54843257	-141.5598829	-63
25209	0	0.326904297	-0.036376953	0.0703125	0.999691963	0.024394989	-0.00398922	0.002010345	8.172607422	-0.909423828	1.7578125	1.219874524	-0.199481436	0.10052758	-0.701904297	-0.04296875	0.194335938	883.94	-35.41095037	-68.75014041	-140.3363725	-66
25210	0	0.415193558	-0.01359272	0.05578804	0.999429703	0.03312397	-0.00584507	0.002727509	10.37983894	-0.339818001	1.394701004	1.65651301	-0.292308992	0.136401325	-0.739257813	-0.0546875	0.225585938	884	-33.27014751	-69.1012293	-138.5910291	-67
25211	0	0.434020996	-0.000793457	0.047058105	0.999620438	0.027379036	-0.002750397	-0.000801086	10.8505249	-0.019836426	1.176452637	1.369124759	-0.137537212	-0.040059382	-0.768066406	-0.053466797	0.261230469	884.04	-30.36499896	-69.39775767	-138.3598054	-62
25212	0	0.317645073	0.012215614	0.038733482	0.999916077	0.012752533	-0.000859261	0.001838684	7.941126823	0.305390358	0.968337059	0.63764437	-0.042964222	0.091936759	-0.796630859	-0.050048828	0.288085938	884.06	-29.51424738	-69.36272011	-137.7181918	-62
25213	0	0.247680664	-0.020690918	0.062072754	0.999979019	-0.002417564	-0.004375458	0.004039764	6.192016602	-0.517272949	1.551818848	-0.120879052	-0.218774394	0.201989611	-0.818115234	-0.044921875	0.311523438	883.94	-31.52640897	-69.54606546	-135.8720396	-60
25214	0	0.250165939	-0.074338913	0.085287094	0.999979973	0.001558304	-0.005571365	0.002298355	6.254148483	-1.858472824	2.132177353	0.077915695	-0.278570067	0.114918497	-0.837402344	-0.043945313	0.335205078	884.04	-32.86583275	-69.93207818	-134.2601368	-61
25215	0	0.264221191	-0.080810547	0.092651367	0.999979973	0.005439758	-0.003085136	0.000652313	6.605529785	-2.020263672	2.31628418	0.271989707	-0.154257837	0.032615877	-0.859130859	-0.038574219	0.370117188	884	-32.93838616	-70.17347523	-133.5258386	-62
25216	0	0.319023132	-0.082535744	0.114779472	0.99995327	-0.008675575	-0.002010345	-0.003613472	7.975578308	-2.063393593	2.869486809	-0.433785441	-0.10051882	-0.180676381	-0.880859375	-0.035400391	0.399414063	883.9	-33.30720366	-70.57698462	-134.1940136	-63
25217	0	0.366638184	-0.12701416	0.143249512	0.999824524	-0.017436028	-0.00038147	-0.006725311	9.16595459	-3.175354004	3.581237793	-0.871852151	-0.019074597	-0.336285148	-0.903808594	-0.047607422	0.418701172	883.94	-33.52606784	-71.0199572	-136.0820238	-68
25218	0	0.412651062	-0.126817703	0.150775909	0.999884605	-0.013971329	-0.000183105	-0.005889893	10.31627655	-3.170442581	3.769397736	-0.698593209	-0.009155624	-0.294505915	-0.924560547	-0.064208984	0.444091797	883.94	-33.51086737	-71.39032701	-137.7941361	-66
25219	0	0.474609375	-0.12878418	0.164550781	0.999933243	-0.010333061	-0.000896454	-0.004905701	11.86523438	-3.219604492	4.113769531	-0.516664397	-0.044823676	-0.245290416	-0.938964844	-0.065673828	0.467773438	883.94	-33.4641066	-71.76472445	-139.0949009	-63
25220	0	0.513269424	-0.121534348	0.159514427	0.999970436	-0.004792213	0.003124237	-0.004977226	12.83173561	-3.038358688	3.98786068	-0.239612968	0.15621335	-0.248863698	-0.953613281	-0.064941406	0.496826172	883.94	-31.98007896	-71.74959359	-141.238604	-62
25221	0	0.52355957	-0.092102051	0.122619629	0.999967575	-0.003691673	0.005634308	-0.004306793	13.08898926	-2.30255127	3.065490723	-0.184585631	0.281718394	-0.215341955	-0.963623047	-0.051513672	0.510498047	883.9	-30.14546154	-71.43055161	-143.6185489	-62
25222	0	0.43093586	-0.031497955	0.100869179	0.999733925	-0.019542694	0.010118484	-0.006784439	10.77339649	-0.787448883	2.521729469	-0.977221092	0.505968953	-0.339251945	-0.973144531	-0.042480469	0.504638672	883.88	-28.75187992	-70.78503024	-147.454392	-63
25223	0	0.298278809	-0.028991699	0.121398926	0.999419212	-0.033615112	0.004933357	-0.00245285	7.456970215	-0.72479248	3.034973145	-1.681080824	0.24671559	-0.122666247	-0.981689453	-0.059814453	0.4921875	883.98	-31.11921043	-70.41790328	-149.0275615	-63
25224	0	0.374974251	-0.106375694	0.126354218	0.999893188	-0.012132645	-0.001046181	0.007965088	9.37435627	-2.659392357	3.158855438	-0.606653643	-0.052310882	0.39826845	-0.98828125	-0.070556641	0.493408203	883.92	-34.82909467	-70.00354956	-146.5684419	-64
25225	0	0.413269043	-0.059020996	0.094848633	0.999783516	0.016040802	0.003911018	0.012622833	10.33172607	-1.475524902	2.37121582	0.80209785	0.195564999	0.631187107	-0.996826172	-0.032958984	0.502197266	884	-35.45700468	-68.78822436	-143.9402679	-65
25226	0	0.305958748	0.011962891	0.087807655	0.99993515	0.002680779	0.006417274	0.008915901	7.648968697	0.299072266	2.195191383	0.134041782	0.320870562	0.44580456	-1.010742188	0.019775391	0.498779297	884.04	-36.14113163	-67.58095801	-142.8730522	-66
25227	0	0.246887207	-0.042175293	0.094909668	0.999860764	-0.015189171	0.003700256	0.005699158	6.172180176	-1.054382324	2.372741699	-0.759493593	0.185021356	0.284971037	-1.030273438	0.044189453	0.491943359	883.94	-38.49833542	-66.83516949	-142.2043488	-67
25228	0	0.266400337	-0.088650703	0.101183891	0.999982834	-0.001157761	0.002959251	0.004820824	6.66000843	-2.216267586	2.529597282	-0.057888353	0.147963392	0.241042523	-1.049560547	0.058105469	0.491943359	884	-39.12557058	-66.21161446	-141.6676958	-68
25229	0	0.274780273	-0.082763672	0.120117188	0.99996376	0.007618904	0.003379822	0.001125336	6.869506836	-2.069091797	3.002929688	0.380949697	0.168993081	0.056267448	-1.076416016	0.084960938	0.494140625	883.88	-37.92834657	-65.81437025	-142.0244371	-66
25230	0	0.31374073	-0.08018589	0.125180244	0.999982834	0.003184319	0.004622459	-0.001310349	7.843518257	-2.004647255	3.129506111	0.159216809	0.23112425	-0.065517788	-1.10546875	0.112060547	0.490478516	884	-36.58117032	-65.46956297	-143.1032461	-64
25231	0	0.319030762	-0.094116211	0.139648438	0.999958992	-0.007068634	0.005345345	0.001407623	7.975769043	-2.352905273	3.491210938	-0.353436445	0.267270814	0.070382109	-1.13671875	0.137207031	0.490234375	883.94	-36.86863925	-64.86732743	-143.6785931	-64
25232	0	0.367706299	-0.126789093	0.153538704	0.999962807	-0.007758141	0.002742767	0.001869202	9.192657471	-3.169727325	3.838467598	-0.387911632	0.137139994	0.093461192	-1.161132813	0.1640625	0.486572266	883.94	-37.70641231	-64.47194939	-143.7345776	-65
25233	0	0.422302246	-0.12310791	0.160400391	0.999995232	-0.002502441	-0.000311852	-0.001296997	10.55755615	-3.077697754	4.010009766	-0.125122238	-0.015592596	-0.06484994	-1.176757813	0.199462891	0.492919922	883.94	-37.78323368	-64.57607503	-143.964903	-64
25234	0	0.428069115	-0.09463501	0.142018318	0.999973297	-0.006251335	-0.002129555	-0.003112793	10.70172787	-2.365875244	3.550457954	-0.312569534	-0.106478683	-0.155641031	-1.175292969	0.221191406	0.491210938	884.06	-38.21092348	-64.9748222	-144.2817957	-63
25235	0	0.529296875	-0.158447266	0.195129395	0.999921799	-0.003394127	-0.009059906	-0.007881165	13.23242188	-3.961181641	4.878234863	-0.169710749	-0.453007057	-0.394068455	-1.168212891	0.220947266	0.482177734	884	-38.44598885	-66.33641522	-144.4498977	-63
25236	0	0.51871109	-0.107995033	0.145705223	0.99977684	0.017196655	-0.001858711	-0.012066841	12.96777725	-2.699875832	3.642630577	0.859896517	-0.092942453	-0.603386792	-1.148681641	0.202880859	0.482666016	884.04	-34.15374929	-67.31617965	-146.9764053	-63
25237	0	0.340454102	-0.023864746	0.088500977	0.999837875	0.016434669	0.000255585	-0.007225037	8.511352539	-0.596618652	2.212524414	0.821777631	0.012779923	-0.361271243	-1.144775391	0.176513672	0.458984375	883.94	-30.52597654	-67.72594558	-148.8692547	-63
25238	0	0.409164429	-0.001958847	0.089346886	0.999756813	0.021150589	-0.003227234	0.005058289	10.22911072	-0.048971176	2.233672142	1.057614661	-0.161374696	0.252934807	-1.137207031	0.167236328	0.442382813	884.04	-29.75867285	-67.75032417	-147.0862392	-64
25239	0	0.368469238	-0.010742188	0.053771973	0.999885559	0.015095711	-0.000335693	0.00038147	9.211730957	-0.268554688	1.344299316	0.75481424	-0.016785306	0.019074212	-1.128417969	0.182373047	0.443359375	884	-28.14386036	-67.76296201	-146.9653763	-63
25240	0	0.320585251	-0.014644623	0.060919762	0.999959946	0.008602142	-0.001942635	-0.001324654	8.014631271	-0.36611557	1.522994041	0.430112818	-0.097133017	-0.066233559	-1.126220703	0.180175781	0.446289063	884.06	-27.05476156	-68.03372749	-147.0797072	-64
25241	0	0.252624512	-0.033508301	0.054077148	0.999995232	-0.001529694	-0.001894951	0.001422882	6.315612793	-0.83770752	1.351928711	-0.076484782	-0.094747669	0.071144198	-1.124267578	0.182373047	0.463134766	884.12	-27.81340448	-68.15613727	-146.4533791	-66
25242	0	0.24649334	-0.070580482	0.076975822	0.999975204	-0.000390053	-0.004912376	0.00485611	6.162333488	-1.764512062	1.924395561	-0.019502795	-0.24562078	0.242807418	-1.124755859	0.186767578	0.477050781	883.94	-29.74054116	-68.38642296	-144.43031	-66
25243	0	0.258789063	-0.08404541	0.095092773	0.999961853	0.001034737	-0.005550385	0.006557465	6.469726563	-2.101135254	2.377319336	0.051737477	-0.27752269	0.327877322	-1.116699219	0.206298828	0.511962891	884	-32.06661881	-68.55011136	-141.805762	-61
25244	0	0.279852867	-0.105258942	0.105015755	0.999969482	0.000347137	-0.005524635	0.00541687	6.996321678	-2.631473541	2.625393867	0.017357046	-0.276234527	0.270846214	-1.111328125	0.234619141	0.534912109	883.92	-34.22887103	-68.74309993	-139.4446673	-60
25245	0	0.336853027	-0.120666504	0.120300293	0.999980927	-0.002055168	-0.004520416	0.003490448	8.421325684	-3.016662598	3.007507324	-0.102759039	-0.226022201	0.174523472	-1.105957031	0.263183594	0.563476563	883.94	-36.07116913	-68.93707073	-137.7244525	-60
25246	0	0.452703476	-0.132555962	0.146493912	0.999958992	-0.008069992	-0.003707886	-0.00148201	11.3175869	-3.31389904	3.662347794	-0.403505055	-0.185396792	-0.074101496	-1.098144531	0.284667969	0.58984375	883.9	-37.29870819	-69.37901403	-137.402477	-60
25247	0	0.515991211	-0.131713867	0.172790527	0.99994278	-0.009268761	-0.000240326	-0.005226135	12.89978027	-3.29284668	4.319763184	-0.463446784	-0.012016523	-0.261311696	-1.091796875	0.291259766	0.611572266	883.94	-37.11809958	-69.7618903	-138.7305316	-62
25248	0	0.551917076	-0.109978676	0.203914642	0.999947548	-0.003436089	0.004981995	-0.008209229	13.7979269	-2.749466896	5.097866058	-0.171807407	0.24910405	-0.410468542	-1.087402344	0.297607422	0.610839844	883.98	-34.5168693	-69.84699886	-141.9220698	-63
25249	0	0.582885742	-0.05847168	0.127197266	0.999810219	-0.010009766	0.011860847	-0.011734009	14.57214355	-1.461791992	3.179931641	-0.500519864	0.593079797	-0.586737463	-1.094238281	0.299804688	0.591064453	884	-30.62141884	-69.4257718	-147.2975208	-63
25250	0	0.350592613	-0.013789177	0.135886192	0.99944973	-0.029502869	0.013111115	-0.007574081	8.764815331	-0.344729424	3.397154808	-1.475413933	0.655675936	-0.378773515	-1.111083984	0.276123047	0.551269531	883.94	-30.04996863	-68.56764962	-151.5281457	-64
25251	0	0.329284668	-0.059753418	0.138793945	0.99974823	-0.021994591	0.00170517	0.003864288	8.232116699	-1.493835449	3.469848633	-1.099821497	0.085265613	0.193230573	-1.114013672	0.252197266	0.516601563	883.96	-33.23655726	-68.16894678	-150.8125031	-64
25252	0	0.422320366	-0.100292206	0.096560478	0.999914169	0.012472153	0.001963615	0.003234863	10.55800915	-2.507305145	2.414011955	0.623625293	0.098183551	0.161747744	-1.104736328	0.260253906	0.498291016	883.92	-32.25584645	-67.78087022	-150.331893	-65
25253	0	0.319641113	-0.006469727	0.07611084	0.99973774	0.022384644	0.003663063	0.003093719	7.991027832	-0.161743164	1.902770996	1.119329959	0.183169153	0.154699488	-1.098144531	0.288085938	0.450195313	883.96	-29.87561128	-67.24265676	-150.1336288	-66
25254	0	0.238647461	0.008666992	0.084594727	0.999970436	-0.006446838	0.003818512	0.001594543	5.966186523	0.216674805	2.114868164	-0.322345072	0.190927466	0.079727953	-1.090820313	0.300537109	0.408935547	883.98	-30.43780222	-66.77792572	-150.3249811	-64
25255	0	0.210449219	-0.081237793	0.09375	0.999896049	-0.014160156	0.002671242	0.000476837	5.261230469	-2.030944824	2.34375	-0.708032344	0.133566716	0.023842684	-1.08984375	0.28515625	0.387451172	883.96	-31.77550275	-66.49148333	-150.6365476	-62
25256	0	0.234808922	-0.125999451	0.112421036	0.999995232	0.002018929	0.001371384	0.001302719	5.870223045	-3.149986267	2.810525894	0.100946555	0.068569271	0.065136039	-1.091308594	0.270019531	0.377441406	884	-31.62509753	-66.28036739	-150.551606	-60
25257	0	0.27355957	-0.110107422	0.121154785	0.999978065	0.00617218	0.000588417	0.002166748	6.838989258	-2.752685547	3.028869629	0.308611228	0.029421064	0.108338181	-1.093505859	0.269775391	0.36328125	883.98	-31.30134499	-66.09227769	-150.1364135	-60
25258	0	0.318122864	-0.101941109	0.136399269	0.999982834	-0.00449276	0.001282692	0.003533363	7.953071594	-2.548527718	3.409981728	-0.22463927	0.064134965	0.176669178	-1.095703125	0.274169922	0.345947266	884.06	-32.39784442	-65.75148266	-149.5032076	-60
25259	0	0.340637207	-0.124084473	0.161865234	0.999904633	-0.012854576	-0.000995636	0.004909515	8.515930176	-3.102111816	4.046630859	-0.642749196	-0.049783379	0.245483557	-1.098144531	0.280761719	0.33984375	883.94	-35.03211211	-65.52980158	-148.2323205	-63
25260	0	0.390918732	-0.142951012	0.185658455	0.999967575	-0.004613876	-0.004279137	0.004935265	9.772968292	-3.573775291	4.641461372	-0.230696276	-0.213959114	0.24676586	-1.103027344	0.285400391	0.33984375	883.98	-37.19049241	-65.58614948	-146.4464091	-63
25261	0	0.456848145	-0.125854492	0.16015625	0.999956131	0.004891396	-0.00629425	0.004852295	11.42120361	-3.146362305	4.00390625	0.244573328	-0.314717093	0.242618268	-1.101318359	0.302734375	0.335449219	884.06	-38.57082964	-65.80807559	-144.3206844	-64
25262	0	0.517077446	-0.114078522	0.184906006	0.999887466	0.011244774	-0.009726524	-0.001819611	12.92693615	-2.851963043	4.622650146	0.562259719	-0.486344405	-0.090983932	-1.097167969	0.317626953	0.319824219	884	-38.47627958	-66.80497091	-143.0191612	-61
25263	0	0.576904297	-0.08795166	0.150634766	0.999682426	0.02299118	-0.004839897	-0.009021759	14.42260742	-2.198791504	3.765869141	1.149680413	-0.242020412	-0.451135586	-1.099121094	0.311035156	0.317626953	884.06	-34.62282778	-67.86446343	-144.3418048	-58
25264	0	0.38067627	-0.026123047	0.065734863	0.999433517	0.033554077	-0.000170708	-0.00227356	9.516906738	-0.653076172	1.643371582	1.678020286	-0.008536995	-0.113699419	-1.107177734	0.298095703	0.276367188	883.94	-30.23712426	-68.02227791	-144.9286974	-57
25265	0	0.417017937	0.008864403	0.071232796	0.999642372	0.025993347	-0.003743172	0.004659653	10.42544842	0.221610069	1.780819893	1.2998215	-0.187180782	0.233010267	-1.104492188	0.300048828	0.250488281	884	-28.90977701	-68.13813136	-143.1524723	-57
25266	0	0.373731613	0.007609367	0.042551994	0.999905586	0.013626099	-3.24E-05	0.001555443	9.343290329	0.190234184	1.063799858	0.681326291	-0.001621297	0.077774579	-1.099609375	0.306152344	0.227050781	883.98	-27.71157094	-68.06828987	-142.7634481	-57
25267	0	0.283935547	-0.028503418	0.055969238	0.999999046	-0.000579834	2.77E-05	-0.00069046	7.098388672	-0.712585449	1.399230957	-0.028991703	0.001382828	-0.034523015	-1.101318359	0.293212891	0.222412109	884.04	-27.56886501	-68.1155649	-142.9916621	-57
25268	0	0.231441498	-0.044001579	0.060751915	0.999952316	-0.008275986	-0.000103951	0.005034447	5.786037445	-1.100039482	1.518797874	-0.413805759	-0.005197606	0.251726273	-1.100830078	0.280029297	0.229248047	884.04	-29.7547296	-67.8633298	-141.660794	-57
25269	0	0.223022461	-0.089294434	0.079772949	0.999911308	-0.010322571	-0.001891136	0.00812149	5.575561523	-2.23236084	1.99432373	-0.516143689	-0.094559584	0.406086443	-1.103515625	0.280273438	0.246337891	884.04	-33.12943835	-67.57572395	-139.2970695	-58
25270	0	0.246266365	-0.073519707	0.104911804	0.999972343	-0.00170517	-0.002866745	0.006592751	6.156659126	-1.837992668	2.622795105	-0.08525926	-0.143338554	0.329640527	-1.104492188	0.291259766	0.271240234	884	-35.25966182	-67.43469343	-137.2074595	-67
25271	0	0.301758766	-0.091758728	0.117526054	0.999987602	-0.00120163	-0.004090309	0.002360344	7.543969154	-2.293968201	2.93815136	-0.06008172	-0.204516267	0.118017664	-1.107666016	0.302490234	0.298828125	883.9	-36.57460777	-67.6663086	-135.937522	-64
25272	0	0.407240868	-0.10853672	0.148542404	0.999965668	0.006322861	-0.004385948	-0.002944946	10.18102169	-2.713418007	3.713560104	0.316146613	-0.21929989	-0.147248981	-1.110839844	0.309570313	0.329833984	884	-35.89275218	-68.28079335	-135.8945791	-57
25273	0	0.500488281	-0.050598145	0.130249023	0.999967575	0.004750252	0.00062561	-0.006465912	12.51220703	-1.264953613	3.256225586	0.237515152	0.031280855	-0.323299083	-1.113769531	0.311767578	0.349609375	884.06	-33.67750516	-68.65676718	-137.6925139	-58
25274	0	0.483667374	-0.045666695	0.150610924	0.999828339	-0.016453743	0.004052162	-0.007369995	12.09168434	-1.141667366	3.765273094	-0.822733976	0.202619641	-0.368520731	-1.120849609	0.307861328	0.367431641	883.96	-33.06570739	-68.74677385	-140.3724133	-57
25275	0	0.569702148	-0.096374512	0.160705566	0.999583244	-0.026641846	0.005822182	-0.009414673	14.24255371	-2.409362793	4.01763916	-1.332277143	0.291149483	-0.470798967	-1.127197266	0.284179688	0.389404297	884	-32.81863348	-68.78768122	-143.9117234	-58
25276	0	0.52539444	-0.083598137	0.08745575	0.999400139	-0.030604362	0.013191223	-0.009392738	13.13486099	-2.089953423	2.186393738	-1.530524042	0.659693015	-0.469730806	-1.135498047	0.249755859	0.406982422	883.96	-31.93931624	-68.10419626	-148.6266431	-58
25277	0	0.316650391	-0.059387207	0.142944336	0.999201775	-0.038970947	0.008572578	-0.001693726	7.916259766	-1.484680176	3.573608398	-1.949065754	0.428742954	-0.084708809	-1.145019531	0.206542969	0.394042969	883.94	-34.65145708	-67.4049604	-150.5224795	-58
25278	0	0.351329803	-0.085417747	0.12899971	0.999625206	-0.025478363	0.000255585	0.009922981	8.783245087	-2.135443687	3.224992752	-1.274076952	0.012780829	0.496210911	-1.142333984	0.189208984	0.415283203	884.04	-39.63296659	-66.71013945	-148.2860793	-60
25279	0	0.357055664	-0.099121094	0.095458984	0.999950409	-0.000552177	-5.34E-05	0.009941101	8.926391602	-2.478027344	2.386474609	-0.027609328	-0.002670332	0.497063267	-1.133544922	0.199707031	0.427978516	884	-41.6461707	-65.98912974	-146.1599712	-62
25280	0	0.312610626	-0.044178963	0.101727486	0.999970436	0.00597477	0.002725601	0.003800392	7.815265656	-1.104474068	2.543187141	0.298741346	0.136281367	0.190021431	-1.125488281	0.223632813	0.434082031	884	-41.19221085	-65.48457911	-145.9059718	-60
25281	0	0.237121582	-0.053161621	0.093688965	0.999880791	-0.014881134	0.003731728	-0.001502991	5.928039551	-1.329040527	2.342224121	-0.744086174	0.186593771	-0.075152513	-1.125244141	0.221435547	0.431640625	884.04	-41.95932865	-65.29635213	-146.9353457	-58
25282	0	0.215269089	-0.121085167	0.120972633	0.999889374	-0.014830589	0.00064373	0.00058651	5.381727219	-3.027129173	3.024315834	-0.741556744	0.032187692	0.029326564	-1.131347656	0.195556641	0.439697266	884	-43.62126866	-65.2103044	-146.9767452	-57
25283	0	0.263793945	-0.160888672	0.13470459	0.999993324	0.003482819	0.000454903	0.00082016	6.594848633	-4.022216797	3.367614746	0.174141308	0.022745182	0.041008085	-1.133300781	0.176025391	0.464111328	883.94	-43.2597518	-65.11732622	-146.9368361	-57
25284	0	0.29556179	-0.13492012	0.126941681	0.999972343	0.006987572	0.002277374	-0.000542641	7.389044762	-3.373003006	3.173542023	0.349381748	0.113869744	-0.02713228	-1.140136719	0.169921875	0.476318359	884.06	-41.95043337	-64.97421523	-147.4991071	-58
25285	0	0.322509766	-0.147705078	0.145141602	0.999990463	0.002324104	0.002082825	0.003017426	8.062744141	-3.692626953	3.628540039	0.11620558	0.104141562	0.150871751	-1.152099609	0.163818359	0.500244141	884	-41.86350827	-64.56961735	-147.302355	-62
25286	0	0.398673058	-0.15149498	0.151105881	0.999985695	0.003437042	0.000249863	0.003866196	9.966826439	-3.787374496	3.777647018	0.17185288	0.012493189	0.193310648	-1.159423828	0.162109375	0.520751953	884	-42.09123402	-64.25481735	-146.6149892	-60
25287	0	0.462036133	-0.137634277	0.144836426	0.999990463	0.001935005	-0.001342773	0.003608704	11.55090332	-3.440856934	3.620910645	0.096750559	-0.06713888	0.180435739	-1.171875	0.165039063	0.558105469	883.9	-42.68989551	-64.09356514	-145.705218	-57
25288	0	0.495963097	-0.152258873	0.174543381	0.99997139	0.001308441	-0.00697422	0.002334595	12.39907742	-3.806471825	4.363584518	0.065422667	-0.348714257	0.116730822	-1.184082031	0.163574219	0.604248047	883.9	-44.05865264	-64.49526354	-144.0213709	-56
25289	0	0.531494141	-0.133361816	0.147766113	0.999818802	0.018677711	-0.00353241	-0.000968933	13.28735352	-3.33404541	3.694152832	0.933941971	-0.176631149	-0.048449581	-1.192382813	0.164306641	0.67578125	884	-42.30629971	-64.87329147	-143.5943403	-55
25290	0	0.39545536	-0.074697495	0.092545509	0.999528885	0.03057766	-0.001343727	0.001976013	9.88638401	-1.867437363	2.313637733	1.529122786	-0.067196894	0.098816156	-1.208251953	0.189208984	0.722900391	883.94	-39.35450761	-64.85116607	-142.9874812	-57
25291	0	0.427429199	0.01171875	0.085754395	0.999044418	0.042717934	-0.005565643	0.007381439	10.68572998	0.29296875	2.143859863	2.136577296	-0.278370841	0.369189567	-1.221923828	0.268554688	0.773925781	883.94	-36.68058807	-64.84802315	-140.5340085	-62
25292	0	0.379684448	-0.001473427	0.052682877	0.999898911	0.013681412	-0.003668785	0.000944138	9.492111206	-0.03683567	1.317071915	0.684093566	-0.183445417	0.047208464	-1.226806641	0.364990234	0.826171875	883.94	-35.79710482	-65.14416939	-139.7690721	-64
25293	0	0.282409668	-0.039489746	0.067382813	0.999903679	0.011737823	-0.007300377	0.00056839	7.060241699	-0.987243652	1.684570313	0.586909897	-0.365030489	0.028420401	-1.225830078	0.432861328	0.874511719	884	-35.60210849	-65.80846854	-138.4930529	-65
25294	0	0.232654572	-0.056591034	0.069547653	0.999905586	0.011837006	-0.006509781	-0.002280235	5.816364288	-1.414775848	1.73869133	0.591868797	-0.325499227	-0.114015331	-1.220214844	0.498291016	0.928466797	884	-34.6999927	-66.59181749	-137.9839038	-62
25295	0	0.211975098	-0.063537598	0.052185059	0.999968529	0.005199432	-0.004424095	-0.003807068	5.299377441	-1.588439941	1.304626465	0.259974266	-0.22120701	-0.190355332	-1.210205078	0.5703125	0.970458984	884	-33.89588668	-67.27925062	-138.1938837	-57
25296	0	0.262135506	-0.085209846	0.08916378	0.999976158	0.000794411	-0.003736496	-0.005702972	6.553387642	-2.130246162	2.229094505	0.039720847	-0.186826266	-0.28515086	-1.19921875	0.62890625	1.004882813	884.04	-33.02161593	-68.01821166	-139.0221627	-55
25297	0	0.308776855	-0.109802246	0.109741211	0.99996376	-0.004118919	-0.003547668	-0.006546021	7.719421387	-2.745056152	2.743530273	-0.205948454	-0.177385563	-0.327304975	-1.183105469	0.674316406	1.034423828	883.98	-32.42585082	-68.78512481	-140.1515053	-57
25298	0	0.37438488	-0.128149986	0.136112213	0.999982834	-0.002755165	-0.004826546	-0.001444817	9.359622002	-3.203749657	3.402805328	-0.137759012	-0.241328612	-0.072241226	-1.164306641	0.719726563	1.055175781	884	-33.1355966	-69.35675828	-139.7147577	-66
25299	0	0.478088379	-0.115783691	0.153564453	0.999987602	-0.002914429	-0.003172874	0.002120972	11.95220947	-2.894592285	3.839111328	-0.145721996	-0.158644332	0.106048992	-1.129638672	0.779541016	1.065429688	884	-34.52502929	-69.53959997	-138.5743787	-63
25300	0	0.512948036	-0.11438942	0.171075821	0.999964714	-0.008292198	7.63E-05	0.000201225	12.8237009	-2.859735489	4.276895523	-0.414614664	0.003814741	0.010061379	-1.096923828	0.830810547	1.0625	883.88	-35.48933853	-69.53437792	-138.5459646	-56
25301	0	0.585510254	-0.123291016	0.160583496	0.999940872	-0.009325981	0.00415802	-0.00353241	14.63775635	-3.082275391	4.014587402	-0.46630813	0.207905046	-0.17662392	-1.081542969	0.862792969	1.050537109	883.98	-34.91907668	-69.3939262	-140.2815438	-53
25302	0	0.497227669	-0.074808121	0.119915962	0.999814987	-0.013817787	0.011181831	-0.007313728	12.43069172	-1.870203018	2.997899055	-0.690931908	0.559126	-0.365708938	-1.081787109	0.875732422	1.026611328	884.04	-32.78348085	-68.81329886	-144.2437929	-55
25303	0	0.28112793	-0.030822754	0.144104004	0.999802589	-0.018608093	0.006733894	-0.0013237	7.028198242	-0.770568848	3.602600098	-0.930465671	0.336716795	-0.066189337	-1.106201172	0.861083984	0.9921875	883.9	-33.48568655	-68.2649244	-145.7682966	-57
25304	0	0.369075775	-0.027021408	0.129533768	0.999974251	-0.002102852	0.000789642	0.006756783	9.226894379	-0.675535202	3.238344193	-0.105143482	0.03948245	0.337841981	-1.096923828	0.869384766	0.979736328	884	-35.14502629	-67.76951535	-144.2330349	-61
25305	0	0.419189453	-0.028808594	0.092895508	0.999975204	0.002217293	0.006278992	0.00194931	10.47973633	-0.720214844	2.322387695	0.110865529	0.313952104	0.097466297	-1.079345703	0.912109375	0.938232422	883.94	-34.30515263	-67.07009589	-144.8558264	-57
25306	0	0.324276924	-0.006885529	0.097370148	0.999892235	-0.010557175	0.009868622	-0.001441956	8.106923103	-0.172138214	2.434253693	-0.527877292	0.493448439	-0.072100313	-1.081542969	0.931396484	0.877197266	883.94	-33.68499322	-66.24553606	-146.8317239	-63
25307	0	0.241453171	-0.056890488	0.092226028	0.999724388	-0.021909714	0.008181572	0.001904488	6.036329269	-1.422262192	2.305650711	-1.095586241	0.409116147	0.095233121	-1.094238281	0.9140625	0.850830078	883.96	-35.36684363	-65.36929563	-147.7285426	-62
25308	0	0.226031303	-0.105602264	0.099553108	0.999958038	-0.006229401	0.00290966	0.006032944	5.650782585	-2.64005661	2.488827705	-0.311474375	0.145485046	0.301651393	-1.083984375	0.8984375	0.840087891	883.9	-36.81803903	-64.71041248	-146.9122147	-57
25309	0	0.250915527	-0.090820313	0.101379395	0.999951363	0.007232666	7.34E-05	0.006607056	6.272888184	-2.270507813	2.534484863	0.361639085	0.003671705	0.330358067	-1.063232422	0.919189453	0.803222656	883.94	-37.20826705	-64.26473871	-145.559411	-55
25310	0	0.270875931	-0.110484123	0.10898304	0.999979973	0.001810074	-0.001218796	0.005803108	6.77189827	-2.762103081	2.724575996	0.090504272	-0.060940179	0.29015727	-1.033203125	0.941894531	0.762695313	883.96	-38.22890621	-63.98399022	-144.1908196	-57
25311	0	0.305175781	-0.148498535	0.125793457	0.999995232	0.000232697	-0.002585411	0.00107193	7.629394531	-3.712463379	3.144836426	0.011634842	-0.129270724	0.053596567	-1.002929688	0.949462891	0.740478516	883.82	-38.75215311	-64.15294769	-143.5762504	-67
25312	0	0.341696739	-0.154593468	0.150038719	0.99998188	-0.00159359	-0.005578995	0.001507759	8.54241848	-3.864836693	3.750967979	-0.079679966	-0.278951408	0.075388406	-0.974365234	0.944091797	0.719482422	883.96	-40.0342998	-64.54852217	-142.3556095	-61
25313	0	0.421081543	-0.163818359	0.165039063	0.999967575	-0.00303936	-0.00661087	0.003376007	10.52703857	-4.095458984	4.125976563	-0.151969632	-0.330547063	0.168802164	-0.938720703	0.936279297	0.701171875	884.1	-42.03223578	-64.8757525	-140.5315313	-57
25314	0	0.451576233	-0.130884171	0.162321091	0.999923706	-0.008505821	-0.00887394	0.000688553	11.28940582	-3.272104263	4.058027267	-0.425301806	-0.443708185	0.034428513	-0.902832031	0.919677734	0.692138672	884.06	-44.6211896	-65.57147744	-138.7535814	-60
25315	0	0.581420898	-0.179016113	0.206115723	0.999892235	0.002937317	-0.010485649	-0.009807587	14.53552246	-4.475402832	5.152893066	0.146871102	-0.524301224	-0.490396888	-0.875732422	0.885986328	0.687744141	884.04	-44.35161721	-67.22590258	-138.6814558	-63
25316	0	0.466988564	-0.090701103	0.147863388	0.999596596	0.025967598	-0.004039764	-0.010691643	11.67471409	-2.26752758	3.696584702	1.298554149	-0.202015328	-0.534653882	-0.873779297	0.853027344	0.650390625	883.98	-39.87568386	-68.40122151	-140.3062933	-87
25317	0	0.417724609	-0.018554688	0.096374512	0.998952866	0.045372963	-0.005653381	-0.001384735	10.44311523	-0.463867188	2.409362793	2.269440116	-0.282767745	-0.069260925	-0.87890625	0.841796875	0.577880859	883.9	-35.32612782	-69.02420413	-139.6173002	-68
25318	0	0.441253662	0.015108109	0.061830521	0.998877525	0.047218323	-0.003147125	-0.00153923	11.03134155	0.377702713	1.545763016	2.361799163	-0.157415116	-0.076990302	-0.873291016	0.858154297	0.482421875	884	-29.98766811	-69.44079363	-139.5457924	-62
25319	0	0.295776367	-0.011474609	0.037536621	0.999898911	0.014111519	0.000907898	-0.001434326	7.39440918	-0.286865234	0.938415527	0.705599701	0.045396426	-0.071718723	-0.874023438	0.853271484	0.406005859	884	-27.80443537	-69.44919365	-140.1524387	-60
25320	0	0.2224617	-0.076069832	0.062336922	0.999999046	-0.000199318	-0.000219345	0.00101757	5.561542511	-1.901745796	1.558423042	-0.009965898	-0.010967257	0.050878534	-0.875244141	0.829345703	0.399414063	884	-28.09121608	-69.43569857	-139.8749492	-60
25321	0	0.203735352	-0.06829834	0.067749023	0.999978065	-0.00170517	-0.001818657	0.006111145	5.093383789	-1.707458496	1.693725586	-0.085259103	-0.090933506	0.305559469	-0.874267578	0.805419922	0.401367188	883.92	-30.14435339	-69.29492583	-137.8967085	-65
25322	0	0.234528542	-0.092555046	0.095819473	0.99995327	-0.003433228	-0.00204277	0.008601189	5.863213539	-2.313876152	2.395486832	-0.17166395	-0.10214005	0.43006588	-0.859863281	0.791992188	0.41015625	883.94	-33.03463212	-68.99396743	-135.2318665	-85
25323	0	0.305419922	-0.102294922	0.124816895	0.999967575	-0.005156517	-0.001342773	0.005962372	7.635498047	-2.557373047	3.120422363	-0.257828599	-0.067139387	0.298121768	-0.845703125	0.778564453	0.424804688	884.04	-35.28793132	-68.75159981	-133.4561675	-65
25324	0	0.356496811	-0.11011219	0.131052017	0.999990463	-0.002925873	0.000741005	0.003147125	8.912420273	-2.752804756	3.27630043	-0.146294104	0.037050365	0.157356761	-0.843017578	0.760986328	0.446044922	883.94	-36.22274211	-68.48430699	-132.8194336	-62
25325	0	0.449279785	-0.108032227	0.150756836	0.999995232	-0.00195694	0.001126289	0.001995087	11.23199463	-2.700805664	3.768920898	-0.097847133	0.056314554	0.099754484	-0.842285156	0.737304688	0.462158203	884	-36.69631766	-68.25635503	-132.5583277	-69
25326	0	0.506530762	-0.088684082	0.14074707	0.999973297	-0.004912376	0.005379677	0.000522614	12.66326904	-2.217102051	3.518676758	-0.245621004	0.268986233	0.026130909	-0.855712891	0.722412109	0.47265625	884	-36.44672341	-67.73865503	-133.4405006	-74
25327	0	0.488708496	-0.087158203	0.152587891	0.999915123	-0.010601044	0.007390022	-0.001312256	12.2177124	-2.178955078	3.814697266	-0.530067091	0.369511505	-0.065614638	-0.874023438	0.708007813	0.483154297	884.04	-36.13718394	-67.1588803	-135.0951965	-69
25328	0	0.595525742	-0.095684052	0.139611244	0.999879837	-0.012020111	0.008126259	-0.005397797	14.88814354	-2.392101288	3.490281105	-0.601029562	0.406329173	-0.269900613	-0.901367188	0.687255859	0.500732422	884	-35.02959822	-66.77844008	-137.7990908	-72
25329	0	0.400085449	-0.030517578	0.093383789	0.999599457	-0.023543358	0.01385498	-0.007266998	10.00213623	-0.762939453	2.334594727	-1.17732472	0.692841315	-0.363398322	-0.937744141	0.664306641	0.495849609	884.04	-34.06889769	-65.96232329	-141.7921384	-82
25330	0	0.254538536	-0.032850266	0.135250092	0.999355316	-0.035309792	0.005825996	0.002627373	6.363463402	-0.821256638	3.381252289	-1.76586868	0.29136237	0.131396846	-0.976074219	0.626708984	0.512451172	883.88	-37.75135657	-65.26345828	-142.1934318	-67
25331	0	0.397033691	-0.049926758	0.113220215	0.999685287	-0.023459435	0.00384903	0.007976532	9.925842285	-1.248168945	2.830505371	-1.173094685	0.192471651	0.398868407	-0.987548828	0.612060547	0.542724609	883.96	-41.30190395	-64.36296144	-141.2419144	-59
25332	0	0.374640465	-0.073636055	0.078213692	0.999757767	-0.019287109	0.009766579	0.003911018	9.36601162	-1.840901375	1.955342293	-0.964433064	0.488368226	0.195566653	-0.999267578	0.610351563	0.552001953	883.98	-42.63044515	-63.25568787	-142.2221038	-58
25333	0	0.270263672	-0.036437988	0.088745117	0.999499321	-0.030059814	0.009812355	-0.001087189	6.756591797	-0.910949707	2.21862793	-1.503241599	0.490699645	-0.05436851	-1.014892578	0.595458984	0.551269531	883.96	-44.34553225	-62.55158374	-144.1585226	-61
25334	0	0.212119102	-0.101926804	0.099108696	0.999247551	-0.038427353	0.004823685	-0.001660347	5.302977562	-2.54817009	2.4777174	-1.921849173	0.24124468	-0.083038155	-1.0390625	0.557128906	0.561523438	884	-47.69420839	-62.32868024	-145.344831	-85
25335	0	0.236999512	-0.16998291	0.115356445	0.999973297	-0.007235527	0.000598907	-0.00063324	5.924987793	-4.249572754	2.883911133	-0.361779554	0.029945639	-0.031662268	-1.047363281	0.520507813	0.590332031	884	-48.29621301	-62.35673441	-145.6020324	-60
25336	0	0.264079094	-0.136620522	0.108210564	0.99993515	0.01102066	0.000712395	-0.002586365	6.601977348	-3.415513039	2.705264091	0.551044836	0.0356205	-0.12932101	-1.054443359	0.525146484	0.58203125	884	-46.49767402	-62.53740539	-146.2057261	-55
25337	0	0.290466309	-0.13885498	0.132568359	0.999996185	-0.00140667	-2.67E-05	-0.002300262	7.261657715	-3.471374512	3.314208984	-0.070333566	-0.001335146	-0.115013262	-1.056884766	0.533935547	0.564208984	883.94	-46.27566307	-62.74558768	-146.6340819	-60
25338	0	0.303617477	-0.189873695	0.145688057	0.999996185	-0.001194954	-0.001568794	0.001694679	7.590436935	-4.746842384	3.642201424	-0.059747763	-0.078439801	0.084734058	-1.061523438	0.531982422	0.573242188	884	-46.89229141	-62.73928349	-146.0935115	-60
25339	0	0.368225098	-0.201538086	0.160705566	0.999969482	0.005772591	-0.004196167	0.002998352	9.205627441	-5.038452148	4.01763916	0.288632414	-0.209810445	0.1499191	-1.052490234	0.540283203	0.569335938	883.9	-47.34053148	-62.82283328	-144.845592	-55
25340	0	0.421336174	-0.169784546	0.150702477	0.999964714	0.006012917	-0.005002975	0.002914429	10.53340435	-4.244613647	3.767561913	0.30064932	-0.250151678	0.145723128	-1.039306641	0.559326172	0.564208984	883.96	-47.88996763	-62.97025256	-143.4537027	-56
25341	0	0.513977051	-0.191650391	0.184448242	0.999937057	0.004681587	-0.010124207	-0.000656128	12.84942627	-4.791259766	4.611206055	0.234084232	-0.506220861	-0.032807079	-1.025634766	0.573974609	0.553710938	883.94	-48.95653103	-63.80408083	-141.6594855	-57
25342	0	0.608236313	-0.158872604	0.151080132	0.999629974	0.02613163	-0.004200935	-0.006193161	15.20590782	-3.971815109	3.777003288	1.306742449	-0.210072643	-0.309696196	-1.01171875	0.575683594	0.549804688	884.04	-45.6664848	-64.66307456	-141.9872628	-54
25343	0	0.372741699	-0.039489746	0.084960938	0.999631882	0.027024269	-0.000370026	-0.002029419	9.31854248	-0.987243652	2.124023438	1.351378936	-0.018503548	-0.101483374	-1.018310547	0.588623047	0.498046875	884.04	-42.24061948	-64.86915587	-142.3514966	-54
25344	0	0.380256653	-0.012352943	0.090952873	0.999490738	0.030366898	-0.006733894	0.007064819	9.506416321	-0.308823586	2.273821831	1.518602459	-0.336751836	0.353300892	-1.016357422	0.614501953	0.456054688	883.96	-41.10524669	-64.92560603	-139.7640571	-54
25345	0	0.410644531	-0.01763916	0.045532227	0.999817848	0.018814087	-0.003077507	-0.00069046	10.26611328	-0.440979004	1.138305664	0.940761412	-0.153884685	-0.034525105	-1.002929688	0.644287109	0.41015625	884	-39.2675751	-65.27061518	-139.4093099	-52
25346	0	0.310059547	-0.031046867	0.042327881	0.999893188	0.013197899	-0.0014925	-0.005965233	7.751488686	-0.776171684	1.058197021	0.659918261	-0.074627652	-0.298272182	-1.007080078	0.644042969	0.382080078	883.94	-36.75912835	-65.8539843	-140.4997581	-54
25347	0	0.276428223	-0.032714844	0.052124023	0.999933243	0.008862495	-0.003681183	-0.006404877	6.910705566	-0.817871094	1.303100586	0.443134603	-0.184063227	-0.320250941	-1.012939453	0.631103516	0.352050781	883.96	-34.90715432	-66.65490768	-141.4114515	-54
25348	0	0.253136635	-0.055508614	0.060013771	0.999937057	0.007326126	-0.007912636	-0.002773285	6.328415871	-1.38771534	1.500344276	0.366313874	-0.395639965	-0.138667111	-1.014404297	0.613525391	0.342285156	884.04	-34.629691	-67.61053445	-140.8034507	-55
25349	0	0.259887695	-0.077453613	0.07623291	0.999897957	0.009559631	-0.010561943	1.53E-05	6.497192383	-1.936340332	1.905822754	0.477997736	-0.528115016	0.000762965	-1.009277344	0.604736328	0.336914063	883.94	-35.22137581	-68.63094204	-138.9892028	-52
25350	0	0.30070591	-0.098538399	0.092615128	0.999908447	0.007107735	-0.011492729	0.000694275	7.517647743	-2.463459969	2.315378189	0.355397579	-0.574653995	0.034714804	-1.002197266	0.602294922	0.345458984	883.96	-36.56730677	-69.67922523	-136.681459	-53
25351	0	0.33581543	-0.125061035	0.125976563	0.999966621	-6.48E-05	-0.00813961	-0.000205994	8.395385742	-3.126525879	3.149414063	-0.003242529	-0.406985012	-0.010299796	-0.997314453	0.593505859	0.354248047	883.96	-38.05024625	-70.46047264	-135.1159953	-56
25352	0	0.344543457	-0.132629395	0.148864746	0.999982834	-0.003177643	-0.004519463	-0.001712799	8.613586426	-3.315734863	3.721618652	-0.158883027	-0.225974389	-0.085640431	-0.9921875	0.575927734	0.364013672	884	-38.86645626	-71.00895631	-134.6415751	-60
25353	0	0.433532715	-0.134765625	0.172668457	0.999912262	0.012761116	-0.00327301	0.000289917	10.83831787	-3.369140625	4.316711426	0.638074268	-0.163655249	0.014496269	-0.989501953	0.562744141	0.373535156	883.96	-38.13402038	-71.29877386	-133.8768276	-57
25354	0	0.432758331	-0.068779945	0.157848358	0.999928474	-0.001022339	0.000827789	-0.011834145	10.81895828	-1.719498634	3.946208954	-0.051118151	0.041390443	-0.591721212	-0.993408203	0.552001953	0.36328125	884	-34.74788424	-72.04344697	-137.5677737	-58
25355	0	0.493591309	-0.097595215	0.183044434	0.999640465	-0.018062592	0.003666878	-0.019443512	12.33978271	-2.439880371	4.57611084	-0.90323765	0.183365827	-0.972291933	-1.016845703	0.498291016	0.365966797	883.9	-30.09675047	-72.89621789	-144.6158609	-59
25356	0	0.577766418	-0.145363808	0.148500443	0.999779701	-0.014702797	0.006259918	-0.01360321	14.44416046	-3.634095192	3.712511063	-0.735193818	0.313018889	-0.680210457	-1.037597656	0.43359375	0.372558594	883.88	-26.14805677	-73.0068837	-150.5119005	-57
25357	0	0.503601074	-0.058227539	0.085571289	0.999691963	-0.016033173	0.014370918	-0.012329102	12.59002686	-1.455688477	2.139282227	-0.801740902	0.718619656	-0.616518343	-1.053710938	0.379638672	0.357910156	883.96	-21.70582522	-72.08246592	-157.0983608	-56
25358	0	0.274366379	-0.001977921	0.129472733	0.999753952	-0.020676613	0.006836891	0.004128456	6.85915947	-0.049448013	3.236818314	-1.033915317	0.341872557	0.206439712	-1.072021484	0.323486328	0.340576172	883.96	-24.41109519	-71.18335149	-156.7525121	-54
25359	0	0.367614746	-0.00012207	0.089050293	0.9998312	-0.007598877	0.003190041	0.016395569	9.190368652	-0.003051758	2.226257324	-0.379965174	0.159510982	0.819824457	-1.066894531	0.3125	0.338378906	883.9	-29.51556875	-70.01465771	-152.2725944	-53
25360	0	0.395187378	-0.019956589	0.050969124	0.999887466	0.002279282	0.00694561	0.013049126	9.879684448	-0.498914719	1.274228096	0.113968331	0.347293452	0.652480614	-1.058105469	0.325195313	0.333984375	884	-31.54614649	-68.58409126	-149.828437	-52
25361	0	0.359558105	0.024841309	0.069091797	0.999902725	-0.007052422	0.011306763	0.003955841	8.988952637	0.621032715	1.727294922	-0.352632436	0.565356343	0.197798424	-1.055664063	0.331542969	0.319335938	883.94	-31.58378348	-67.26207744	-150.6603758	-50
25362	0	0.275310516	-0.026062012	0.081586838	0.999574661	-0.027827263	0.008383751	0.002065659	6.882762909	-0.651550293	2.039670944	-1.391560076	0.419246877	0.103297547	-1.066162109	0.307861328	0.3046875	883.9	-33.97293556	-66.3464343	-151.5314311	-49
25363	0	0.302734375	-0.107788086	0.088195801	0.999945641	-0.007564545	0.002923012	0.006515503	7.568359375	-2.694702148	2.20489502	-0.378234056	0.146153225	0.325781023	-1.072021484	0.279785156	0.310058594	883.98	-35.74286996	-65.6648202	-150.5485991	-47
25364	0	0.320140839	-0.086369514	0.083189964	0.999872208	0.014797211	0.000962257	0.005933762	8.003520966	-2.159237862	2.079749107	0.739891994	0.048114915	0.296700695	-1.074462891	0.277587891	0.318847656	884	-35.08168381	-65.20185082	-149.4167232	-46
25365	0	0.318481445	-0.063964844	0.106689453	0.999956131	0.008530617	-0.002017975	0.003227234	7.962036133	-1.599121094	2.667236328	0.426537041	-0.10090021	0.161364041	-1.079345703	0.284423828	0.324462891	883.9	-35.00966017	-65.20030831	-148.422083	-47
25366	0	0.311912537	-0.076724052	0.128651619	0.999984741	-0.002760887	-0.002257347	0.004045486	7.797813416	-1.918101311	3.216290474	-0.138045026	-0.112867902	0.202275303	-1.08203125	0.280273438	0.344726563	883.94	-36.42947157	-65.16059003	-147.2088109	-48
25367	0	0.298400879	-0.126708984	0.154174805	0.999977112	7.72E-05	-0.003726959	0.005496979	7.460021973	-3.167724609	3.854370117	0.003862409	-0.186349332	0.274850959	-1.089355469	0.278564453	0.373779297	883.94	-38.02754057	-65.13750024	-145.4410508	-49
25368	0	0.322319031	-0.121501923	0.158076286	0.999910355	0.011068344	-0.004443169	0.005986214	8.057975769	-3.037548065	3.951907158	0.553433633	-0.222165026	0.299319569	-1.090332031	0.285400391	0.404541016	884.04	-38.56913509	-65.12747564	-143.4493296	-51
25369	0	0.326477051	-0.114990234	0.157348633	0.999972343	0.004714966	-0.004446983	0.003540039	8.16192627	-2.874755859	3.93371582	0.235750434	-0.222351188	0.177003562	-1.09375	0.303222656	0.434570313	883.94	-39.37328868	-65.28193905	-141.96913	-54
25370	0	0.336663246	-0.134168625	0.159767151	0.999993324	0.000850677	-0.003166199	0.000994682	8.416581154	-3.354215622	3.994178772	0.042533958	-0.158310246	0.049734213	-1.097412109	0.316650391	0.476318359	884	-39.94184227	-65.49930003	-141.2361451	-54
25371	0	0.343994141	-0.126159668	0.149169922	0.999994278	-0.001223564	-0.002983093	-0.000202179	8.599853516	-3.153991699	3.729248047	-0.061178314	-0.149154923	-0.010108965	-1.098388672	0.323486328	0.518310547	883.94	-40.49978515	-65.78411795	-140.7770069	-55
25372	0	0.354670525	-0.098395348	0.134608269	0.999967575	-0.006422043	-0.004446983	0.001676559	8.866763115	-2.45988369	3.365206718	-0.321105558	-0.222351532	0.083828864	-1.099609375	0.334716797	0.557373047	884.06	-42.27986432	-66.04796541	-139.6320917	-51
25373	0	0.516540527	-0.159240723	0.154418945	0.999925613	0.001336098	-0.011505127	-0.003627777	12.91351318	-3.981018066	3.860473633	0.066806526	-0.575270472	-0.181393309	-1.089111328	0.341308594	0.607421875	884.04	-43.47021357	-67.3061644	-138.1682937	-47
25374	0	0.633833885	-0.104280472	0.091141701	0.999604225	0.026140213	-0.004024506	-0.009506226	15.84584713	-2.607011795	2.278542519	1.307182774	-0.201251781	-0.475373874	-1.078857422	0.358642578	0.647949219	883.88	-39.18233374	-68.38644367	-139.5621553	-45
25375	0	0.447509766	-0.000732422	0.039001465	0.999729156	0.022469521	-0.000881195	-0.005867004	11.18774414	-0.018310547	0.975036621	1.12357718	-0.04406372	-0.293376631	-1.082519531	0.389160156	0.645751953	883.9	-35.35952686	-68.8942534	-140.8989474	-45
25376	0	0.405496597	0.05059433	0.056868553	0.999855995	0.014336586	-0.004959106	0.007595062	10.13741493	1.264858246	1.421713829	0.71686369	-0.247967218	0.379771332	-1.083984375	0.424072266	0.643066406	884	-36.35987634	-68.87119975	-138.0634426	-46
25377	0	0.374267578	0.017150879	0.046813965	0.999914169	0.010315895	-0.006763458	0.004314423	9.356689453	0.428771973	1.170349121	0.515809436	-0.338182539	0.215727271	-1.065185547	0.471435547	0.65234375	884	-37.37818245	-69.22629281	-135.6988539	-43
25378	0	0.351748466	0.004751205	0.034673691	0.999923706	0.010584831	-0.005896568	-0.002319336	8.793711662	0.118780136	0.86684227	0.529254987	-0.294835894	-0.115969739	-1.057128906	0.497558594	0.661132813	883.94	-36.63890499	-69.96200987	-135.1832742	-43
25379	0	0.363586426	0.003662109	0.018371582	0.999948502	0.008683205	-0.003715515	-0.003593445	9.089660645	0.091552734	0.459289551	0.434167622	-0.185778919	-0.179675299	-1.053222656	0.512695313	0.668212891	884	-35.3605968	-70.5892466	-135.4741787	-42
25380	0	0.384326935	-0.004195213	0.01628685	0.999982834	0.004039764	-0.003083229	-0.002590179	9.60817337	-0.104880333	0.407171249	0.201989316	-0.154162289	-0.129509674	-1.053710938	0.523681641	0.670166016	883.94	-34.72781468	-71.09411302	-135.6432037	-43
25381	0	0.383300781	-0.015991211	0.043212891	0.999983788	0.002727509	-0.004660606	-0.001499176	9.582519531	-0.399780273	1.080322266	0.136376141	-0.233031539	-0.074959194	-1.046875	0.527832031	0.675048828	884	-34.84434115	-71.67883813	-135.1815959	-43
25382	0	0.389546394	-0.018258095	0.040174484	0.999982834	0.003230095	-0.004769325	-0.000784874	9.738659859	-0.45645237	1.004362106	0.161505655	-0.238467606	-0.039243919	-1.042724609	0.534179688	0.682861328	884	-35.15280283	-72.22916702	-134.4604216	-43
25383	0	0.376281738	-0.023132324	0.039733887	0.999991417	0.000957489	-0.003649712	-0.001045227	9.407043457	-0.578308105	0.993347168	0.047874573	-0.182486047	-0.052261486	-1.035888672	0.538330078	0.690673828	883.94	-35.44118841	-72.6931318	-134.0344639	-43
25384	0	0.390221596	-0.030150414	0.051714897	0.999991417	-0.001196861	-0.00333786	-0.001919746	9.755539894	-0.753760338	1.292872429	-0.059843226	-0.166893458	-0.09598758	-1.031494141	0.540527344	0.701660156	884	-35.66165321	-73.18728738	-133.9365672	-43
25385	0	0.379577637	-0.044128418	0.059143066	0.99998951	-0.000846863	-0.003878593	-0.002250671	9.489440918	-1.103210449	1.47857666	-0.042343287	-0.193930345	-0.11253396	-1.029541016	0.536376953	0.710693359	883.94	-35.87007104	-73.75426874	-133.8125498	-43
25386	0	0.394001961	-0.04380703	0.061688423	0.999992371	0.00165844	-0.003153801	-0.001298904	9.850049019	-1.095175743	1.542210579	0.082922181	-0.157690426	-0.064945377	-1.024902344	0.531738281	0.719238281	883.94	-35.93855522	-74.19034332	-133.5410457	-43
25387	0	0.385681152	-0.037231445	0.06439209	0.999998093	-0.00032711	-0.001155853	-0.001537323	9.642028809	-0.930786133	1.609802246	-0.016355525	-0.0577927	-0.076866199	-1.020263672	0.533935547	0.716064453	883.96	-35.68166316	-74.45708399	-133.8380757	-43
25388	0	0.395021439	-0.031603813	0.063396454	0.999991417	-0.003912926	0.000759125	-0.000907898	9.875535965	-0.790095329	1.584911346	-0.195646831	0.037956344	-0.045395024	-1.017578125	0.525146484	0.722167969	883.94	-35.57788324	-74.50357622	-134.4053416	-43
25389	0	0.385375977	-0.033447266	0.060119629	0.99995327	-0.009422302	0.002026558	0.000537872	9.634399414	-0.836181641	1.502990723	-0.471122429	0.10132947	0.026894033	-1.01953125	0.514160156	0.720458984	884.04	-36.28066775	-74.33628674	-134.7893299	-43
25390	0	0.37564373	-0.06292057	0.065781593	0.999973297	-0.006985664	0.001433372	0.001002312	9.391093254	-1.573014259	1.644539833	-0.349286237	0.071669244	0.050116018	-1.021484375	0.503417969	0.729980469	884.06	-36.99595293	-74.19214307	-134.8745528	-43
25391	0	0.383361816	-0.071899414	0.065856934	0.999999046	-0.000408173	0.000466347	0.001140594	9.58404541	-1.797485352	1.64642334	-0.020408636	0.023317344	0.05702974	-1.021240234	0.496826172	0.733154297	883.96	-37.23654515	-74.12604061	-134.6754572	-43
25392	0	0.399805069	-0.066402435	0.073437691	0.999997139	-0.00127697	0.001495361	0.000179291	9.995126724	-1.660060883	1.835942268	-0.063848537	0.074768115	0.008964544	-1.021240234	0.499023438	0.727294922	883.94	-37.02046602	-74.03165444	-135.0478006	-43
25393	0	0.431335449	-0.079589844	0.089111328	0.999975204	-0.006251335	0.00220108	-0.002304077	10.78338623	-1.989746094	2.227783203	-0.312569322	0.110054919	-0.115204803	-1.020751953	0.490234375	0.716796875	884	-36.41246222	-74.04053712	-136.4158576	-43
25394	0	0.406852722	-0.07856369	0.112195015	0.999939919	-0.008153915	0.005771637	-0.004449844	10.17131805	-1.964092255	2.804875374	-0.407703897	0.288587601	-0.222496653	-1.029052734	0.470947266	0.713134766	884.04	-34.50621697	-73.84783374	-139.3637556	-44
25395	0	0.321044922	-0.06048584	0.151245117	0.999955177	-0.007564545	0.004765511	-0.002819061	8.026123047	-1.512145996	3.78112793	-0.378232774	0.238279018	-0.140955129	-1.044433594	0.449462891	0.70703125	883.96	-33.33327283	-73.61983583	-141.4859875	-45
25396	0	0.310936928	-0.067066193	0.140443802	0.999986649	0.004428864	0.001830101	0.001831055	7.773423195	-1.676654816	3.511095047	0.221444148	0.091505452	0.091553136	-1.051025391	0.438964844	0.702636719	883.96	-32.95062117	-73.36977433	-141.3640111	-45
25397	0	0.357299805	-0.061645508	0.092224121	0.999956131	0.007824898	0.002883911	0.004154205	8.932495117	-1.541137695	2.305603027	0.391250549	0.144197643	0.207713271	-1.051269531	0.449707031	0.693359375	884	-32.70530622	-72.87299659	-140.6891534	-45
25398	0	0.393013	-0.049738884	0.078165054	0.999960899	-0.00345993	0.007614136	0.002528191	9.825325012	-1.243472099	1.954126358	-0.172998722	0.380711631	0.126411139	-1.051757813	0.471435547	0.677246094	883.96	-32.31969157	-72.02077617	-141.4986429	-45
25399	0	0.381652832	-0.068481445	0.088500977	0.999783516	-0.018882751	0.008698463	4.96E-05	9.541320801	-1.712036133	2.212524414	-0.9442056	0.434954509	0.002479732	-1.062988281	0.465087891	0.664306641	883.88	-32.81503468	-71.21612932	-143.2407032	-45
25400	0	0.353850365	-0.102851868	0.100624084	0.999858856	-0.015615463	0.005726814	0.002150536	8.846259117	-2.571296692	2.515602112	-0.780809768	0.286354138	0.10753182	-1.073486328	0.437255859	0.666992188	883.88	-34.09132287	-70.56910991	-143.7808515	-45
25401	0	0.346557617	-0.11541748	0.110351563	0.999990463	0.001267433	0.001628876	0.003684998	8.66394043	-2.885437012	2.758789063	0.063371847	0.081444029	0.184250426	-1.077880859	0.428710938	0.66796875	883.94	-34.57438647	-70.21067696	-143.1191453	-45
25402	0	0.36413765	-0.11322403	0.121100426	0.999891281	0.01431942	-4.10E-05	0.00327301	9.103441238	-2.830600739	3.027510643	0.715996742	-0.002050474	0.163656398	-1.073730469	0.443603516	0.657958984	883.94	-33.75078492	-70.03541115	-142.255174	-45
25403	0	0.376525879	-0.09173584	0.127319336	0.99987793	0.015217781	0.000473022	0.003509521	9.413146973	-2.293395996	3.182983398	0.760920015	0.023652085	0.175483215	-1.070068359	0.473876953	0.641113281	884.04	-32.80042783	-69.79906292	-141.4104162	-45
25404	0	0.368737221	-0.083213806	0.127962112	0.999966621	0.00673008	0.000350952	0.0045681	9.218430519	-2.080345154	3.199052811	0.3365077	0.017547801	0.228407522	-1.063720703	0.497558594	0.627441406	884.06	-33.11283841	-69.50860976	-140.2521725	-46
25405	0	0.371337891	-0.09753418	0.131347656	0.999961853	0.006264687	-0.000736237	0.006034851	9.283447266	-2.438354492	3.283691406	0.313238308	-0.036812296	0.301746386	-1.057128906	0.512451172	0.617431641	884.02	-34.01179282	-69.22292396	-138.5249526	-45
25406	0	0.375644684	-0.100495338	0.13130188	0.999855042	0.015627861	-0.001828194	0.00647831	9.391117096	-2.512383461	3.282546997	0.781430764	-0.091414095	0.323931115	-1.046386719	0.538330078	0.611816406	884.04	-34.10745711	-69.00546198	-136.5082034	-45
25407	0	0.354797363	-0.08581543	0.123474121	0.999715805	0.022835732	-0.001525879	0.006664276	8.869934082	-2.145385742	3.086853027	1.141894732	-0.076301172	0.33324537	-1.038574219	0.577148438	0.596923828	883.84	-33.35651487	-68.75023333	-134.5103785	-45
25408	0	0.363888741	-0.072257042	0.116944313	0.99971962	0.022878647	-0.000473976	0.006010056	9.097218513	-1.806426048	2.923607826	1.144039094	-0.023701018	0.30053082	-1.025878906	0.620117188	0.567138672	883.96	-32.25955434	-68.44562205	-132.8728043	-44
25409	0	0.353210449	-0.055358887	0.113952637	0.999895096	0.01378727	0.000869751	0.00422287	8.83026123	-1.383972168	2.848815918	0.689387458	0.043489061	0.211150838	-1.019775391	0.654541016	0.535400391	883.88	-31.55215562	-68.12806561	-131.931135	-43
25410	0	0.367040634	-0.06486702	0.1208992	0.99998188	0.004867554	0.000816345	0.003174782	9.176015854	-1.621675491	3.022480011	0.243379083	0.040817495	0.158740001	-1.013427734	0.673828125	0.524902344	883.94	-31.6139506	-67.88046813	-131.2604968	-43
25411	0	0.366088867	-0.082763672	0.12310791	0.999978065	0.005817413	0.001008034	0.002761841	9.15222168	-2.069091797	3.077697754	0.290872726	0.050402045	0.138093019	-1.009033203	0.682373047	0.518310547	883.94	-31.43483527	-67.63854468	-130.7343906	-43
25412	0	0.372009277	-0.07232666	0.125244141	0.999962807	0.007634163	0.000457764	0.003955841	9.300231934	-1.808166504	3.131103516	0.381712862	0.022888466	0.197794497	-1.004638672	0.697509766	0.502685547	883.9	-31.40448543	-67.37925143	-129.8213788	-43
25413	0	0.366882324	-0.062988281	0.119140625	0.999985695	0.003341675	0.001404762	0.003684998	9.172058105	-1.574707031	2.978515625	0.167084484	0.070238426	0.184250698	-1.000488281	0.712402344	0.489746094	883.94	-31.65432502	-67.04327815	-129.135001	-43
25414	0	0.370422363	-0.076904297	0.129516602	0.999993324	0.000804901	0.000873566	0.003181458	9.260559082	-1.922607422	3.237915039	0.040245134	0.043678368	0.159073182	-0.99609375	0.720947266	0.483154297	883.94	-32.14137094	-66.78744943	-128.5055962	-43
25415	0	0.369262695	-0.069702148	0.125488281	0.999995232	0.001342773	0.001290321	0.002368927	9.231567383	-1.742553711	3.137207031	0.067138773	0.064516165	0.118446529	-0.991455078	0.729492188	0.4765625	883.94	-32.31406269	-66.53954948	-128.1500756	-43
25416	0	0.359386444	-0.070269585	0.128494263	0.999996185	-0.001274109	0.001366615	0.001735687	8.984661102	-1.756739616	3.212356567	-0.063705513	0.068330839	0.086784457	-0.989501953	0.733642578	0.476074219	884	-32.62846318	-66.32247362	-127.96679	-43
25417	0	0.355102539	-0.080200195	0.132263184	0.999998093	-0.000891685	0.001289368	0.000717163	8.877563477	-2.005004883	3.30657959	-0.044584296	0.064468416	0.035858172	-0.987060547	0.735839844	0.472900391	884	-32.68308373	-66.17502354	-128.0191054	-43
25418	0	0.356890678	-0.086018562	0.134922981	0.999999046	0.000179291	0.000587463	-0.000923157	8.92226696	-2.150464058	3.373074532	0.00896454	0.029373175	-0.046157846	-0.987060547	0.733642578	0.473144531	883.96	-32.35475774	-66.1956723	-128.3565879	-43
25419	0	0.354125977	-0.085754395	0.137207031	0.999995232	0.00031662	0.000203133	-0.002929688	8.853149414	-2.143859863	3.430175781	0.015831017	0.010156646	-0.146484588	-0.991455078	0.731689453	0.468017578	883.82	-31.61794127	-66.37336285	-129.1220052	-43
25420	0	0.356617928	-0.090229988	0.141314507	0.999991417	0.000149727	-0.000188828	-0.004116058	8.915448189	-2.255749702	3.532862663	0.007486365	-0.009441402	-0.205803501	-0.993652344	0.725097656	0.471435547	884	-30.67271288	-66.65416421	-130.134507	-43
25421	0	0.359741211	-0.092346191	0.145874023	0.999990463	0.001759529	-0.000591278	-0.003746033	8.993530273	-2.308654785	3.646850586	0.087976712	-0.02956399	-0.187302181	-1.002441406	0.714599609	0.47265625	883.94	-29.65946591	-66.94524668	-131.0197394	-43
25422	0	0.366707802	-0.082685471	0.144393921	0.999994278	0.001849174	-0.000145912	-0.002785683	9.167695045	-2.067136765	3.609848022	0.092458898	-0.007295622	-0.139284394	-1.007080078	0.710205078	0.470458984	883.9	-28.78346933	-67.1313021	-131.7427769	-43
25423	0	0.358093262	-0.084594727	0.145568848	0.999999046	-0.000782013	0.000195503	-0.001010895	8.952331543	-2.114868164	3.639221191	-0.039100658	0.009775164	-0.050544753	-1.009277344	0.708251953	0.470703125	883.96	-28.58069565	-67.18148279	-132.0614934	-43
25424	0	0.363467216	-0.090255737	0.147704124	0.999999046	-0.000813484	0.000417709	0.00025177	9.086680412	-2.256393433	3.692603111	-0.040674216	0.020885471	0.012588503	-1.011230469	0.703857422	0.468505859	884	-28.65514175	-67.13849826	-132.0839448	-43
25425	0	0.356567383	-0.089294434	0.143432617	0.999999046	-0.000495911	0.000401497	0.000377655	8.91418457	-2.23236084	3.58581543	-0.024795534	0.020074846	0.018882753	-1.009033203	0.703857422	0.468261719	884	-28.72654142	-67.08897189	-132.0699915	-43
25426	0	0.358645439	-0.087387085	0.141740799	0.999999046	-0.00084877	0.000431061	0.000529289	8.966135979	-2.184677124	3.543519974	-0.042438515	0.021553044	0.026464468	-1.011230469	0.703857422	0.468505859	884.02	-28.87139243	-67.02704225	-132.0203742	-43
25427	0	0.360168457	-0.088806152	0.143493652	0.999999046	-2.67E-05	0.000153542	0.000701904	9.004211426	-2.220153809	3.587341309	-0.001335144	0.007677079	0.035095218	-1.011474609	0.706054688	0.470947266	883.94	-28.99976187	-66.98224998	-131.8864177	-43
25428	0	0.363430977	-0.08035183	0.139388084	0.999998093	0.001325607	-0.000191689	0.001377106	9.085774422	-2.008795738	3.48470211	0.066280406	-0.009584433	0.068855328	-1.009033203	0.706054688	0.470947266	883.96	-29.1772002	-66.93366306	-131.5311701	-43
25429	0	0.361694336	-0.075744629	0.13848877	0.999998093	-0.000304222	-0.000343323	0.001644135	9.042358398	-1.893615723	3.462219238	-0.015211113	-0.017166146	0.082206766	-1.009277344	0.710449219	0.467773438	883.94	-29.62242351	-66.88396813	-131.0872126	-43
25430	0	0.3576231	-0.079752922	0.139658928	0.999999046	0.00053978	-0.000463486	0.000964165	8.940577507	-1.993823051	3.491473198	0.02698899	-0.023174291	0.048208248	-1.004638672	0.712402344	0.467285156	884	-29.82731751	-66.88321916	-130.7992805	-43
25431	0	0.356201172	-0.067382813	0.139587402	0.999997139	0.001708984	-0.000929832	-0.000358582	8.905029297	-1.684570313	3.489685059	0.085449274	-0.046491653	-0.017929089	-1.002441406	0.714599609	0.467041016	883.96	-29.6507039	-67.00365071	-130.7802475	-43
25432	0	0.359140396	-0.077941895	0.138941765	0.999997139	0.0010252	-0.000583649	-0.001777649	8.978509903	-1.948547363	3.473544121	0.051260033	-0.029182456	-0.088882514	-1.007080078	0.714599609	0.472900391	884	-29.16967958	-67.16884547	-131.1770173	-43
25433	0	0.360107422	-0.080932617	0.140319824	0.999997139	0.000133514	-0.000716209	-0.001842499	9.002685547	-2.02331543	3.507995605	0.006675725	-0.035810494	-0.092124999	-1.009277344	0.712646484	0.467529297	884.06	-28.78718473	-67.34903927	-131.5768419	-43
25434	0	0.36309433	-0.077056885	0.13841629	0.999997139	-0.000846863	0.000394821	-0.00202179	9.077358246	-1.926422119	3.460407257	-0.042343175	0.019741075	-0.101089561	-1.011474609	0.708251953	0.470947266	883.94	-28.32219501	-67.42553388	-132.1876442	-43
25435	0	0.354064941	-0.083496094	0.139648438	0.999987602	-0.004146576	0.000401497	-0.002429962	8.851623535	-2.087402344	3.491210938	-0.2073296	0.020074922	-0.121498579	-1.015869141	0.699707031	0.471923828	884	-28.13254422	-67.52121084	-132.9093257	-43
25436	0	0.358110428	-0.089977264	0.144618034	0.999995232	-0.002207756	-0.000238419	-0.001794815	8.952760696	-2.24943161	3.615450859	-0.110387952	-0.011920945	-0.089740875	-1.022705078	0.693359375	0.478515625	884.06	-27.95704131	-67.64530469	-133.3753501	-43
25437	0	0.357299805	-0.080810547	0.143737793	0.999999046	-0.000160217	-0.000540733	-0.000999451	8.932495117	-2.020263672	3.593444824	-0.008010866	-0.027036673	-0.049972545	-1.022705078	0.689208984	0.481689453	883.96	-27.77988797	-67.75588497	-133.5893111	-43
25438	0	0.363841057	-0.080129623	0.143256187	0.999999046	0.000144958	-0.000347137	-0.000401497	9.096026421	-2.003240585	3.581404686	0.007247925	-0.017356873	-0.020074845	-1.024902344	0.687011719	0.479003906	884	-27.69004777	-67.81391364	-133.6710152	-43
25439	0	0.360412598	-0.076599121	0.140014648	0.999999046	-0.000328064	-4.86E-05	-0.00069046	9.010314941	-1.914978027	3.500366211	-0.0164032	-0.00243187	-0.034523014	-1.024902344	0.684814453	0.484863281	883.96	-27.5433128	-67.85622965	-133.872788	-43
25440	0	0.357115746	-0.078150749	0.138523102	0.999999046	-0.000395775	-8.77E-05	-0.00099659	8.927893639	-1.95376873	3.463077545	-0.019788746	-0.004386903	-0.049829493	-1.022460938	0.684814453	0.481933594	884	-27.33264231	-67.91773007	-134.1514282	-43
25441	0	0.359802246	-0.077270508	0.139587402	0.999999046	-0.000495911	-0.000597954	-0.000724792	8.995056152	-1.931762695	3.489685059	-0.024795537	-0.029897695	-0.036239631	-1.026855469	0.680664063	0.485351563	884.06	-27.26723308	-68.015951	-134.2860728	-43
25442	0	0.357275963	-0.077687263	0.14115715	0.999998093	-0.000975609	-0.000660896	-0.000762939	8.931899071	-1.942181587	3.528928757	-0.048780457	-0.033044826	-0.038146985	-1.026855469	0.678466797	0.485595703	884	-27.25505277	-68.12171915	-134.422359	-43
25443	0	0.359008789	-0.082641602	0.143737793	0.999999046	-0.000190735	-0.000529289	-0.000545502	8.975219727	-2.066040039	3.593444824	-0.009536744	-0.026464465	-0.027275088	-1.026855469	0.676269531	0.494140625	884	-27.19118311	-68.20161508	-134.5177534	-43
25444	0	0.360162735	-0.079984665	0.142775536	0.999999046	0.000538826	-0.000267029	-2.00E-05	9.004068375	-1.999616623	3.56938839	0.026941301	-0.013351441	-0.001001358	-1.029052734	0.674072266	0.488769531	883.96	-27.1436731	-68.2263326	-134.5054644	-43
25445	0	0.361572266	-0.079284668	0.14239502	0.999999046	0.000141144	1.24E-05	0.000255585	9.039306641	-1.982116699	3.559875488	0.00705719	0.000619888	0.012779236	-1.026855469	0.676269531	0.491455078	884.04	-27.17609561	-68.20730421	-134.4560905	-43
25446	0	0.360795975	-0.078208923	0.141142845	0.999999046	0.000480652	5.91E-05	0.000594139	9.019899368	-1.955223083	3.528571129	0.024032595	0.002956391	0.029706958	-1.029296875	0.676269531	0.494384766	884.06	-27.25011465	-68.1650038	-134.3203624	-43
25447	0	0.358947754	-0.077148438	0.140319824	0.999999046	8.01E-05	0.000393867	0.000919342	8.973693848	-1.928710938	3.507995605	0.004005433	0.019693378	0.04596711	-1.024658203	0.678466797	0.493896484	883.94	-27.40838373	-68.07072112	-134.1430219	-43
25448	0	0.360526085	-0.078034401	0.138906479	0.999999046	-9.82E-05	0.000610352	0.000887871	9.013152122	-1.950860023	3.472661972	-0.004911424	0.030517584	0.044393548	-1.027099609	0.682861328	0.488037109	884.04	-27.54988395	-67.95534936	-134.0054041	-43
25449	0	0.36151123	-0.078918457	0.138305664	0.999999046	0.000244141	0.000378609	0.000900269	9.037780762	-1.972961426	3.457641602	0.012207033	0.018930438	0.045013435	-1.022460938	0.684814453	0.487548828	884	-27.68484803	-67.86223179	-133.8325041	-43
25450	0	0.36126709	-0.077976227	0.137761116	0.999999046	0.000837326	0.000204086	0.000843048	9.031677246	-1.94940567	3.444027901	0.041866313	0.010204318	0.042152415	-1.025146484	0.687011719	0.493164063	884.02	-27.75979255	-67.78933545	-133.6514568	-43
25451	0	0.36114502	-0.07623291	0.13671875	0.999998093	0.000966072	9.92E-05	0.001068115	9.028625488	-1.905822754	3.41796875	0.048303621	0.004959108	0.05340578	-1.022705078	0.689208984	0.484375	883.96	-27.88879159	-67.7146111	-133.3956174	-43
25452	0	0.362419128	-0.076560974	0.136754036	0.999999046	0.000861168	8.77E-05	0.001064301	9.06047821	-1.914024353	3.418850899	0.043058409	0.004386903	0.053215044	-1.025146484	0.693603516	0.484130859	884.02	-28.02930871	-67.64077172	-133.1402965	-43
25453	0	0.36706543	-0.078491211	0.139465332	0.999998093	0.001606941	-0.000301361	0.000545502	9.176635742	-1.962280273	3.486633301	0.080347101	-0.015068062	0.027275099	-1.018310547	0.697753906	0.489257813	884	-28.00728537	-67.63383523	-132.9682521	-43
25454	0	0.364441872	-0.074782372	0.138569832	0.999998093	0.00168705	-8.58E-06	0.000220299	9.111046791	-1.869559288	3.464245796	0.084352534	-0.000429154	0.011014944	-1.020751953	0.699951172	0.483398438	884	-27.85769798	-67.61460201	-132.9241486	-43
25455	0	0.358703613	-0.074279785	0.139709473	0.999999046	0.001091003	0.000344276	0.000465393	8.967590332	-1.856994629	3.492736816	0.054550185	0.017213826	0.023269659	-1.020751953	0.704345703	0.480224609	884	-27.79065519	-67.54618901	-132.8644337	-43
25456	0	0.357804298	-0.075468063	0.140058517	0.999999046	0.000844002	0.000310898	0.000319481	8.94510746	-1.886701584	3.501462936	0.042200095	0.015544894	0.015974047	-1.020996094	0.706542969	0.479980469	884	-27.72043442	-67.48860951	-132.8389178	-43
25457	0	0.361633301	-0.076843262	0.137023926	0.999999046	0.001045227	0.000432014	0.000125885	9.04083252	-1.921081543	3.425598145	0.052261364	0.021600728	0.006294252	-1.020996094	0.706542969	0.477294922	883.94	-27.5648145	-67.42888249	-132.8810638	-43
25458	0	0.360521317	-0.076349258	0.134198189	0.999999046	0.000150681	0.000377655	0.000235558	9.013032913	-1.908731461	3.35495472	0.007534027	0.018882752	0.011777878	-1.023193359	0.708740234	0.471435547	884.02	-27.54621807	-67.36880994	-132.8856126	-43
25459	0	0.361328125	-0.078186035	0.134155273	0.999999046	-3.81E-05	0.000107765	0.000541687	9.033203125	-1.954650879	3.353881836	-0.001907349	0.00538826	0.027084352	-1.020996094	0.708496094	0.471435547	884	-27.65867474	-67.31986419	-132.7718444	-43
25460	0	0.360729218	-0.075657845	0.133737564	0.999999046	-0.000275612	-0.000152588	0.000369072	9.018230438	-1.891446114	3.343439102	-0.013780594	-0.007629395	0.018453599	-1.018554688	0.708496094	0.471191406	884.06	-27.78964074	-67.30648823	-132.6674838	-43
25461	0	0.362243652	-0.074035645	0.139160156	0.999999046	-0.000797272	-0.000384331	-8.39E-05	9.056091309	-1.850891113	3.479003906	-0.039863592	-0.01921654	-0.004196168	-1.018798828	0.710693359	0.473876953	883.94	-27.90002781	-67.34065271	-132.6500271	-43
25462	0	0.362182617	-0.081237793	0.141235352	0.999998093	-0.001418114	-0.00026989	-0.000637054	9.05456543	-2.030944824	3.530883789	-0.070905715	-0.013494497	-0.031852735	-1.018798828	0.708496094	0.479736328	883.94	-27.93316371	-67.39254557	-132.7936071	-43
25463	0	0.360168457	-0.080871582	0.14251709	0.999999046	0.001247406	-0.00014019	-0.000259399	9.004211426	-2.021789551	3.562927246	0.062370317	-0.007009508	-0.012969974	-1.018554688	0.706298828	0.477050781	884	-27.73606096	-67.41055756	-132.8559547	-43
25464	0	0.362870216	-0.072582245	0.140337944	0.999999046	0.001271248	-7.25E-05	0.000357628	9.071755409	-1.814556122	3.508448601	0.063562412	-0.003623963	0.017881399	-1.016357422	0.706298828	0.479736328	883.96	-27.67736597	-67.38863777	-132.7656866	-43
25465	0	0.359924316	-0.069580078	0.136962891	0.999999046	-0.000564575	1.24E-05	-1.91E-05	8.99810791	-1.739501953	3.424072266	-0.028228761	0.000619888	-0.000953674	-1.020996094	0.708740234	0.474121094	883.96	-27.7258387	-67.37821028	-132.7865319	-43
25466	0	0.359251976	-0.07600975	0.137983322	0.999999046	-0.001064301	-1.14E-05	-0.000809669	8.9812994	-1.900243759	3.449583054	-0.053215043	-0.000572205	-0.040483487	-1.020996094	0.708740234	0.479980469	883.96	-27.64212271	-67.41213983	-133.0126023	-43
25467	0	0.359924316	-0.075927734	0.138061523	0.999998093	-0.001242638	-0.000202179	-0.001312256	8.99810791	-1.898193359	3.451538086	-0.062131916	-0.010108953	-0.065612829	-1.020751953	0.704345703	0.474609375	883.96	-27.47968909	-67.49176479	-133.3456185	-43
25468	0	0.358240128	-0.080471039	0.142781258	0.999997139	-0.001482964	-0.00022316	-0.001266479	8.956003189	-2.01177597	3.569531441	-0.074148226	-0.011157997	-0.063324015	-1.022949219	0.699951172	0.477783203	883.9	-27.35757109	-67.57029898	-133.6650016	-43
25469	0	0.36114502	-0.081970215	0.144287109	0.999999046	-0.00063324	-0.000243187	-0.001014709	9.028625488	-2.049255371	3.607177734	-0.031661995	-0.012159351	-0.050735486	-1.027587891	0.695800781	0.478515625	883.9	-27.20196337	-67.63680646	-133.9155618	-43
25470	0	0.359852791	-0.080508232	0.144618988	0.999999046	-0.000211716	-3.24E-05	-0.000297546	8.996319771	-2.012705803	3.615474701	-0.010585785	-0.001621246	-0.01487732	-1.025146484	0.693603516	0.487060547	884	-27.14869635	-67.64355213	-134.003687	-43
25471	0	0.360168457	-0.080322266	0.143920898	0.999999046	-3.81E-05	0.000134468	0.000377655	9.004211426	-2.008056641	3.598022461	-0.001907349	0.006723404	0.018882752	-1.02734375	0.69140625	0.481689453	884.1	-27.22201145	-67.59742302	-133.9334256	-43
25472	0	0.360863686	-0.0785923	0.14242363	0.999999046	-0.000109673	0.000492096	0.00037384	9.02159214	-1.96480751	3.560590744	-0.005483628	0.024604799	0.018692018	-1.029785156	0.693847656	0.487304688	884	-27.25715501	-67.51465411	-133.9134424	-43
25473	0	0.358581543	-0.078674316	0.140197754	0.999999046	-8.39E-05	0.00049305	0.00062561	8.964538574	-1.96685791	3.504943848	-0.004196167	0.024652484	0.031280521	-1.027587891	0.693603516	0.487060547	884	-27.35113207	-67.41825331	-133.8265194	-43
25474	0	0.362670898	-0.076538086	0.140136719	0.999999046	0.0001297	0.000362396	0.000762939	9.066772461	-1.913452148	3.503417969	0.006484986	0.018119814	0.038146977	-1.02734375	0.693603516	0.478515625	884.06	-27.47000861	-67.3277133	-133.6856237	-43
25475	0	0.362792969	-0.073486328	0.137023926	0.999999046	-0.000461578	0.000504494	0.000728607	9.069824219	-1.837158203	3.425598145	-0.023078922	0.02522469	0.036430365	-1.027587891	0.695800781	0.481201172	884	-27.62910248	-67.2245346	-133.5745285	-43
25476	0	0.359496117	-0.073343277	0.136891365	0.999999046	-0.000876427	0.000408173	0.00039959	8.987402916	-1.833581924	3.422284126	-0.043821343	0.020408634	0.019979481	-1.025146484	0.697753906	0.472412109	884.16	-27.76738846	-67.14863708	-133.5364341	-43
25477	0	0.360107422	-0.074768066	0.136474609	0.999999046	7.63E-05	-6.68E-06	0.000286102	9.002685547	-1.86920166	3.411865234	0.003814697	-0.000333786	0.014305115	-1.027587891	0.697998047	0.481201172	884.04	-27.82139369	-67.12094256	-133.4724347	-43
25478	0	0.362265587	-0.071659088	0.136662483	0.999999046	0.000230789	-0.000207901	-0.000320435	9.056639671	-1.791477203	3.41656208	0.01153946	-0.01039505	-0.016021729	-1.027587891	0.697998047	0.478271484	883.96	-27.73698472	-67.14626659	-133.5390449	-43
25479	0	0.360900879	-0.073181152	0.140380859	0.999999046	3.43E-05	-0.000189781	-0.000717163	9.022521973	-1.829528809	3.509521484	0.001716614	-0.00948906	-0.035858158	-1.027587891	0.695800781	0.481201172	884.04	-27.57651333	-67.19078628	-133.7128606	-43
25480	0	0.357826233	-0.074245453	0.141530991	0.999999046	0.000178337	-0.000179291	-0.000893593	8.945655823	-1.856136322	3.538274765	0.008916856	-0.00896454	-0.044679648	-1.027587891	0.695800781	0.478515625	884	-27.35451354	-67.24318278	-133.9348813	-43
25481	0	0.358398438	-0.077087402	0.143005371	0.999999046	7.25E-05	-8.68E-05	-0.001369476	8.959960938	-1.927185059	3.575134277	0.003623964	-0.00433922	-0.068473837	-1.029785156	0.691650391	0.481689453	883.96	-27.01608932	-67.31035921	-134.296805	-43
25482	0	0.360845566	-0.081816673	0.142343521	0.999998093	0.000393867	-0.000193596	-0.001351357	9.021139145	-2.045416832	3.558588028	0.019693381	-0.009679798	-0.067567848	-1.031982422	0.689453125	0.479248047	884.06	-26.6571508	-67.38634671	-134.6407246	-43
25483	0	0.358276367	-0.082336426	0.142944336	0.999999046	0.000694275	-4.48E-05	-0.000606537	8.95690918	-2.058410645	3.573608398	0.03471375	-0.002241135	-0.030326848	-1.034179688	0.687255859	0.482421875	884.02	-26.42807901	-67.40783169	-134.8073663	-43
25484	0	0.359425545	-0.081154823	0.141803741	0.999999046	0.000481606	-0.000106812	0.000534058	8.985638618	-2.028870583	3.545093536	0.024080279	-0.005340577	0.026702883	-1.034179688	0.689453125	0.479248047	884.08	-26.51278568	-67.37700442	-134.6601348	-43
25485	0	0.360656738	-0.079589844	0.141052246	0.999999046	0.000141144	0.000126839	0.000770569	9.016418457	-1.989746094	3.526306152	0.007057191	0.006341935	0.038528446	-1.034179688	0.687255859	0.4765625	884	-26.66603088	-67.30976092	-134.4814734	-43
