Counter	Temperature	VelInc_X	VelInc_Y	VelInc_Z	OriInc_w	OriInc_x	OriInc_y	OriInc_z	Acc_X	Acc_Y	Acc_Z	Gyr_X	Gyr_Y	Gyr_Z	Mag_X	Mag_Y	Mag_Z	Pressure	Roll	Pitch	Yaw	RSSI
62283	0	0.675357819	-0.056458473	0.186794281	0.999873161	-0.006807327	0.003813744	0.013831139	8.441972733	-0.705730915	2.334928513	-0.170190336	0.095347598	0.345793	-0.590332031	-0.130371094	-0.781982422	884	-29.01242754	-71.45139968	44.4475669	-65
62284	0	0.357419968	-0.076488495	0.089997292	0.999969482	0.007667542	-0.00058651	0.000630379	8.935499191	-1.912212372	2.249932289	0.383380879	-0.029325776	0.031519249	-0.590332031	-0.125976563	-0.782226563	884	-28.37533452	-71.47773296	44.6892293	-66
62285	0	0.368286133	-0.067687988	0.103759766	0.999979019	0.00521946	-0.001880646	-0.003257751	9.20715332	-1.692199707	2.593994141	0.260974777	-0.094032936	-0.162888697	-0.592041016	-0.141357422	-0.781005859	884.04	-27.04027815	-71.84397517	43.90449912	-66
62286	0	0.374457359	-0.073760986	0.114067078	0.999988556	-0.002570152	-0.001070976	-0.003502846	9.361433983	-1.844024658	2.851676941	-0.128508043	-0.053548992	-0.175142873	-0.592041016	-0.147949219	-0.777587891	883.94	-26.36102554	-72.13499755	42.88363436	-66
62287	0	0.393188477	-0.080200195	0.11315918	0.999997139	0.000331879	-0.000472069	-0.002086639	9.829711914	-2.005004883	2.828979492	0.016593946	-0.023603458	-0.104332052	-0.594238281	-0.149902344	-0.774414063	883.98	-25.69027212	-72.28888471	42.22130432	-66
62288	0	0.39166069	-0.061587334	0.109778404	0.999985695	0.005141258	0.000444412	0.000821114	9.791517258	-1.539683342	2.744460106	0.257064082	0.022220713	0.041055866	-0.591552734	-0.156738281	-0.776855469	884.04	-25.26252125	-72.20269406	42.39040193	-66
62289	0	0.369567871	-0.041137695	0.103271484	0.999984741	0.002987862	0.001194	0.00440979	9.239196777	-1.028442383	2.581787109	0.149393824	0.059700309	0.220490597	-0.591308594	-0.163330078	-0.770507813	884	-26.10554659	-71.86105727	43.6511967	-67
62290	0	0.359920502	-0.04190731	0.107303619	0.999977112	-0.001822472	0.00197506	0.006083488	8.998012543	-1.047682762	2.682590485	-0.091124253	0.098753703	0.304176666	-0.591552734	-0.156738281	-0.770996094	884.06	-27.83749065	-71.34425975	45.27805032	-67
62291	0	0.360351563	-0.052856445	0.104492188	0.999979973	-0.004898071	0.002583504	0.002895355	9.008789063	-1.321411133	2.612304688	-0.244905158	0.129176027	0.144768703	-0.589599609	-0.145751953	-0.774902344	884.04	-28.80724978	-70.92787744	45.73167678	-67
62292	0	0.375338554	-0.063713074	0.10167408	0.999965668	-0.007604599	0.00244236	-0.001739502	9.38346386	-1.592826843	2.541851997	-0.380234185	0.122119356	-0.086976066	-0.585205078	-0.135009766	-0.784667969	884.04	-28.75399943	-70.78072134	44.77091727	-67
62293	0	0.381713867	-0.077331543	0.102722168	0.999955177	-0.008972168	0.000741005	-0.002906799	9.54284668	-1.933288574	2.568054199	-0.44861509	0.0370508	-0.145342134	-0.581054688	-0.124267578	-0.791503906	883.98	-28.79480419	-70.8690421	43.74084808	-67
62294	0	0.387268066	-0.075622559	0.113525391	0.999990463	-0.00416851	-0.000353813	-0.000679016	9.68170166	-1.890563965	2.838134766	-0.208426146	-0.017690712	-0.033950907	-0.578857422	-0.117675781	-0.786376953	884.04	-29.10408776	-70.94449729	43.57647304	-68
62295	0	0.3764925	-0.056056976	0.117730141	0.999997139	-0.000591278	-9.82E-05	0.001563072	9.412312508	-1.401424408	2.943253517	-0.029563918	-0.004911425	0.078153647	-0.579101563	-0.111083984	-0.792724609	883.94	-29.60930897	-70.86886622	44.04423865	-68
62296	0	0.37650013	-0.059110641	0.119976997	0.999997139	-0.000466347	0.000421524	0.001928329	9.412503242	-1.477766037	2.999424934	-0.023317353	0.021076217	0.096416539	-0.579345703	-0.108886719	-0.790039063	883.88	-30.11352739	-70.71925324	44.52884602	-68
62297	0	0.371948242	-0.058410645	0.112670898	0.999998093	-0.00146389	0.000911713	0.000713348	9.298706055	-1.460266113	2.816772461	-0.073194546	0.045585659	0.03566744	-0.577148438	-0.104736328	-0.793457031	884.04	-30.30202846	-70.59034831	44.55519211	-68
62298	0	0.366100311	-0.067429543	0.108503342	0.999996185	-0.002570152	0.000660896	0.000135422	9.152507782	-1.685738564	2.712583542	-0.128507765	0.033044854	0.006771096	-0.577148438	-0.104736328	-0.793457031	884.04	-30.49604217	-70.51975107	44.46112352	-69
62299	0	0.379943848	-0.082092285	0.109069824	0.999999046	-0.000141144	0.000855446	0.000331879	9.498596191	-2.052307129	2.726745605	-0.007057191	0.042772299	0.016593935	-0.574951172	-0.098144531	-0.788330078	883.98	-30.43735935	-70.41848571	44.38393962	-69
62300	0	0.373673439	-0.072422028	0.105415344	0.999992371	0.003477097	0.000552177	0.001200676	9.341835976	-1.81055069	2.635383606	0.173855229	0.027608935	0.060033937	-0.574951172	-0.098144531	-0.793945313	884	-30.25654191	-70.29710506	44.60806016	-69
62301	0	0.374145508	-0.063598633	0.110900879	0.999992371	0.002808571	0.00063324	0.002304077	9.353637695	-1.58996582	2.772521973	0.140428861	0.031662059	0.115204119	-0.574707031	-0.102539063	-0.793701172	883.94	-30.4404403	-70.10408922	45.14364582	-69
62302	0	0.374023438	-0.061889648	0.114013672	0.999996185	0.001351357	0.001332283	0.001831055	9.350585938	-1.547241211	2.850341797	0.067567904	0.066614228	0.09155284	-0.574707031	-0.102539063	-0.796630859	883.92	-30.54374938	-69.86934315	45.41664195	-70
62303	0	0.37286377	-0.06817627	0.11517334	0.999997139	0.000587463	0.00098896	0.001663208	9.321594238	-1.704406738	2.879333496	0.029373189	0.049448047	0.083160457	-0.570068359	-0.104980469	-0.793701172	884.04	-30.73960131	-69.67809962	45.70126569	-70
62304	0	0.370272636	-0.070314407	0.112996101	0.99998951	0.004263878	0.000434875	0.000865936	9.25681591	-1.757860184	2.824902534	0.213194573	0.021743844	0.043296952	-0.570068359	-0.102783203	-0.793945313	883.98	-30.38852072	-69.58827951	45.83717221	-70
62305	0	0.368469238	-0.061767578	0.11151123	0.999984741	0.005337715	0.000476837	0.000797272	9.211730957	-1.544189453	2.787780762	0.266887063	0.023841975	0.039863781	-0.569580078	-0.111572266	-0.796142578	884.04	-29.89044646	-69.49904883	45.94905791	-70
62306	0	0.367292404	-0.059724808	0.109572411	0.999999046	0.000534058	0.000631332	0.000740051	9.182310104	-1.493120193	2.739310265	0.026702886	0.031566626	0.037002571	-0.571777344	-0.117919922	-0.795410156	884.06	-29.9042139	-69.39845355	46.03352257	-70
62307	0	0.367736816	-0.076660156	0.113708496	0.999999046	0.000377655	-6.01E-05	0.000328064	9.19342041	-1.916503906	2.842712402	0.018882752	-0.003004074	0.016403199	-0.569335938	-0.118164063	-0.795410156	884.06	-29.93337031	-69.39006816	46.11362207	-69
62308	0	0.37057209	-0.070586205	0.119819641	0.999997139	0.001259804	-7.63E-05	0.000544548	9.264302254	-1.764655113	2.995491028	0.062990208	-0.003814698	0.02722741	-0.569335938	-0.118164063	-0.798339844	884.06	-29.92125732	-69.37086034	46.25345122	-70
62309	0	0.371337891	-0.070678711	0.119140625	0.999999046	6.48E-05	0.000271797	0.001167297	9.283447266	-1.766967773	2.978515625	0.003242493	0.013589862	0.058364882	-0.569335938	-0.120361328	-0.795410156	884.06	-30.15668359	-69.28129051	46.51911019	-69
62310	0	0.372268677	-0.070922852	0.117703438	0.999999046	0.000667572	0.000455856	0.001102448	9.306716919	-1.773071289	2.942585945	0.033378611	0.022792823	0.055122393	-0.569335938	-0.118164063	-0.795410156	884.06	-30.27653041	-69.17704736	46.73152796	-69
62311	0	0.372070313	-0.065551758	0.118530273	0.999998093	0.001690865	9.16E-05	0.000671387	9.301757813	-1.638793945	2.963256836	0.084543275	0.004577639	0.033569355	-0.569335938	-0.118164063	-0.798339844	884	-30.22097974	-69.13392913	46.87681799	-69
62312	0	0.37293911	-0.063067436	0.12503624	0.999998093	0.001577377	-7.34E-05	0.000389099	9.323477745	-1.576685905	3.125905991	0.078868901	-0.003671648	0.019454965	-0.569335938	-0.120361328	-0.798095703	884.04	-30.12882198	-69.12351561	46.96916263	-69
62313	0	0.370300293	-0.064331055	0.12286377	0.999999046	-0.000404358	0.000611305	-9.92E-05	9.257507324	-1.608276367	3.071594238	-0.020217897	0.030565265	-0.004959107	-0.571777344	-0.120117188	-0.795166016	884	-30.03309465	-69.07334711	46.81845999	-69
62314	0	0.371449471	-0.068260193	0.119538307	0.999999046	-0.000114441	0.000545502	-0.000301361	9.286236763	-1.706504822	2.98845768	-0.005722046	0.027275087	-0.015068055	-0.566894531	-0.122558594	-0.798095703	884.04	-29.86210224	-69.04127851	46.62389842	-69
62315	0	0.36730957	-0.07208252	0.119506836	0.999999046	0.000576019	-1.81E-05	-0.000282288	9.182739258	-1.802062988	2.987670898	0.028800966	-0.000905991	-0.014114381	-0.566894531	-0.120361328	-0.795410156	884.04	-29.70156592	-69.06394704	46.51960492	-69
62316	0	0.366009712	-0.069231033	0.123784065	0.999998093	0.001781464	-0.000159264	-0.000427246	9.150242805	-1.730775833	3.094601631	0.089073231	-0.007963185	-0.021362317	-0.566894531	-0.122558594	-0.798095703	883.98	-29.38546027	-69.10855959	46.39296993	-69
62317	0	0.367004395	-0.069763184	0.120300293	0.999999046	0.000854492	0.000164986	-0.000461578	9.175109863	-1.74407959	3.007507324	0.042724616	0.008249284	-0.023078922	-0.566650391	-0.126953125	-0.80078125	884	-29.11855173	-69.12242757	46.20887809	-69
62318	0	0.367149353	-0.068728447	0.122002602	0.999998093	0.001460075	0.000134468	-4.96E-05	9.178733826	-1.718211174	3.050065041	0.073003795	0.006723406	-0.002479554	-0.569091797	-0.126953125	-0.794921875	884	-28.89491978	-69.11610318	46.14465082	-69
62319	0	0.371887207	-0.065673828	0.121398926	0.999999046	0.001110077	0.000256538	4.96E-05	9.297180176	-1.641845703	3.034973145	0.055503857	0.012826922	0.002479554	-0.566650391	-0.129150391	-0.791992188	884	-28.7198364	-69.09207605	46.09067427	-69
62320	0	0.363759995	-0.064517975	0.124292374	0.999998093	0.000354767	0.000178337	-9.16E-05	9.093999863	-1.612949371	3.107309341	0.017738343	0.008916855	-0.004577637	-0.56640625	-0.131347656	-0.800292969	884.06	-28.60524029	-69.08349862	46.00787329	-69
62321	0	0.366882324	-0.067687988	0.125061035	0.999999046	0.000797272	-7.15E-05	-2.29E-05	9.172058105	-1.692199707	3.126525879	0.039863591	-0.003576279	-0.001144409	-0.56640625	-0.133544922	-0.800048828	884.04	-28.49389131	-69.09608585	45.9843947	-69
62322	0	0.366048813	-0.07028389	0.122799873	0.999999046	0.000234604	4.39E-05	-0.000161171	9.151220322	-1.757097244	3.069996834	0.011730194	0.002193451	-0.008058548	-0.566162109	-0.135742188	-0.797119141	883.98	-28.39448588	-69.10442899	45.90897183	-69
62323	0	0.367736816	-0.07208252	0.123840332	0.999999046	0.00069809	-6.68E-06	0.000293732	9.19342041	-1.802062988	3.096008301	0.034904483	-0.000333786	0.014686586	-0.56640625	-0.133544922	-0.800048828	884.06	-28.36998576	-69.0928618	45.96318815	-69
62324	0	0.366394043	-0.068481445	0.121826172	0.999999046	0.00074482	-8.39E-05	0.000473022	9.159851074	-1.712036133	3.045654297	0.037240987	-0.004196168	0.023651126	-0.563964844	-0.135742188	-0.794433594	883.94	-28.39878135	-69.07926281	46.0842905	-69
62325	0	0.366881371	-0.068917274	0.123023033	0.999997139	0.00151825	-0.000224113	0.000526428	9.172034264	-1.722931862	3.075575829	0.075912509	-0.011205678	0.026321423	-0.566162109	-0.137939453	-0.796875	884	-28.37330592	-69.07679337	46.24208441	-69
62326	0	0.373996735	-0.063842773	0.122210503	0.999999046	0.001281738	-1.34E-05	0.00026989	9.349918365	-1.596069336	3.055262566	0.064086932	-0.000667572	0.013494495	-0.566162109	-0.137939453	-0.793945313	884	-28.27703478	-69.06725721	46.2929405	-69
62327	0	0.364440918	-0.06463623	0.122253418	0.999999046	-6.10E-05	-8.30E-05	0.000442505	9.111022949	-1.615905762	3.056335449	-0.003051758	-0.004148483	0.022125245	-0.566162109	-0.137939453	-0.796875	884	-28.38989562	-69.05534522	46.40241177	-70
62328	0	0.365234375	-0.065734863	0.123535156	0.999999046	0.000912666	-0.000213623	0.000385284	9.130859375	-1.643371582	3.088378906	0.045633324	-0.010681154	0.019264224	-0.565917969	-0.142333984	-0.799316406	883.98	-28.39454936	-69.05961353	46.52006451	-70
62329	0	0.368148804	-0.065321922	0.118107796	0.999999046	0.000165939	0.000220299	-0.000103951	9.203720093	-1.633048058	2.952694893	0.008296967	0.011014939	-0.005197525	-0.565917969	-0.142333984	-0.799316406	884.06	-28.29439532	-69.04699133	46.43328517	-70
62330	0	0.370218277	-0.069141388	0.119773865	0.999999046	0.000106812	8.58E-05	-0.000477791	9.255456924	-1.728534698	2.994346619	0.005340576	0.004291535	-0.023889543	-0.568359375	-0.140136719	-0.799560547	883.9	-28.12208716	-69.06822372	46.25752961	-70
62331	0	0.371765137	-0.065307617	0.120239258	0.999999046	-0.000587463	-2.86E-06	1.53E-05	9.294128418	-1.63269043	3.005981445	-0.029373171	-0.000143051	0.000762939	-0.563720703	-0.142333984	-0.793945313	884	-28.17208137	-69.07188166	46.24121251	-69
62332	0	0.368345261	-0.0641222	0.123945236	0.999999046	-0.000382423	-1.34E-05	0.000281334	9.208631516	-1.603055	3.098630905	-0.019121171	-0.000667572	0.014066697	-0.566162109	-0.142333984	-0.793701172	883.98	-28.27002461	-69.06217901	46.30444723	-69
62333	0	0.372497559	-0.06463623	0.12689209	0.999999046	-0.000247955	-6.01E-05	-0.000141144	9.312438965	-1.615905762	3.172302246	-0.012397766	-0.003004074	-0.00705719	-0.568359375	-0.140136719	-0.799560547	883.98	-28.24725705	-69.08003729	46.24903935	-70
62334	0	0.373901367	-0.067138672	0.125366211	0.999999046	-0.000137329	0.000225067	-0.000530243	9.34753418	-1.678466797	3.134155273	-0.006866455	0.011253358	-0.026512148	-0.563720703	-0.140136719	-0.793945313	884	-28.06847378	-69.09005272	46.04026645	-70
62335	0	0.368307114	-0.066941261	0.124379158	0.999998093	0.000527382	0.000209808	-0.000201225	9.207677841	-1.673531532	3.109478951	0.026369096	0.010490418	-0.010061265	-0.568359375	-0.142333984	-0.793701172	883.98	-27.90279239	-69.08359697	45.93194936	-70
62336	0	0.367938995	-0.06414032	0.125171661	0.999999046	0.001244545	-1.91E-05	-8.01E-05	9.198474884	-1.603507996	3.129291534	0.062227265	-0.000953675	-0.004005433	-0.566162109	-0.142333984	-0.793701172	884.06	-27.71890691	-69.09367204	45.88656937	-70
62337	0	0.370361328	-0.063903809	0.12322998	0.999999046	-0.000423431	0.000393867	-0.000545502	9.259033203	-1.597595215	3.080749512	-0.021171572	0.019693377	-0.027275088	-0.568359375	-0.142333984	-0.796386719	884.04	-27.5448905	-69.08656687	45.64759174	-70
62338	0	0.367284775	-0.065987587	0.122668266	0.999999046	0.000846863	2.29E-05	-0.000804901	9.18211937	-1.649689674	3.066706657	0.042343149	0.001144409	-0.040245065	-0.565673828	-0.146728516	-0.799072266	883.94	-27.20752017	-69.13048148	45.39076454	-70
62339	0	0.369384766	-0.060974121	0.125	0.999999046	3.81E-06	-2.57E-05	-0.000473022	9.234619141	-1.524353027	3.125	0.000190735	-0.00128746	-0.023651124	-0.565917969	-0.146728516	-0.793457031	883.94	-27.06091907	-69.16163466	45.23685905	-70
62340	0	0.36706543	-0.064880371	0.126403809	0.999999046	0.000504494	-4.58E-05	-0.000511169	9.176635742	-1.622009277	3.160095215	0.025224688	-0.002288819	-0.025558474	-0.565917969	-0.146728516	-0.796142578	884.04	-26.84901104	-69.19645973	45.07007156	-70
62341	0	0.369567871	-0.05871582	0.124511719	0.999998093	0.001347542	-0.000183105	-0.000480652	9.239196777	-1.467895508	3.112792969	0.067377114	-0.009155277	-0.024032601	-0.565673828	-0.148925781	-0.798828125	883.92	-26.56613714	-69.2435855	44.92774993	-71
62342	0	0.367048264	-0.061260223	0.125457764	0.999999046	0.000648499	-0.000265121	-0.000396729	9.176206589	-1.531505585	3.136444092	0.03242493	-0.013256074	-0.019836428	-0.563232422	-0.151123047	-0.793212891	884.06	-26.39622099	-69.29454993	44.82343918	-71
62343	0	0.371154785	-0.05871582	0.121276855	0.999999046	8.39E-05	-0.000144005	-0.000782013	9.278869629	-1.467895508	3.031921387	0.004196167	-0.007200242	-0.039100651	-0.565429688	-0.153320313	-0.798583984	884.04	-26.16893848	-69.35269392	44.58896626	-71
62344	0	0.366711617	-0.063066483	0.122523308	0.999999046	-0.000224113	-0.000333786	-0.000892639	9.167790413	-1.576662064	3.063082695	-0.011205675	-0.016689303	-0.044631965	-0.565673828	-0.153320313	-0.792724609	884.06	-25.9711148	-69.43558571	44.35006747	-71
62345	0	0.367736816	-0.061157227	0.123718262	0.999999046	6.87E-05	-0.000506401	-0.000427246	9.19342041	-1.528930664	3.092956543	0.003433228	-0.025320055	-0.021362306	-0.565429688	-0.155517578	-0.795410156	884	-25.8896077	-69.5126713	44.27199455	-71
62346	0	0.36865139	-0.063388824	0.126342773	0.999999046	3.81E-05	-0.000358582	-0.000160217	9.216284752	-1.584720612	3.158569336	0.001907349	-0.017929078	-0.008010864	-0.565673828	-0.153320313	-0.790039063	883.94	-25.8654413	-69.56089918	44.24912675	-71
62347	0	0.368408203	-0.060058594	0.124633789	0.999999046	0.000534058	-0.000353813	-9.54E-05	9.210205078	-1.501464844	3.115844727	0.026702883	-0.01769066	-0.004768372	-0.565429688	-0.155517578	-0.795410156	884	-25.80161932	-69.60528437	44.24314732	-71
62348	0	0.368935585	-0.06083107	0.125290871	0.999999046	0.000353813	-0.000177383	-0.000126839	9.223389626	-1.520776749	3.132271767	0.017690659	-0.008869171	-0.006341934	-0.565429688	-0.157714844	-0.789550781	884.06	-25.72596526	-69.63286973	44.20848188	-71
62349	0	0.37310791	-0.058349609	0.121948242	0.999999046	0.000770569	-0.000372887	-4.58E-05	9.327697754	-1.458740234	3.048706055	0.038528447	-0.018644335	-0.002288819	-0.567871094	-0.155517578	-0.795410156	883.98	-25.65115646	-69.67670966	44.21579313	-72
62350	0	0.369235992	-0.057886124	0.120723724	0.999999046	0.000465393	-0.000225067	2.86E-06	9.230899811	-1.447153091	3.018093109	0.023269654	-0.011253357	0.000143051	-0.567626953	-0.159912109	-0.789306641	884.04	-25.60500624	-69.7029512	44.22666977	-72
62351	0	0.368652344	-0.057800293	0.121765137	0.999999046	0.00030899	-0.00039959	-6.10E-05	9.216308594	-1.445007324	3.044128418	0.015449525	-0.019979478	-0.003051758	-0.570068359	-0.159667969	-0.789306641	884.04	-25.58222561	-69.75041215	44.24219628	-72
62352	0	0.370223045	-0.057618141	0.124189377	0.999999046	-0.000164986	-0.00015831	-0.000141144	9.255576134	-1.440453529	3.104734421	-0.008249283	-0.007915497	-0.00705719	-0.570068359	-0.159667969	-0.789306641	883.98	-25.55868855	-69.77682462	44.19890585	-72
62353	0	0.369812012	-0.062072754	0.121582031	0.999999046	6.48E-05	-0.000105858	-9.92E-05	9.245300293	-1.551818848	3.039550781	0.003242493	-0.005292892	-0.004959106	-0.567626953	-0.159912109	-0.789306641	884	-25.51402884	-69.79566616	44.1595945	-72
62354	0	0.372473717	-0.058505058	0.12077713	0.999999046	0.000797272	-0.000389099	0.000109673	9.311842918	-1.462626457	3.019428253	0.039863592	-0.019454959	0.005483628	-0.567626953	-0.159912109	-0.795166016	884.1	-25.48226802	-69.83357782	44.2167988	-72
62355	0	0.372375488	-0.057861328	0.122314453	0.999999046	-0.000137329	-9.44E-05	0.000133514	9.309387207	-1.446533203	3.057861328	-0.006866455	-0.004720688	0.00667572	-0.572265625	-0.161865234	-0.791748047	884.06	-25.52475569	-69.83984485	44.24793051	-72
62356	0	0.370306969	-0.057932854	0.123753548	0.999997139	0.00048542	4.01E-05	0.000128746	9.257674217	-1.448321342	3.093838692	0.024271012	0.002002716	0.006437302	-0.570068359	-0.161865234	-0.7890625	884	-25.47634518	-69.83235152	44.25729871	-72
62357	0	0.370056152	-0.054748535	0.119445801	0.999999046	0.0001297	8.11E-05	0.000106812	9.251403809	-1.368713379	2.98614502	0.006484985	0.004053116	0.005340576	-0.570068359	-0.161865234	-0.791992188	883.98	-25.4567775	-69.82186132	44.25199005	-72
62358	0	0.373625755	-0.05638504	0.120191574	0.999999046	0.000114441	3.24E-05	3.05E-05	9.340643883	-1.409626007	3.004789352	0.005722046	0.001621246	0.001525879	-0.570068359	-0.161865234	-0.7890625	884	-25.42392729	-69.82031709	44.23207569	-72
62359	0	0.372314453	-0.056396484	0.121032715	0.999999046	-6.48E-05	8.11E-05	-0.000232697	9.307861328	-1.409912109	3.025817871	-0.003242493	0.004053116	-0.011634827	-0.570068359	-0.161865234	-0.7890625	884.04	-25.3308466	-69.8267512	44.12582257	-72
62360	0	0.372625351	-0.055018425	0.120779991	0.999999046	5.63E-05	0.000114441	-4.96E-05	9.315633774	-1.375460625	3.019499779	0.002813339	0.005722046	-0.002479553	-0.570068359	-0.159667969	-0.791992188	883.98	-25.27079913	-69.82084646	44.06314853	-72
62361	0	0.369873047	-0.055725098	0.124633789	0.999999046	-0.00019455	-0.000155449	-0.000240326	9.246826172	-1.393127441	3.115844727	-0.009727478	-0.007772446	-0.012016297	-0.569824219	-0.1640625	-0.791748047	884	-25.22117432	-69.85212067	43.98969909	-72
62362	0	0.370306015	-0.058281898	0.124372482	0.999999046	-5.53E-05	-9.16E-05	-0.000195503	9.257650375	-1.457047462	3.109312057	-0.002765656	-0.004577637	-0.009775162	-0.570068359	-0.161865234	-0.7890625	884.04	-25.1595988	-69.87442035	43.9173503	-72
62363	0	0.36730957	-0.059936523	0.122314453	0.999999046	-0.000297546	8.49E-05	-0.000167847	9.182739258	-1.498413086	3.057861328	-0.01487732	0.004243851	-0.008392334	-0.567626953	-0.159912109	-0.789306641	884.04	-25.11046245	-69.87690947	43.82397107	-72
62364	0	0.369322777	-0.060618401	0.122157097	0.999999046	-0.0004282	8.58E-05	4.86E-05	9.23306942	-1.515460014	3.053927422	-0.021409989	0.004291535	0.00243187	-0.570068359	-0.161865234	-0.7890625	883.94	-25.13795098	-69.86865311	43.80315216	-72
62365	0	0.37109375	-0.060546875	0.120544434	0.999999046	0.000282288	9.54E-07	0.000114441	9.27734375	-1.513671875	3.01361084	0.01411438	4.77E-05	0.005722046	-0.570068359	-0.159667969	-0.791992188	883.98	-25.11449279	-69.86600421	43.80763081	-72
62366	0	0.370714188	-0.057388306	0.124482155	0.999999046	0.000497818	-0.000179291	0.000278473	9.267854691	-1.434707642	3.112053871	0.024890901	-0.008964539	0.013923646	-0.567626953	-0.162109375	-0.7890625	884	-25.13658187	-69.87396316	43.89100724	-72
62367	0	0.367858887	-0.056762695	0.125061035	0.999999046	3.81E-05	-0.00014019	0.000362396	9.196472168	-1.419067383	3.126525879	0.001907349	-0.007009506	0.018119812	-0.572265625	-0.161865234	-0.788818359	884.04	-25.22969405	-69.873574	43.99634885	-72
62368	0	0.368583679	-0.058974266	0.123862267	0.999999046	0.000330925	-0.000181198	2.96E-05	9.21459198	-1.474356651	3.096556664	0.01654625	-0.009059906	0.001478195	-0.570068359	-0.159667969	-0.789306641	884.04	-25.20068524	-69.89351839	44.00000162	-72
62369	0	0.371032715	-0.059326172	0.121887207	0.999999046	0.000461578	-0.000231743	0.000160217	9.275817871	-1.483154297	3.047180176	0.02307892	-0.011587144	0.008010865	-0.570068359	-0.1640625	-0.785888672	884.04	-25.20074145	-69.91229729	44.05992857	-72
62370	0	0.367675781	-0.055297852	0.125183105	0.999998093	-0.001284599	-4.10E-05	0.001056671	9.191894531	-1.382446289	3.129577637	-0.064229995	-0.002050401	0.052833582	-0.569824219	-0.161865234	-0.794677734	884.04	-25.62837828	-69.86702543	44.35844896	-73
62371	0	0.36650753	-0.073669434	0.12449646	0.999997139	-0.001682281	0.000161171	0.00094986	9.162688255	-1.84173584	3.112411499	-0.084114127	0.008058553	0.047493011	-0.5703125	-0.155273438	-0.792480469	884.04	-26.04424381	-69.80498252	44.59197305	-72
62372	0	0.371398926	-0.061279297	0.124511719	0.999998093	0.00151062	8.49E-05	0.001106262	9.284973145	-1.531982422	3.112792969	0.07553105	0.004243853	0.055313143	-0.570068359	-0.157470703	-0.792236328	884.04	-26.14688165	-69.74241274	44.88351427	-73
62373	0	0.370544434	-0.061035156	0.123474121	0.999999046	-9.92E-05	-1.81E-05	0.001346588	9.26361084	-1.525878906	3.086853027	-0.004959108	-0.000905991	0.067329427	-0.5703125	-0.155273438	-0.792480469	884.06	-26.51332083	-69.67772545	45.25844481	-73
62374	0	0.366956711	-0.065161705	0.123873711	0.999998093	0.000424385	6.01E-05	0.001567841	9.17391777	-1.629042625	3.096842766	0.021219263	0.003004075	0.078392063	-0.5703125	-0.153076172	-0.789794922	884.06	-26.86784502	-69.59261179	45.68404335	-73
62375	0	0.369018555	-0.060791016	0.120300293	0.999998093	0.000771523	0.000247955	0.001399994	9.225463867	-1.519775391	3.007507324	0.038576143	0.012397772	0.069999725	-0.5703125	-0.155273438	-0.789550781	884	-27.10726792	-69.49637568	46.03485066	-73
62376	0	0.367928505	-0.063224792	0.119785309	0.999998093	0.000108719	0.00024128	0.001601219	9.198212624	-1.580619812	2.994632721	0.005435946	0.012063985	0.080060994	-0.5703125	-0.153076172	-0.795410156	883.98	-27.47532843	-69.3896901	46.4373282	-73
62377	0	0.372192383	-0.065185547	0.120483398	0.999998093	0.001355171	3.81E-05	0.001361847	9.30480957	-1.629638672	3.012084961	0.067758602	0.00190735	0.068092388	-0.572753906	-0.150878906	-0.792724609	884.06	-27.66172691	-69.31577209	46.79557532	-73
62378	0	0.371826172	-0.057067871	0.119934082	0.999995232	0.002841949	-4.58E-05	0.000926971	9.295654297	-1.426696777	2.998352051	0.142097685	-0.002288822	0.046348641	-0.5703125	-0.153076172	-0.789794922	883.98	-27.57075214	-69.27370845	47.03697902	-73
62379	0	0.366960526	-0.054164886	0.119281769	0.999998093	-0.000231743	-1.14E-05	0.000843048	9.174013138	-1.354122162	2.98204422	-0.011587144	-0.000572205	0.04215241	-0.574951172	-0.157226563	-0.786376953	884	-27.80298488	-69.232869	47.26338015	-73
62380	0	0.371471405	-0.067777634	0.12100029	0.999999046	-0.000653267	-1.14E-05	0.000518799	9.286785126	-1.694440842	3.025007248	-0.032663349	-0.000572205	0.025939944	-0.572509766	-0.155273438	-0.792236328	884	-27.99674326	-69.20919593	47.39084755	-73
62381	0	0.369812012	-0.061584473	0.120544434	0.999999046	0.000713348	-0.000136375	0.000518799	9.245300293	-1.539611816	3.01361084	0.035667424	-0.006818772	0.025939945	-0.572753906	-0.153076172	-0.792480469	884.04	-28.05104534	-69.19826349	47.53067316	-73
62382	0	0.370634079	-0.063626289	0.122058868	0.999999046	-0.000825882	-0.000137329	0.000167847	9.265851974	-1.590657234	3.05147171	-0.041294103	-0.006866456	0.008392335	-0.5703125	-0.155273438	-0.789550781	884	-28.18823344	-69.20639838	47.57831911	-73
62383	0	0.366760254	-0.067382813	0.120361328	0.999999046	-0.000507355	-0.000220299	0.000404358	9.169006348	-1.684570313	3.009033203	-0.025367739	-0.011014939	0.020217897	-0.572753906	-0.150878906	-0.789794922	884	-28.36407477	-69.21004053	47.70080762	-72
62384	0	0.371032715	-0.066404343	0.122754097	0.999999046	0.0002985	-0.000219345	0.000411034	9.275817871	-1.660108566	3.068852425	0.014925004	-0.010967255	0.020551683	-0.572753906	-0.150878906	-0.786865234	883.98	-28.44925363	-69.21313386	47.82646522	-72
62385	0	0.372375488	-0.065307617	0.121826172	0.999999046	-0.000988007	0.000123024	0.000400543	9.309387207	-1.63269043	3.045654297	-0.049400339	0.006151201	0.020027164	-0.575195313	-0.150878906	-0.792480469	883.94	-28.62957195	-69.18233063	47.89827743	-72
62386	0	0.368690491	-0.066394806	0.122639656	0.999999046	-0.000680923	0.000104904	0.000549316	9.217262268	-1.659870148	3.065991402	-0.034046178	0.005245209	0.027465824	-0.572753906	-0.148681641	-0.792724609	884	-28.81614741	-69.14505815	48.01200924	-72
62387	0	0.372375488	-0.066223145	0.123413086	0.999999046	0.000263214	-0.00014019	0.000400543	9.309387207	-1.655578613	3.085327148	0.013160706	-0.007009507	0.020027161	-0.572998047	-0.146484375	-0.790039063	884.06	-28.89035959	-69.14055306	48.11847865	-73
62388	0	0.369735718	-0.062913895	0.125050545	0.999999046	0.000138283	0.000101089	0.000197411	9.243392944	-1.572847366	3.126263618	0.006914139	0.005054474	0.009870529	-0.572998047	-0.146484375	-0.787353516	884	-28.88956101	-69.12305442	48.13132383	-73
62389	0	0.369689941	-0.065612793	0.122436523	0.999999046	-2.67E-05	2.00E-05	-7.25E-05	9.242248535	-1.640319824	3.060913086	-0.001335144	0.001001358	-0.003623962	-0.572998047	-0.148681641	-0.787109375	884.06	-28.84819431	-69.12866925	48.08502716	-73
62390	0	0.369510651	-0.063185692	0.118601799	0.999999046	0	-2.67E-05	-0.000256538	9.237766266	-1.579642296	2.965044975	0	-0.001335144	-0.01282692	-0.572753906	-0.148681641	-0.792724609	884.1	-28.76175225	-69.14937374	47.98926247	-73
62391	0	0.368225098	-0.06427002	0.121032715	0.999999046	-0.000591278	-0.000144005	-0.000244141	9.205627441	-1.606750488	3.025817871	-0.029563906	-0.007200242	-0.012207032	-0.572998047	-0.148681641	-0.790039063	883.96	-28.76292366	-69.18124312	47.91786712	-73
62392	0	0.368719101	-0.066065788	0.122067451	0.999999046	-0.000851631	-0.00025177	-0.00049305	9.217977524	-1.651644707	3.051686287	-0.042581566	-0.012588503	-0.024652485	-0.572998047	-0.146484375	-0.79296875	884.02	-28.74345482	-69.23765754	47.78747993	-73
62393	0	0.367919922	-0.07244873	0.123779297	0.999999046	-0.000782013	-0.000212669	-0.000320435	9.197998047	-1.811218262	3.094482422	-0.039100652	-0.01063347	-0.016021731	-0.572998047	-0.146484375	-0.787353516	884.06	-28.75638855	-69.28037712	47.70544099	-73
62394	0	0.370643616	-0.070580482	0.127904892	0.999999046	-0.000192642	-8.01E-05	-0.000508308	9.266090393	-1.764512062	3.197622299	-0.009632111	-0.004005432	-0.025415422	-0.572998047	-0.146484375	-0.790039063	884.1	-28.63229746	-69.31974234	47.54669992	-73
62395	0	0.368286133	-0.069885254	0.12689209	0.999999046	-0.000473022	0.000107765	-0.000473022	9.20715332	-1.747131348	3.172302246	-0.023651125	0.00538826	-0.023651125	-0.572998047	-0.146484375	-0.79296875	884.06	-28.52211352	-69.33782614	47.36731154	-74
62396	0	0.372903824	-0.070932388	0.124035835	0.999999046	0.000384331	8.39E-05	-0.000183105	9.322595596	-1.773309708	3.100895882	0.019216538	0.004196167	-0.009155274	-0.570556641	-0.146484375	-0.795898438	884.06	-28.39486853	-69.34220556	47.26977622	-74
62397	0	0.367431641	-0.063598633	0.121032715	0.999999046	0.000213623	0.000199318	-0.000171661	9.185791016	-1.58996582	3.025817871	0.010681153	0.009965897	-0.008583069	-0.575195313	-0.148681641	-0.789794922	884.04	-28.27335483	-69.334302	47.16784524	-74
62398	0	0.36581707	-0.064824104	0.122731209	0.999997139	-0.000816345	7.82E-05	-0.00019455	9.14542675	-1.620602608	3.06828022	-0.040817266	0.003910065	-0.009727479	-0.572998047	-0.148681641	-0.790039063	884	-28.28106625	-69.33974992	47.07880159	-74
62399	0	0.367858887	-0.070678711	0.119934082	0.999999046	-0.00056839	4.67E-05	-0.000366211	9.196472168	-1.766967773	2.998352051	-0.028419497	0.002336502	-0.018310548	-0.570556641	-0.146484375	-0.793212891	884	-28.2196557	-69.35761683	46.93934628	-74
62400	0	0.368041992	-0.070495605	0.123718262	0.999999046	7.72E-05	-4.20E-05	2.29E-05	9.201049805	-1.762390137	3.092956543	0.003862381	-0.002098083	0.001144409	-0.570556641	-0.146484375	-0.790283203	884.02	-28.20173062	-69.36311921	46.92695548	-74
62401	0	0.369445801	-0.069335938	0.125427246	0.999999046	-0.000331879	9.63E-05	3.81E-05	9.23614502	-1.733398438	3.135681152	-0.016593933	0.004816055	0.001907349	-0.570556641	-0.148681641	-0.79296875	883.94	-28.21514379	-69.35360391	46.9019438	-74
62402	0	0.367951393	-0.067373276	0.125818253	0.999999046	-0.000551224	0.000276566	0.0001297	9.198784828	-1.684331894	3.145456314	-0.02756119	0.013828279	0.006484986	-0.570556641	-0.144287109	-0.793212891	884.06	-28.25227293	-69.32071795	46.86889397	-74
62403	0	0.366577148	-0.068481445	0.122924805	0.999999046	0.000137329	0.000378609	0.000339508	9.164428711	-1.712036133	3.073120117	0.006866455	0.018930436	0.016975404	-0.568359375	-0.14453125	-0.790527344	884.12	-28.25220409	-69.26602723	46.88224061	-74
62404	0	0.366927147	-0.066438675	0.12321949	0.999999046	0.000309944	0.000127792	7.25E-05	9.173178673	-1.660966873	3.080487251	0.015497208	0.006389618	0.003623962	-0.570800781	-0.142089844	-0.793457031	884.06	-28.19710333	-69.25106986	46.85180792	-74
62405	0	0.369384766	-0.068847656	0.121398926	0.999999046	0.000713348	-0.000208855	5.72E-05	9.234619141	-1.721191406	3.034973145	0.035667423	-0.010442735	0.002861023	-0.568359375	-0.14453125	-0.793457031	884	-28.14028389	-69.27094541	46.86991478	-73
62406	0	0.369001389	-0.068164825	0.123843193	0.999999046	0.001316071	-0.000198364	0.000319481	9.225034714	-1.704120636	3.096079826	0.065803548	-0.009918216	0.01597405	-0.570556641	-0.146484375	-0.795898438	883.98	-28.08312116	-69.27551445	46.96108906	-73
62407	0	0.369140625	-0.065307617	0.122802734	0.999999046	0.000434875	0.000264168	0.000431061	9.228515625	-1.63269043	3.070068359	0.021743776	0.01320839	0.021553041	-0.570556641	-0.148681641	-0.79296875	883.96	-28.09065709	-69.22733431	47.01983162	-74
62408	0	0.367676735	-0.066069603	0.120490074	0.999999046	0.000494957	0.000175476	0.000553131	9.191918373	-1.651740074	3.012251854	0.024747851	0.008773805	0.027656558	-0.568115234	-0.148925781	-0.79296875	883.94	-28.13639217	-69.18160475	47.12564631	-74
62409	0	0.370056152	-0.063842773	0.120422363	0.999999046	0.001174927	-0.000296593	0.000370026	9.251403809	-1.596069336	3.010559082	0.058746354	-0.01482964	0.018501287	-0.5703125	-0.150878906	-0.792724609	883.96	-28.1223859	-69.19365864	47.25261731	-73
62410	0	0.369167328	-0.062664986	0.123950958	0.999999046	0.000471115	-0.000352859	-2.67E-05	9.229183197	-1.566624641	3.098773956	0.023555757	-0.017642976	-0.001335144	-0.5703125	-0.150878906	-0.792724609	883.94	-28.09104665	-69.23288485	47.27256056	-74
62411	0	0.369384766	-0.066650391	0.125427246	0.999999046	0.000240326	-9.06E-05	-2.29E-05	9.234619141	-1.666259766	3.135681152	0.012016297	-0.004529953	-0.001144409	-0.572753906	-0.153076172	-0.789550781	884.06	-28.04975596	-69.24527956	47.26051865	-74
62412	0	0.369105339	-0.067672729	0.125086784	0.999999046	0.000226021	8.01E-05	0.000144005	9.227633476	-1.691818237	3.127169609	0.011301041	0.004005432	0.007200241	-0.572753906	-0.150878906	-0.792724609	884.06	-28.03046006	-69.2312891	47.26325529	-74
62413	0	0.367980957	-0.068969727	0.123535156	0.999999046	0.000457764	0.00017643	0.000480652	9.199523926	-1.724243164	3.088378906	0.022888185	0.008821488	0.024032595	-0.5703125	-0.150878906	-0.792724609	884.08	-28.06098016	-69.1893163	47.34600328	-73
62414	0	0.368896484	-0.067687988	0.12310791	0.999999046	0.000759125	0.000110626	0.000514984	9.222412109	-1.692199707	3.077697754	0.037956243	0.005531312	0.02574921	-0.5703125	-0.150878906	-0.795654297	884.04	-28.07542778	-69.15211133	47.44530675	-74
62415	0	0.37121582	-0.065673828	0.123779297	0.999999046	0.000801086	8.87E-05	0.000263214	9.280395508	-1.641845703	3.094482422	0.040054326	0.004434586	0.013160707	-0.572753906	-0.153076172	-0.789550781	884	-28.02112985	-69.13075217	47.48428768	-73
62416	0	0.366949081	-0.062615395	0.125408173	0.999999046	-6.68E-06	0.000328064	0.000479698	9.173727036	-1.565384865	3.135204315	-0.000333786	0.016403199	0.02398491	-0.572753906	-0.150878906	-0.789794922	884	-28.08231086	-69.07349743	47.54487032	-73
62417	0	0.367553711	-0.064147949	0.123718262	0.999999046	-7.25E-05	0.000279427	0.000350952	9.188842773	-1.60369873	3.092956543	-0.003623963	0.013971329	0.017547608	-0.574951172	-0.155273438	-0.792236328	884	-28.12334412	-69.02813473	47.58576759	-73
62418	0	0.370544434	-0.064147949	0.125488281	0.999997139	-0.002220154	0.000488281	0.000602722	9.26361084	-1.60369873	3.137207031	-0.111007793	0.024414085	0.030136136	-0.5703125	-0.153076172	-0.792480469	884	-28.44623673	-68.94803165	47.66713096	-73
62419	0	0.365432739	-0.084331512	0.129096031	0.999997139	-0.000993729	0.000491142	0.000971794	9.135818481	-2.108287811	3.22740078	-0.04968645	0.024557123	0.048589724	-0.568359375	-0.146728516	-0.790283203	883.94	-28.72477991	-68.8466448	47.8449633	-73
62420	0	0.363983154	-0.067312241	0.128899574	0.999998093	0.001628876	0.000548363	0.000686646	9.099578857	-1.682806015	3.222489357	0.081443833	0.027418152	0.034332295	-0.570556641	-0.148681641	-0.790039063	884	-28.61909135	-68.75487701	47.93540591	-73
62421	0	0.370422363	-0.071350098	0.129455566	0.999999046	-0.000816345	0.000905037	0.000324249	9.260559082	-1.783752441	3.23638916	-0.040817272	0.045251858	0.016212468	-0.568115234	-0.146728516	-0.793212891	884.04	-28.64966827	-68.64698693	47.86875792	-73
62422	0	0.370688438	-0.078575134	0.128288269	0.999999046	-8.96E-05	0.000768661	0.000823975	9.26721096	-1.964378357	3.207206726	-0.00448227	0.038433083	0.041198739	-0.565917969	-0.14453125	-0.796386719	883.94	-28.74526199	-68.52509907	47.95663322	-73
62423	0	0.370910645	-0.069519043	0.123718262	0.999996185	0.001477242	0.000579834	0.002067566	9.272766113	-1.737976074	3.092956543	0.073862159	0.028991732	0.103378413	-0.568115234	-0.146728516	-0.799072266	883.98	-29.00212225	-68.35345407	48.41536447	-72
62424	0	0.365487099	-0.066142082	0.12671566	0.999997139	-0.000222206	0.00053978	0.002081871	9.137177467	-1.653552055	3.167891502	-0.011110314	0.026989004	0.104093633	-0.563476563	-0.144775391	-0.799316406	884.06	-29.4560304	-68.18409587	48.8762294	-72
62425	0	0.360656738	-0.063537598	0.126037598	0.999998093	-0.000823021	0.000457764	0.001140594	9.016418457	-1.588439941	3.150939941	-0.041151062	0.022888192	0.057029745	-0.566162109	-0.142333984	-0.793701172	884.06	-29.74998898	-68.07526192	49.09759892	-72
62426	0	0.35949707	-0.06854248	0.129272461	0.999999046	-0.000198364	0.000370026	0.000442505	8.987426758	-1.713562012	3.231811523	-0.009918214	0.018501283	0.022125246	-0.563720703	-0.137939453	-0.797119141	884.02	-29.81018138	-68.01457861	49.13378196	-72
62427	0	0.368494987	-0.072583199	0.124031067	0.999998093	-0.000189781	0.000581741	0.000415802	9.212374687	-1.814579964	3.100776672	-0.00948906	0.029087069	0.020790102	-0.565917969	-0.140136719	-0.802490234	884.08	-29.83293563	-67.93460652	49.13543245	-72
62428	0	0.362077713	-0.075119972	0.126696587	0.999999046	0.000668526	9.35E-05	-7.53E-05	9.051942825	-1.877999306	3.167414665	0.033426287	0.004673005	-0.003767014	-0.563720703	-0.138183594	-0.799804688	884.06	-29.70580434	-67.93112741	49.07560124	-72
62429	0	0.370849609	-0.066467285	0.129211426	0.999999046	0.000961304	2.38E-05	-0.000614166	9.271240234	-1.661682129	3.230285645	0.048065196	0.001192093	-0.03070832	-0.563720703	-0.142333984	-0.796630859	884.06	-29.42136377	-67.96522029	48.88836089	-72
62430	0	0.366843224	-0.072422028	0.129062653	0.999999046	-0.000799179	0.00053215	5.25E-05	9.171080589	-1.81055069	3.226566315	-0.03995896	0.026607518	0.002622605	-0.563720703	-0.142578125	-0.799560547	884.02	-29.43205517	-67.91089776	48.80408514	-72
62431	0	0.368835449	-0.073181152	0.129089355	0.999999046	-0.000339508	0.000351906	0.000637054	9.22088623	-1.829528809	3.227233887	-0.016975405	0.017595293	0.031852726	-0.561279297	-0.140380859	-0.802734375	884.04	-29.55864818	-67.84166868	48.89665597	-72
62432	0	0.363220215	-0.070678711	0.129943848	0.999999046	-0.001029015	0.000225067	0.000328064	9.080505371	-1.766967773	3.248596191	-0.05145074	0.011253359	0.016403202	-0.563720703	-0.140380859	-0.799804688	884.06	-29.70538503	-67.80249319	48.93377041	-72
62433	0	0.362609863	-0.07611084	0.132446289	0.999999046	8.01E-05	-1.05E-05	-0.00025177	9.065246582	-1.902770996	3.311157227	0.004005432	-0.000524521	-0.012588501	-0.561279297	-0.138183594	-0.802978516	884.02	-29.61622446	-67.81941992	48.8443375	-72
62434	0	0.367350578	-0.076394081	0.129580498	0.999999046	0.00094986	-0.0001297	-8.87E-05	9.183764458	-1.909852028	3.239512444	0.047492988	-0.006484986	-0.004434586	-0.561523438	-0.135986328	-0.797363281	883.94	-29.48398909	-67.83892172	48.81181916	-72
62435	0	0.3671875	-0.073547363	0.129638672	0.999998093	0.001404762	-0.000133514	0.000335693	9.1796875	-1.838684082	3.240966797	0.070238138	-0.006675723	0.016784674	-0.563720703	-0.140136719	-0.796875	883.94	-29.4040428	-67.83490407	48.89788023	-72
62436	0	0.364672661	-0.069212914	0.130833626	0.999998093	4.77E-05	6.58E-05	1.43E-05	9.116816521	-1.730322838	3.270840645	0.002384186	0.003290176	0.000715256	-0.561279297	-0.142578125	-0.802490234	884	-29.37279648	-67.82911808	48.86820521	-72
62437	0	0.363952637	-0.073242188	0.128051758	0.999999046	0.00018692	0.0001688	1.53E-05	9.098815918	-1.831054688	3.201293945	0.009346008	0.008440018	0.000762939	-0.561279297	-0.142578125	-0.802490234	883.98	-29.31181272	-67.81301926	48.82330026	-72
62438	0	0.367141724	-0.069604874	0.128200531	0.999999046	-0.000160217	-5.91E-05	-9.25E-05	9.178543091	-1.740121841	3.205013275	-0.008010864	-0.00295639	-0.00462532	-0.563720703	-0.142578125	-0.799560547	884.06	-29.29530276	-67.82591071	48.78725368	-72
62439	0	0.358703613	-0.069580078	0.130615234	0.999999046	-0.000892639	-0.000174522	-0.000133514	8.967590332	-1.739501953	3.265380859	-0.044631964	-0.008726121	-0.006675721	-0.563476563	-0.142578125	-0.802490234	884	-29.3681239	-67.85255099	48.75733423	-72
62440	0	0.360356331	-0.07228756	0.134326935	0.999999046	-0.00036335	-0.000518799	-0.000531197	9.008908272	-1.807188988	3.35817337	-0.018167498	-0.025939944	-0.026559833	-0.563720703	-0.140380859	-0.799804688	884.02	-29.32966905	-67.93564104	48.66949964	-72
62441	0	0.356567383	-0.07421875	0.134033203	0.999998093	-0.00171566	-0.000339508	-0.000518799	8.91418457	-1.85546875	3.350830078	-0.085783052	-0.016975412	-0.025939956	-0.561279297	-0.140380859	-0.799804688	884.04	-29.42403435	-67.99974179	48.56040126	-72
62442	0	0.356079102	-0.07989502	0.131408691	0.999997139	-0.001808167	-0.00030899	-0.000694275	8.901977539	-1.997375488	3.285217285	-0.090408383	-0.015449534	-0.034713767	-0.563720703	-0.138183594	-0.802734375	884.1	-29.48190693	-68.07029184	48.39975344	-72
62443	0	0.361011505	-0.080763817	0.131258011	0.999996185	-0.001893044	-0.000408173	-0.000724792	9.025287628	-2.019095421	3.281450272	-0.094652243	-0.020408645	-0.03623965	-0.563964844	-0.135742188	-0.797119141	884.08	-29.55629131	-68.15214463	48.24941772	-72
62444	0	0.364632607	-0.08258152	0.140852928	0.999980927	-0.005943298	-0.000863075	-0.000594139	9.115815163	-2.064538002	3.521323204	-0.297166721	-0.043154025	-0.029707135	-0.563964844	-0.133544922	-0.797363281	884.06	-30.19311955	-68.27133266	48.21770899	-72
62445	0	0.356445313	-0.092834473	0.15057373	0.999960899	-0.008663177	-0.001193047	-0.000389099	8.911132813	-2.320861816	3.764343262	-0.433164407	-0.05965309	-0.019455205	-0.564453125	-0.122802734	-0.801025391	884.02	-31.24594353	-68.4097058	48.30071503	-70
62446	0	0.351655006	-0.107985497	0.156124115	0.999988556	-0.004239082	-0.001238823	-0.001272202	8.79137516	-2.699637413	3.903102875	-0.211954863	-0.061941365	-0.063610301	-0.567382813	-0.109375	-0.802001953	884.06	-31.58585905	-68.6027486	48.14529889	-69
62447	0	0.352355957	-0.108459473	0.158325195	0.999996185	0.001294136	-0.000843048	-0.002246857	8.808898926	-2.711486816	3.958129883	0.064706883	-0.042152457	-0.112342974	-0.567382813	-0.109375	-0.802001953	883.94	-30.98504341	-68.81253352	47.65019912	-67
62448	0	0.353579521	-0.104271889	0.155742645	0.999987602	0.004481316	-0.000379562	-0.002086639	8.839488029	-2.606797218	3.893566132	0.224066699	-0.018978197	-0.104332398	-0.569580078	-0.115966797	-0.795654297	884	-29.97948985	-68.96256938	47.1115791	-66
62449	0	0.357116699	-0.098876953	0.161376953	0.999969482	0.007588387	0.00038147	-0.001491547	8.92791748	-2.471923828	4.034423828	0.379423118	0.019073677	-0.074578077	-0.566650391	-0.124755859	-0.798095703	884.12	-28.6515722	-68.99705372	46.59596612	-67
62450	0	0.360711098	-0.079936981	0.168446541	0.999968529	0.007316589	0.002786636	-0.000965118	9.017777443	-1.99842453	4.211163521	0.365833262	0.139333263	-0.048256421	-0.565917969	-0.142333984	-0.799316406	884.12	-27.15730618	-68.75339373	45.88134337	-69
62451	0	0.350280762	-0.065368652	0.18170166	0.999986649	-0.000170708	0.005062103	-0.00069809	8.757019043	-1.634216309	4.542541504	-0.008535422	0.253106266	-0.034904632	-0.563232422	-0.151367188	-0.798828125	884.08	-26.3140677	-68.25568188	44.96854956	-72
62452	0	0.355736732	-0.077698708	0.209090233	0.999970436	-0.002617836	0.006971359	-0.001393318	8.893418312	-1.94246769	5.227255821	-0.130893052	0.348571297	-0.069666575	-0.553955078	-0.147216797	-0.802490234	884	-25.38077997	-67.58721286	43.6543711	-71
62453	0	0.363647461	-0.076782227	0.226318359	0.99993515	0.004616737	0.009883881	-0.003223419	9.091186523	-1.919555664	5.657958984	0.230841847	0.494204689	-0.161174435	-0.539794922	-0.147705078	-0.811767578	883.94	-22.9317757	-66.6818355	41.56773849	-72
62454	0	0.351285934	-0.055106163	0.234016418	0.999853134	0.009087563	0.012928963	-0.006528854	8.782148361	-1.377654076	5.850410461	0.454400272	0.64647964	-0.326458627	-0.522216797	-0.163818359	-0.825683594	884.1	-19.09095467	-65.53973671	38.4934794	-72
62455	0	0.34954834	-0.052978516	0.247619629	0.999808311	0.008060455	0.015660286	-0.008495331	8.738708496	-1.324462891	6.190490723	0.403048456	0.783064208	-0.424793616	-0.497558594	-0.186767578	-0.839599609	884.02	-15.04711117	-64.07812162	35.03820536	-63
62456	0	0.360368729	-0.039503098	0.257663727	0.999714851	0.007178307	0.019834518	-0.011157036	9.009218216	-0.987577438	6.44159317	0.3589494	0.991820063	-0.557904747	-0.468505859	-0.205322266	-0.851074219	884.02	-10.74942995	-62.11181866	31.13477834	-70
62457	0	0.347961426	-0.030517578	0.264648438	0.999629021	0.002700806	0.023163795	-0.014022827	8.699035645	-0.762939453	6.616210938	0.135056955	1.15833276	-0.701227918	-0.425048828	-0.2265625	-0.863037109	884.02	-6.842438722	-59.69426622	27.02979553	-69
62458	0	0.359898567	-0.034881592	0.284013748	0.999510765	0.000452042	0.027122498	-0.015489578	8.99746418	-0.872039795	7.100343704	0.022605759	1.356345517	-0.774604919	-0.379638672	-0.241455078	-0.884521484	884.02	-3.479927284	-56.7153009	23.15758932	-77
62459	0	0.346618652	-0.015930176	0.273925781	0.999365807	-0.006309509	0.030591011	-0.017074585	8.665466309	-0.398254395	6.848144531	-0.315542128	1.529873768	-0.853909653	-0.320068359	-0.250244141	-0.906982422	884.08	-1.206230879	-53.24816527	19.54817837	-69
62460	0	0.338614464	-0.038386345	0.279500961	0.999170303	-0.0154953	0.033238411	-0.017696381	8.465361595	-0.959658623	6.987524033	-0.774979275	1.662380151	-0.885063727	-0.254394531	-0.241699219	-0.925537109	884.02	-0.387420805	-49.42341417	16.31048106	-79
62461	0	0.310424805	-0.056640625	0.287658691	0.999042511	-0.016768456	0.035892487	-0.018539429	7.760620117	-1.416015625	7.191467285	-0.838690345	1.795197056	-0.927267265	-0.186767578	-0.217773438	-0.951171875	884.02	-0.001084129	-45.27377296	13.25683516	-77
62462	0	0.288391113	-0.063415527	0.28326416	0.999097824	-0.013041496	0.035470009	-0.019351959	7.209777832	-1.585388184	7.081604004	-0.652270889	1.774033724	-0.967888912	-0.112548828	-0.191894531	-0.966064453	884	0.549991944	-41.15681721	10.32953406	-69
62463	0	0.26965332	-0.075622559	0.277954102	0.999193192	-0.009913445	0.034328461	-0.018318176	6.741333008	-1.890563965	6.948852539	-0.495805516	1.716884594	-0.916155108	-0.040527344	-0.170166016	-0.977294922	884.02	1.052374259	-37.15568886	7.76962546	-71
62464	0	0.256713867	-0.079833984	0.268737793	0.999237061	-0.009361267	0.033242226	-0.018226624	6.41784668	-1.995849609	6.718444824	-0.468182394	1.662533995	-0.911562949	0.029052734	-0.150634766	-0.982910156	884.02	1.36499958	-33.26918921	5.387420764	-70
62465	0	0.216308594	-0.084960938	0.268615723	0.999189377	-0.018324852	0.031799316	-0.01651001	5.407714844	-2.124023438	6.715393066	-0.916490101	1.590395312	-0.825723478	0.09375	-0.126464844	-0.976806641	884	0.349699362	-29.56743216	3.367744988	-83
62466	0	0.190551758	-0.132809639	0.259030342	0.999198914	-0.019673347	0.030966759	-0.015903473	4.763793945	-3.320240974	6.475758553	-0.983929694	1.54875084	-0.795385698	0.157470703	-0.082519531	-0.978271484	884.08	-0.978908643	-26.00328982	1.417209761	-79
62467	0	0.133422852	-0.147827148	0.230102539	0.999314308	-0.0128479	0.030785561	-0.016021729	3.335571289	-3.695678711	5.752563477	-0.642541738	1.539629591	-0.801269389	0.214355469	-0.042724609	-0.967529297	883.96	-1.639130655	-22.49597593	-0.584457724	-83
62468	0	0.100841522	-0.145507813	0.222932816	0.999420166	-0.011695862	0.029273033	-0.012812614	2.521038055	-3.637695313	5.573320389	-0.584906002	1.463934257	-0.640754414	0.273925781	-0.01171875	-0.961914063	883.94	-2.432749785	-19.17623554	-2.183991576	-69
62469	0	0.073425293	-0.157775879	0.159606934	0.999099731	-0.024416924	0.034584045	-0.002628326	1.835632324	-3.944396973	3.99017334	-1.221212554	1.729721207	-0.131455759	0.330810547	0.019287109	-0.938964844	884.02	-5.12153441	-15.22437164	-2.59506503	-69
62470	0	-0.026558876	-0.205046654	0.149917603	0.999205589	-0.02015686	0.034370422	0.000658989	-0.663971901	-5.126166344	3.747940063	-1.008109961	1.718976296	0.032958175	0.391601563	0.072265625	-0.91796875	884.02	-7.419915191	-11.28169467	-2.845674449	-70
62471	0	-0.057128906	-0.163146973	0.094299316	0.999272346	-0.010650635	0.036568642	0.00189209	-1.428222656	-4.078674316	2.35748291	-0.532660898	1.828875549	0.094627437	0.455810547	0.098876953	-0.886474609	884.02	-8.657596239	-7.079705152	-3.140816151	-84
62472	0	-0.037024498	-0.166132927	0.071500778	0.999185562	-0.00935936	0.039004326	0.004342079	-0.92561245	-4.153323174	1.787519455	-0.468095039	1.950745771	0.217162901	0.522460938	0.114501953	-0.851318359	884.02	-9.794238348	-2.564156746	-3.287456288	-74
62473	0	0.082458496	-0.073364258	0.068664551	0.99869442	-0.007572174	0.048382759	0.014472961	2.061462402	-1.834106445	1.71661377	-0.378773446	2.420190586	0.72396295	0.594482422	0.114501953	-0.806640625	883.96	-10.74314029	3.208018158	-2.56334201	-90
62474	0	0.051746368	-0.095504761	0.110860825	0.998215675	-0.003046036	0.056497574	0.019080162	1.29365921	-2.387619019	2.771520615	-0.152392434	2.826559985	0.954575902	0.677734375	0.112304688	-0.730957031	884.02	-11.07273978	9.998790595	-1.660406413	-69
62475	0	0.034423828	0.05065918	-0.261352539	0.998538017	0.010700226	0.052716255	-0.005321503	0.860595703	1.266479492	-6.533813477	0.535272169	2.63709801	-0.266204875	0.767089844	0.076904297	-0.652832031	884.02	-10.32669876	15.84157545	-3.214093411	-68
62476	0	-0.15201664	-0.263447762	-0.72758007	0.999684334	0.00924015	0.019374847	-0.013001442	-3.800415993	-6.586194038	-18.18950176	0.462056032	0.968844086	-0.650140353	0.826660156	0.08203125	-0.587646484	884	-9.936628561	17.7969312	-4.862627014	-68
62477	0	0.199035645	-0.454589844	-1.083557129	0.994594574	0.02713871	-0.081783295	0.057922363	4.975891113	-11.36474609	-27.08892822	1.359385369	-4.096547482	2.901346936	0.836425781	0.06640625	-0.578369141	883.9	-5.053966748	9.377379839	2.306575531	-67
62478	0	2.515595436	-0.155920029	1.487176895	0.907553673	0.268583298	-0.263727188	0.186161995	62.8898859	-3.898000717	37.17942238	13.85892278	-13.60834707	9.605975998	0.66796875	-0.146484375	-0.760742188	883.96	25.65651987	-24.99750425	1.811376157	-62
62479	0	1.850036621	5.403076172	2.177368164	0.926506042	0.24342823	-0.114974976	0.262886047	46.25091553	135.0769043	54.4342041	12.47863547	-5.893855477	13.47608349	-0.021240234	-0.92578125	-0.392822266	884.02	39.86420977	-53.28309707	27.27790394	-63
62480	0	0.467762947	1.041391373	0.373360634	0.992713928	-0.058599472	0.03646183	-0.098768234	11.69407368	26.03478432	9.334015846	-2.937110144	1.827532014	-4.95044021	-0.30078125	-0.937011719	-0.224853516	884.06	40.21148666	-42.67342565	20.74983971	-69
62481	0	0.465393066	0.445739746	-0.336669922	0.97582531	-0.177333832	0.028237343	-0.124580383	11.63482666	11.14349365	-8.416748047	-8.938839489	1.423355446	-6.279704434	-0.086669922	-0.916992188	-0.424316406	884.02	27.69940991	-31.81299786	9.032369889	-71
62482	0	0.405667305	-0.364897728	0.087387085	0.986944199	-0.138821602	0.039738655	-0.071345329	10.14168262	-9.122443199	2.184677124	-6.971445386	1.995625032	-3.582872262	0.132080078	-0.689697266	-0.729492188	884.02	15.17510073	-24.58051347	2.313293303	-73
62483	0	0.071166992	-0.183044434	-0.026306152	0.997673035	-0.017931938	0.015781403	-0.063850403	1.779174805	-4.57611084	-0.657653809	-0.897292851	0.789682609	-3.19499819	0.264892578	-0.515136719	-0.833984375	884.12	16.13669904	-20.935766	-5.059287712	-78
62484	0	0.139099121	-0.108764648	-0.057617188	0.99886322	-0.029064178	-0.007277489	-0.037063599	3.477478027	-2.719116211	-1.440429688	-1.453759623	-0.364012327	-1.853882201	0.330322266	-0.449462891	-0.840087891	884.08	14.66541458	-20.69135672	-9.779922624	-79
62485	0	0.107020378	-0.164819717	0.169272423	0.999499321	0.008508682	-0.028399467	-0.010877609	2.675509453	-4.120492935	4.23181057	0.425504855	-1.420209491	-0.543970901	0.330566406	-0.390380859	-0.870849609	884.08	16.62797222	-23.59645863	-12.14579738	-88
62486	0	0.238038063	-0.067045212	0.287661552	0.998042107	0.047826767	-0.039216995	0.009298325	5.950951576	-1.676130295	7.191538811	2.392900185	-1.962130437	0.465219876	0.282958984	-0.430419922	-0.864990234	884.08	22.43098688	-28.33073948	-12.79676412	-79
62487	0	0.278076172	0.115112305	0.259216309	0.997992516	0.021903992	-0.046011925	0.037582397	6.951904297	2.877807617	6.480407715	1.095932743	-2.302136321	1.880377809	0.201660156	-0.521728516	-0.830078125	884.12	23.86819033	-35.03582335	-10.60709466	-73
62488	0	0.336787224	0.037394524	0.271887779	0.997736931	0.009533882	-0.052289963	0.041160583	8.419680595	0.934863091	6.797194481	0.477053895	-2.61647145	2.059582488	0.083251953	-0.548583984	-0.832763672	884.08	23.45554302	-42.64127396	-8.160422357	-70
62489	0	0.37878418	0.069946289	0.258972168	0.995767593	0.059361458	-0.056407928	0.041713715	9.469604492	1.748657227	6.474304199	2.972266744	-2.824381611	2.08863278	-0.044921875	-0.585693359	-0.800048828	884.18	28.70105169	-50.8263172	-6.071078889	-75
62490	0	0.494668007	0.561313629	0.484985352	0.995361328	0.087096214	-0.029528618	0.02820015	12.36670017	14.03284073	12.12463379	4.361554632	-1.478717313	1.412191033	-0.173828125	-0.692382813	-0.689697266	884.08	37.77570416	-55.55566763	-4.856282903	-75
62491	0	0.345336914	0.431091309	0.35723877	0.999955177	0.002471924	-0.001891136	0.008876801	8.633422852	10.77728271	8.930969238	0.123598014	-0.094558203	0.443846573	-0.226074219	-0.766601563	-0.59765625	884.08	37.47561091	-56.30220892	-3.920001271	-75
62492	0	0.262989998	0.133200645	0.152760506	0.999558449	0.024456978	0.013286591	-0.010368347	6.574749947	3.330016136	3.819012642	1.223028759	0.664427244	-0.518493612	-0.228759766	-0.766601563	-0.592041016	884.12	40.57125261	-54.3262628	-4.140992386	-76
62493	0	0.292358398	0.082519531	0.116394043	0.999825478	0.014167786	0.007630348	-0.009433746	7.308959961	2.062988281	2.909851074	0.708430369	0.381539538	-0.471714675	-0.197265625	-0.800292969	-0.559326172	884.12	42.79485578	-52.94073809	-4.743535186	-75
62494	0	0.303571701	0.099833488	0.165008545	0.999922752	0.010541916	0.00186348	-0.006280899	7.589292526	2.495837212	4.125213623	0.527109329	0.093176373	-0.314053016	-0.17578125	-0.814208984	-0.548095703	884	44.71368038	-52.29950375	-5.529894885	-75
62495	0	0.28729248	0.162597656	0.160644531	0.999960899	0.007728577	-0.002993584	0.002975464	7.182312012	4.064941406	4.016113281	0.386433828	-0.149681119	0.148775116	-0.168457031	-0.829589844	-0.524169922	884.06	45.81368751	-52.78604993	-5.690690545	-75
62496	0	0.300643921	0.183340073	0.159866333	0.99998188	0.003951073	-0.003414154	0.00266552	7.516098022	4.583501816	3.996658325	0.197554766	-0.170708681	0.133276749	-0.177734375	-0.835693359	-0.514648438	884.16	46.56960655	-53.27206643	-5.967690589	-73
62497	0	0.325378418	0.210693359	0.153625488	0.999991417	0.001308441	-0.00285244	0.002475739	8.134460449	5.267333984	3.840637207	0.065422232	-0.142622374	0.123787256	-0.187255859	-0.835449219	-0.514160156	884.08	47.00912892	-53.68940419	-6.223760074	-73
62498	0	0.329589844	0.218566895	0.143249512	0.999976158	0.006687164	0.000110626	-0.001583099	8.239746094	5.464172363	3.581237793	0.334360848	0.005531355	-0.079155591	-0.189453125	-0.839599609	-0.508056641	884.06	48.18839059	-53.5260138	-6.624601144	-73
62499	0	0.330688477	0.204284668	0.136535645	0.999992371	0.002789497	0.002361298	-0.001281738	8.267211914	5.107116699	3.413391113	0.139475217	0.118065176	-0.064087074	-0.182373047	-0.846435547	-0.490722656	884.12	48.6390801	-53.21391288	-6.659566671	-73
62500	0	0.324982643	0.168334007	0.135185242	0.99998951	-0.003691673	0.002038956	-0.001461029	8.124566078	4.208350182	3.379631042	-0.184584277	0.101948123	-0.073051695	-0.179931641	-0.848632813	-0.490478516	884.12	48.38465503	-52.92625761	-6.747047908	-74
62501	0	0.296325684	0.168273926	0.15020752	0.999997139	0.001880646	-0.000697136	-0.000526428	7.40814209	4.206848145	3.755187988	0.094032355	-0.034856821	-0.02632143	-0.175292969	-0.844482422	-0.496826172	883.96	48.95858772	-52.92841955	-7.095620417	-75
62502	0	0.296855927	0.173219681	0.160434723	0.999956131	0.009068489	-0.002022743	-0.001116753	7.421398163	4.33049202	4.010868073	0.453431072	-0.101138638	-0.055838446	-0.179931641	-0.848632813	-0.493408203	884.18	50.53573848	-52.96937988	-7.689333086	-76
62503	0	0.3125	0.191833496	0.162231445	0.999973297	0.0070467	-0.001754761	-3.81E-06	7.8125	4.795837402	4.055786133	0.352338073	-0.087738808	-0.000190737	-0.175048828	-0.859619141	-0.47265625	884.06	51.72105776	-53.072965	-8.083586168	-76
62504	0	0.321691513	0.193157196	0.148202896	0.999994278	0.003351212	-0.00042057	-0.000133514	8.042287827	4.828929901	3.705072403	0.167560896	-0.021028559	-0.006675733	-0.177490234	-0.863769531	-0.466552734	884.08	52.32219085	-53.06858773	-8.284400971	-76
62505	0	0.317565918	0.200927734	0.13671875	0.999998093	0.001454353	0.000389099	-0.000354767	7.939147949	5.023193359	3.41796875	0.072717696	0.019454964	-0.017738349	-0.177490234	-0.865966797	-0.463623047	884.08	52.62608248	-52.98663121	-8.386650787	-75
62506	0	0.31573391	0.19647789	0.134867668	0.999996185	0.002530098	0.000287056	-0.000270844	7.89334774	4.91194725	3.371691704	0.126505036	0.014352814	-0.01354219	-0.177490234	-0.863769531	-0.458007813	884.08	53.05187173	-52.92115419	-8.491298902	-75
62507	0	0.310852051	0.187927246	0.137084961	0.999992371	0.003754616	0.000240326	-0.000671387	7.77130127	4.698181152	3.427124023	0.187731246	0.012016326	-0.033569418	-0.175048828	-0.870605469	-0.457519531	884.08	53.6455778	-52.8246985	-8.637544389	-76
62508	0	0.316081047	0.19203186	0.139950752	0.99998188	0.005949974	0.00021553	0.000480652	7.902026176	4.800796509	3.498768806	0.297500472	0.010776584	0.024032736	-0.175048828	-0.874755859	-0.445800781	884.08	54.37586074	-52.83819755	-8.645308418	-76
62509	0	0.314758301	0.201843262	0.141601563	0.999986649	0.004975319	0.000972748	-0.000354767	7.86895752	5.046081543	3.540039063	0.248767016	0.048637599	-0.017738419	-0.175048828	-0.879150391	-0.431152344	884.16	54.96308031	-52.72104155	-8.616705953	-75
62510	0	0.318680763	0.19747448	0.138738632	0.999997139	0.001588821	0.001434326	3.24E-05	7.967019081	4.936861992	3.468465805	0.079441131	0.071716363	0.001621248	-0.175048828	-0.883544922	-0.427978516	884.22	55.05887981	-52.61223663	-8.463911559	-75
62511	0	0.304748535	0.200195313	0.133972168	0.999988556	0.004460335	0.000255585	-0.001411438	7.618713379	5.004882813	3.349304199	0.223017555	0.012779283	-0.070572158	-0.170166016	-0.885742188	-0.425048828	884.02	55.74442095	-52.44303411	-8.645458589	-75
62512	0	0.311196327	0.201021194	0.130088806	0.999978065	0.006489754	0.000139236	-0.000639915	7.77990818	5.025529861	3.252220154	0.324489987	0.006961872	-0.031996	-0.16796875	-0.887939453	-0.413574219	883.94	56.6041892	-52.35484112	-8.756381604	-76
62513	0	0.305419922	0.202514648	0.12286377	0.999994278	0.00313282	0.000362396	-0.000476837	7.635498047	5.062866211	3.071594238	0.156641272	0.018119843	-0.023841898	-0.167724609	-0.89453125	-0.41015625	884	57.03469505	-52.26849176	-8.811117639	-76
62514	0	0.3158741	0.204958916	0.127243996	0.999995232	0.002784729	-0.000106812	0.000161171	7.896852493	5.123972893	3.181099892	0.139236631	-0.005340583	0.008058558	-0.165283203	-0.898925781	-0.401367188	884.02	57.42651067	-52.27475981	-8.868198531	-76
62515	0	0.31237793	0.209472656	0.132263184	0.999993324	0.003559113	0.000390053	-0.000480652	7.809448242	5.236816406	3.30657959	0.177956015	0.019502682	-0.024032645	-0.167724609	-0.898925781	-0.401367188	884.08	57.88853483	-52.18729243	-8.908918711	-76
62516	0	0.312379837	0.209787369	0.130040169	0.999990463	0.004188538	0.000285149	-0.001075745	7.809495926	5.244684219	3.251004219	0.209427535	0.014257476	-0.0537874	-0.165283203	-0.901123047	-0.395507813	884.08	58.47455976	-52.04759779	-9.018144401	-76
62517	0	0.307128906	0.201416016	0.123413086	0.999995232	0.002696991	-6.68E-06	-0.000606537	7.678222656	5.035400391	3.085327148	0.13484972	-0.000333786	-0.030326882	-0.165283203	-0.905273438	-0.386474609	884.02	58.88214034	-51.97275599	-9.118833454	-76
62518	0	0.308588028	0.207638741	0.121985435	0.999997139	0.002109528	-0.000423431	-3.72E-05	7.714700699	5.190968513	3.049635887	0.105476461	-0.021171586	-0.001859666	-0.163085938	-0.907714844	-0.383544922	884.02	59.22734648	-51.97911813	-9.228357434	-75
62519	0	0.309875488	0.214660645	0.12677002	0.999996185	0.002587318	-0.000484467	-0.000339508	7.746887207	5.366516113	3.169250488	0.129366073	-0.024223356	-0.016975423	-0.160888672	-0.907714844	-0.372314453	884.02	59.65286351	-51.9572289	-9.371546497	-75
62520	0	0.313642502	0.210600853	0.129101753	0.999997139	0.001948357	8.20E-05	-0.000272751	7.841062546	5.265021324	3.227543831	0.097417894	0.004100802	-0.013637552	-0.162841797	-0.911865234	-0.374755859	884.06	59.92051923	-51.90931373	-9.413093879	-75
62521	0	0.304626465	0.211547852	0.124328613	0.999999046	0.000167847	0.000523567	0.00018692	7.615661621	5.288696289	3.108215332	0.008392334	0.026178361	0.009346009	-0.160644531	-0.912109375	-0.369140625	884.02	59.88973568	-51.88035327	-9.335342556	-75
62522	0	0.311340332	0.209228516	0.123291016	0.999999046	9.92E-05	0.000572205	0.000152588	7.783508301	5.230712891	3.082275391	0.004959107	0.028610231	0.007629395	-0.160644531	-0.912109375	-0.372070313	884.02	59.8433326	-51.8465514	-9.251246222	-75
62523	0	0.312015533	0.211081505	0.123871803	0.999997139	0.001243591	0.000527382	0.000137329	7.800388336	5.277037621	3.096795082	0.062179585	0.026369103	0.006866457	-0.163085938	-0.911865234	-0.366210938	884.08	59.93154329	-51.81467115	-9.172526884	-75
62524	0	0.308761597	0.217000008	0.124615669	0.999997139	0.002007484	0.000425339	-0.00053215	7.719039917	5.425000191	3.115391731	0.100374297	0.021266953	-0.026607533	-0.160644531	-0.9140625	-0.365966797	884.02	60.16692711	-51.7210582	-9.171513527	-75
62525	0	0.306945801	0.212158203	0.121398926	0.999999046	0.000778198	0.000477791	-0.000167847	7.67364502	5.303955078	3.034973145	0.038909918	0.023889545	-0.008392335	-0.158447266	-0.914306641	-0.36328125	884.02	60.22627309	-51.6609016	-9.126231138	-74
62526	0	0.306938171	0.212515831	0.124839783	0.999999046	0.000888824	0.000329971	-0.000762939	7.673454285	5.312895775	3.120994568	0.044441234	0.01649857	-0.038146982	-0.158447266	-0.914306641	-0.360351563	884.02	60.3561541	-51.54979115	-9.156352691	-74
62527	0	0.311767578	0.208312988	0.120727539	0.999999046	0.001220703	0.000275612	0.000320435	7.794189453	5.207824707	3.018188477	0.061035173	0.013780598	0.016021733	-0.156005859	-0.916503906	-0.360351563	884	60.45089196	-51.55206611	-9.094686769	-74
62528	0	0.304822922	0.218782425	0.118163109	0.999999046	8.68E-05	3.81E-05	6.01E-05	7.620573044	5.469560623	2.954077721	0.004339218	0.001907349	0.003004074	-0.156005859	-0.916503906	-0.36328125	884.06	60.46519999	-51.54083167	-9.096209637	-74
62529	0	0.311828613	0.215209961	0.122375488	0.999999046	1.91E-05	9.25E-05	0.000148773	7.795715332	5.380249023	3.059387207	0.000953674	0.00462532	0.00743866	-0.158203125	-0.918457031	-0.357177734	884.12	60.45705443	-51.53594976	-9.078087071	-74
62530	0	0.308815956	0.211826324	0.12571907	0.999999046	0.000988007	-0.000104904	-0.000293732	7.720398903	5.295658112	3.142976761	0.049400338	-0.00524521	-0.014686587	-0.158203125	-0.918701172	-0.360107422	884.08	60.61269998	-51.49842	-9.130672453	-74
62531	0	0.307739258	0.216186523	0.125244141	0.999998093	0.001297951	0.000263214	-0.000404358	7.693481445	5.404663086	3.131103516	0.064897558	0.01316071	-0.020217902	-0.156005859	-0.916503906	-0.354736328	884.08	60.76309858	-51.42852576	-9.131845319	-74
62532	0	0.310983658	0.210954666	0.121259689	0.999999046	0.000836372	9.35E-05	-0.000305176	7.774591446	5.273866653	3.031492233	0.041818624	0.004673005	-0.015258791	-0.156005859	-0.918701172	-0.354492188	884.12	60.87294738	-51.37954166	-9.14982468	-74
62533	0	0.303161621	0.215698242	0.117370605	0.999999046	0.000892639	-3.72E-05	-0.000473022	7.579040527	5.392456055	2.934265137	0.044631966	-0.001859665	-0.023651127	-0.156005859	-0.920898438	-0.354248047	884.08	61.01767033	-51.32071572	-9.204024623	-74
62534	0	0.305419922	0.215270996	0.121032715	0.999999046	0.001235962	-0.000114441	0.00019455	7.635498047	5.381774902	3.025817871	0.061798112	-0.005722047	0.009727481	-0.153564453	-0.923095703	-0.351318359	884.02	61.16387523	-51.33298779	-9.210012569	-74
62535	0	0.308410645	0.218444824	0.120727539	0.999999046	-0.000137329	7.34E-05	-1.53E-05	7.710266113	5.461120605	3.018188477	-0.006866455	0.003671646	-0.000762939	-0.153808594	-0.920898438	-0.345947266	884	61.14311452	-51.31369514	-9.203505724	-74
62536	0	0.306554794	0.214513779	0.120159149	0.999997139	0.000535011	0.000101089	0.000236511	7.663869858	5.362844467	3.003978729	0.026750566	0.005054474	0.011825562	-0.153564453	-0.920898438	-0.3515625	884.06	61.17757997	-51.31850665	-9.170993822	-73
62537	0	0.30847168	0.215576172	0.120849609	0.999999046	0.000587463	-9.44E-05	6.48E-05	7.711791992	5.389404297	3.021240234	0.029373171	-0.004720688	0.003242493	-0.153564453	-0.920898438	-0.348632813	884.02	61.25346354	-51.31723035	-9.183734024	-73
62538	0	0.306213379	0.221191406	0.119995117	0.999999046	-0.000740051	0.000396729	0.000202179	7.655334473	5.529785156	2.99987793	-0.037002568	0.019836428	0.010108949	-0.153808594	-0.920898438	-0.345947266	884.06	61.10642883	-51.30184615	-9.104998132	-74
62539	0	0.309601784	0.213155746	0.118828773	0.999998093	-0.001036644	0.000171661	0.000116348	7.740044594	5.328893661	2.970719337	-0.051832209	0.00858307	0.005817414	-0.151367188	-0.918701172	-0.354736328	884.06	60.95904826	-51.29130011	-9.071038767	-74
62540	0	0.309437752	0.216144562	0.122694969	0.999999046	0.000815392	-0.000576019	-0.000401497	7.735943794	5.403614044	3.067374229	0.040769585	-0.02880097	-0.020074848	-0.153564453	-0.920898438	-0.3515625	883.96	61.15233033	-51.27051299	-9.201430288	-74
62541	0	0.305969238	0.216186523	0.124267578	0.999998093	0.001294136	-0.000411987	-0.00043869	7.649230957	5.404663086	3.106689453	0.064706824	-0.020599372	-0.021934517	-0.151367188	-0.918701172	-0.349121094	884.08	61.3807741	-51.2363207	-9.307646331	-74
62542	0	0.303866386	0.215549469	0.122422218	0.999999046	0.001028061	8.77E-05	-2.00E-05	7.59665966	5.388736725	3.060555458	0.051403055	0.004386903	-0.001001358	-0.151123047	-0.923095703	-0.348632813	884.08	61.4861102	-51.21640336	-9.295488873	-74
62543	0	0.306335449	0.214660645	0.117248535	0.999999046	-0.00038147	0.000256538	0.000240326	7.65838623	5.366516113	2.931213379	-0.019073487	0.01282692	0.012016297	-0.151123047	-0.923095703	-0.348632813	884.08	61.39104642	-51.2140032	-9.233367059	-74
62544	0	0.307294846	0.219366074	0.118854523	0.999999046	6.77E-05	-2.10E-05	0.000339508	7.68237114	5.48415184	2.971363068	0.003385544	-0.001049042	0.016975403	-0.151367188	-0.920898438	-0.348876953	884.06	61.37579767	-51.23668383	-9.207692118	-73
62545	0	0.304504395	0.215942383	0.117980957	0.999999046	-0.000148773	-6.77E-05	0.00069809	7.612609863	5.39855957	2.949523926	-0.00743866	-0.003385544	0.034904483	-0.153564453	-0.923095703	-0.348632813	884.02	61.31709539	-51.29804023	-9.15778554	-73
62546	0	0.308053017	0.213339806	0.120260239	0.999999046	0.000165939	-0.000486374	0.000494957	7.701325417	5.33349514	3.006505966	0.008296967	-0.024318697	0.024747851	-0.153564453	-0.920898438	-0.3515625	884.06	61.36016202	-51.3625216	-9.193075353	-74
62547	0	0.313293457	0.21875	0.126281738	0.999999046	0.000343323	-0.000273705	2.29E-05	7.832336426	5.46875	3.157043457	0.017166138	-0.013685227	0.001144409	-0.158203125	-0.922851563	-0.345458984	884.02	61.42783224	-51.36776811	-9.23367846	-73
62548	0	0.308914185	0.216560364	0.12169075	0.999999046	0.000231743	0.000131607	-0.000107765	7.722854614	5.414009094	3.042268753	0.011587143	0.006580353	-0.00538826	-0.153808594	-0.920898438	-0.345947266	884.02	61.44005908	-51.33767091	-9.220455098	-73
62549	0	0.305541992	0.213623047	0.117431641	0.999999046	-0.000102997	0.000267982	-0.000125885	7.638549805	5.340576172	2.935791016	-0.005149841	0.013399124	-0.006294251	-0.153564453	-0.920898438	-0.348632813	884.02	61.39812543	-51.29858401	-9.187193455	-73
62550	0	0.306095123	0.216849327	0.118188858	0.999999046	0.000219345	4.77E-05	0.000331879	7.652378082	5.421233177	2.954721451	0.010967255	0.002384186	0.016593934	-0.153808594	-0.920898438	-0.345947266	884.06	61.38981709	-51.31760801	-9.149168785	-74
62551	0	0.307800293	0.218444824	0.121032715	0.999999046	2.29E-05	2.77E-05	3.43E-05	7.695007324	5.461120605	3.025817871	0.001144409	0.001382828	0.001716614	-0.153808594	-0.920898438	-0.343017578	884.12	61.38178239	-51.30758919	-9.140205508	-73
62552	0	0.307128906	0.215270996	0.120056152	0.999999046	-5.63E-05	0.000213623	0.000179291	7.678222656	5.381774902	3.001403809	-0.002813339	0.010681152	0.008964539	-0.153564453	-0.923095703	-0.348632813	884.02	61.33114456	-51.30208206	-9.088962777	-73
62553	0	0.307983398	0.215087891	0.119750977	0.999999046	0.000488281	-2.57E-05	-0.000125885	7.699584961	5.377197266	2.993774414	0.024414064	-0.00128746	-0.006294251	-0.153564453	-0.920898438	-0.3515625	884.02	61.39375128	-51.27929211	-9.103276208	-73
62554	0	0.308010101	0.217060089	0.119607925	0.999997139	0.000116348	1.72E-05	0.000128746	7.700252533	5.426502228	2.990198135	0.005817413	0.000858307	0.006437302	-0.153564453	-0.923095703	-0.348632813	884.06	61.39098086	-51.27983225	-9.087734018	-73
62555	0	0.306518555	0.214111328	0.118469238	0.999999046	0.000801086	-7.15E-05	2.29E-05	7.662963867	5.352783203	2.961730957	0.040054326	-0.003576279	0.001144409	-0.153564453	-0.923095703	-0.351318359	884.02	61.48502402	-51.27486796	-9.096166247	-73
62556	0	0.306910515	0.21837616	0.118502617	0.999998093	-0.000116348	2.96E-05	0.000311852	7.672762871	5.459403992	2.962565422	-0.005817413	0.001478195	0.015592575	-0.153808594	-0.920898438	-0.345947266	883.96	61.44184976	-51.29334476	-9.062760386	-73
62557	0	0.306640625	0.217712402	0.119384766	0.999999046	3.05E-05	1.24E-05	3.81E-05	7.666015625	5.442810059	2.984619141	0.001525879	0.000619888	0.001907349	-0.153564453	-0.923095703	-0.348632813	884.02	61.43647194	-51.28508215	-9.056416398	-73
62558	0	0.308790207	0.213788986	0.119439125	0.999999046	-0.000102997	6.48E-05	6.01E-05	7.719755173	5.344724655	2.985978127	-0.005149841	0.003242493	0.003004074	-0.153564453	-0.925292969	-0.348388672	884.12	61.40741536	-51.27658598	-9.039350119	-73
62559	0	0.305480957	0.21484375	0.118774414	0.999999046	0.000835419	-0.00020504	0.00018692	7.637023926	5.37109375	2.969360352	0.04177094	-0.010252	0.00934601	-0.156005859	-0.922851563	-0.345458984	884.06	61.51110091	-51.29571174	-9.054708686	-73
62560	0	0.306524277	0.217606544	0.114744186	0.999999046	0.000529289	-0.000541687	0.000175476	7.663106918	5.440163612	2.86860466	0.026464465	-0.027084353	0.008773805	-0.156005859	-0.922851563	-0.342773438	884.08	61.62380765	-51.33211383	-9.126026497	-73
62561	0	0.30682373	0.213745117	0.113525391	0.999997139	0.00163269	-0.001315117	0.000419617	7.670593262	5.34362793	2.838134766	0.081634584	-0.065755894	0.020980851	-0.153564453	-0.925292969	-0.345458984	884.12	61.94505704	-51.43535812	-9.302517608	-74
62562	0	0.309344292	0.217489243	0.122621536	0.999998093	0.001065254	-0.000864983	0.000461578	7.733607292	5.437231064	3.065538406	0.053262729	-0.043249145	0.023078927	-0.158447266	-0.922851563	-0.33984375	884.02	62.14127752	-51.51796411	-9.402267146	-74
62563	0	0.309265137	0.218566895	0.122924805	0.999997139	-0.002166748	0.000195503	0.000705719	7.731628418	5.464172363	3.073120117	-0.108337497	0.00977517	0.03528598	-0.158447266	-0.922851563	-0.336914063	884.06	61.81455751	-51.5678824	-9.307034443	-74
62564	0	0.30964756	0.218029976	0.122099876	0.999999046	0.000245094	0.000322342	1.91E-05	7.741189003	5.450749397	3.05249691	0.012254715	0.016117096	0.000953674	-0.158447266	-0.922851563	-0.336914063	884.02	61.79411122	-51.54114187	-9.250610502	-74
62565	0	0.307800293	0.213623047	0.116394043	0.999999046	-8.77E-05	0.000336647	7.63E-05	7.695007324	5.340576172	2.909851074	-0.004386902	0.016832352	0.003814697	-0.158447266	-0.922851563	-0.33984375	884.02	61.72991321	-51.51961736	-9.187262375	-73
62566	0	0.309282303	0.21514225	0.114197731	0.999999046	7.63E-05	0.000284195	-3.81E-06	7.732057571	5.378556252	2.854943275	0.003814697	0.014209748	-0.000190735	-0.158203125	-0.922851563	-0.345458984	884	61.69728609	-51.49314236	-9.140237744	-74
62567	0	0.306762695	0.218444824	0.114990234	0.999999046	0.000164032	-2.57E-05	4.96E-05	7.669067383	5.461120605	2.874755859	0.008201599	-0.00128746	0.002479553	-0.155761719	-0.925048828	-0.345458984	884.08	61.71111542	-51.48873732	-9.139089339	-73
62568	0	0.308193207	0.214179993	0.116855621	0.999999046	0.000555992	-0.00022316	-3.43E-05	7.70483017	5.354499817	2.921390533	0.027799608	-0.01115799	-0.001716614	-0.156005859	-0.922851563	-0.33984375	884.06	61.8006218	-51.48677825	-9.177001468	-73
62569	0	0.306213379	0.217407227	0.118591309	0.999999046	0.000465393	-0.000277519	1.53E-05	7.655334473	5.435180664	2.964782715	0.023269654	-0.013875962	0.000762939	-0.156005859	-0.922851563	-0.336914063	884.02	61.88321597	-51.49248636	-9.219353641	-73
62570	0	0.309521675	0.214335442	0.120416641	0.999999046	0.001251221	-0.000312805	0.000121117	7.738041878	5.35838604	3.010416031	0.062561053	-0.015640263	0.006055834	-0.158447266	-0.922851563	-0.342529297	884.08	62.05257452	-51.51088339	-9.258408853	-74
62571	0	0.307861328	0.216369629	0.117553711	0.999999046	-0.000652313	5.44E-05	-6.48E-05	7.696533203	5.409240723	2.938842773	-0.032615664	0.002717972	-0.003242493	-0.158447266	-0.925048828	-0.336669922	884.02	61.96956034	-51.49067451	-9.25305482	-74
62572	0	0.307759285	0.216259003	0.115182877	0.999999046	0.000300407	-4.39E-05	0.000193596	7.693982124	5.406475067	2.879571915	0.015020371	-0.002193451	0.009679795	-0.158447266	-0.925048828	-0.336669922	884.02	61.99101805	-51.50197928	-9.241768233	-73
62573	0	0.308837891	0.218200684	0.117675781	0.999999046	-0.00025177	2.00E-05	0.000179291	7.720947266	5.45501709	2.941894531	-0.012588501	0.001001358	0.008964539	-0.160644531	-0.924804688	-0.336669922	884.02	61.94207574	-51.50830287	-9.221386014	-73
62574	0	0.309214592	0.213513374	0.117611885	0.999999046	-0.00019455	8.58E-05	0.000133514	7.730364799	5.337834358	2.940297127	-0.009727478	0.004291534	0.00667572	-0.156005859	-0.925048828	-0.339599609	884.02	61.89414922	-51.50669753	-9.194233752	-73
62575	0	0.307983398	0.218322754	0.118041992	0.999999046	0.000347137	-1.81E-05	-1.91E-05	7.699584961	5.458068848	2.951049805	0.017356873	-0.000905991	-0.000953674	-0.160644531	-0.925048828	-0.339355469	884.02	61.93194024	-51.49509917	-9.197213318	-73
62576	0	0.307613373	0.21493721	0.117941856	0.999999046	-0.000754356	0.000209808	0.000182152	7.69033432	5.373430252	2.94854641	-0.037717823	0.010490419	0.009107591	-0.158203125	-0.925048828	-0.342529297	884.06	61.80072075	-51.49157495	-9.145648784	-74
62577	0	0.306640625	0.215698242	0.11541748	0.999999046	0.000389099	-7.92E-05	0.000198364	7.666015625	5.392456055	2.885437012	0.019454957	-0.003957749	0.009918213	-0.158447266	-0.922851563	-0.33984375	884.02	61.83642474	-51.5053337	-9.13970117	-74
62578	0	0.30900383	0.217497826	0.11715126	0.999999046	-0.000400543	3.05E-05	0.000244141	7.725095749	5.437445641	2.928781509	-0.020027161	0.001525879	0.012207032	-0.158447266	-0.925048828	-0.336669922	884.06	61.76475073	-51.51776026	-9.11183635	-73
62579	0	0.309631348	0.216491699	0.116821289	0.999999046	-0.000385284	-4.86E-05	0.000190735	7.740783691	5.41229248	2.920532227	-0.019264222	-0.00243187	0.009536743	-0.158447266	-0.922851563	-0.342529297	884.18	61.70866767	-51.5291621	-9.102018605	-73
62580	0	0.307710648	0.215490341	0.117383957	0.999999046	4.10E-05	-0.000143051	6.01E-05	7.69276619	5.38725853	2.934598923	0.0020504	-0.007152557	0.003004074	-0.158447266	-0.922851563	-0.342529297	884.06	61.72240027	-51.53251651	-9.118849824	-73
62581	0	0.309143066	0.216918945	0.119018555	0.999999046	0.000198364	-2.57E-05	-1.91E-05	7.72857666	5.422973633	2.975463867	0.009918213	-0.00128746	-0.000953674	-0.158447266	-0.922851563	-0.342529297	884.12	61.74460612	-51.52145944	-9.123477748	-74
62582	0	0.307128906	0.22064209	0.119689941	0.999998093	0.001458168	2.38E-05	-0.000720978	7.678222656	5.516052246	2.992248535	0.072908434	0.001192093	-0.036048905	-0.156005859	-0.922851563	-0.342773438	884.02	61.95261159	-51.43639456	-9.18115859	-74
62583	0	0.308166504	0.219421387	0.118469238	0.999998093	0.001191139	4.58E-05	-0.000988007	7.704162598	5.485534668	2.961730957	0.059556985	0.002288819	-0.049400349	-0.156005859	-0.925048828	-0.339599609	884.18	62.14469405	-51.32283884	-9.257512286	-73
62584	0	0.3070755	0.207055092	0.113854408	0.999999046	-0.001250267	-0.000104904	-0.000179291	7.676887512	5.176377296	2.846360207	-0.062513368	-0.00524521	-0.008964541	-0.153564453	-0.925292969	-0.33984375	884.12	62.0213351	-51.29996556	-9.288292755	-73
62585	0	0.307617188	0.211914063	0.117431641	0.999999046	0.000141144	-0.000411034	0.000141144	7.690429688	5.297851563	2.935791016	0.00705719	-0.020551682	0.00705719	-0.153564453	-0.925292969	-0.342773438	884.02	62.07429447	-51.32632484	-9.341082027	-73
62586	0	0.309423447	0.220221519	0.117419243	0.999999046	0.000385284	-0.000188828	0.000304222	7.735586166	5.505537987	2.935481071	0.019264222	-0.009441376	0.015211106	-0.15625	-0.922851563	-0.334228516	884.02	62.11640338	-51.35717518	-9.343687964	-73
62587	0	0.309387207	0.219848633	0.116394043	0.999999046	-5.72E-05	1.24E-05	1.14E-05	7.734680176	5.49621582	2.909851074	-0.002861023	0.000619888	0.000572205	-0.156005859	-0.925048828	-0.339599609	884.12	62.10218381	-51.34754247	-9.339312637	-73
62588	0	0.306764603	0.216104507	0.115998268	0.999999046	-1.62E-05	9.35E-05	1.14E-05	7.669115067	5.402612686	2.899956703	-0.000810623	0.004673004	0.000572205	-0.153564453	-0.925292969	-0.33984375	884.14	62.08244812	-51.33361588	-9.321798518	-73
62589	0	0.30657959	0.218261719	0.116638184	0.999999046	-9.92E-05	0.000164986	0.000198364	7.664489746	5.456542969	2.91595459	-0.004959107	0.008249283	0.009918213	-0.156005859	-0.925048828	-0.333984375	884.12	62.03173279	-51.33467644	-9.276441991	-73
62590	0	0.306753159	0.227210045	0.117759705	0.999999046	0.000190735	-6.87E-05	-0.000537872	7.668828964	5.680251122	2.943992615	0.009536744	-0.003433228	-0.026893617	-0.156005859	-0.925048828	-0.336914063	884.02	62.09368322	-51.2731542	-9.332868578	-74
62591	0	0.30657959	0.228088379	0.118286133	0.999998093	0.000626564	-0.000102997	-0.001567841	7.664489746	5.702209473	2.95715332	0.031328216	-0.005149844	-0.078392066	-0.153564453	-0.927490234	-0.342529297	884.14	62.2784897	-51.10840543	-9.482958523	-73
62592	0	0.310296059	0.204732895	0.116989136	0.999999046	-0.000676155	0.000146866	-0.001164436	7.757401466	5.118322372	2.924728394	-0.033807765	0.007343294	-0.058221835	-0.148925781	-0.927490234	-0.336914063	884.02	62.25429523	-50.97210456	-9.556584531	-73
62593	0	0.305236816	0.203613281	0.111877441	0.999999046	-0.000797272	0.000138283	-3.05E-05	7.63092041	5.090332031	2.796936035	-0.039863591	0.00691414	-0.001525879	-0.148925781	-0.925292969	-0.337158203	884.18	62.14227986	-50.95221336	-9.535343534	-73
62594	0	0.305603027	0.220458984	0.11529541	0.999999046	0.000667572	-5.72E-05	0.000434875	7.640075684	5.511474609	2.882385254	0.033378605	-0.002861023	0.021743777	-0.148925781	-0.927490234	-0.336914063	884.06	62.19219476	-50.98989586	-9.50636259	-73
62595	0	0.308105469	0.225708008	0.120056152	0.999999046	0.000305176	2.00E-05	-0.000144958	7.702636719	5.642700195	3.001403809	0.015258789	0.001001358	-0.007247925	-0.148925781	-0.925292969	-0.337158203	884.18	62.22925984	-50.96434578	-9.514340703	-73
62596	0	0.304252625	0.217321396	0.116822243	0.999998093	0.000507355	-9.06E-05	-0.000197411	7.606315613	5.433034897	2.920556068	0.025367738	-0.004529953	-0.00987053	-0.148925781	-0.925537109	-0.337158203	884.16	62.30667746	-50.93939649	-9.544486452	-73
62597	0	0.304016113	0.219604492	0.113769531	0.999999046	0.000370026	-0.000174522	-0.00012207	7.600402832	5.490112305	2.844238281	0.018501282	-0.00872612	-0.006103516	-0.148925781	-0.925537109	-0.340087891	884.06	62.37420088	-50.92652716	-9.582108411	-73
62598	0	0.309740067	0.223490715	0.118743896	0.999999046	0.000459671	-7.44E-05	-0.000554085	7.743501663	5.587267876	2.968597412	0.022983553	-0.00371933	-0.027704241	-0.149169922	-0.925537109	-0.334472656	884.14	62.46761118	-50.86437086	-9.639584712	-73
62599	0	0.305969238	0.219360352	0.118774414	0.999999046	0.000823975	0.000100136	-0.000686646	7.649230957	5.484008789	2.969360352	0.041198738	0.005006791	-0.034332282	-0.146728516	-0.925537109	-0.337402344	884.08	62.58905988	-50.77944719	-9.679851644	-73
62600	0	0.303819656	0.215572357	0.114695549	0.999999046	-0.000412941	0.000310898	-0.000134468	7.595491409	5.389308929	2.867388725	-0.02064705	0.015544892	-0.006723404	-0.144287109	-0.927978516	-0.337402344	884.08	62.50660085	-50.73976791	-9.639783788	-73
62601	0	0.30456543	0.21496582	0.114624023	0.999999046	-4.58E-05	7.72E-05	0.00025177	7.614135742	5.374145508	2.865600586	-0.002288818	0.003862381	0.012588501	-0.144042969	-0.930175781	-0.340087891	884	62.47023457	-50.7519928	-9.60502747	-73
62602	0	0.306124687	0.224322319	0.11847496	0.999999046	0.000234604	4.01E-05	0.000282288	7.65311718	5.608057976	2.961874008	0.011730194	0.002002716	0.01411438	-0.146484375	-0.927734375	-0.337158203	884.06	62.46866081	-50.76909418	-9.573580634	-73
62603	0	0.305847168	0.22076416	0.117736816	0.999999046	-8.39E-05	0.000199318	1.53E-05	7.646179199	5.519104004	2.94342041	-0.004196167	0.009965897	0.000762939	-0.146484375	-0.927734375	-0.337158203	884.02	62.42802326	-50.75060552	-9.53887014	-73
62604	0	0.305258751	0.216890335	0.114048958	0.999999046	8.49E-05	0.000125885	-4.20E-05	7.631468773	5.422258377	2.851223946	0.004243851	0.006294251	-0.002098084	-0.144287109	-0.927734375	-0.334472656	884.06	62.41970406	-50.73043403	-9.520752791	-73
62605	0	0.303527832	0.218261719	0.11541748	0.999999046	0.000263214	-0.000132561	0.000324249	7.588195801	5.456542969	2.885437012	0.013160706	-0.006628037	0.016212464	-0.144287109	-0.927734375	-0.334472656	884.12	62.44021774	-50.76123939	-9.513557044	-73
62606	0	0.304377556	0.226366043	0.118390083	0.999999046	0.000314713	-0.000219345	0.000225067	7.609438896	5.659151077	2.959752083	0.015735627	-0.010967255	0.011253357	-0.144287109	-0.927978516	-0.337402344	884.06	62.48403675	-50.78621173	-9.528948735	-73
62607	0	0.307617188	0.224121094	0.118041992	0.999999046	0.000171661	-2.57E-05	-0.000232697	7.690429688	5.603027344	2.951049805	0.008583069	-0.00128746	-0.011634827	-0.146728516	-0.927734375	-0.331542969	884.18	62.51709244	-50.75430284	-9.551220157	-73
62608	0	0.303857803	0.220761299	0.115141869	0.999999046	0.000544548	1.91E-05	-0.000535011	7.596445084	5.519032478	2.878546715	0.027227404	0.000953674	-0.026750567	-0.146484375	-0.927734375	-0.337158203	884.02	62.60688456	-50.68924576	-9.591982788	-73
62609	0	0.305603027	0.215454102	0.114013672	0.999999046	4.58E-05	-0.000170708	-9.16E-05	7.640075684	5.386352539	2.850341797	0.002288818	-0.008535385	-0.004577637	-0.144287109	-0.927734375	-0.334472656	884.06	62.63438271	-50.6796341	-9.625918723	-73
62610	0	0.30645752	0.218084335	0.117305756	0.999999046	4.58E-05	-0.0001297	2.86E-06	7.661437988	5.452108383	2.93264389	0.002288818	-0.006484985	0.000143051	-0.144287109	-0.927734375	-0.334472656	884.02	62.65046152	-50.67764065	-9.645229587	-73
62611	0	0.305358887	0.221923828	0.117370605	0.999999046	0.000125885	0.00011158	0.000160217	7.633972168	5.548095703	2.934265137	0.006294251	0.005578995	0.008010864	-0.144287109	-0.929931641	-0.334228516	884.08	62.63555767	-50.6789102	-9.61260289	-73
62612	0	0.302901268	0.21984005	0.112987518	0.999999046	-0.000912666	0.000141144	0.000273705	7.5725317	5.496001244	2.824687958	-0.045633323	0.007057191	0.013685229	-0.144287109	-0.929931641	-0.331298828	884.08	62.490885	-50.69017985	-9.565683216	-73
62613	0	0.306274414	0.219970703	0.116882324	0.999999046	-0.000286102	-4.86E-05	0.00044632	7.656860352	5.499267578	2.922058105	-0.014305115	-0.00243187	0.02231598	-0.146484375	-0.929931641	-0.336914063	884.06	62.43029388	-50.72907297	-9.535100802	-73
62614	0	0.306241035	0.223473549	0.120275497	0.999999046	0.000520706	-0.000185013	0.000182152	7.656025887	5.586838722	3.006887436	0.02603531	-0.009250641	0.00910759	-0.144287109	-0.927978516	-0.337402344	884.08	62.49604965	-50.74818162	-9.548495633	-73
62615	0	0.307006836	0.220275879	0.118896484	0.999999046	0.000244141	4.77E-06	-0.000118256	7.675170898	5.506896973	2.972412109	0.012207031	0.000238419	-0.005912781	-0.146728516	-0.927734375	-0.334228516	884.08	62.52576386	-50.72673612	-9.556109983	-73
62616	0	0.304268837	0.217778206	0.114152908	0.999999046	-0.000138283	0.000156403	8.68E-05	7.606720924	5.444455147	2.853822708	-0.006914139	0.007820129	0.004339218	-0.144287109	-0.927734375	-0.331542969	884.14	62.4796341	-50.71825102	-9.52215664	-73
62617	0	0.304016113	0.222167969	0.115783691	0.999999046	-0.000110626	8.49E-05	0.000160217	7.600402832	5.554199219	2.894592285	-0.005531311	0.004243851	0.008010864	-0.144287109	-0.929931641	-0.331298828	884.14	62.44097261	-50.72090884	-9.493676262	-73
62618	0	0.30632782	0.230160713	0.118021965	0.999997139	-0.002037048	0.000110626	-3.15E-05	7.658195496	5.75401783	2.950549126	-0.101852488	0.005531315	-0.001573564	-0.144287109	-0.92578125	-0.337402344	884.06	62.19117084	-50.7023199	-9.477737932	-73
62619	0	0.303833008	0.215332031	0.11730957	0.999991417	-0.004055023	0.000248909	0	7.595825195	5.383300781	2.932739258	-0.202751717	0.012445484	0	-0.144287109	-0.92578125	-0.343261719	884.08	61.69095508	-50.67958139	-9.436876812	-73
62620	0	0.304445267	0.212233543	0.119551659	0.999999046	-0.000229836	-0.000146866	0.000224113	7.611131668	5.305838585	2.988791466	-0.011491776	-0.007343292	0.011205673	-0.141845703	-0.923583984	-0.352050781	884.08	61.66279059	-50.70113384	-9.440466708	-73
62621	0	0.30480957	0.219482422	0.119873047	0.999998093	0.001553535	-0.000362396	0.000465393	7.620239258	5.487060547	2.996826172	0.077676809	-0.01811982	0.023269664	-0.141845703	-0.923583984	-0.346435547	884.06	61.84966438	-50.75869494	-9.457452198	-73
62622	0	0.30674839	0.219875336	0.119761467	0.999999046	-7.63E-05	-5.72E-05	0.000392914	7.668709755	5.496883392	2.994036674	-0.003814697	-0.002861023	0.019645691	-0.144287109	-0.92578125	-0.340332031	884.06	61.8169039	-50.79241622	-9.431370167	-73
62623	0	0.305908203	0.220153809	0.117919922	0.999999046	0.000247955	0.000229836	0.000225067	7.647705078	5.503845215	2.947998047	0.012397766	0.011491776	0.011253357	-0.144287109	-0.923583984	-0.346191406	883.96	61.79702579	-50.79362494	-9.374594584	-73
62624	0	0.305099487	0.220623016	0.116667747	0.999999046	-9.82E-05	0.000133514	9.82E-05	7.627487183	5.515575409	2.916693687	-0.004911423	0.00667572	0.004911423	-0.144287109	-0.923583984	-0.346191406	884	61.75810828	-50.78719473	-9.344164422	-73
62625	0	0.305541992	0.217773438	0.120910645	0.999999046	-8.39E-05	0.000119209	0.000228882	7.638549805	5.444335938	3.022766113	-0.004196167	0.005960465	0.011444092	-0.144042969	-0.92578125	-0.345947266	884.06	61.7137302	-50.79472411	-9.304500564	-73
62626	0	0.305612564	0.217551231	0.122484207	0.999999046	-4.01E-05	-9.73E-05	0.000113487	7.640314102	5.438780785	3.062105179	-0.002002716	-0.004863739	0.005674362	-0.146484375	-0.92578125	-0.3515625	884.08	61.70853558	-50.80233977	-9.309517312	-73
62627	0	0.303955078	0.220336914	0.11920166	0.999999046	0.000598907	-1.43E-05	0.000175476	7.598876953	5.508422852	2.980041504	0.029945375	-0.000715256	0.008773804	-0.144042969	-0.92578125	-0.348876953	884.08	61.76227235	-50.81158917	-9.295792552	-73
62628	0	0.30513382	0.218295097	0.11783123	0.999999046	-0.000332832	-6.10E-05	0.000152588	7.62834549	5.457377434	2.945780754	-0.016641617	-0.003051758	0.007629395	-0.148925781	-0.923339844	-0.343017578	884.12	61.71664526	-50.82109942	-9.290966214	-73
62629	0	0.307128906	0.218078613	0.119628906	0.999999046	0.000648499	-0.000109673	0.000102997	7.678222656	5.451965332	2.990722656	0.032424929	-0.005483628	0.005149842	-0.146484375	-0.925537109	-0.340332031	884.06	61.79275747	-50.82831399	-9.298104732	-73
