Counter	Temperature	VelInc_X	VelInc_Y	VelInc_Z	OriInc_w	OriInc_x	OriInc_y	OriInc_z	Acc_X	Acc_Y	Acc_Z	Gyr_X	Gyr_Y	Gyr_Z	Mag_X	Mag_Y	Mag_Z	Pressure	Roll	Pitch	Yaw	RSSI
62832	0	0.374087334	-0.109948158	0.097290993	0.999962807	0.008494377	-0.001205444	0.00020504	9.352183342	-2.748703957	2.432274818	0.42472407	-0.060272957	0.010252125	-0.603027344	0.054443359	-0.770751953	884.02	-50.65075526	-68.49851894	50.98397398	-74
62833	0	0.374938965	-0.101928711	0.090698242	0.999964714	0.00831604	-0.000834465	-0.000358582	9.373474121	-2.548217773	2.267456055	0.415806852	-0.041723738	-0.017929286	-0.604736328	0.036865234	-0.772216797	884.08	-49.79413058	-68.59938213	51.09074467	-73
62834	0	0.363805771	-0.106038094	0.086496353	0.999978065	0.006507874	-0.000795364	0.000531197	9.095144272	-2.650952339	2.162408829	0.325396023	-0.039768506	0.026560021	-0.604248047	0.025878906	-0.771240234	883.98	-49.30277073	-68.620392	51.36836725	-72
62835	0	0.363220215	-0.107177734	0.084228516	0.999986649	0.005051613	-0.000835419	0.000205994	9.080505371	-2.679443359	2.105712891	0.252581748	-0.041771118	0.010299728	-0.606445313	0.019287109	-0.770751953	883.98	-48.9259305	-68.6735407	51.58856585	-72
62836	0	0.367004395	-0.11126709	0.080932617	0.999998093	0.001888275	-0.000403404	0.000221252	9.175109863	-2.781677246	2.02331543	0.094413817	-0.020170224	0.011062629	-0.608398438	0.010742188	-0.769775391	883.98	-48.8206152	-68.69333836	51.71873263	-72
62837	0	0.369934082	-0.114135742	0.080322266	0.999999046	0.001228333	-0.000544548	0.000102997	9.248352051	-2.853393555	2.008056641	0.061416645	-0.02722741	0.005149843	-0.605957031	0.010498047	-0.772705078	884.02	-48.8015303	-68.73419484	51.85606135	-72
62838	0	0.364206314	-0.111740112	0.08605957	0.999997139	0.001045227	-0.00094223	0.000499725	9.105157852	-2.793502808	2.151489258	0.052261372	-0.047111529	0.024986276	-0.608154297	0.008544922	-0.769775391	884.02	-48.97025581	-68.77064017	52.17372206	-72
62839	0	0.372741699	-0.112060547	0.089904785	0.999996185	0.002488136	-0.000743866	0.00050354	9.31854248	-2.801513672	2.247619629	0.12440696	-0.037193342	0.025177031	-0.610595703	0.006347656	-0.769287109	884.02	-48.9315789	-68.79165209	52.44505184	-72
62840	0	0.373929977	-0.106001854	0.091340065	0.999994278	0.003072739	-0.000828743	4.10E-05	9.348249435	-2.650046349	2.283501625	0.153637192	-0.041437219	0.002050403	-0.612792969	0.001953125	-0.768798828	883.96	-48.75534841	-68.85928283	52.64038685	-72
62841	0	0.373718262	-0.105285645	0.095092773	0.999995232	0.002994537	-0.000426292	-0.000164032	9.342956543	-2.632141113	2.377319336	0.149727097	-0.021314654	-0.008201612	-0.612548828	-0.002441406	-0.765625	884.02	-48.45780047	-68.91433249	52.69533413	-72
62842	0	0.367724419	-0.103718758	0.088870049	0.999993324	0.003572464	-0.00028801	-0.000283241	9.193110466	-2.592968941	2.221751213	0.178623584	-0.014400513	-0.014162094	-0.614501953	-0.008789063	-0.767822266	883.98	-48.03927176	-68.96925747	52.69231681	-72
62843	0	0.366577148	-0.101257324	0.094299316	0.999994278	0.003251076	-0.000167847	-6.48E-05	9.164428711	-2.531433105	2.35748291	0.162554074	-0.008392349	-0.003242498	-0.614501953	-0.013183594	-0.764648438	884.02	-47.67338984	-68.99635801	52.7056055	-72
62844	0	0.370038986	-0.102385521	0.091668129	0.999996185	0.002439499	5.25E-05	-0.000321388	9.250974655	-2.559638023	2.291703224	0.121975068	0.002622607	-0.016069428	-0.614257813	-0.015380859	-0.770263672	883.96	-47.29996609	-69.02818631	52.60722359	-72
62845	0	0.366760254	-0.103393555	0.090209961	0.999997139	0.002037048	-0.000281334	-0.000427246	9.169006348	-2.584838867	2.255249023	0.101852492	-0.014066707	-0.02136232	-0.616455078	-0.021972656	-0.766601563	884.02	-47.02422061	-69.09474312	52.56936964	-72
62846	0	0.36921978	-0.104172707	0.091097832	0.999998093	0.00142765	-0.000258446	-0.000141144	9.230494499	-2.604317665	2.277445793	0.071382548	-0.012922292	-0.007057192	-0.614013672	-0.024169922	-0.766601563	884.02	-46.87177358	-69.13549724	52.58690557	-72
62847	0	0.365112305	-0.102783203	0.090332031	0.999998093	0.001446724	-1.53E-05	-0.000198364	9.127807617	-2.569580078	2.258300781	0.072336223	-0.00076294	-0.009918216	-0.614013672	-0.026367188	-0.760742188	884.02	-46.65229384	-69.16193859	52.53566556	-72
62848	0	0.368878365	-0.101449013	0.094459534	0.999999046	0.000971794	1.34E-05	-0.000199318	9.221959114	-2.536225319	2.361488342	0.048589714	0.000667572	-0.009965898	-0.613769531	-0.030761719	-0.763183594	884.02	-46.48053854	-69.18609431	52.48024039	-72
62849	0	0.367004395	-0.101989746	0.09588623	0.999999046	0.000434875	7.34E-05	-0.000232697	9.175109863	-2.549743652	2.397155762	0.021743775	0.003671646	-0.011634827	-0.613769531	-0.028564453	-0.766357422	884.08	-46.35004676	-69.20807348	52.39773275	-72
62850	0	0.365755081	-0.100880623	0.097857475	0.999999046	0.000482559	0.000267029	-6.20E-05	9.143877029	-2.522015572	2.446436882	0.024127961	0.013351441	-0.003099442	-0.613525391	-0.030761719	-0.769042969	884.08	-46.20706068	-69.20031214	52.30910557	-72
62851	0	0.367431641	-0.102844238	0.096191406	0.999999046	0.000415802	0.000313759	-9.16E-05	9.185791016	-2.571105957	2.404785156	0.020790101	0.015687943	-0.004577637	-0.613525391	-0.032958984	-0.768798828	884.02	-46.05565167	-69.19102382	52.20555178	-73
62852	0	0.368305206	-0.099890709	0.095039368	0.999999046	0.000617027	0.000396729	-0.000106812	9.207630157	-2.497267723	2.375984192	0.030851367	0.019836428	-0.005340577	-0.613525391	-0.03515625	-0.765869141	884.02	-45.86019781	-69.17625121	52.082075	-73
62853	0	0.368103027	-0.101501465	0.096008301	0.999999046	9.92E-05	0.000267982	7.25E-05	9.202575684	-2.537536621	2.40020752	0.004959107	0.013399124	0.003623962	-0.613525391	-0.03515625	-0.765869141	883.96	-45.78989921	-69.15682062	52.02890955	-73
62854	0	0.36907959	-0.098754883	0.096740723	0.999999046	0.000595093	0.000354767	6.10E-05	9.226989746	-2.46887207	2.418518066	0.029754641	0.017738344	0.003051758	-0.611083984	-0.035400391	-0.765869141	884.02	-45.64170995	-69.13134609	51.95128389	-72
62855	0	0.366333008	-0.096191406	0.100036621	0.999999046	-0.000301361	0.000222206	0.000141144	9.158325195	-2.404785156	2.500915527	-0.015068055	0.011110306	0.00705719	-0.613525391	-0.03515625	-0.765869141	884.04	-45.64104176	-69.10982723	51.92345815	-72
62856	0	0.367908478	-0.100749969	0.098978996	0.999999046	-0.000155449	0.000144958	-0.000114441	9.197711945	-2.518749237	2.474474907	-0.007772446	0.007247925	-0.005722046	-0.608642578	-0.035400391	-0.771728516	884.02	-45.58648776	-69.1152877	51.85244555	-72
62857	0	0.371948242	-0.101318359	0.096496582	0.999999046	0.000488281	0.000191689	-0.000461578	9.298706055	-2.532958984	2.412414551	0.024414064	0.009584428	-0.02307892	-0.610839844	-0.035400391	-0.77734375	883.92	-45.37512497	-69.14529088	51.69015496	-72
62858	0	0.365715981	-0.100579262	0.099236488	0.999999046	0.000751495	-0.00018692	-7.63E-05	9.142899513	-2.514481544	2.480912209	0.037574772	-0.009346009	-0.003814698	-0.611083984	-0.037597656	-0.768554688	883.96	-45.29568505	-69.17404143	51.70481478	-72
62859	0	0.364685059	-0.100158691	0.098693848	0.999998093	0.001416206	-0.000286102	1.14E-05	9.117126465	-2.503967285	2.467346191	0.070810343	-0.01430512	0.000572205	-0.610839844	-0.037597656	-0.774414063	884.02	-45.17983151	-69.20347931	51.75641851	-72
62860	0	0.368461609	-0.097751617	0.098820686	0.999999046	0.00124073	-0.000118256	9.44E-05	9.211540222	-2.443790436	2.470517159	0.06203653	-0.005912782	0.004720689	-0.610839844	-0.039794922	-0.771240234	884.08	-45.06553376	-69.21259513	51.78939482	-72
62861	0	0.366638184	-0.09954834	0.095153809	0.999999046	-0.000179291	9.63E-05	8.77E-05	9.16595459	-2.488708496	2.378845215	-0.008964539	0.004816055	0.004386902	-0.610839844	-0.041992188	-0.768310547	883.98	-45.06702662	-69.20487618	51.77691663	-72
62862	0	0.371117592	-0.102028847	0.096774101	0.999999046	0.001237869	-0.000364304	-6.48E-05	9.277939796	-2.550721169	2.419352531	0.06189348	-0.018215185	-0.003242494	-0.611083984	-0.039794922	-0.765625	883.98	-44.97242943	-69.2467625	51.8289758	-72
62863	0	0.369567871	-0.095336914	0.09954834	0.999998093	0.001595497	-0.000320435	0.000156403	9.239196777	-2.383422852	2.488708496	0.079774892	-0.016021736	0.007820133	-0.610839844	-0.044189453	-0.768066406	883.96	-44.87429053	-69.26723191	51.92314957	-72
62864	0	0.368073463	-0.094839096	0.096746445	0.999999046	0.000443459	-0.000190735	0.000167847	9.201836586	-2.370977402	2.418661118	0.022172929	-0.009536744	0.008392334	-0.613037109	-0.046142578	-0.767822266	883.9	-44.88272354	-69.27636267	51.99327383	-72
62865	0	0.367675781	-0.097045898	0.097167969	0.999999046	0.000709534	-0.000247002	-0.000171661	9.191894531	-2.426147461	2.429199219	0.035476688	-0.012350084	-0.00858307	-0.610595703	-0.046386719	-0.765136719	883.96	-44.79974742	-69.31750937	51.99566227	-72
62866	0	0.368244171	-0.098983765	0.094256401	0.999999046	0.000965118	-0.000453949	-0.000125885	9.206104279	-2.474594116	2.356410027	0.04825593	-0.022697453	-0.006294252	-0.612792969	-0.048339844	-0.767578125	884.02	-44.74202513	-69.37182075	52.05643808	-72
62867	0	0.367797852	-0.09777832	0.094848633	0.999999046	0.001213074	-0.000468254	0.0001297	9.194946289	-2.444458008	2.37121582	0.060653704	-0.023412711	0.006484987	-0.615234375	-0.050537109	-0.764404297	883.96	-44.71462104	-69.40671497	52.18219268	-72
62868	0	0.370853424	-0.095809937	0.096259117	0.999999046	0.00070858	-0.000211716	-1.62E-05	9.271335602	-2.395248413	2.406477928	0.035429004	-0.010585786	-0.000810623	-0.614990234	-0.052734375	-0.767089844	884.02	-44.65840785	-69.43257426	52.21570466	-72
62869	0	0.371887207	-0.097961426	0.094726563	0.999999046	-0.000301361	-2.19E-05	-0.000175476	9.297180176	-2.449035645	2.368164063	-0.015068055	-0.001096725	-0.008773804	-0.612792969	-0.050537109	-0.767333984	884.02	-44.64291106	-69.45586206	52.16444424	-72
62870	0	0.370056152	-0.09942627	0.093261719	0.999999046	0.000732422	-0.000236511	-1.91E-05	9.251403809	-2.485656738	2.331542969	0.036621097	-0.011825563	-0.000953674	-0.615234375	-0.052734375	-0.764160156	884.04	-44.58968051	-69.48407555	52.202886	-72
62871	0	0.371704102	-0.094726563	0.096984863	0.999999046	0.001190186	-0.000117302	-1.14E-05	9.292602539	-2.368164063	2.424621582	0.059509292	-0.005865098	-0.000572205	-0.615234375	-0.052734375	-0.764160156	883.98	-44.45978956	-69.5020264	52.21211838	-72
62872	0	0.370752335	-0.091798782	0.098154068	0.999999046	0.000681877	7.82E-05	-0.000167847	9.268808365	-2.294969559	2.4538517	0.03409386	0.003910065	-0.008392335	-0.617431641	-0.0546875	-0.760986328	883.96	-44.31125951	-69.51660884	52.14268052	-72
62873	0	0.372436523	-0.093933105	0.09552002	0.999999046	0.000785828	-1.05E-05	-0.000324249	9.310913086	-2.348327637	2.388000488	0.039291387	-0.000524521	-0.016212465	-0.617431641	-0.057128906	-0.763671875	884.02	-44.13518521	-69.55104333	52.05682363	-72
62874	0	0.372802734	-0.091040611	0.09473896	0.999999046	2.86E-05	0.000318527	-0.000210762	9.320068359	-2.276015282	2.368474007	0.001430512	0.015926361	-0.010538101	-0.614746094	-0.059326172	-0.766601563	884.02	-44.00011187	-69.54951213	51.92307665	-71
62875	0	0.372436523	-0.093322754	0.096618652	0.999999046	-0.00030899	0.000271797	-0.000205994	9.310913086	-2.333068848	2.415466309	-0.015449524	0.013589859	-0.010299683	-0.612548828	-0.057128906	-0.766845703	883.98	-43.9146759	-69.55146964	51.79660414	-72
62876	0	0.370957375	-0.092986107	0.096456528	0.999999046	0.000245094	0.000221252	-0.00037384	9.273934364	-2.324652672	2.411413193	0.012254715	0.011062623	-0.018692017	-0.612548828	-0.059326172	-0.766601563	884.02	-43.73911379	-69.57091363	51.64423792	-71
62877	0	0.37109375	-0.092224121	0.096252441	0.999999046	0.000263214	5.82E-05	-0.000278473	9.27734375	-2.305603027	2.406311035	0.013160706	0.002908707	-0.013923645	-0.612304688	-0.061523438	-0.766601563	884.02	-43.61699831	-69.59629888	51.55334841	-71
62878	0	0.367227554	-0.092153549	0.095182419	0.999999046	-0.000238419	9.73E-05	-0.000466347	9.180688858	-2.30383873	2.379560471	-0.01192093	0.004863739	-0.023317338	-0.614746094	-0.061523438	-0.763427734	883.92	-43.50184284	-69.63327755	51.41055924	-71
62879	0	0.368713379	-0.09362793	0.097839355	0.999999046	-0.000511169	0.000164986	-0.000358582	9.217834473	-2.340698242	2.445983887	-0.025558473	0.008249283	-0.017929078	-0.6171875	-0.059326172	-0.766357422	884.02	-43.42731959	-69.65599246	51.2748562	-71
62880	0	0.371922493	-0.096272469	0.101280212	0.999999046	-0.000378609	0.000148773	-0.000312805	9.298062325	-2.406811714	2.53200531	-0.018930436	0.00743866	-0.015640259	-0.612304688	-0.061523438	-0.769287109	884.04	-43.3510595	-69.67618337	51.15397507	-71
62881	0	0.372924805	-0.096191406	0.099731445	0.999999046	0.000556946	0.000294685	-0.000370026	9.323120117	-2.404785156	2.493286133	0.027847293	0.014734269	-0.018501283	-0.614746094	-0.061523438	-0.769287109	884.04	-43.12365098	-69.68843191	50.98541066	-71
62882	0	0.368774414	-0.092834473	0.097595215	0.999999046	0.000358582	0.00012207	-0.000240326	9.219360352	-2.320861816	2.439880371	0.017929078	0.006103516	-0.012016297	-0.612304688	-0.061523438	-0.769287109	883.96	-42.98468239	-69.70476764	50.88408969	-70
62883	0	0.36796093	-0.09280014	0.098817825	0.999998093	0.000664711	0.000160217	-8.30E-05	9.199023247	-2.32000351	2.470445633	0.033235553	0.008010865	-0.004148484	-0.609863281	-0.063964844	-0.766357422	884.08	-42.8381425	-69.70544593	50.81415021	-70
62884	0	0.37092495	-0.091034889	0.097945213	0.999999046	0.000273705	0.000391006	-0.000145912	9.273123741	-2.275872231	2.448630333	0.013685227	0.019550324	-0.007295609	-0.609863281	-0.063964844	-0.769287109	884.08	-42.67354048	-69.69158638	50.67536358	-70
62885	0	0.370605469	-0.091430664	0.09979248	0.999999046	-0.000213623	0.000218391	-0.000297546	9.265136719	-2.285766602	2.494812012	-0.010681153	0.010919571	-0.01487732	-0.609863281	-0.065917969	-0.763427734	884.02	-42.56636324	-69.70390484	50.54390454	-70
62886	0	0.372202873	-0.093755722	0.102965355	0.999999046	0.000190735	0.000213623	-0.00030899	9.305071831	-2.343893051	2.574133873	0.009536743	0.010681153	-0.015449524	-0.612060547	-0.063720703	-0.771972656	884.04	-42.41092591	-69.7172167	50.40345515	-70
62887	0	0.368347168	-0.090942383	0.10168457	0.999999046	0.000720978	0.000309944	-0.000358582	9.208679199	-2.27355957	2.542114258	0.036048894	0.01549721	-0.017929079	-0.607177734	-0.068359375	-0.771972656	884.1	-42.16276994	-69.72589102	50.23201651	-70
62888	0	0.369692802	-0.090046883	0.099234581	0.999999046	0.000531197	0.000141144	-0.000255585	9.242320061	-2.251172066	2.480864525	0.026559831	0.00705719	-0.012779237	-0.612060547	-0.068115234	-0.768798828	884.02	-41.99496429	-69.74080804	50.12443204	-70
62889	0	0.368896484	-0.090820313	0.100769043	0.999999046	0.00012207	0.000161171	-0.000202179	9.222412109	-2.270507813	2.519226074	0.006103516	0.008058548	-0.010108948	-0.609619141	-0.070556641	-0.771728516	883.96	-41.88201487	-69.74975147	50.02647239	-71
62890	0	0.373413086	-0.092346191	0.102600098	0.999999046	0.000419617	1.14E-05	-0.000213623	9.335327148	-2.308654785	2.565002441	0.020980836	0.000572205	-0.010681153	-0.609619141	-0.068359375	-0.771728516	884.04	-41.76321244	-69.7721693	49.95290512	-70
62891	0	0.371582031	-0.090637207	0.10357666	0.999999046	0.001121521	5.44E-05	-0.000457764	9.289550781	-2.265930176	2.589416504	0.056076064	0.002717972	-0.022888189	-0.612060547	-0.0703125	-0.765869141	884.02	-41.49772074	-69.80927478	49.81164129	-70
62892	0	0.368233681	-0.088358879	0.10375309	0.999999046	0.000798225	-6.68E-05	-0.00044632	9.205842018	-2.208971977	2.593827248	0.039911276	-0.003337861	-0.022315982	-0.609619141	-0.072753906	-0.768554688	883.96	-41.29581751	-69.85558136	49.69729921	-70
62893	0	0.371643066	-0.091552734	0.103027344	0.999998093	0.001374245	-0.00037384	-0.000751495	9.29107666	-2.288818359	2.575683594	0.068712264	-0.018692025	-0.037574784	-0.609375	-0.074951172	-0.771240234	884.04	-41.0183906	-69.95106356	49.56952501	-70
62894	0	0.367397308	-0.088891983	0.101349831	0.999996185	0.002640724	-0.000494957	-0.000519753	9.184932709	-2.222299576	2.533745766	0.132036374	-0.024747879	-0.025987658	-0.611572266	-0.079101563	-0.765136719	884.04	-40.67398451	-70.03931036	49.52677046	-70
62895	0	0.366943359	-0.086120605	0.102355957	0.999996185	0.002408028	-0.000705719	-0.000442505	9.173583984	-2.153015137	2.558898926	0.120401513	-0.035285988	-0.022125268	-0.611328125	-0.083496094	-0.767578125	884.08	-40.41645869	-70.13996306	49.54608047	-70
62896	0	0.368748665	-0.083165169	0.102542877	0.999996185	0.002344131	-0.00039959	-0.000271797	9.218716621	-2.079129219	2.56357193	0.117206685	-0.019979496	-0.013589872	-0.613769531	-0.085693359	-0.76171875	883.96	-40.14304926	-70.20120888	49.54069794	-70
62897	0	0.369262695	-0.086730957	0.09967041	0.999999046	0.000694275	-0.000315666	0.000133514	9.231567383	-2.168273926	2.491760254	0.034713749	-0.015783312	0.006675721	-0.613525391	-0.090087891	-0.767089844	883.98	-40.14004705	-70.22511398	49.62498933	-70
62898	0	0.370646477	-0.083517075	0.100283623	0.999999046	0.001003265	-0.000350952	0.000273705	9.266161919	-2.087926865	2.507090569	0.050163279	-0.017547611	0.013685229	-0.613525391	-0.090087891	-0.761230469	884.02	-40.14300836	-70.2418077	49.75291358	-70
62899	0	0.369140625	-0.081970215	0.098999023	0.999999046	0.000236511	-0.000128746	0.000236511	9.228515625	-2.049255371	2.474975586	0.011825562	-0.006437302	0.011825562	-0.613525391	-0.092285156	-0.766845703	884.02	-40.1789354	-70.24189117	49.82351915	-70
62900	0	0.367919922	-0.083496094	0.098144531	0.999998093	-0.001487732	-0.000414848	0.00031662	9.197998047	-2.087402344	2.453613281	-0.074386627	-0.020742425	0.015831	-0.611083984	-0.092285156	-0.766845703	883.96	-40.49111944	-70.26103331	49.98056645	-70
62901	0	0.368707657	-0.092955589	0.102641106	0.999997139	-0.000844955	-0.000884056	0.000482559	9.217691422	-2.323889732	2.566027641	-0.042247784	-0.044202817	0.024127967	-0.613525391	-0.090087891	-0.764160156	883.98	-40.86882874	-70.30787913	50.28587462	-70
62902	0	0.371571541	-0.092278481	0.1049366	0.999999046	0.000562668	-0.000436783	0.000314713	9.289288521	-2.306962013	2.623414993	0.028133395	-0.021839144	0.015735628	-0.615966797	-0.08984375	-0.761230469	884	-40.95193076	-70.3277887	50.44993463	-70
62903	0	0.373474121	-0.089050293	0.101501465	0.999999046	0.001052856	4.67E-05	0.000110626	9.336853027	-2.226257324	2.537536621	0.052642832	0.002336503	0.005531312	-0.615966797	-0.087890625	-0.764160156	883.98	-40.82811335	-70.32100634	50.4461066	-70
62904	0	0.36905098	-0.086853981	0.096774101	0.999999046	-0.000103951	-0.000160217	0.000476837	9.22627449	-2.171349525	2.419352531	-0.005197525	-0.008010865	0.023841859	-0.615966797	-0.090087891	-0.763916016	883.98	-40.96922997	-70.30470714	50.58797015	-70
62905	0	0.370361328	-0.087463379	0.099853516	0.999999046	0.000465393	-0.000636101	0.000495911	9.259033203	-2.186584473	2.496337891	0.023269657	-0.031805043	0.024795536	-0.615966797	-0.08984375	-0.758300781	884.04	-41.14976757	-70.32789546	50.84172137	-71
62906	0	0.3716259	-0.089138985	0.103918076	0.999997139	0.001745224	-0.000947952	-2.00E-05	9.290647507	-2.228474617	2.597951889	0.087261257	-0.047397645	-0.001001359	-0.618164063	-0.092041016	-0.758056641	883.96	-41.12529215	-70.41652595	51.03226257	-71
62907	0	0.365234375	-0.086608887	0.101257324	0.999997139	0.001796722	-0.000842094	3.81E-05	9.130859375	-2.165222168	2.531433105	0.08983618	-0.042104749	0.00190735	-0.620605469	-0.092041016	-0.7578125	884.04	-41.08702168	-70.49145649	51.20941081	-71
62908	0	0.369053841	-0.089399338	0.097416878	0.999998093	0.001399994	-0.000658989	0.000526428	9.226346016	-2.234983444	2.435421944	0.069999726	-0.032949462	0.026321423	-0.620361328	-0.096435547	-0.757568359	884.02	-41.17528148	-70.51363497	51.47662527	-71
62909	0	0.372253418	-0.08795166	0.09576416	0.999999046	0.000930786	-0.000689507	0.00056076	9.306335449	-2.198791504	2.394104004	0.046539319	-0.034475336	0.028038033	-0.620361328	-0.098632813	-0.760253906	884.14	-41.3330732	-70.53569876	51.76065205	-71
62910	0	0.375948906	-0.086426735	0.094673157	0.999999046	0.000473022	-0.000480652	0.000576019	9.398722649	-2.160668373	2.366828918	0.023651126	-0.024032596	0.028800968	-0.620361328	-0.098632813	-0.754394531	884.04	-41.50288038	-70.53857299	52.00359561	-71
62911	0	0.371704102	-0.082885742	0.09753418	0.999999046	-1.14E-05	-0.000510216	0.000301361	9.292602539	-2.072143555	2.438354492	-0.000572205	-0.025510789	0.015068055	-0.622802734	-0.098388672	-0.757324219	884.02	-41.66764813	-70.56475449	52.18163692	-71
62912	0	0.370532036	-0.087506294	0.099105835	0.999999046	0.000113487	-0.000646591	0.000266075	9.263300896	-2.187657356	2.477645874	0.005674363	-0.032329562	0.013303758	-0.625244141	-0.096191406	-0.754394531	884.04	-41.83944142	-70.60499871	52.38016723	-71
62913	0	0.372558594	-0.090759277	0.097839355	0.999998093	0.00150013	-0.000526428	0.000190735	9.313964844	-2.268981934	2.445983887	0.075006517	-0.026321422	0.009536747	-0.622802734	-0.098388672	-0.754394531	884.04	-41.80877775	-70.64050177	52.53034074	-72
62914	0	0.373112679	-0.088969231	0.094965935	0.999999046	0.001226425	-0.000173569	3.34E-05	9.327816963	-2.224230766	2.374148369	0.061321274	-0.008678439	0.00166893	-0.627441406	-0.100341797	-0.750976563	883.96	-41.69497599	-70.6579094	52.56318578	-72
62915	0	0.374755859	-0.085998535	0.095275879	0.999999046	0.001182556	-0.000121117	0.000267029	9.368896484	-2.149963379	2.381896973	0.059127822	-0.006055833	0.013351444	-0.627197266	-0.102783203	-0.753662109	883.94	-41.63179294	-70.65314788	52.64422572	-72
62916	0	0.374489784	-0.082132339	0.093668938	0.999999046	0.001238823	-0.000162125	0.00018692	9.362244606	-2.053308487	2.341723442	0.061941163	-0.008106234	0.009346011	-0.627197266	-0.102783203	-0.753662109	884.04	-41.55131376	-70.6583074	52.71022323	-72
62917	0	0.371582031	-0.08203125	0.092895508	0.999999046	0.000614166	9.54E-07	7.25E-05	9.289550781	-2.05078125	2.322387695	0.030708315	4.77E-05	0.003623963	-0.627197266	-0.104980469	-0.753662109	884.16	-41.4790381	-70.65844835	52.71142292	-72
62918	0	0.374010086	-0.08526516	0.094830513	0.999999046	-0.000253677	-1.91E-06	-0.000240326	9.350252151	-2.13162899	2.370762825	-0.012683869	-9.54E-05	-0.012016297	-0.624755859	-0.104980469	-0.753662109	884.04	-41.43033069	-70.68268246	52.63088233	-72
62919	0	0.372192383	-0.085144043	0.095397949	0.999999046	-0.000766754	0.000180244	-0.000343323	9.30480957	-2.128601074	2.38494873	-0.038337712	0.009012223	-0.01716614	-0.627441406	-0.102539063	-0.750976563	884.08	-41.37561634	-70.69910231	52.48163141	-72
62920	0	0.372523308	-0.088148117	0.095762253	0.999999046	-0.000946999	0.000295639	-1.53E-05	9.313082695	-2.203702927	2.39405632	-0.047349938	0.014781954	-0.00076294	-0.625	-0.102783203	-0.750976563	884.02	-41.3974433	-70.68068407	52.39365985	-73
62921	0	0.372741699	-0.086303711	0.097045898	0.999999046	-0.000286102	0.000306129	3.43E-05	9.31854248	-2.157592773	2.426147461	-0.014305115	0.015306473	0.001716614	-0.627441406	-0.102539063	-0.748046875	884	-41.35352566	-70.65757666	52.31986208	-72
62922	0	0.37237072	-0.085224152	0.096858025	0.999998093	1.05E-05	0.000239372	0.000102997	9.309267998	-2.13060379	2.421450615	0.000524521	0.011968613	0.005149841	-0.625	-0.100585938	-0.751220703	884.02	-41.30689782	-70.6350135	52.27287049	-73
62923	0	0.372375488	-0.088989258	0.09576416	0.999999046	0.000175476	0.000153542	0.000263214	9.309387207	-2.224731445	2.394104004	0.008773804	0.007677078	0.013160706	-0.625	-0.100585938	-0.754150391	884.08	-41.29960999	-70.60765795	52.28626442	-72
62924	0	0.371323586	-0.086832047	0.095724106	0.999999046	0.000193596	0.000144958	0.000400543	9.283089638	-2.170801163	2.393102646	0.009679795	0.007247925	0.020027161	-0.622558594	-0.102783203	-0.756835938	884.1	-41.325829	-70.57065825	52.3391977	-73
62925	0	0.370300293	-0.084655762	0.095214844	0.999999046	9.16E-05	0.000126839	0.00062561	9.257507324	-2.116394043	2.380371094	0.004577637	0.006341935	0.03128052	-0.625	-0.102783203	-0.756835938	883.9	-41.42219556	-70.51824197	52.45674062	-73
62926	0	0.371754646	-0.086507797	0.095018387	0.999999046	0.000131607	2.48E-05	0.000511169	9.293866158	-2.162694931	2.375459671	0.006580353	0.001239777	0.025558473	-0.622558594	-0.102783203	-0.75390625	884.08	-41.50780208	-70.48329256	52.56844525	-73
62927	0	0.375976563	-0.08984375	0.095275879	0.999999046	0.000400543	2.77E-05	0.000221252	9.399414063	-2.24609375	2.381896973	0.020027161	0.001382828	0.011062622	-0.622558594	-0.100585938	-0.757080078	884.02	-41.49215003	-70.47013596	52.59878036	-73
62928	0	0.374405861	-0.088894844	0.09622097	0.999999046	0.000462532	0.000133514	0.000395775	9.360146523	-2.222371101	2.405524254	0.023126604	0.006675721	0.019788743	-0.625	-0.102783203	-0.756835938	884.08	-41.48923405	-70.43466233	52.6554848	-73
62929	0	0.367675781	-0.084655762	0.096130371	0.999999046	0.000587463	0.000237465	0.00062561	9.191894531	-2.116394043	2.403259277	0.029373173	0.011873247	0.031280522	-0.620117188	-0.103027344	-0.754150391	884.1	-41.50494158	-70.37286713	52.74604805	-73
62930	0	0.368442535	-0.082685471	0.095607758	0.999999046	0.000505447	-1.53E-05	0.000675201	9.211063385	-2.067136765	2.390193939	0.025272372	-0.00076294	0.033760075	-0.622558594	-0.102783203	-0.751220703	883.94	-41.59502614	-70.32911595	52.9079994	-73
62931	0	0.37701416	-0.087280273	0.094665527	0.999999046	0.000621796	-0.000163078	-0.00012207	9.425354004	-2.182006836	2.366638184	0.031089785	-0.008153916	-0.006103516	-0.622558594	-0.104980469	-0.756591797	884.02	-41.51203294	-70.3588496	52.89911448	-73
62932	0	0.373709679	-0.087252617	0.096726418	0.999999046	0.000224113	1.72E-05	-0.000172615	9.342741966	-2.181315422	2.418160439	0.011205673	0.000858307	-0.008630753	-0.622558594	-0.102783203	-0.751220703	883.98	-41.42401952	-70.37700297	52.83395695	-73
62933	0	0.370605469	-0.084472656	0.095031738	0.999999046	-0.000499725	5.82E-05	-0.000148773	9.265136719	-2.111816406	2.375793457	-0.024986268	0.002908707	-0.00743866	-0.622558594	-0.102783203	-0.75390625	883.9	-41.41582526	-70.3899614	52.76520745	-73
62934	0	0.366896629	-0.088184357	0.096816063	0.999999046	-0.001226425	-0.000143051	0.000433922	9.172415733	-2.204608917	2.420401573	-0.061321276	-0.007152559	0.021696097	-0.622558594	-0.104980469	-0.750976563	883.94	-41.67427472	-70.37585145	52.90106308	-73
62935	0	0.370666504	-0.091430664	0.097045898	0.999999046	-0.000480652	-0.000239372	0.00038147	9.266662598	-2.285766602	2.426147461	-0.024032595	-0.011968614	0.019073488	-0.622558594	-0.100585938	-0.754150391	884.04	-41.85554651	-70.37368583	53.03727139	-72
62936	0	0.375039101	-0.089613914	0.097694397	0.999999046	-0.000941277	-3.81E-06	0.000442505	9.375977516	-2.240347862	2.442359924	-0.047063836	-0.000190735	0.022125248	-0.625	-0.100585938	-0.751220703	884.04	-42.05356657	-70.34660291	53.14180684	-72
62937	0	0.371582031	-0.08795166	0.098632813	0.999999046	-0.001022339	0.000164986	0.00043869	9.289550781	-2.198791504	2.465820313	-0.051116954	0.008249285	0.021934514	-0.622802734	-0.098388672	-0.751464844	883.98	-42.22299506	-70.30532006	53.20454323	-72
62938	0	0.3708601	-0.090614319	0.09789753	0.999999046	-0.000209808	0.000116348	0.000167847	9.271502495	-2.265357971	2.44743824	-0.010490418	0.005817413	0.008392334	-0.622802734	-0.096191406	-0.751708984	883.96	-42.24539116	-70.28888934	53.20661284	-72
62939	0	0.370483398	-0.089904785	0.097229004	0.999999046	-7.25E-05	4.67E-05	0.000297546	9.262084961	-2.247619629	2.430725098	-0.003623962	0.002336502	0.01487732	-0.622802734	-0.096191406	-0.754638672	884	-42.29771986	-70.26830507	53.25649358	-72
62940	0	0.373104095	-0.092704773	0.098164558	0.999999046	8.58E-06	0.000192642	0.000167847	9.327602386	-2.317619324	2.45411396	0.000429153	0.009632111	0.008392334	-0.625244141	-0.093994141	-0.757324219	884.04	-42.27895639	-70.24521834	53.23707172	-72
62941	0	0.373046875	-0.089050293	0.098571777	0.999999046	0.000495911	0.000157356	3.43E-05	9.326171875	-2.226257324	2.464294434	0.024795533	0.007867813	0.001716614	-0.622802734	-0.096191406	-0.754638672	884.04	-42.18025252	-70.23538427	53.19494059	-72
62942	0	0.370178223	-0.089172363	0.097839355	0.999999046	0.000965118	0.000114441	3.81E-06	9.254455566	-2.229309082	2.445983887	0.048255928	0.005722047	0.000190735	-0.622802734	-0.096191406	-0.754638672	884	-42.02974432	-70.23146719	53.15205631	-72
62943	0	0.370605469	-0.086608887	0.095214844	0.999999046	0.000675201	-1.81E-05	-0.000190735	9.265136719	-2.165222168	2.380371094	0.033760074	-0.000905991	-0.009536744	-0.622802734	-0.098388672	-0.757324219	884	-41.89455486	-70.25385563	53.09042849	-72
62944	0	0.373267174	-0.088046074	0.096173286	0.999999046	-0.000325203	-1.34E-05	-0.000221252	9.331679344	-2.201151848	2.404332161	-0.016260148	-0.000667572	-0.011062622	-0.622802734	-0.098388672	-0.754394531	883.98	-41.86561874	-70.2782406	53.02177149	-72
62945	0	0.372009277	-0.088928223	0.098876953	0.999999046	-0.000896454	0.0001688	-0.000461578	9.300231934	-2.223205566	2.471923828	-0.044822701	0.008440019	-0.023078922	-0.622802734	-0.098388672	-0.754394531	883.9	-41.80573344	-70.30536799	52.85250295	-72
62946	0	0.369067192	-0.089867592	0.100852966	0.999999046	-0.000259399	4.58E-05	-0.000237465	9.226679802	-2.246689796	2.521324158	-0.012969971	0.002288818	-0.011873245	-0.620361328	-0.098632813	-0.754394531	883.96	-41.75216694	-70.3256247	52.76668521	-72
62947	0	0.370666504	-0.090698242	0.099182129	0.999999046	0.000247955	0.000164986	-0.000221252	9.266662598	-2.267456055	2.479553223	0.012397766	0.008249283	-0.011062622	-0.622802734	-0.096191406	-0.754638672	883.94	-41.61888372	-70.33423807	52.65341519	-72
62948	0	0.369147301	-0.089387894	0.098370552	0.999999046	0.000649452	-0.000171661	-7.63E-06	9.228682518	-2.234697342	2.459263802	0.032472613	-0.008583069	-0.00038147	-0.620361328	-0.096435547	-0.757568359	884	-41.56252771	-70.35527695	52.66590761	-72
62949	0	0.373657227	-0.090576172	0.100341797	0.999999046	0.000297546	-0.000121117	-0.00012207	9.341430664	-2.264404297	2.508544922	0.01487732	-0.006055832	-0.006103516	-0.622558594	-0.100585938	-0.754150391	883.92	-41.50821808	-70.38053298	52.64754024	-72
62950	0	0.370407104	-0.090306282	0.097863197	0.999999046	0.000444412	-1.91E-05	-0.000138283	9.260177612	-2.257657051	2.446579933	0.022220612	-0.000953674	-0.006914139	-0.622558594	-0.102783203	-0.756835938	884.08	-41.41161486	-70.39813323	52.603136	-72
62951	0	0.368286133	-0.088562012	0.098571777	0.999999046	-4.96E-05	-2.19E-05	0.00018692	9.20715332	-2.214050293	2.464294434	-0.002479553	-0.001096725	0.009346008	-0.622558594	-0.102783203	-0.756835938	883.98	-41.45067603	-70.39119129	52.64304028	-72
62952	0	0.369171143	-0.091335297	0.098972321	0.999999046	0.000235558	-0.000135422	4.10E-05	9.229278564	-2.283382416	2.474308014	0.011777878	-0.006771088	0.0020504	-0.622558594	-0.100585938	-0.754150391	884.08	-41.44634216	-70.40486205	52.66767886	-72
62953	0	0.371337891	-0.091247559	0.098876953	0.999999046	0.00075531	-0.00014019	0.000263214	9.283447266	-2.281188965	2.471923828	0.037765507	-0.007009507	0.013160707	-0.620117188	-0.103027344	-0.754150391	883.9	-41.43738283	-70.40193087	52.75188719	-72
62954	0	0.372904778	-0.089707375	0.099150658	0.999998093	0.001378059	-0.000185966	0.000494957	9.322619438	-2.242684364	2.478766441	0.068902994	-0.009298328	0.024747857	-0.622558594	-0.102783203	-0.756835938	883.98	-41.42276692	-70.38527478	52.90197672	-72
62955	0	0.371826172	-0.086364746	0.096130371	0.999999046	0.001331329	-6.39E-05	0.000141144	9.295654297	-2.159118652	2.403259277	0.066566487	-0.00319481	0.007057192	-0.622558594	-0.104980469	-0.75390625	884	-41.30218866	-70.38508418	52.93586992	-72
62956	0	0.371813774	-0.085601807	0.096981049	0.999999046	0.000807762	-0.000110626	0.000190735	9.295344353	-2.140045166	2.424526215	0.040388112	-0.005531312	0.009536744	-0.622558594	-0.102783203	-0.75390625	884.08	-41.26339749	-70.38528712	52.9864049	-72
62957	0	0.371887207	-0.086242676	0.096923828	0.999999046	0.000507355	5.82E-05	4.58E-05	9.297180176	-2.156066895	2.423095703	0.025367738	0.002908707	0.002288818	-0.624755859	-0.107177734	-0.753417969	884.08	-41.18818262	-70.3819922	52.97054392	-72
62958	0	0.374065399	-0.084713936	0.096869469	0.999999046	0.000339508	2.86E-05	-0.000167847	9.351634979	-2.117848396	2.421736717	0.016975403	0.001430512	-0.008392334	-0.622314453	-0.107177734	-0.753662109	883.98	-41.08655813	-70.39751485	52.90316865	-72
62959	0	0.371276855	-0.086975098	0.097595215	0.999999046	0.000175476	5.82E-05	-0.000110626	9.281921387	-2.174377441	2.439880371	0.008773804	0.002908707	-0.005531311	-0.622558594	-0.107177734	-0.750732422	883.98	-41.01131465	-70.40616066	52.84482329	-72
62960	0	0.368171692	-0.088995934	0.097606659	0.999999046	-0.000159264	-9.35E-05	-0.000125885	9.204292297	-2.224898338	2.440166473	-0.007963181	-0.004673004	-0.006294251	-0.624755859	-0.107177734	-0.756347656	884.08	-41.00302596	-70.42894919	52.81503956	-72
62961	0	0.368774414	-0.088684082	0.102600098	0.999999046	0.000301361	-0.000247002	0.000110626	9.219360352	-2.217102051	2.565002441	0.015068055	-0.012350083	0.005531311	-0.622314453	-0.109375	-0.753417969	884.08	-41.03174982	-70.44696194	52.88389339	-71
62962	0	0.37197876	-0.09309864	0.10363102	0.999999046	-0.00041008	-0.000217438	5.72E-05	9.299468994	-2.327466011	2.59077549	-0.020503999	-0.010871888	0.002861023	-0.624755859	-0.107177734	-0.756347656	883.98	-41.12302817	-70.46603257	52.92913925	-70
62963	0	0.371948242	-0.094360352	0.103210449	0.999999046	0.000720978	-0.000136375	0.000263214	9.298706055	-2.359008789	2.58026123	0.036048893	-0.006818772	0.013160707	-0.624755859	-0.107177734	-0.756347656	883.94	-41.11798001	-70.46216184	53.00784471	-71
62964	0	0.368329048	-0.085743904	0.09999752	0.999998093	0.001256943	-0.000634193	0.000335693	9.208226204	-2.143597603	2.499938011	0.062847159	-0.031709682	0.016784674	-0.624511719	-0.111572266	-0.753173828	884.04	-41.17473585	-70.49569649	53.22340424	-71
62965	0	0.365539551	-0.082824707	0.105529785	0.999999046	0.001010895	-0.000784874	-0.000255585	9.13848877	-2.070617676	2.638244629	0.050544753	-0.039243709	-0.012779239	-0.624511719	-0.111572266	-0.753173828	883.98	-41.14693929	-70.58656758	53.31445635	-71
62966	0	0.36610508	-0.088909149	0.098176003	0.999996185	0.001669884	-0.000687599	-0.001584053	9.152626991	-2.222728729	2.454400063	0.083494267	-0.034379992	-0.079202728	-0.624511719	-0.111572266	-0.750244141	884	-40.69454136	-70.76867705	53.02733481	-71
62967	0	0.377319336	-0.094848633	0.094970703	0.999998093	0.000123024	-0.00120163	-0.001358032	9.432983398	-2.37121582	2.374267578	0.006151203	-0.060081515	-0.067901649	-0.62890625	-0.120117188	-0.752197266	884.04	-40.58260836	-70.97803865	52.92598705	-71
62968	0	0.373865128	-0.090694427	0.110329628	0.999997139	0.000721931	-0.0014534	-0.001568794	9.346628189	-2.267360687	2.7582407	0.036096604	-0.072670045	-0.078439779	-0.62890625	-0.120117188	-0.746582031	884	-40.39959955	-71.22425977	52.81728743	-71
62969	0	0.367248535	-0.08807373	0.112060547	0.999991417	0.003093719	-0.001734734	-0.001960754	9.181213379	-2.201843262	2.801513672	0.154686398	-0.086736917	-0.098037988	-0.62890625	-0.124511719	-0.74609375	884	-39.89758557	-71.52302675	52.65127437	-71
62970	0	0.366635323	-0.089694023	0.10744381	0.999996185	0.001612663	-0.001379967	-0.001769066	9.165883064	-2.242350578	2.686095238	0.080633266	-0.068998425	-0.088453405	-0.633300781	-0.130859375	-0.742431641	884.04	-39.52848812	-71.7752787	52.45276558	-72
62971	0	0.369628906	-0.093017578	0.109619141	0.999988556	0.004437447	-0.001010895	-0.00107193	9.240722656	-2.325439453	2.740478516	0.221873138	-0.050544923	-0.053596692	-0.633056641	-0.135253906	-0.745117188	883.98	-38.9343015	-71.94269751	52.34757855	-73
62972	0	0.378562927	-0.086289406	0.130440712	0.999978065	0.00647831	-8.96E-05	-0.000235558	9.464073181	-2.157235146	3.261017799	0.323917751	-0.004482301	-0.01177796	-0.635253906	-0.146240234	-0.735351563	883.98	-38.12505842	-71.96597028	52.27099553	-75
62973	0	0.368408203	-0.083374023	0.159729004	0.999976158	0.00541687	0.003960609	-0.00144577	9.210205078	-2.084350586	3.993225098	0.270845633	0.198032027	-0.072289081	-0.632324219	-0.155029297	-0.737792969	884	-36.23926379	-71.70004909	50.93451895	-72
62974	0	0.372234344	-0.081758499	0.181160927	0.999940872	0.005372047	0.008751869	-0.003349304	9.305858612	-2.043962479	4.52902317	0.268607595	0.43760197	-0.167468467	-0.627197266	-0.166259766	-0.745605469	884.08	-32.96160168	-71.08413416	48.12560302	-66
62975	0	0.371520996	-0.04473877	0.185974121	0.999897003	0.004284859	0.012950897	-0.00434494	9.288024902	-1.118469238	4.649353027	0.214250255	0.647566983	-0.217254431	-0.607666016	-0.180175781	-0.751220703	884.08	-29.05415375	-70.05690032	44.51522901	-64
62976	0	0.384068489	-0.04535675	0.210740089	0.999836922	-0.001130104	0.017175674	-0.005342484	9.601712227	-1.133918762	5.268502235	-0.056508263	0.858830221	-0.267138639	-0.5859375	-0.1875	-0.766113281	884.04	-25.31687517	-68.56974084	40.40881594	-65
62977	0	0.382873535	-0.062072754	0.218688965	0.999761581	-0.002078056	0.0207901	-0.006340027	9.571838379	-1.551818848	5.467224121	-0.103911074	1.039587619	-0.317026536	-0.552490234	-0.191162109	-0.787841797	883.92	-21.59388177	-66.65269876	36.15478777	-72
62978	0	0.374997139	-0.061261177	0.235484123	0.999685287	0.001193047	0.024127007	-0.006734848	9.374928474	-1.531529427	5.887103081	0.059658583	1.206476807	-0.336777707	-0.519042969	-0.194580078	-0.814941406	884.04	-17.78682633	-64.28441541	32.14334579	-67
62979	0	0.357421875	-0.042419434	0.238342285	0.999588966	-0.001075745	0.027600288	-0.007598877	8.935546875	-1.06048584	5.958557129	-0.053794591	1.380203247	-0.379995835	-0.473632813	-0.202880859	-0.836914063	884	-14.52704222	-61.45992613	28.37838002	-63
62980	0	0.36328125	-0.039148331	0.250421524	0.999438286	-0.010411263	0.030574799	-0.008869171	9.08203125	-0.978708267	6.260538101	-0.520660509	1.529025916	-0.443541517	-0.423828125	-0.202636719	-0.87109375	883.94	-12.57698525	-58.26029369	24.8063192	-71
62981	0	0.34197998	-0.051696777	0.246276855	0.999174118	-0.021571159	0.033130646	-0.009319305	8.549499512	-1.292419434	6.156921387	-1.078854757	1.656988118	-0.466093491	-0.367675781	-0.184814453	-0.895507813	884	-12.2210121	-54.74838042	21.51902867	-73
62982	0	0.328845978	-0.087530136	0.250712395	0.999174118	-0.020850182	0.03369236	-0.008952141	8.221149445	-2.188253403	6.267809868	-1.04279599	1.685081623	-0.447730227	-0.302978516	-0.147949219	-0.930908203	884.04	-12.18900172	-51.1579543	18.57499317	-73
62983	0	0.322753906	-0.107727051	0.262390137	0.999293327	-0.010246277	0.035042763	-0.008846283	8.068847656	-2.69317627	6.559753418	-0.512434419	1.752550514	-0.442418249	-0.23828125	-0.114990234	-0.945556641	884	-11.2577426	-47.39848321	15.84020621	-79
62984	0	0.306884766	-0.086303711	0.251647949	0.999346733	-0.008418083	0.033802032	-0.009536743	7.672119141	-2.157592773	6.29119873	-0.420995717	1.690469265	-0.476940883	-0.170410156	-0.102050781	-0.967529297	884.04	-10.38575519	-43.76734652	13.3072883	-71
62985	0	0.283947945	-0.098191261	0.264544487	0.999369621	-0.012138367	0.03234005	-0.007949829	7.098698616	-2.454781532	6.613612175	-0.607045497	1.617341284	-0.397574738	-0.105224609	-0.086914063	-0.978027344	884	-10.37492133	-40.25650449	11.26610989	-67
62986	0	0.250154495	-0.103359222	0.262540817	0.999404907	-0.012366295	0.03149128	-0.006719589	6.253862381	-2.58398056	6.563520432	-0.618437418	1.574876378	-0.336046121	-0.042724609	-0.062744141	-0.986328125	884	-10.67554788	-36.82143859	9.521129873	-71
62987	0	0.22442627	-0.113708496	0.266174316	0.999531746	-0.007850647	0.02883625	-0.006565094	5.610656738	-2.842712402	6.65435791	-0.392593627	1.442037596	-0.328305943	0.014892578	-0.036132813	-0.985839844	883.94	-10.63657712	-33.68723113	7.900893583	-73
62988	0	0.203848839	-0.10727787	0.265545845	0.999590874	-0.000893593	0.027746201	-0.006767273	5.09622097	-2.681946754	6.638646126	-0.044685724	1.387498875	-0.338409707	0.068359375	-0.022705078	-0.989990234	883.98	-9.921059117	-30.67311385	6.332590778	-70
62989	0	0.184326172	-0.098571777	0.261779785	0.999650002	-0.003509521	0.025135994	-0.00737381	4.608154297	-2.464294434	6.544494629	-0.175496509	1.256946058	-0.368733426	0.119628906	-0.019775391	-0.978759766	883.94	-9.603808675	-27.95581618	4.838983991	-73
62990	0	0.163241386	-0.102355957	0.272437096	0.999622345	-0.010272026	0.024657249	-0.006387711	4.08103466	-2.558898926	6.810927391	-0.513665893	1.233017516	-0.319425694	0.166259766	-0.008300781	-0.979248047	883.94	-10.20169959	-25.27806974	3.551889169	-83
62991	0	0.139587402	-0.129638672	0.282836914	0.999592781	-0.015514374	0.023030281	-0.006469727	3.489685059	-3.240966797	7.070922852	-0.77582383	1.15167013	-0.323530174	0.211669922	0.020996094	-0.97265625	883.98	-11.46321136	-22.80632158	2.289889906	-66
62992	0	0.111442566	-0.175254822	0.297380447	0.999715805	-0.005304337	0.022055626	-0.007254601	2.786064148	-4.381370544	7.434511185	-0.265241906	1.102885575	-0.362764326	0.254882813	0.050292969	-0.960449219	883.94	-11.58260255	-20.47707031	0.896992149	-76
62993	0	0.066589355	-0.143127441	0.283996582	0.999708176	-0.003394127	0.022823334	-0.007061005	1.664733887	-3.578186035	7.099914551	-0.169722818	1.141277463	-0.353084503	0.294189453	0.057861328	-0.948730469	884	-11.55002653	-18.05720957	-0.455813573	-67
62994	0	0.048539162	-0.202622414	0.271202087	0.999631882	-0.009083748	0.024895668	-0.005425453	1.213479042	-5.065560341	6.780052185	-0.454242803	1.244935262	-0.271305754	0.335449219	0.076171875	-0.935546875	883.94	-12.27745466	-15.37327725	-1.645343386	-67
62995	0	-0.011108398	-0.228149414	0.249389648	0.999669075	0.000545502	0.025105476	-0.005413055	-0.277709961	-5.703735352	6.234741211	0.027278086	1.255411916	-0.270682546	0.379150391	0.092529297	-0.916259766	884	-11.9663859	-12.66708622	-2.877931846	-67
62996	0	-0.01739502	-0.211730957	0.200927734	0.99963665	0.00583744	0.026134491	-0.002792358	-0.434875488	-5.293273926	5.023193359	0.291907298	1.306882471	-0.139634793	0.42578125	0.091064453	-0.895751953	884	-11.17717182	-9.771713154	-3.813557599	-68
62997	0	-0.021202087	-0.194309235	0.135451317	0.999464989	-0.005378723	0.032202721	0.000725746	-0.530052185	-4.857730865	3.386282921	-0.268983982	1.610422364	0.036293761	0.472412109	0.085205078	-0.872070313	883.94	-11.77117059	-6.11166075	-4.390514693	-69
62998	0	-0.090293884	-0.189368248	0.036893845	0.999155045	-0.021864891	0.034529686	0.004141808	-2.257347107	-4.7342062	0.922346115	-1.093552266	1.726970249	0.207148667	0.532470703	0.098876953	-0.839355469	883.92	-14.32326329	-2.118774643	-4.607865676	-68
62999	0	-0.085021973	-0.136291504	-0.123962402	0.999251366	-0.01707077	0.034703255	-0.00088501	-2.125549316	-3.407287598	-3.099060059	-0.853751545	1.735595808	-0.044261533	0.591308594	0.132324219	-0.799560547	884.04	-16.3595686	1.722854533	-5.513858181	-77
63000	0	-0.069499969	-0.043264389	-0.18091011	0.999559402	-0.013656616	0.026299477	-0.001625061	-1.737499237	-1.081609726	-4.522752762	-0.682931091	1.315166947	-0.081264985	0.643554688	0.157226563	-0.755859375	883.94	-18.07038912	4.581140329	-6.28586731	-74
63001	0	-0.072387695	0.074035645	-0.104431152	0.99965477	0.009179115	0.019126892	-0.015491486	-1.809692383	1.850891113	-2.610778809	0.459008567	0.956454631	-0.774663394	0.6796875	0.169433594	-0.715820313	884	-17.32357855	6.165783674	-8.328772931	-69
63002	0	-0.047884941	-0.019603729	-0.396141052	0.999450684	-0.013047218	0.018210411	-0.024413109	-1.197123528	-0.490093231	-9.903526306	-0.652480341	0.910687238	-1.220878901	0.709716797	0.173095703	-0.689208984	884	-19.29966766	7.307815721	-10.76103497	-73
63003	0	0.087890625	-0.423278809	-0.692626953	0.999576569	0.001160622	-0.02816391	0.007137299	2.197265625	-10.58197021	-17.31567383	0.058039263	-1.408394008	0.356915236	0.721191406	0.220947266	-0.662353516	883.94	-19.09542683	4.562448522	-8.511009202	-72
63004	0	1.523269653	-0.891055107	0.358257294	0.969841003	0.128059387	-0.192072868	0.078205109	38.08174133	-22.27637768	8.956432343	6.468123752	-9.701366755	3.950044833	0.666992188	0.145507813	-0.739257813	883.82	-5.34267458	-15.28434931	-3.982478917	-72
63005	0	2.71484375	2.20489502	1.907958984	0.818192482	0.476112366	-0.178198814	0.268554688	67.87109375	55.12237549	47.69897461	25.36210013	-9.492499037	14.30567942	0.219238281	-0.49609375	-0.836425781	883.94	40.87014012	-45.40512094	14.72879941	-66
63006	0	1.584017754	3.882642746	-0.035535812	0.97990799	-0.190608025	0.056855202	0.014649391	39.60044384	97.06606865	-0.888395309	-9.594744014	2.861952468	0.737414695	-0.266845703	-0.959228516	-0.093505859	883.94	15.287784	-40.52030057	26.29867876	-72
63007	0	0.099182129	0.290771484	-0.320251465	0.995310783	-0.039058685	0.008912086	-0.088039398	2.479553223	7.269287109	-8.006286621	-1.955992415	0.446302107	-4.408863066	-0.159179688	-0.810546875	-0.574951172	884.22	18.87327697	-36.6231722	14.42135849	-72
63008	0	0.617716789	0.072306633	0.024852753	0.988306999	-0.134598732	0.02520752	-0.06704998	15.44291973	1.807665825	0.621318817	-6.756289424	1.265311308	-3.365626594	-0.018798828	-0.763183594	-0.65234375	884.08	8.585916608	-31.98692599	6.343423322	-82
63009	0	0.02154541	-0.270996094	0.07220459	0.994502068	-0.090381622	0.018250465	-0.049633026	0.538635254	-6.774902344	1.805114746	-4.527381024	0.914199243	-2.486209197	0.097167969	-0.542480469	-0.834228516	884.04	1.945039562	-29.45822695	-0.233098129	-76
63010	0	0.166056633	-0.10786438	0.067644119	0.998826027	-0.021474838	0.005584717	-0.043059349	4.151415825	-2.696609497	1.691102982	-1.074162273	0.279345158	-2.153810321	0.16796875	-0.420166016	-0.891113281	884.08	2.665697101	-28.74659089	-6.120071067	-73
63011	0	0.161560059	-0.125061035	0.135192871	0.999419212	0.017963409	-0.012927055	-0.025886536	4.039001465	-3.126525879	3.379821777	0.898344194	-0.646477785	-1.294577129	0.199462891	-0.386230469	-0.895751953	884.16	6.856815566	-30.11595972	-9.909905682	-78
63012	0	0.183898926	-0.070556641	0.187255859	0.999221802	0.028404236	-0.024748802	-0.011680603	4.597473145	-1.763916016	4.681396484	1.420580297	-1.23776119	-0.584181691	0.188964844	-0.425292969	-0.874755859	884.08	11.55474008	-32.81448297	-12.19462134	-75
63013	0	0.292785645	0.064819336	0.262512207	0.999211311	0.004592896	-0.03579998	0.016494751	7.319641113	1.620483398	6.562805176	0.229705093	-1.79046916	0.82495417	0.145996094	-0.467529297	-0.863037109	884.16	11.736797	-37.32823077	-11.12882812	-72
63014	0	0.324566841	-0.02985096	0.316720963	0.998581886	0.027519226	-0.04155159	0.018693924	8.114171028	-0.746273994	7.918024063	1.376611887	-2.078561821	0.935138141	0.066650391	-0.478027344	-0.860839844	884.08	14.36050294	-42.63219621	-10.02709912	-71
63015	0	0.330200195	0.134216309	0.248352051	0.998561859	0.019570351	-0.041343689	0.027935028	8.255004883	3.355407715	6.20880127	0.978986631	-2.068175451	1.397421003	-0.018310547	-0.538574219	-0.825439453	884.08	15.07443915	-48.21014911	-7.584615585	-72
63016	0	0.403885841	0.099451065	0.390885353	0.998746872	0.020397186	-0.035149574	0.029194832	10.09714603	2.486276627	9.772133827	1.020285394	-1.75821296	1.460351448	-0.114013672	-0.557128906	-0.807373047	884.08	15.13879958	-53.15018907	-4.438991039	-73
63017	0	0.374633789	0.321350098	0.490966797	0.999578476	-0.013892174	-0.009475708	0.02363205	9.365844727	8.033752441	12.27416992	-0.694706116	-0.473851855	1.181768212	-0.184082031	-0.578613281	-0.775878906	884.1	10.8605326	-54.8354525	-0.804579681	-72
63018	0	0.273367882	0.050301552	0.299995422	0.999954224	0.00531292	0.001980782	0.007640839	6.834197044	1.257538795	7.499885559	0.265649989	0.099040572	0.382047696	-0.213623047	-0.542724609	-0.791503906	884.14	10.7181444	-54.78813598	0.326003568	-71
63019	0	0.25213623	0.070678711	0.184631348	0.999718666	0.023223877	0.002675056	-0.003871918	6.303405762	1.766967773	4.615783691	1.161302543	0.133765343	-0.193614008	-0.215332031	-0.560058594	-0.781494141	884	14.42059541	-54.40392779	-0.746839585	-71
63020	0	0.297988892	0.059096336	0.18129158	0.999903679	0.012738228	-0.00390625	-0.003718376	7.44972229	1.477408409	4.532289505	0.636931706	-0.195318729	-0.185924738	-0.207275391	-0.597412109	-0.753173828	884.14	17.13446282	-54.71788928	-2.066263211	-70
63021	0	0.309326172	0.107055664	0.20703125	0.999864578	0.015152931	-0.005558014	-0.002933502	7.733154297	2.676391602	5.17578125	0.757680546	-0.277913162	-0.146681689	-0.211425781	-0.6171875	-0.742919922	884.08	20.13431144	-55.20707434	-3.396342339	-70
63022	0	0.34022522	0.139133453	0.211437225	0.999864578	0.01557827	-0.003832817	-0.003653526	8.505630493	3.478336334	5.285930634	0.778948647	-0.191649502	-0.182684559	-0.215332031	-0.640869141	-0.720703125	884.04	23.26476733	-55.43877445	-4.810679812	-70
63023	0	0.340576172	0.146728516	0.179138184	0.999860764	0.015942574	-0.002269745	-0.004364014	8.514404297	3.668212891	4.47845459	0.797165664	-0.113492509	-0.218210808	-0.21484375	-0.665039063	-0.695800781	884.14	26.48622993	-55.44116537	-6.271741311	-70
63024	0	0.330470085	0.13315773	0.170167923	0.999965668	0.007472992	-0.00206089	-0.002620697	8.261752129	3.328943253	4.254198074	0.373653767	-0.10304566	-0.131036313	-0.214111328	-0.686767578	-0.676757813	883.98	28.46307816	-55.4858161	-7.393214618	-71
63025	0	0.330749512	0.118591309	0.192810059	0.99998951	0.003967285	-0.001185417	-0.001651764	8.268737793	2.964782715	4.820251465	0.198364915	-0.059271055	-0.082588469	-0.214111328	-0.695556641	-0.664550781	884.1	29.78851205	-55.48413107	-8.229512028	-71
63026	0	0.31594944	0.118617058	0.201749802	0.999992371	0.003642082	0.000264168	-0.000268936	7.898736	2.965426445	5.043745041	0.182104518	0.013208419	-0.013446838	-0.211669922	-0.699951172	-0.661621094	884.1	30.70596441	-55.40836689	-8.640221983	-71
63027	0	0.318969727	0.12121582	0.202758789	0.999952316	0.009606361	0.000507355	-0.001018524	7.974243164	3.030395508	5.068969727	0.480325561	0.025368132	-0.050927003	-0.211425781	-0.708496094	-0.65234375	884.16	32.33977087	-55.25923749	-9.115204006	-71
63028	0	0.318432808	0.141359329	0.18752861	0.999992371	0.003763199	0.0001688	0.000179291	7.960820198	3.533983231	4.688215256	0.188160389	0.008440038	0.00896456	-0.208740234	-0.719726563	-0.642822266	884.04	33.13832369	-55.20701968	-9.392591702	-71
63029	0	0.315979004	0.13482666	0.181945801	0.999996185	-0.002650261	-0.000354767	-3.05E-05	7.899475098	3.370666504	4.54864502	-0.132513204	-0.017738363	-0.001525881	-0.208740234	-0.721923828	-0.642822266	884.04	33.2482199	-55.1910499	-9.736717887	-71
63030	0	0.316407204	0.143805504	0.186635971	0.999995232	-0.002714157	-0.000812531	-0.000375748	7.910180092	3.595137596	4.665899277	-0.13570804	-0.040626581	-0.01878741	-0.208740234	-0.717529297	-0.643066406	884.04	33.41765148	-55.19407793	-10.17385067	-71
63031	0	0.326171875	0.122741699	0.191040039	0.999992371	0.003697395	0.000205994	-0.001083374	8.154296875	3.06854248	4.776000977	0.184870225	0.010299708	-0.054168836	-0.208740234	-0.715332031	-0.648925781	884.14	34.28274652	-55.06200157	-10.58861331	-71
63032	0	0.325465202	0.151462555	0.181272507	0.999995232	0.002505302	0.001075745	-0.000579834	8.136630058	3.786563873	4.531812668	0.125265284	0.053787301	-0.028991737	-0.204101563	-0.721923828	-0.640136719	884.1	34.84718716	-54.87622483	-10.80265119	-71
63033	0	0.323608398	0.130126953	0.182067871	0.999999046	5.34E-05	0.000477791	-0.001144409	8.090209961	3.253173828	4.551696777	0.002670289	0.023889548	-0.057220474	-0.203857422	-0.724121094	-0.639892578	884.08	35.22734521	-54.71513579	-11.14813489	-71
63034	0	0.320059776	0.138752937	0.188827515	0.99998951	0.004354477	0.000453949	-0.00071907	8.001494408	3.468823433	4.720687866	0.217724561	0.022697523	-0.03595364	-0.203857422	-0.726318359	-0.639892578	884.08	36.01758768	-54.58509225	-11.40687019	-71
63035	0	0.325561523	0.139038086	0.19128418	0.999988556	0.004414558	0.000926971	-0.001457214	8.139038086	3.475952148	4.782104492	0.220728747	0.046348745	-0.072860991	-0.201416016	-0.732910156	-0.627929688	884.08	36.83389352	-54.36053311	-11.69836837	-71
63036	0	0.316106796	0.135212898	0.181044579	0.999979973	0.006093025	0.000833511	-0.001218796	7.902669907	3.380322456	4.526114464	0.304653256	0.041675841	-0.060940188	-0.194091797	-0.739746094	-0.627685547	884.1	37.7913006	-54.1646795	-11.94009013	-71
63037	0	0.308898926	0.145996094	0.180847168	0.999968529	0.007736206	0.000527382	-0.001411438	7.722473145	3.649902344	4.521179199	0.386814308	0.026369368	-0.07057263	-0.193847656	-0.748535156	-0.618408203	884.08	38.96802332	-53.98042608	-12.22780846	-71
63038	0	0.313659668	0.159057617	0.171875	0.999996185	0.00224781	-0.00057888	-0.000770569	7.841491699	3.97644043	4.296875	0.11239063	-0.028944044	-0.038528481	-0.19140625	-0.755126953	-0.606689453	884.1	39.53749407	-53.93888366	-12.54133229	-71
63039	0	0.318786621	0.151855469	0.168212891	0.999999046	-0.000240326	-0.000498772	0.00031662	7.969665527	3.796386719	4.205322266	-0.012016297	-0.024938585	0.015830995	-0.191162109	-0.759521484	-0.606201172	884.1	39.67179384	-53.97428559	-12.67357323	-71
63040	0	0.31466198	0.146992683	0.177490234	0.999999046	0.00065136	-0.000597	0.000319481	7.866549492	3.674817085	4.437255859	0.032567983	-0.02985001	0.015974047	-0.19140625	-0.757324219	-0.603515625	884.14	39.90134714	-54.02101996	-12.80705545	-72
63041	0	0.323547363	0.152099609	0.185180664	0.999995232	0.002902985	-0.00052166	4.58E-05	8.088684082	3.802490234	4.629516602	0.145149441	-0.02608303	0.002288822	-0.193847656	-0.759277344	-0.59765625	884.12	40.39852261	-54.04153392	-12.96029822	-72
63042	0	0.326387405	0.143372536	0.194019318	0.999996185	0.002562523	0.000155449	-0.000490189	8.159685135	3.584313393	4.850482941	0.12812629	0.007772455	-0.024509458	-0.193603516	-0.761474609	-0.600341797	884.16	40.82649666	-53.96412012	-13.08884652	-72
63043	0	0.313781738	0.153869629	0.179199219	0.999994278	0.003205299	0.000846863	-0.000576019	7.844543457	3.846740723	4.479980469	0.160265271	0.04234322	-0.028801019	-0.19140625	-0.763671875	-0.588623047	884.1	41.2554078	-53.81933457	-13.13042228	-72
63044	0	0.312392235	0.164157867	0.167999268	0.999990463	0.004112244	0.000498772	-0.000746727	7.80980587	4.103946686	4.199981689	0.20561279	0.024938657	-0.03733646	-0.191162109	-0.768066406	-0.591308594	884.08	41.84289503	-53.69210122	-13.24173501	-72
63045	0	0.318237305	0.151489258	0.170776367	0.999990463	0.004158974	0.000110626	-0.000671387	7.955932617	3.787231445	4.26940918	0.2079493	0.005531327	-0.033569435	-0.188720703	-0.774658203	-0.585205078	884.08	42.45637552	-53.6070138	-13.3818222	-72
63046	0	0.320179939	0.161551476	0.174149513	0.999998093	0.00158596	8.49E-05	2.96E-05	8.004498482	4.038786888	4.353737831	0.079298053	0.004243852	0.001478196	-0.186279297	-0.779052734	-0.579101563	884.08	42.6901526	-53.57908873	-13.41799853	-72
63047	0	0.316833496	0.157409668	0.179077148	0.999999046	-0.001155853	7.34E-05	7.63E-05	7.920837402	3.935241699	4.476928711	-0.057792677	0.003671647	0.003814698	-0.190917969	-0.78125	-0.575927734	884.08	42.59532269	-53.55591626	-13.44005564	-72
63048	0	0.314208031	0.162937164	0.175410271	0.999999046	0.000443459	0.000415802	-0.000240326	7.855200768	4.073429108	4.385256767	0.022172929	0.020790102	-0.012016297	-0.186279297	-0.777099609	-0.582275391	884.1	42.67931198	-53.47917819	-13.46203773	-72
63049	0	0.317932129	0.153808594	0.170288086	0.999997139	0.002220154	-0.00014019	-0.000453949	7.948303223	3.845214844	4.257202148	0.111007786	-0.007009512	-0.022697468	-0.186279297	-0.779296875	-0.58203125	884.14	43.04293762	-53.43575	-13.58169167	-72
63050	0	0.314476013	0.163841248	0.174295425	0.999995232	0.002794266	3.81E-05	-0.000447273	7.86190033	4.096031189	4.357385635	0.139713474	0.001907351	-0.022363693	-0.183837891	-0.783447266	-0.5703125	884.16	43.44845944	-53.37699862	-13.67139702	-72
63051	0	0.315612793	0.162658691	0.170959473	0.999999046	0.000675201	0.000123024	3.81E-05	7.890319824	4.066467285	4.273986816	0.033760073	0.0061512	0.001907349	-0.183837891	-0.785644531	-0.567382813	884.08	43.5440626	-53.35021908	-13.67914588	-72
63052	0	0.314178467	0.161463737	0.17252636	0.999998093	0.001548767	0.000403404	-0.000370979	7.85446167	4.036593437	4.313158989	0.077438389	0.020170221	-0.018548974	-0.186035156	-0.783447266	-0.572998047	884.14	43.75126067	-53.26860029	-13.70585951	-72
63053	0	0.316345215	0.165039063	0.171325684	0.999995232	0.003032684	0.000370979	-0.000106812	7.908630371	4.125976563	4.28314209	0.151634453	0.018548994	-0.005340584	-0.18359375	-0.787841797	-0.567138672	884.04	44.09976216	-53.21118013	-13.6965832	-72
63054	0	0.318504333	0.160274506	0.169066429	0.999997139	0.002010345	4.77E-05	-0.000564575	7.962608337	4.00686264	4.226660728	0.100517346	0.002384188	-0.02822878	-0.181152344	-0.792480469	-0.563964844	884	44.41164945	-53.14598798	-13.78923572	-72
63055	0	0.31427002	0.164733887	0.170043945	0.999998093	0.001671791	-0.000217438	-8.01E-05	7.856750488	4.118347168	4.251098633	0.083589594	-0.010871892	-0.004005434	-0.178955078	-0.794677734	-0.558349609	884.04	44.65711736	-53.14164421	-13.84847249	-72
63056	0	0.317491531	0.162240982	0.170035362	0.999999046	0.000519753	-0.000188828	-4.20E-05	7.937288284	4.056024551	4.250884056	0.025987626	-0.009441376	-0.002098084	-0.181152344	-0.794433594	-0.558105469	884.08	44.75962112	-53.13939282	-13.89652504	-72
63057	0	0.315490723	0.167297363	0.172973633	0.999999046	0.000358582	-0.000163078	-1.53E-05	7.887268066	4.182434082	4.32434082	0.017929078	-0.008153916	-0.000762939	-0.181152344	-0.796630859	-0.552246094	884.08	44.83516852	-53.13681495	-13.93432654	-72
63058	0	0.313405037	0.161081314	0.170557976	0.999999046	0.001150131	-0.000165939	-0.000390053	7.835125923	4.027032852	4.263949394	0.057506576	-0.008296969	-0.019502645	-0.181152344	-0.796875	-0.560791016	883.94	45.03847586	-53.10488822	-14.02230545	-72
63059	0	0.311950684	0.169555664	0.168029785	0.999999046	0.000743866	-0.000285149	-0.000102997	7.79876709	4.238891602	4.200744629	0.037193302	-0.014257433	-0.005149842	-0.181152344	-0.796630859	-0.552246094	884.08	45.17660757	-53.10530008	-14.08594697	-72
63060	0	0.317932129	0.157962799	0.163767815	0.999999046	0.000828743	-0.000495911	0.000312805	7.948303223	3.949069977	4.094195366	0.041437156	-0.024795536	0.015640261	-0.181152344	-0.798828125	-0.549072266	884.1	45.29993945	-53.1592111	-14.12009637	-72
63061	0	0.314331055	0.171325684	0.173461914	0.999993324	0.003471375	6.20E-05	0.000198364	7.858276367	4.28314209	4.336547852	0.173569075	0.003099448	0.009918233	-0.181152344	-0.801025391	-0.551757813	884.06	45.67629603	-53.15763629	-14.0941395	-72
63062	0	0.316576958	0.176607132	0.171728134	0.999999046	0.000434875	0.000333786	-0.00021553	7.914423943	4.415178299	4.293203354	0.021743776	0.016689302	-0.01077652	-0.183349609	-0.805419922	-0.542724609	884	45.71903341	-53.09907443	-14.0842157	-72
63063	0	0.313964844	0.165344238	0.165527344	0.999999046	0.000297546	0.000184059	-0.000255585	7.849121094	4.133605957	4.138183594	0.01487732	0.009202957	-0.012779236	-0.178710938	-0.803222656	-0.548828125	884.1	45.76514898	-53.05009698	-14.10052002	-72
63064	0	0.316628456	0.161880493	0.164936066	0.999999046	0.001069069	-0.000164032	0.000106812	7.915711403	4.047012329	4.123401642	0.053453456	-0.008201601	0.005340577	-0.181152344	-0.803222656	-0.545898438	884.16	45.89703624	-53.06036118	-14.11436737	-72
63065	0	0.313903809	0.168212891	0.166748047	0.999998093	-0.001742363	-0.00025177	0.000686646	7.847595215	4.205322266	4.168701172	-0.087118201	-0.012588508	0.034332296	-0.180908203	-0.805419922	-0.545898438	884.1	45.65368623	-53.12537918	-14.06133746	-72
63066	0	0.312203407	0.164924622	0.172537804	0.999997139	0.002264023	-0.000169754	-2.77E-05	7.805085182	4.12311554	4.313445091	0.113201239	-0.008487709	-0.001382829	-0.181152344	-0.801025391	-0.549072266	884.06	45.93380526	-53.12477486	-14.09190806	-72
63067	0	0.320068359	0.17376709	0.172668457	0.999985695	0.005210876	4.77E-06	-0.000534058	8.001708984	4.344177246	4.316711426	0.260545015	0.00023842	-0.026703003	-0.178466797	-0.809814453	-0.539794922	884.08	46.58501978	-53.06775136	-14.16352268	-72
63068	0	0.314209938	0.169776917	0.163892746	0.999995232	0.002810478	0.000499725	-0.000685692	7.855248451	4.244422913	4.097318649	0.140524112	0.024986303	-0.034284641	-0.180908203	-0.812011719	-0.533691406	884.16	46.92092869	-52.95919868	-14.18507106	-72
63069	0	0.316223145	0.169555664	0.159423828	0.999998093	0.001561165	6.48E-05	8.77E-05	7.905578613	4.238891602	3.985595703	0.078058275	0.003242494	0.004386904	-0.178466797	-0.814208984	-0.531005859	884.08	47.08143972	-52.95058602	-14.16615156	-72
63070	0	0.313669205	0.176361084	0.164163589	0.999999046	-0.000696182	-0.000154495	-5.34E-05	7.841730118	4.4090271	4.104089737	-0.034809116	-0.007724763	-0.002670288	-0.180908203	-0.816162109	-0.524902344	884.1	47.02257346	-52.94684002	-14.19552231	-72
63071	0	0.313842773	0.16796875	0.166503906	0.999999046	0.000114441	-6.68E-06	3.81E-05	7.846069336	4.19921875	4.162597656	0.005722046	-0.000333786	0.001907349	-0.176025391	-0.81640625	-0.533691406	884.12	47.02885571	-52.93956292	-14.1922337	-72
63072	0	0.314834595	0.172742844	0.164139748	0.999999046	0.000159264	-4.77E-05	-1.91E-05	7.870864868	4.318571091	4.10349369	0.007963181	-0.002384186	-0.000953674	-0.178466797	-0.81640625	-0.530761719	884.04	47.05053653	-52.93081796	-14.2015747	-72
63073	0	0.31463623	0.172546387	0.161499023	0.999999046	-1.14E-05	0.000100136	9.54E-05	7.865905762	4.313659668	4.037475586	-0.000572205	0.00500679	0.004768372	-0.178466797	-0.814208984	-0.531005859	884.16	47.02473455	-52.92050625	-14.1760572	-72
63074	0	0.314879417	0.170529366	0.163701057	0.999999046	-3.62E-05	-0.000167847	3.72E-05	7.871985435	4.263234138	4.092526436	-0.001811981	-0.008392334	0.001859665	-0.178466797	-0.81640625	-0.527832031	884.08	47.031324	-52.92661516	-14.19443563	-72
63075	0	0.313232422	0.174682617	0.168395996	0.999999046	0.000514984	0.000103951	-9.92E-05	7.830810547	4.36706543	4.209899902	0.025749208	0.005197525	-0.004959107	-0.178466797	-0.814208984	-0.531005859	884.1	47.08437037	-52.89941727	-14.19288276	-72
63076	0	0.317620277	0.168748856	0.163770676	0.999999046	0.000985146	0.000112534	-0.000202179	7.940506935	4.21872139	4.094266891	0.049257287	0.005626679	-0.010108949	-0.178466797	-0.814208984	-0.531005859	884	47.20010453	-52.86372597	-14.20279433	-72
63077	0	0.311401367	0.173828125	0.160522461	0.999999046	0.000408173	8.58E-06	1.53E-05	7.78503418	4.345703125	4.013061523	0.020408631	0.000429153	0.000762939	-0.176025391	-0.818603516	-0.524902344	884	47.23953325	-52.85440446	-14.19873144	-72
63078	0	0.313966751	0.173342705	0.165084839	0.999999046	0.00041008	-0.00015831	-0.000164032	7.849168777	4.333567619	4.127120972	0.020503999	-0.007915497	-0.008201599	-0.178466797	-0.81640625	-0.527832031	884.04	47.31575637	-52.84289672	-14.24152027	-72
63079	0	0.316040039	0.169006348	0.165710449	0.999998093	0.001786232	0.000221252	-0.000156403	7.901000977	4.225158691	4.14276123	0.089311648	0.011062628	-0.007820134	-0.176025391	-0.818603516	-0.527832031	884.04	47.5053742	-52.80299288	-14.22935457	-72
63080	0	0.311397552	0.170658112	0.161821365	0.999996185	0.002628326	0.000142097	-0.000209808	7.784938812	4.266452789	4.045534134	0.131416474	0.007104882	-0.01049043	-0.176025391	-0.820800781	-0.524658203	884.1	47.80520213	-52.76490578	-14.23455361	-72
63081	0	0.315124512	0.178649902	0.160888672	0.999992371	0.003735542	-0.000244141	-0.00038147	7.878112793	4.466247559	4.022216797	0.186777556	-0.01220706	-0.019073531	-0.176025391	-0.822998047	-0.518798828	884.04	48.29299689	-52.7416857	-14.31613927	-72
63082	0	0.314086914	0.177001953	0.160400391	0.999999046	5.34E-05	1.14E-05	5.34E-05	7.852172852	4.425048828	4.010009766	0.002670288	0.000572205	0.002670288	-0.176025391	-0.824951172	-0.507324219	884.1	48.28649067	-52.73602426	-14.30581568	-72
63083	0	0.313293457	0.174926758	0.15802002	0.999999046	-0.000720978	6.58E-05	0.000392914	7.832336426	4.373168945	3.950500488	-0.036048893	0.003290177	0.019645693	-0.173583984	-0.825195313	-0.515869141	884.1	48.15128175	-52.75556453	-14.24600804	-72
63084	0	0.316221237	0.180365562	0.161738396	0.999999046	-0.000250816	8.20E-05	0.000217438	7.90553093	4.509139061	4.043459892	-0.012540818	0.0041008	0.010871887	-0.176025391	-0.825195313	-0.515869141	884.12	48.08624107	-52.75866974	-14.2063632	-72
63085	0	0.312988281	0.175720215	0.162963867	0.999999046	-0.000133514	0.000126839	-3.05E-05	7.824707031	4.393005371	4.07409668	-0.00667572	0.006341934	-0.001525879	-0.176025391	-0.825195313	-0.512939453	884.08	48.05425603	-52.73705211	-14.19132834	-72
63086	0	0.313232422	0.174255371	0.158325195	0.999999046	0.000537872	-0.000236511	-1.14E-05	7.830810547	4.356384277	3.958129883	0.026893617	-0.011825562	-0.000572205	-0.173583984	-0.825195313	-0.513183594	884	48.13827022	-52.74521924	-14.22549308	-72
63087	0	0.315490723	0.177429199	0.159240723	0.999999046	-0.000720978	-0.000193596	0.000125885	7.887268066	4.43572998	3.981018066	-0.036048893	-0.009679795	0.006294251	-0.173583984	-0.825195313	-0.518798828	884.12	48.0598694	-52.76199929	-14.23684289	-72
63088	0	0.3125	0.178283691	0.161987305	0.999998093	-0.00164032	-0.00014782	0.000358582	7.8125	4.457092285	4.049682617	-0.08201603	-0.007390979	0.017929086	-0.176025391	-0.825195313	-0.512939453	884.08	47.84762719	-52.79477999	-14.21163137	-72
63089	0	0.313598633	0.173583984	0.162902832	0.999999046	8.39E-05	8.58E-06	1.14E-05	7.83996582	4.339599609	4.072570801	0.004196167	0.000429153	0.000572205	-0.176025391	-0.825195313	-0.515869141	884.08	47.85013055	-52.78606408	-14.20860977	-72
63090	0	0.317261696	0.175739288	0.161596298	0.999999046	-0.000102997	7.25E-05	0.000208855	7.931542397	4.393482208	4.039907455	-0.005149841	0.003623962	0.010442734	-0.173583984	-0.822998047	-0.519042969	884.1	47.80417534	-52.78943943	-14.17187563	-72
63091	0	0.314697266	0.173400879	0.165649414	0.999999046	-0.00030899	7.34E-05	-9.54E-05	7.867431641	4.335021973	4.141235352	-0.015449524	0.003671646	-0.004768372	-0.173828125	-0.820800781	-0.521972656	884.16	47.76460382	-52.76685476	-14.17321774	-72
63092	0	0.310977936	0.173847198	0.163298607	0.999999046	0.000216484	-5.15E-05	0.000315666	7.774448395	4.346179962	4.082465172	0.010824204	-0.002574921	0.01578331	-0.173583984	-0.822998047	-0.519042969	884.04	47.75726599	-52.78859055	-14.13913519	-72
63093	0	0.316223145	0.170837402	0.164001465	0.999999046	-0.00012207	-4.48E-05	1.53E-05	7.905578613	4.270935059	4.100036621	-0.006103516	-0.002241135	0.000762939	-0.173583984	-0.822998047	-0.519042969	884.1	47.7401446	-52.78466267	-14.14187163	-72
63094	0	0.311665535	0.179393768	0.162550926	0.999999046	-0.001155853	0.000307083	0.000312805	7.791638374	4.484844208	4.063773155	-0.057792678	0.01535416	0.015640263	-0.173583984	-0.825195313	-0.515869141	883.98	47.53570315	-52.77830371	-14.05748159	-72
63095	0	0.311950684	0.174499512	0.158081055	0.999998093	0.001793861	-3.43E-05	-0.000442505	7.79876709	4.362487793	3.952026367	0.089693121	-0.001716615	-0.022125257	-0.173828125	-0.820800781	-0.521972656	884.04	47.78476912	-52.7345059	-14.11876637	-72
63096	0	0.313085556	0.17852211	0.159251213	0.999998093	0.001754761	-0.000102043	0.000164032	7.827138901	4.46305275	3.981280327	0.087738083	-0.00510216	0.008201603	-0.173828125	-0.822998047	-0.516113281	884	47.97620071	-52.74725615	-14.11245693	-72
63097	0	0.310974121	0.176086426	0.159301758	0.999999046	-0.000846863	-0.000166893	-5.34E-05	7.774353027	4.402160645	3.982543945	-0.042343145	-0.008344651	-0.002670288	-0.173583984	-0.825195313	-0.515869141	884.04	47.89905156	-52.74643964	-14.14288782	-72
63098	0	0.315490723	0.177307129	0.162231445	0.999999046	0.000915527	-0.000137329	0.000408173	7.887268066	4.432678223	4.055786133	0.045776375	-0.006866456	0.020408634	-0.173583984	-0.825195313	-0.515869141	884	47.97406484	-52.78262426	-14.11091555	-72
63099	0	0.315185547	0.172607422	0.162658691	0.999999046	-0.000354767	-0.000208855	3.05E-05	7.879638672	4.315185547	4.066467285	-0.017738343	-0.010442734	0.001525879	-0.173583984	-0.825195313	-0.518798828	884.1	47.94917812	-52.79237991	-14.13661296	-72
63100	0	0.314025879	0.173583984	0.164123535	0.999999046	0.000359535	-0.000324249	0.000164032	7.850646973	4.339599609	4.103088379	0.017976762	-0.016212464	0.008201599	-0.173583984	-0.825195313	-0.518798828	884.08	48.0050838	-52.82233954	-14.16119733	-72
63101	0	0.311950684	0.178955078	0.161437988	0.999999046	0.000423431	-0.000113487	-3.05E-05	7.79876709	4.473876953	4.035949707	0.021171571	-0.005674362	-0.001525879	-0.176025391	-0.825195313	-0.515869141	884.1	48.06471864	-52.81923324	-14.18095372	-72
63102	0	0.313440323	0.175323486	0.158593178	0.999999046	0.000946045	-0.000164032	1.81E-05	7.836008072	4.383087158	3.964829445	0.047302253	-0.0082016	0.000905991	-0.176025391	-0.825195313	-0.515869141	884.1	48.18528228	-52.82426159	-14.20203222	-72
63103	0	0.315002441	0.179748535	0.160583496	0.999999046	-0.000247955	7.34E-05	0.0001297	7.875061035	4.493713379	4.014587402	-0.012397766	0.003671646	0.006484985	-0.173583984	-0.825195313	-0.513183594	884.1	48.13145297	-52.82052297	-14.17558825	-72
63104	0	0.313985825	0.175618172	0.16352272	0.999999046	-7.15E-05	0.000198364	-3.81E-05	7.849645615	4.390454292	4.088068008	-0.003576279	0.009918213	-0.001907349	-0.173583984	-0.825195313	-0.513183594	884.04	48.10037881	-52.79280222	-14.15253603	-72
63105	0	0.313171387	0.177307129	0.163635254	0.999999046	0.000389099	0.000439644	-8.77E-05	7.829284668	4.432678223	4.090881348	0.019454957	0.021982194	-0.004386902	-0.173583984	-0.825195313	-0.513183594	884.14	48.09988946	-52.74216945	-14.10171883	-72
63106	0	0.316901207	0.172913551	0.166097641	0.999996185	0.00237751	0.000552177	-0.00087738	7.922530174	4.322838783	4.152441025	0.118875637	0.027608902	-0.043869068	-0.173583984	-0.825195313	-0.515869141	884.06	48.39279194	-52.61566998	-14.13398468	-72
63107	0	0.309204102	0.176635742	0.161132813	0.999995232	0.002822876	0.000126839	-0.000923157	7.730102539	4.415893555	4.028320313	0.141144007	0.006341944	-0.046157905	-0.171142578	-0.829589844	-0.510009766	884.06	48.78786538	-52.51719053	-14.23045333	-72
63108	0	0.315125465	0.176593781	0.159425735	0.999991417	0.004038811	0.000417709	-0.000638008	7.878136635	4.414844513	3.985643387	0.201941105	0.020885526	-0.031900496	-0.168701172	-0.833984375	-0.50390625	884	49.26028021	-52.42137378	-14.24893075	-72
63109	0	0.308044434	0.187011719	0.153198242	0.999999046	0.000881195	0.000317574	-0.000389099	7.70111084	4.675292969	3.829956055	0.044059761	0.01587868	-0.019454959	-0.168945313	-0.836181641	-0.495361328	884.1	49.35860944	-52.35430985	-14.25104218	-72
63110	0	0.311035156	0.176025391	0.153442383	0.999999046	0.001312256	-0.000190735	0.000205994	7.775878906	4.400634766	3.83605957	0.065612813	-0.009536746	0.010299686	-0.166503906	-0.838378906	-0.495117188	884.12	49.50610644	-52.37740124	-14.25307134	-72
63111	0	0.312866211	0.180114746	0.158874512	0.999996185	-0.0020895	-0.000221252	0.001434326	7.821655273	4.502868652	3.971862793	-0.104475134	-0.011062634	0.071716386	-0.166259766	-0.838623047	-0.500976563	884.06	49.14767573	-52.50962053	-14.10878316	-72
63112	0	0.311883926	0.184947968	0.1632967	0.999986649	-0.004821777	0.000454903	0.001363754	7.79709816	4.623699188	4.082417488	-0.241089884	0.022745228	0.068188001	-0.171142578	-0.831787109	-0.504150391	884.06	48.40493693	-52.58339054	-13.87482283	-72
63113	0	0.314819336	0.178649902	0.164672852	0.999999046	0.000518799	0.000397682	0.000114441	7.870483398	4.466247559	4.116821289	0.025939943	0.019884111	0.005722046	-0.171142578	-0.829589844	-0.512939453	884.06	48.40370668	-52.55344359	-13.80468426	-72
63114	0	0.311925888	0.17709446	0.158876419	0.999996185	0.002381325	0.000277519	-0.000137329	7.798147202	4.427361488	3.971910477	0.119066353	0.013875975	-0.006866462	-0.168701172	-0.831787109	-0.507080078	884	48.65446851	-52.51119171	-13.78275476	-72
63115	0	0.311218262	0.178771973	0.156555176	0.999999046	0.0001297	-0.000117302	0.00012207	7.780456543	4.469299316	3.913879395	0.006484985	-0.005865097	0.006103516	-0.168701172	-0.833984375	-0.50390625	884.16	48.66619892	-52.5212753	-13.78434304	-72
63116	0	0.312337875	0.182276726	0.159973145	0.999999046	-1.62E-05	-0.000131607	-0.000118256	7.808446884	4.556918144	3.999328613	-0.000810623	-0.006580353	-0.005912781	-0.171142578	-0.833984375	-0.506835938	884.04	48.6868744	-52.51160511	-13.8182815	-72
63117	0	0.315979004	0.176757813	0.162963867	0.999999046	0.000648499	-0.000220299	0.000259399	7.899475098	4.418945313	4.07409668	0.03242493	-0.011014939	0.012969972	-0.171142578	-0.833984375	-0.500976563	884.06	48.75599856	-52.54131316	-13.81731193	-72
63118	0	0.310465813	0.178940773	0.160518646	0.999999046	-0.001304626	3.05E-05	0.000263214	7.761645317	4.473519325	4.012966156	-0.065231343	0.001525879	0.013160709	-0.168701172	-0.833984375	-0.50390625	884	48.57268559	-52.55224988	-13.78037531	-72
63119	0	0.311645508	0.178588867	0.160095215	0.999999046	-6.10E-05	-5.25E-05	0.000198364	7.791137695	4.46472168	4.002380371	-0.003051758	-0.002622604	0.009918213	-0.171142578	-0.831787109	-0.504150391	884.18	48.54764239	-52.56384195	-13.7633501	-72
63120	0	0.312683105	0.180969238	0.159423828	0.999999046	0.000721931	-0.000144958	-8.01E-05	7.817077637	4.524230957	3.985595703	0.036096576	-0.007247925	-0.004005432	-0.171386719	-0.831787109	-0.501220703	884.16	48.6506181	-52.55844741	-13.7943402	-72
63121	0	0.313415527	0.174865723	0.161621094	0.999999046	-0.000476837	0.000100136	0.000282288	7.835388184	4.371643066	4.040527344	-0.023841859	0.00500679	0.014114381	-0.171142578	-0.833984375	-0.506835938	884.12	48.5524098	-52.56578774	-13.74529865	-72
63122	0	0.314095497	0.181674004	0.162833214	0.999999046	7.25E-05	-5.72E-06	-4.20E-05	7.852387428	4.54185009	4.070830345	0.003623962	-0.000286102	-0.002098083	-0.171142578	-0.831787109	-0.506835938	884.12	48.56122077	-52.55311248	-13.75173654	-71
63123	0	0.311645508	0.178710938	0.16015625	0.999999046	0.000789642	5.44E-05	9.92E-05	7.791137695	4.467773438	4.00390625	0.039482121	0.002717972	0.004959107	-0.171142578	-0.833984375	-0.50390625	884.06	48.63157066	-52.5479795	-13.73197307	-72
63124	0	0.310930252	0.176702499	0.158689499	0.999999046	0.000582695	-0.000196457	-0.000198364	7.773256302	4.417562485	3.967237473	0.029134752	-0.009822846	-0.009918214	-0.173583984	-0.833984375	-0.498046875	884.04	48.73577163	-52.53631211	-13.78456114	-72
63125	0	0.315246582	0.180969238	0.160339355	0.999999046	0.000598907	-0.000117302	0.00012207	7.881164551	4.524230957	4.008483887	0.029945375	-0.005865097	0.006103516	-0.171142578	-0.831787109	-0.504150391	884.06	48.80146333	-52.54625885	-13.78672653	-72
63126	0	0.313008308	0.17986393	0.16078186	0.999999046	-0.000282288	-4.58E-05	7.25E-05	7.82520771	4.496598244	4.019546509	-0.01411438	-0.002288818	0.003623962	-0.168945313	-0.833984375	-0.501220703	884.04	48.76300347	-52.54648701	-13.78455897	-72
63127	0	0.312255859	0.177307129	0.159729004	0.999999046	0.000282288	3.53E-05	0.000125885	7.806396484	4.432678223	3.993225098	0.01411438	0.001764298	0.006294251	-0.171142578	-0.833984375	-0.500976563	884.12	48.77475418	-52.54526728	-13.76422803	-72
63128	0	0.310214996	0.181713104	0.160135269	0.999999046	0.000445366	-0.000143051	7.63E-06	7.755374908	4.542827606	4.003381729	0.022268296	-0.007152558	0.00038147	-0.168701172	-0.833984375	-0.50390625	884.04	48.83711198	-52.54710179	-13.78421714	-72
63129	0	0.31451416	0.177185059	0.162353516	0.999999046	0.000396729	-2.57E-05	3.81E-05	7.862854004	4.429626465	4.058837891	0.019836426	-0.00128746	0.001907349	-0.168701172	-0.833984375	-0.50390625	884.12	48.87731264	-52.5427955	-13.78345046	-72
63130	0	0.310668945	0.180969238	0.159423828	0.999999046	-0.000312805	4.96E-05	0.000141144	7.766723633	4.524230957	3.985595703	-0.015640259	0.002479553	0.00705719	-0.171142578	-0.836181641	-0.500976563	884	48.81774154	-52.54156643	-13.75902286	-72
63131	0	0.31262207	0.179931641	0.159667969	0.999999046	0.000217438	-1.81E-05	4.96E-05	7.815551758	4.498291016	3.991699219	0.010871887	-0.000905991	0.002479553	-0.168945313	-0.833984375	-0.501220703	884.1	48.83565031	-52.53753466	-13.7558218	-72
63132	0	0.311180115	0.18094635	0.15969944	0.999998093	6.10E-05	-9.06E-05	3.05E-05	7.779502869	4.523658752	3.992486	0.003051758	-0.004529953	0.001525879	-0.168701172	-0.836181641	-0.50390625	884.1	48.84581141	-52.5372173	-13.76543868	-72
63133	0	0.313171387	0.177246094	0.159423828	0.999999046	0.000247955	-0.000163078	0.000102997	7.829284668	4.431152344	3.985595703	0.012397766	-0.008153916	0.005149841	-0.168701172	-0.833984375	-0.50390625	884.16	48.87831038	-52.54875173	-13.77633861	-72
63134	0	0.313659668	0.181274414	0.158874512	0.999999046	-0.000343323	8.01E-05	-7.63E-06	7.841491699	4.531860352	3.971862793	-0.017166138	0.004005432	-0.00038147	-0.171142578	-0.833984375	-0.50390625	884.06	48.82675477	-52.5324093	-13.76648061	-72
63135	0	0.311157227	0.179748535	0.159423828	0.999999046	7.63E-06	-3.72E-05	0.000255585	7.778930664	4.493713379	3.985595703	0.00038147	-0.001859665	0.012779236	-0.171142578	-0.836181641	-0.503662109	884.1	48.80277703	-52.54756726	-13.74056522	-72
63136	0	0.312297821	0.178980827	0.158725739	0.999999046	0.00032711	-6.68E-05	1.43E-05	7.807445526	4.474520683	3.968143463	0.016355515	-0.00333786	0.000715256	-0.171142578	-0.836181641	-0.500976563	884.06	48.84257556	-52.5441926	-13.74875986	-72
63137	0	0.313232422	0.180358887	0.161193848	0.999999046	-0.000144958	-6.77E-05	7.25E-05	7.830810547	4.508972168	4.029846191	-0.007247925	-0.003385544	0.003623962	-0.168701172	-0.836181641	-0.50390625	884.1	48.82261225	-52.54585295	-13.75007213	-71
63138	0	0.311510086	0.179411888	0.161202431	0.999999046	0.000293732	9.73E-05	7.92E-05	7.787752151	4.485297203	4.030060768	0.014686585	0.004863739	0.003957748	-0.171142578	-0.836181641	-0.500976563	884.06	48.83358732	-52.53556009	-13.72688695	-72
63139	0	0.313720703	0.177612305	0.159118652	0.999999046	0.000579834	4.29E-05	2.67E-05	7.843017578	4.440307617	3.977966309	0.028991701	0.002145767	0.001335144	-0.171142578	-0.836181641	-0.498046875	884.06	48.88856641	-52.52499099	-13.71781628	-72
63140	0	0.31042099	0.183577538	0.158626556	0.999999046	-0.00067997	2.67E-05	0.000193596	7.76052475	4.589438438	3.96566391	-0.033998492	0.001335144	0.009679795	-0.168945313	-0.836181641	-0.495361328	884.06	48.7849524	-52.52985216	-13.69047905	-72
63141	0	0.314575195	0.177612305	0.159667969	0.999998093	-0.001254082	-5.72E-05	0.000747681	7.864379883	4.440307617	3.991699219	-0.062704109	-0.002861024	0.037384047	-0.171142578	-0.836181641	-0.503662109	884.04	48.57008943	-52.58886827	-13.60638058	-72
63142	0	0.312111855	0.177420616	0.158002853	0.999986649	-0.004843712	8.49E-05	0.001487732	7.802796364	4.435515404	3.950071335	-0.242186629	0.004243869	0.074386915	-0.173583984	-0.831787109	-0.50390625	884.04	47.85321863	-52.69996053	-13.40769661	-71
63143	0	0.313964844	0.176269531	0.16394043	0.999986649	-0.004916191	-6.10E-05	0.001434326	7.849121094	4.406738281	4.098510742	-0.24581063	-0.003051771	0.071716622	-0.173583984	-0.827392578	-0.510009766	884.06	47.14712025	-52.81632223	-13.23333963	-71
63144	0	0.313899994	0.181755066	0.170767784	0.999999046	0.00114727	-7.63E-06	-0.000504494	7.847499847	4.543876648	4.269194603	0.057363525	-0.00038147	-0.025224692	-0.176269531	-0.818603516	-0.521972656	884.1	47.3277868	-52.76443216	-13.30148152	-72
63145	0	0.313781738	0.173400879	0.1640625	0.999988556	0.004548073	-4.20E-05	-0.000999451	7.844543457	4.335021973	4.1015625	0.227404463	-0.002098091	-0.049972715	-0.173583984	-0.827392578	-0.518554688	884.04	47.95147562	-52.67303463	-13.43649587	-72
63146	0	0.308380127	0.175318718	0.155736923	0.999999046	0.001037598	-0.00015831	-0.000572205	7.709503174	4.382967949	3.89342308	0.051879895	-0.007915499	-0.028610236	-0.173583984	-0.829589844	-0.512695313	884.06	48.14227875	-52.62646037	-13.53233079	-71
63147	0	0.311340332	0.17755127	0.156494141	0.999999046	0.000221252	-0.000544548	0.000362396	7.783508301	4.438781738	3.912353516	0.011062623	-0.027227404	0.018119813	-0.171386719	-0.829589844	-0.501464844	884.06	48.1894204	-52.68918795	-13.56416854	-72
63148	0	0.318425179	0.17483139	0.168092728	0.999999046	1.43E-05	-0.000461578	0.000152588	7.960629463	4.37078476	4.202318192	0.000715256	-0.023078919	0.007629395	-0.173583984	-0.831787109	-0.509765625	884.1	48.22401475	-52.72770177	-13.61103667	-72
63149	0	0.313354492	0.177368164	0.166015625	0.999999046	-0.001255035	9.63E-05	0.00043869	7.833862305	4.434204102	4.150390625	-0.062751789	0.004816057	0.021934516	-0.173583984	-0.829589844	-0.504150391	884.18	48.02143567	-52.74783432	-13.54225316	-71
63150	0	0.314147949	0.173766136	0.158210754	0.999999046	-0.000207901	-0.000188828	0.00026989	7.85369873	4.344153404	3.95526886	-0.01039505	-0.009441376	0.013494492	-0.173583984	-0.829589844	-0.512695313	884.12	47.98780694	-52.77560422	-13.5356957	-72
63151	0	0.314208984	0.180114746	0.162109375	0.999999046	-0.001117706	-2.96E-05	0.000656128	7.855224609	4.502868652	4.052734375	-0.055885331	-0.001478196	0.032806406	-0.176025391	-0.827392578	-0.512695313	884.1	47.79312857	-52.82384023	-13.45751352	-72
63152	0	0.313469887	0.17335701	0.163088799	0.999998093	-0.001630783	-2.57E-05	0.000286102	7.836747169	4.333925247	4.077219963	-0.081539191	-0.001287461	0.014305121	-0.176025391	-0.827392578	-0.510009766	884.12	47.57636235	-52.84030053	-13.42499752	-72
63153	0	0.312561035	0.178710938	0.165588379	0.999999046	0.001132965	-2.96E-05	0.000148773	7.814025879	4.467773438	4.139709473	0.056648267	-0.001478196	0.007438661	-0.176025391	-0.825195313	-0.512939453	884.12	47.6907393	-52.84514582	-13.41126804	-72
63154	0	0.312744141	0.17324543	0.160842896	0.999999046	0.000120163	-9.35E-05	-0.000144958	7.818603516	4.33113575	4.021072388	0.006008148	-0.004673004	-0.007247925	-0.17578125	-0.829589844	-0.512695313	884.1	47.72608204	-52.83010968	-13.44369864	-72
63155	0	0.314819336	0.175537109	0.158874512	0.999999046	0.000595093	-0.000227928	0.000137329	7.870483398	4.388427734	3.971862793	0.029754641	-0.011396409	0.006866456	-0.173583984	-0.827392578	-0.512939453	884.1	47.80245291	-52.84949942	-13.45949907	-72
63156	0	0.311584473	0.179364204	0.159799576	0.999999046	-2.38E-05	-0.000152588	6.10E-05	7.789611816	4.48410511	3.994989395	-0.001192093	-0.007629395	0.003051758	-0.173583984	-0.827392578	-0.507080078	884.04	47.80762613	-52.85646421	-13.4742184	-72
63157	0	0.310668945	0.172851563	0.157714844	0.999999046	0.001087189	-0.000437737	0.000270844	7.766723633	4.321289063	3.942871094	0.054359449	-0.021886831	0.013542179	-0.176025391	-0.829589844	-0.509765625	884.1	47.95096842	-52.90327332	-13.50289299	-72
63158	0	0.315729141	0.174442291	0.164321899	0.999999046	0.001161575	-0.000684738	0.000110626	7.893228531	4.361057281	4.108047485	0.058078784	-0.034236918	0.005531313	-0.176025391	-0.827392578	-0.510009766	884.16	48.14686255	-52.95530157	-13.58722056	-72
63159	0	0.317565918	0.17980957	0.168273926	0.999999046	-0.000606537	9.54E-07	0.00031662	7.939147949	4.495239258	4.206848145	-0.030326846	4.77E-05	0.015830995	-0.176025391	-0.829589844	-0.509765625	884.06	48.04157369	-52.97212946	-13.54776315	-72
63160	0	0.313158035	0.171849251	0.159692764	0.999999046	-0.001296043	0.000183105	7.63E-05	7.828950882	4.29623127	3.992319107	-0.064802188	0.009155276	0.003814698	-0.17578125	-0.827392578	-0.515625	884.06	47.86095538	-52.95459961	-13.51334612	-72
63161	0	0.314453125	0.176513672	0.16217041	0.999999046	0.000434875	8.11E-05	0.000125885	7.861328125	4.412841797	4.054260254	0.021743775	0.004053116	0.006294251	-0.178466797	-0.827148438	-0.509765625	884.06	47.88519762	-52.94904662	-13.48648827	-72
63162	0	0.311968803	0.177796364	0.162309647	0.999999046	-0.000175476	0.000160217	5.63E-05	7.799220085	4.444909096	4.057741165	-0.008773804	0.008010864	0.002813339	-0.17578125	-0.829589844	-0.512695313	884	47.8377815	-52.93130644	-13.45759126	-72
63163	0	0.315490723	0.172851563	0.157897949	0.999999046	-2.67E-05	-9.06E-05	0.000305176	7.887268066	4.321289063	3.94744873	-0.001335144	-0.004529953	0.015258789	-0.176025391	-0.827392578	-0.510009766	884.04	47.8103729	-52.95423308	-13.43223625	-72
63164	0	0.314102173	0.178022385	0.158276558	0.999995232	-0.002699852	-0.000110626	0.001068115	7.852554321	4.450559616	3.956913948	-0.134992789	-0.005531319	0.053405837	-0.178466797	-0.824951172	-0.512939453	884.06	47.40091042	-53.04322095	-13.31171505	-72
63165	0	0.315734863	0.170959473	0.166564941	0.999998093	-0.001784325	-0.000404358	0.00037384	7.893371582	4.273986816	4.164123535	-0.089216284	-0.020217907	0.018692027	-0.178222656	-0.822998047	-0.521484375	884.18	47.19970942	-53.09619141	-13.32147977	-71
63166	0	0.313747406	0.179091454	0.169576645	0.999999046	0.001203537	0.000139236	-0.000138283	7.84368515	4.477286339	4.239416122	0.060176864	0.006961824	-0.006914141	-0.180664063	-0.822753906	-0.518554688	884.04	47.33289743	-53.06335649	-13.32112605	-72
