Counter	Temperature	VelInc_X	VelInc_Y	VelInc_Z	OriInc_w	OriInc_x	OriInc_y	OriInc_z	Acc_X	Acc_Y	Acc_Z	Gyr_X	Gyr_Y	Gyr_Z	Mag_X	Mag_Y	Mag_Z	Pressure	Roll	Pitch	Yaw	RSSI
61765	0	0.356628418	-0.076293945	0.096435547	0.999958992	-0.008369446	-0.003211021	0.000606537	8.915710449	-1.907348633	2.410888672	-0.418477921	-0.160553231	0.030327251	-0.524414063	-0.170166016	-0.819335938	884.06	-26.78832674	-64.70307328	65.3132782	-65
61766	0	0.352563858	-0.096931458	0.115152359	0.999973297	-0.004038811	-0.005946159	0.000187874	8.814096451	-2.423286438	2.878808975	-0.201942277	-0.29731053	0.009393773	-0.531982422	-0.154541016	-0.820068359	884	-27.94599127	-65.3128732	66.0733754	-66
61767	0	0.357666016	-0.11126709	0.12286377	0.999956131	0.005051613	-0.007789612	-0.00120163	8.941650391	-2.781677246	3.071594238	0.252584332	-0.38948628	-0.06008236	-0.539306641	-0.154296875	-0.811279297	884.02	-28.01339405	-66.18026622	66.76765113	-67
61768	0	0.363891602	-0.097736359	0.139146805	0.999900818	0.012039185	-0.00682354	-0.002421379	9.097290039	-2.443408966	3.47867012	0.601979031	-0.34118821	-0.121072937	-0.550537109	-0.166992188	-0.801025391	884.06	-26.88644749	-67.01572732	67.02252916	-69
61769	0	0.359680176	-0.051513672	0.153808594	0.999973297	0.005482674	-0.004314423	-0.001804352	8.992004395	-1.287841797	3.845214844	0.274136055	-0.215722997	-0.090218371	-0.561523438	-0.190673828	-0.795410156	884.06	-26.33054523	-67.56318785	67.08930953	-73
61770	0	0.382732391	-0.041992188	0.190299034	0.999941826	-0.010633469	-0.001247406	0.000834465	9.568309784	-1.049804688	4.757475853	-0.531683651	-0.062371499	0.041724053	-0.56640625	-0.190429688	-0.789550781	884.12	-27.89223352	-67.6579748	67.46408175	-74
61771	0	0.369934082	-0.06451416	0.166381836	0.999987602	-0.004398346	0.000309944	0.002075195	9.248352051	-1.612854004	4.159545898	-0.219918168	0.015497269	0.103760176	-0.569335938	-0.175048828	-0.787841797	884	-28.83875396	-67.52364008	67.94493175	-75
61772	0	0.387573242	-0.063476563	0.158447266	0.999986649	0.003665924	0.000878334	0.003303528	9.689331055	-1.586914063	3.961181641	0.183296971	0.043916886	0.165177083	-0.569580078	-0.166259766	-0.791259766	884.08	-29.07101811	-67.26166814	68.6458884	-81
61773	0	0.358885765	-0.056632996	0.140741348	0.999988556	0.00323391	0.001638412	0.00236702	8.972144127	-1.41582489	3.518533707	0.161695986	0.08192088	0.118351352	-0.567138672	-0.172851563	-0.788085938	884.08	-29.01847549	-66.97504081	68.98981278	-79
61774	0	0.346915245	-0.068384171	0.133000374	0.999983788	-0.005250931	0.001739502	0.000975609	8.672881126	-1.709604263	3.325009346	-0.26254792	0.086975555	0.048780698	-0.567138672	-0.168701172	-0.794189453	884.02	-29.59218723	-66.75544879	68.9612418	-81
61775	0	0.352172852	-0.092346191	0.120239258	0.999966621	-0.007919312	0.001198769	-0.001499176	8.804321289	-2.308654785	3.005981445	-0.395969958	0.059939094	-0.074959631	-0.562744141	-0.157714844	-0.798095703	884.02	-29.96921084	-66.73042099	68.38441452	-83
61776	0	0.358214378	-0.095170021	0.11855793	0.999986649	-0.003767014	0.000624657	-0.003391266	8.955359459	-2.379250526	2.96394825	-0.188351496	0.03123297	-0.169564031	-0.558349609	-0.151367188	-0.801757813	884.06	-29.50881196	-66.86987823	67.40944327	-84
61777	0	0.364440918	-0.093444824	0.128601074	0.999995232	0.000526428	-0.000369072	-0.002696991	9.111022949	-2.336120605	3.215026855	0.026321445	-0.018453622	-0.134849721	-0.556152344	-0.149169922	-0.799316406	884.06	-28.84228769	-67.06590881	66.74171359	-84
61778	0	0.373049736	-0.08348465	0.13085556	0.999998093	0.00114727	-0.000878334	-0.000766754	9.326243401	-2.087116241	3.271389008	0.057363536	-0.043916722	-0.038337725	-0.555908203	-0.157958984	-0.795654297	884.02	-28.62387105	-67.20472745	66.64316436	-82
61779	0	0.370666504	-0.077880859	0.132080078	0.999997139	0.000801086	-0.001357079	0.001419067	9.266662598	-1.947021484	3.302001953	0.040054351	-0.067853978	0.070953422	-0.560546875	-0.157958984	-0.795410156	884.08	-29.03195584	-67.27083408	67.18110034	-80
61780	0	0.364917755	-0.078196526	0.144152641	0.999994278	0.0007267	-0.00133419	0.003005981	9.122943878	-1.954913139	3.603816032	0.03633506	-0.066709645	0.150299356	-0.565185547	-0.155517578	-0.798339844	884.08	-29.82522596	-67.2424188	68.12564341	-79
61781	0	0.360351563	-0.075195313	0.147766113	0.999992371	0.002671242	-0.001110077	0.002418518	9.008789063	-1.879882813	3.694152832	0.133562404	-0.055503977	0.12092619	-0.562988281	-0.155517578	-0.795410156	884.02	-30.2233283	-67.22081446	68.88129562	-78
61782	0	0.360837936	-0.079046249	0.142745018	0.999978065	0.006057739	-0.001739502	0.001553535	9.02094841	-1.976156235	3.56862545	0.30288909	-0.086975708	0.077677319	-0.567626953	-0.157714844	-0.792236328	883.98	-30.11606088	-67.30995903	69.50547335	-78
61783	0	0.35949707	-0.070495605	0.143676758	0.99996376	0.008244514	-0.001457214	0.001415253	8.987426758	-1.762390137	3.591918945	0.412230677	-0.072861593	0.070763485	-0.572021484	-0.168457031	-0.785400391	884	-29.68662864	-67.37955483	70.05329488	-78
61784	0	0.359034538	-0.066747665	0.137209892	0.999987602	0.00480175	0.000135422	0.001204491	8.975863457	-1.668691635	3.430247307	0.240088491	0.006771115	0.060224779	-0.571533203	-0.177246094	-0.787597656	884.18	-29.38357112	-67.30341681	70.31083696	-78
61785	0	0.362915039	-0.074829102	0.132629395	0.999999046	0.000240326	0.001057625	0.000709534	9.072875977	-1.870727539	3.315734863	0.0120163	0.052881256	0.035476695	-0.573730469	-0.181396484	-0.784179688	883.94	-29.3612651	-67.16317901	70.3133868	-79
61786	0	0.360290527	-0.079467773	0.128295898	0.999998093	-0.000437737	0.001137733	0.000762939	9.007263184	-1.986694336	3.207397461	-0.021886833	0.056886693	0.038146986	-0.571289063	-0.181640625	-0.787109375	884.08	-29.41938935	-67.0118882	70.31904627	-79
61787	0	0.361877441	-0.077819824	0.128356934	0.999998093	-0.000155449	0.001052856	0.001228333	9.046936035	-1.945495605	3.20892334	-0.007772449	0.052642845	0.061416653	-0.571533203	-0.177246094	-0.784667969	884.06	-29.56536751	-66.8428737	70.45540759	-79
61788	0	0.362625122	-0.081315994	0.130437851	0.999998093	0.000185013	0.000498772	0.001304626	9.065628052	-2.032899857	3.260946274	0.009250644	0.024938592	0.065231345	-0.569335938	-0.177246094	-0.784667969	884.06	-29.76210729	-66.72452051	70.68992702	-79
61789	0	0.364379883	-0.078063965	0.130371094	0.999997139	0.001361847	-8.68E-05	0.001781464	9.10949707	-1.951599121	3.259277344	0.068092403	-0.004339222	0.089073256	-0.566894531	-0.177490234	-0.790527344	884.02	-30.00975994	-66.63689115	71.12226954	-78
61790	0	0.362418175	-0.07777977	0.130578995	0.999997139	0.000955582	-0.000358582	0.002120972	9.060454369	-1.944494247	3.264474869	0.047779127	-0.017929094	0.106048682	-0.569335938	-0.177246094	-0.784667969	884.02	-30.41535736	-66.5557287	71.67995148	-77
61791	0	0.362060547	-0.073547363	0.133056641	0.999998093	0.000878334	-0.000343323	0.001598358	9.051513672	-1.838684082	3.326416016	0.043916727	-0.017166148	0.079917954	-0.571777344	-0.175048828	-0.784912109	884.08	-30.70572412	-66.50229926	72.10118535	-77
61792	0	0.358136177	-0.073536873	0.1367836	0.999999046	-0.000306129	-0.000247955	0.000846863	8.953404427	-1.838421822	3.419589996	-0.015306475	-0.012397768	0.042343146	-0.571777344	-0.175048828	-0.787597656	884.06	-30.9468538	-66.48275447	72.32032563	-76
61793	0	0.363830566	-0.077453613	0.139038086	0.999999046	-0.000328064	9.25E-05	0.000148773	9.09576416	-1.936340332	3.475952148	-0.016403199	0.004625321	0.00743866	-0.571777344	-0.172851563	-0.784912109	884.02	-30.98591066	-66.47056304	72.31679729	-76
61794	0	0.362071991	-0.076978683	0.136490822	0.999998093	-0.000876427	0.000258446	-4.48E-05	9.051799774	-1.924467087	3.412270546	-0.043821341	0.012922289	-0.002241135	-0.571777344	-0.175048828	-0.784912109	884.08	-31.02111994	-66.45344664	72.24419348	-76
61795	0	0.364440918	-0.07989502	0.138977051	0.999999046	-0.000869751	0.000313759	0.000133514	9.111022949	-1.997375488	3.47442627	-0.043487555	0.015687945	0.006675721	-0.569335938	-0.170654297	-0.791015625	884.14	-31.08790557	-66.42021979	72.20035102	-76
61796	0	0.361280441	-0.08346653	0.137898445	0.999999046	-0.000388145	0.00028038	8.39E-05	9.032011032	-2.086663246	3.447461128	-0.019407273	0.014019013	0.004196167	-0.569580078	-0.168457031	-0.791259766	884.08	-31.09297121	-66.39295574	72.14844568	-76
61797	0	0.360168457	-0.080932617	0.136291504	0.999999046	0.000564575	0.000222206	-6.48E-05	9.004211426	-2.02331543	3.407287598	0.028228762	0.011110306	-0.003242493	-0.572021484	-0.170654297	-0.782226563	884.02	-30.96331775	-66.3800324	72.07630891	-77
61798	0	0.360729218	-0.084823608	0.135142326	0.999999046	0.000520706	0.000274658	-4.29E-05	9.018230438	-2.12059021	3.378558159	0.02603531	0.013732911	-0.002145767	-0.569580078	-0.170654297	-0.785400391	883.96	-30.83716286	-66.36043197	71.99885857	-76
61799	0	0.357910156	-0.083007813	0.1328125	0.999999046	0.000759125	0.000218391	-0.000240326	8.947753906	-2.075195313	3.3203125	0.037956242	0.010919572	-0.012016298	-0.569580078	-0.170654297	-0.785400391	884.14	-30.64742168	-66.35778048	71.88051175	-76
61800	0	0.357584	-0.078176498	0.134612083	0.999999046	0.000155449	0.00044632	1.05E-05	8.939599991	-1.95441246	3.365302086	0.007772446	0.02231598	0.000524521	-0.569335938	-0.172851563	-0.790771484	884.02	-30.55295926	-66.31786785	71.78976988	-76
61801	0	0.359680176	-0.077148438	0.134765625	0.999999046	-0.000442505	0.000546455	-0.000240326	8.992004395	-1.928710938	3.369140625	-0.022125246	0.027322772	-0.012016297	-0.567138672	-0.172851563	-0.788085938	884.02	-30.45739735	-66.28264021	71.6249858	-76
61802	0	0.36579895	-0.083500862	0.134601593	0.999999046	-0.000564575	0.000341415	-0.00024128	9.144973755	-2.087521553	3.365039825	-0.028228762	0.017070772	-0.012063981	-0.567138672	-0.172851563	-0.788085938	883.96	-30.40347526	-66.26767411	71.49148964	-77
61803	0	0.364013672	-0.08581543	0.129516602	0.999999046	-0.001052856	0.000199318	5.34E-05	9.100341797	-2.145385742	3.237915039	-0.052642832	0.009965899	0.002670289	-0.566894531	-0.173095703	-0.791015625	884.06	-30.49162383	-66.24979906	71.4523151	-76
61804	0	0.359679222	-0.080337524	0.133640289	0.999999046	-0.000729561	-0.000123978	0.000342369	8.991980553	-2.00843811	3.341007233	-0.036478047	-0.006198884	0.017118456	-0.569335938	-0.170654297	-0.793945313	884.02	-30.65043611	-66.24704155	71.52905866	-75
61805	0	0.356323242	-0.080749512	0.139648438	0.999999046	-0.000896454	-0.000227928	0.00025177	8.908081055	-2.018737793	3.491210938	-0.0448227	-0.01139641	0.012588503	-0.567138672	-0.170898438	-0.793945313	884.14	-30.82169361	-66.25944591	71.59927186	-75
61806	0	0.358908653	-0.082708359	0.140129089	0.999999046	0.000173569	-0.000164032	-0.000157356	8.972716331	-2.067708969	3.503227234	0.008678436	-0.008201599	-0.007867813	-0.569580078	-0.168457031	-0.791259766	884.02	-30.77017692	-66.28923358	71.55969837	-75
61807	0	0.362976074	-0.081542969	0.140441895	0.999999046	0.000427246	-6.77E-05	-0.000362396	9.074401855	-2.038574219	3.511047363	0.021362306	-0.003385544	-0.018119813	-0.569580078	-0.170654297	-0.788085938	884.02	-30.63033127	-66.32129613	71.4584401	-75
61808	0	0.369338989	-0.079081535	0.139176369	0.999999046	0.000117302	0.000463486	-0.000309944	9.233474731	-1.977038383	3.479409218	0.005865097	0.023174287	-0.015497208	-0.569580078	-0.168457031	-0.791259766	883.98	-30.4667341	-66.29780258	71.28829206	-75
61809	0	0.360351563	-0.077941895	0.135192871	0.999999046	-0.000930786	0.000538826	-4.58E-05	9.008789063	-1.948547363	3.379821777	-0.046539316	0.026941305	-0.002288819	-0.567138672	-0.170898438	-0.793945313	884	-30.47280623	-66.25146343	71.17440096	-75
61810	0	0.359724045	-0.082068443	0.135792732	0.999999046	3.62E-05	0.000249863	0.000312805	8.99310112	-2.051711082	3.394818306	0.001811981	0.012493134	0.015640259	-0.564941406	-0.168701172	-0.791503906	884.02	-30.48706519	-66.21274626	71.18925828	-75
61811	0	0.362670898	-0.081054688	0.132629395	0.999999046	0.001110077	3.91E-05	-0.000247955	9.066772461	-2.026367188	3.315734863	0.055503857	0.001955033	-0.012397769	-0.564941406	-0.168701172	-0.788574219	884.08	-30.28067928	-66.22752348	71.09701237	-75
61812	0	0.360440254	-0.077280998	0.135209084	0.999999046	8.58E-06	-4.39E-05	-0.000598907	9.011006355	-1.932024956	3.380227089	0.000429153	-0.002193451	-0.029945375	-0.564941406	-0.168701172	-0.791503906	884.06	-30.13202022	-66.27071675	70.92730767	-75
61813	0	0.359558105	-0.082092285	0.137084961	0.999999046	-0.00037384	-7.15E-05	-0.000408173	8.988952637	-2.052307129	3.427124023	-0.018692018	-0.003576279	-0.020408631	-0.564697266	-0.170898438	-0.791259766	884.12	-30.07368116	-66.30542328	70.81102596	-75
61814	0	0.360314369	-0.080252647	0.136362076	0.999999046	0.000732422	-0.000259399	-0.00017643	9.00785923	-2.006316185	3.409051895	0.036621098	-0.012969972	-0.008821488	-0.564697266	-0.170898438	-0.794189453	884.02	-29.96543796	-66.34535285	70.77464851	-75
61815	0	0.362609863	-0.076721191	0.135498047	0.999999046	-0.00031662	-6.68E-06	-0.000247955	9.065246582	-1.918029785	3.387451172	-0.015830994	-0.000333786	-0.012397766	-0.564697266	-0.173095703	-0.793945313	884.08	-29.92785991	-66.36434936	70.68721574	-75
61816	0	0.362528801	-0.079253197	0.137578011	0.999999046	-0.000714302	5.91E-05	-0.000263214	9.063220024	-1.981329918	3.439450264	-0.035715107	0.002956391	-0.013160707	-0.564697266	-0.173095703	-0.793945313	883.96	-29.92372188	-66.37760205	70.5877892	-75
61817	0	0.362670898	-0.077880859	0.137390137	0.999999046	-4.58E-05	-0.000144005	-0.000244141	9.066772461	-1.947021484	3.434753418	-0.002288818	-0.007200241	-0.012207031	-0.564697266	-0.170898438	-0.791259766	884.06	-29.87362727	-66.40989753	70.52084062	-74
61818	0	0.359817505	-0.077167511	0.136668205	0.999998093	-8.30E-05	-0.000103951	7.25E-05	8.995437622	-1.929187775	3.416705132	-0.004148483	-0.005197525	0.003623962	-0.564697266	-0.170898438	-0.794189453	884.06	-29.89439802	-66.42007827	70.5246219	-74
61819	0	0.360412598	-0.077209473	0.138244629	0.999999046	5.34E-05	3.53E-05	-6.10E-05	9.010314941	-1.930236816	3.456115723	0.002670288	0.001764297	-0.003051758	-0.562255859	-0.170898438	-0.794189453	883.96	-29.85069849	-66.42393854	70.47381234	-74
61820	0	0.361938477	-0.079043388	0.137422562	0.999999046	-0.000369072	4.77E-05	-0.000542641	9.048461914	-1.976084709	3.435564041	-0.018453599	0.002384186	-0.027132036	-0.564697266	-0.170898438	-0.794189453	884.02	-29.74396318	-66.45388395	70.30298107	-74
61821	0	0.361206055	-0.081298828	0.136657715	0.999999046	-5.72E-05	8.49E-05	-0.000232697	9.030151367	-2.032470703	3.416442871	-0.002861023	0.004243851	-0.011634827	-0.564697266	-0.170898438	-0.791259766	884.02	-29.66757521	-66.46229326	70.20633339	-74
61822	0	0.362195969	-0.07925415	0.135915756	0.999999046	0.000589371	2.67E-05	0.000339508	9.054899216	-1.98135376	3.397893906	0.029468539	0.001335144	0.016975404	-0.564453125	-0.173095703	-0.796875	884.08	-29.65562928	-66.4439884	70.25829591	-74
61823	0	0.358703613	-0.077941895	0.136657715	0.999999046	-0.0001297	6.58E-05	0.000480652	8.967590332	-1.948547363	3.416442871	-0.006484986	0.003290177	0.024032594	-0.564697266	-0.173095703	-0.793945313	884.02	-29.753123	-66.41366609	70.34301167	-74
61824	0	0.364041328	-0.078999519	0.137050629	0.999999046	0.0004282	0.000234604	0.000411987	9.101033211	-1.974987984	3.426265717	0.02140999	0.011730195	0.020599367	-0.564697266	-0.173095703	-0.791015625	884.08	-29.74897721	-66.37041397	70.38868762	-74
61825	0	0.36114502	-0.075317383	0.135925293	0.999999046	-0.000419617	0.000279427	0.000480652	9.028625488	-1.88293457	3.398132324	-0.020980837	0.01397133	0.024032595	-0.562255859	-0.170898438	-0.794189453	884.02	-29.85130974	-66.31885456	70.44018122	-73
61826	0	0.361481667	-0.078709602	0.136365891	0.999999046	-0.000368118	-4.01E-05	0.000956535	9.037041664	-1.967740059	3.409147263	-0.018405918	-0.002002716	0.047826775	-0.564697266	-0.170898438	-0.794189453	883.98	-30.09656447	-66.2716964	70.65740403	-74
61827	0	0.360534668	-0.077636719	0.135559082	0.999999046	0.001247406	-0.000212669	0.000549316	9.013366699	-1.940917969	3.388977051	0.06237032	-0.010633472	0.027465829	-0.564697266	-0.168701172	-0.797119141	883.92	-30.08685332	-66.26492631	70.79109048	-73
61828	0	0.359960556	-0.074642181	0.135651588	0.999999046	8.49E-05	-7.63E-05	0.000740051	8.999013901	-1.866054535	3.391289711	0.004243851	-0.003814698	0.037002567	-0.564697266	-0.170898438	-0.796875	883.96	-30.23490827	-66.23370499	70.95516681	-73
61829	0	0.363342285	-0.077758789	0.135620117	0.999999046	7.63E-05	-0.000220299	0.00056076	9.083557129	-1.943969727	3.39050293	0.003814698	-0.011014939	0.028038027	-0.564697266	-0.173095703	-0.793945313	884.06	-30.36214381	-66.22704919	71.10049308	-73
61830	0	0.364660263	-0.075827599	0.137178421	0.999998093	0.001433372	-0.000294685	0.000441551	9.116506577	-1.895689964	3.429460526	0.071668653	-0.014734274	0.022077569	-0.564697266	-0.170898438	-0.794189453	883.92	-30.31641429	-66.23473693	71.22074955	-74
61831	0	0.362243652	-0.071228027	0.139404297	0.999999046	0.000164032	-5.25E-05	0.000286102	9.056091309	-1.780700684	3.485107422	0.008201599	-0.002622604	0.014305115	-0.566894531	-0.170898438	-0.796875	883.96	-30.34832427	-66.22755954	71.26616244	-74
61832	0	0.360321999	-0.07614994	0.139512062	0.999999046	-0.000590324	0.000297546	0.000124931	9.008049965	-1.903748512	3.487801552	-0.029516222	0.01487732	0.006246567	-0.567138672	-0.170898438	-0.791259766	884.02	-30.3839393	-66.19503026	71.22786093	-73
61833	0	0.361450195	-0.078735352	0.139648438	0.999999046	-0.000537872	0.000283241	-0.000259399	9.036254883	-1.968383789	3.491210938	-0.026893618	0.014162065	-0.012969972	-0.564697266	-0.170898438	-0.796875	883.96	-30.32906952	-66.18607047	71.09274032	-74
61834	0	0.360560417	-0.08290863	0.13805294	0.999999046	-0.000551224	0.000143051	-0.000100136	9.014010429	-2.072715759	3.451323509	-0.027561189	0.007152558	-0.00500679	-0.564697266	-0.168701172	-0.794189453	883.96	-30.33015719	-66.18158858	71.01784263	-74
61835	0	0.360412598	-0.085266113	0.138793945	0.999999046	-0.000209808	9.54E-07	0.000152588	9.010314941	-2.131652832	3.469848633	-0.010490418	4.77E-05	0.007629395	-0.5625	-0.170898438	-0.791503906	883.9	-30.36788629	-66.17630542	71.02994875	-74
61836	0	0.361300468	-0.084762573	0.138148308	0.999998093	-0.000444412	0.000185966	0.000339508	9.032511711	-2.119064331	3.453707695	-0.022220613	0.009298325	0.016975404	-0.564941406	-0.166503906	-0.791503906	883.98	-30.45047193	-66.14172582	71.05920246	-74
61837	0	0.357849121	-0.084411621	0.137817383	0.999999046	-0.000362396	0.000126839	0.000514984	8.946228027	-2.110290527	3.44543457	-0.018119813	0.006341935	0.025749208	-0.5625	-0.166503906	-0.791748047	884.02	-30.57078775	-66.10255355	71.13995466	-74
61838	0	0.359558105	-0.082336426	0.139282227	0.999999046	0.000747681	-0.000167847	0.000823975	8.988952637	-2.058410645	3.482055664	0.037384041	-0.008392336	0.041198739	-0.564941406	-0.166503906	-0.797363281	884.02	-30.67116733	-66.0741885	71.33391745	-75
61839	0	0.360762596	-0.07927227	0.138792992	0.999999046	0.000291824	-6.96E-05	0.000553131	9.019064903	-1.981806755	3.469824791	0.014591218	-0.003480911	0.027656557	-0.564941406	-0.166503906	-0.788818359	884.08	-30.75012216	-66.05184578	71.45434045	-74
61840	0	0.360201836	-0.08027935	0.137051582	0.999999046	-3.72E-05	0.000148773	0.000491142	9.005045891	-2.006983757	3.426289558	-0.001859665	0.00743866	0.024557115	-0.562744141	-0.166503906	-0.788818359	884.12	-30.82392219	-66.01159514	71.52747022	-75
61841	0	0.359008789	-0.084411621	0.137512207	0.999999046	-4.58E-05	0.000100136	0.000514984	8.975219727	-2.110290527	3.437805176	-0.002288818	0.00500679	0.025749208	-0.567138672	-0.166503906	-0.797119141	884.02	-30.91043922	-65.97457796	71.61009429	-75
61842	0	0.361702919	-0.083454132	0.137698174	0.999999046	6.68E-05	-9.54E-06	0.000461578	9.042572975	-2.086353302	3.442454338	0.00333786	-0.000476837	0.023078919	-0.564941406	-0.166503906	-0.794433594	883.96	-30.98670359	-65.95141524	71.69689803	-75
61843	0	0.357543945	-0.086181641	0.138305664	0.999999046	-0.00043869	-3.72E-05	0.000488281	8.938598633	-2.154541016	3.457641602	-0.021934511	-0.001859665	0.024414064	-0.5625	-0.164306641	-0.794677734	883.96	-31.13060305	-65.92913148	71.79122901	-75
61844	0	0.359423637	-0.085861206	0.138263702	0.999999046	0.000388145	-0.000146866	0.000433922	8.985590935	-2.146530151	3.45659256	0.019407274	-0.007343293	0.021696092	-0.564941406	-0.164306641	-0.794677734	883.98	-31.18250112	-65.9206285	71.88945129	-75
61845	0	0.360229492	-0.086181641	0.13848877	0.999999046	0.000320435	-6.68E-06	0.000205994	9.005737305	-2.154541016	3.462219238	0.016021729	-0.000333786	0.010299683	-0.564941406	-0.164306641	-0.791748047	883.98	-31.17378639	-65.9117661	71.91475068	-75
61846	0	0.361415863	-0.086424828	0.139942169	0.999999046	0.000221252	6.10E-05	0.00026989	9.035396576	-2.160620689	3.49855423	0.011062622	0.003051758	0.013494492	-0.565185547	-0.164306641	-0.788818359	884.14	-31.18164568	-65.89232104	71.94833243	-75
61847	0	0.361694336	-0.084594727	0.137207031	0.999999046	0.000461578	0.000264168	0.000324249	9.042358398	-2.114868164	3.430175781	0.02307892	0.01320839	0.016212464	-0.5625	-0.166503906	-0.794677734	884.02	-31.14710634	-65.84975416	71.96154143	-76
61848	0	0.35943222	-0.082015991	0.137898445	0.999999046	0.000185966	0.000213623	0.00057888	8.985805511	-2.05039978	3.447461128	0.009298325	0.010681153	0.028944018	-0.564941406	-0.164306641	-0.794677734	884.06	-31.20624606	-65.79705398	72.04220717	-76
61849	0	0.359985352	-0.083618164	0.134765625	0.999999046	0.000610352	0.000149727	0.000564575	8.999633789	-2.090454102	3.369140625	0.030517582	0.007486344	0.028228763	-0.562744141	-0.164306641	-0.791992188	884.08	-31.22203539	-65.75157513	72.12915673	-75
61850	0	0.363028526	-0.080387115	0.133688927	0.999999046	0.000484467	0.000143051	0.000166893	9.075713158	-2.009677887	3.342223167	0.024223329	0.007152558	0.008344651	-0.5625	-0.168701172	-0.794433594	883.96	-31.16646348	-65.73069523	72.12507593	-76
61851	0	0.358825684	-0.081176758	0.136047363	0.999999046	-0.000289917	-2.96E-05	-8.01E-05	8.97064209	-2.029418945	3.401184082	-0.01449585	-0.001478195	-0.004005432	-0.5625	-0.166503906	-0.794677734	883.96	-31.16851899	-65.74151631	72.08415728	-76
61852	0	0.356161118	-0.081809044	0.135733604	0.999999046	-0.000359535	4.58E-05	-0.000312805	8.904027939	-2.045226097	3.393340111	-0.017976762	0.002288818	-0.015640259	-0.562744141	-0.164306641	-0.7890625	884.12	-31.11791999	-65.75879373	71.97945804	-76
61853	0	0.357666016	-0.083312988	0.134399414	0.999999046	-0.000118256	3.91E-05	-0.000507355	8.941650391	-2.082824707	3.359985352	-0.005912781	0.001955032	-0.025367738	-0.5625	-0.166503906	-0.791748047	884.1	-30.99817768	-65.78826739	71.82936459	-76
61854	0	0.361526489	-0.085725784	0.137030602	0.999999046	-0.000423431	-5.91E-05	-0.00061512	9.038162231	-2.143144608	3.425765038	-0.021171572	-0.002956391	-0.030756	-0.5625	-0.166503906	-0.794677734	884.02	-30.90271022	-65.83363941	71.6649411	-76
61855	0	0.361206055	-0.087341309	0.135681152	0.999999046	-0.000869751	-1.81E-05	-0.000152588	9.030151367	-2.183532715	3.392028809	-0.043487554	-0.000905991	-0.007629396	-0.5625	-0.166503906	-0.794677734	884.06	-30.95475537	-65.84771456	71.60802588	-76
61856	0	0.359375	-0.086791992	0.137695313	0.999999046	-0.000529289	-0.000305176	0.000354767	8.984375	-2.169799805	3.442382813	-0.026464464	-0.01525879	0.017738344	-0.5625	-0.166748047	-0.800292969	883.98	-31.11718085	-65.859934	71.71118103	-75
61857	0	0.35760498	-0.085083008	0.138061523	0.999999046	-0.000213623	-0.000452995	0.000213623	8.940124512	-2.127075195	3.451538086	-0.010681153	-0.022649766	0.010681153	-0.562744141	-0.164306641	-0.791992188	883.98	-31.23243767	-65.89478911	71.80639551	-75
61858	0	0.360808372	-0.085785866	0.140443802	0.999999046	0.000295639	-0.000303268	-0.000115395	9.020209312	-2.144646645	3.511095047	0.014781952	-0.015163422	-0.00576973	-0.5625	-0.164306641	-0.797607422	884.12	-31.19754111	-65.9343081	71.79411509	-75
61859	0	0.361022949	-0.084960938	0.142578125	0.999999046	-0.000358582	6.20E-05	-0.00012207	9.02557373	-2.124023438	3.564453125	-0.017929078	0.003099442	-0.006103516	-0.562744141	-0.164306641	-0.791992188	884.02	-31.18737786	-65.93817239	71.73315642	-75
61860	0	0.361453056	-0.084792137	0.141767502	0.999999046	-2.00E-05	0.000238419	0.00031662	9.036326408	-2.119803429	3.544187546	-0.001001358	0.011920929	0.015830994	-0.564941406	-0.164306641	-0.797607422	884.02	-31.21109074	-65.89851149	71.74911218	-75
61861	0	0.360351563	-0.081665039	0.138427734	0.999999046	0.000507355	7.34E-05	0.000217438	9.008789063	-2.041625977	3.460693359	0.025367738	0.003671646	0.010871888	-0.5625	-0.164550781	-0.800537109	884.1	-31.17424033	-65.88092022	71.76008828	-74
61862	0	0.358465195	-0.080827713	0.137523651	0.999999046	0.000171661	7.06E-05	-0.000218391	8.961629868	-2.020692825	3.438091278	0.008583069	0.003528595	-0.010919571	-0.5625	-0.164306641	-0.794677734	884.1	-31.08049592	-65.88946718	71.67125184	-74
61863	0	0.36114502	-0.082885742	0.137451172	0.999999046	0.000133514	5.44E-05	-0.000427246	9.028625488	-2.072143555	3.436279297	0.00667572	0.002717972	-0.021362305	-0.564941406	-0.164306641	-0.794677734	884.12	-30.94729813	-65.91190651	71.53530982	-74
61864	0	0.359555244	-0.085227966	0.136901855	0.999999046	0.000130653	2.29E-05	-0.000347137	8.988881111	-2.130699158	3.422546387	0.006532669	0.001144409	-0.017356873	-0.5625	-0.166503906	-0.794677734	884.12	-30.83628639	-65.93257372	71.42401151	-74
61865	0	0.360290527	-0.084716797	0.137390137	0.999999046	-3.81E-05	-6.77E-05	-9.92E-05	9.007263184	-2.117919922	3.434753418	-0.001907349	-0.003385544	-0.004959106	-0.5625	-0.166503906	-0.791748047	884.14	-30.81130729	-65.94750764	71.38831669	-74
61866	0	0.357518196	-0.085816383	0.138066292	0.999999046	0.000118256	-7.25E-05	0.000155449	8.937954903	-2.145409584	3.451657295	0.005912781	-0.003623962	0.007772446	-0.564941406	-0.164306641	-0.797607422	884.08	-30.82549703	-65.94780996	71.40766074	-73
61867	0	0.359375	-0.083557129	0.139038086	0.999999046	0.000244141	8.58E-06	0.000175476	8.984375	-2.088928223	3.475952148	0.012207031	0.000429153	0.008773804	-0.564941406	-0.166503906	-0.791503906	884.08	-30.81903223	-65.93886325	71.42902154	-73
61868	0	0.359160423	-0.082700729	0.137495995	0.999999046	0.000197411	-0.000110626	0.000278473	8.979010582	-2.067518234	3.437399864	0.009870529	-0.005531311	0.013923645	-0.5625	-0.166503906	-0.794677734	884.02	-30.85631331	-65.93558241	71.48717513	-73
61869	0	0.360900879	-0.082214355	0.138000488	0.999999046	0.000640869	-0.000155449	9.54E-05	9.022521973	-2.055358887	3.450012207	0.032043459	-0.007772446	0.004768372	-0.5625	-0.166503906	-0.797363281	883.98	-30.80826	-65.94748609	71.50301841	-73
61870	0	0.35949707	-0.08026123	0.137939453	0.999999046	-0.000209808	-3.05E-05	1.53E-05	8.987426758	-2.006530762	3.448486328	-0.010490418	-0.001525879	0.000762939	-0.5625	-0.166503906	-0.791748047	884.02	-30.82333735	-65.95183234	71.48740763	-73
61871	0	0.359436035	-0.083007813	0.137268066	0.999999046	-0.000148773	5.82E-05	-0.000133514	8.985900879	-2.075195313	3.43170166	-0.00743866	0.002908707	-0.00667572	-0.564941406	-0.168701172	-0.791503906	883.98	-30.78701482	-65.95616955	71.42881541	-73
61872	0	0.359930038	-0.082587242	0.137955666	0.999999046	5.44E-05	-4.96E-05	-8.87E-05	8.998250961	-2.064681053	3.44889164	0.002717972	-0.002479553	-0.004434586	-0.562255859	-0.170898438	-0.794189453	884.08	-30.75144636	-65.96845691	71.39477876	-73
61873	0	0.360534668	-0.083984375	0.13659668	1	4.77E-06	7.63E-06	1.53E-05	9.013366699	-2.099609375	3.414916992	0.000238419	0.00038147	0.000762939	-0.562255859	-0.168701172	-0.800048828	884.06	-30.73723183	-65.969026	71.36869285	-73
61874	0	0.358942986	-0.082652092	0.137578964	0.999999046	0.000253677	-9.73E-05	5.72E-05	8.973574638	-2.066302299	3.439474106	0.012683869	-0.004863739	0.002861023	-0.564941406	-0.166503906	-0.794433594	884.02	-30.71759197	-65.97743965	71.37130447	-73
61875	0	0.361694336	-0.080932617	0.137634277	0.999999046	0.000427246	-9.06E-05	-2.29E-05	9.042358398	-2.02331543	3.440856934	0.021362305	-0.004529953	-0.001144409	-0.564697266	-0.168701172	-0.794189453	884.08	-30.65932245	-65.9899464	71.35545861	-73
61876	0	0.363920212	-0.079699516	0.138916969	1	-2.86E-05	-1.24E-05	-4.58E-05	9.098005295	-1.992487907	3.472924232	-0.001430511	-0.000619888	-0.002288818	-0.564697266	-0.170898438	-0.794189453	883.96	-30.63761426	-65.9961589	71.32585284	-73
61877	0	0.360534668	-0.080383301	0.140136719	0.999999046	-0.000350952	0.000184059	0.000164032	9.013366699	-2.00958252	3.503417969	-0.017547608	0.009202957	0.008201599	-0.5625	-0.168701172	-0.794433594	884.04	-30.67319959	-65.97069158	71.31491489	-73
61878	0	0.359236717	-0.079806328	0.139174461	0.999999046	-0.000480652	0.000289917	0.000213623	8.980917931	-1.995158195	3.479361534	-0.024032594	0.01449585	0.010681153	-0.5625	-0.166748047	-0.800292969	884.12	-30.72036781	-65.93187468	71.29386466	-73
61879	0	0.357177734	-0.082214355	0.13861084	0.999999046	-0.000541687	0.000393867	-1.14E-05	8.929443359	-2.055358887	3.465270996	-0.027084353	0.019693376	-0.000572205	-0.560058594	-0.168945313	-0.797363281	884.06	-30.71127555	-65.89590752	71.21059161	-73
61880	0	0.359877586	-0.085103035	0.13855648	0.999999046	-0.000250816	0.00030899	-4.58E-05	8.996939659	-2.127575874	3.46391201	-0.012540818	0.015449524	-0.002288818	-0.5625	-0.164306641	-0.797607422	884.02	-30.67280954	-65.8702188	71.12729731	-73
61881	0	0.361328125	-0.085327148	0.13873291	0.999999046	0.00019455	0.000245094	0.000217438	9.033203125	-2.133178711	3.468322754	0.009727478	0.012254715	0.010871887	-0.560058594	-0.168945313	-0.797363281	884.02	-30.64993907	-65.83537903	71.12300902	-73
61882	0	0.359760284	-0.082684517	0.136620522	0.999999046	0.000171661	0.000226974	0.000155449	8.994007111	-2.067112923	3.415513039	0.008583069	0.011348725	0.007772446	-0.560058594	-0.166748047	-0.800537109	884.02	-30.6186294	-65.80602172	71.10015634	-73
61883	0	0.360473633	-0.081542969	0.137512207	0.999999046	-1.53E-05	0.000393867	0.00031662	9.01184082	-2.038574219	3.437805176	-0.000762939	0.019693375	0.015830994	-0.560058594	-0.166748047	-0.800537109	884.04	-30.62244152	-65.75088901	71.09383881	-72
61884	0	0.360010147	-0.078967094	0.13687706	0.999998093	-0.000171661	0.000121117	0.000250816	9.000253677	-1.974177361	3.421926498	-0.008583069	0.006055832	0.012540817	-0.560058594	-0.166748047	-0.797607422	884.04	-30.66482898	-65.72667436	71.11440283	-73
61885	0	0.359802246	-0.078430176	0.137817383	0.999999046	-7.63E-06	-0.000273705	5.34E-05	8.995056152	-1.960754395	3.44543457	-0.00038147	-0.013685227	0.002670288	-0.557617188	-0.166748047	-0.803466797	883.98	-30.69606007	-65.75306722	71.13498791	-72
61886	0	0.358527184	-0.075785637	0.138473511	0.999999046	0.000551224	-0.0007267	-0.000184059	8.963179588	-1.894640923	3.461837769	0.027561192	-0.036334997	-0.009202958	-0.5625	-0.168701172	-0.797363281	884.04	-30.66949422	-65.83814228	71.17209274	-72
61887	0	0.355407715	-0.077941895	0.141479492	0.999999046	0.000164032	-0.000880241	-0.000728607	8.885192871	-1.948547363	3.536987305	0.008201601	-0.044012079	-0.036430367	-0.560058594	-0.168945313	-0.794433594	884.02	-30.58663566	-65.97004878	71.09685851	-72
61888	0	0.35748291	-0.082275391	0.142944336	0.999998093	0.000644684	-0.0007658	-0.001064301	8.937072754	-2.056884766	3.573608398	0.032234203	-0.038290037	-0.053215046	-0.560058594	-0.168945313	-0.791748047	883.98	-30.35767608	-66.1098042	70.91964553	-72
61889	0	0.358215332	-0.083129883	0.140441895	0.999999046	0.000511169	-0.000544548	-0.000808716	8.955383301	-2.07824707	3.511047363	0.025558477	-0.027227407	-0.040435799	-0.564697266	-0.170898438	-0.796875	884.02	-30.1704124	-66.21242484	70.76867192	-73
61890	0	0.353616714	-0.079789162	0.141602516	0.999999046	-0.000595093	-0.000379562	-0.000152588	8.840417862	-1.994729042	3.540062904	-0.029754641	-0.018978121	-0.007629395	-0.562255859	-0.170898438	-0.794189453	884.08	-30.23492734	-66.26050625	70.75606109	-73
61891	0	0.362670898	-0.078491211	0.14440918	0.999998093	-0.001914024	1.53E-05	-0.000133514	9.066772461	-1.962280273	3.610229492	-0.095701276	0.00076294	-0.006675724	-0.564697266	-0.170898438	-0.791259766	884.14	-30.40255277	-66.26821341	70.70142646	-73
61892	0	0.366411209	-0.083040237	0.145384789	0.999992371	-0.003553391	0.000195503	-0.000850677	9.160280228	-2.076005936	3.634619713	-0.177669922	0.009775184	-0.042533969	-0.564697266	-0.168701172	-0.800048828	884.08	-30.57277471	-66.29959886	70.44108016	-73
61893	0	0.35546875	-0.089660645	0.157470703	0.999973297	-0.006987572	0.000682831	-0.001682281	8.88671875	-2.241516113	3.936767578	-0.349381621	0.034141837	-0.084114805	-0.564941406	-0.164306641	-0.794677734	884.04	-30.88439243	-66.33095394	69.92343554	-74
61894	0	0.340971947	-0.093846321	0.162735939	0.999957085	-0.008893967	0.000793457	-0.002362251	8.524298668	-2.346158028	4.068398476	-0.444704657	0.039673416	-0.118114244	-0.558105469	-0.153564453	-0.804443359	884.04	-31.24616778	-66.39117391	69.21359172	-75
61895	0	0.344177246	-0.10559082	0.18145752	0.999985695	-0.004123688	0.000466347	-0.003147125	8.604431152	-2.639770508	4.536437988	-0.206185319	0.023317442	-0.157356974	-0.558837891	-0.142578125	-0.799560547	884.08	-30.92562748	-66.52735131	68.35132034	-74
61896	0	0.343165398	-0.089971542	0.188173294	0.999985695	-0.000302315	0.002313614	-0.004775047	8.579134941	-2.249288559	4.704332352	-0.015115809	0.115681239	-0.238753489	-0.556152344	-0.142822266	-0.808349609	884.02	-29.53980207	-66.56680772	66.79413023	-71
61897	0	0.347412109	-0.082885742	0.194213867	0.999970436	-0.001541138	0.004261971	-0.006134033	8.685302734	-2.072143555	4.85534668	-0.077057632	0.213100592	-0.306704633	-0.549072266	-0.149658203	-0.805419922	883.98	-27.73249671	-66.46515093	64.63615489	-67
61898	0	0.347303391	-0.076625824	0.205784798	0.999950409	-0.002282143	0.006772041	-0.006828308	8.682584763	-1.915645599	5.144619942	-0.11410899	0.33860758	-0.341420965	-0.541503906	-0.154296875	-0.813964844	884.08	-25.58202298	-66.10947799	62.01233365	-64
61899	0	0.343078613	-0.068725586	0.210449219	0.999923706	-0.003108025	0.009559631	-0.007099152	8.576965332	-1.718139648	5.261230469	-0.155405153	0.477993633	-0.354966541	-0.52734375	-0.154785156	-0.8203125	883.98	-23.25763132	-65.43171305	59.0875664	-63
61900	0	0.348258018	-0.073892593	0.219351768	0.999881744	-0.00396347	0.011826515	-0.008925438	8.706450462	-1.847314835	5.483794212	-0.198181293	0.591348946	-0.446289395	-0.508300781	-0.157714844	-0.832519531	883.96	-20.56749689	-64.53580102	55.63682683	-66
61901	0	0.345092773	-0.072937012	0.226928711	0.999825478	-0.000839233	0.014370918	-0.011875153	8.627319336	-1.823425293	5.673217773	-0.041964106	0.718587625	-0.593792097	-0.484375	-0.163085938	-0.844970703	884.1	-16.91850346	-63.38936642	51.48295321	-79
61902	0	0.337910652	-0.065110207	0.230979919	0.999781609	-0.001541138	0.016023636	-0.013300896	8.447766304	-1.627755165	5.774497986	-0.077062486	0.80124003	-0.665093126	-0.455566406	-0.172851563	-0.857177734	884.04	-13.29925277	-61.9861502	47.23031561	-66
61903	0	0.345825195	-0.070251465	0.243469238	0.999728203	-0.002502441	0.017754555	-0.014862061	8.645629883	-1.756286621	6.086730957	-0.125133383	0.887808003	-0.743170216	-0.422119141	-0.180664063	-0.872558594	884.08	-9.805593252	-60.30288984	42.93372117	-69
61904	0	0.344695091	-0.053574562	0.241194725	0.999652863	-0.004365921	0.019984245	-0.016581535	8.617377281	-1.339364052	6.029868126	-0.218321286	0.999327773	-0.829172608	-0.384033203	-0.186523438	-0.891357422	884.08	-6.583985359	-58.27397827	38.62539971	-73
61905	0	0.331481934	-0.062561035	0.241699219	0.999587059	-0.0105896	0.021397591	-0.015964508	8.28704834	-1.564025879	6.042480469	-0.529552799	1.07002667	-0.798335181	-0.341308594	-0.187988281	-0.907958984	884.04	-4.612262024	-55.97814327	34.87936389	-70
61906	0	0.317258835	-0.066242218	0.258464813	0.999595642	-0.008616447	0.022421837	-0.01521492	7.931470871	-1.65605545	6.461620331	-0.430880445	1.12124296	-0.760848547	-0.299072266	-0.178710938	-0.927978516	884.14	-2.91040129	-53.49394226	31.6222732	-78
61907	0	0.305236816	-0.054321289	0.260559082	0.999615669	-0.00793457	0.022774696	-0.013656616	7.63092041	-1.358032227	6.513977051	-0.396779324	1.138880654	-0.68291826	-0.252197266	-0.173828125	-0.9453125	884.04	-1.683941764	-50.91427453	28.95961833	-72
61908	0	0.280291557	-0.066362381	0.247429848	0.999549866	-0.013368607	0.024136543	-0.011677742	7.007288933	-1.659059525	6.185746193	-0.668530373	1.20700779	-0.583974491	-0.203369141	-0.16015625	-0.951904297	884.04	-1.577073997	-48.15366496	26.87176734	-79
61909	0	0.273132324	-0.076538086	0.259765625	0.999545097	-0.012248993	0.025094032	-0.011360168	6.828308105	-1.913452148	6.494140625	-0.61254245	1.254891738	-0.568094493	-0.157226563	-0.135498047	-0.965087891	884.06	-1.542703356	-45.28155492	24.9440288	-72
61910	0	0.242230415	-0.077923775	0.243848801	0.999565125	-0.011059761	0.02524662	-0.010430336	6.055760384	-1.948094368	6.096220016	-0.553068129	1.262513803	-0.521592319	-0.105957031	-0.117675781	-0.980712891	884.02	-1.617818393	-42.39096765	23.26439432	-76
61911	0	0.215270996	-0.083984375	0.239746094	0.999568939	-0.012522697	0.025066376	-0.008724213	5.381774902	-2.099609375	5.993652344	-0.626224784	1.25349876	-0.436273271	-0.057617188	-0.097412109	-0.982177734	884.04	-2.139857614	-39.52274864	21.92414685	-79
61912	0	0.194152832	-0.11328125	0.246337891	0.999620438	-0.008369446	0.02500248	-0.007926941	4.853820801	-2.83203125	6.158447266	-0.418525176	1.250281966	-0.396397135	-0.007080078	-0.072753906	-0.987060547	883.98	-2.34097331	-36.66634083	20.70079323	-66
61913	0	0.172180176	-0.128173828	0.246337891	0.99961853	-0.006644249	0.025661469	-0.007648468	4.304504395	-3.204345703	6.158447266	-0.332254607	1.283236251	-0.382471931	0.041748047	-0.059082031	-0.988037109	884.08	-2.445139895	-33.73677814	19.55471975	-75
61914	0	0.154875755	-0.122478485	0.222203255	0.999432564	-0.016103745	0.028940201	-0.006018639	3.871893883	-3.061962128	5.555081367	-0.805339361	1.447283445	-0.30098879	0.094970703	-0.043212891	-0.989257813	884.04	-3.798013434	-30.43629999	18.69356994	-76
61915	0	0.129150391	-0.191101074	0.223388672	0.999401093	-0.019412041	0.028633118	-8.01E-05	3.228759766	-4.777526855	5.584716797	-0.970795725	1.431941579	-0.004006231	0.151855469	-0.003417969	-0.981445313	884.02	-5.925320359	-27.14219304	18.52711576	-78
61916	0	0.080732346	-0.158585548	0.221775055	0.999476433	-0.013733864	0.028951645	0.00436306	2.01830864	-3.96463871	5.544376373	-0.686812945	1.44783469	0.218191044	0.204345703	0.027832031	-0.972412109	884.02	-7.614505443	-23.76225789	18.77687953	-78
61917	0	0.01776123	-0.111083984	0.22052002	0.999442101	-0.013595581	0.030262947	0.003780365	0.444030762	-2.777099609	5.513000488	-0.679905439	1.513428683	0.189053392	0.263916016	0.054443359	-0.958007813	883.98	-9.207478152	-20.23858219	18.80819693	-73
61918	0	-0.016020775	-0.065894127	0.175801277	0.999206543	-0.009196281	0.038746834	-1.62E-05	-0.400519371	-1.647353172	4.395031929	-0.459935694	1.937854124	-0.000810838	0.328613281	0.07421875	-0.937255859	884.04	-10.08465856	-15.82851989	18.13230645	-74
61919	0	0.003662109	-0.055175781	0.137145996	0.999123573	0.002155304	0.041543007	-0.004547119	0.091552734	-1.379394531	3.428649902	0.107796675	2.077757054	-0.227422365	0.400146484	0.089599609	-0.913818359	883.96	-9.584044517	-11.19402251	16.74958408	-78
61920	0	0.003373146	-0.008524895	0.050168991	0.998880386	0.014556885	0.044270515	-0.00807476	0.084328651	-0.213122368	1.254224777	0.728115874	2.214351874	-0.403888699	0.479736328	0.078369141	-0.877197266	884.02	-7.720638928	-6.286853487	14.93866743	-74
61921	0	0.047424316	-0.040649414	-0.028930664	0.998542786	0.02972126	0.041526794	-0.017433167	1.18560791	-1.016235352	-0.723266602	1.486785122	2.077348672	-0.872081888	0.555175781	0.054199219	-0.833740234	883.96	-4.203459107	-1.736156358	12.19658651	-72
61922	0	0.065015793	-0.107165337	-0.368492126	0.998402596	0.03001976	0.02971077	-0.03751564	1.625394821	-2.679133415	-9.212303162	1.501787516	1.486329762	-1.876781158	0.626220703	0.021484375	-0.7890625	884.08	-0.822431504	1.495538488	7.703775746	-68
61923	0	-0.071533203	-0.432189941	-0.629882813	0.999177933	0.03438282	-0.016620636	-0.013580322	-1.788330078	-10.80474854	-15.74707031	1.71961207	-0.831259511	-0.679202171	0.658447266	0.020507813	-0.756347656	884.02	3.00756371	-0.368112776	5.365719339	-72
61924	0	0.988045692	-0.741441727	0.427979469	0.977220535	0.131174088	-0.132668495	0.101145744	24.70114231	-18.53604317	10.69948673	6.608961618	-6.684254559	5.096039581	0.618164063	-0.063964844	-0.795898438	883.98	16.8961395	-17.45369057	2.598503042	-68
61925	0	2.168518066	2.977539063	1.30456543	0.83625412	0.466629982	-0.096920013	0.271186829	54.21295166	74.43847656	32.61413574	24.6947041	-5.129141173	14.35158208	0.245849609	-0.679931641	-0.684814453	884.02	64.6455282	-46.96685603	13.98960487	-59
61926	0	0.925477982	2.988877296	-1.164981842	0.995012283	-0.095993996	0.02675724	-0.004323006	23.13694954	74.72193241	-29.12454605	-4.807694721	1.340090513	-0.216510329	-0.195556641	-0.968261719	0.146484375	884.04	51.81212082	-44.88965782	22.00915	-75
61927	0	0.417602539	0.400146484	-0.39440918	0.976248741	-0.188301086	-0.003203392	-0.107097626	10.44006348	10.00366211	-9.860229492	-9.490308041	-0.161449823	-5.397682392	-0.078613281	-0.977050781	-0.213623047	884.1	38.26251422	-36.26863301	11.16011346	-82
61928	0	0.475665092	-0.113974571	0.006020546	0.976511955	-0.195652962	0.029310226	-0.085352898	11.89162731	-2.849364281	0.150513649	-9.859966569	1.477094189	-4.301374791	0.115966797	-0.819580078	-0.572021484	884.04	20.44533862	-28.45568443	3.19127639	-69
61929	0	0.076843262	-0.309509277	0.073486328	0.991272926	-0.114044189	0.029927254	-0.058956146	1.921081543	-7.737731934	1.837158203	-5.718855037	1.500730783	-2.956412383	0.256103516	-0.536621094	-0.814453125	884.04	10.44860642	-23.38085507	-3.243668615	-67
61930	0	0.082299232	-0.155808449	-0.008934975	0.999090195	-0.019444466	0.010968208	-0.036312103	2.057480812	-3.89521122	-0.223374367	-0.972517938	0.548576625	-1.816155427	0.345947266	-0.364501953	-0.870605469	884.1	10.16692068	-21.50113505	-7.700707009	-70
61931	0	0.08013916	-0.116455078	0.102050781	0.998984337	0.041343689	-0.01356411	-0.011646271	2.003479004	-2.911376953	2.551269531	2.067884113	-0.678435037	-0.582510629	0.373291016	-0.347900391	-0.867919922	884.02	15.85361925	-22.82056103	-9.704352669	-74
61932	0	0.154589653	-0.014865875	0.217006683	0.999081612	0.030028343	-0.02804184	0.012109756	3.864741325	-0.371646881	5.425167084	1.501876646	-1.402521069	0.605673124	0.345458984	-0.416992188	-0.843505859	884.08	19.37401716	-26.3687166	-9.448325665	-76
61933	0	0.193908691	0.122253418	0.323181152	0.997648239	0.050694466	-0.032009125	0.033203125	4.847717285	3.056335449	8.079528809	2.536711737	-1.601711773	1.661458619	0.281982422	-0.478271484	-0.83203125	884.08	24.23674763	-31.2731814	-7.134704635	-79
61934	0	0.293876648	0.280373573	0.3169384	0.997187614	0.057836533	-0.02945137	0.03745079	7.346916199	7.009339333	7.923460007	2.894539763	-1.473950087	1.874296351	0.19921875	-0.593505859	-0.775146484	884.2	29.6569596	-36.31670705	-4.563362102	-87
61935	0	0.276794434	0.295349121	0.254272461	0.998714447	0.025971413	-0.027271271	0.033908844	6.91986084	7.383728027	6.356811523	1.299127074	-1.364147829	1.696168702	0.112548828	-0.677978516	-0.723632813	883.98	31.65604455	-41.05833759	-2.555044263	-83
61936	0	0.30305481	0.337047577	0.283245087	0.99944973	0.007437706	-0.016141891	0.02797699	7.576370239	8.426189423	7.081127167	0.371953425	-0.807242425	1.399105742	0.036132813	-0.710449219	-0.702392578	884.04	31.40841628	-44.35905692	-0.477633655	-77
61937	0	0.301757813	0.239013672	0.265380859	0.999633789	0.008660316	-0.012210846	0.022537231	7.543945313	5.975341797	6.634521484	0.433068671	-0.610616811	1.126999101	-0.020019531	-0.717285156	-0.693115234	884.08	31.4664602	-46.95256121	1.23179947	-73
61938	0	0.245153427	0.248463631	0.226244926	0.999835014	0.010406494	-0.006567001	0.013323784	6.128835678	6.211590767	5.656123161	0.520353238	-0.328368071	0.666225722	-0.062011719	-0.730957031	-0.672363281	884.1	32.31580251	-48.41299142	2.101533953	-72
61939	0	0.289245605	0.178955078	0.207580566	0.999954224	-0.002833366	-0.004383087	0.007911682	7.231140137	4.473876953	5.18951416	-0.141670441	-0.219157639	0.39559003	-0.085449219	-0.736572266	-0.662109375	884.1	32.07417591	-49.32244019	2.388678366	-72
61940	0	0.323015213	0.133180618	0.200593948	0.999986649	0.00056839	-0.003935814	0.003148079	8.075380325	3.329515457	5.014848709	0.028419616	-0.196791539	0.157404621	-0.097412109	-0.729736328	-0.667724609	884.14	32.68629895	-49.93089742	2.014243042	-72
61941	0	0.311035156	0.15032959	0.226196289	0.99990654	0.012345314	-0.005615234	0.001724243	7.775878906	3.758239746	5.654907227	0.617284932	-0.280770466	0.086214844	-0.106689453	-0.733642578	-0.658447266	884.04	34.919064	-50.60924835	1.249707966	-70
61942	0	0.284827232	0.166419983	0.188309669	0.999873161	0.014732361	-0.005050659	0.003092766	7.120680809	4.160499573	4.707741737	0.736648998	-0.252543571	0.154644789	-0.115722656	-0.752929688	-0.639160156	884.14	37.25045152	-51.29986763	0.71083125	-69
61943	0	0.286621094	0.18963623	0.171813965	0.999925613	0.009716988	-0.004909515	0.005432129	7.165527344	4.740905762	4.295349121	0.485861368	-0.245481826	0.271613147	-0.129394531	-0.770019531	-0.616943359	884.1	38.76801149	-52.11658215	0.489237759	-69
61944	0	0.312011719	0.18651104	0.150672913	0.999927521	0.009817123	-0.004078865	0.005545616	7.800292969	4.662775993	3.766822815	0.490867933	-0.20394814	0.277287452	-0.140869141	-0.778320313	-0.607177734	884.04	40.23937707	-52.88051079	0.330784465	-69
61945	0	0.330810547	0.213317871	0.137451172	0.99984169	0.016781807	-0.00460434	0.003585815	8.270263672	5.332946777	3.436279297	0.839134502	-0.230229094	0.179300206	-0.155029297	-0.790771484	-0.582275391	884.1	42.85148854	-53.54979184	-0.251257322	-69
61946	0	0.329437256	0.229997635	0.137981415	0.999938965	0.010451317	-0.003098488	0.00151062	8.235931396	5.749940872	3.44953537	0.52257639	-0.15492752	0.075532531	-0.1640625	-0.807861328	-0.552001953	884.08	44.87476056	-53.90482119	-0.978680201	-67
61947	0	0.318664551	0.216369629	0.146972656	0.999997139	-0.00194931	-0.000407219	-0.000179291	7.96661377	5.409240723	3.674316406	-0.09746558	-0.02036096	-0.008964545	-0.168701172	-0.814208984	-0.542480469	884.04	45.36570262	-53.88092149	-1.565521759	-67
61948	0	0.305053711	0.188232422	0.154541016	0.999988556	-0.004283905	0.000569344	-0.001777649	7.626342773	4.705810547	3.863525391	-0.214196031	0.028467282	-0.08888277	-0.166503906	-0.812011719	-0.548583984	884.14	45.60778541	-53.64171023	-2.202375458	-67
61949	0	0.310852051	0.180297852	0.162231445	0.999992371	-0.002490044	-0.00044632	-0.002666473	7.77130127	4.507446289	4.055786133	-0.124502462	-0.022316029	-0.13332397	-0.1640625	-0.807861328	-0.5546875	884.04	46.20296762	-53.40735875	-3.054767854	-68
61950	0	0.306880951	0.166689873	0.169194221	0.999997139	0.000583649	-0.000745773	-0.001841545	7.672023773	4.167246819	4.229855537	0.029182455	-0.037288692	-0.092077321	-0.157226563	-0.808105469	-0.552246094	884.04	47.02055039	-53.25870544	-3.777232473	-67
61951	0	0.307617188	0.169616699	0.159667969	0.999997139	0.001853943	-0.00039959	-0.001155853	7.690429688	4.24041748	3.991699219	0.09269722	-0.019979493	-0.057792711	-0.156982422	-0.808105469	-0.555175781	884.1	47.81412483	-53.14152654	-4.318228612	-68
61952	0	0.312994957	0.183241844	0.154100418	0.999980927	0.00605011	-0.000416756	0.000188828	7.824873924	4.581046104	3.852510452	0.302507349	-0.020837912	0.009441434	-0.156982422	-0.810302734	-0.552001953	884.08	48.91260601	-53.14122241	-4.660456296	-67
61953	0	0.317138672	0.194946289	0.137512207	0.999979019	0.006402016	0.000156403	0.000537872	7.928466797	4.873657227	3.437805176	0.320102988	0.007820183	0.026893801	-0.156982422	-0.818847656	-0.537109375	884.04	49.93068948	-53.12875565	-4.854034672	-67
61954	0	0.315489769	0.210066795	0.133647919	0.999997139	0.001544952	0.001113892	0.000930786	7.887244225	5.251669884	3.341197968	0.077247677	0.055694622	0.046539341	-0.159179688	-0.822998047	-0.528076172	884.14	50.23133529	-53.07878896	-4.846568247	-68
61955	0	0.313476563	0.200134277	0.138061523	0.999999046	0.000419617	0.000531197	-0.000102997	7.836914063	5.003356934	3.451538086	0.020980837	0.026559832	-0.005149842	-0.156738281	-0.825439453	-0.530761719	884.14	50.55187192	-52.98401043	-5.037625848	-68
61956	0	0.305901527	0.1921978	0.141154289	0.999998093	0.001609802	-0.000153542	-0.000450134	7.647538185	4.804944992	3.528857231	0.08049015	-0.007677082	-0.022506724	-0.156738281	-0.825439453	-0.530761719	884.14	51.09549606	-52.90974911	-5.35225538	-68
61957	0	0.313720703	0.18560791	0.147216797	0.999996185	0.002678871	-0.000564575	-0.00031662	7.843017578	4.640197754	3.680419922	0.133943727	-0.028228796	-0.015831014	-0.156738281	-0.827636719	-0.530761719	884.1	51.76369143	-52.88038021	-5.686619118	-68
61958	0	0.312051773	0.197086334	0.145627975	0.999996185	0.002463341	-0.000302315	-0.000306129	7.801294327	4.927158356	3.640699387	0.123167166	-0.015115754	-0.015306489	-0.156738281	-0.83203125	-0.521728516	884.08	52.3497147	-52.8308518	-5.955677673	-68
61959	0	0.311462402	0.198730469	0.14666748	0.999996185	0.002472878	0.000263214	-0.000923157	7.786560059	4.968261719	3.666687012	0.12364402	0.013160721	-0.046157891	-0.154296875	-0.83203125	-0.521728516	884.04	52.90126515	-52.68562804	-6.194832198	-68
61960	0	0.309871674	0.194667816	0.136227608	0.999994278	0.003137589	9.44E-05	-0.000202179	7.74679184	4.866695404	3.405690193	0.156879684	0.004720696	-0.010108964	-0.151855469	-0.836425781	-0.515869141	884.02	53.46410017	-52.62033103	-6.359134521	-68
61961	0	0.307800293	0.1953125	0.133544922	0.999998093	0.001511574	0.000141144	0.000179291	7.695007324	4.8828125	3.338623047	0.075578719	0.007057193	0.008964542	-0.151855469	-0.838623047	-0.510009766	884.14	53.78459108	-52.58951951	-6.458812893	-68
61962	0	0.31314373	0.201044083	0.136322021	0.999998093	0.001471519	-0.000369072	0.000545502	7.828593254	5.026102066	3.408050537	0.073576005	-0.018453606	0.027275097	-0.151855469	-0.840820313	-0.504150391	884.04	54.11585387	-52.6290298	-6.583843263	-68
61963	0	0.31262207	0.199951172	0.13861084	0.999995232	0.002830505	-0.000193596	-0.000118256	7.815551758	4.998779297	3.465270996	0.141525459	-0.009679807	-0.005912789	-0.154296875	-0.842773438	-0.500976563	884.04	54.62487498	-52.59680554	-6.746282914	-68
61964	0	0.312262535	0.200016975	0.138274193	0.999997139	0.001997948	9.54E-05	-3.91E-05	7.806563377	5.000424385	3.45685482	0.099897451	0.004768375	-0.001955034	-0.154296875	-0.842773438	-0.498046875	884.1	54.98128314	-52.55407468	-6.844533781	-68
61965	0	0.31060791	0.200805664	0.13684082	0.999999046	0.001075745	0.000100136	-0.000312805	7.765197754	5.020141602	3.421020508	0.053787243	0.005006791	-0.015640262	-0.154052734	-0.847167969	-0.494873047	884.14	55.24149009	-52.48595396	-6.958906182	-67
61966	0	0.311675072	0.201966286	0.13689518	0.999999046	0.000562668	0.000146866	-0.000401497	7.791876793	5.049157143	3.422379494	0.028133395	0.007343293	-0.020074846	-0.151855469	-0.847167969	-0.4921875	884.14	55.43247733	-52.40742809	-7.065998496	-68
61967	0	0.31048584	0.200439453	0.135803223	0.999999046	0.000808716	0.000245094	-0.000522614	7.762145996	5.010986328	3.395080566	0.040435798	0.012254717	-0.026130681	-0.154052734	-0.847167969	-0.497802734	884.1	55.63857824	-52.31291591	-7.165263676	-68
61968	0	0.309903145	0.202019691	0.135322571	0.999999046	0.000567436	0.000238419	-0.000470161	7.747578621	5.050492287	3.38306427	0.028371814	0.01192093	-0.023508074	-0.149414063	-0.849609375	-0.491943359	884.04	55.80346582	-52.22436615	-7.24827772	-68
61969	0	0.309143066	0.202087402	0.133056641	0.999999046	0.000720978	0.000191689	-0.000320435	7.72857666	5.052185059	3.326416016	0.036048893	0.009584428	-0.01602173	-0.146972656	-0.849609375	-0.4921875	884.1	55.9713317	-52.15455667	-7.317956158	-68
61970	0	0.31305027	0.202116966	0.135752678	0.999999046	0.000511169	9.73E-05	-0.000419617	7.826256752	5.052924156	3.393816948	0.025558474	0.004863739	-0.020980837	-0.149169922	-0.851806641	-0.494628906	884.1	56.12625615	-52.0832093	-7.406545322	-68
61971	0	0.308105469	0.201660156	0.134521484	0.999999046	0.000576019	0.00042057	-0.000228882	7.702636719	5.041503906	3.363037109	0.028800967	0.021028521	-0.011444093	-0.149414063	-0.8515625	-0.489013672	884.1	56.2259154	-52.01023954	-7.417601709	-67
61972	0	0.309814453	0.203552246	0.137329102	0.999998093	0.001415253	0.000397682	-0.000247955	7.745361328	5.088806152	3.433227539	0.07076266	0.019884117	-0.012397771	-0.146972656	-0.851806641	-0.486328125	884.04	56.41862097	-51.93772551	-7.428935419	-68
61973	0	0.309143066	0.202026367	0.136779785	0.999999046	0.000709534	0.000401497	-9.92E-05	7.72857666	5.05065918	3.419494629	0.035476689	0.020074847	-0.004959107	-0.146972656	-0.851806641	-0.489257813	884.08	56.51078327	-51.88039002	-7.420273863	-68
61974	0	0.309541702	0.20368576	0.136860847	0.999997139	0.002059937	0.000383377	-0.000423431	7.738542557	5.092144012	3.421521187	0.102996905	0.019168868	-0.021171586	-0.14453125	-0.856201172	-0.486083984	884.1	56.77972347	-51.79394135	-7.441413169	-68
61975	0	0.309265137	0.206298828	0.134155273	0.999994278	0.003190041	0.000389099	-0.000789642	7.731628418	5.157470703	3.353881836	0.159502321	0.019454992	-0.039482189	-0.14453125	-0.858398438	-0.485839844	883.98	57.20172612	-51.67275683	-7.496333087	-68
61976	0	0.307734489	0.209329605	0.130560875	0.999995232	0.002598763	0.000429153	-0.000870705	7.693362236	5.233240128	3.264021873	0.129938292	0.0214577	-0.043535288	-0.142333984	-0.858398438	-0.477294922	884.04	57.55386096	-51.54149743	-7.54833198	-68
61977	0	0.307739258	0.206726074	0.133056641	0.999999046	0.000640869	0.000367165	-0.000404358	7.693481445	5.168151855	3.326416016	0.032043461	0.018358233	-0.020217898	-0.139892578	-0.858398438	-0.471923828	884.04	57.64809437	-51.45987318	-7.558670334	-68
61978	0	0.306556702	0.208061218	0.134479523	0.999999046	0.000226974	0.000478745	-0.000481606	7.663917542	5.201530457	3.361988068	0.011348725	0.023937227	-0.024080279	-0.139892578	-0.860595703	-0.474609375	884.04	57.68297567	-51.36431885	-7.556874946	-68
61979	0	0.30657959	0.20526123	0.132080078	0.999999046	0.000892639	0.000317574	-0.000152588	7.664489746	5.131530762	3.302001953	0.044631965	0.01587868	-0.007629396	-0.137451172	-0.863037109	-0.474365234	884.1	57.78479723	-51.31171293	-7.54497531	-68
61980	0	0.307103157	0.205470085	0.132884026	0.999998093	0.001543045	0.000245094	-1.53E-05	7.677578926	5.136752129	3.322100639	0.077152284	0.01225472	-0.00076294	-0.137451172	-0.864990234	-0.468505859	884.14	57.95578026	-51.27797888	-7.527270497	-68
61981	0	0.308776855	0.203430176	0.133178711	0.999994278	0.00325489	0.000160217	0.000221252	7.719421387	5.085754395	3.329467773	0.162744811	0.008010879	0.011062642	-0.137451172	-0.864990234	-0.468505859	884.16	58.31130346	-51.27418377	-7.499051879	-68
61982	0	0.307983398	0.204772949	0.13104248	0.999988556	0.004570961	-6.01E-05	0.000389099	7.699584961	5.11932373	3.276062012	0.228548852	-0.003004085	0.019455024	-0.137207031	-0.869384766	-0.465332031	884.02	58.82886299	-51.30147935	-7.487103269	-68
61983	0	0.305664063	0.213256836	0.126953125	0.999993324	0.003490448	-0.000285149	0.000789642	7.641601563	5.331420898	3.173828125	0.174522775	-0.014257462	0.039482202	-0.139648438	-0.871582031	-0.456542969	884.08	59.22024895	-51.38137126	-7.471246322	-67
61984	0	0.305356026	0.221690178	0.130908012	0.999996185	0.002473831	-0.000187874	0.000346184	7.633900642	5.542254448	3.27270031	0.123691688	-0.009393702	0.017309207	-0.139648438	-0.875732422	-0.444580078	884.18	59.51519144	-51.41006456	-7.479480633	-68
61985	0	0.307373047	0.21673584	0.127258301	0.999999046	0.00056839	0.000309944	-0.000202179	7.684326172	5.418395996	3.18145752	0.028419497	0.015497209	-0.010108949	-0.139648438	-0.875732422	-0.447509766	884.16	59.56913706	-51.35536157	-7.46119156	-68
61986	0	0.309409142	0.210835457	0.122693062	0.999999046	0.000907898	0.000101089	-0.000442505	7.735228539	5.270886421	3.067326546	0.045394905	0.005054475	-0.022125248	-0.139648438	-0.875732422	-0.447509766	884.1	59.70434012	-51.29024689	-7.498004421	-67
61987	0	0.309814453	0.211914063	0.125976563	0.999997139	0.002101898	8.87E-05	-0.000637054	7.745361328	5.297851563	3.149414063	0.105094994	0.004434589	-0.031852748	-0.139648438	-0.880126953	-0.44140625	884.14	59.98986818	-51.20729898	-7.552035721	-67
61988	0	0.308421135	0.213526726	0.130139351	0.999995232	0.002911568	0.000133514	-0.000798225	7.710528374	5.338168144	3.253483772	0.145578606	0.00667573	-0.039911331	-0.135009766	-0.880371094	-0.436035156	884.14	60.37062821	-51.10576445	-7.611226372	-67
61989	0	0.303588867	0.214294434	0.123413086	0.999998093	0.00155735	0.000244141	-0.000209808	7.58972168	5.35736084	3.085327148	0.077867541	0.012207036	-0.010490422	-0.137207031	-0.882324219	-0.432861328	884.1	60.53963311	-51.05657292	-7.598214821	-68
61990	0	0.303864479	0.214324951	0.125518799	0.999999046	0.000860214	0.000461578	0.000311852	7.596611977	5.358123779	3.137969971	0.043010719	0.023078922	0.015592578	-0.135009766	-0.884521484	-0.429931641	884.14	60.56378604	-51.04723746	-7.502149625	-68
61991	0	0.306152344	0.211242676	0.119140625	0.999998093	0.001606941	-8.77E-05	0.000492096	7.653808594	5.281066895	2.978515625	0.080347099	-0.004386904	0.024604809	-0.134765625	-0.886962891	-0.432617188	884.14	60.72847683	-51.08801662	-7.478122184	-68
61992	0	0.307731628	0.219503403	0.119602203	0.999994278	0.003103256	-0.000393867	0.00043869	7.69329071	5.487585068	2.990055084	0.155163069	-0.019693407	0.021934546	-0.135009766	-0.88671875	-0.424072266	884.08	61.10705042	-51.14069216	-7.507886812	-68
61993	0	0.308227539	0.221862793	0.122741699	0.999999046	0.000488281	-0.000266075	0.000225067	7.705688477	5.546569824	3.06854248	0.024414064	-0.013303758	0.011253358	-0.137207031	-0.888916016	-0.420898438	884.02	61.18455182	-51.16440577	-7.535517665	-68
61994	0	0.306435585	0.215128899	0.121147156	0.999999046	0.000139236	-0.00028038	-0.000289917	7.660889626	5.378222466	3.028678894	0.006961823	-0.014019013	-0.01449585	-0.134765625	-0.888916016	-0.423828125	884.04	61.25814134	-51.1374934	-7.610817842	-68
61995	0	0.305114746	0.215942383	0.120666504	0.999999046	0.001125336	-0.000197411	3.05E-05	7.627868652	5.39855957	3.016662598	0.056266797	-0.009870531	0.001525879	-0.134765625	-0.888916016	-0.420898438	884.04	61.41164307	-51.13826975	-7.643864528	-68
61996	0	0.304929733	0.205996513	0.118067741	0.999998093	0.001419067	-0.000414848	0.000278473	7.623243332	5.149912834	2.951693535	0.070953396	-0.020742424	0.01392365	-0.134765625	-0.891113281	-0.423583984	884.08	61.60768933	-51.17719425	-7.689772877	-67
61997	0	0.306518555	0.223205566	0.122009277	0.999991417	0.003955841	-0.000174522	0.000175476	7.662963867	5.58013916	3.050231934	0.197792571	-0.008726143	0.008773827	-0.134765625	-0.891113281	-0.41796875	884.08	62.07110954	-51.19181007	-7.705996195	-67
61998	0	0.309206009	0.229948997	0.124601364	0.999997139	0.001840591	0.00037384	-0.000551224	7.730150223	5.748724937	3.115034103	0.09202963	0.018692029	-0.027561205	-0.134765625	-0.895507813	-0.411865234	884.02	62.27087952	-51.10210253	-7.694162222	-68
61999	0	0.307128906	0.218078613	0.116088867	0.999999046	0.000350952	0.000725746	-0.000911713	7.678222656	5.451965332	2.90222168	0.017547612	0.036287317	-0.045585644	-0.134765625	-0.897705078	-0.408691406	884.1	62.27910683	-50.95750921	-7.65541296	-68
62000	0	0.305532455	0.216822624	0.112900734	0.999999046	0.000798225	0.000476837	-0.000701904	7.638311386	5.420565605	2.822518349	0.039911279	0.023841863	-0.035095223	-0.132568359	-0.895507813	-0.409179688	884.02	62.35615699	-50.84816656	-7.639963528	-68
62001	0	0.305786133	0.216064453	0.115661621	0.999997139	0.00207901	0.000287056	-0.000419617	7.64465332	5.401611328	2.891540527	0.10395058	0.014352809	-0.020980851	-0.130126953	-0.895507813	-0.40625	884.04	62.58447644	-50.77827428	-7.630699833	-67
62002	0	0.30303669	0.216423988	0.113043785	0.999999046	0.000787735	-1.14E-05	4.58E-05	7.575917244	5.410599709	2.826094627	0.039386753	-0.000572205	0.002288819	-0.130126953	-0.899902344	-0.400390625	884.08	62.67165878	-50.77202494	-7.629398238	-67
62003	0	0.305297852	0.220031738	0.114379883	0.999999046	0.000816345	-0.00065136	0.000705719	7.632446289	5.500793457	2.85949707	0.040817272	-0.032567987	0.035285959	-0.127685547	-0.900146484	-0.403320313	884.1	62.79948834	-50.86689072	-7.677278033	-67
62004	0	0.306314468	0.222781181	0.116972923	0.999999046	0.001236916	-0.000398636	0.00045681	7.65786171	5.569529533	2.924323082	0.061845799	-0.0199318	0.022840507	-0.129882813	-0.904296875	-0.399902344	884.02	62.95976929	-50.92298135	-7.704580529	-67
62005	0	0.305969238	0.222473145	0.115966797	0.999999046	0.001331329	-0.000185966	4.20E-05	7.649230957	5.561828613	2.899169922	0.066566487	-0.009298327	0.002098084	-0.130126953	-0.902099609	-0.394287109	884.04	63.13050667	-50.92549897	-7.73160637	-67
62006	0	0.305969238	0.226379395	0.116149902	0.999999046	0.000766754	-4.20E-05	-0.000164032	7.649230957	5.659484863	2.903747559	0.038337711	-0.002098084	-0.0082016	-0.132324219	-0.904296875	-0.396972656	883.98	63.23136546	-50.89901641	-7.752516053	-67
62007	0	0.304443359	0.221008301	0.112609863	0.999999046	-7.63E-05	-6.77E-05	-0.000392914	7.611083984	5.52520752	2.815246582	-0.003814697	-0.003385544	-0.019645691	-0.130126953	-0.902099609	-0.394287109	884.04	63.25322523	-50.85054586	-7.795891798	-67
62008	0	0.304162979	0.219277382	0.107596397	0.999999046	0.000576973	-0.000583649	-0.000161171	7.604074478	5.481934547	2.689909935	0.028848651	-0.029182437	-0.008058549	-0.130126953	-0.902099609	-0.394287109	884.04	63.40070202	-50.85279722	-7.904630111	-67
62009	0	0.30480957	0.215637207	0.108886719	0.999999046	0.00030899	-0.001284599	0.000278473	7.620239258	5.390930176	2.722167969	0.015449529	-0.064229985	0.013923649	-0.132324219	-0.902099609	-0.397216797	884.08	63.5782859	-50.93654091	-8.092075425	-67
62010	0	0.307171822	0.216755867	0.111807823	0.999998093	0.000157356	-0.001196861	0.000991821	7.67929554	5.418896675	2.79519558	0.007867816	-0.059843088	0.049591085	-0.132568359	-0.902099609	-0.394287109	884.04	63.68275807	-51.08935284	-8.207360623	-67
62011	0	0.306152344	0.220947266	0.119262695	0.999998093	-0.000121117	-0.000457764	0.001537323	7.653808594	5.523681641	2.981567383	-0.006055835	-0.022888193	0.076866183	-0.132324219	-0.904296875	-0.394042969	884.08	63.62558578	-51.26026876	-8.156477319	-67
62012	0	0.306839943	0.22717762	0.120136261	0.999999046	0.000618935	-6.29E-05	0.00108242	7.670998573	5.679440498	3.003406525	0.03094674	-0.003147126	0.054121032	-0.139404297	-0.904052734	-0.393798828	884.18	63.63020896	-51.36347816	-8.076931767	-67
62013	0	0.305969238	0.230041504	0.114318848	0.999999046	0.001243591	-0.000159264	-9.54E-05	7.649230957	5.751037598	2.857971191	0.062179582	-0.007963183	-0.004768373	-0.137207031	-0.901855469	-0.394042969	884.14	63.79387252	-51.34967933	-8.109598717	-67
62014	0	0.308708191	0.223842621	0.109512329	0.999999046	0.000326157	0.000139236	-0.00073719	7.717704773	5.596065521	2.737808228	0.016307833	0.006961823	-0.036859516	-0.137207031	-0.90625	-0.387939453	884.1	63.854866	-51.25472203	-8.144428441	-67
62015	0	0.307006836	0.216125488	0.107849121	0.999999046	-0.000808716	0.000294685	-0.000659943	7.675170898	5.403137207	2.696228027	-0.040435799	0.014734271	-0.032997138	-0.137207031	-0.904052734	-0.388183594	884.08	63.76096121	-51.16043646	-8.14773804	-68
62016	0	0.307268143	0.216417313	0.108135223	0.999999046	0.000203133	-0.000202179	-0.000145912	7.681703568	5.410432816	2.703380585	0.010156632	-0.010108948	-0.007295609	-0.134765625	-0.904052734	-0.388183594	884.08	63.81416747	-51.14474081	-8.191251172	-67
62017	0	0.305664063	0.219787598	0.114379883	0.999999046	0.000404358	-0.000430107	-0.000167847	7.641601563	5.494689941	2.85949707	0.020217897	-0.021505357	-0.008392335	-0.132324219	-0.904052734	-0.391113281	884.04	63.92015473	-51.13823912	-8.273633062	-67
62018	0	0.305075645	0.220468521	0.11143589	0.999999046	0.000301361	-0.000411987	0.000175476	7.626891136	5.511713028	2.785897255	0.015068055	-0.020599366	0.008773804	-0.134765625	-0.90625	-0.388183594	884.02	63.99033538	-51.16610117	-8.324918156	-67
62019	0	0.307373047	0.221313477	0.113342285	0.999999046	0.000564575	-0.000155449	0.000225067	7.684326172	5.532836914	2.833557129	0.028228762	-0.007772446	0.011253358	-0.134765625	-0.90625	-0.390869141	884.08	64.05432376	-51.18616465	-8.330134515	-67
62020	0	0.307139397	0.21654129	0.112329483	0.999999046	-0.000254631	4.58E-05	0.00063324	7.678484917	5.413532257	2.808237076	-0.012731553	0.002288819	0.03166199	-0.136962891	-0.90625	-0.393554688	884.04	63.97245864	-51.23851502	-8.269034207	-67
62021	0	0.305969238	0.216125488	0.109619141	0.999999046	0.000217438	-0.000163078	0.000965118	7.649230957	5.403137207	2.740478516	0.010871889	-0.008153917	0.048255928	-0.135009766	-0.901855469	-0.388427734	884.08	63.95027013	-51.33584037	-8.21497431	-67
62022	0	0.307653427	0.221073151	0.111863136	0.999997139	0.001676559	-0.000753403	0.000681877	7.691335678	5.526828766	2.796578407	0.083828026	-0.03767016	0.034093879	-0.137207031	-0.904052734	-0.390869141	884.2	64.18913069	-51.4335546	-8.281550765	-67
62023	0	0.308776855	0.229309082	0.108520508	0.999997139	0.002235413	-0.000353813	0.000240326	7.719421387	5.732727051	2.713012695	0.111770726	-0.017690674	0.012016307	-0.137207031	-0.90625	-0.382324219	884.04	64.4691107	-51.46513774	-8.317928996	-67
62024	0	0.308169365	0.227632523	0.108139038	0.999999046	-0.00052166	0.000371933	-0.0001688	7.704234123	5.690813065	2.703475952	-0.026082994	0.018596651	-0.008440018	-0.139648438	-0.906005859	-0.379150391	884.02	64.36489781	-51.41809168	-8.266661982	-67
62025	0	0.305908203	0.221496582	0.108764648	0.999999046	-0.000759125	0.00042057	-0.000514984	7.647705078	5.537414551	2.719116211	-0.037956244	0.021028522	-0.025749211	-0.137207031	-0.90625	-0.385009766	884.08	64.24888053	-51.33273693	-8.235528962	-67
62026	0	0.306812286	0.219389915	0.10813427	0.999999046	0.000450134	-0.000209808	-0.000476837	7.670307159	5.484747887	2.703356743	0.022506716	-0.010490418	-0.02384186	-0.137207031	-0.90625	-0.387939453	884.08	64.35039519	-51.28282365	-8.305733849	-67
62027	0	0.307373047	0.217956543	0.107971191	0.999999046	0.000492096	-0.000597954	-0.000164032	7.684326172	5.448913574	2.699279785	0.0246048	-0.029897693	-0.0082016	-0.137207031	-0.90625	-0.382324219	884.02	64.48714261	-51.28467905	-8.414623072	-67
62028	0	0.308834076	0.216942787	0.107448578	0.999999046	9.25E-05	-0.000749588	-0.000141144	7.720851898	5.423569679	2.686214447	0.004625321	-0.037479404	-0.007057191	-0.139404297	-0.908203125	-0.379150391	884.08	64.59609112	-51.29668606	-8.54654805	-67
62029	0	0.307800293	0.221923828	0.110290527	0.999998093	0.001347542	-0.00056839	-3.43E-05	7.695007324	5.548095703	2.757263184	0.067377114	-0.028419505	-0.001716614	-0.134765625	-0.908447266	-0.376464844	884.08	64.81867042	-51.3106271	-8.640099124	-67
62030	0	0.304738045	0.225481033	0.111778259	0.999999046	0.000238419	-2.48E-05	-5.82E-05	7.618451118	5.637025833	2.794456482	0.011920929	-0.001239777	-0.002908707	-0.137207031	-0.908203125	-0.376220703	884.08	64.84486251	-51.29502734	-8.645146217	-67
62031	0	0.30480957	0.221740723	0.109375	0.999999046	-0.000118256	0.0001688	-3.81E-06	7.620239258	5.543518066	2.734375	-0.005912781	0.008440018	-0.000190735	-0.137207031	-0.910400391	-0.376220703	884.08	64.80152098	-51.27551267	-8.613553728	-67
62032	0	0.307823181	0.222327232	0.108065605	0.999999046	0.000311852	0.000257492	3.05E-05	7.695579529	5.558180809	2.701640129	0.015592576	0.012874604	0.001525879	-0.134765625	-0.908447266	-0.379394531	884.08	64.79386946	-51.25528116	-8.56485313	-67
62033	0	0.307067871	0.219238281	0.108093262	0.999999046	-0.000324249	0.000458717	0.000118256	7.676696777	5.480957031	2.702331543	-0.016212464	0.022935869	0.005912781	-0.134765625	-0.908447266	-0.379394531	884.08	64.68181883	-51.23447761	-8.475700633	-67
62034	0	0.307570457	0.223550797	0.107970238	0.999999046	0.000402451	0.00028038	0.000160217	7.689261436	5.588769913	2.699255943	0.020122529	0.014019013	0.008010865	-0.137207031	-0.908447266	-0.382080078	884.02	64.67363669	-51.22669052	-8.413047568	-67
62035	0	0.305847168	0.22467041	0.108886719	0.999999046	0.000125885	0.000206947	7.63E-06	7.646179199	5.616760254	2.722167969	0.006294251	0.010347366	0.00038147	-0.134765625	-0.910644531	-0.379150391	884.1	64.65261428	-51.20651086	-8.374247525	-68
62036	0	0.306781769	0.223288536	0.109078407	0.999999046	4.67E-05	1.34E-05	-0.000354767	7.66954422	5.582213402	2.726960182	0.002336502	0.000667572	-0.017738343	-0.137207031	-0.908447266	-0.382080078	884.04	64.66953133	-51.15825332	-8.396047409	-67
62037	0	0.309326172	0.218994141	0.106872559	0.999999046	-3.43E-05	-0.000197411	-0.00038147	7.733154297	5.474853516	2.671813965	-0.001716614	-0.009870529	-0.019073487	-0.134765625	-0.908447266	-0.376464844	884.08	64.70579549	-51.11795987	-8.454317876	-68
62038	0	0.306941032	0.221539497	0.106338501	0.999999046	0.000253677	9.54E-05	-9.25E-05	7.67352581	5.538487434	2.658462524	0.012683869	0.004768372	-0.00462532	-0.134765625	-0.910644531	-0.376220703	884.04	64.72000268	-51.09342456	-8.44188393	-67
62039	0	0.303710938	0.221313477	0.107666016	0.999999046	-9.92E-05	6.58E-05	0.00018692	7.592773438	5.532836914	2.691650391	-0.004959106	0.003290176	0.009346008	-0.134765625	-0.908447266	-0.382080078	884.14	64.68060073	-51.09927496	-8.412899663	-68
62040	0	0.30347538	0.224229813	0.108664513	0.999999046	0.000517845	-0.000162125	0.000297546	7.586884499	5.605745316	2.716612816	0.025892259	-0.008106232	0.01487732	-0.134765625	-0.908447266	-0.382080078	884.1	64.73449739	-51.12754647	-8.412828191	-68
62041	0	0.308288574	0.224487305	0.106628418	0.999999046	2.29E-05	-1.81E-05	0.000225067	7.707214355	5.612182617	2.665710449	0.001144409	-0.000905991	0.011253357	-0.134765625	-0.908447266	-0.379394531	884.14	64.71781414	-51.14131958	-8.394627806	-68
62042	0	0.305827141	0.219226837	0.107460976	0.999999046	-0.000221252	0.00018692	0.000540733	7.64567852	5.480670929	2.686524391	-0.011062623	0.009346009	0.027036669	-0.137207031	-0.908203125	-0.379150391	884.1	64.6274163	-51.17791312	-8.31777271	-68
62043	0	0.306884766	0.220153809	0.109130859	0.999999046	0.000484467	-0.000254631	0.000415802	7.672119141	5.503845215	2.728271484	0.02422333	-0.012731553	0.020790102	-0.137207031	-0.908203125	-0.376220703	884.02	64.68209116	-51.22333024	-8.323394128	-68
62044	0	0.308349609	0.225585938	0.104003906	0.999999046	0.001164436	-0.000453949	-3.05E-05	7.708740234	5.639648438	2.600097656	0.058221832	-0.022697455	-0.001525879	-0.134765625	-0.908447266	-0.382080078	884.04	64.86826162	-51.2322037	-8.397842095	-68
62045	0	0.308166504	0.227722168	0.108215332	0.999999046	0.000232697	-0.000174522	-0.00031662	7.704162598	5.693054199	2.705383301	0.011634827	-0.00872612	-0.015830994	-0.134765625	-0.910644531	-0.376220703	884.16	64.9290214	-51.19748639	-8.447883056	-68
62046	0	0.304584503	0.222777367	0.10977459	0.999999046	-0.000623703	0.000131607	-0.000335693	7.614612579	5.569434166	2.744364738	-0.031185153	0.006580353	-0.016784669	-0.136962891	-0.910400391	-0.37890625	884.04	64.85297825	-51.14577331	-8.448607208	-68
62047	0	0.307617188	0.218383789	0.109436035	0.999999046	-4.58E-05	5.05E-05	-0.000217438	7.690429688	5.459594727	2.735900879	-0.002288818	0.002527237	-0.010871887	-0.137207031	-0.908203125	-0.379150391	884.02	64.84607485	-51.11052966	-8.453339933	-68
62048	0	0.308731079	0.220216751	0.110280037	0.999999046	0.00096035	0.000312805	-2.67E-05	7.718276978	5.505418777	2.757000923	0.04801751	0.015640261	-0.001335144	-0.134765625	-0.908447266	-0.376464844	884.08	64.90883553	-51.08250654	-8.399587194	-68
62049	0	0.3046875	0.221862793	0.106323242	0.999999046	0.000205994	0.00073719	0.000358582	7.6171875	5.546569824	2.658081055	0.010299684	0.036859517	0.017929079	-0.134765625	-0.908447266	-0.379394531	884.14	64.80751848	-51.07380562	-8.246127672	-68
62050	0	0.307863235	0.227240562	0.109307289	0.999999046	0.000469208	0.000799179	0.000350952	7.696580887	5.681014061	2.732682228	0.023460392	0.03995896	0.01754761	-0.134765625	-0.910644531	-0.376220703	884.02	64.72900413	-51.06097651	-8.082950606	-68
62051	0	0.305297852	0.222473145	0.104980469	0.999999046	0.000453949	0.000424385	-0.00019455	7.632446289	5.561828613	2.624511719	0.02269745	0.021219255	-0.009727479	-0.132568359	-0.910644531	-0.373535156	884.14	64.73021809	-51.00995501	-8.024317645	-68
62052	0	0.306649208	0.221892357	0.103146553	0.999999046	0.00067234	6.48E-05	-0.00012207	7.666230202	5.547308922	2.578663826	0.033617022	0.003242493	-0.006103516	-0.134765625	-0.910400391	-0.370605469	884.02	64.7985642	-50.98425033	-8.019623423	-68
62053	0	0.304992676	0.222106934	0.103759766	0.999999046	0.000392914	9.63E-05	0.000156403	7.624816895	5.55267334	2.593994141	0.019645692	0.004816055	0.00782013	-0.134765625	-0.910644531	-0.373535156	883.96	64.81441096	-50.98601278	-7.988593794	-68
62054	0	0.302906036	0.22679615	0.107422829	0.999999046	0.000116348	-0.000221252	0.000144958	7.572650909	5.669903755	2.685570717	0.005817413	-0.011062622	0.007247925	-0.134765625	-0.910400391	-0.370605469	884.14	64.84008365	-51.00181324	-8.010756901	-68
62055	0	0.307922363	0.225646973	0.10723877	0.999999046	3.81E-05	-0.00033474	-8.77E-05	7.698059082	5.641174316	2.680969238	0.001907349	-0.016736985	-0.004386902	-0.132324219	-0.912841797	-0.370605469	883.96	64.88545735	-50.99899776	-8.069740077	-68
62056	0	0.307162285	0.223572731	0.108967781	0.999999046	4.10E-05	-0.000226974	-0.000374794	7.679057121	5.589318275	2.724194527	0.0020504	-0.011348725	-0.018739701	-0.134765625	-0.910400391	-0.370605469	884.04	64.93437669	-50.96116101	-8.133040258	-67
62057	0	0.305908203	0.222351074	0.108093262	0.999999046	-0.000232697	6.20E-05	-8.39E-05	7.647705078	5.558776855	2.702331543	-0.011634827	0.003099442	-0.004196167	-0.132324219	-0.912841797	-0.376220703	884.1	64.89734292	-50.93954367	-8.126289639	-67
62058	0	0.30457592	0.219665527	0.107744217	0.999999046	-0.000104904	-4.01E-05	0.000178337	7.614398003	5.491638184	2.693605423	-0.005245209	-0.002002716	0.008916855	-0.132568359	-0.910644531	-0.373535156	884.02	64.87209252	-50.95025254	-8.115801037	-67
62059	0	0.308837891	0.220275879	0.109313965	0.999999046	0.000923157	-8.68E-05	0.000400543	7.720947266	5.506896973	2.732849121	0.046157845	-0.004339219	0.020027164	-0.130126953	-0.910644531	-0.376464844	884.2	64.95701547	-50.9865437	-8.095824673	-67
62060	0	0.304092407	0.225050926	0.106647491	0.999999046	0.00017643	0.000202179	0.000617027	7.602310181	5.626273155	2.666187286	0.008821488	0.010108949	0.030851366	-0.134765625	-0.912841797	-0.373291016	884	64.90644499	-51.03115615	-8.011320025	-67
62061	0	0.305786133	0.220703125	0.104003906	0.999999046	0.00056839	-7.92E-05	0.000534058	7.64465332	5.517578125	2.600097656	0.028419498	-0.003957749	0.026702884	-0.132568359	-0.910644531	-0.370605469	884.1	64.94197865	-51.08098788	-7.97975317	-67
62062	0	0.306903839	0.230324745	0.107903481	0.999999046	0.000570297	-0.000234604	0.00043869	7.672595978	5.758118629	2.697587013	0.028514865	-0.011730195	0.021934511	-0.134765625	-0.910400391	-0.370605469	884.02	65.00369687	-51.12816069	-7.981526791	-67
62063	0	0.305725098	0.223571777	0.106018066	0.999999046	9.16E-05	-0.000185966	0.000209808	7.643127441	5.589294434	2.65045166	0.004577637	-0.009298325	0.010490418	-0.137207031	-0.912597656	-0.370361328	883.98	65.01814708	-51.14917716	-7.992960664	-67
62064	0	0.307629585	0.225476265	0.106594086	0.999999046	8.68E-05	-9.73E-05	-5.05E-05	7.690739632	5.636906624	2.664852142	0.004339218	-0.004863739	-0.002527237	-0.134765625	-0.912597656	-0.370361328	884.08	65.03634653	-51.13880041	-8.009889838	-67
62065	0	0.305053711	0.221923828	0.106323242	0.999999046	-0.000247955	-0.000136375	-0.000102997	7.626342773	5.548095703	2.658081055	-0.012397766	-0.006818771	-0.005149841	-0.132324219	-0.912841797	-0.373291016	884.08	65.02432366	-51.1248776	-8.037382466	-67
62066	0	0.305646896	0.221933365	0.107020378	0.999999046	0.000392914	-0.000205994	2.19E-05	7.641172409	5.548334122	2.675509453	0.019645692	-0.010299683	0.001096725	-0.135009766	-0.910400391	-0.367675781	884.14	65.08711178	-51.12731739	-8.066509272	-67
62067	0	0.307067871	0.221496582	0.10925293	0.999999046	5.72E-05	-6.77E-05	8.39E-05	7.676696777	5.537414551	2.731323242	0.002861023	-0.003385544	0.004196167	-0.137207031	-0.912597656	-0.370361328	884.14	65.08956402	-51.1295638	-8.067838353	-67
62068	0	0.305653572	0.22041893	0.105156898	0.999999046	-0.000212669	5.72E-05	0.000480652	7.641339302	5.510473251	2.628922462	-0.010633469	0.002861023	0.024032594	-0.134765625	-0.912597656	-0.370361328	884.14	65.02116136	-51.16711342	-8.017872045	-67
62069	0	0.305664063	0.221252441	0.105407715	0.999999046	0.000427246	-2.96E-05	0.000591278	7.641601563	5.531311035	2.635192871	0.021362307	-0.001478195	0.029563906	-0.134765625	-0.910400391	-0.370605469	884.1	65.03058487	-51.22039526	-7.973767936	-67
62070	0	0.305567741	0.223543167	0.104159355	0.999999046	0.000173569	-0.00018692	0.000488281	7.639193535	5.588579178	2.603983879	0.008678437	-0.009346009	0.024414064	-0.139648438	-0.912597656	-0.3671875	884.08	65.03767708	-51.27055177	-7.963679247	-67
62071	0	0.309692383	0.226196289	0.10559082	0.999999046	0.000286102	-0.000189781	4.58E-05	7.74230957	5.654907227	2.639770508	0.014305115	-0.00948906	0.002288818	-0.137207031	-0.912597656	-0.370361328	884.08	65.08491147	-51.27482531	-7.988628078	-67
62072	0	0.309447289	0.222687721	0.105283737	0.999999046	-0.00011158	-9.54E-06	-0.00031662	7.736182213	5.567193031	2.63209343	-0.005578995	-0.000476837	-0.015830994	-0.136962891	-0.912597656	-0.373046875	884.14	65.08507496	-51.23282664	-8.011672015	-67
62073	0	0.305786133	0.221313477	0.104187012	0.999999046	-0.00019455	0.000237465	-0.00025177	7.64465332	5.532836914	2.604675293	-0.009727478	0.011873246	-0.012588501	-0.136962891	-0.912597656	-0.373046875	884.04	65.03998172	-51.18569451	-7.988733356	-67
62074	0	0.305744171	0.22545433	0.104968071	0.999999046	-1.91E-06	9.16E-05	-8.39E-05	7.643604279	5.636358261	2.624201775	-9.54E-05	0.004577637	-0.004196167	-0.137207031	-0.912597656	-0.367431641	884.04	65.02596156	-51.1629365	-7.977011085	-66
62075	0	0.306640625	0.221679688	0.108276367	0.999999046	0.000354767	-6.68E-06	-0.000213623	7.666015625	5.541992188	2.70690918	0.017738343	-0.000333786	-0.010681153	-0.134765625	-0.912597656	-0.370361328	884.08	65.07304221	-51.13147501	-7.991619488	-67
62076	0	0.305142403	0.223414421	0.110797882	0.999999046	-0.000653267	1.91E-06	-0.000228882	7.628560066	5.585360527	2.769947052	-0.032663348	9.54E-05	-0.011444093	-0.137207031	-0.910400391	-0.370361328	884.04	65.00403859	-51.09788027	-8.005643947	-67
62077	0	0.30670166	0.218994141	0.108520508	0.999999046	0.000537872	0.000138283	6.10E-05	7.667541504	5.474853516	2.713012695	0.026893617	0.006914139	0.003051758	-0.134765625	-0.914794922	-0.370117188	884.16	65.0362842	-51.08796037	-7.974507044	-67
62078	0	0.30737114	0.21961689	0.103363037	0.999999046	0.000276566	0.000228882	0.000372887	7.684278488	5.490422249	2.584075928	0.013828278	0.011444092	0.018644334	-0.134521484	-0.915039063	-0.373046875	884.08	65.00834885	-51.10629603	-7.904589212	-67
62079	0	0.306213379	0.224182129	0.101806641	0.999999046	0.000362396	5.44E-05	0.000663757	7.655334473	5.604553223	2.545166016	0.018119814	0.002717972	0.033187869	-0.134521484	-0.915039063	-0.373046875	884.1	64.99561289	-51.16331254	-7.841338808	-67
62080	0	0.306806564	0.22604847	0.1061306	0.999999046	0.000693321	-0.000284195	0.00043869	7.670164108	5.651211739	2.653264999	0.034666066	-0.014209749	0.021934512	-0.134765625	-0.914794922	-0.367431641	884.14	65.07814602	-51.21322538	-7.851474867	-67
62081	0	0.310180664	0.227783203	0.109313965	0.999999046	0.000717163	-0.000109673	-0.000480652	7.754516602	5.694580078	2.732849121	0.035858159	-0.005483628	-0.024032596	-0.137207031	-0.914794922	-0.364257813	884.14	65.19593654	-51.15899069	-7.903405745	-67
62082	0	0.308643341	0.226951599	0.107394218	0.999999046	9.54E-06	0.000535965	-0.000878334	7.716083527	5.673789978	2.684855461	0.000476837	0.026798253	-0.04391671	-0.134765625	-0.914794922	-0.367431641	884.16	65.17293303	-51.03221309	-7.87886543	-67
62083	0	0.302856445	0.215393066	0.105102539	0.999999046	-0.000232697	0.000710487	-0.000141144	7.571411133	5.38482666	2.627563477	-0.011634828	0.035524372	-0.007057191	-0.134765625	-0.914794922	-0.367431641	884.08	65.05587341	-50.97387667	-7.769053942	-67
62084	0	0.301672935	0.21744442	0.102702141	0.999999046	-0.000325203	0.00022316	0.000754356	7.541823387	5.436110497	2.56755352	-0.016260149	0.011157991	0.037717824	-0.132324219	-0.915039063	-0.364501953	884.1	64.93737359	-51.03218064	-7.670853355	-67
62085	0	0.30480957	0.223937988	0.105407715	0.999998093	0.001202583	-0.000236511	0.001022339	7.620239258	5.598449707	2.635192871	0.060129191	-0.011825567	0.051116965	-0.134765625	-0.914794922	-0.364501953	884.02	65.03689242	-51.14052979	-7.628056281	-67
62086	0	0.308806419	0.229172707	0.104160309	0.999999046	0.000526428	-0.000144958	0.000858307	7.720160484	5.729317665	2.604007721	0.026321416	-0.007247926	0.042915352	-0.137207031	-0.914794922	-0.3671875	884.1	65.05737773	-51.22731077	-7.583234113	-67
62087	0	0.30871582	0.227172852	0.104980469	0.999999046	-0.000232697	-7.15E-05	0.000247955	7.717895508	5.679321289	2.624511719	-0.011634827	-0.003576279	0.012397766	-0.137207031	-0.914794922	-0.361572266	884.04	65.01827861	-51.24703615	-7.573165401	-67
62088	0	0.307621002	0.224407196	0.106443405	0.999999046	9.82E-05	-0.000213623	-0.000348091	7.690525055	5.610179901	2.661085129	0.004911423	-0.010681153	-0.017404557	-0.139648438	-0.912597656	-0.361572266	884.08	65.07138466	-51.21165528	-7.632842922	-67
62089	0	0.305175781	0.21862793	0.106201172	0.999999046	7.63E-06	-0.000212669	-0.000267029	7.629394531	5.465698242	2.655029297	0.00038147	-0.010633469	-0.013351441	-0.137207031	-0.914794922	-0.361572266	884.08	65.1088394	-51.18473022	-7.685873863	-67
62090	0	0.307849884	0.22105217	0.107408524	0.999999046	0.00019455	-3.81E-05	2.96E-05	7.696247101	5.526304245	2.685213089	0.009727478	-0.001907349	0.001478195	-0.137207031	-0.914794922	-0.364257813	884.02	65.12714146	-51.18029485	-7.687084558	-67
62091	0	0.30645752	0.224304199	0.106445313	0.999999046	0.000926971	0.000138283	5.34E-05	7.661437988	5.60760498	2.661132813	0.046348579	0.00691414	0.002670288	-0.136962891	-0.916992188	-0.366943359	884.08	65.20512793	-51.16977653	-7.657261473	-67
62092	0	0.30797863	0.227212906	0.105071068	0.999999046	-0.000102043	0.000329971	-0.00023365	7.699465752	5.680322647	2.626776695	-0.005102158	0.016498566	-0.011682511	-0.137207031	-0.914794922	-0.361572266	884.08	65.15777885	-51.12008833	-7.617542175	-67
62093	0	0.30657959	0.221557617	0.102844238	0.999999046	0.000236511	0.000260353	-0.000305176	7.664489746	5.53894043	2.571105957	0.011825562	0.013017655	-0.01525879	-0.137207031	-0.914794922	-0.364257813	884.1	65.1626902	-51.06643492	-7.595192984	-67
62094	0	0.304558754	0.221975327	0.103629112	0.999999046	-0.000253677	0.000219345	0.000102043	7.613968849	5.549383163	2.590727806	-0.012683869	0.010967255	0.005102158	-0.134765625	-0.912597656	-0.367431641	884.14	65.09256928	-51.05713461	-7.548625503	-67
62095	0	0.305603027	0.219482422	0.106933594	0.999999046	7.63E-05	0.000134468	0.000659943	7.640075684	5.487060547	2.673339844	0.003814698	0.006723404	0.032997134	-0.135009766	-0.912597656	-0.361816406	884.08	65.03755952	-51.10999637	-7.472720227	-67
62096	0	0.3064785	0.222817421	0.107164383	0.999999046	0.000191689	0.000284195	0.00075531	7.661962509	5.570435524	2.679109573	0.009584428	0.014209749	0.037765507	-0.134765625	-0.914794922	-0.364501953	884.02	64.97046274	-51.16545833	-7.364564947	-67
62097	0	0.305969238	0.224304199	0.108154297	0.999999046	-0.000831604	0.000557899	0.000679016	7.649230957	5.60760498	2.703857422	-0.04158021	0.027894981	0.033950814	-0.137207031	-0.914794922	-0.364257813	884.14	64.75503138	-51.1994028	-7.216547333	-67
62098	0	0.307557106	0.223525047	0.107159615	0.999999046	0.000375748	0.000173569	0.000320435	7.68892765	5.588126183	2.678990364	0.018787385	0.008678437	0.016021729	-0.137207031	-0.912597656	-0.367431641	884.02	64.74916612	-51.21476611	-7.160146475	-67
62099	0	0.306762695	0.224853516	0.105102539	0.999999046	0.000259399	0.000340462	8.39E-05	7.669067383	5.621337891	2.627563477	0.012969971	0.017023087	0.004196167	-0.137207031	-0.912597656	-0.361572266	884.1	64.72308083	-51.19737989	-7.094507043	-67
62100	0	0.306301117	0.220643997	0.104645729	0.999999046	-0.00049305	0.000205994	0.000239372	7.657527924	5.51609993	2.616143227	-0.024652482	0.010299683	0.011968613	-0.137207031	-0.914794922	-0.364257813	884.16	64.6187777	-51.20273187	-7.039171755	-67
62101	0	0.305847168	0.219970703	0.10369873	0.999999046	-5.34E-05	-0.00014782	0.000400543	7.646179199	5.499267578	2.592468262	-0.002670288	-0.007390976	0.020027161	-0.137207031	-0.914794922	-0.3671875	883.96	64.60075502	-51.24223156	-7.02992009	-67
62102	0	0.305689812	0.222277641	0.104729652	0.999999046	-7.82E-05	-0.000326157	0.000624657	7.642245293	5.556941032	2.61824131	-0.003910065	-0.016307832	0.031232836	-0.137207031	-0.914794922	-0.364257813	883.98	64.58935791	-51.31368383	-7.032539028	-67
62103	0	0.30859375	0.221008301	0.10546875	0.999999046	-0.000148773	-0.00045681	0.000682831	7.71484375	5.52520752	2.63671875	-0.007438661	-0.022840503	0.034141544	-0.139404297	-0.914794922	-0.3671875	884.14	64.58330875	-51.39767543	-7.052434267	-67
