Counter	Temperature	VelInc_X	VelInc_Y	VelInc_Z	OriInc_w	OriInc_x	OriInc_y	OriInc_z	Acc_X	Acc_Y	Acc_Z	Gyr_X	Gyr_Y	Gyr_Z	Mag_X	Mag_Y	Mag_Z	Pressure	Roll	Pitch	Yaw	RSSI
25957	0	0.3671875	-0.075622559	0.126525879	0.999978065	-0.000682831	-0.001791954	-0.00630188	9.1796875	-1.890563965	3.163146973	-0.034141787	-0.08959835	-0.315096273	-0.827392578	0.333251953	0.704833984	884	-17.98949245	-70.97326218	-153.2195797	-63
25958	0	0.376347542	-0.082455635	0.111330032	0.999959946	0.003891945	0.000136375	-0.007995605	9.408688545	-2.061390877	2.783250809	0.19459981	0.006818861	-0.399785544	-0.826904297	0.324462891	0.702636719	883.96	-14.92971274	-71.21964501	-155.9832172	-64
25959	0	0.36505127	-0.063232422	0.113525391	0.999972343	0.00226593	3.91E-05	-0.006965637	9.126281738	-1.580810547	2.838134766	0.113297522	0.00195505	-0.348284975	-0.8359375	0.316162109	0.703857422	883.96	-12.3435237	-71.4044185	-158.4407103	-63
25960	0	0.386723518	-0.041836739	0.112658501	0.999988556	-0.004114151	0.000695229	-0.00211525	9.668087959	-1.045918465	2.816462517	-0.2057083	0.034761556	-0.105762867	-0.837890625	0.307617188	0.707519531	884	-12.03403438	-71.37874594	-159.2663961	-63
25961	0	0.364868164	-0.054443359	0.125854492	0.999982834	-0.005309105	-2.67E-05	0.002300262	9.121704102	-1.361083984	3.146362305	-0.265456727	-0.001335151	0.115013764	-0.83984375	0.298828125	0.708251953	883.96	-13.3833715	-71.32413081	-158.4869619	-63
25962	0	0.382751465	-0.047363281	0.128479004	0.999988556	-0.000220299	-3.72E-05	0.004692078	9.568786621	-1.184082031	3.211975098	-0.011014979	-0.001859672	0.234604745	-0.837646484	0.301025391	0.705322266	884.02	-14.92823209	-71.19690616	-156.8853888	-63
25963	0	0.360534668	-0.039245605	0.122924805	0.999986649	0.000699043	0.000244141	0.004997253	9.013366699	-0.981140137	3.073120117	0.034952312	0.012207083	0.249863734	-0.833251953	0.309570313	0.70703125	884.02	-16.41790708	-71.01518739	-155.2292581	-63
25964	0	0.379882813	-0.028869629	0.1328125	0.999985695	0.002388954	-3.81E-05	0.004756927	9.497070313	-0.721740723	3.3203125	0.119448272	-0.001907358	0.237847498	-0.829101563	0.322509766	0.702880859	883.9	-17.63575712	-70.85950809	-153.653609	-63
25965	0	0.387268066	0.004821777	0.132141113	0.999978065	0.006374359	0.000531197	0.001468658	9.68170166	0.120544434	3.303527832	0.318720245	0.02656002	0.07343345	-0.824951172	0.335205078	0.696044922	884	-17.28680189	-70.75115606	-153.2512052	-63
25966	0	0.375476837	-0.000448227	0.12345314	0.999985695	0.005264282	-0.000123978	-0.000260353	9.386920929	-0.011205673	3.086328506	0.263215331	-0.006198912	-0.013017715	-0.825195313	0.348388672	0.686523438	883.92	-16.58116208	-70.77409365	-153.3598883	-63
25967	0	0.363891602	-0.021850586	0.11706543	0.999991417	0.003829956	-0.000964165	-0.000209808	9.097290039	-0.546264648	2.926635742	0.191498302	-0.048208362	-0.010490445	-0.825439453	0.352783203	0.683349609	883.92	-16.13125098	-70.88772995	-153.371987	-63
25968	0	0.368105888	-0.045510292	0.117988586	0.99998951	0.00423336	-0.001390457	-0.00065136	9.202647209	-1.137757301	2.949714661	0.21166873	-0.069523093	-0.032568088	-0.823486328	0.361328125	0.682373047	884	-15.53158681	-71.06210083	-153.4934682	-62
25969	0	0.377258301	-0.044555664	0.119018555	0.999987602	0.004688263	-7.92E-05	-0.001174927	9.43145752	-1.113891602	2.975463867	0.23441406	-0.003957764	-0.058746567	-0.823730469	0.365722656	0.682128906	883.96	-14.59133583	-71.10644681	-153.9203678	-63
25970	0	0.382858276	-0.035744667	0.127907753	0.999992371	0.003787041	0.000519753	-0.000552177	9.571456909	-0.893616676	3.197693825	0.189352506	0.02598769	-0.02760894	-0.823730469	0.367919922	0.681884766	884.02	-13.90577545	-71.06454908	-154.1878129	-63
25971	0	0.377075195	-0.016113281	0.12878418	0.999995232	0.002300262	0.001805305	0.000869751	9.426879883	-0.402832031	3.219604492	0.115013301	0.090265414	0.043487616	-0.823730469	0.374267578	0.672851563	884.02	-13.74756842	-70.83994532	-154.0770895	-62
25972	0	0.369595528	-0.022489548	0.134432793	0.999992371	0.003013611	0.001076698	0.001791954	9.239888191	-0.562238693	3.360819817	0.15068088	0.053835036	0.089597903	-0.826416016	0.380859375	0.672363281	884.02	-13.8565207	-70.6707679	-153.597004	-63
25973	0	0.370544434	-0.02911377	0.12512207	0.999976158	0.006649017	0.001130104	0.001377106	9.26361084	-0.727844238	3.128051758	0.332453492	0.056505649	0.068855829	-0.826660156	0.389648438	0.668945313	884	-13.41102438	-70.50731739	-153.2631438	-62
25974	0	0.365345001	-0.035252571	0.124222755	0.999976158	0.006664276	0.001050949	0.000659943	9.133625031	-0.881314278	3.105568886	0.333216358	0.052547857	0.032997384	-0.829345703	0.400634766	0.659667969	883.96	-12.74734474	-70.3723373	-153.1583891	-62
25975	0	0.370422363	-0.031860352	0.119812012	0.99998951	0.004203796	0.001511574	0.000923157	9.260559082	-0.796508789	2.995300293	0.210190548	0.075578952	0.046157997	-0.829589844	0.409179688	0.650390625	884	-12.41907656	-70.17990077	-152.9963075	-63
25976	0	0.367717743	-0.03698349	0.125569344	0.999994278	0.002477646	0.001160622	0.001852036	9.192943573	-0.92458725	3.139233589	0.123882519	0.058031188	0.092601945	-0.829833984	0.41796875	0.646972656	883.9	-12.60040773	-70.00373789	-152.5023044	-63
25977	0	0.377075195	-0.030395508	0.127258301	0.999987602	0.003829956	0.000832558	0.003067017	9.426879883	-0.759887695	3.18145752	0.191498593	0.041628056	0.153351463	-0.827636719	0.426513672	0.637451172	884	-13.01460865	-69.83270524	-151.5949833	-63
25978	0	0.373553276	-0.021796227	0.131520271	0.999991417	-1.14E-05	0.001310349	0.00369072	9.338831902	-0.544905663	3.288006783	-0.000572206	0.065517593	0.184536452	-0.830566406	0.4375	0.63671875	884.02	-14.00615288	-69.58802406	-150.5396461	-63
25979	0	0.379150391	-0.030395508	0.127868652	0.999987602	-0.002223969	0.00193882	0.003913879	9.478759766	-0.759887695	3.196716309	-0.111198871	0.096941382	0.195694753	-0.823730469	0.441650391	0.633300781	883.98	-15.24085886	-69.26048534	-149.4932256	-63
25980	0	0.369747162	-0.018707275	0.124649048	0.999984741	-0.003606796	0.00155735	0.003795624	9.243679047	-0.467681885	3.116226196	-0.18034071	0.077867895	0.189782133	-0.823730469	0.446044922	0.635742188	883.9	-16.59390978	-68.97106761	-148.4873614	-63
25981	0	0.376037598	-0.025878906	0.124389648	0.999987602	-0.004055023	0.001008034	0.002449036	9.400939941	-0.646972656	3.109741211	-0.202751952	0.050401885	0.122452261	-0.823730469	0.446044922	0.630126953	883.86	-17.63563306	-68.78050321	-147.8681736	-63
25982	0	0.363573074	-0.027275085	0.125705719	0.999992371	-0.003642082	0.000422478	0.000538826	9.089326859	-0.681877136	3.142642975	-0.182104528	0.021123934	0.026941361	-0.823730469	0.443847656	0.635986328	884.08	-18.13538052	-68.71848427	-147.7792863	-63
25983	0	0.366333008	-0.042602539	0.129150391	0.999999046	-0.000865936	-0.000369072	0.00025177	9.158325195	-1.065063477	3.228759766	-0.043296821	-0.018453601	0.012588503	-0.823730469	0.443847656	0.635986328	883.9	-18.30883631	-68.75284733	-147.6992824	-63
25984	0	0.365722656	-0.045715332	0.134216309	0.999999046	-0.000609398	-0.000534058	-0.000610352	9.143066406	-1.142883301	3.355407715	-0.0304699	-0.026702885	-0.030517583	-0.821289063	0.439453125	0.641845703	883.92	-18.22707563	-68.83594244	-147.8626317	-63
25985	0	0.368461609	-0.05194664	0.135914803	0.999998093	-0.000851631	-0.000801086	-0.000279427	9.211540222	-1.298666	3.397870064	-0.042581568	-0.040054331	-0.013971332	-0.821289063	0.441650391	0.638916016	883.98	-18.29157936	-68.93589545	-147.8978713	-63
25986	0	0.372908592	-0.05198288	0.136426926	0.999998093	-0.001662254	-3.91E-05	0.000177383	9.322714806	-1.299571991	3.410673141	-0.083112755	-0.001955033	0.008869175	-0.821289063	0.435058594	0.645019531	883.92	-18.50802955	-68.93622471	-147.8716884	-63
25987	0	0.36328125	-0.05078125	0.134460449	0.999998093	-0.0010252	0.000270844	0.000957489	9.08203125	-1.26953125	3.36151123	-0.051260012	0.01354218	0.047874467	-0.825927734	0.433105469	0.648193359	883.98	-18.84241323	-68.87389427	-147.6418299	-63
25988	0	0.374602318	-0.042255402	0.135309219	0.999999046	-8.49E-05	-0.000181198	0.000742912	9.365057945	-1.05638504	3.382730484	-0.004243851	-0.009059907	0.037145618	-0.821289063	0.435058594	0.642089844	883.98	-19.05086066	-68.86813741	-147.4301838	-63
25989	0	0.368408203	-0.044128418	0.131774902	0.999999046	-0.000659943	0.00048542	0.000366211	9.210205078	-1.103210449	3.294372559	-0.032997136	0.024271015	0.018310549	-0.821289063	0.435058594	0.650634766	883.92	-19.15485526	-68.80412664	-147.4016851	-63
25990	0	0.370872498	-0.045853615	0.130059242	0.999999046	-0.000394821	0.000200272	0.00070858	9.271812439	-1.14634037	3.251481056	-0.019741061	0.010013581	0.035429005	-0.823730469	0.435302734	0.650878906	883.94	-19.35135344	-68.75812547	-147.2414897	-63
25991	0	0.369628906	-0.044311523	0.132324219	0.999999046	-0.000404358	-1.43E-05	0.000637054	9.240722656	-1.107788086	3.308105469	-0.020217897	-0.000715256	0.031852725	-0.821289063	0.435058594	0.650634766	884.02	-19.54932663	-68.73787792	-147.0806717	-63
25992	0	0.366826057	-0.046901703	0.133800507	0.999999046	-0.000351906	-0.000392914	0.000212669	9.170651436	-1.172542572	3.345012665	-0.017595292	-0.019645692	0.010633469	-0.821044922	0.432861328	0.645263672	883.92	-19.66088656	-68.7745467	-147.0060498	-63
25993	0	0.368164063	-0.047973633	0.134460449	0.999999046	2.67E-05	-0.000452995	-0.000473022	9.204101563	-1.19934082	3.36151123	0.001335144	-0.022649767	-0.023651125	-0.818847656	0.432861328	0.653564453	883.98	-19.5444243	-68.84391925	-147.1296473	-63
25994	0	0.36277771	-0.049575806	0.134500504	0.999998093	-0.000102043	-0.000412941	-7.15E-05	9.069442749	-1.239395142	3.362512589	-0.005102158	-0.02064705	-0.003576279	-0.818847656	0.432861328	0.647949219	883.96	-19.55078513	-68.89323853	-147.1367185	-63
25995	0	0.366333008	-0.051879883	0.135437012	0.999999046	-7.25E-05	-0.00058651	0.000202179	9.158325195	-1.29699707	3.385925293	-0.003623963	-0.029325487	0.010108948	-0.818847656	0.432861328	0.650634766	883.96	-19.64847352	-68.95046322	-147.0426113	-63
25996	0	0.367325783	-0.050461769	0.135363579	0.999999046	0.000145912	-0.000314713	0.000182152	9.183144569	-1.261544228	3.38408947	0.007295609	-0.015735627	0.00910759	-0.818847656	0.430664063	0.653808594	883.96	-19.68905011	-68.97881064	-146.9838149	-63
25997	0	0.370483398	-0.048583984	0.134216309	0.999999046	-0.0001297	-4.86E-05	0.000244141	9.262084961	-1.214599609	3.355407715	-0.006484985	-0.00243187	0.012207031	-0.818847656	0.430664063	0.656738281	883.92	-19.7521342	-68.97589529	-146.9348043	-63
25998	0	0.362294197	-0.04665947	0.132214546	0.999999046	-0.000720978	8.39E-05	0.000270844	9.057354927	-1.16648674	3.305363655	-0.036048893	0.004196167	0.013542177	-0.81640625	0.430664063	0.653564453	884	-19.87702157	-68.95745176	-146.8913716	-63
25999	0	0.364501953	-0.046691895	0.135253906	0.999999046	-0.000602722	-2.57E-05	-2.67E-05	9.112548828	-1.167297363	3.381347656	-0.03013611	-0.00128746	-0.001335144	-0.818847656	0.430664063	0.653808594	883.86	-19.91584787	-68.96215107	-146.9254651	-63
26000	0	0.367136002	-0.051046371	0.134501457	0.999999046	-0.000512123	5.34E-05	-0.000175476	9.17840004	-1.276159286	3.36253643	-0.025606157	0.002670288	-0.008773804	-0.818847656	0.430664063	0.653808594	883.92	-19.89499084	-68.96388872	-147.0121177	-63
26001	0	0.366821289	-0.052368164	0.133117676	0.999999046	-0.000671387	-9.82E-05	0.000160217	9.170532227	-1.309204102	3.327941895	-0.033569339	-0.004911423	0.008010865	-0.81640625	0.428466797	0.650878906	883.98	-20.00247319	-68.96866019	-146.9809154	-63
26002	0	0.365976334	-0.053949356	0.135108948	0.999999046	0.000135422	-0.000284195	0.000441551	9.14940834	-1.348733902	3.377723694	0.006771088	-0.014209748	0.022077562	-0.818847656	0.430664063	0.650878906	883.96	-20.1160619	-68.98204609	-146.844078	-63
26003	0	0.364868164	-0.049255371	0.134887695	0.999999046	0.000682831	-0.000323296	0.00044632	9.121704102	-1.231384277	3.372192383	0.034141545	-0.016164782	0.022315982	-0.816650391	0.432861328	0.653564453	883.96	-20.1724863	-68.99912477	-146.7013408	-63
26004	0	0.366984367	-0.052997589	0.137102127	0.999998093	0.001493454	-0.000329018	0.000388145	9.174609184	-1.324939728	3.427553177	0.07467273	-0.016450889	0.01940728	-0.816650391	0.432861328	0.650634766	883.96	-20.12086242	-69.01874034	-146.5755469	-63
26005	0	0.368530273	-0.050964355	0.133178711	0.999996185	0.002522469	-0.000404358	0.000507355	9.213256836	-1.274108887	3.329467773	0.126123571	-0.020217918	0.025367765	-0.816650391	0.437255859	0.650390625	883.96	-19.99295527	-69.04171888	-146.4052549	-63
26006	0	0.37139225	-0.047945976	0.12866497	0.999995232	0.002735138	-0.000133514	0.00077343	9.284806252	-1.198649406	3.21662426	0.136757082	-0.006675729	0.038671546	-0.8125	0.443603516	0.655273438	883.96	-19.88799744	-69.02541274	-146.1842063	-63
26007	0	0.366088867	-0.041320801	0.125976563	0.999998093	0.001179695	0.000198364	0.001003265	9.15222168	-1.03302002	3.149414063	0.05898478	0.009918217	0.050163289	-0.814941406	0.447998047	0.649414063	883.92	-19.99107707	-68.96467196	-145.9304773	-63
26008	0	0.369736671	-0.042433739	0.127931595	0.999999046	0.001162529	-0.000150681	0.000732422	9.243416786	-1.060843468	3.198289871	0.058126468	-0.007534029	0.036621105	-0.814941406	0.452392578	0.645996094	883.9	-20.05477265	-68.9522772	-145.7202587	-63
26009	0	0.372924805	-0.039978027	0.130249023	0.999999046	0.000110626	-0.000311852	-0.000179291	9.323120117	-0.999450684	3.256225586	0.005531311	-0.015592575	-0.008964539	-0.812744141	0.454345703	0.643066406	883.98	-19.99932787	-68.99326996	-145.7657213	-63
26010	0	0.367736816	-0.047180176	0.128112793	0.999999046	-0.000507355	1.14E-05	-0.000431061	9.19342041	-1.179504395	3.202819824	-0.025367739	0.000572205	-0.021553041	-0.810546875	0.454345703	0.651367188	884.02	-19.91106435	-69.00938778	-145.9226841	-63
26011	0	0.366394043	-0.047973633	0.131896973	0.999999046	-0.000492096	8.87E-05	0.000347137	9.159851074	-1.19934082	3.297424316	-0.024604799	0.004434586	0.017356874	-0.812744141	0.454345703	0.645751953	884.02	-20.03162989	-68.9866517	-145.8538929	-63
26012	0	0.375554085	-0.04793644	0.13093853	0.999999046	-0.000384331	8.01E-05	0.000156403	9.388852119	-1.198410988	3.273463249	-0.019216538	0.004005432	0.00782013	-0.812744141	0.454345703	0.645751953	884	-20.0872466	-68.97242782	-145.8416167	-63
26013	0	0.370361328	-0.04876709	0.129699707	0.999999046	-0.000354767	0.000229836	-0.0001297	9.259033203	-1.219177246	3.242492676	-0.017738343	0.011491776	-0.006484986	-0.812744141	0.452148438	0.648925781	884.02	-20.04433807	-68.95341316	-145.9323538	-63
26014	0	0.367078781	-0.047177315	0.129590034	0.999999046	0.000350952	-3.81E-06	-3.81E-05	9.176969528	-1.179432869	3.239750862	0.017547608	-0.000190735	-0.001907349	-0.814941406	0.452392578	0.648925781	883.92	-19.970133	-68.95598721	-145.9703069	-63
26015	0	0.36932373	-0.043029785	0.12902832	0.999999046	0.000617981	-0.000132561	7.63E-06	9.233093262	-1.075744629	3.225708008	0.03089905	-0.006628037	0.00038147	-0.812744141	0.454345703	0.648681641	884.06	-19.8907691	-68.97080909	-145.9803854	-63
26016	0	0.372346878	-0.040071487	0.126719475	0.999999046	0.000323296	-0.000318527	-0.000343323	9.308671951	-1.001787186	3.16798687	0.016164781	-0.015926362	-0.017166139	-0.812744141	0.452148438	0.645996094	884.02	-19.76470231	-69.01969165	-146.0770687	-63
26017	0	0.36932373	-0.041442871	0.128051758	0.999999046	-0.001125336	-9.82E-05	-0.00038147	9.233093262	-1.036071777	3.201293945	-0.056266798	-0.004911424	-0.019073491	-0.814941406	0.452392578	0.648925781	883.9	-19.7707863	-69.04647317	-146.2094513	-63
26018	0	0.368832588	-0.043467522	0.129283905	0.999998093	-0.001425743	-0.000584602	-0.000397682	9.220814705	-1.086688042	3.232097626	-0.071287185	-0.02923013	-0.019884118	-0.812744141	0.450195313	0.651855469	883.96	-19.8555434	-69.12645724	-146.2942625	-63
26019	0	0.370544434	-0.051818848	0.133117676	0.999998093	-0.001196861	-0.000545502	-0.000904083	9.26361084	-1.295471191	3.327941895	-0.059843089	-0.027275097	-0.045204182	-0.814941406	0.445800781	0.655273438	884	-19.76676978	-69.2216875	-146.5376492	-63
26020	0	0.370602608	-0.053604126	0.132584572	0.999999046	-0.000538826	-0.000320435	-0.000683784	9.265065193	-1.340103149	3.314614296	-0.026941303	-0.016021731	-0.034189229	-0.814697266	0.443603516	0.652587891	883.92	-19.64184786	-69.28372884	-146.7386439	-63
26021	0	0.362976074	-0.055480957	0.135009766	0.999999046	-0.00019455	-0.000277519	0.000118256	9.074401855	-1.387023926	3.375244141	-0.009727478	-0.013875962	0.005912781	-0.816894531	0.441650391	0.655517578	883.92	-19.70261988	-69.30963642	-146.7002614	-63
26022	0	0.366760254	-0.053606033	0.133379936	0.999999046	0.001293182	-0.000108719	0.00032711	9.169006348	-1.340150833	3.334498405	0.064659138	-0.005435945	0.016355519	-0.812255859	0.44140625	0.652587891	883.98	-19.63622377	-69.30892782	-146.6158266	-63
26023	0	0.368530273	-0.053894043	0.130981445	0.999998093	0.001351357	9.54E-05	0.000587463	9.213256836	-1.347351074	3.274536133	0.06756785	0.004768373	0.02937318	-0.814941406	0.445800781	0.655273438	883.96	-19.61768113	-69.27599048	-146.4731577	-63
26024	0	0.367472649	-0.047818184	0.127456665	0.999998093	0.001266479	0.000359535	0.001036644	9.186816216	-1.195454597	3.186416626	0.063324004	0.017976769	0.051832223	-0.812744141	0.450195313	0.654785156	883.98	-19.70975133	-69.19724345	-146.2219649	-63
26025	0	0.369812012	-0.045349121	0.130737305	0.999998093	0.001152992	0.0001297	0.001056671	9.245300293	-1.133728027	3.268432617	0.057649636	0.006484988	0.052833579	-0.812744141	0.452392578	0.654541016	884.02	-19.84252043	-69.1423396	-145.9415337	-63
26026	0	0.369510651	-0.040158272	0.128543854	0.999999046	0.000911713	0.000314713	0.000815392	9.237766266	-1.003956795	3.213596344	0.045585644	0.01573563	0.040769588	-0.812988281	0.456542969	0.651367188	883.96	-19.91403244	-69.07692726	-145.7550284	-63
26027	0	0.373046875	-0.043518066	0.127380371	0.999999046	-0.000198364	0.000325203	0.000747681	9.326171875	-1.08795166	3.184509277	-0.009918214	0.016260149	0.037384038	-0.812744141	0.458740234	0.642578125	884.02	-20.09136136	-69.013181	-145.5895967	-63
26028	0	0.370700836	-0.043575287	0.129434586	0.999999046	-0.000498772	0.000324249	0.000304222	9.267520905	-1.089382172	3.235864639	-0.024938585	0.016212465	0.015211106	-0.812988281	0.458740234	0.645507813	884	-20.17769291	-68.96706038	-145.5589604	-63
26029	0	0.36932373	-0.048706055	0.13067627	0.999999046	-0.000534058	0.000473976	-0.000152588	9.233093262	-1.217651367	3.266906738	-0.026702883	0.023698809	-0.007629395	-0.812988281	0.458740234	0.648193359	884	-20.12508476	-68.92287538	-145.6815737	-63
26030	0	0.365489006	-0.048490524	0.132068634	0.999998093	-0.000479698	0.00026226	7.15E-05	9.137225151	-1.212263107	3.301715851	-0.02398491	0.013113023	0.003576279	-0.812988281	0.458740234	0.645507813	884.12	-20.15070469	-68.89251494	-145.713153	-63
26031	0	0.368103027	-0.051269531	0.135131836	0.999999046	-0.000232697	9.63E-05	3.43E-05	9.202575684	-1.281738281	3.378295898	-0.011634827	0.004816055	0.001716614	-0.815185547	0.456787109	0.648681641	884.06	-20.15489547	-68.88125568	-145.7390044	-63
26032	0	0.369294167	-0.048672676	0.135606766	0.999999046	0.001143456	-0.000173569	0.000324249	9.232354164	-1.216816902	3.390169144	0.057172789	-0.008678438	0.016212467	-0.812744141	0.454345703	0.643066406	884	-20.10963546	-68.88742779	-145.6498746	-63
26033	0	0.368530273	-0.047607422	0.129699707	0.999999046	0.001182556	4.77E-06	0.000534058	9.213256836	-1.190185547	3.242492676	0.059127824	0.000238419	0.026702888	-0.812744141	0.456542969	0.645751953	884	-20.10018902	-68.86626179	-145.5181049	-63
26034	0	0.367564201	-0.045861244	0.130237579	0.999999046	0.000577927	0	0.000450134	9.189105034	-1.146531105	3.255939484	0.028896334	0	0.022506716	-0.810546875	0.4609375	0.645263672	884.02	-20.13683985	-68.84899839	-145.4093164	-63
26035	0	0.369018555	-0.046569824	0.12701416	0.999999046	-0.000125885	0.000123024	0.000198364	9.225463867	-1.164245605	3.175354004	-0.006294251	0.006151199	0.009918213	-0.812988281	0.4609375	0.645263672	883.96	-20.17154407	-68.82867089	-145.3894483	-63
26036	0	0.366951942	-0.048578262	0.129593849	0.999998093	-0.001001358	0.000277519	0.000124931	9.173798561	-1.214456558	3.23984623	-0.050067911	0.013875964	0.006246568	-0.812988281	0.4609375	0.642333984	883.86	-20.27047858	-68.79469943	-145.4070914	-63
26037	0	0.3671875	-0.05090332	0.133605957	0.999999046	-0.001125336	0.000226021	-3.81E-05	9.1796875	-1.272583008	3.340148926	-0.056266797	0.011301043	-0.001907349	-0.812988281	0.458740234	0.645507813	883.98	-20.3438597	-68.77262437	-145.4681959	-63
26038	0	0.368106842	-0.051056862	0.13481617	0.999999046	-0.000745773	0.000452042	0.000179291	9.202671051	-1.276421547	3.370404243	-0.037288671	0.022602084	0.00896454	-0.812988281	0.458740234	0.645507813	883.92	-20.41080099	-68.7174596	-145.4891514	-63
26039	0	0.36541748	-0.053344727	0.133239746	0.999999046	1.14E-05	0.000199318	0.000286102	9.135437012	-1.333618164	3.330993652	0.000572205	0.009965897	0.014305115	-0.812744141	0.456542969	0.645751953	883.96	-20.44675018	-68.68501286	-145.4518016	-63
26040	0	0.364421844	-0.048301697	0.130271912	0.999999046	-0.000395775	0.000396729	0.000346184	9.110546112	-1.207542419	3.256797791	-0.019788743	0.019836427	0.01730919	-0.815185547	0.454589844	0.648681641	884	-20.5254181	-68.62900821	-145.4204681	-63
26041	0	0.367797852	-0.050109863	0.13293457	0.999999046	-0.000736237	-0.000220299	0.000205994	9.194946289	-1.252746582	3.323364258	-0.036811832	-0.01101494	0.010299684	-0.815185547	0.456787109	0.645751953	884	-20.66797639	-68.6448075	-145.3599301	-63
26042	0	0.374732018	-0.049298286	0.131353378	0.999999046	0.000349045	-5.91E-05	5.25E-05	9.368300438	-1.232457161	3.283834457	0.01745224	-0.00295639	0.002622604	-0.812744141	0.454345703	0.645751953	884.02	-20.62743584	-68.64970412	-145.3637346	-63
26043	0	0.368896484	-0.046508789	0.131347656	0.999999046	-0.00113678	0.000157356	-0.000202179	9.222412109	-1.162719727	3.283691406	-0.056839002	0.007867815	-0.01010895	-0.812744141	0.456542969	0.645751953	883.96	-20.66456105	-68.64180256	-145.4642587	-63
26044	0	0.369484901	-0.049221039	0.13110733	0.999997139	-0.002285957	0.000364304	-0.000320435	9.237122536	-1.23052597	3.277683258	-0.114297971	0.018215196	-0.016021743	-0.814941406	0.452392578	0.648925781	883.92	-20.77954449	-68.6166671	-145.6235431	-63
26045	0	0.362243652	-0.050964355	0.133728027	0.999995232	-0.002853394	0.000283241	-0.000694275	9.056091309	-1.274108887	3.343200684	-0.142669885	0.014162084	-0.034713795	-0.817138672	0.445800781	0.646728516	884.06	-20.86570511	-68.61537332	-145.8840077	-63
26046	0	0.3680439	-0.058076859	0.137877464	0.999996185	-0.002394676	-0.000201225	-0.001028061	9.201097488	-1.451921463	3.446936607	-0.119733947	-0.010061275	-0.051403104	-0.819335938	0.441650391	0.652832031	884.02	-20.85873676	-68.67928185	-146.1884864	-63
26047	0	0.365661621	-0.06072998	0.139953613	0.999999046	-0.000766754	-0.000121117	-0.000549316	9.141540527	-1.518249512	3.498840332	-0.038337713	-0.006055833	-0.027465824	-0.819091797	0.437255859	0.653320313	883.96	-20.78845161	-68.71447943	-146.361944	-63
26048	0	0.365390778	-0.056694984	0.137640953	0.999999046	0.000962257	-0.000255585	7.53E-05	9.13476944	-1.417374611	3.441023827	0.048112877	-0.012779238	0.003767014	-0.819091797	0.435058594	0.659179688	884.02	-20.70617623	-68.7382594	-146.3388747	-63
26049	0	0.363647461	-0.053955078	0.13470459	0.999999046	0.001319885	-9.06E-05	0.000343323	9.091186523	-1.348876953	3.367614746	0.065994283	-0.004529954	0.017166143	-0.819335938	0.439453125	0.656005859	884	-20.63990159	-68.73328144	-146.2525873	-63
26050	0	0.365711212	-0.051599503	0.132087708	0.999999046	0.000537872	0.000175476	0.00026989	9.142780304	-1.289987564	3.302192688	0.026893617	0.008773804	0.013494492	-0.819335938	0.441650391	0.658691406	884	-20.6155854	-68.70271821	-146.2171508	-63
26051	0	0.366638184	-0.052368164	0.134338379	0.999999046	-0.000518799	0.00023365	6.48E-05	9.16595459	-1.309204102	3.358459473	-0.025939943	0.011682511	0.003242493	-0.819335938	0.441650391	0.652832031	884.06	-20.65009182	-68.67407261	-146.2466778	-63
26052	0	0.365836143	-0.052188873	0.133843422	0.999999046	-0.000252724	0.000249863	0.000305176	9.145903587	-1.304721832	3.346085548	-0.012636185	0.012493134	0.01525879	-0.819335938	0.441650391	0.655761719	884.02	-20.71850363	-68.63387247	-146.2076931	-63
26053	0	0.365478516	-0.052429199	0.136047363	0.999999046	0.000232697	-3.34E-05	0.000480652	9.136962891	-1.31072998	3.401184082	0.011634827	-0.00166893	0.024032594	-0.816894531	0.443603516	0.649658203	884.02	-20.80859406	-68.61668285	-146.0834282	-63
26054	0	0.36616993	-0.051803589	0.134397507	0.999999046	0.00122261	-2.86E-05	0.000361443	9.154248238	-1.295089722	3.359937668	0.06113054	-0.001430512	0.018072133	-0.816894531	0.441650391	0.652832031	884.02	-20.75208719	-68.60372954	-145.9984221	-63
26055	0	0.366394043	-0.053283691	0.131958008	0.999998093	0.001294136	-0.000144958	0.000576019	9.159851074	-1.332092285	3.298950195	0.064706824	-0.007247927	0.028800974	-0.817138672	0.447998047	0.65234375	884.02	-20.75845088	-68.59455285	-145.8346188	-63
26056	0	0.367351532	-0.049157143	0.131184578	0.999999046	0.000754356	-0.000160217	0.000457764	9.1837883	-1.228928566	3.279614449	0.037717824	-0.008010865	0.022888187	-0.814941406	0.447998047	0.649414063	883.96	-20.79573992	-68.5919275	-145.7042706	-63
26057	0	0.367797852	-0.049987793	0.134460449	0.999999046	0.000331879	9.54E-07	0.00050354	9.194946289	-1.249694824	3.36151123	0.016593934	4.77E-05	0.025177003	-0.817382813	0.452392578	0.651855469	883.92	-20.87690528	-68.57010717	-145.5776312	-63
26058	0	0.368418694	-0.049721718	0.132417679	0.999999046	0.000894547	-0.000299454	0.000286102	9.210467339	-1.243042946	3.310441971	0.044727333	-0.014972689	0.014305117	-0.815185547	0.452392578	0.654541016	884.02	-20.86530874	-68.58939557	-145.4828357	-63
26059	0	0.36932373	-0.047668457	0.133239746	0.999999046	0.00043869	-0.000227928	2.67E-05	9.233093262	-1.191711426	3.330993652	0.02193451	-0.011396409	0.001335144	-0.815185547	0.454589844	0.648681641	883.98	-20.82723202	-68.61171903	-145.4700778	-63
26060	0	0.36895752	-0.052612305	0.133056641	0.999999046	0.000527382	-0.000247955	-9.54E-05	9.223937988	-1.315307617	3.326416016	0.026369096	-0.012397767	-0.004768372	-0.812988281	0.458740234	0.648193359	883.96	-20.74782669	-68.6411666	-145.4879142	-63
26061	0	0.367736816	-0.050170898	0.132385254	0.999999046	0.000537872	-0.000315666	-1.14E-05	9.19342041	-1.254272461	3.309631348	0.026893617	-0.015783311	-0.000572205	-0.815185547	0.456787109	0.651367188	883.92	-20.6971002	-68.67450349	-145.476985	-63
26062	0	0.364831924	-0.053436279	0.13428688	0.999999046	0.000587463	-0.000213623	6.01E-05	9.120798111	-1.335906982	3.357172012	0.029373171	-0.010681153	0.003004074	-0.815185547	0.458984375	0.6484375	883.96	-20.65000661	-68.69385088	-145.4546089	-63
26063	0	0.369262695	-0.050598145	0.133239746	0.999998093	0.0014925	-0.000282288	0.000141144	9.231567383	-1.264953613	3.330993652	0.074625044	-0.014114385	0.007057193	-0.815185547	0.458984375	0.645507813	884	-20.52855791	-68.71731992	-145.402054	-63
26064	0	0.369017601	-0.047197342	0.131463051	0.999999046	0.000304222	-0.000301361	0.000137329	9.225440025	-1.179933548	3.286576271	0.015211106	-0.015068055	0.006866455	-0.812988281	0.4609375	0.650878906	884	-20.54388193	-68.74314139	-145.3487465	-63
26065	0	0.364929199	-0.048156738	0.131652832	0.999999046	0.00038147	-0.000342369	9.54E-05	9.12322998	-1.203918457	3.291320801	0.019073487	-0.017118455	0.004768372	-0.812988281	0.458740234	0.645507813	883.92	-20.5428859	-68.77507184	-145.3043643	-63
26066	0	0.366963387	-0.046479225	0.131435394	0.999999046	0.000761032	-0.00053215	5.25E-05	9.174084663	-1.161980629	3.285884857	0.038051611	-0.026607517	0.002622605	-0.812988281	0.4609375	0.645263672	883.96	-20.50583639	-68.82918598	-145.2510982	-63
26067	0	0.370727539	-0.050476074	0.130310059	0.999999046	-0.000610352	-0.000193596	-0.000232697	9.268188477	-1.261901855	3.257751465	-0.03051758	-0.009679795	-0.011634828	-0.813232422	0.4609375	0.653808594	883.9	-20.51199097	-68.85853541	-145.3210587	-63
26068	0	0.365305901	-0.049911499	0.126138687	0.999999046	-0.00014019	-0.000440598	1.05E-05	9.132647514	-1.247787476	3.153467178	-0.007009506	-0.022029877	0.000524521	-0.812988281	0.4609375	0.648193359	884	-20.55775392	-68.90482907	-145.2891081	-63
26069	0	0.371154785	-0.047119141	0.131591797	0.999999046	0.000598907	-0.000983238	0	9.278869629	-1.177978516	3.289794922	0.02994538	-0.049161922	0	-0.810546875	0.458740234	0.651123047	883.86	-20.57250186	-69.00984837	-145.2022326	-63
26070	0	0.372628212	-0.051787376	0.128479004	0.999999046	0.000402451	-0.000562668	-0.000416756	9.315705299	-1.29468441	3.211975098	0.02012253	-0.028133395	-0.020837786	-0.813232422	0.4609375	0.653808594	884	-20.44940715	-69.08663068	-145.2862905	-63
26071	0	0.369812012	-0.047973633	0.131164551	0.999999046	-0.000759125	0.000195503	-0.000263214	9.245300293	-1.19934082	3.27911377	-0.037956242	0.009775163	-0.013160707	-0.813232422	0.4609375	0.653808594	884.02	-20.42260702	-69.07581982	-145.4082976	-63
26072	0	0.366490364	-0.050362587	0.132573128	0.999998093	-0.001749039	0.000437737	-5.44E-05	9.162259102	-1.259064674	3.314328194	-0.087451982	0.021886837	-0.002717973	-0.812988281	0.458984375	0.656738281	884	-20.542649	-69.0305118	-145.4945763	-63
26073	0	0.369812012	-0.052734375	0.133300781	0.999999046	-0.000804901	0.000329018	-0.000179291	9.245300293	-1.318359375	3.332519531	-0.040245061	0.016450884	-0.00896454	-0.812744141	0.454589844	0.651611328	884.02	-20.53128736	-69.00177524	-145.6067726	-63
26074	0	0.365470886	-0.053123474	0.133393288	0.999999046	-0.000225067	0.000267029	-0.000198364	9.136772156	-1.328086853	3.334832191	-0.011253357	0.013351441	-0.009918213	-0.812988281	0.452392578	0.66015625	883.96	-20.4551806	-68.98020218	-145.7206473	-63
26075	0	0.365783691	-0.053344727	0.130493164	0.999999046	0.000293732	0.00011158	0.000282288	9.144592285	-1.333618164	3.262329102	0.014686585	0.005578995	0.01411438	-0.815185547	0.454589844	0.657226563	883.96	-20.47073129	-68.95596205	-145.6711267	-63
26076	0	0.365239143	-0.049142838	0.128648758	0.999999046	-0.000107765	-6.48E-05	0.000137329	9.130978584	-1.228570938	3.216218948	-0.00538826	-0.003242493	0.006866455	-0.812988281	0.456787109	0.654052734	883.98	-20.51024698	-68.95653931	-145.6419553	-63
26077	0	0.369384766	-0.050048828	0.129394531	0.999999046	-0.000312805	-0.000102043	0.000282288	9.234619141	-1.251220703	3.234863281	-0.015640259	-0.005102158	0.01411438	-0.815185547	0.456787109	0.654296875	883.96	-20.61770635	-68.95535773	-145.5657452	-63
26078	0	0.367370605	-0.047593117	0.13185215	0.999999046	-0.001197815	0.000244141	5.34E-05	9.184265137	-1.189827919	3.296303749	-0.059890762	0.012207034	0.002670289	-0.812988281	0.454589844	0.654296875	883.96	-20.72605644	-68.92626134	-145.5971098	-63
26079	0	0.364807129	-0.051513672	0.130554199	0.999999046	-0.00100708	-7.15E-05	-8.39E-05	9.120178223	-1.287841797	3.26385498	-0.050354013	-0.003576279	-0.004196168	-0.815185547	0.452392578	0.663085938	883.98	-20.80772836	-68.93653449	-145.6368278	-63
26080	0	0.367431641	-0.054626465	0.13269043	0.999999046	-0.000433922	-8.01E-05	-6.87E-05	9.185791016	-1.365661621	3.317260742	-0.021696091	-0.004005432	-0.003433228	-0.815185547	0.450195313	0.657714844	884.06	-20.82933727	-68.94696472	-145.6701503	-63
26081	0	0.372070313	-0.053710938	0.135253906	0.999999046	-0.000289917	-8.30E-05	-3.05E-05	9.301757813	-1.342773438	3.381347656	-0.01449585	-0.004148483	-0.001525879	-0.814941406	0.447998047	0.655029297	884	-20.84555298	-68.95598266	-145.6921177	-63
26082	0	0.372767448	-0.054864883	0.133877754	0.999999046	2.67E-05	-0.000108719	0.000121117	9.319186211	-1.371622086	3.346943855	0.001335144	-0.005435944	0.006055832	-0.8125	0.445800781	0.657958984	883.9	-20.87083992	-68.9614602	-145.6677773	-63
26083	0	0.368896484	-0.049560547	0.134460449	0.999999046	0.000743866	0.000153542	9.54E-05	9.222412109	-1.239013672	3.36151123	0.037193302	0.007677079	0.004768372	-0.814941406	0.447998047	0.657714844	884.06	-20.77866586	-68.93978311	-145.6805837	-63
26084	0	0.36225605	-0.049135208	0.127807617	0.999999046	0.000195503	0.000289917	2.96E-05	9.056401253	-1.228380203	3.19519043	0.009775162	0.01449585	0.001478195	-0.814941406	0.450195313	0.654785156	884	-20.71674181	-68.90623075	-145.7255312	-63
26085	0	0.360717773	-0.049987793	0.127807617	0.999999046	-0.000537872	-0.000105858	0.000209808	9.017944336	-1.249694824	3.19519043	-0.026893617	-0.005292893	0.010490418	-0.814941406	0.450195313	0.654785156	883.96	-20.83073301	-68.90780447	-145.6714245	-63
26086	0	0.366400719	-0.050893784	0.131702423	0.999999046	-0.000398636	-0.00031662	0.000102043	9.160017967	-1.272344589	3.292560577	-0.019931794	-0.015830994	0.005102158	-0.815185547	0.450195313	0.657714844	884.02	-20.92120193	-68.93626575	-145.6257598	-63
26087	0	0.368591309	-0.05078125	0.132568359	0.999999046	-0.000709534	-0.00026989	5.72E-05	9.214782715	-1.26953125	3.314208984	-0.035476688	-0.013494493	0.002861023	-0.815185547	0.450195313	0.663330078	883.92	-21.02994738	-68.96148752	-145.5991727	-63
26088	0	0.371343613	-0.053580284	0.135586739	0.999999046	-0.000655174	-0.00028801	0.000349998	9.283590317	-1.339507103	3.389668465	-0.032758716	-0.014400484	0.017499926	-0.814941406	0.447998047	0.657714844	883.96	-21.21607993	-68.97634356	-145.4828166	-63
26089	0	0.368225098	-0.053649902	0.135498047	0.999999046	0.000331879	-4.86E-05	0.000232697	9.205627441	-1.341247559	3.387451172	0.016593934	-0.00243187	0.011634827	-0.814941406	0.445800781	0.657958984	884	-21.23080048	-68.9701781	-145.4319178	-64
26090	0	0.368456841	-0.052697182	0.131528854	0.999999046	0.000551224	-0.000120163	0.000102997	9.211421013	-1.317429543	3.288221359	0.027561189	-0.006008149	0.005149842	-0.812744141	0.450195313	0.660400391	883.92	-21.19216633	-68.97699592	-145.4078563	-64
26091	0	0.367370605	-0.051574707	0.130615234	0.999999046	-0.000225067	0.000107765	0.000312805	9.184265137	-1.289367676	3.265380859	-0.011253357	0.00538826	0.015640259	-0.812744141	0.447998047	0.660644531	883.92	-21.27617325	-68.95075501	-145.3500684	-63
26092	0	0.370303154	-0.047958374	0.12871933	0.999999046	-0.000287056	-0.000171661	0.000281334	9.25757885	-1.198959351	3.217983246	-0.014352799	-0.008583069	0.014066697	-0.812744141	0.450195313	0.660400391	883.96	-21.3882796	-68.95582512	-145.2672135	-64
26093	0	0.369934082	-0.047607422	0.131347656	0.999999046	-0.000892639	-0.000159264	-5.34E-05	9.248352051	-1.190185547	3.283691406	-0.044631964	-0.007963182	-0.002670288	-0.810546875	0.450195313	0.66015625	884.02	-21.47504194	-68.97362392	-145.2834399	-64
26094	0	0.370347023	-0.051832199	0.131624222	0.999999046	-0.000413895	-0.000110626	-0.000172615	9.258675575	-1.295804977	3.290605545	-0.020694733	-0.005531311	-0.008630753	-0.812744141	0.447998047	0.663330078	883.96	-21.46848153	-68.99123937	-145.343647	-63
26095	0	0.36706543	-0.054016113	0.134155273	0.999999046	-9.92E-05	-0.000136375	-0.000232697	9.176635742	-1.350402832	3.353881836	-0.004959107	-0.006818771	-0.011634827	-0.812744141	0.450195313	0.663330078	884	-21.41196685	-69.01389045	-145.415651	-64
26096	0	0.36706543	-0.057678223	0.133300781	0.999999046	-2.86E-06	4.96E-05	-0.000297546	9.176635742	-1.441955566	3.332519531	-0.000143051	0.002479553	-0.01487732	-0.814941406	0.446044922	0.666503906	884	-21.30662921	-69.01911651	-145.5335508	-63
26097	0	0.364562988	-0.056091309	0.1328125	0.999999046	-0.000328064	0.000180244	-3.05E-05	9.114074707	-1.402282715	3.3203125	-0.016403199	0.009012223	-0.001525879	-0.814941406	0.445800781	0.663574219	884	-21.29917527	-68.99900092	-145.5850468	-64
26098	0	0.367753029	-0.054997444	0.133457184	0.999999046	0.000318527	-1.34E-05	0.000152588	9.193825722	-1.374936104	3.336429596	0.015926361	-0.000667572	0.007629395	-0.814941406	0.445800781	0.663574219	883.92	-21.28984764	-68.99175722	-145.5598681	-64
26099	0	0.367797852	-0.053405762	0.131896973	0.999999046	0.000965118	-1.05E-05	0.000415802	9.194946289	-1.335144043	3.297424316	0.048255929	-0.000524521	0.020790104	-0.814941406	0.447998047	0.660644531	883.92	-21.27939862	-68.97318822	-145.455461	-63
26100	0	0.366232872	-0.050098419	0.132656097	0.999999046	0.001160622	8.77E-05	0.000548363	9.1558218	-1.25246048	3.316402435	0.058031098	0.004386903	0.027418144	-0.812744141	0.450195313	0.660400391	883.92	-21.27226834	-68.93855289	-145.3233318	-64
26101	0	0.367126465	-0.052368164	0.128723145	0.999999046	0.00069046	8.11E-05	0.000293732	9.178161621	-1.309204102	3.218078613	0.034523014	0.004053116	0.014686586	-0.815429688	0.454589844	0.663085938	883.92	-21.24918905	-68.91531822	-145.2645158	-64
26102	0	0.367501259	-0.052222252	0.129891396	0.999999046	-5.91E-05	1.91E-05	0.000380516	9.187531471	-1.305556297	3.247284889	-0.00295639	0.000953674	0.019025803	-0.815185547	0.454589844	0.657226563	884.02	-21.34272165	-68.89513765	-145.1712862	-64
26103	0	0.3671875	-0.051147461	0.130187988	0.999999046	-0.000240326	9.54E-07	0.000541687	9.1796875	-1.278686523	3.254699707	-0.012016297	4.77E-05	0.027084352	-0.815185547	0.454589844	0.654541016	883.9	-21.50319692	-68.87013853	-145.0282726	-64
26104	0	0.367801666	-0.05240345	0.131443977	0.999999046	3.15E-05	0.000230789	0.00050354	9.195041656	-1.31008625	3.286099434	0.001573563	0.01153946	0.025177003	-0.810791016	0.456542969	0.659667969	883.92	-21.59659128	-68.82214442	-144.9231958	-64
26105	0	0.368286133	-0.052185059	0.131347656	0.999999046	0.000278473	6.58E-05	0.000572205	9.20715332	-1.304626465	3.283691406	0.013923646	0.003290177	0.028610231	-0.812988281	0.456787109	0.656982422	883.96	-21.69802573	-68.78879758	-144.7802529	-64
26106	0	0.368329048	-0.053936958	0.132462502	0.999999046	0.000234604	5.34E-05	0.000540733	9.208226204	-1.348423958	3.311562538	0.011730195	0.002670288	0.027036668	-0.810791016	0.458740234	0.659667969	883.98	-21.79689804	-68.75798913	-144.6450034	-64
26107	0	0.367004395	-0.052001953	0.133117676	0.999999046	0.000244141	3.53E-05	0.000553131	9.175109863	-1.300048828	3.327941895	0.012207032	0.001764298	0.027656557	-0.810791016	0.458740234	0.656738281	883.96	-21.89944575	-68.72845875	-144.5051597	-64
26108	0	0.368408203	-0.051208496	0.131530762	0.999999046	0.000775337	-7.63E-06	0.000499725	9.210205078	-1.280212402	3.288269043	0.038766866	-0.00038147	0.024986271	-0.810791016	0.4609375	0.653808594	883.96	-21.93067539	-68.70580115	-144.3752913	-64
26109	0	0.368164063	-0.052246094	0.130737305	0.999999046	0.000587463	4.77E-06	0.000450134	9.204101563	-1.306152344	3.268432617	0.029373172	0.000238419	0.022506716	-0.811035156	0.463134766	0.656494141	883.92	-21.96824033	-68.68402336	-144.2621913	-64
26110	0	0.368910789	-0.050778389	0.129944801	0.999999046	0.000444412	-7.63E-06	0.000450134	9.222769737	-1.269459724	3.248620033	0.022220613	-0.00038147	0.022506715	-0.813232422	0.463134766	0.656494141	883.96	-22.02309878	-68.66371098	-144.1505537	-64
26111	0	0.368041992	-0.051940918	0.13269043	0.999999046	0.000236511	-5.25E-05	0.000221252	9.201049805	-1.298522949	3.317260742	0.011825562	-0.002622604	0.011062622	-0.811035156	0.465332031	0.65625	883.98	-22.04406677	-68.65800067	-144.0981485	-64
26112	0	0.366932869	-0.054300308	0.131272316	0.999999046	0.000353813	-0.000143051	6.87E-05	9.173321724	-1.357507706	3.281807899	0.017690659	-0.007152558	0.003433228	-0.811035156	0.465332031	0.653320313	883.96	-22.02014304	-68.66850254	-144.0791876	-64
26113	0	0.370178223	-0.055908203	0.131835938	0.999999046	0.00019455	-0.000193596	9.92E-05	9.254455566	-1.397705078	3.295898438	0.009727478	-0.009679794	0.004959107	-0.811279297	0.469726563	0.655761719	883.98	-22.02859862	-68.68309497	-144.041121	-64
26114	0	0.365030289	-0.052206993	0.131835938	0.999999046	0.00063324	-0.000131607	0.000178337	9.125757217	-1.305174828	3.295898438	0.03166199	-0.006580353	0.008916856	-0.80859375	0.465332031	0.656005859	884	-22.00128462	-68.68769687	-143.994001	-63
26115	0	0.366394043	-0.053161621	0.131591797	0.999999046	0.000278473	1.62E-05	0.000385284	9.159851074	-1.329040527	3.289794922	0.013923646	0.000810623	0.019264222	-0.808837891	0.469726563	0.655761719	884	-22.05457248	-68.66771208	-143.8996814	-63
26116	0	0.367081642	-0.051969528	0.128457069	0.999999046	0.000130653	0.000164032	0.000273705	9.177041054	-1.299238205	3.211426735	0.006532669	0.008201599	0.013685227	-0.811035156	0.469726563	0.650146484	883.96	-22.07796685	-68.6370024	-143.8551467	-63
26117	0	0.366882324	-0.05090332	0.133422852	0.999996185	-0.002409935	0.00063324	0.0001297	9.172058105	-1.272583008	3.335571289	-0.120496875	0.03166202	0.006484992	-0.811279297	0.469726563	0.653076172	883.96	-22.30092174	-68.56270738	-143.9055699	-63
26118	0	0.364621162	-0.050616264	0.136022568	0.999997139	-0.002285004	0.000354767	-0.000206947	9.11552906	-1.265406609	3.400564194	-0.114250286	0.017738358	-0.010347376	-0.811035156	0.465332031	0.65625	883.96	-22.44848233	-68.53255057	-144.0233905	-63
26119	0	0.371520996	-0.049560547	0.138305664	0.999988556	-0.004530907	0.000190735	-0.000694275	9.288024902	-1.239013672	3.457641602	-0.226546129	0.009536777	-0.034713867	-0.811035156	0.463134766	0.662109375	883.96	-22.73936892	-68.54131606	-144.2575514	-63
26120	0	0.362936974	-0.056042671	0.144287109	0.999979973	-0.006052971	-6.48E-05	-0.001237869	9.073424339	-1.40106678	3.607177734	-0.30265047	-0.003242513	-0.061893857	-0.812988281	0.454589844	0.662841797	883.92	-23.0866377	-68.60121356	-144.6152456	-63
26121	0	0.357116699	-0.063049316	0.149414063	0.999987602	-0.004688263	-0.000243187	-0.001316071	8.92791748	-1.57623291	3.735351563	-0.234414076	-0.012159396	-0.065803789	-0.815185547	0.443847656	0.675292969	883.96	-23.27638653	-68.68299436	-144.9805513	-63
26122	0	0.357918739	-0.067997932	0.152570724	0.999994278	-0.003018379	-0.000218391	-0.001317024	8.947968483	-1.699948311	3.814268112	-0.150919235	-0.010919591	-0.065851331	-0.814941406	0.437255859	0.67578125	883.92	-23.27085709	-68.76114498	-145.3494476	-63
26123	0	0.350585938	-0.06427002	0.147216797	0.99998951	-0.004272461	4.29E-05	-0.00125885	8.764648438	-1.606750488	3.680419922	-0.213623753	0.002145774	-0.062942713	-0.817138672	0.433105469	0.684814453	883.92	-23.39347911	-68.80819255	-145.7318688	-64
26124	0	0.35841465	-0.060382843	0.150333405	0.999979973	-0.005980492	-0.00060463	-0.001457214	8.960366249	-1.509571075	3.758335114	-0.299026488	-0.030231669	-0.072861182	-0.819335938	0.426513672	0.685302734	884.02	-23.73300622	-68.93190841	-146.0851324	-64
26125	0	0.363037109	-0.066589355	0.148925781	0.999995232	-0.001758575	-0.000922203	-0.002124786	9.075927734	-1.664733887	3.723144531	-0.087928896	-0.046110218	-0.106239469	-0.821533203	0.420166016	0.697509766	883.96	-23.4414029	-69.11863896	-146.5999485	-64
26126	0	0.34532547	-0.053026199	0.135038376	0.999994278	0.002381325	-0.001473427	-0.001428604	8.633136749	-1.325654984	3.375959396	0.119066435	-0.073671462	-0.071430324	-0.821533203	0.420166016	0.703125	883.92	-22.92487145	-69.33017959	-146.8505972	-64
26127	0	0.316101074	-0.035095215	0.120300293	0.99998951	0.003997803	-0.001536369	0.00112915	7.902526855	-0.877380371	3.007507324	0.19989079	-0.076818717	0.056457704	-0.822021484	0.428955078	0.699462891	883.92	-22.9413463	-69.43364217	-146.3323903	-64
26128	0	0.33026123	-0.054260254	0.108886719	0.999995232	-0.000121117	-0.002952576	0.000694275	8.256530762	-1.356506348	2.722167969	-0.006055841	-0.147629011	0.034713798	-0.8203125	0.444335938	0.706787109	883.96	-23.48579151	-69.70528876	-145.7383438	-65
26129	0	0.414348602	-0.094740868	0.126376152	0.999969482	0.001111031	-0.005073547	-0.005706787	10.35871506	-2.36852169	3.159403801	0.05555208	-0.253679886	-0.285342187	-0.813720703	0.448486328	0.711669922	883.86	-22.30032985	-70.48745425	-146.8223678	-65
26130	0	0.448801994	-0.104119301	0.122724533	0.999884605	0.003713608	-0.005504608	-0.013624191	11.22004986	-2.602982521	3.068113327	0.185687499	-0.275240946	-0.681235647	-0.813476563	0.441894531	0.723632813	883.9	-18.23323054	-71.61292219	-150.6250934	-65
26131	0	0.392883301	-0.087768555	0.132568359	0.99985981	-0.001937866	-0.006579399	-0.015258789	9.82208252	-2.194213867	3.314208984	-0.096897831	-0.328985302	-0.762975045	-0.820068359	0.427001953	0.733642578	884.06	-13.86145454	-72.81299081	-155.3968654	-63
26132	0	0.336130142	-0.097310066	0.141819	0.999902725	-0.005834579	-0.009596825	-0.008261681	8.403253555	-2.432751656	3.545475006	-0.291738426	-0.47985678	-0.413097415	-0.819335938	0.403076172	0.741455078	883.84	-12.27078916	-74.08702365	-157.7149621	-63
26133	0	0.318054199	-0.084472656	0.158752441	0.999933243	0.004635811	-0.010471344	-0.000759125	7.95135498	-2.111816406	3.968811035	0.231795631	-0.523578694	-0.037957071	-0.807373047	0.394042969	0.755615234	883.92	-12.38105877	-75.26255051	-157.0355359	-64
26134	0	0.307922363	-0.073791504	0.149597168	0.999926567	0.00774765	-0.009273529	-0.000156403	7.698059082	-1.844787598	3.739929199	0.387391937	-0.46368774	-0.00782032	-0.787597656	0.417480469	0.761230469	883.84	-12.34581122	-76.28526356	-156.1359028	-64
26135	0	0.314712524	-0.075221062	0.139817238	0.999949455	0.006355286	-0.007170677	-0.002242088	7.86781311	-1.880526543	3.495430946	0.317769411	-0.358539646	-0.112106225	-0.772216797	0.440917969	0.758544922	883.86	-11.29941932	-77.11951889	-156.4356202	-64
26136	0	0.330165863	-0.075352669	0.13158989	0.999975204	0.000862122	-0.003939629	-0.005682945	8.254146576	-1.883816719	3.289747238	0.043106428	-0.196983024	-0.284149562	-0.763427734	0.458007813	0.750976563	884	-8.733188746	-77.65210298	-158.9321168	-64
26137	0	0.344238281	-0.078979492	0.12310791	0.999948502	-0.006453514	-0.001674652	-0.007556915	8.605957031	-1.974487305	3.077697754	-0.322681167	-0.083734022	-0.37785216	-0.758544922	0.457519531	0.733642578	884.02	-5.68132071	-77.92427389	-162.7884674	-66
26138	0	0.3863554	-0.09604454	0.121769905	0.999918938	-0.009819031	-0.002548218	-0.007680893	9.658885002	-2.40111351	3.044247627	-0.490964787	-0.127414327	-0.384055011	-0.760253906	0.451171875	0.722900391	884.02	-2.84302966	-78.2535291	-166.8260348	-65
26139	0	0.432800293	-0.111450195	0.131408691	0.999950409	-0.005034447	-0.00428009	-0.007415771	10.82000732	-2.786254883	3.285217285	-0.251726475	-0.214008036	-0.370794671	-0.759277344	0.433349609	0.701416016	884.02	0.57578641	-78.73339811	-170.9008854	-66
26140	0	0.470176697	-0.100629807	0.13471508	0.999964714	0.003434181	-0.005384445	-0.005360603	11.75441742	-2.515745163	3.367877007	0.17171105	-0.269225379	-0.268033272	-0.756103516	0.426513672	0.673339844	884.02	4.092907979	-79.29785854	-174.0848836	-64
26141	0	0.488525391	-0.067077637	0.128662109	0.999984741	0.004040718	-0.003128052	-0.001792908	12.21313477	-1.676940918	3.216552734	0.202036891	-0.156403352	-0.089645824	-0.750732422	0.424072266	0.645019531	884.02	5.622154889	-79.61054777	-175.1742004	-66
26142	0	0.532521248	-0.025876045	0.117740631	0.999996185	-0.001551628	-0.001284599	-0.001718521	13.3130312	-0.646901131	2.943515778	-0.077581496	-0.06423004	-0.085926156	-0.747314453	0.416992188	0.602783203	884.02	6.394858706	-79.70956416	-176.1431751	-65
26143	0	0.447875977	0.037536621	0.08984375	0.999867439	-0.014923096	0.0043993	-0.004650116	11.19689941	0.938415527	2.24609375	-0.74618758	0.219974649	-0.232516017	-0.750732422	0.399414063	0.564453125	883.96	7.009647428	-79.1208331	-178.5058749	-64
26144	0	0.289053917	0.038606644	0.086888313	0.999631882	-0.026268005	0.005940437	-0.003188133	7.226347923	0.965166092	2.172207832	-1.313561314	0.297058286	-0.159426208	-0.755371094	0.357910156	0.533935547	883.96	5.287468034	-78.37918441	-179.8243342	-66
26145	0	0.287109375	0.003845215	0.102233887	0.9998703	-0.014555931	0.003498077	0.005847931	7.177734375	0.096130371	2.555847168	-0.727827891	0.1749114	0.292409135	-0.755371094	0.318359375	0.500244141	883.92	0.173113185	-77.98290007	-176.3242941	-64
26146	0	0.387145996	-0.005615234	0.076843262	0.999882698	0.004787445	0.004123688	0.013942719	9.678649902	-0.140380859	1.921081543	0.239381603	0.20619244	0.697163154	-0.747558594	0.311523438	0.471923828	884.06	-6.604124157	-77.39070153	-168.8530116	-63
26147	0	0.458435059	0.001037598	0.079345703	0.999873161	0.006687164	0.006932259	0.012657166	11.46087646	0.025939941	1.983642578	0.334372314	0.346627546	0.632884963	-0.731201172	0.330078125	0.421142578	883.98	-11.54691799	-76.34537026	-163.00629	-62
26148	0	0.369452477	-0.015441895	0.082736015	0.999911308	-0.001048088	0.009584427	0.009085655	9.236311913	-0.386047363	2.068400383	-0.052405937	0.479235363	0.45429605	-0.714355469	0.335693359	0.374267578	883.96	-14.74283236	-75.00704466	-159.8432554	-64
26149	0	0.301147461	-0.044067383	0.09375	0.999923706	-0.004702568	0.007896423	0.008247375	7.528686523	-1.10168457	2.34375	-0.235134379	0.394831202	0.412379255	-0.696777344	0.326171875	0.322998047	883.98	-17.70211568	-73.84119502	-157.3447416	-63
26150	0	0.297265053	-0.052423477	0.107336998	0.999943733	0.002027512	0.007629395	0.00707531	7.43162632	-1.310586929	2.68342495	0.101377479	0.381476872	0.353772114	-0.674072266	0.305419922	0.280761719	883.96	-19.17344333	-72.72112368	-155.5868066	-63
26151	0	0.265136719	-0.034118652	0.11517334	0.999944687	0.004555702	0.007900238	0.005195618	6.628417969	-0.852966309	2.879333496	0.227789293	0.395019155	0.259785654	-0.653564453	0.278320313	0.233642578	883.96	-19.52014518	-71.63411215	-154.6993063	-64
26152	0	0.269226074	-0.03125	0.135803223	0.999969482	0.00239563	0.006035805	0.004230499	6.730651855	-0.78125	3.395080566	0.119782693	0.301793259	0.211527081	-0.632080078	0.233642578	0.187744141	883.96	-19.94628554	-70.78206984	-153.9914884	-65
26153	0	0.297058105	-0.048461914	0.151550293	0.999940872	0.009755135	0.003643036	0.003101349	7.426452637	-1.211547852	3.788757324	0.487766326	0.182155379	0.155070495	-0.614990234	0.171630859	0.155029297	883.98	-19.41727935	-70.23002156	-153.4109494	-65
26154	0	0.346971512	-0.050354958	0.152936935	0.999964714	0.007677078	0.00053215	0.00315094	8.674287796	-1.25887394	3.823423386	0.383858336	0.02660782	0.157548813	-0.606933594	0.1015625	0.126220703	884.02	-19.45979866	-70.01201694	-152.482716	-63
26155	0	0.42980957	-0.076049805	0.15826416	0.999969482	0.007164955	-0.001800537	0.002532959	10.74523926	-1.901245117	3.956604004	0.358251399	-0.090027771	0.126649237	-0.615234375	0.025390625	0.124267578	883.86	-19.61810078	-70.06888345	-151.5008199	-63
26156	0	0.486020088	-0.046228409	0.148262978	0.99998188	0.003987312	-0.003297806	0.002812386	12.1505022	-1.15571022	3.70657444	0.199366768	-0.164891242	0.140620091	-0.642822266	-0.047607422	0.145996094	883.96	-20.39133609	-70.27493926	-150.2541316	-61
26157	0	0.596801758	-0.049255371	0.163818359	0.999960899	-0.005802155	-0.006422997	-0.001251221	14.92004395	-1.231384277	4.095458984	-0.290111425	-0.32115392	-0.062561833	-0.680908203	-0.102539063	0.183837891	884.02	-21.45026515	-70.977709	-149.8879207	-64
26158	0	0.524105072	0.00286293	0.12050724	0.999892235	-0.014247894	0.00254631	-0.002224922	13.1026268	0.071573257	3.012681007	-0.712420177	0.127320072	-0.111250085	-0.723876953	-0.14453125	0.215087891	884.02	-22.10751397	-70.76977844	-150.9596794	-64
26159	0	0.345825195	-0.004577637	0.097351074	0.999826431	-0.01796627	0.001152039	0.00466156	8.645629883	-0.114440918	2.433776855	-0.89836531	0.057605249	0.23309144	-0.769775391	-0.171142578	0.234130859	883.96	-25.41541751	-70.40453504	-149.6643807	-63
26160	0	0.410134315	-0.032779694	0.075263023	0.999938965	-0.004455566	-0.00083065	0.010041237	10.25335789	-0.81949234	1.881575584	-0.222782827	-0.041533357	0.502072	-0.804443359	-0.183105469	0.248291016	884	-28.89419684	-69.93858996	-146.5319998	-67
26161	0	0.379699707	-0.047607422	0.052001953	0.999926567	0.01083374	0.000710487	0.005302429	9.492492676	-1.190185547	1.300048828	0.541700193	0.035525233	0.265127911	-0.837890625	-0.175292969	0.269287109	883.96	-28.99358679	-69.55175662	-145.1178885	-65
26162	0	0.298449516	-0.004534721	0.027226448	0.999950409	0.009543419	0.001864433	0.001829147	7.461237907	-0.113368034	0.680661201	0.47717873	0.093223186	0.091458859	-0.866455078	-0.165283203	0.287109375	883.92	-28.12182406	-69.24675017	-144.8903063	-66
26163	0	0.249023438	-0.010864258	0.031799316	0.999970436	-0.006649017	-0.001963615	0.003284454	6.225585938	-0.271606445	0.79498291	-0.332454128	-0.098181734	0.164224328	-0.885742188	-0.164550781	0.316650391	883.96	-30.04224578	-69.24657965	-143.6586194	-67
26164	0	0.285018921	-0.055220604	0.054375648	0.999964714	-0.006274223	-0.003343582	0.004300117	7.125473022	-1.380515099	1.359391212	-0.313714776	-0.167181031	0.215008349	-0.905029297	-0.159423828	0.345703125	883.92	-32.40321508	-69.30694625	-141.9094196	-63
26165	0	0.274169922	-0.063903809	0.071350098	0.999982834	-0.001036644	-0.003055573	0.004821777	6.854248047	-1.597595215	1.783752441	-0.05183249	-0.152779483	0.24109022	-0.927246094	-0.149658203	0.380126953	883.96	-34.25629064	-69.28480232	-140.0615437	-64
26166	0	0.294859886	-0.093946457	0.104816437	0.999977112	0.001986504	-0.004122734	0.004933357	7.371497154	-2.348661423	2.620410919	0.09932593	-0.206138259	0.246669724	-0.947265625	-0.124755859	0.410400391	883.86	-35.97724689	-69.33385464	-137.9835988	-63
26167	0	0.365844727	-0.123962402	0.13494873	0.999957085	0.007728577	-0.004858971	-0.001396179	9.146118164	-3.099060059	3.373718262	0.386434326	-0.242951986	-0.069809952	-0.9609375	-0.095703125	0.451416016	884.02	-35.62451559	-69.86494711	-137.4180614	-61
26168	0	0.425134659	-0.11596489	0.143507004	0.999862671	0.014274597	-0.002526283	-0.007966042	10.62836647	-2.899122238	3.587675095	0.713762409	-0.126319924	-0.398320243	-0.967529297	-0.066894531	0.486328125	883.96	-32.33991975	-70.60001977	-139.171247	-63
26169	0	0.46105957	-0.092224121	0.159667969	0.999876022	0.011292458	-0.00233078	-0.010688782	11.52648926	-2.305603027	3.991699219	0.564646144	-0.116543803	-0.534461108	-0.978271484	-0.040039063	0.510498047	884.02	-28.3727317	-71.4336162	-141.9976995	-64
26170	0	0.474758148	-0.076926231	0.183101654	0.99994278	0.004757881	0.001246452	-0.009404182	11.8689537	-1.923155785	4.577541351	0.237898524	0.062323787	-0.470217949	-0.979492188	-0.018066406	0.528564453	883.9	-24.74332038	-71.77012473	-145.2464077	-66
26171	0	0.428833008	-0.072631836	0.185241699	0.999940872	-0.00253582	0.006603241	-0.008197784	10.7208252	-1.815795898	4.63104248	-0.126793478	0.3301685	-0.409897231	-0.982177734	-0.011474609	0.525390625	883.92	-21.55026126	-71.42345255	-148.916377	-66
26172	0	0.486516953	-0.061792374	0.12542057	0.99987793	-0.008247375	0.009814262	-0.008870125	12.16292381	-1.544809341	3.135514259	-0.412385478	0.490732997	-0.443524206	-0.991455078	-0.011230469	0.517333984	883.9	-18.59908543	-70.69742354	-153.0345534	-64
26173	0	0.404602051	-0.01574707	0.119445801	0.999539375	-0.027915955	0.009285927	-0.007339478	10.11505127	-0.393676758	2.98614502	-1.3960117	0.464367516	-0.367030133	-1.004394531	-0.026367188	0.493652344	883.92	-18.6300571	-69.94100808	-156.398542	-63
26174	0	0.366788864	-0.03290844	0.144226074	0.999487877	-0.031873703	0.002695084	0.000507355	9.169721603	-0.822710991	3.605651855	-1.593957119	0.134777177	0.025372066	-1.021484375	-0.05859375	0.485839844	883.9	-22.14675276	-69.61546591	-156.547524	-65
26175	0	0.390625	-0.076293945	0.123474121	0.999950409	0.007000923	0.001316071	0.006889343	9.765625	-1.907348633	3.086853027	0.350051888	0.065804605	0.344472802	-1.042236328	-0.064208984	0.487548828	883.98	-23.13690397	-69.15712185	-154.6425482	-66
26176	0	0.351648331	0.007194519	0.084478378	0.999530792	0.029285431	0.003743172	0.008090973	8.791208267	0.179862976	2.111959457	1.46450034	0.187187828	0.404611856	-1.074462891	-0.017578125	0.482421875	884.02	-21.57066631	-68.39526476	-152.7295109	-69
26177	0	0.274742126	0.045166969	0.083608627	0.999982834	0.005129814	0.002521515	0.000217438	6.868553162	1.129174232	2.090215683	0.256492106	0.126076432	0.010871946	-1.106933594	0.040283203	0.470947266	884.02	-20.77091686	-68.1065711	-152.9571627	-69
26178	0	0.251121521	-0.049120903	0.09803772	0.99996376	-0.007325172	-0.001191139	-0.003982544	6.278038025	-1.228022575	2.450942993	-0.366262952	-0.059557665	-0.199129552	-1.14453125	0.050048828	0.463623047	883.9	-20.65449167	-68.38519633	-153.9871836	-67
26179	0	0.247314453	-0.105102539	0.10760498	0.999883652	0.014203072	-0.004535675	-0.003070831	6.182861328	-2.627563477	2.690124512	0.71018101	-0.226792512	-0.153547496	-1.177490234	0.055664063	0.470703125	884.02	-18.62642617	-68.98074754	-154.4214484	-61
26180	0	0.267215729	-0.086645126	0.115164757	0.99960041	0.027228355	-0.007204056	-0.001326561	6.680393219	-2.166128159	2.879118919	1.361598232	-0.360250536	-0.066336841	-1.207519531	0.100341797	0.477294922	883.96	-15.77626691	-69.8003117	-154.1363495	-63
26181	0	0.306152344	-0.059326172	0.131835938	0.999739647	0.021781921	-0.006747246	0.000614166	7.653808594	-1.483154297	3.295898438	1.089190544	-0.337391554	0.030710977	-1.229003906	0.164306641	0.487304688	883.92	-14.02948094	-70.51377112	-153.340153	-61
26182	0	0.34185791	-0.043945313	0.138549805	0.999979019	0.002022743	-0.005263329	0.002883911	8.546447754	-1.098632813	3.463745117	0.101137837	-0.263168187	0.144196521	-1.238769531	0.232177734	0.482421875	883.92	-15.15910465	-70.99746411	-151.893902	-63
26183	0	0.413297653	-0.075947762	0.17196846	0.999901772	-0.012969971	-0.003275871	0.003590584	10.33244133	-1.898694038	4.299211502	-0.648519272	-0.163798801	0.179534931	-1.2265625	0.273193359	0.484130859	883.98	-18.12373853	-71.22083032	-150.3264809	-62
26184	0	0.486209869	-0.049233437	0.149981499	0.999836922	-0.017102242	-0.001600266	0.00540638	12.15524673	-1.230835915	3.749537468	-0.855158298	-0.0800176	0.270333597	-1.198730469	0.278564453	0.470703125	883.92	-21.98635801	-71.16308497	-148.3160333	-63
26185	0	0.54296875	-0.064147949	0.184020996	0.999846458	-0.016387939	-0.003645897	0.004829407	13.57421875	-1.60369873	4.600524902	-0.819438656	-0.182304119	0.241482621	-1.167236328	0.2578125	0.462158203	883.92	-25.85667893	-71.30325189	-146.2161364	-66
26186	0	0.594408989	-0.077267647	0.17337513	0.999988556	0.002240181	0.002951622	0.002706528	14.86022472	-1.93169117	4.334378242	0.112009442	0.147581618	0.13532686	-1.142822266	0.224365234	0.472167969	883.86	-25.9842277	-70.84718631	-145.8204089	-67
26187	0	0.416015625	-0.032531738	0.111328125	0.99992466	0.004070282	0.008820534	0.007423401	10.40039063	-0.813293457	2.783203125	0.20351917	0.441037676	0.371179291	-1.139404297	0.202636719	0.468017578	883.96	-26.39692746	-69.55018032	-144.9000743	-67
26188	0	0.369353294	-0.024600029	0.093688011	0.999809265	0.004583359	0.005866051	0.018051147	9.233832359	-0.615000725	2.342200279	0.229182503	0.293321177	0.902614735	-1.132568359	0.2109375	0.455566406	883.92	-29.74885546	-67.97043936	-140.7544039	-64
26189	0	0.369873047	-0.038208008	0.061645508	0.99985981	0.006698608	0.003357887	0.014972687	9.246826172	-0.955200195	1.541137695	0.33494607	0.167902209	0.74866932	-1.127197266	0.25	0.457763672	883.9	-32.03133462	-66.75075083	-137.4582079	-62
26190	0	0.323200226	-0.006344795	0.027094841	0.999936104	0.006376266	0.003353119	0.008633614	8.080005646	-0.158619881	0.677371025	0.318820043	0.167659478	0.431689777	-1.122070313	0.286865234	0.471435547	883.9	-32.72813259	-65.89370429	-135.9044646	-66
26191	0	0.248168945	0.017028809	0.014160156	0.999896049	-0.009342194	0.005135536	0.009654999	6.204223633	0.425720215	0.354003906	-0.467125787	0.256785664	0.482766585	-1.123535156	0.319824219	0.480224609	884.02	-35.07315592	-64.79063125	-134.5053195	-70
26192	0	0.219787598	-0.015930176	0.040771484	0.999351501	-0.034061432	0.003685951	0.011047363	5.494689941	-0.398254395	1.019287109	-1.703439619	0.184337387	0.552487528	-1.122314453	0.339599609	0.498535156	884.02	-40.50270038	-63.68684167	-132.8137845	-70
26193	0	0.250305176	-0.107543945	0.08026123	0.999560356	-0.028137207	0.000927925	0.009235382	6.257629395	-2.688598633	2.006530762	-1.40706627	0.046403046	0.461836692	-1.118896484	0.348388672	0.543212891	883.96	-45.11964564	-62.89564345	-131.258623	-70
26194	0	0.286398888	-0.154924393	0.112201691	0.999993324	-0.001506805	0.0001297	0.003275871	7.159972191	-3.873109818	2.805042267	-0.075340434	0.006484999	0.163793919	-1.108642578	0.372314453	0.572021484	883.92	-45.7794107	-62.62207902	-130.7143191	-67
26195	0	0.334777832	-0.164245605	0.12677002	0.999862671	0.016270638	-0.001342773	-0.002754211	8.369445801	-4.106140137	3.169250488	0.813569048	-0.06714174	-0.137716864	-1.099121094	0.415527344	0.579101563	883.9	-43.68784886	-62.95619609	-130.97253	-68
26196	0	0.438367844	-0.148543358	0.149588585	0.999811172	0.017290115	-0.003115654	-0.008263588	10.95919609	-3.713583946	3.739714622	0.864560088	-0.155792488	-0.413205359	-1.084716797	0.467285156	0.565673828	883.9	-40.78338814	-63.85997221	-132.006	-67
26197	0	0.504272461	-0.140075684	0.171142578	0.999847412	0.0119524	-0.001209259	-0.012630463	12.60681152	-3.50189209	4.278564453	0.597650279	-0.060466014	-0.631555118	-1.073730469	0.492919922	0.545898438	883.96	-37.24761725	-64.88269109	-134.4094328	-69
26198	0	0.51174736	-0.119682312	0.164364815	0.999917984	0.00228405	0.001864433	-0.01239872	12.79368401	-2.9920578	4.109120369	0.114205591	0.093224188	-0.619952772	-1.072998047	0.497070313	0.5	883.9	-34.21242827	-65.54415918	-137.4654125	-71
26199	0	0.539428711	-0.073303223	0.101867676	0.999855042	-0.010706902	0.006057739	-0.011760712	13.48571777	-1.832580566	2.546691895	-0.535370925	0.302901587	-0.588063974	-1.071777344	0.477050781	0.467529297	883.92	-32.10393348	-65.71046027	-141.1281907	-69
26200	0	0.339383125	-0.041954041	0.116253853	0.99963665	-0.024802208	0.005765915	-0.008788109	8.484578133	-1.048851013	2.906346321	-1.240260422	0.288330623	-0.439458599	-1.081054688	0.437744141	0.42578125	883.9	-32.26681422	-65.69917026	-144.0701268	-67
26201	0	0.334594727	-0.063964844	0.16229248	0.999781609	-0.020606995	-0.002970695	-0.001178741	8.364868164	-1.599121094	4.057312012	-1.030424423	-0.148545542	-0.058941345	-1.081054688	0.392089844	0.415283203	884.02	-34.7800654	-66.06806308	-143.9084038	-66
26202	0	0.365592003	-0.122233391	0.142677307	0.999934196	0.010807037	-0.003288269	-0.001478195	9.139800072	-3.05583477	3.566932678	0.540363557	-0.164417009	-0.073911358	-1.072998047	0.367675781	0.408203125	883.9	-33.69066607	-66.48404541	-143.7521676	-63
26203	0	0.31072998	-0.073608398	0.124633789	0.999391556	0.034470558	4.58E-05	-0.005176544	7.768249512	-1.840209961	3.115844727	1.723877119	0.002289282	-0.258879651	-1.0703125	0.367431641	0.382568359	883.92	-28.54151228	-66.79407503	-145.0630609	-63
26204	0	0.257847786	0.000589371	0.107140541	0.999897003	0.012104034	0.002589226	-0.007189751	6.446194649	0.014734268	2.678513527	0.605222391	0.12946571	-0.359499811	-1.076171875	0.363037109	0.337646484	883.9	-25.09774301	-66.90879222	-147.3021274	-61
26205	0	0.233032227	-0.014648438	0.130065918	0.999688148	-0.024547577	0.003312111	-0.003067017	5.825805664	-0.366210938	3.251647949	-1.227506316	0.165622744	-0.153366756	-1.08203125	0.336914063	0.328857422	883.98	-26.75581897	-66.72722306	-148.5597508	-60
26206	0	0.255934715	-0.140977859	0.1596632	0.999751091	-0.021713257	0.004705429	-0.001628876	6.398367882	-3.524446487	3.991580009	-1.085752657	0.235290917	-0.081450524	-1.090087891	0.306640625	0.334472656	884.06	-28.26674002	-66.33681584	-149.6280744	-58
26207	0	0.283630371	-0.125549316	0.156555176	0.999985695	0.004173279	0.00301075	-0.001300812	7.090759277	-3.13873291	3.913879395	0.20866492	0.150538198	-0.065040894	-1.101074219	0.293945313	0.322021484	883.9	-27.10771678	-66.09871146	-150.3757987	-60
26208	0	0.325667381	-0.115880013	0.166207314	0.999986649	0.004606247	0.000477791	-0.002071381	8.141684532	-2.897000313	4.155182838	0.230313335	0.023889644	-0.103569475	-1.107666016	0.296142578	0.299316406	883.98	-26.03101333	-66.15125731	-150.9795419	-63
26209	0	0.410766602	-0.103088379	0.172424316	0.999965668	0.007897377	-0.002315521	-0.000408173	10.26916504	-2.577209473	4.31060791	0.394873319	-0.115777372	-0.020408861	-1.112304688	0.298339844	0.28515625	883.96	-25.27961664	-66.40509215	-150.815608	-67
26210	0	0.469992638	-0.05877018	0.164914131	0.999939919	-0.004184723	-0.00177002	0.009907722	11.74981594	-1.469254494	4.122853279	-0.209240288	-0.088502729	0.495395933	-1.114746094	0.307128906	0.267578125	883.96	-28.25500638	-66.07083344	-148.0925448	-66
26211	0	0.423461914	-0.043823242	0.18737793	0.999663353	-0.022342682	-0.009093285	0.009479523	10.58654785	-1.095581055	4.684448242	-1.117259204	-0.454715149	0.474029216	-1.110595703	0.326416016	0.260009766	883.92	-34.13084505	-66.39667242	-144.4720376	-61
26212	0	0.538750648	-0.133823395	0.218205452	0.999939919	-0.000962257	-0.00961113	-0.005002975	13.46876621	-3.345584869	5.455136299	-0.048113818	-0.480565966	-0.250153707	-1.101318359	0.322021484	0.277099609	883.98	-34.56613253	-67.62603366	-144.1198549	-58
26213	0	0.420349121	-0.062805176	0.10357666	0.999558449	0.027854919	8.11E-05	-0.01026535	10.50872803	-1.570129395	2.589416504	1.392950619	0.004053711	-0.513342936	-1.107177734	0.295898438	0.262451172	883.98	-28.86717581	-68.23531792	-146.826737	-57
26214	0	0.380295753	0.020312309	0.044259071	0.999824524	0.018578529	-0.001013756	-0.001739502	9.507393837	0.507807732	1.106476784	0.928980542	-0.050690741	-0.086980161	-1.114746094	0.273925781	0.221923828	883.92	-26.39769102	-68.43435535	-147.1959456	-57
26215	0	0.408691406	0.008300781	0.053039551	0.999958038	0.00905323	0.000545502	0.00044632	10.21728516	0.207519531	1.32598877	0.452667735	0.02727546	0.022316286	-1.116455078	0.260986328	0.211669922	884.02	-25.37209201	-68.36456696	-147.1859357	-57
26216	0	0.293474197	-0.039593697	0.063239098	0.999992371	9.54E-05	-0.000548363	-0.003676414	7.336854935	-0.989842415	1.58097744	0.004768383	-0.0274182	-0.183821148	-1.117919922	0.245605469	0.204589844	883.9	-24.42459409	-68.60921347	-148.1947979	-57
26217	0	0.241699219	-0.065734863	0.074645996	0.999982834	0.004281044	-0.003410339	-0.001682281	6.042480469	-1.643371582	1.866149902	0.21405337	-0.1705179	-0.084114534	-1.121582031	0.219726563	0.209716797	884.06	-23.86187776	-69.0544233	-148.275603	-60
26218	0	0.229040146	-0.07714653	0.073935509	0.9998703	0.01494503	-0.004073143	0.004367828	5.726003647	-1.928663254	1.848387718	0.747283774	-0.203665943	0.218400848	-1.121582031	0.213134766	0.227294922	883.92	-23.82395457	-69.2878997	-146.488487	-63
26219	0	0.269958496	-0.070373535	0.092712402	0.999830246	0.016015053	-0.004798889	0.007717133	6.748962402	-1.759338379	2.317810059	0.800797898	-0.23995802	0.385878437	-1.127441406	0.231201172	0.254638672	883.98	-24.70967399	-69.43390964	-143.5860017	-88
26220	0	0.309400558	-0.060097694	0.109225273	0.999960899	0.006339073	-0.003768921	0.004829407	7.735013962	-1.50244236	2.730631828	0.316957764	-0.188448486	0.241473465	-1.126708984	0.257324219	0.278076172	884.06	-25.79876522	-69.59594649	-141.6520181	-63
26221	0	0.371643066	-0.107299805	0.131652832	0.999961853	0.007775307	-0.003299713	0.00207901	9.29107666	-2.682495117	3.291320801	0.388770238	-0.164987737	0.103951811	-1.130371094	0.275146484	0.305175781	883.98	-25.92260368	-69.83828712	-140.5746941	-57
26222	0	0.470096588	-0.094511032	0.14265728	0.99975872	0.021369934	-0.003059387	0.003970146	11.7524147	-2.362775803	3.566431999	1.068582522	-0.152981646	0.198523252	-1.129394531	0.299316406	0.328857422	883.96	-25.0000593	-69.96498801	-138.9546705	-57
26223	0	0.529724121	0.006896973	0.175964355	0.99997139	-0.00373745	0.003162384	0.005710602	13.24310303	0.172424316	4.399108887	-0.186874245	0.158120693	0.285532783	-1.122070313	0.344970703	0.338867188	883.96	-26.57333116	-69.36121731	-137.7354764	-58
26224	0	0.490607262	-0.056542397	0.184290886	0.99948597	-0.031064034	0.006170273	-0.004844666	12.26518154	-1.413559914	4.607272148	-1.55346753	0.308566448	-0.242274738	-1.118408203	0.357910156	0.357421875	883.98	-27.9602516	-68.99392141	-140.0602767	-60
26225	0	0.558227539	-0.066223145	0.137939453	0.999705315	-0.015575409	0.007809639	-0.016902924	13.95568848	-1.655578613	3.448486328	-0.778846954	0.39052031	-0.845229208	-1.122070313	0.327636719	0.377197266	883.92	-24.15209235	-69.05015354	-146.0488837	-60
26226	0	0.376629829	0.005862236	0.156351089	0.999749184	-0.01361084	0.00305748	-0.017467499	9.415745735	0.146555901	3.908777237	-0.680598685	0.152886728	-0.873447695	-1.134277344	0.284423828	0.378662109	883.96	-20.42442469	-69.49384507	-151.6997893	-60
26227	0	0.358032227	-0.008850098	0.142089844	0.999972343	0.002243042	-0.001574516	-0.006835938	8.950805664	-0.221252441	3.552246094	0.112153113	-0.078726527	-0.341799965	-1.142333984	0.247802734	0.390625	884	-18.28200728	-69.93059043	-153.710349	-60
26228	0	0.379090309	-0.036845207	0.060628891	0.999928474	0.011073112	0.000431061	-0.004291534	9.477257729	-0.92113018	1.515722275	0.553668656	0.021553547	-0.214581772	-1.137695313	0.243408203	0.399169922	883.96	-15.63636968	-70.03605667	-155.1763419	-59
26229	0	0.328613281	-0.006835938	0.078857422	0.999977112	0.004700661	0.003948212	-0.0027771	8.215332031	-0.170898438	1.971435547	0.235034814	0.197412077	-0.138856031	-1.137451172	0.241210938	0.399414063	883.96	-13.89630688	-69.69001312	-156.4559306	-59
26230	0	0.25028038	-0.018790245	0.08773613	0.999851227	-0.016324043	0.005446434	-0.000533104	6.257009506	-0.469756126	2.193403244	-0.816242492	0.272335157	-0.026656514	-1.139160156	0.228271484	0.397705078	883.92	-15.14643526	-69.11106143	-157.1182898	-59
26231	0	0.210510254	-0.092163086	0.108886719	0.999896049	-0.012966156	0.002736092	0.005649567	5.262756348	-2.304077148	2.722167969	-0.648330226	0.136809313	0.282488104	-1.143310547	0.2109375	0.405029297	883.98	-17.97040579	-68.63355623	-155.6859832	-57
26232	0	0.266084671	-0.144915581	0.15844059	0.999480247	0.030058861	-0.001190186	0.011583328	6.652116776	-3.622889519	3.961014748	1.503203452	-0.059519588	0.579266764	-1.146240234	0.217773438	0.421630859	883.98	-17.81586443	-68.35865395	-152.1553092	-56
26233	0	0.293273926	-0.011474609	0.180908203	0.999620438	0.024334908	-0.000534058	0.012859344	7.331848145	-0.286865234	4.522705078	1.216899111	-0.026706255	0.643048462	-1.142089844	0.280761719	0.430419922	883.9	-18.54100268	-67.95727787	-148.3718301	-57
26234	0	0.313923836	-0.051655769	0.194471359	0.999958038	-0.007597923	0.002453804	0.004317284	7.848095894	-1.291394234	4.861783981	-0.379901381	0.122691886	0.215867146	-1.143798828	0.313720703	0.456298828	883.98	-20.29534256	-67.52474044	-147.4170126	-62
26235	0	0.328063965	-0.079284668	0.213806152	0.999862671	-0.016272545	0.002311707	0.001758575	8.201599121	-1.982116699	5.345153809	-0.813664299	0.115590591	0.087932777	-1.153808594	0.312255859	0.493896484	883.92	-22.35186887	-67.19782186	-147.2093361	-58
26236	0	0.403629303	-0.098776817	0.216992378	0.999936104	-0.009654045	-0.001020432	0.005775452	10.09073257	-2.469420433	5.424809456	-0.482712521	-0.051022661	0.288778724	-1.166015625	0.304199219	0.546386719	883.9	-24.97912942	-67.02968735	-145.5599667	-56
26237	0	0.539245605	-0.102416992	0.211303711	0.999933243	0.007313728	-0.007694244	0.004486084	13.48114014	-2.560424805	5.282592773	0.365694512	-0.384720736	0.224309165	-1.174804688	0.3203125	0.608154297	883.96	-26.13367175	-67.5941664	-143.4020267	-55
26238	0	0.626346588	-0.073281288	0.18466568	0.999799728	0.019917488	-0.00150013	-0.000790596	15.6586647	-1.832032204	4.616641998	0.995940739	-0.075011481	-0.039532433	-1.182373047	0.355957031	0.682373047	883.96	-23.79849323	-67.7819142	-143.4603381	-57
26239	0	0.443603516	0.004455566	0.067321777	0.999862671	0.015328407	0.005477905	0.002849579	11.09008789	0.11138916	1.683044434	0.766455252	0.273907731	0.142485429	-1.206298828	0.407226563	0.725097656	884.02	-22.14323406	-67.07568262	-143.3505854	-63
26240	0	0.412243843	0.038794518	0.037733078	0.999943733	0.001034737	0.005395889	0.008987427	10.30609608	0.969862938	0.94332695	0.051737789	0.269799454	0.449379649	-1.228759766	0.482421875	0.762695313	883.9	-23.62430401	-66.11180805	-141.6029527	-69
26241	0	0.38470459	0.001647949	0.066894531	0.999894142	-0.012184143	0.005757332	0.005409241	9.617614746	0.04119873	1.672363281	-0.609228565	0.28787671	0.270471542	-1.244384766	0.557373047	0.80859375	883.96	-25.62128265	-65.26542572	-140.9322841	-72
26242	0	0.279602051	-0.037568092	0.063400269	0.99987793	-0.01431942	0.005948067	0.001440048	6.99005127	-0.939202309	1.585006714	-0.715999933	0.297415357	0.072005321	-1.258789063	0.608154297	0.847900391	883.92	-26.89815623	-64.59524741	-141.3209362	-63
26243	0	0.201843262	-0.051696777	0.065856934	0.999972343	-0.005916595	0.001381874	0.00415802	5.046081543	-1.292419434	1.64642334	-0.295832446	0.069094328	0.207902879	-1.266357422	0.661132813	0.88671875	883.96	-28.27268621	-64.24877722	-140.5381107	-58
26244	0	0.212363243	-0.067416191	0.080127716	0.999951363	0.007019997	-0.002174377	0.006482124	5.309081078	-1.685404778	2.003192902	0.35100545	-0.108720612	0.324111404	-1.256347656	0.743652344	0.916259766	883.96	-29.03432456	-64.12561881	-138.7893468	-57
26245	0	0.239868164	-0.065795898	0.091918945	0.999881744	0.014657021	-0.003364563	0.00315094	5.996704102	-1.644897461	2.297973633	0.732879866	-0.168234769	0.157553197	-1.221191406	0.849365234	0.911376953	883.9	-28.36760002	-64.30465673	-137.6523014	-65
26246	0	0.292760849	-0.068756104	0.116035461	0.99985218	0.016305923	-0.005325317	-0.000976563	7.319021225	-1.718902588	2.900886536	0.81533629	-0.266278971	-0.048830528	-1.187744141	0.952636719	0.892578125	883.92	-26.86096067	-64.91122172	-137.2360862	-69
26247	0	0.374694824	-0.066772461	0.148376465	0.999879837	0.014492989	-0.00415802	-0.003372192	9.367370605	-1.669311523	3.709411621	0.724678262	-0.207909273	-0.168616328	-1.153320313	1.036376953	0.85546875	883.92	-24.87093099	-65.52240044	-137.5818221	-59
26248	0	0.502091408	-0.063229561	0.151890755	0.999950409	0.006334305	-0.00265789	-0.007199287	12.55228519	-1.580739021	3.797268867	0.316720467	-0.132896709	-0.359970311	-1.122802734	1.100341797	0.814453125	883.9	-22.70804944	-66.14991328	-139.1384753	-55
26249	0	0.537475586	-0.038024902	0.155517578	0.999856949	-0.013323784	0.002498627	-0.010047913	13.43688965	-0.950622559	3.887939453	-0.666220811	0.124937265	-0.502419474	-1.111572266	1.125976563	0.783447266	883.96	-21.53267996	-66.33698666	-142.0691488	-55
26250	0	0.63482666	-0.079040527	0.170410156	0.999669075	-0.022167206	-0.000720978	-0.012973785	15.8706665	-1.976013184	4.260253906	-1.108482288	-0.036052857	-0.648760671	-1.117919922	1.106445313	0.78515625	883.92	-20.89506402	-66.97409082	-145.507939	-55
26251	0	0.453125	-0.022583008	0.12902832	0.999423027	-0.030708313	0.006516457	-0.012954712	11.328125	-0.564575195	3.225708008	-1.535710932	0.325885491	-0.647860165	-1.132568359	1.063476563	0.792480469	883.98	-20.4963892	-66.82360984	-149.7441174	-57
26252	0	0.274353027	-0.020080566	0.163085938	0.999278069	-0.037539482	-0.000423431	-0.005661011	6.858825684	-0.50201416	4.077148438	-1.877425323	-0.021176659	-0.283118581	-1.153320313	0.998779297	0.807373047	884.02	-23.37479293	-67.13151676	-151.276021	-64
26253	0	0.364074707	-0.09173584	0.16986084	0.999907494	-0.012615204	-0.004439354	-0.002334595	9.101867676	-2.293395996	4.246520996	-0.630779569	-0.221974516	-0.116733322	-1.149658203	0.951171875	0.848144531	883.9	-24.68111258	-67.72337452	-151.4233247	-63
26254	0	0.376403809	-0.073181152	0.119384766	0.999898911	0.013199806	0.00093174	-0.005023956	9.410095215	-1.829528809	2.984619141	0.66001235	0.046588546	-0.251206203	-1.137695313	0.952636719	0.821777344	883.9	-21.72054881	-67.8702193	-152.9852613	-56
26255	0	0.286928177	-0.013161659	0.118637085	0.999965668	0.003596306	0.002189636	-0.006781578	7.173204422	-0.329041481	2.965927124	0.179817202	0.109482974	-0.339082504	-1.146240234	0.967773438	0.749755859	884.02	-19.24586379	-67.92395357	-155.2012429	-61
26256	0	0.228803635	-0.053915977	0.115119934	0.999921799	-0.012018204	0.001465797	-0.002918243	5.720090866	-1.347899437	2.877998352	-0.600925722	0.073291766	-0.145915943	-1.149658203	0.950195313	0.711669922	883.96	-19.65611821	-67.89113294	-156.2359671	-56
26257	0	0.215332031	-0.090881348	0.114318848	0.999997139	0.001464844	-0.000884056	0.001377106	5.383300781	-2.272033691	2.857971191	0.073242246	-0.04420284	0.068855341	-1.139160156	0.932128906	0.692626953	883.9	-19.8934489	-67.94443556	-155.7970038	-55
26258	0	0.250714302	-0.094285965	0.136305809	0.999873161	0.015727997	-0.001836777	-0.001045227	6.267857552	-2.357149124	3.407645226	0.786432852	-0.091842692	-0.052263546	-1.117675781	0.939941406	0.651123047	883.9	-17.94016926	-68.19048635	-155.9589449	-55
26259	0	0.275939941	-0.077636719	0.14453125	0.999844551	0.01701355	-0.002051353	-0.003974915	6.898498535	-1.940917969	3.61328125	0.850721373	-0.102572964	-0.19875598	-1.100830078	0.947509766	0.595458984	884.02	-15.02222402	-68.55009857	-156.9991486	-63
26260	0	0.33861351	-0.065000534	0.190616608	0.999929428	0.011520386	-0.00265789	-0.001020432	8.465337753	-1.625013351	4.765415192	0.576032808	-0.132897635	-0.051022774	-1.083496094	0.946533203	0.543457031	883.92	-13.57122733	-68.87525323	-157.1383406	-63
26261	0	0.42590332	-0.051208496	0.22052002	0.99998188	-0.001228333	-0.003184319	0.004951477	10.64758301	-1.280212402	5.513000488	-0.061416996	-0.159216887	0.247575345	-1.052490234	0.9453125	0.501953125	883.9	-15.34562919	-69.08511095	-155.3860277	-55
26262	0	0.492357254	-0.03925705	0.206492424	0.999898911	-0.011223793	-0.001587868	0.008556366	12.30893135	-0.981426239	5.1623106	-0.561208519	-0.079396056	0.427832682	-1.016601563	0.933105469	0.486816406	883.98	-19.17967865	-68.96558566	-152.6556442	-57
26263	0	0.503295898	-0.072143555	0.240966797	0.999897003	-0.010806084	-0.006851196	0.006481171	12.58239746	-1.803588867	6.024169922	-0.540322711	-0.342571561	0.324069644	-0.978515625	0.914306641	0.483398438	883.92	-22.94735755	-69.42721096	-149.9484541	-63
26264	0	0.521136284	-0.089550018	0.231909752	0.999909401	0.012740135	-0.004253387	0.000587463	13.0284071	-2.238750458	5.797743797	0.637025951	-0.21267578	0.029374054	-0.944580078	0.884765625	0.478515625	884	-22.11838352	-69.84532795	-149.2776929	-70
26265	0	0.388793945	-0.039428711	0.13671875	0.999652863	0.026200294	0.002605438	-0.000106812	9.719848633	-0.985717773	3.41796875	1.310166134	0.130286968	-0.005341193	-0.930664063	0.857910156	0.423095703	883.92	-18.76141499	-69.56338055	-149.6597127	-60
26266	0	0.380880356	-0.011431694	0.091456413	0.999707222	0.02191925	0.005655289	0.008475304	9.522008896	-0.285792351	2.286410332	1.096069275	0.282791977	0.423806459	-0.926513672	0.837646484	0.359130859	883.96	-18.08430395	-68.63735028	-147.7006235	-57
26267	0	0.438964844	-0.014831543	0.062988281	0.999806404	0.011489868	0.011845589	0.010639191	10.97412109	-0.370788574	1.574707031	0.574530328	0.592317497	0.53199372	-0.911132813	0.830078125	0.307617188	883.92	-18.52049843	-66.96665607	-145.8117285	-57
26268	0	0.304977417	-0.012729645	0.059660912	0.999759674	-0.011259079	0.014842033	0.01150322	7.624435425	-0.318241119	1.491522789	-0.562998937	0.742160973	0.575206943	-0.905517578	0.816650391	0.274169922	883.86	-21.2559456	-64.92334259	-144.231828	-59
26269	0	0.22644043	-0.055236816	0.088562012	0.999526024	-0.023899078	0.010293007	0.016433716	5.661010742	-1.38092041	2.214050293	-1.195142638	0.514731624	0.82181556	-0.900146484	0.799072266	0.289550781	883.96	-26.51763594	-63.08726963	-141.4293308	-69
26270	0	0.208907127	-0.098383904	0.080470085	0.999700546	-0.012057304	0.006783485	0.020178795	5.222678185	-2.459597588	2.011752129	-0.602925379	0.339208117	1.009040425	-0.886474609	0.792236328	0.317871094	883.96	-31.01349085	-61.2981231	-137.9151062	-69
26271	0	0.2265625	-0.099365234	0.091369629	0.999785423	0.00712204	0.003079414	0.019180298	5.6640625	-2.484130859	2.284240723	0.356127402	0.153981706	0.95908333	-0.870849609	0.802734375	0.327636719	883.92	-33.15151308	-59.83717022	-134.5304755	-61
26272	0	0.286286354	-0.090885162	0.11359787	0.999715805	0.019954681	-0.000353813	0.013014793	7.157158852	-2.272129059	2.839946747	0.997828496	-0.017692333	0.650801256	-0.857421875	0.823974609	0.308105469	883.98	-33.00754969	-59.06395268	-132.0488961	-61
26273	0	0.365783691	-0.089538574	0.133666992	0.999609947	0.027393341	-0.003508568	0.004085541	9.144592285	-2.238464355	3.341674805	1.369845035	-0.175451187	0.204303583	-0.853027344	0.841064453	0.292236328	883.92	-30.8768069	-59.16654383	-130.8799501	-64
26274	0	0.498973846	-0.056736946	0.148217201	0.999572754	0.028920174	-0.003603935	-0.002218246	12.47434616	-1.418423653	3.705430031	1.446214645	-0.180222429	-0.110928121	-0.862548828	0.854248047	0.260253906	883.9	-27.51393255	-59.66557882	-130.9409375	-63
26275	0	0.496765137	-0.014709473	0.151611328	0.999948502	0.008881569	0.000263214	-0.004711151	12.41912842	-0.367736816	3.790283203	0.444085932	0.013160927	-0.235561527	-0.883300781	0.863525391	0.232177734	883.96	-25.6239175	-59.9002551	-131.9511152	-60
26276	0	0.624145508	-0.047607422	0.193847656	0.999910355	-0.008201599	-0.005351067	-0.009113312	15.6036377	-1.190185547	4.846191406	-0.410092188	-0.26756131	-0.45567918	-0.906494141	0.859863281	0.233886719	884.06	-25.34230693	-60.92980105	-133.3518154	-60
26277	0	0.512756348	-0.01348877	0.189208984	0.999767303	-0.017474174	0.002342224	-0.01235199	12.81890869	-0.337219238	4.730224609	-0.873776219	0.117120253	-0.617647197	-0.934082031	0.841552734	0.256835938	883.96	-24.777796	-61.31658093	-136.2754324	-60
26278	0	0.280817986	-0.003909111	0.180184364	0.999572754	-0.027838707	0.00224781	-0.008551598	7.020449638	-0.097727776	4.504609108	-1.392133352	0.112406506	-0.427640703	-0.965820313	0.812255859	0.277832031	884.02	-26.09422179	-61.53327869	-138.4006686	-57
26279	0	0.277709961	-0.061218262	0.167358398	0.999747276	-0.021869659	-0.00366497	-0.003448486	6.942749023	-1.530456543	4.183959961	-1.093574773	-0.183263904	-0.172438792	-0.991210938	0.787109375	0.318359375	884.06	-28.25282146	-62.11370228	-138.790175	-60
26280	0	0.35175705	-0.125564575	0.156279564	0.999945641	-0.000647545	-0.002325058	-0.010061264	8.793926239	-3.13911438	3.906989098	-0.032377821	-0.116254973	-0.503072178	-1.007324219	0.770507813	0.343261719	884.06	-26.54833828	-62.90578073	-140.7906178	-65
26281	0	0.338562012	-0.081054688	0.139282227	0.999815941	0.003570557	0.003453255	-0.018520355	8.464050293	-2.026367188	3.482055664	0.178538774	0.172673317	-0.926074517	-1.034179688	0.751708984	0.33203125	883.92	-21.94034248	-63.44018834	-145.4863008	-67
26282	0	0.24661541	-0.044534683	0.12033844	0.999603271	-0.024815559	0.004673958	-0.012426376	6.165385246	-1.113367081	3.008460999	-1.240941825	0.233728753	-0.621400868	-1.072021484	0.713623047	0.314453125	883.98	-21.6844263	-63.49293597	-148.9417699	-66
26283	0	0.221008301	-0.088745117	0.131591797	0.999598503	-0.02828598	0.000283241	-0.00088501	5.52520752	-2.21862793	3.289794922	-1.414487879	0.014163955	-0.044256398	-1.089599609	0.677246094	0.338378906	883.92	-24.66324869	-63.52089552	-149.2320726	-60
26284	0	0.240756035	-0.144859314	0.160401344	0.999996185	-0.002006531	-0.001576424	0.000610352	6.018900871	-3.621482849	4.010033607	-0.100326653	-0.078821273	0.030517613	-1.091796875	0.664550781	0.364990234	883.92	-25.13180183	-63.66900243	-148.965339	-57
26285	0	0.247558594	-0.108947754	0.153808594	0.999624252	0.027215004	-0.002132416	-0.002094269	6.188964844	-2.723693848	3.845214844	1.360920256	-0.106634113	-0.104726526	-1.091796875	0.670898438	0.350341797	883.96	-21.72429625	-63.99880017	-149.2870459	-65
26286	0	0.280944824	-0.084838867	0.207824707	0.999272346	0.037872314	-0.00440979	0.000915527	7.023620605	-2.12097168	5.195617676	1.894075098	-0.220542991	0.045787472	-1.089355469	0.687988281	0.303222656	883.98	-17.90496277	-64.44393496	-148.7075789	-59
26287	0	0.367858887	-0.073608398	0.24041748	0.999423981	0.033234596	-0.005645752	0.003746033	9.196472168	-1.840209961	6.010437012	1.662048599	-0.282341752	0.187337568	-1.077880859	0.715576172	0.254882813	884.08	-15.31949171	-64.94245568	-147.3520638	-57
26288	0	0.442635536	-0.039003372	0.207489014	0.99977684	0.020284653	-0.005253792	0.002011299	11.0658884	-0.975084305	5.187225342	1.014307554	-0.262708995	0.100572385	-1.06640625	0.736572266	0.212890625	883.98	-13.76579586	-65.46816919	-146.499254	-57
26289	0	0.420715332	-0.009643555	0.19934082	0.999956131	-0.007452965	-0.005638123	-0.000389099	10.5178833	-0.241088867	4.983520508	-0.372653673	-0.281910239	-0.01945524	-1.059326172	0.73828125	0.192382813	883.96	-14.83445098	-66.10580572	-146.2585605	-57
26290	0	0.551851273	-0.060805321	0.222642899	0.99981308	-0.017216682	-0.007100105	-0.005084038	13.79628181	-1.520133018	5.566072464	-0.860887599	-0.355027318	-0.254217681	-1.052001953	0.720947266	0.218994141	883.96	-15.96462771	-67.04612119	-147.1727231	-53
26291	0	0.474121094	-0.067077637	0.151000977	0.999853134	-0.015048027	0.001804352	-0.007907867	11.85302734	-1.676940918	3.775024414	-0.752438003	0.090221985	-0.395412632	-1.057861328	0.690673828	0.233154297	883.86	-15.45152528	-67.09495563	-149.5998885	-51
26292	0	0.418914795	-0.030060768	0.097718239	0.99987793	-0.014377594	0.006020546	0.000608444	10.47286987	-0.751519203	2.442955971	-0.718908857	0.301039508	0.030423445	-1.065917969	0.658203125	0.236328125	883.98	-16.76764253	-66.41847675	-149.9615348	-53
26293	0	0.422302246	-0.012023926	0.077453613	0.999863625	-0.010974884	0.007210732	0.009960175	10.55755615	-0.300598145	1.936340332	-0.548769049	0.3605529	0.498031278	-1.062744141	0.645019531	0.217285156	883.86	-19.82355751	-65.28633938	-147.9935126	-52
26294	0	0.33652401	-0.020541191	0.078600883	0.9998312	-0.010513306	0.006725311	0.013459206	8.413100243	-0.513529778	1.965022087	-0.525694805	0.336284449	0.672998075	-1.048583984	0.653076172	0.193115234	884.02	-23.41833333	-64.01601862	-145.3505345	-52
26295	0	0.275756836	-0.044555664	0.098022461	0.999881744	-0.005064964	0.002037048	0.014362335	6.893920898	-1.113891602	2.450561523	-0.25325818	0.101856425	0.718145019	-1.034912109	0.663330078	0.180175781	884.02	-26.7652117	-63.12283385	-142.2631728	-54
26296	0	0.259023666	-0.054099083	0.084719658	0.999849319	0.004404068	0.001015663	0.016757011	6.47559166	-1.352477074	2.117991447	0.220214456	0.050785707	0.83789264	-1.01171875	0.673339844	0.172363281	883.96	-29.39932206	-62.13401273	-138.7326549	-52
26297	0	0.251037598	-0.062805176	0.094360352	0.999773979	0.013130188	0.000969887	0.016647339	6.275939941	-1.570129395	2.359008789	0.6565587	0.048497981	0.83242945	-0.988769531	0.692138672	0.146728516	883.96	-30.82251338	-61.09963396	-135.4087988	-54
26298	0	0.261176109	-0.065114021	0.122629166	0.999821663	0.01486969	0.001298904	0.011515617	6.529402733	-1.627850533	3.065729141	0.743528544	0.064949069	0.57581498	-0.968017578	0.710693359	0.115722656	883.92	-30.97930691	-60.31331741	-133.2776767	-60
26299	0	0.280700684	-0.085449219	0.156066895	0.999928474	0.011249542	0.000706673	0.003833771	7.01751709	-2.136230469	3.901672363	0.562490401	0.035334468	0.191693067	-0.958496094	0.714599609	0.089355469	883.92	-30.25735293	-60.03779261	-132.6254966	-61
26300	0	0.321640968	-0.097148895	0.171661377	0.999944687	0.010288239	-0.00032711	-0.001889229	8.041024208	-2.428722382	4.291534424	0.514421317	-0.016355813	-0.094463165	-0.959960938	0.703613281	0.073242188	883.9	-28.76240165	-60.19376095	-132.9918434	-57
26301	0	0.376159668	-0.091430664	0.183959961	0.999946594	0.00798893	-0.001155853	-0.006343842	9.403991699	-2.285766602	4.598999023	0.399453505	-0.057793679	-0.31719765	-0.970703125	0.684326172	0.066894531	883.96	-26.8005137	-60.6661435	-134.1968599	-55
26302	0	0.432694435	-0.072753906	0.191882133	0.999943733	-0.000562668	-0.002279282	-0.010274887	10.81736088	-1.818847656	4.797053337	-0.028133913	-0.113966191	-0.513753866	-0.983642578	0.658691406	0.063964844	883.96	-25.13273662	-61.43377182	-136.1768647	-57
26303	0	0.454772949	-0.085632324	0.213745117	0.999895096	-0.004569054	-0.00308609	-0.013328552	11.36932373	-2.140808105	5.34362793	-0.228460605	-0.154309855	-0.666450723	-1.001220703	0.624511719	0.079101563	883.96	-23.2882671	-62.39984253	-138.8610432	-57
26304	0	0.559340477	-0.069139481	0.187515259	0.999809265	-0.006040573	-0.005867958	-0.017599106	13.98351192	-1.728487015	4.68788147	-0.30204782	-0.29341652	-0.880011127	-1.020507813	0.581542969	0.094970703	883.9	-20.75810055	-63.79997716	-142.4735938	-55
26305	0	0.417663574	-0.027526855	0.163513184	0.999650002	-0.021671295	-0.00247097	-0.014923096	10.44158936	-0.688171387	4.08782959	-1.083690934	-0.123562894	-0.746241671	-1.039550781	0.523681641	0.120605469	883.98	-20.08319736	-64.68274396	-145.9817247	-53
26306	0	0.293095589	-0.028090477	0.172053337	0.999501228	-0.031229019	-0.003606796	-0.002717972	7.327389717	-0.702261925	4.301333427	-1.561710184	-0.180369752	-0.135921151	-1.052246094	0.476318359	0.153808594	883.92	-23.32242844	-65.19996115	-146.3605537	-52
26307	0	0.372375488	-0.080322266	0.145202637	0.999902725	-0.012564659	-0.003902435	0.004459381	9.309387207	-2.008056641	3.630065918	-0.628253164	-0.195128042	0.222976227	-1.049560547	0.450439453	0.198242188	883.98	-26.13282275	-65.410788	-144.8578609	-53
26308	0	0.421236992	-0.062090874	0.116025925	0.999958992	0.008339882	0.002033234	0.002686501	10.5309248	-1.552271843	2.900648117	0.416999718	0.101663053	0.134326839	-1.044921875	0.443847656	0.212890625	884.04	-25.51448183	-65.08797562	-144.4910381	-53
26309	0	0.338806152	0.001525879	0.115966797	0.999966621	-0.004116058	0.006806374	-0.001598358	8.470153809	0.038146973	2.899169922	-0.205805175	0.340322413	-0.079918784	-1.046386719	0.432861328	0.196777344	883.92	-24.88042268	-64.48282414	-145.7133423	-53
26310	0	0.26940155	-0.034554482	0.122411728	0.999613762	-0.027477264	0.00384903	-0.000805855	6.735038757	-0.863862038	3.060293198	-1.3740397	0.192476198	-0.040297916	-1.057128906	0.406982422	0.202392578	884.02	-27.40287079	-64.1495975	-146.4084323	-50
26311	0	0.293518066	-0.106079102	0.130371094	0.999851227	-0.017207146	8.39E-05	6.10E-05	7.33795166	-2.651977539	3.259277344	-0.860399748	0.004196374	0.003051908	-1.063476563	0.379150391	0.233398438	883.96	-29.33251438	-64.15845857	-146.4574546	-47
26312	0	0.293294907	-0.124825478	0.144276619	0.999940872	0.010448456	-0.001940727	-0.002081871	7.332372665	-3.12063694	3.606915474	0.522433002	-0.097038258	-0.104095586	-1.067626953	0.359863281	0.249267578	883.9	-27.88026515	-64.48593363	-146.7432403	-46
26313	0	0.30267334	-0.08807373	0.147399902	0.99973011	0.022705078	-0.003771782	-0.003067017	7.566833496	-2.201843262	3.684997559	1.135355944	-0.188606047	-0.153364613	-1.079101563	0.3515625	0.264892578	883.98	-24.97871082	-65.04524738	-147.0768209	-46
26314	0	0.301896095	-0.057305336	0.146518707	0.999873161	0.015371323	-0.003892899	-0.001381874	7.547402382	-1.4326334	3.662967682	0.768598587	-0.194653148	-0.069096622	-1.0859375	0.345458984	0.274414063	883.86	-23.25794854	-65.53130845	-147.033566	-47
26315	0	0.314147949	-0.067199707	0.159729004	0.999979019	0.004536629	-0.004283905	0.001194	7.85369873	-1.679992676	3.993225098	0.226832962	-0.214196692	0.059700414	-1.093505859	0.347900391	0.300048828	883.9	-23.40681849	-65.94017954	-146.3006872	-46
26316	0	0.328281403	-0.084566116	0.169166565	0.999987602	0.002490044	-0.004123688	0.001029968	8.207035065	-2.114152908	4.229164124	0.124502686	-0.206185221	0.051498621	-1.096679688	0.348388672	0.337158203	883.96	-23.75363301	-66.33614749	-145.6101838	-46
26317	0	0.338439941	-0.087890625	0.186828613	0.999969482	0.005131721	-0.005783081	-0.001094818	8.460998535	-2.197265625	4.670715332	0.256588683	-0.289156991	-0.054741462	-1.102050781	0.355224609	0.37109375	883.92	-23.47531058	-67.00074006	-145.2728357	-48
26318	0	0.36715126	-0.076418877	0.175701141	0.999946594	0.008446693	-0.005928993	-0.000461578	9.178781509	-1.910471916	4.392528534	0.422342183	-0.296454934	-0.023079329	-1.108154297	0.366699219	0.416015625	883.9	-22.99289363	-67.65112583	-144.746686	-48
26319	0	0.369628906	-0.031982422	0.143005371	0.999970436	0.003292084	-0.006182671	0.003063202	9.240722656	-0.799560547	3.575134277	0.16460579	-0.309136541	0.153161587	-1.109619141	0.388916016	0.454101563	883.98	-24.06195998	-68.16619215	-143.1848113	-49
26320	0	0.54518795	-0.072225571	0.157308578	0.999903679	-0.00099659	-0.013807297	-3.62E-05	13.62969875	-1.805639267	3.932714462	-0.049831075	-0.690386889	-0.001812039	-1.102294922	0.415039063	0.497070313	883.92	-25.85151846	-69.61056642	-141.3865509	-51
26321	0	0.557739258	-0.055297852	0.110412598	0.999969482	0.003457069	-0.003620148	-0.005977631	13.94348145	-1.382446289	2.760314941	0.172855221	-0.181009219	-0.298884559	-1.08984375	0.430419922	0.552001953	883.96	-24.1895247	-70.28793252	-142.7307165	-50
26322	0	0.396814346	-0.019999504	0.057648659	0.999990463	-0.000662804	-0.00083065	-0.004061699	9.920358658	-0.499987602	1.441216469	-0.03314028	-0.041532638	-0.203085542	-1.097412109	0.439453125	0.562988281	884.02	-23.12543056	-70.57671704	-143.9365222	-48
26323	0	0.439758301	0.013000488	0.058166504	0.999958992	-0.000778198	-0.002394676	0.008602142	10.99395752	0.325012207	1.454162598	-0.038910433	-0.119735414	0.430112876	-1.098144531	0.450439453	0.58203125	883.96	-26.01791924	-70.43609658	-140.9618156	-50
26324	0	0.438437462	0.007575035	0.051872253	0.999949455	0.001664162	0.000442505	0.009835243	10.96093655	0.189375877	1.296806335	0.083209467	0.022125612	0.491770333	-1.088623047	0.491699219	0.595214844	883.96	-28.49007622	-69.90020653	-138.1269713	-51
26325	0	0.344360352	0.01739502	0.056396484	0.99997139	0.001069069	0.00087738	0.007427216	8.609008789	0.434875488	1.409912109	0.053453954	0.043869436	0.371364312	-1.080566406	0.523925781	0.589111328	884.04	-30.18449505	-69.4250055	-136.1823687	-50
26326	0	0.349243164	0.011108398	0.038757324	0.999982834	-0.000617027	-0.000800133	0.005695343	8.731079102	0.277709961	0.968933105	-0.030851536	-0.040006861	0.284768739	-1.072265625	0.550048828	0.592285156	884.08	-31.81019959	-69.20164103	-134.5116442	-47
26327	0	0.374816895	-0.003479004	0.031799316	0.999993324	-0.000408173	0.000149727	0.003482819	9.370422363	-0.086975098	0.79498291	-0.020408672	0.007486359	0.174141288	-1.068603516	0.569580078	0.599121094	883.92	-32.66725659	-69.01325927	-133.6353781	-45
26328	0	0.375254631	-0.006619453	0.045578003	0.999997139	0.00048542	-0.000766754	0.001982689	9.381365776	-0.165486336	1.139450073	0.024271031	-0.038337738	0.099134524	-1.064697266	0.584716797	0.603271484	883.92	-33.18282612	-69.00656042	-133.0140809	-43
26329	0	0.373657227	-0.011779785	0.049682617	0.999993324	0.001609802	-0.002898216	0.000782013	9.341430664	-0.294494629	1.24206543	0.080490268	-0.144911093	0.039100723	-1.060546875	0.593261719	0.610839844	883.92	-33.62359795	-69.2810614	-132.336952	-43
26330	0	0.375429153	-0.016671181	0.045910835	0.999985695	0.003713608	-0.00356102	-0.000860214	9.385728836	-0.416779518	1.147770882	0.185681232	-0.178051802	-0.043010907	-1.051513672	0.6015625	0.609619141	883.92	-33.53045458	-69.72547942	-131.9725594	-43
26331	0	0.368041992	-0.020324707	0.053100586	0.999978065	0.003814697	-0.004202843	-0.003143311	9.201049805	-0.508117676	1.327514648	0.190736202	-0.21014361	-0.15716663	-1.049316406	0.603759766	0.612304688	884.02	-32.93650134	-70.37809231	-132.1302426	-43
26332	0	0.376913071	-0.031187057	0.056529999	0.99997139	0.002653122	-0.005049706	-0.004901886	9.422826767	-0.779676437	1.413249969	0.132657348	-0.252487656	-0.24509661	-1.049316406	0.6015625	0.62109375	883.92	-32.10873016	-71.22212343	-132.6756607	-43
26333	0	0.389770508	-0.04864502	0.066650391	0.999961853	0.003613472	-0.005050659	-0.006103516	9.744262695	-1.216125488	1.666259766	0.180675882	-0.25253615	-0.305179638	-1.044433594	0.594970703	0.626953125	883.9	-30.74316915	-72.13543827	-133.6692524	-42
26334	0	0.403153419	-0.053233147	0.077210426	0.999959946	0.005070686	-0.003897667	-0.006230354	10.07883549	-1.330828667	1.930260658	0.253537686	-0.194885936	-0.311521855	-1.044189453	0.586425781	0.636230469	883.96	-28.83271354	-72.93231005	-135.0580215	-42
26335	0	0.395629883	-0.049255371	0.080871582	0.99998188	0.003799438	-0.002326012	-0.003837585	9.89074707	-1.231384277	2.021789551	0.189973018	-0.116301253	-0.191880378	-1.046386719	0.58203125	0.63671875	883.98	-27.46061354	-73.42860476	-136.0322965	-41
26336	0	0.383845329	-0.040466309	0.085938454	0.999998093	0.000274658	-0.001479149	-4.10E-05	9.596133232	-1.011657715	2.148461342	0.013732915	-0.073957471	-0.002050401	-1.046142578	0.577636719	0.628417969	883.9	-27.60780915	-73.63416483	-135.8422785	-40
26337	0	0.40020752	-0.0546875	0.094421387	0.999997139	-0.001091003	-3.72E-05	0.001663208	10.00518799	-1.3671875	2.360534668	-0.054550207	-0.001859666	0.083160455	-1.043701172	0.575439453	0.631347656	883.96	-28.24284495	-73.60084615	-135.3091946	-40
26338	0	0.394037247	-0.059625626	0.095421791	0.999995232	0.001068115	0.002433777	0.000852585	9.850931168	-1.49064064	2.385544777	0.053405831	0.121689001	0.042629297	-1.041503906	0.577392578	0.628173828	883.96	-27.9025001	-73.35976632	-135.5340823	-40
26339	0	0.387329102	-0.058837891	0.10333252	0.999991417	0.000984192	0.003716469	-0.000911713	9.683227539	-1.470947266	2.583312988	0.049209723	0.185823924	-0.045585751	-1.041259766	0.577392578	0.619628906	883.9	-26.76815557	-73.078603	-136.5965108	-41
26340	0	0.360572815	-0.032817841	0.111145973	0.999936104	-0.009232521	0.00633049	-0.001273155	9.014320374	-0.820446014	2.77864933	-0.46163582	0.316531202	-0.063659107	-1.050292969	0.573242188	0.606201172	883.96	-26.28696269	-72.5419105	-138.1958757	-41
26341	0	0.309631348	-0.07611084	0.130859375	0.999838829	-0.016708374	0.006505013	0.000610352	7.740783691	-1.902770996	3.271484375	-0.835463522	0.325268076	0.030519215	-1.058349609	0.547363281	0.605957031	883.96	-27.28083512	-71.88799852	-139.158583	-41
26342	0	0.321931839	-0.09183979	0.139825821	0.999962807	-0.006731033	0.004644394	0.002669334	8.048295975	-2.295994759	3.495645523	-0.336555817	0.23222256	0.133468367	-1.064941406	0.536621094	0.610107422	883.98	-28.06008636	-71.31356242	-139.1510844	-42
26343	0	0.374694824	-0.102783203	0.13269043	0.999979019	0.004181862	0.004703522	0.000999451	9.367370605	-2.569580078	3.317260742	0.209094509	0.235177678	0.049972872	-1.067138672	0.536621094	0.598876953	883.98	-27.09271089	-70.81873321	-139.6687575	-43
26344	0	0.41305542	-0.068685532	0.120554924	0.999964714	0.006220818	0.005519867	0.000631332	10.3263855	-1.71713829	3.0138731	0.311044485	0.275996547	0.031566986	-1.067382813	0.545410156	0.583984375	884.02	-25.71296406	-70.25489864	-140.3747406	-43
26345	0	0.384338379	-0.055847168	0.115905762	0.999974251	-0.002437592	0.005265236	0.004085541	9.608459473	-1.396179199	2.897644043	-0.121880601	0.263264005	0.204278753	-1.072021484	0.556152344	0.560546875	883.9	-26.36611213	-69.54155018	-139.9717218	-43
26346	0	0.374878883	-0.073106766	0.120246887	0.99995327	-0.003274918	0.003166199	0.008428574	9.371972084	-1.827669144	3.00617218	-0.163748385	0.158312359	0.421435128	-1.069824219	0.562744141	0.557128906	883.96	-28.50991297	-68.80807939	-138.0793904	-45
26347	0	0.359008789	-0.054321289	0.139282227	0.999945641	0.004081726	0.002289772	0.009296417	8.975219727	-1.358032227	3.482055664	0.204089989	0.114490669	0.464829254	-1.061035156	0.579833984	0.549560547	883.96	-30.0276848	-68.09111704	-135.9459121	-45
26348	0	0.379122734	-0.03868866	0.141799927	0.999968529	0.006066322	0.003128052	0.003804207	9.478068352	-0.967216492	3.544998169	0.303319203	0.15640418	0.190212278	-1.052734375	0.60546875	0.535644531	883.96	-29.77776007	-67.59581033	-135.4599938	-45
26349	0	0.36932373	-0.057922363	0.122375488	0.999969482	0.006459236	0.004051208	-0.001106262	9.233093262	-1.448059082	3.059387207	0.322965002	0.202562429	-0.055313658	-1.052734375	0.614013672	0.517822266	884.06	-28.18504498	-67.28358533	-136.3774519	-45
26350	0	0.357666016	-0.057678223	0.128356934	0.999970436	0.007213593	0.002372742	0.000205994	8.941650391	-1.441955566	3.20892334	0.360683096	0.118638226	0.010299782	-1.057128906	0.618408203	0.497802734	884.06	-27.06342843	-67.06340191	-136.6941164	-45
26351	0	0.361572266	-0.054992676	0.133422852	0.99997139	0.00697422	0.002391815	-0.000984192	9.039306641	-1.374816895	3.335571289	0.34871423	0.119591862	-0.049210049	-1.059570313	0.627197266	0.482910156	883.98	-25.69363941	-66.89888411	-137.3093157	-45
26352	0	0.354808807	-0.055515289	0.136889458	0.999986649	0.003185272	0.002295494	-0.003258705	8.870220184	-1.387882233	3.422236443	0.159264302	0.114775202	-0.162935964	-1.061767578	0.627197266	0.474609375	883.9	-24.22843757	-66.84782082	-138.5001248	-45
26353	0	0.365600586	-0.061279297	0.139892578	0.999990463	0.000790596	0.001804352	-0.003684998	9.140014648	-1.531982422	3.497314453	0.039529915	0.090217853	-0.184250414	-1.068359375	0.618652344	0.467041016	883.96	-22.99050874	-66.85616762	-139.7437277	-45
26354	0	0.350961685	-0.062310219	0.144982338	0.999994278	-8.49E-05	0.000927925	-0.003045082	8.77404213	-1.55775547	3.624558449	-0.004243858	0.046396334	-0.152254362	-1.074951172	0.612304688	0.459472656	883.9	-22.10043098	-66.91885023	-140.7178668	-45
26355	0	0.355041504	-0.076965332	0.153808594	0.999993324	0.003078461	-0.001555443	-0.001064301	8.876037598	-1.924133301	3.845214844	0.153923369	-0.077772309	-0.053215142	-1.079345703	0.605957031	0.457275391	883.96	-21.58934814	-67.15480013	-140.8884732	-45
26356	0	0.366298676	-0.076167107	0.171393394	0.999947548	0.009734154	-0.002887726	-0.000620842	9.157466888	-1.904177666	4.284834862	0.486716082	-0.144388782	-0.031042634	-1.077148438	0.610107422	0.454101563	883.96	-20.55327978	-67.51186782	-140.8015014	-45
26357	0	0.364135742	-0.047912598	0.172607422	0.999998093	-0.000811577	0.00088501	-0.001186371	9.103393555	-1.197814941	4.315185547	-0.040578861	0.044250509	-0.059318571	-1.077148438	0.614501953	0.453613281	883.96	-20.20510349	-67.48472972	-141.2752544	-45
26358	0	0.342784882	-0.074035645	0.162167549	0.999998093	0.00086689	0.0016222	0.000204086	8.56962204	-1.850891113	4.054188728	0.043344522	0.081110047	0.010204321	-1.079345703	0.612304688	0.448242188	883.9	-19.95932816	-67.32028612	-141.431976	-45
26359	0	0.36151123	-0.071105957	0.157653809	0.999994278	0.000145912	0.001087189	0.002975464	9.037780762	-1.777648926	3.941345215	0.007295621	0.054359527	0.148773443	-1.079589844	0.616699219	0.445068359	883.96	-20.55844811	-67.10201803	-140.7629166	-45
26360	0	0.360229492	-0.062988281	0.143615723	0.999985695	0.001935005	0.002006531	0.004405975	9.005737305	-1.574707031	3.590393066	0.096750698	0.100326993	0.220299765	-1.075195313	0.623046875	0.444335938	883.9	-21.21111754	-66.72334964	-139.8124951	-46
26361	0	0.380371094	-0.060852051	0.147521973	0.999973297	0.005242348	0.001346588	0.00479126	9.509277344	-1.52130127	3.688049316	0.262119669	0.067329993	0.239565075	-1.070800781	0.638183594	0.434326172	884.04	-21.62181659	-66.3952668	-138.7095546	-46
26362	0	0.363622665	-0.048524857	0.135389328	0.999969482	0.006785393	0.002245903	0.002957344	9.090566635	-1.213121414	3.3847332	0.339273021	0.112296271	0.147868677	-1.06640625	0.650878906	0.418945313	883.86	-21.30995768	-66.04811293	-138.1995314	-46
26363	0	0.332946777	-0.043701172	0.13659668	0.999979019	0.005478859	0.000831604	0.003311157	8.323669434	-1.092529297	3.414916992	0.27394485	0.041580489	0.165559011	-1.066894531	0.663818359	0.403564453	883.96	-21.36016077	-65.83744037	-137.4555352	-46
26364	0	0.346337318	-0.061303139	0.146751404	0.999943733	0.009242058	-0.002529144	0.004484177	8.658432961	-1.532578468	3.668785095	0.46211151	-0.126459573	0.224213014	-1.0625	0.674560547	0.399658203	883.96	-21.5722334	-65.93472831	-136.0633299	-46
26365	0	0.374633789	-0.057739258	0.155273438	0.999849319	0.016652107	-0.004062653	0.002422333	9.365844727	-1.443481445	3.881835938	0.832646951	-0.203142776	0.121122688	-1.053955078	0.696044922	0.388916016	884.02	-20.59325558	-66.2845459	-135.0466036	-45
26366	0	0.386968613	-0.022332191	0.141388893	0.999928474	0.011722565	1.14E-05	-0.002142906	9.674215317	-0.558304787	3.534722328	0.586142108	0.000572218	-0.107147846	-1.047363281	0.713134766	0.372802734	883.9	-18.68449715	-66.3818008	-135.6607603	-45
26367	0	0.358581543	-0.02355957	0.134643555	0.999964714	-0.006790161	0.00275898	-0.003952026	8.964538574	-0.588989258	3.366088867	-0.33951198	0.137950584	-0.197603602	-1.051513672	0.708740234	0.362060547	883.9	-18.21586467	-66.24134362	-137.0172165	-45
26368	0	0.345823288	-0.042642593	0.151043892	0.999916077	-0.012861252	0.000693321	-0.001103401	8.645582199	-1.066064835	3.776097298	-0.643080503	0.034667027	-0.055171596	-1.060546875	0.693847656	0.372314453	883.92	-19.31937717	-66.22211007	-137.4192952	-45
26369	0	0.350036621	-0.059265137	0.153747559	0.999979973	-0.005504608	-0.000967979	-0.002853394	8.750915527	-1.481628418	3.843688965	-0.275232214	-0.048399289	-0.142670614	-1.062744141	0.683349609	0.387451172	883.96	-19.28973739	-66.44921981	-138.1389751	-45
26370	0	0.359762192	-0.056759834	0.157672882	0.999943733	-0.007913589	-0.001174927	-0.006919861	8.994054794	-1.418995857	3.941822052	-0.395686853	-0.058747433	-0.345999495	-1.069335938	0.670410156	0.397460938	883.9	-18.51939053	-66.84666406	-139.9630688	-45
26371	0	0.357971191	-0.06640625	0.164367676	0.999897003	-0.013037682	-0.000938416	-0.005878448	8.949279785	-1.66015625	4.109191895	-0.651906399	-0.046922383	-0.293932488	-1.077880859	0.646972656	0.4140625	883.92	-18.54814228	-67.17401396	-141.5531457	-45
26372	0	0.35230732	-0.08296299	0.169421196	0.999945641	-0.009886742	-0.000404358	-0.003018379	8.807682991	-2.074074745	4.2355299	-0.4943459	-0.020218256	-0.150921653	-1.086669922	0.623291016	0.436523438	883.98	-18.89728038	-67.33782283	-142.404041	-45
26373	0	0.351989746	-0.089477539	0.167907715	0.999996185	-0.002425194	-0.000858307	-0.000400543	8.799743652	-2.236938477	4.197692871	-0.121259826	-0.042915393	-0.020027183	-1.088623047	0.612548828	0.448730469	883.9	-19.11396522	-67.45240868	-142.4722867	-45
26374	0	0.355436325	-0.077573776	0.158255577	0.999995232	0.002807617	-0.000917435	0.000739098	8.885908127	-1.939344406	3.956389427	0.140381076	-0.045871805	0.036954937	-1.086425781	0.612548828	0.445800781	884.02	-19.03749911	-67.52920446	-142.2084139	-44
26375	0	0.360168457	-0.075683594	0.156677246	0.999991417	0.003143311	-0.001036644	0.002346039	9.004211426	-1.892089844	3.916931152	0.157165958	-0.051832341	0.117302263	-1.086425781	0.616943359	0.445556641	883.9	-19.35834874	-67.55681437	-141.4733725	-45
26376	0	0.370319366	-0.077970505	0.155236244	0.999972343	0.00660038	-0.000879288	0.00322628	9.257984161	-1.949262619	3.880906105	0.330022009	-0.043964787	0.161315483	-1.082275391	0.625488281	0.441650391	883.96	-19.50233911	-67.53165081	-140.5014072	-45
26377	0	0.359680176	-0.058837891	0.147521973	0.999938965	0.010128975	-0.000495911	0.004264832	8.992004395	-1.470947266	3.688049316	0.506458962	-0.024796032	0.213245879	-1.078125	0.640625	0.4375	883.9	-19.47541768	-67.4243835	-139.2764936	-45
26378	0	0.360157013	-0.053869247	0.144286156	0.999948502	0.009016991	-0.001122475	0.004424095	9.003925323	-1.346731186	3.607153893	0.450857208	-0.056124689	0.221208523	-1.071533203	0.657714844	0.421386719	883.92	-19.67111113	-67.37764469	-137.9472051	-45
26379	0	0.363708496	-0.046325684	0.142150879	0.999958038	0.008095741	-0.00120163	0.00390625	9.092712402	-1.15814209	3.553771973	0.404792612	-0.060082306	0.195315177	-1.062744141	0.676757813	0.410888672	883.98	-19.84317374	-67.35784744	-136.757114	-45
26380	0	0.358762741	-0.043912888	0.141139984	0.999972343	0.006398201	-0.001792908	0.003294945	8.969068527	-1.097822189	3.528499603	0.319912982	-0.089646208	0.164748749	-1.056152344	0.689697266	0.406494141	883.96	-20.10773221	-67.42389498	-135.6778892	-45
26381	0	0.361755371	-0.041992188	0.141906738	0.999990463	0.003655434	-0.001472473	0.001384735	9.043884277	-1.049804688	3.547668457	0.182772214	-0.073623871	0.069236957	-1.052001953	0.700439453	0.402587891	883.98	-20.16418025	-67.5296642	-135.1645198	-45
26382	0	0.357058525	-0.044654846	0.146369934	0.999998093	0.000855446	-0.001456261	-0.00050354	8.926463127	-1.116371155	3.659248352	0.042772315	-0.072813072	-0.025177015	-1.049804688	0.706787109	0.402099609	883.9	-20.04874083	-67.7078036	-135.1842409	-45
26383	0	0.362670898	-0.049255371	0.148010254	0.999996185	-7.53E-05	-0.001087189	-0.002296448	9.066772461	-1.231384277	3.700256348	-0.003767018	-0.054359495	-0.114822511	-1.049804688	0.702636719	0.405273438	883.86	-19.5278039	-67.91519008	-135.7574031	-45
26384	0	0.361104965	-0.051039696	0.152526855	0.999991417	-0.002804756	-0.000545502	-0.002686501	9.02762413	-1.275992393	3.813171387	-0.140238168	-0.027275155	-0.134325372	-1.051757813	0.696044922	0.403076172	883.96	-19.15522754	-68.07631871	-136.5070237	-45
26385	0	0.362304688	-0.059936523	0.15423584	0.999991417	-0.003658295	2.00E-05	-0.001876831	9.057617188	-1.498413086	3.855895996	-0.182915249	0.001001361	-0.093841817	-1.056396484	0.691894531	0.412109375	883.98	-19.04112604	-68.14362528	-137.0833475	-45
26386	0	0.358398438	-0.064331055	0.152954102	0.999995232	-0.002437592	0.000488281	-0.001354218	8.959960938	-1.608276367	3.823852539	-0.12187974	0.024414095	-0.067710967	-1.056152344	0.683349609	0.415527344	883.9	-18.88522042	-68.13911303	-137.5543687	-44
26387	0	0.358337402	-0.071838379	0.151672363	0.999999046	0.000209808	0.000271797	-0.000495911	8.958435059	-1.795959473	3.791809082	0.010490418	0.01358986	-0.024795534	-1.062988281	0.681396484	0.416259766	883.98	-18.68078091	-68.12474645	-137.7512661	-44
26388	0	0.364731789	-0.066349983	0.147197723	0.999996185	0.002481461	0.000351906	3.81E-06	9.118294716	-1.65874958	3.679943085	0.124073158	0.01759531	0.000190735	-1.062988281	0.681396484	0.416259766	883.92	-18.34648957	-68.08247247	-137.8078981	-45
26389	0	0.36114502	-0.058166504	0.142150879	0.999998093	0.001358986	0.000579834	0.001186371	9.028625488	-1.454162598	3.553771973	0.067949336	0.028991717	0.059318578	-1.060791016	0.683349609	0.41015625	883.98	-18.44091833	-67.97224685	-137.5408843	-45
26390	0	0.361322403	-0.060033798	0.145600319	0.999996185	-0.000142097	0.000411034	0.002467155	9.033060074	-1.500844955	3.640007973	-0.007104881	0.020551703	0.123357902	-1.061035156	0.689941406	0.406738281	883.9	-19.06312384	-67.83203427	-136.8896538	-45
26391	0	0.360717773	-0.060302734	0.147033691	0.999996185	0.000782967	0.000320435	0.002311707	9.017944336	-1.507568359	3.675842285	0.03914837	0.016021745	0.115585444	-1.056640625	0.694091797	0.411865234	884.08	-19.54034664	-67.70464535	-136.2803103	-45
26392	0	0.361636162	-0.058446884	0.149308205	0.999996185	0.001279831	0.000178337	0.002174377	9.040904045	-1.461172104	3.732705116	0.063991615	0.008916864	0.108718988	-1.054443359	0.698486328	0.411376953	884.06	-19.93284883	-67.59563125	-135.7005581	-45
26393	0	0.362243652	-0.053161621	0.146728516	0.999996185	0.001152992	0.000411987	0.002151489	9.056091309	-1.329040527	3.668212891	0.057649671	0.020599386	0.107574573	-1.052246094	0.702636719	0.405273438	883.98	-20.30649782	-67.46064784	-135.1562622	-45
26394	0	0.360973358	-0.05424881	0.150261879	0.999997139	0.001062393	8.58E-05	0.001907349	9.024333954	-1.356220245	3.756546974	0.053119702	0.004291538	0.095367508	-1.047607422	0.706787109	0.404785156	884.08	-20.65377853	-67.36875837	-134.6513111	-45
26395	0	0.362670898	-0.055908203	0.150268555	0.999997139	0.001968384	-0.000128746	0.000976563	9.066772461	-1.397705078	3.756713867	0.098419269	-0.006437307	0.048828164	-1.045654297	0.715332031	0.398193359	884.02	-20.67647598	-67.33653909	-134.3849037	-45
26396	0	0.361625671	-0.054860115	0.151305199	0.999995232	0.003035545	-7.63E-05	9.44E-05	9.040641785	-1.371502876	3.782629967	0.151777501	-0.003814703	0.004720695	-1.043212891	0.715332031	0.398193359	883.96	-20.34467415	-67.33400164	-134.3705223	-45
26397	0	0.360290527	-0.04888916	0.147949219	0.999998093	0.001358986	0.000244141	-0.000583649	9.007263184	-1.222229004	3.698730469	0.06794932	0.012207036	-0.029182445	-1.043212891	0.719726563	0.392089844	884.02	-19.99923865	-67.32367216	-134.5786181	-45
26398	0	0.359060287	-0.054350853	0.149798393	0.999998093	-0.000634193	0.000720024	-0.001096725	8.976507187	-1.358771324	3.744959831	-0.031709682	0.036001218	-0.054836293	-1.047851563	0.719726563	0.392333984	884.04	-19.70600423	-67.28123666	-134.9778888	-45
26399	0	0.359191895	-0.056518555	0.150817871	0.999997139	-0.00125885	0.000752449	-0.001399994	8.979797363	-1.412963867	3.770446777	-0.062942548	0.037622478	-0.069999743	-1.047851563	0.715332031	0.389892578	883.98	-19.40473684	-67.2457503	-135.4636523	-45
26400	0	0.358215332	-0.059497833	0.151571274	0.999997139	-0.001763344	0.000707626	-0.001179695	8.955383301	-1.487445831	3.789281845	-0.088167264	0.035381347	-0.058984806	-1.049804688	0.711181641	0.387451172	883.9	-19.22398305	-67.20551617	-135.8816568	-45
26401	0	0.35949707	-0.062927246	0.153564453	0.999999046	-0.001079559	0.000443459	-0.000530243	8.987426758	-1.573181152	3.839111328	-0.053977981	0.022172934	-0.026512153	-1.052001953	0.708984375	0.387695313	883.86	-19.15766324	-67.16851454	-136.0909198	-45
26402	0	0.361442566	-0.061771393	0.150820732	0.999999046	-0.000101089	0.000459671	0.000274658	9.036064148	-1.544284821	3.770518303	-0.005054474	0.022983552	0.013732911	-1.052001953	0.706787109	0.393554688	884.02	-19.18591859	-67.09909785	-136.0765462	-45
26403	0	0.358642578	-0.059631348	0.150878906	0.999999046	0.000675201	4.29E-05	0.000846863	8.966064453	-1.490783691	3.771972656	0.033760077	0.002145768	0.042343148	-1.052001953	0.706787109	0.385009766	883.92	-19.30927193	-67.05280671	-135.8620918	-45
26404	0	0.361581802	-0.058818817	0.151414871	0.999997139	0.001551628	-0.000364304	0.001411438	9.039545059	-1.470470428	3.78537178	0.077581464	-0.018215193	0.070571953	-1.052246094	0.711181641	0.387451172	883.92	-19.51266433	-67.02851407	-135.4518221	-45
26405	0	0.362670898	-0.05456543	0.146850586	0.999995232	0.002319336	-0.00039196	0.001979828	9.066772461	-1.364135742	3.671264648	0.11596698	-0.019598038	0.09899155	-1.050048828	0.715576172	0.389892578	883.86	-19.77433047	-66.98468544	-134.8828011	-45
26406	0	0.360917091	-0.055394173	0.142671585	0.999991417	0.003252029	-0.000574112	0.002380371	9.022927284	-1.384854317	3.566789627	0.16260192	-0.028705676	0.119018883	-1.045410156	0.719726563	0.386474609	883.96	-20.04597142	-66.94398641	-134.1866104	-45
26407	0	0.360656738	-0.047851563	0.14465332	0.999994278	0.002625465	-0.00144577	0.00094986	9.016418457	-1.196289063	3.616333008	0.131273486	-0.072288632	0.047493059	-1.041015625	0.726074219	0.3828125	884.02	-20.10737469	-67.05279305	-133.7962871	-45
26408	0	0.360691071	-0.050065994	0.150159836	0.999998093	0.000398636	-0.001549721	-0.000279427	9.017276764	-1.251649857	3.753995895	0.019931802	-0.077486072	-0.013971335	-1.038818359	0.730224609	0.379638672	883.96	-20.1217498	-67.22102707	-133.7335992	-45
26409	0	0.358032227	-0.056518555	0.151733398	0.999998093	0.00086689	-0.001132965	0.000118256	8.950805664	-1.412963867	3.793334961	0.043344512	-0.056648274	0.005912783	-1.0390625	0.73046875	0.388183594	883.96	-20.14582522	-67.32834995	-133.6031003	-45
26410	0	0.362121582	-0.052612305	0.152587891	0.999998093	0.001202583	-0.000723839	-0.00012207	9.053039551	-1.315307617	3.814697266	0.060129186	-0.036191952	-0.006103518	-1.036621094	0.730224609	0.385253906	883.92	-20.03051838	-67.40084088	-133.5818113	-45
26411	0	0.362609863	-0.058105469	0.151611328	0.999999046	0.000354767	-0.000449181	-0.000232697	9.065246582	-1.452636719	3.790283203	0.017738343	-0.022459032	-0.011634827	-1.038818359	0.73046875	0.382324219	884.02	-19.95779524	-67.44775109	-133.6195489	-45
26412	0	0.361243248	-0.057344437	0.14778614	0.999999046	0.00051403	-0.000110626	-0.00011158	9.0310812	-1.433610916	3.694653511	0.025701524	-0.005531311	-0.005578995	-1.036621094	0.730224609	0.379394531	883.96	-19.8665288	-67.45323371	-133.6575338	-45
26413	0	0.359924316	-0.059448242	0.147949219	0.999999046	0.000617981	-0.000227928	0.00044632	8.99810791	-1.486206055	3.698730469	0.030899051	-0.011396409	0.022315981	-1.0390625	0.732666016	0.385009766	883.92	-19.91971311	-67.44932926	-133.5268047	-45
26414	0	0.359754562	-0.059468269	0.145355225	0.999999046	0.000787735	-0.000360489	0.00037384	8.993864059	-1.486706734	3.633880615	0.039386755	-0.018024447	0.018692019	-1.036865234	0.732421875	0.387695313	883.9	-19.94778083	-67.46235074	-133.4024935	-45
26415	0	0.363098145	-0.056762695	0.145080566	0.999999046	1.91E-05	-0.000247002	0.000125885	9.077453613	-1.419067383	3.62701416	0.000953674	-0.012350083	0.006294251	-1.036621094	0.732421875	0.385009766	883.98	-19.98926076	-67.47279534	-133.3587265	-45
26416	0	0.361507416	-0.058008194	0.146306992	0.999999046	-0.000872612	6.10E-05	0.000358582	9.037685394	-1.450204849	3.657674789	-0.043630606	0.003051758	0.01792908	-1.034423828	0.734619141	0.381835938	883.98	-20.1645212	-67.44076948	-133.2801763	-45
26417	0	0.362548828	-0.056396484	0.149475098	0.999999046	-0.000801086	-2.57E-05	0.000335693	9.063720703	-1.409912109	3.736877441	-0.040054326	-0.00128746	0.01678467	-1.036865234	0.732421875	0.387695313	883.92	-20.33362398	-67.41868111	-133.2002788	-45
26418	0	0.360136986	-0.058158875	0.148630142	0.999999046	-7.06E-05	-0.000118256	-8.58E-06	9.003424644	-1.453971863	3.715753555	-0.003528595	-0.005912781	-0.000429153	-1.036865234	0.732421875	0.387695313	883.92	-20.33900794	-67.41996002	-133.2068994	-45
26419	0	0.359802246	-0.057312012	0.148742676	0.999999046	0.000759125	-0.000216484	3.81E-06	8.995056152	-1.432800293	3.718566895	0.037956242	-0.010824205	0.000190735	-1.036865234	0.732421875	0.387695313	884.02	-20.26196517	-67.43106922	-133.1998889	-45
26420	0	0.360049248	-0.05892086	0.148736	0.999999046	0.000655174	-0.000349045	-0.000263214	9.001231194	-1.473021507	3.718400002	0.032758716	-0.017452242	-0.013160707	-1.034423828	0.732421875	0.390625	883.92	-20.1405411	-67.46675303	-133.2539064	-45
26421	0	0.361206055	-0.059875488	0.150634766	0.999999046	0.000682831	-0.000411034	-0.000106812	9.030151367	-1.496887207	3.765869141	0.034141544	-0.020551684	-0.005340577	-1.036865234	0.732421875	0.390625	883.98	-20.06253937	-67.50257732	-133.2575982	-45
26422	0	0.36182785	-0.05929184	0.14748764	0.999999046	0.000164032	-0.000242233	-5.72E-05	9.045696259	-1.48229599	3.68719101	0.008201599	-0.012111664	-0.002861023	-1.034667969	0.734619141	0.390380859	884.02	-20.04122885	-67.5181056	-133.2638144	-45
26423	0	0.359802246	-0.059814453	0.150024414	0.999999046	-9.16E-05	-8.30E-05	0.000221252	8.995056152	-1.495361328	3.750610352	-0.004577637	-0.004148483	0.011062622	-1.0390625	0.732666016	0.387939453	883.96	-20.1068824	-67.50520481	-133.2080057	-45
26424	0	0.361631393	-0.060185432	0.15001297	0.999999046	7.92E-05	-0.000177383	2.96E-05	9.040784836	-1.504635811	3.750324249	0.003957748	-0.008869171	0.001478195	-1.036865234	0.732421875	0.387695313	884.02	-20.11252696	-67.50971125	-133.195868	-45
26425	0	0.361328125	-0.059936523	0.149291992	0.999999046	-6.87E-05	-5.25E-05	0.000228882	9.033203125	-1.498413086	3.732299805	-0.003433228	-0.002622604	0.011444092	-1.034423828	0.730224609	0.387939453	883.9	-20.17537826	-67.49265277	-133.1404228	-45
26426	0	0.357531548	-0.06146431	0.148818016	0.999999046	0.001028061	-0.000360489	0.000472069	8.938288689	-1.536607742	3.720450401	0.051403058	-0.018024449	0.023603445	-1.034423828	0.732421875	0.384765625	883.9	-20.20559677	-67.49876392	-132.9840263	-45
26427	0	0.359924316	-0.061889648	0.150390625	0.999996185	0.002305031	-0.000465393	0.00063324	8.99810791	-1.547241211	3.759765625	0.115251655	-0.023269676	0.031662019	-1.036865234	0.734619141	0.384765625	883.92	-20.14183946	-67.50944781	-132.7716088	-45
26428	0	0.362855911	-0.057826996	0.146901131	0.999996185	0.002502441	-0.000208855	0.0007658	9.071397781	-1.445674896	3.672528267	0.125122214	-0.010442746	0.038290068	-1.034667969	0.736816406	0.384521484	883.86	-20.06547107	-67.48732106	-132.5486301	-45
26429	0	0.361450195	-0.0546875	0.145568848	0.999999046	0.000740051	2.00E-05	0.00075531	9.036254883	-1.3671875	3.639221191	0.03700257	0.001001358	0.03776551	-1.032226563	0.740966797	0.381103516	883.96	-20.16605019	-67.44097909	-132.3517862	-45
26430	0	0.359773636	-0.055688858	0.144687653	0.999999046	0.000190735	6.10E-05	0.000506401	8.994340897	-1.392221451	3.617191315	0.009536744	0.003051758	0.025320054	-1.032470703	0.745361328	0.377929688	883.86	-20.26073285	-67.39998652	-132.2287201	-45
