Counter	Temperature	VelInc_X	VelInc_Y	VelInc_Z	OriInc_w	OriInc_x	OriInc_y	OriInc_z	Acc_X	Acc_Y	Acc_Z	Gyr_X	Gyr_Y	Gyr_Z	Mag_X	Mag_Y	Mag_Z	Pressure	Roll	Pitch	Yaw	RSSI
11529	0	0.359924316	-0.140869141	0.050354004	0.999999046	-0.000720978	-0.000220299	-0.000370026	8.99810791	-3.521728516	1.258850098	-0.036048893	-0.01101494	-0.018501284	-0.649658203	0.2890625	-0.743896484	890.98	-68.62504787	-67.3640303	69.27104037	-89
11530	0	0.358587265	-0.142814636	0.05133152	0.999999046	-0.000133514	-0.000684738	2.86E-06	8.964681625	-3.570365906	1.283288002	-0.006675721	-0.034236911	0.000143051	-0.652099609	0.291259766	-0.741210938	891.02	-68.80410003	-67.39822229	69.44137974	-91
11531	0	0.363037109	-0.138671875	0.053955078	0.999999046	-0.000648499	-0.000998497	0.000411987	9.075927734	-3.466796875	1.348876953	-0.032424935	-0.049924864	0.020599371	-0.652099609	0.2890625	-0.73828125	890.94	-69.16366566	-67.40128347	69.74782456	-90
11532	0	0.364006996	-0.140141487	0.054021835	0.999999046	-0.00083065	-0.000682831	0.00031662	9.100174904	-3.503537178	1.350545883	-0.041532525	-0.034141548	0.015830997	-0.652099609	0.2890625	-0.735351563	890.98	-69.4534731	-67.40112333	69.95783546	-88
11533	0	0.366943359	-0.139953613	0.055664063	0.999999046	-0.00037384	-0.00083065	0.000114441	9.173583984	-3.498840332	1.391601563	-0.018692019	-0.041532522	0.005722047	-0.654785156	0.293701172	-0.735595703	891.1	-69.7093736	-67.42823892	70.18292726	-87
11534	0	0.365477562	-0.139041901	0.055073738	0.999999046	-0.00082016	-0.000383377	0.000263214	9.136939049	-3.476047516	1.376843452	-0.041008002	-0.019168857	0.013160708	-0.654785156	0.293701172	-0.735595703	891.08	-69.9147569	-67.42136676	70.30005639	-87
11535	0	0.363769531	-0.139709473	0.056640625	0.999999046	-0.000644684	-0.000250816	0.000415802	9.094238281	-3.492736816	1.416015625	-0.032234195	-0.012540819	0.020790102	-0.654785156	0.295898438	-0.732910156	890.92	-70.07925984	-67.39268445	70.39343744	-87
11536	0	0.36648941	-0.138622284	0.055788994	0.999999046	-0.000384331	-4.39E-05	0.000270844	9.16223526	-3.465557098	1.394724846	-0.019216538	-0.002193451	0.013542176	-0.65234375	0.293701172	-0.729980469	890.94	-70.14591478	-67.37157548	70.41631542	-87
11537	0	0.366333008	-0.138916016	0.054260254	0.999999046	-0.000667572	0.000351906	-1.53E-05	9.158325195	-3.472900391	1.356506348	-0.033378604	0.017595293	-0.00076294	-0.652587891	0.295654297	-0.732910156	890.86	-70.11548125	-67.36598493	70.29795802	-87
11538	0	0.36410141	-0.139710426	0.054450989	0.999999046	-0.000770569	0.000507355	-3.05E-05	9.102535248	-3.492760658	1.361274719	-0.038528448	0.02536774	-0.001525879	-0.652587891	0.297851563	-0.733154297	890.92	-70.05487022	-67.35595238	70.13280211	-87
11539	0	0.363952637	-0.138000488	0.053344727	0.999999046	-0.001083374	0.000458717	0.000217438	9.098815918	-3.450012207	1.333618164	-0.054168714	0.022935873	0.01087189	-0.652587891	0.297851563	-0.733154297	890.94	-70.06567715	-67.32119898	70.00951386	-85
11540	0	0.364455223	-0.140222549	0.050932884	0.999999046	-0.001021385	0.000591278	-0.000267029	9.111380577	-3.505563736	1.273322105	-0.051069272	0.029563911	-0.013351444	-0.652587891	0.300048828	-0.736328125	890.88	-69.98997047	-67.33347699	69.79908857	-84
11541	0	0.362243652	-0.141357422	0.051940918	0.999999046	-0.000789642	0.000580788	-0.00056076	9.056091309	-3.533935547	1.298522949	-0.039482125	0.029039389	-0.028038031	-0.650390625	0.300048828	-0.733398438	890.92	-69.86239704	-67.3775919	69.56050124	-83
11542	0	0.361852646	-0.141462326	0.052868843	0.999999046	-0.000730515	0.000417709	-4.29E-05	9.046316147	-3.536558151	1.321721077	-0.036525731	0.02088547	-0.002145767	-0.650390625	0.302246094	-0.730712891	890.88	-69.81877721	-67.37221614	69.41832559	-82
11543	0	0.36505127	-0.141296387	0.051757813	0.999999046	-0.000640869	0.000329018	0.000198364	9.126281738	-3.532409668	1.293945313	-0.03204346	0.016450883	0.009918214	-0.647949219	0.300048828	-0.730712891	890.88	-69.81081903	-67.34438418	69.33009052	-81
11544	0	0.363556862	-0.140043259	0.052305222	0.999999046	-0.000781059	0.00047493	0.000263214	9.088921547	-3.501081467	1.307630539	-0.039052969	0.023746494	0.013160708	-0.650390625	0.304443359	-0.733886719	890.92	-69.7876306	-67.30382572	69.20545683	-81
11545	0	0.363342285	-0.141296387	0.051452637	0.999999046	-0.001155853	0.000386238	0.00030899	9.083557129	-3.532409668	1.286315918	-0.057792679	0.01931191	0.015449528	-0.645751953	0.306396484	-0.737060547	890.98	-69.8348406	-67.26186029	69.1086355	-81
11546	0	0.36223793	-0.140604973	0.052444458	0.999999046	-0.000925064	0.000246048	0.000247002	9.055948257	-3.515124321	1.31111145	-0.046253212	0.012302401	0.012350084	-0.6484375	0.30859375	-0.734375	891.02	-69.88575602	-67.23213557	69.04526576	-81
11547	0	0.364135742	-0.139404297	0.052490234	0.999999046	-0.000904083	8.58E-06	0.000144958	9.103393555	-3.485107422	1.312255859	-0.045204169	0.000429154	0.007247926	-0.6484375	0.30859375	-0.734375	890.94	-69.98543675	-67.22287313	69.03990975	-81
11548	0	0.365679741	-0.142292976	0.053276062	0.999999046	-0.000803947	3.81E-05	-0.00012207	9.141993523	-3.557324409	1.33190155	-0.040197377	0.001907349	-0.006103516	-0.6484375	0.310791016	-0.731689453	891	-70.04098951	-67.24120912	68.99678021	-81
11549	0	0.362365723	-0.141052246	0.053527832	0.999999046	5.72E-05	-0.000239372	-0.000606537	9.059143066	-3.526306152	1.338195801	0.002861023	-0.011968614	-0.030326845	-0.645996094	0.30859375	-0.731689453	890.92	-70.02367187	-67.32256805	68.98180266	-81
11550	0	0.363708496	-0.142944336	0.054138184	0.999999046	0.000427246	-0.000144958	-0.000801086	9.092712402	-3.573608398	1.35345459	0.021362308	-0.007247926	-0.040054327	-0.6484375	0.310791016	-0.731689453	891.06	-69.92080315	-67.42104043	68.91465925	-83
11551	0	0.361607552	-0.143686295	0.053230286	0.999998093	0.000243187	-0.000114441	-0.00063324	9.040188789	-3.592157364	1.330757141	0.012159348	-0.005722046	-0.03166199	-0.650634766	0.308837891	-0.734130859	890.98	-69.84643862	-67.50001037	68.85820948	-82
11552	0	0.366490364	-0.144669533	0.05257988	0.999999046	0.000632286	1.91E-05	-0.000676155	9.162259102	-3.616738319	1.314496994	0.031614308	0.000953674	-0.033807759	-0.650634766	0.308837891	-0.731445313	891	-69.68822953	-67.5780925	68.75553367	-83
11553	0	0.36114502	-0.145141602	0.052307129	0.999999046	6.48E-05	0.000271797	-0.000278473	9.028625488	-3.628540039	1.307678223	0.003242493	0.013589859	-0.013923645	-0.650634766	0.306640625	-0.731201172	890.92	-69.56725474	-67.60297739	68.62581597	-83
11554	0	0.360952377	-0.145421982	0.054290771	0.999999046	-7.82E-05	0.000324249	0.000510216	9.023809433	-3.635549545	1.357269287	-0.003910065	0.016212464	0.02551079	-0.650390625	0.306640625	-0.739746094	890.86	-69.52562647	-67.54065835	68.56686453	-83
11555	0	0.363098145	-0.141845703	0.052734375	0.999999046	-0.000202179	0.000142097	0.000926971	9.077453613	-3.546142578	1.318359375	-0.010108949	0.007104875	0.046348579	-0.648193359	0.304443359	-0.731201172	890.94	-69.58594454	-67.44078723	68.60707816	-83
11556	0	0.363616943	-0.140709877	0.050888062	0.999999046	-0.000468254	0.000404358	0.00056839	9.090423584	-3.517746925	1.272201538	-0.023412707	0.020217898	0.028419498	-0.650634766	0.306640625	-0.731201172	890.92	-69.57463273	-67.36895965	68.5373724	-83
11557	0	0.364135742	-0.141418457	0.051635742	0.999999046	0.000167847	0.000130653	0.000408173	9.103393555	-3.535461426	1.290893555	0.008392334	0.006532669	0.020408631	-0.6484375	0.308837891	-0.731445313	890.94	-69.54593322	-67.32529119	68.52313489	-83
11558	0	0.363093376	-0.138707161	0.051531792	0.999999046	0.00066185	-0.000204086	0.000606537	9.077334404	-3.467679024	1.288294792	0.033092503	-0.010204317	0.030326848	-0.6484375	0.30859375	-0.734375	890.94	-69.56565167	-67.27385625	68.62317679	-82
11559	0	0.363647461	-0.136779785	0.053894043	0.999999046	0.000507355	-0.000197411	0.000476837	9.091186523	-3.419494629	1.347351074	0.025367739	-0.00987053	0.02384186	-0.648193359	0.30859375	-0.737060547	890.94	-69.58844623	-67.23627431	68.7073127	-81
11560	0	0.366101265	-0.136832237	0.052422523	0.999999046	-0.000151634	0.00012207	0.000273705	9.152531624	-3.420805931	1.310563087	-0.007581711	0.006103516	0.013685227	-0.648193359	0.306396484	-0.739746094	890.98	-69.58544771	-67.20802252	68.68695482	-81
11561	0	0.363952637	-0.13873291	0.05065918	0.999999046	-0.000183105	-6.68E-06	8.77E-05	9.098815918	-3.468322754	1.266479492	-0.009155274	-0.000333786	0.004386902	-0.6484375	0.30859375	-0.734375	891	-69.60147787	-67.20507232	68.67942211	-81
11562	0	0.364172935	-0.139243126	0.051639557	0.999999046	0.00047493	-0.000181198	0.000197411	9.104323387	-3.481078148	1.290988922	0.023746492	-0.009059906	0.00987053	-0.6484375	0.30859375	-0.734375	890.94	-69.59720401	-67.19746355	68.73063761	-81
11563	0	0.364074707	-0.138183594	0.050537109	0.999999046	0.000385284	-0.000124931	-6.10E-05	9.101867676	-3.454589844	1.263427734	0.019264222	-0.006246567	-0.003051758	-0.648193359	0.306396484	-0.734130859	890.94	-69.56442659	-67.21558134	68.74204468	-81
11564	0	0.366057396	-0.139687538	0.050979614	0.999999046	-5.82E-05	-5.15E-05	-0.000110626	9.151434898	-3.492188454	1.274490356	-0.002908707	-0.002574921	-0.005531311	-0.6484375	0.30859375	-0.734375	890.92	-69.55914409	-67.23624811	68.72407215	-81
11565	0	0.362915039	-0.140014648	0.052001953	0.999999046	3.81E-05	3.15E-05	-8.77E-05	9.072875977	-3.500366211	1.300048828	0.001907349	0.001573563	-0.004386902	-0.648193359	0.306396484	-0.737060547	890.86	-69.52381515	-67.25119629	68.68918211	-81
11566	0	0.362569809	-0.138727188	0.052705765	0.999999046	-0.000185013	5.91E-05	0.000121117	9.064245224	-3.468179703	1.317644119	-0.009250641	0.00295639	0.006055832	-0.648193359	0.30859375	-0.737060547	890.92	-69.52686286	-67.24269909	68.66498095	-82
11567	0	0.36505127	-0.139343262	0.051330566	0.999999046	-0.000469208	0.000184059	0.000431061	9.126281738	-3.483581543	1.28326416	-0.02346039	0.009202958	0.021553041	-0.645751953	0.306396484	-0.739990234	890.98	-69.56024693	-67.19606603	68.6435164	-84
11568	0	0.365032196	-0.141293526	0.05145359	0.999999046	3.72E-05	6.29E-05	0.000274658	9.125804901	-3.532338142	1.28633976	0.001859665	0.003147125	0.01373291	-0.6484375	0.308837891	-0.731445313	890.94	-69.55184582	-67.1711338	68.63644221	-85
11569	0	0.364990234	-0.138671875	0.052429199	0.999999046	0.000335693	-8.30E-05	4.20E-05	9.124755859	-3.466796875	1.31072998	0.016784668	-0.004148483	0.002098084	-0.646240234	0.310791016	-0.731689453	890.86	-69.524291	-67.1771895	68.63966766	-87
11570	0	0.364681244	-0.139765739	0.052949905	1	1.24E-05	9.54E-07	2.86E-06	9.117031097	-3.494143486	1.323747635	0.000619888	4.77E-05	0.000143051	-0.648193359	0.306640625	-0.731201172	890.94	-69.50859298	-67.18418556	68.6243435	-88
11571	0	0.361755371	-0.140014648	0.053161621	0.999999046	8.01E-05	8.58E-06	0.00012207	9.043884277	-3.500366211	1.329040527	0.004005432	0.000429153	0.006103516	-0.645996094	0.306396484	-0.734375	890.88	-69.4944971	-67.17809768	68.61845434	-89
11572	0	0.363978386	-0.1397295	0.052517891	0.999999046	9.44E-05	-0.000102997	0.000278473	9.099459648	-3.493237495	1.312947273	0.004720688	-0.005149841	0.013923645	-0.645996094	0.30859375	-0.734375	890.88	-69.52213516	-67.15978309	68.65584216	-90
11573	0	0.364013672	-0.139709473	0.051025391	0.999999046	-0.00019455	0.000157356	0.000190735	9.100341797	-3.492736816	1.275634766	-0.009727478	0.007867813	0.009536743	-0.645996094	0.306396484	-0.731445313	890.88	-69.50836087	-67.14056836	68.61705469	-91
11574	0	0.365285873	-0.140968323	0.051206589	0.999999046	-0.000131607	6.29E-05	0.000365257	9.132146835	-3.524208069	1.280164719	-0.006580353	0.003147125	0.018262864	-0.648193359	0.30859375	-0.739990234	890.98	-69.52824677	-67.10649519	68.62252164	-92
11575	0	0.364807129	-0.141235352	0.053833008	0.999999046	-3.81E-05	-7.92E-05	0.000259399	9.120178223	-3.530883789	1.345825195	-0.001907349	-0.003957748	0.012969971	-0.6484375	0.310791016	-0.734375	890.94	-69.56336181	-67.08950777	68.65205451	-88
11576	0	0.362304688	-0.139404297	0.052734375	0.999999046	6.96E-05	-6.48E-05	0.00038147	9.057617188	-3.485107422	1.318359375	0.003480911	-0.003242493	0.019073487	-0.6484375	0.308837891	-0.731445313	890.98	-69.59392202	-67.05892546	68.69396243	-87
11577	0	0.366882324	-0.140991211	0.054443359	0.999999046	-0.000141144	-0.000247002	0.000221252	9.172058105	-3.524780273	1.361083984	-0.00705719	-0.012350083	0.011062622	-0.648193359	0.306396484	-0.734130859	890.94	-69.67945759	-67.05289934	68.77471471	-86
11578	0	0.362854004	-0.141235352	0.053894043	0.999999046	-0.000244141	1.53E-05	5.72E-05	9.071350098	-3.530883789	1.347351074	-0.012207031	0.000762939	0.002861023	-0.6484375	0.310791016	-0.734375	890.92	-69.69464164	-67.05404361	68.75885129	-85
11579	0	0.361755371	-0.142944336	0.056396484	0.999999046	8.01E-05	-6.39E-05	4.58E-05	9.043884277	-3.573608398	1.409912109	0.004005432	-0.003194809	0.002288818	-0.648193359	0.30859375	-0.737060547	890.88	-69.69130261	-67.05943973	68.76725974	-84
11580	0	0.36328125	-0.141418457	0.056396484	0.999999046	0.000256538	-4.58E-05	0.000354767	9.08203125	-3.535461426	1.409912109	0.01282692	-0.002288818	0.017738343	-0.645996094	0.310791016	-0.737548828	890.88	-69.69172648	-67.0308716	68.79614821	-83
11581	0	0.363708496	-0.141052246	0.055297852	0.999999046	0.000175476	6.96E-05	0.000301361	9.092712402	-3.526306152	1.382446289	0.008773804	0.003480911	0.015068055	-0.645996094	0.310791016	-0.734619141	890.92	-69.66686248	-67.00347512	68.78739004	-82
11582	0	0.363220215	-0.14074707	0.055603027	0.999999046	-0.000160217	0.000270844	0.000343323	9.080505371	-3.518676758	1.390075684	-0.008010865	0.013542176	0.017166138	-0.645996094	0.30859375	-0.731689453	890.98	-69.63320924	-66.96358496	68.73257981	-82
11583	0	0.363342285	-0.141723633	0.052185059	0.999999046	3.81E-05	0.000218391	0.000320435	9.083557129	-3.54309082	1.304626465	0.001907349	0.010919571	0.016021729	-0.646240234	0.310791016	-0.731689453	890.92	-69.58821817	-66.92828625	68.68691258	-82
11584	0	0.361999512	-0.139892578	0.052062988	0.999999046	0.000248909	3.81E-05	0.000392914	9.049987793	-3.497314453	1.301574707	0.01244545	0.001907349	0.019645692	-0.645996094	0.310791016	-0.737548828	890.86	-69.57147988	-66.8925269	68.69913265	-83
11585	0	0.362304688	-0.140625	0.051818848	0.999999046	-0.00012207	-8.30E-05	0.000400543	9.057617188	-3.515625	1.295471191	-0.006103516	-0.004148483	0.020027161	-0.643798828	0.310791016	-0.737548828	890.88	-69.62853745	-66.86089653	68.74495691	-83
11586	0	0.36138916	-0.141784668	0.052062988	1	-1.05E-05	-6.68E-06	-1.14E-05	9.034729004	-3.544616699	1.301574707	-0.000524521	-0.000333786	-0.000572205	-0.643798828	0.312988281	-0.734863281	890.88	-69.61524859	-66.87051263	68.72339398	-83
11587	0	0.362792969	-0.140563965	0.051940918	0.999999046	-6.10E-05	-8.68E-05	-4.96E-05	9.069824219	-3.514099121	1.298522949	-0.003051758	-0.004339218	-0.002479553	-0.643554688	0.30859375	-0.734619141	890.86	-69.62443431	-66.88755712	68.72792169	-83
11588	0	0.363220215	-0.143676758	0.055297852	0.999999046	-0.000227928	-0.00018692	-0.000106812	9.080505371	-3.591918945	1.382446289	-0.011396408	-0.009346008	-0.005340576	-0.643798828	0.312988281	-0.734863281	890.94	-69.67247559	-66.91466467	68.74568684	-82
11589	0	0.361816406	-0.143554688	0.0546875	0.999999046	6.87E-05	-0.000128746	7.25E-05	9.045410156	-3.588867188	1.3671875	0.003433228	-0.006437302	0.003623962	-0.645996094	0.30859375	-0.734375	890.88	-69.68853953	-66.92010842	68.77536867	-81
11590	0	0.364624023	-0.144470215	0.056030273	0.999999046	0.000286102	-0.000411987	-0.000156403	9.115600586	-3.611755371	1.400756836	0.014305115	-0.020599366	-0.00782013	-0.645996094	0.310791016	-0.734619141	890.82	-69.72963625	-66.96130522	68.85324634	-81
11591	0	0.36328125	-0.143371582	0.055480957	0.999999046	0.000553131	-6.39E-05	-0.000286102	9.08203125	-3.584289551	1.387023926	0.027656557	-0.003194809	-0.014305116	-0.645996094	0.310791016	-0.734619141	890.92	-69.63982399	-67.00252814	68.81946309	-81
11592	0	0.361755371	-0.14440918	0.056213379	0.999999046	7.34E-05	-8.39E-05	-0.000133514	9.043884277	-3.610229492	1.405334473	0.003671646	-0.004196167	-0.00667572	-0.648193359	0.30859375	-0.737060547	890.92	-69.62403661	-67.02797722	68.81181281	-81
11593	0	0.363098145	-0.145568848	0.055297852	0.999999046	-7.63E-06	6.20E-05	0.000259399	9.077453613	-3.639221191	1.382446289	-0.00038147	0.003099442	0.012969971	-0.6484375	0.30859375	-0.734375	890.94	-69.61748444	-67.00520788	68.80451568	-81
11594	0	0.363830566	-0.144165039	0.053161621	0.999999046	-3.81E-06	0.000225067	0.000259399	9.09576416	-3.604125977	1.329040527	-0.000190735	0.011253357	0.012969971	-0.645996094	0.30859375	-0.737304688	890.88	-69.56943644	-66.97585562	68.75194391	-81
11595	0	0.36151123	-0.145263672	0.053100586	0.999999046	1.53E-05	0.000359535	4.96E-05	9.037780762	-3.631591797	1.327514648	0.000762939	0.017976761	0.002479553	-0.648193359	0.30859375	-0.737060547	890.88	-69.4658152	-66.96346078	68.64313054	-81
11596	0	0.362121582	-0.146789551	0.051696777	0.999999046	0.000447273	-1.14E-05	4.58E-05	9.053039551	-3.66973877	1.292419434	0.022363663	-0.000572205	0.002288818	-0.645996094	0.30859375	-0.737304688	890.94	-69.40649642	-66.96617223	68.63312963	-80
11597	0	0.362285614	-0.144135475	0.051006317	0.999969482	0.000660896	-6.87E-05	0.000338554	9.05714035	-3.603386879	1.275157928	0.033044818	-0.003433228	0.016927721	-0.643554688	0.306396484	-0.739990234	890.92	-69.36535647	-66.9397541	68.6710318	-91
11598	0	0.361989021	-0.144145966	0.052534103	0.999999046	0.000131607	-0.000133514	0.000457764	9.049725533	-3.603649139	1.313352585	0.006580353	-0.00667572	0.022888185	-0.645996094	0.30859375	-0.737304688	890.88	-69.41271157	-66.90310913	68.73698424	-88
11599	0	0.362731934	-0.143920898	0.051208496	0.999999046	6.87E-05	-0.000113487	0.000743866	9.06829834	-3.598022461	1.280212402	0.003433228	-0.005674363	0.037193302	-0.643554688	0.30859375	-0.734619141	890.94	-69.48935033	-66.83493725	68.82640211	-87
11600	0	0.362413406	-0.140303612	0.052548409	0.999999046	-0.000464439	-2.29E-05	0.00087738	9.060335159	-3.507590294	1.313710213	-0.023221973	-0.001144409	0.043869026	-0.643798828	0.310791016	-0.737548828	890.88	-69.61630527	-66.74890069	68.90428624	-86
11601	0	0.362609863	-0.141906738	0.052246094	0.999999046	-0.000480652	-2.96E-05	0.000694275	9.065246582	-3.547668457	1.306152344	-0.024032596	-0.001478195	0.034713749	-0.645996094	0.310791016	-0.734619141	890.86	-69.72926439	-66.68286984	68.96946764	-85
11602	0	0.363883018	-0.140084267	0.053614616	0.999999046	-0.000139236	-0.000314713	0.00039959	9.097075462	-3.502106667	1.34036541	-0.006961823	-0.015735627	0.019979478	-0.643798828	0.312988281	-0.737792969	890.92	-69.84653439	-66.65999283	69.07757965	-85
11603	0	0.361877441	-0.140197754	0.053344727	0.999999046	-0.000240326	-0.00039959	0.000461578	9.046936035	-3.504943848	1.333618164	-0.012016297	-0.019979478	0.02307892	-0.646240234	0.312988281	-0.737548828	890.88	-70.00176645	-66.63387336	69.21783777	-84
11604	0	0.36648941	-0.142699242	0.054813385	0.999999046	0.000166893	-0.00028801	-0.000126839	9.16223526	-3.567481041	1.370334625	0.00834465	-0.014400482	-0.006341934	-0.646240234	0.312988281	-0.737548828	890.92	-70.02874351	-66.66681676	69.26787442	-83
11605	0	0.361083984	-0.142822266	0.055603027	0.999999046	-0.000102997	-0.000258446	-0.000236511	9.027099609	-3.570556641	1.390075684	-0.005149841	-0.012922287	-0.011825562	-0.646240234	0.312988281	-0.734863281	890.88	-70.0690394	-66.71041444	69.29751304	-82
11606	0	0.362401962	-0.144677162	0.05697155	0.999999046	-0.000383377	-2.48E-05	-0.000125885	9.060049057	-3.616929054	1.42428875	-0.019168854	-0.001239777	-0.006294251	-0.645996094	0.310791016	-0.734619141	890.92	-70.09260292	-66.73288612	69.27861281	-82
11607	0	0.362609863	-0.145080566	0.054931641	0.999999046	-0.000305176	0.000203133	-0.000209808	9.065246582	-3.62701416	1.373291016	-0.01525879	0.010156632	-0.010490418	-0.646240234	0.312988281	-0.734863281	890.88	-70.04218564	-66.75541726	69.18508908	-82
11608	0	0.364541054	-0.144411087	0.052671432	0.999999046	-0.000460625	0.000453949	-0.000473022	9.113526344	-3.610277176	1.316785812	-0.023031237	0.022697451	-0.023651126	-0.646240234	0.312988281	-0.731933594	890.92	-69.92241965	-66.79642081	68.99642705	-83
11609	0	0.362182617	-0.144897461	0.051879883	0.999999046	-0.000995636	0.000512123	-0.000511169	9.05456543	-3.622436523	1.29699707	-0.049781812	0.025606162	-0.025558478	-0.6484375	0.312988281	-0.737548828	890.98	-69.84551334	-66.83906683	68.79197082	-83
11610	0	0.36020565	-0.148723602	0.05243969	0.999999046	-0.00050354	0.000225067	-0.000599861	9.005141258	-3.718090057	1.310992241	-0.025177005	0.011253358	-0.029993061	-0.643798828	0.312988281	-0.737792969	890.94	-69.77598749	-66.90221879	68.65300981	-83
11611	0	0.359619141	-0.14666748	0.050598145	0.999999046	7.63E-06	9.54E-07	-0.000564575	8.990478516	-3.666687012	1.264953613	0.00038147	4.77E-05	-0.028228761	-0.643798828	0.312988281	-0.734863281	890.92	-69.70765455	-66.97022037	68.57659837	-83
11612	0	0.360762596	-0.148335457	0.050783157	0.999999046	-0.000105858	-0.000299454	-0.000263214	9.019064903	-3.708386421	1.269578934	-0.005292893	-0.014972687	-0.013160706	-0.646240234	0.312988281	-0.734863281	890.94	-69.75688857	-67.0174952	68.614681	-82
11613	0	0.362854004	-0.148010254	0.051879883	0.999999046	9.92E-05	-0.00032711	-0.000274658	9.071350098	-3.700256348	1.29699707	0.004959107	-0.016355515	-0.013732911	-0.646240234	0.312988281	-0.737548828	890.92	-69.78911457	-67.06686098	68.65859458	-81
11614	0	0.361869812	-0.146458626	0.052952766	0.999999046	-5.72E-05	-0.000320435	0.000247955	9.0467453	-3.661465645	1.32381916	-0.002861023	-0.016021729	0.012397766	-0.648681641	0.313232422	-0.729003906	890.88	-69.88667369	-67.05952256	68.75442482	-81
11615	0	0.362121582	-0.146850586	0.052856445	0.999999046	-3.81E-06	-0.000414848	0.00069809	9.053039551	-3.671264648	1.321411133	-0.000190735	-0.020742419	0.034904484	-0.6484375	0.312988281	-0.734619141	890.88	-70.0437736	-67.00714355	68.92439549	-81
11616	0	0.360502243	-0.141861916	0.052616119	0.999999046	-0.000212669	-7.63E-05	0.000892639	9.012556076	-3.54654789	1.315402985	-0.01063347	-0.003814698	0.044631964	-0.646240234	0.315185547	-0.732177734	890.82	-70.15594776	-66.92044963	69.01631998	-81
11617	0	0.368835449	-0.145019531	0.052001953	0.999999046	-0.000202179	-0.000105858	0.000789642	9.22088623	-3.625488281	1.300048828	-0.010108949	-0.005292893	0.039482121	-0.646240234	0.315185547	-0.737792969	890.92	-70.26437198	-66.84601873	69.10922095	-81
11618	0	0.362704277	-0.140181541	0.051623344	0.999999046	0.000257492	-0.00015831	0.000918388	9.067606926	-3.504538536	1.290583611	0.012874605	-0.007915498	0.045919425	-0.646240234	0.317382813	-0.735107422	890.82	-70.34419185	-66.75986043	69.22528283	-81
11619	0	0.362243652	-0.139709473	0.052062988	0.999999046	0.000190735	-0.000430107	0.000988007	9.056091309	-3.492736816	1.301574707	0.009536745	-0.02150536	0.049400339	-0.644042969	0.315185547	-0.729492188	890.86	-70.50499225	-66.67675617	69.42487518	-81
11620	0	0.364577293	-0.138946533	0.051739693	0.999999046	0.000393867	-0.000230789	0.000746727	9.114432335	-3.47366333	1.293492317	0.019693377	-0.011539461	0.037336354	-0.646484375	0.317382813	-0.732177734	891.04	-70.57002788	-66.61229406	69.54432531	-80
11621	0	0.363342285	-0.13885498	0.049682617	0.999999046	-3.81E-06	-0.000163078	0.000663757	9.083557129	-3.471374512	1.24206543	-0.000190735	-0.008153916	0.033187869	-0.646484375	0.317382813	-0.732177734	890.94	-70.65589912	-66.55452729	69.63855218	-79
11622	0	0.365613937	-0.140073776	0.050477028	0.999999046	0.00022316	-0.000295639	0.000414848	9.140348434	-3.501844406	1.261925697	0.01115799	-0.014781953	0.020742417	-0.646484375	0.317382813	-0.732177734	890.92	-70.72660604	-66.52900535	69.74471383	-79
11623	0	0.362976074	-0.13873291	0.047912598	0.999999046	-0.000137329	-0.00014019	-0.000102997	9.074401855	-3.468322754	1.197814941	-0.006866455	-0.007009506	-0.005149841	-0.646484375	0.319580078	-0.732421875	890.88	-70.75483352	-66.5539854	69.75492277	-81
11624	0	0.362529755	-0.14208889	0.049541473	0.999998093	-0.00012207	-0.000109673	-0.000250816	9.063243866	-3.552222252	1.238536835	-0.006103516	-0.005483627	-0.012540817	-0.646484375	0.317382813	-0.729492188	890.92	-70.76088674	-66.59400223	69.74604444	-79
11625	0	0.364135742	-0.14251709	0.04864502	0.999999046	-8.39E-05	-0.000166893	-0.000358582	9.103393555	-3.562927246	1.216125488	-0.004196167	-0.00834465	-0.017929078	-0.646484375	0.317382813	-0.729492188	890.92	-70.7676351	-66.64804144	69.74141132	-81
11626	0	0.362363815	-0.145501137	0.049413681	0.999999046	-0.000463486	-0.000131607	-0.000415802	9.059095383	-3.637528419	1.235342026	-0.023174287	-0.006580353	-0.020790102	-0.651123047	0.319824219	-0.732177734	890.94	-70.80424181	-66.70694047	69.72089728	-81
11627	0	0.362670898	-0.147521973	0.049804688	0.999999046	-0.000385284	-0.000102043	-0.000377655	9.066772461	-3.688049316	1.245117188	-0.019264222	-0.005102158	-0.018882752	-0.648681641	0.317382813	-0.732177734	890.98	-70.82801639	-66.76049326	69.69876744	-81
11628	0	0.361633301	-0.148264885	0.050286293	0.999999046	-0.000128746	-0.000301361	-0.000229836	9.04083252	-3.706622124	1.257157326	-0.006437302	-0.015068055	-0.011491776	-0.648925781	0.319580078	-0.729492188	890.88	-70.88585372	-66.80534718	69.74019835	-83
11629	0	0.361328125	-0.148376465	0.051635742	0.999999046	-8.77E-05	-0.000174522	7.63E-06	9.033203125	-3.709411621	1.290893555	-0.004386902	-0.00872612	0.00038147	-0.651123047	0.317626953	-0.729248047	890.86	-70.92784657	-66.8194915	69.77503548	-83
11630	0	0.365431786	-0.150038719	0.049649239	0.999999046	0.000173569	-0.000255585	-4.29E-05	9.13579464	-3.750967979	1.241230965	0.008678436	-0.012779236	-0.002145767	-0.648681641	0.317382813	-0.729248047	890.94	-70.95633364	-66.84194293	69.82514037	-84
11631	0	0.363342285	-0.149047852	0.052368164	0.999999046	0.00037384	-0.000132561	3.81E-05	9.083557129	-3.726196289	1.309204102	0.018692017	-0.006628037	0.001907349	-0.650878906	0.313232422	-0.728759766	890.92	-70.93774621	-66.85078562	69.85759447	-85
11632	0	0.362672806	-0.14842701	0.052015305	0.999999046	0.000504494	-3.81E-05	0.000536919	9.066820145	-3.71067524	1.300382614	0.025224688	-0.001907349	0.026845934	-0.648681641	0.315185547	-0.729248047	890.88	-70.92383112	-66.80186161	69.90564192	-85
11633	0	0.362792969	-0.145446777	0.051635742	0.999999046	0.000152588	0.000157356	0.000747681	9.069824219	-3.636169434	1.290893555	0.007629395	0.007867814	0.037384037	-0.651123047	0.317626953	-0.729248047	890.82	-70.91906883	-66.72274451	69.91862466	-86
11634	0	0.362624168	-0.143044472	0.050022125	0.999999046	3.81E-05	0.000320435	0.000624657	9.06560421	-3.576111794	1.250553131	0.001907349	0.01602173	0.031232836	-0.648681641	0.315185547	-0.729248047	890.88	-70.87573441	-66.65094923	69.88018816	-87
11635	0	0.36541748	-0.143432617	0.048583984	0.999999046	8.01E-05	0.000245094	0.000396729	9.135437012	-3.58581543	1.214599609	0.004005432	0.012254715	0.019836427	-0.648925781	0.319580078	-0.732421875	890.78	-70.82704997	-66.60683172	69.83396705	-86
11636	0	0.363694191	-0.142554283	0.046220779	0.999999046	0.000174522	5.53E-05	0.000400543	9.092354774	-3.563857079	1.155519485	0.00872612	0.002765656	0.020027161	-0.646484375	0.317382813	-0.732177734	890.92	-70.81587833	-66.56968352	69.84332855	-86
11637	0	0.362304688	-0.140380859	0.049621582	0.999999046	0.00037384	-0.000266075	0.000408173	9.057617188	-3.509521484	1.240539551	0.018692018	-0.013303758	0.020408632	-0.646484375	0.317382813	-0.729492188	890.88	-70.86263669	-66.54406234	69.93994407	-87
11638	0	0.363070488	-0.141190529	0.04953289	0.999999046	0.000120163	-0.000135422	-3.81E-05	9.076762199	-3.529763222	1.238322258	0.006008148	-0.006771088	-0.001907349	-0.648925781	0.319580078	-0.729492188	890.88	-70.86710384	-66.56208184	69.95550299	-88
11639	0	0.36505127	-0.14453125	0.049438477	0.999999046	0.000267029	-7.53E-05	-0.000385284	9.126281738	-3.61328125	1.235961914	0.013351441	-0.003767014	-0.019264222	-0.646484375	0.317382813	-0.729492188	890.84	-70.80966958	-66.61555046	69.92214131	-87
11640	0	0.365231514	-0.145321846	0.050374985	0.999999046	0.000348091	-0.00012207	-0.000431061	9.130787849	-3.63304615	1.259374619	0.017404557	-0.006103516	-0.021553041	-0.648681641	0.315185547	-0.731933594	890.88	-70.75048726	-66.67578808	69.90085619	-89
11641	0	0.364013672	-0.14465332	0.051086426	0.999999046	0.000148773	8.87E-05	-0.00025177	9.100341797	-3.616333008	1.277160645	0.00743866	0.004434586	-0.012588501	-0.648681641	0.315185547	-0.731933594	890.92	-70.67671218	-66.70867735	69.83742756	-91
11642	0	0.362124443	-0.146287918	0.050765991	0.999999046	0.00021553	8.39E-05	-0.000228882	9.053111076	-3.657197952	1.26914978	0.01077652	0.004196167	-0.011444092	-0.648681641	0.315185547	-0.731933594	890.88	-70.59838996	-66.73915317	69.77587012	-92
11643	0	0.364868164	-0.145751953	0.050964355	0.999999046	0.00044632	0.000191689	-0.000400543	9.121704102	-3.643798828	1.274108887	0.02231598	0.009584428	-0.020027162	-0.648681641	0.313232422	-0.726074219	890.82	-70.45104846	-66.78399271	69.66838371	-93
11644	0	0.362060547	-0.145629883	0.051147461	0.999999046	0.000447273	2.67E-05	-9.16E-05	9.051513672	-3.64074707	1.278686523	0.022363663	0.001335144	-0.004577637	-0.648681641	0.313232422	-0.729003906	890.84	-70.37255548	-66.80164052	69.63458629	-92
11645	0	0.362670898	-0.144714355	0.051635742	0.999999046	0.000324249	0.000267982	-3.81E-06	9.066772461	-3.617858887	1.290893555	0.016212464	0.013399125	-0.000190735	-0.650878906	0.313232422	-0.734619141	890.9	-70.25524545	-66.80044244	69.54491712	-91
11646	0	0.362487793	-0.144592285	0.051269531	0.999999046	-1.53E-05	0.00043869	7.63E-05	9.062194824	-3.614807129	1.281738281	-0.000762939	0.02193451	0.003814697	-0.650878906	0.311035156	-0.731445313	890.94	-70.14128993	-66.7838769	69.42098412	-91
11647	0	0.363342285	-0.144592285	0.050354004	0.999999046	-0.00012207	0.000523567	-0.0001297	9.083557129	-3.614807129	1.258850098	-0.006103516	0.026178361	-0.006484986	-0.6484375	0.311035156	-0.728759766	890.92	-69.9998491	-66.78607504	69.25160669	-90
11648	0	0.361877441	-0.145935059	0.050170898	0.999999046	0.000195503	0.000514984	-0.000480652	9.046936035	-3.648376465	1.254272461	0.009775163	0.025749209	-0.024032595	-0.646240234	0.310791016	-0.731689453	890.88	-69.79208713	-66.82608429	69.04701252	-89
11649	0	0.358947754	-0.145507813	0.051879883	0.999999046	0.000476837	0.000222206	-0.000396729	8.973693848	-3.637695313	1.29699707	0.02384186	0.011110307	-0.019836427	-0.646240234	0.310791016	-0.731689453	890.82	-69.6329982	-66.86828213	68.92778305	-88
11650	0	0.360412598	-0.146484375	0.04864502	0.999999046	0.000320435	0.000335693	-0.000362396	9.010314941	-3.662109375	1.216125488	0.016021729	0.016784669	-0.018119813	-0.645996094	0.306396484	-0.731445313	890.84	-69.46671674	-66.90199244	68.78794195	-87
11651	0	0.360168457	-0.14666748	0.05065918	0.999999046	0.000370026	0.000332832	-0.000293732	9.004211426	-3.666687012	1.266479492	0.018501283	0.016641618	-0.014686585	-0.648193359	0.30859375	-0.737060547	890.94	-69.30204576	-66.92809932	68.65212738	-87
11652	0	0.362060547	-0.145935059	0.049133301	0.999999046	-8.68E-05	0.000160217	0.000133514	9.051513672	-3.648376465	1.22833252	-0.004339218	0.008010864	0.00667572	-0.648193359	0.306396484	-0.734130859	890.88	-69.27432638	-66.91522646	68.61284868	-87
11653	0	0.361022949	-0.14453125	0.050231934	0.999999046	-0.000225067	8.49E-05	0.000652313	9.02557373	-3.61328125	1.25579834	-0.011253358	0.004243851	0.032615664	-0.645996094	0.30859375	-0.737304688	890.88	-69.33113737	-66.849728	68.64499754	-90
11654	0	0.362182617	-0.143371582	0.050048828	0.999999046	-0.000244141	-0.000202179	0.000743866	9.05456543	-3.584289551	1.251220703	-0.012207033	-0.010108949	0.037193302	-0.643554688	0.30859375	-0.734619141	890.92	-69.47072128	-66.7859987	68.7650752	-91
11655	0	0.362976074	-0.140625	0.050170898	0.999999046	-0.000217438	-0.000113487	0.000392914	9.074401855	-3.515625	1.254272461	-0.010871888	-0.005674362	0.019645692	-0.645996094	0.310791016	-0.734619141	890.88	-69.55195024	-66.75648641	68.82403395	-88
11656	0	0.359430313	-0.1407547	0.051434517	0.999984741	-0.000452042	-0.000197411	0.000181198	8.985757828	-3.518867493	1.285862923	-0.022602082	-0.00987053	0.009059906	-0.645996094	0.310791016	-0.740234375	890.92	-69.6612414	-66.75312989	68.88675562	-91
11657	0	0.361450195	-0.140563965	0.051025391	0.999999046	-0.000400543	-0.000281334	0.000389099	9.036254883	-3.514099121	1.275634766	-0.020027162	-0.014066697	0.019454957	-0.643798828	0.312988281	-0.731933594	890.84	-69.80480147	-66.73085378	68.98758046	-92
11658	0	0.364013672	-0.143127441	0.051269531	0.999999046	-0.000442505	-0.000289917	2.67E-05	9.100341797	-3.578186035	1.281738281	-0.022125245	-0.01449585	0.001335144	-0.646240234	0.312988281	-0.731933594	890.84	-69.92199515	-66.74790913	69.05744352	-85
11659	0	0.363891602	-0.143005371	0.052185059	0.999999046	-8.77E-05	-0.000502586	-9.16E-05	9.097290039	-3.575134277	1.304626465	-0.004386902	-0.025129319	-0.004577637	-0.646240234	0.312988281	-0.734863281	890.94	-70.04114421	-66.78605541	69.1734606	-85
11660	0	0.363525391	-0.143188477	0.050720215	0.999999046	-0.000132561	-0.000434875	4.58E-05	9.088134766	-3.579711914	1.268005371	-0.006628037	-0.021743775	0.002288818	-0.648681641	0.312988281	-0.731689453	890.88	-70.16130125	-66.80673451	69.28631446	-87
11661	0	0.360900879	-0.142150879	0.053283691	0.999999046	1.91E-05	-0.000418663	8.77E-05	9.022521973	-3.553771973	1.332092285	0.000953674	-0.020933152	0.004386902	-0.6484375	0.312988281	-0.737548828	890.84	-70.26364295	-66.82218352	69.39907552	-88
11662	0	0.362609863	-0.142700195	0.05291748	0.999999046	-0.000106812	-0.000411987	-3.43E-05	9.065246582	-3.567504883	1.322937012	-0.005340576	-0.020599366	-0.001716614	-0.646240234	0.310791016	-0.729003906	890.94	-70.36758767	-66.85048651	69.49883774	-88
11663	0	0.364988327	-0.14329052	0.051135063	0.999994278	-0.000189781	-9.92E-05	-1.53E-05	9.124708176	-3.582262993	1.278376579	-0.00948906	-0.004959106	-0.000762939	-0.648681641	0.315185547	-0.734863281	890.82	-70.40384288	-66.86470428	69.50879653	-92
11664	0	0.364807129	-0.144958496	0.049438477	0.999999046	-0.000258446	-0.00012207	1.14E-05	9.120178223	-3.623962402	1.235961914	-0.012922287	-0.006103516	0.000572205	-0.650878906	0.311035156	-0.728759766	890.88	-70.4563648	-66.87692408	69.53761946	-88
11665	0	0.363060951	-0.143233299	0.049584389	0.999998093	-0.000277519	5.72E-06	0.000332832	9.076523781	-3.580832481	1.239609718	-0.013875962	0.000286102	0.016641617	-0.650878906	0.313232422	-0.731689453	890.9	-70.50764956	-66.84956514	69.56028576	-92
11666	0	0.363750458	-0.14172554	0.048570633	0.999999046	-0.000476837	-8.20E-05	0.000405312	9.093761444	-3.543138504	1.214265823	-0.023841859	-0.0041008	0.020265581	-0.650878906	0.313232422	-0.734619141	890.94	-70.61038316	-66.81785539	69.61691178	-91
11667	0	0.364196777	-0.144592285	0.049560547	0.999999046	-0.00018692	0.0001688	-6.48E-05	9.104919434	-3.614807129	1.239013672	-0.009346008	0.008440018	-0.003242493	-0.650878906	0.315429688	-0.734619141	890.94	-70.57476009	-66.8274105	69.55487791	-88
11668	0	0.36138916	-0.143859863	0.049987793	0.999999046	-0.000163078	-1.91E-05	9.54E-05	9.034729004	-3.596496582	1.249694824	-0.008153915	-0.000953674	0.004768372	-0.648681641	0.315185547	-0.734863281	890.88	-70.59807672	-66.82678277	69.55923918	-88
11669	0	0.36288929	-0.144071579	0.051772118	0.999997139	-9.92E-05	-9.82E-05	0.000513077	9.072232246	-3.601789474	1.29430294	-0.004959107	-0.004911423	0.02565384	-0.648925781	0.315429688	-0.729248047	890.9	-70.67086205	-66.78397844	69.62573088	-91
11670	0	0.362327576	-0.141798019	0.049834251	0.999999046	-0.000358582	0.000160217	0.00031662	9.058189392	-3.544950485	1.245856285	-0.017929078	0.008010865	0.015830994	-0.651367188	0.315429688	-0.726318359	890.92	-70.69062666	-66.75271366	69.60564059	-90
11671	0	0.361877441	-0.144958496	0.049987793	0.999999046	-0.000274658	0.000187874	-0.000141144	9.046936035	-3.623962402	1.249694824	-0.01373291	0.009393692	-0.00705719	-0.649169922	0.317626953	-0.723876953	890.94	-70.65340308	-66.76985814	69.52759044	-89
11672	0	0.362936974	-0.145188332	0.048639297	0.999999046	7.92E-05	-0.000123978	0.000224113	9.073424339	-3.62970829	1.215982437	0.003957748	-0.006198883	0.011205673	-0.648925781	0.319824219	-0.732421875	891.06	-70.68663439	-66.75932455	69.56729413	-88
11673	0	0.361755371	-0.142456055	0.047851563	0.999999046	-0.000102997	-0.000170708	0.00019455	9.043884277	-3.561401367	1.196289063	-0.005149841	-0.008535385	0.009727478	-0.646484375	0.317382813	-0.732421875	890.88	-70.75003173	-66.75385232	69.6207347	-87
11674	0	0.360434532	-0.143644333	0.049712181	0.999999046	-0.000339508	-8.77E-05	0.000110626	9.010863304	-3.591108322	1.242804527	-0.016975403	-0.004386902	0.005531311	-0.648925781	0.317626953	-0.7265625	891	-70.8121986	-66.75430751	69.64487465	-87
11675	0	0.36151123	-0.144470215	0.04876709	0.999999046	5.34E-05	-0.000235558	-6.87E-05	9.037780762	-3.611755371	1.219177246	0.002670288	-0.011777878	-0.003433228	-0.651367188	0.317626953	-0.7265625	890.9	-70.85099993	-66.77972105	69.69367885	-87
11676	0	0.363383293	-0.142828941	0.046961784	0.999999046	-0.000126839	-0.000307083	-0.000183105	9.084582329	-3.570723534	1.174044609	-0.006341934	-0.015354157	-0.009155274	-0.648925781	0.317626953	-0.732421875	890.94	-70.91885401	-66.82031743	69.74990561	-90
11677	0	0.362487793	-0.145507813	0.048339844	0.999999046	-0.000240326	-0.000452995	2.67E-05	9.062194824	-3.637695313	1.208496094	-0.012016297	-0.022649766	0.001335144	-0.648925781	0.317626953	-0.729492188	890.94	-71.05534217	-66.84354243	69.86625388	-91
11678	0	0.360998154	-0.144024849	0.048857689	0.999999046	0.000120163	-0.000644684	-0.000126839	9.024953842	-3.600621223	1.221442223	0.006008149	-0.032234194	-0.006341935	-0.651367188	0.317626953	-0.7265625	890.84	-71.18611764	-66.89038888	70.02112169	-88
11679	0	0.366760254	-0.145019531	0.048828125	0.999999046	-5.72E-05	-0.000403404	-0.000324249	9.169006348	-3.625488281	1.220703125	-0.002861023	-0.020170213	-0.016212464	-0.653564453	0.315673828	-0.723388672	890.9	-71.25922728	-66.94967652	70.09488337	-85
11680	0	0.36151123	-0.146484375	0.050292969	0.999999046	2.00E-05	-0.000392914	-0.000324249	9.037780762	-3.662109375	1.257324219	0.001001358	-0.019645692	-0.016212464	-0.651367188	0.315429688	-0.726318359	890.94	-71.32097142	-67.00835804	70.16341786	-87
11681	0	0.363265038	-0.146947861	0.053848267	0.999998093	0.000353813	-0.000276566	0.00022316	9.081625938	-3.673696518	1.346206665	0.017690659	-0.013828278	0.01115799	-0.651367188	0.315429688	-0.726318359	890.9	-71.36158116	-67.00307677	70.2497451	-85
11682	0	0.364432335	-0.144311905	0.052529335	0.999999046	3.05E-05	-9.16E-05	0.000403404	9.110808372	-3.607797623	1.313233376	0.001525879	-0.004577637	0.020170212	-0.651367188	0.317626953	-0.723632813	891	-71.4068206	-66.97135256	70.29688525	-86
11683	0	0.363952637	-0.145690918	0.051269531	0.999999046	0.000141144	0.000393867	0.00025177	9.098815918	-3.642272949	1.281738281	0.00705719	0.019693375	0.012588501	-0.653564453	0.315673828	-0.726074219	890.88	-71.30204674	-66.93821345	70.20160011	-87
11684	0	0.362985611	-0.144822121	0.050190926	0.999999046	0.000248909	0.000486374	0.000232697	9.074640274	-3.620553017	1.25477314	0.012445451	0.024318696	0.011634827	-0.651367188	0.317626953	-0.7265625	890.9	-71.15983124	-66.90358256	70.07354847	-88
11685	0	0.362060547	-0.144165039	0.049499512	0.999999046	0.000198364	0.000565529	0.00037384	9.051513672	-3.604125977	1.237487793	0.009918214	0.028276446	0.018692018	-0.653564453	0.315673828	-0.729003906	890.84	-71.01594644	-66.85056706	69.94446537	-88
11686	0	0.361473083	-0.142402649	0.047766685	0.999999046	0.000234604	0.000537872	0.000507355	9.036827087	-3.560066223	1.194167137	0.011730195	0.026893618	0.025367739	-0.651367188	0.315429688	-0.726318359	890.9	-70.887316	-66.78408324	69.83577661	-88
11687	0	0.362548828	-0.142700195	0.043762207	0.999999046	1.14E-05	0.000290871	0.000431061	9.063720703	-3.567504883	1.094055176	0.000572205	0.014543534	0.021553041	-0.651367188	0.317626953	-0.732177734	890.94	-70.84102255	-66.73524435	69.78655221	-88
11688	0	0.363620758	-0.141731262	0.044525146	0.999999046	-6.39E-05	0.000289917	0.000300407	9.090518951	-3.543281555	1.113128662	-0.003194809	0.01449585	0.015020371	-0.648925781	0.315429688	-0.729248047	890.88	-70.79286223	-66.70081067	69.7289699	-88
11689	0	0.361816406	-0.142456055	0.04486084	0.999999046	9.92E-05	-6.77E-05	0.000114441	9.045410156	-3.561401367	1.121520996	0.004959106	-0.003385544	0.005722046	-0.648925781	0.315429688	-0.729248047	890.84	-70.80017893	-66.70014653	69.75171178	-87
11690	0	0.360263824	-0.139600754	0.044167519	0.999999046	0.000261307	-0.000272751	0.000152588	9.006595612	-3.490018845	1.104187965	0.013065338	-0.013637543	0.007629395	-0.651367188	0.317626953	-0.729248047	890.94	-70.84423767	-66.70334145	69.83119176	-86
11691	0	0.365478516	-0.140869141	0.046325684	0.999999046	-0.000125885	-0.000525475	-0.000133514	9.136962891	-3.521728516	1.15814209	-0.006294251	-0.026273729	-0.006675721	-0.651367188	0.317626953	-0.729248047	890.78	-70.97166385	-66.74722719	69.95228508	-85
11692	0	0.361845016	-0.142921448	0.049081802	0.999999046	-5.05E-05	-0.000389099	-0.00061512	9.046125412	-3.573036194	1.227045059	-0.002527237	-0.019454958	-0.030755999	-0.648925781	0.315429688	-0.729248047	890.9	-71.01449135	-66.8381864	69.9907977	-85
11693	0	0.361877441	-0.144165039	0.051269531	0.999999046	0	-0.000491142	-0.000255585	9.046936035	-3.604125977	1.281738281	0	-0.024557115	-0.012779236	-0.651123047	0.315429688	-0.731933594	890.88	-71.10876746	-66.89388713	70.09228532	-85
11694	0	0.362732887	-0.143064499	0.050911903	0.999999046	-0.000425339	-0.000253677	-0.00019455	9.068322182	-3.576612473	1.272797585	-0.021266938	-0.012683869	-0.009727478	-0.651367188	0.315429688	-0.726318359	890.84	-71.19673525	-66.93410291	70.13336838	-84
11695	0	0.362121582	-0.146057129	0.052978516	0.999999046	-0.000358582	-7.92E-05	-0.000392914	9.053039551	-3.651428223	1.324462891	-0.017929078	-0.003957749	-0.019645692	-0.651123047	0.315429688	-0.729248047	890.88	-71.21497441	-66.98917767	70.10690977	-84
11696	0	0.363891602	-0.14593029	0.050679207	0.999999046	-8.11E-05	-1.53E-05	-0.000432014	9.097290039	-3.648257256	1.266980171	-0.004053116	-0.000762939	-0.021600724	-0.653564453	0.315673828	-0.729003906	890.94	-71.18135447	-67.04599158	70.05873466	-85
11697	0	0.362426758	-0.145996094	0.051391602	0.999999046	-0.000286102	8.87E-05	-0.000278473	9.060668945	-3.649902344	1.284790039	-0.014305115	0.004434586	-0.013923645	-0.653808594	0.317871094	-0.726318359	890.94	-71.15754733	-67.08209315	69.99085082	-87
11698	0	0.361461639	-0.146251678	0.050394058	0.999999046	1.72E-05	0.000141144	-0.000247955	9.036540985	-3.656291962	1.259851456	0.000858307	0.00705719	-0.012397766	-0.653564453	0.315673828	-0.729003906	891	-71.08789999	-67.11270072	69.91488606	-86
11699	0	0.362731934	-0.145019531	0.04864502	0.999999046	-6.87E-05	8.49E-05	-0.000331879	9.06829834	-3.625488281	1.216125488	-0.003433228	0.004243851	-0.016593933	-0.653564453	0.315673828	-0.726074219	890.94	-71.03500494	-67.15434239	69.84495348	-86
11700	0	0.362210274	-0.145884514	0.047769547	0.999999046	-0.000271797	0.000173569	-0.000145912	9.055256844	-3.647112846	1.194238663	-0.013589859	0.008678436	-0.007295609	-0.651123047	0.313232422	-0.726074219	890.94	-70.99907576	-67.17234104	69.77156643	-86
11701	0	0.362976074	-0.14642334	0.048095703	0.999999046	-0.000175476	-2.96E-05	0.000102997	9.074401855	-3.660583496	1.202392578	-0.008773804	-0.001478195	0.005149841	-0.651367188	0.315429688	-0.726318359	891	-71.02662212	-67.17075319	69.77535002	-87
11702	0	0.36178875	-0.145355225	0.047961235	0.999999046	2.10E-05	-9.16E-05	-3.53E-05	9.044718742	-3.633880615	1.199030876	0.001049042	-0.004577637	-0.001764297	-0.653564453	0.315673828	-0.729003906	890.96	-71.03554889	-67.18630809	69.78462434	-87
11703	0	0.359985352	-0.14453125	0.047973633	0.999999046	-6.48E-05	-0.00014019	6.10E-05	8.999633789	-3.61328125	1.19934082	-0.003242493	-0.007009506	0.003051758	-0.653564453	0.313476563	-0.728759766	890.94	-71.07551194	-67.19308203	69.82138945	-86
11704	0	0.366633415	-0.147756577	0.049132347	0.999999046	0.000285149	-0.000307083	-0.00024128	9.165835381	-3.693914413	1.228308678	0.014257432	-0.015354157	-0.012063981	-0.651123047	0.313232422	-0.726074219	890.88	-71.09185362	-67.23863639	69.87192759	-85
11705	0	0.36126709	-0.145812988	0.051452637	0.999999046	0.000331879	-0.000197411	-0.000495911	9.031677246	-3.645324707	1.286315918	0.016593934	-0.00987053	-0.024795534	-0.653564453	0.315673828	-0.726074219	890.94	-71.05169353	-67.30746511	69.86103844	-85
11706	0	0.361433029	-0.146640778	0.053236961	0.999999046	-0.000204086	0.000112534	-7.63E-06	9.035825729	-3.66601944	1.330924034	-0.010204315	0.005626679	-0.00038147	-0.653564453	0.313476563	-0.726074219	890.94	-71.03554672	-67.31151493	69.81481748	-85
11707	0	0.363769531	-0.147399902	0.052062988	0.999999046	-6.87E-05	0.000489235	6.48E-05	9.094238281	-3.684997559	1.301574707	-0.003433228	0.024461747	0.003242493	-0.653320313	0.311279297	-0.728759766	890.96	-70.91253828	-67.29333538	69.6750927	-85
11708	0	0.364314079	-0.144158363	0.048370361	0.999999046	-0.000390053	0.000640869	0.000132561	9.107851982	-3.603959084	1.209259033	-0.019502642	0.03204346	0.006628037	-0.653564453	0.313476563	-0.728759766	890.84	-70.79361094	-67.26194427	69.49747786	-85
11709	0	0.364990234	-0.144775391	0.049133301	0.999999046	-0.000541687	0.000603676	0	9.124755859	-3.619384766	1.22833252	-0.027084354	0.030183795	0	-0.653564453	0.313476563	-0.728759766	891	-70.69013025	-67.24609076	69.31973418	-85
11710	0	0.360472679	-0.143548965	0.050876617	0.999999046	-0.000324249	0.000411987	-0.000331879	9.011816978	-3.588724136	1.271915436	-0.016212464	0.020599367	-0.016593934	-0.651123047	0.315429688	-0.731933594	891	-70.58096426	-67.27313475	69.1576641	-85
11711	0	0.356506348	-0.140563965	0.051147461	0.999999046	-0.000362396	0.000321388	-0.000637054	8.912658691	-3.514099121	1.278686523	-0.018119814	0.016069414	-0.031852726	-0.651123047	0.313232422	-0.731933594	890.94	-70.47097036	-67.33640777	68.99380303	-86
11712	0	0.355862617	-0.143750191	0.052552223	0.999998093	-0.000526428	0.000401497	-0.001389503	8.896565437	-3.593754768	1.31380558	-0.026321422	0.020074852	-0.069475201	-0.651367188	0.315429688	-0.726318359	890.94	-70.28798574	-67.47736267	68.72276062	-87
11713	0	0.363220215	-0.150756836	0.049865723	0.999997139	-0.000221252	0.000344276	-0.002002716	9.080505371	-3.768920898	1.246643066	-0.01106263	0.017213833	-0.100135873	-0.651123047	0.313232422	-0.731933594	891	-70.02416156	-67.685793	68.4024156	-88
11714	0	0.367675781	-0.152893066	0.048522949	0.999997139	-0.000160217	0.00018692	-0.00202179	9.191894531	-3.82232666	1.21307373	-0.00801087	0.009346015	-0.101089547	-0.653320313	0.309082031	-0.731445313	890.9	-69.7884964	-67.90145274	68.12474912	-90
11715	0	0.364685059	-0.152954102	0.049621582	0.999999046	-8.77E-05	-0.000132561	-0.001216888	9.117126465	-3.823852539	1.240539551	-0.004386903	-0.006628038	-0.060844437	-0.655517578	0.306884766	-0.725341797	890.84	-69.7053123	-68.04232497	68.02199216	-85
11716	0	0.358825684	-0.146911621	0.051635742	0.999999046	-0.000422478	-6.87E-05	-0.000835419	8.97064209	-3.672790527	1.290893555	-0.021123889	-0.003433228	-0.041770941	-0.655517578	0.306884766	-0.728271484	890.94	-69.68046318	-68.1390772	67.93992035	-85
11717	0	0.361661911	-0.148464203	0.054329872	0.999997139	7.63E-06	-0.000197411	-0.001307487	9.041547775	-3.711605072	1.358246803	0.00038147	-0.009870532	-0.065374393	-0.655517578	0.3046875	-0.730957031	890.9	-69.59308696	-68.29102434	67.84434006	-90
11718	0	0.356987953	-0.145792007	0.054619789	0.999998093	0.000449181	-8.49E-05	-0.001629829	8.92469883	-3.644800186	1.365494728	0.022459041	-0.004243853	-0.081491509	-0.657714844	0.302490234	-0.730712891	890.82	-69.39008479	-68.47232177	67.67838041	-85
11719	0	0.358703613	-0.147155762	0.055969238	0.999998093	0.000706673	-3.05E-05	-0.001464844	8.967590332	-3.678894043	1.399230957	0.035333649	-0.00152588	-0.07324222	-0.659912109	0.300537109	-0.727539063	890.94	-69.15647092	-68.63276088	67.5096081	-79
11720	0	0.361502647	-0.141505241	0.052912712	0.999998093	0.000597	0.000243187	-0.001277924	9.037566185	-3.537631035	1.322817802	0.029850016	0.012159352	-0.063896201	-0.659912109	0.298339844	-0.727294922	890.88	-68.87701117	-68.76127644	67.27712458	-81
11721	0	0.362182617	-0.141723633	0.051818848	0.999998093	-0.000220299	0.000377655	-0.001655579	9.05456543	-3.54309082	1.295471191	-0.011014944	0.018882761	-0.082778971	-0.657470703	0.295898438	-0.729980469	890.88	-68.61064897	-68.92371153	66.9580917	-79
11722	0	0.370491982	-0.142534256	0.049226761	0.999998093	0.000422478	0.00042057	-0.001731873	9.262299538	-3.5633564	1.230669022	0.021123898	0.02102853	-0.086593676	-0.659423828	0.291748047	-0.732421875	890.94	-68.24623001	-69.09153274	66.61725172	-76
11723	0	0.366210938	-0.139770508	0.04864502	0.999998093	-0.000258446	0.000213623	-0.001358032	9.155273438	-3.494262695	1.216125488	-0.012922291	0.010681156	-0.067901633	-0.661865234	0.289550781	-0.729248047	891.02	-68.05567821	-69.22751966	66.38158591	-74
11724	0	0.358325958	-0.138336182	0.050617218	0.999998093	0.00062561	7.34E-05	-0.001354218	8.958148956	-3.458404541	1.26543045	0.031280529	0.003671647	-0.067710902	-0.661621094	0.289550781	-0.735107422	891	-67.80114327	-69.36834324	66.18072173	-73
11725	0	0.349609375	-0.131835938	0.052978516	0.999997139	0.000797272	-5.25E-05	-0.00188446	8.740234375	-3.295898438	1.324462891	0.039863614	-0.002622606	-0.094223088	-0.661621094	0.28515625	-0.729003906	891	-67.49725886	-69.57009509	65.94801819	-73
11726	0	0.346701622	-0.133255959	0.051995277	0.999995232	0.000883102	5.91E-05	-0.002682686	8.66754055	-3.331398964	1.299881935	0.04415518	0.002956394	-0.134134471	-0.666015625	0.281005859	-0.731201172	890.94	-67.04993545	-69.85018034	65.57418496	-73
11727	0	0.353149414	-0.136535645	0.052062988	0.999991417	0.00157547	0.000134468	-0.003662109	8.828735352	-3.413391113	1.301574707	0.078773707	0.006723422	-0.183105954	-0.668457031	0.278808594	-0.730957031	890.96	-66.36596579	-70.22796958	65.02359447	-74
11728	0	0.360033989	-0.140462875	0.04918766	0.999990463	0.001155853	0.000107765	-0.004090309	9.000849724	-3.511571884	1.229691505	0.057792838	0.005388276	-0.204516073	-0.670166016	0.270263672	-0.738769531	890.96	-65.65920205	-70.64879704	64.4031485	-79
11729	0	0.366149902	-0.143066406	0.04901123	0.999991417	0.000301361	-2.57E-05	-0.003997803	9.153747559	-3.576660156	1.225280762	0.015068095	-0.001287464	-0.199890672	-0.669921875	0.263671875	-0.735351563	891.02	-65.07789377	-71.06312749	63.81303361	-84
11730	0	0.365062714	-0.144699097	0.051642418	0.999991417	0.000743866	-0.000209808	-0.00383091	9.126567841	-3.617477417	1.291060448	0.037193393	-0.010490444	-0.191545974	-0.674316406	0.257324219	-0.734619141	890.96	-64.50284798	-71.46602872	63.28602095	-75
11731	0	0.355651855	-0.133972168	0.053283691	0.999994278	1.62E-05	-0.000221252	-0.003276825	8.891296387	-3.349304199	1.332092285	0.000810625	-0.011062642	-0.163841542	-0.676269531	0.250732422	-0.736816406	890.94	-64.07753728	-71.80983179	62.83516921	-69
11732	0	0.354165077	-0.131347656	0.057098389	0.999993324	0.000552177	-0.000164032	-0.003445625	8.85412693	-3.283691406	1.427459717	0.027608928	-0.008201616	-0.172281616	-0.680908203	0.246582031	-0.736083984	890.88	-63.5291647	-72.16581539	62.31924397	-68
11733	0	0.352783203	-0.123657227	0.05480957	0.999988556	0.001160622	-0.000164032	-0.004623413	8.819580078	-3.091430664	1.370239258	0.058031302	-0.00820163	-0.231171531	-0.682861328	0.239990234	-0.73828125	890.94	-62.69330866	-72.63943298	61.57329689	-68
11734	0	0.344291687	-0.121024132	0.054615021	0.999982834	0.001889229	-0.000222206	-0.005429268	8.607292175	-3.025603294	1.365375519	0.094461962	-0.011110367	-0.271464892	-0.684814453	0.231445313	-0.740478516	890.9	-61.60500528	-73.19303805	60.64917	-72
11735	0	0.358520508	-0.122619629	0.054016113	0.999975204	0.002835274	-0.000400543	-0.006397247	8.963012695	-3.065490723	1.350402832	0.141764848	-0.020027325	-0.319864985	-0.689208984	0.22265625	-0.739501953	890.96	-60.21329607	-73.8466076	59.51625589	-79
11736	0	0.356899261	-0.120453835	0.052351952	0.99997139	0.002157211	0.000412941	-0.007227898	8.922481537	-3.011345863	1.30879879	0.107861591	0.020647245	-0.36139832	-0.693115234	0.207519531	-0.738037109	890.9	-58.3335689	-74.52408185	57.80414017	-70
11737	0	0.340881348	-0.109863281	0.054260254	0.999970436	-0.000434875	0.00105381	-0.007575989	8.522033691	-2.746582031	1.356506348	-0.021743987	0.052691021	-0.378803144	-0.694824219	0.194580078	-0.742431641	890.9	-56.28408387	-75.17821057	55.62147339	-68
11738	0	0.34058094	-0.11886692	0.05993557	0.999957085	-0.002111435	0.00128746	-0.008852959	8.514523506	-2.971673012	1.498389244	-0.105573234	0.064373923	-0.442654167	-0.699462891	0.188232422	-0.741699219	891	-53.81493993	-75.9124209	52.8091763	-72
11739	0	0.33026123	-0.101257324	0.052978516	0.999933243	-0.00555706	0.003833771	-0.00933075	8.256530762	-2.531433105	1.324462891	-0.277859155	0.191692775	-0.46654779	-0.698974609	0.177246094	-0.743652344	890.9	-50.38700616	-76.47281646	48.62548365	-75
11740	0	0.310649872	-0.121696472	0.058548927	0.999892235	-0.00703907	0.004562378	-0.011993408	7.766246796	-3.042411804	1.463723183	-0.351966073	0.228127041	-0.599691821	-0.698730469	0.175048828	-0.752197266	890.84	-45.64574557	-77.12982557	42.92174242	-87
11741	0	0.317504883	-0.109924316	0.062988281	0.999868393	0.00206852	0.002815247	-0.015827179	7.93762207	-2.74810791	1.574707031	0.103430509	0.140768493	-0.791393601	-0.695556641	0.159423828	-0.756591797	891	-38.33288222	-78.08848403	35.64914615	-70
11742	0	0.318778038	-0.094043732	0.039610863	0.999793053	-0.006484985	0.005348206	-0.018475533	7.969450951	-2.351093292	0.990271568	-0.324271537	0.267428644	-0.923840072	-0.69921875	0.137695313	-0.763183594	890.94	-28.88021257	-78.73696541	25.22896212	-72
11743	0	0.272033691	-0.113769531	0.082580566	0.999668121	0.002949715	0.007324219	-0.024486542	6.800842285	-2.844238281	2.06451416	0.147502009	0.366251351	-1.224462199	-0.696044922	0.120117188	-0.767578125	890.9	-13.79352379	-78.96302546	10.13386671	-74
11744	0	0.268496513	-0.050937653	0.061388969	0.999482155	0.010712624	0.007410049	-0.029408455	6.712412834	-1.273441315	1.534724236	0.535723577	0.370566384	-1.470676395	-0.693603516	0.069580078	-0.786376953	891.02	4.482279694	-78.37393883	-7.330180135	-69
11745	0	0.249572754	-0.074279785	0.041625977	0.999224663	0.006271362	0.011948586	-0.036968231	6.239318848	-1.856994629	1.040649414	0.313649111	0.597583594	-1.848889014	-0.686279297	0.014892578	-0.796630859	890.96	21.92781837	-76.04643656	-24.57641825	-70
11746	0	0.135848999	-0.014436722	0.063800812	0.997344017	0.054531097	0.00856781	-0.047475815	3.396224976	-0.360918045	1.595020294	2.728969547	0.428769892	-2.375893004	-0.666015625	-0.069091797	-0.822265625	890.9	42.51251933	-72.28901699	-39.7456175	-76
11747	0	0.173278809	0.049438477	-0.036254883	0.995029449	0.080277443	-0.005172729	-0.058685303	4.331970215	1.235961914	-0.90637207	4.020534969	-0.259065798	-2.939135866	-0.646972656	-0.248779297	-0.811279297	890.94	63.91981389	-67.23868523	-53.08574329	-70
11748	0	0.19790554	0.057330132	-0.080785751	0.990041733	0.11763382	-0.022841454	-0.073864937	4.947638512	1.433253288	-2.019643784	5.901291011	-1.145878498	-3.705554145	-0.622314453	-0.473876953	-0.739990234	890.96	86.82492128	-59.69473695	-63.94346029	-77
11749	0	0.198242188	0.066101074	-0.019470215	0.984520912	0.147972107	-0.064879417	-0.067913055	4.956054688	1.652526855	-0.486755371	7.437016185	-3.260812375	-3.413281751	-0.574462891	-0.744873047	-0.549560547	891.02	112.6062618	-50.74947131	-74.68904569	-80
11750	0	0.442321777	0.103271484	-0.098754883	0.982863426	0.142433167	-0.098655701	-0.062911987	11.05804443	2.581787109	-2.46887207	7.162617781	-4.96115542	-3.163690944	-0.525878906	-0.942626953	-0.191162109	890.96	134.494794	-38.48081012	-82.370569	-84
11751	0	0.381944656	0.964568138	-0.967225075	0.953512192	0.172558784	-0.219694138	-0.113006592	9.548616409	24.11420345	-24.18062687	8.764170855	-11.15815091	-5.739545982	-0.377197266	-1.030029297	0.209472656	890.94	156.6638644	-10.09937032	-86.32188939	-78
11752	0	0.589660645	0.275817871	-0.62878418	0.973003387	0.154788971	-0.171114922	0.004722595	14.74151611	6.895446777	-15.71960449	7.809852807	-8.633576039	0.238277787	0.014892578	-0.930664063	0.655761719	890.92	174.806283	8.841544067	-91.63597839	-84
11753	0	-0.98223877	0.14465332	-0.973632813	0.978221893	0.179642677	-0.101783752	0.021190643	-24.55596924	3.616333008	-24.34082031	9.047909581	-5.126455488	1.067291066	0.241455078	-0.648193359	0.910888672	891	-164.746765	20.69961044	-93.04804308	-81
11754	0	0.066650391	0.127197266	-0.257202148	0.995802879	-0.009799957	0.050037384	-0.076004028	1.666259766	3.179931641	-6.430053711	-0.490684524	2.505375206	-3.805526843	0.334228516	-0.357666016	1.038574219	890.9	-163.8157086	12.79563503	-85.89580674	-79
11755	0	0.107568741	-0.042272568	0.088158607	0.991386414	-0.124855995	0.036323547	-0.015544891	2.689218521	-1.056814194	2.203965187	-6.260782962	1.821409105	-0.779483523	0.276611328	-0.471679688	1.005615234	890.9	-177.9679924	8.395112378	-84.76879255	-90
11756	0	-0.127448082	-0.088050842	-0.443623543	0.999679565	0.003042221	0.022145271	0.01181221	-3.186202049	-2.201271057	-11.09058857	0.152127263	1.107381559	0.590673442	0.218017578	-0.653808594	0.918212891	890.9	-177.7992934	5.905200257	-86.2193158	-79
11757	0	-0.099243164	-0.054382324	-0.620117188	0.99805069	0.051297188	0.034633636	0.007919312	-2.481079102	-1.359558105	-15.50292969	2.566526739	1.732807545	0.396222983	0.149414063	-0.598632813	0.96875	890.96	-171.9994453	2.029866558	-87.47275207	-74
11758	0	-0.254582405	-0.091966629	-0.297497749	0.99988842	0.000473022	0.014196396	-0.004435539	-6.364560127	-2.299165726	-7.437443733	0.023651996	0.709845993	-0.221785148	0.077636719	-0.526123047	1.026611328	890.9	-171.9347056	0.35797347	-87.19326436	-75
11759	0	-0.181152344	-0.154785156	-0.317626953	0.999961853	0.002240181	0.00642395	-0.005317688	-4.528808594	-3.869628906	-7.940673828	0.11201044	0.321201501	-0.265887704	0.059326172	-0.531982422	1.01953125	891	-171.6681059	-0.438942762	-86.69172833	-75
11760	0	-0.028328896	-0.119314194	-0.319326401	0.999641418	-0.026702881	0.000727654	-0.0013237	-0.708222389	-2.982854843	-7.983160019	-1.335303271	0.036387014	-0.066192891	0.052246094	-0.533935547	1.022949219	891.02	-174.7159362	-0.520158943	-86.54692372	-78
11761	0	-0.013427734	-0.075256348	-0.411865234	0.998874664	-0.047377586	0.000862122	-0.001838684	-0.335693359	-1.881408691	-10.29663086	-2.369768058	0.043122251	-0.091968695	0.053710938	-0.604248047	0.982910156	890.96	179.86606	-0.608201307	-86.33575448	-79
11762	0	-0.007676125	-0.005940437	-0.382786751	0.999718666	-0.022903442	0.006086349	-0.000965118	-0.191903114	-0.148510933	-9.56966877	-1.145279514	0.304346014	-0.048260446	0.051269531	-0.691894531	0.927490234	891.02	177.2541576	-1.28224942	-86.20198603	-79
11763	0	-0.03515625	0.018859863	-0.382568359	0.999988556	0.001652718	0.003993988	0.001968384	-0.87890625	0.471496582	-9.564208984	0.08263619	0.199700153	0.098419559	0.041015625	-0.717773438	0.904541016	891	177.4633725	-1.727734896	-86.40103264	-77
11764	0	-0.008056641	0.01776123	-0.366638184	0.999977112	0.00440979	0.004857063	0.001480103	-0.201416016	0.444030762	-9.16595459	0.220491164	0.242854995	0.074005685	0.033447266	-0.706542969	0.912597656	890.96	177.9876294	-2.268220471	-86.54305035	-79
11765	0	-0.051696777	0.027526855	-0.41809082	0.999908447	-0.011130333	0.007415771	0.001720428	-1.292419434	0.688171387	-10.45227051	-0.556533515	0.370799812	0.086024031	0.021972656	-0.708496094	0.913574219	890.94	176.7320771	-3.100953786	-86.6952985	-77
11766	0	-0.041940689	0.040639877	-0.398300171	0.99969101	-0.02218914	0.009671211	0.005620003	-1.048517227	1.015996933	-9.957504272	-1.109571225	0.48361034	0.281029064	0.004638672	-0.734130859	0.887939453	890.94	174.2354967	-4.228506171	-87.24506185	-79
11767	0	-0.059082031	0.050415039	-0.403320313	0.999552727	-0.026847839	0.010396004	0.00806427	-1.477050781	1.260375977	-10.08300781	-1.342592046	0.51987766	0.403273598	-0.020996094	-0.775146484	0.850097656	891	171.2330642	-5.495040698	-88.0078605	-85
11768	0	0.050806999	0.060540199	-0.427727699	0.999575615	-0.027750969	0.00623703	0.006152153	1.27017498	1.513504982	-10.69319248	-1.387744366	0.311895534	0.307651084	-0.046386719	-0.818359375	0.803710938	890.96	168.1198553	-6.293349998	-88.5713718	-88
11769	0	0.124755859	0.043945313	-0.260925293	0.999646187	-0.026050568	0.005173683	0.000621796	3.118896484	1.098632813	-6.523132324	-1.302681648	0.258714597	0.031093441	-0.059814453	-0.864013672	0.754150391	890.92	165.1353767	-6.860786326	-88.49840774	-89
11770	0	0.110147476	0.048999786	-0.309914589	0.999966621	-0.000854492	-0.004310608	-0.0067873	2.753686905	1.224994659	-7.747864723	-0.042725075	-0.215532744	-0.339368703	-0.062744141	-0.890380859	0.716552734	891.02	164.9765515	-6.161473464	-87.86725069	-84
11771	0	0.120300293	0.061767578	-0.375732422	0.999789238	0.004508972	-0.015917778	-0.012096405	3.007507324	1.544189453	-9.393310547	0.225464394	-0.795944627	-0.6048626	-0.030273438	-0.887207031	0.722900391	891	165.4276468	-4.027121274	-86.98575465	-79
11772	0	0.107978821	0.107382774	-0.355399132	0.999856949	0.00107193	-0.012869835	-0.010919571	2.69947052	2.684569359	-8.884978294	0.053599052	-0.643522424	-0.546004576	0.016113281	-0.882080078	0.728515625	891.02	165.5156801	-2.273832409	-86.13722726	-78
11773	0	0.003112793	0.147216797	-0.412963867	0.999939919	-0.004261017	-0.009856224	-0.002048492	0.077819824	3.680419922	-10.32409668	-0.213055086	-0.492821019	-0.102426662	0.048828125	-0.885253906	0.735595703	891.06	165.0385037	-1.109867657	-86.18995165	-76
11774	0	-0.004325867	0.130003929	-0.393373489	0.999996185	0.002602577	0.000504494	0.000185966	-0.108146667	3.250098228	-9.834337234	0.130129014	0.025224715	0.009298336	0.063232422	-0.890380859	0.723876953	890.96	165.3447034	-1.159020504	-86.18806636	-77
11775	0	0.010131836	0.086975098	-0.349975586	0.999950409	0.009522438	0.002723694	-0.000488281	0.253295898	2.174377441	-8.749389648	0.476129706	0.136186924	-0.024414463	0.055664063	-0.881103516	0.732177734	890.9	166.4407409	-1.436552276	-86.05094353	-79
11776	0	0.009899139	0.061642647	-0.372958183	0.999977112	0.006454468	-0.001635551	-0.000982285	0.247478485	1.54106617	-9.323954582	0.322725825	-0.08177819	-0.049114598	0.0546875	-0.865722656	0.753662109	890.92	167.1877309	-1.217414977	-85.97772285	-78
11777	0	-0.00177002	0.076538086	-0.390197754	0.999995232	-0.001644135	-0.002192497	0.00043869	-0.044250488	1.913452148	-9.754943848	-0.082206832	-0.109625003	0.021934537	0.059082031	-0.861572266	0.758789063	890.92	167.0105419	-0.972643919	-86.0762173	-79
11778	0	-0.007484436	0.097126961	-0.375569344	0.999992371	-0.003760338	0.00042057	0.000668526	-0.187110901	2.428174019	-9.389233589	-0.188017354	0.02102857	0.033426367	0.059570313	-0.868164063	0.750732422	890.9	166.5890946	-1.02557427	-86.13307016	-79
11779	0	0.001586914	0.090759277	-0.364379883	0.999996185	0.001164436	0.00245285	0.000469208	0.039672852	2.268981934	-9.10949707	0.058221891	0.122642672	0.023460418	0.057373047	-0.870117188	0.750976563	890.96	166.7300975	-1.300095825	-86.1137925	-79
11780	0	0.012402534	0.077366829	-0.373538017	0.999997139	0.000981331	0.002157211	3.34E-05	0.310063362	1.934170723	-9.338450432	0.04906659	0.107860666	0.001668932	0.054931641	-0.867919922	0.75390625	890.92	166.8492798	-1.530852261	-86.0543645	-78
11781	0	0.018249512	0.075561523	-0.372192383	0.999999046	-0.000335693	0.000290871	-1.91E-05	0.456237793	1.889038086	-9.30480957	-0.016784669	0.014543534	-0.000953674	0.052490234	-0.865722656	0.750976563	890.9	166.8188356	-1.552832497	-86.03818396	-77
11782	0	0.014185905	0.084596634	-0.366940498	0.999999046	-0.000801086	-0.000852585	3.34E-05	0.354647636	2.114915848	-9.173512459	-0.04005433	-0.042629252	0.00166893	0.052490234	-0.867919922	0.748291016	890.92	166.7357637	-1.449166356	-86.05782169	-77
11783	0	0.008361816	0.086791992	-0.37689209	0.999999046	0.000492096	-0.000853539	-9.54E-05	0.20904541	2.169799805	-9.422302246	0.024604801	-0.042676933	-0.004768372	0.052490234	-0.867919922	0.751220703	890.84	166.8002894	-1.342280466	-86.06311911	-77
11784	0	0.008254051	0.0850811	-0.374977112	0.999999046	-0.000113487	-0.000175476	0.000320435	0.20635128	2.127027512	-9.374427795	-0.005674362	-0.008773804	0.016021729	0.054931641	-0.867919922	0.748046875	890.86	166.7959172	-1.322205286	-86.09679797	-77
11785	0	0.007751465	0.083557129	-0.369567871	0.999998093	0.001690865	-0.000160217	0.000534058	0.193786621	2.088928223	-9.239196777	0.084543273	-0.008010868	0.026702895	0.054931641	-0.867919922	0.75390625	891	166.9986894	-1.309586278	-86.15392074	-77
11786	0	0.006801605	0.080386162	-0.376131058	0.999999046	0.001132965	0.000221252	0.000536919	0.170040131	2.009654045	-9.403276443	0.05664827	0.011062625	0.026845939	0.052246094	-0.865722656	0.756591797	890.9	167.13734	-1.339679123	-86.20167625	-77
11787	0	0.007385254	0.082580566	-0.371154785	0.999999046	0.000843048	0.000603676	0.000480652	0.184631348	2.06451416	-9.278869629	0.042152414	0.030183799	0.024032598	0.052246094	-0.863525391	0.753662109	890.92	167.2422372	-1.411196733	-86.23340695	-78
11788	0	0.011082649	0.079380035	-0.371582031	0.999999046	0.000771523	0.000734329	0.000292778	0.277066231	1.984500885	-9.289550781	0.038576134	0.036716469	0.014638904	0.052246094	-0.863525391	0.762207031	890.92	167.3383134	-1.492913156	-86.24093009	-78
11789	0	0.013549805	0.078735352	-0.373596191	0.999999046	-0.001091003	0.000531197	9.16E-05	0.338745117	1.968383789	-9.339904785	-0.054550184	0.026559836	0.004577638	0.052246094	-0.863525391	0.753662109	891	167.2204796	-1.547322845	-86.23109241	-79
11790	0	0.014810562	0.082039833	-0.369070053	0.999999046	-0.000764847	-0.000160217	-8.58E-06	0.370264053	2.050995827	-9.226751328	-0.038242344	-0.008010865	-0.000429153	0.047607422	-0.865478516	0.75390625	890.96	167.1399863	-1.522430017	-86.22784529	-79
11791	0	0.010314941	0.083129883	-0.374145508	0.999999046	0.000225067	-0.000609398	-5.72E-05	0.257873535	2.07824707	-9.353637695	0.011253358	-0.030469897	-0.002861023	0.049804688	-0.86328125	0.756591797	890.92	167.1729224	-1.446383065	-86.23039395	-79
11792	0	0.009541512	0.082351685	-0.375049591	0.999999046	-0.000510216	-0.000137329	0.000171661	0.238537788	2.058792114	-9.376239777	-0.025510789	-0.006866455	0.008583069	0.052490234	-0.865722656	0.750976563	890.92	167.1218145	-1.429158544	-86.24632228	-78
11793	0	0.009277344	0.084655762	-0.371887207	0.999999046	0.000289917	9.54E-07	0.000221252	0.231933594	2.116394043	-9.297180176	0.01449585	4.77E-05	0.011062622	0.050048828	-0.865478516	0.756835938	890.92	167.1621889	-1.428886791	-86.2644326	-78
11794	0	0.009800911	0.08065033	-0.372972488	0.999999046	0.000278473	9.54E-05	0.000288963	0.245022774	2.01625824	-9.32431221	0.013923645	0.004768372	0.014448166	0.050048828	-0.865722656	0.750976563	890.96	167.2013318	-1.441129594	-86.28766763	-78
11795	0	0.00958252	0.082580566	-0.374450684	0.999999046	-0.000545502	0.000203133	0.000205994	0.239562988	2.06451416	-9.36126709	-0.027275087	0.010156632	0.010299683	0.047607422	-0.865478516	0.75390625	890.92	167.1456153	-1.463539016	-86.29897741	-77
11796	0	0.012512207	0.082428932	-0.370022774	0.999999046	0.000138283	0.000448227	0.000343323	0.312805176	2.060723305	-9.250569344	0.006914139	0.022411348	0.017166139	0.049804688	-0.86328125	0.756591797	890.96	167.1683365	-1.517204494	-86.31907409	-77
11797	0	0.013549805	0.082702637	-0.374572754	0.999999046	-0.000114441	0.000164986	0.000167847	0.338745117	2.067565918	-9.364318848	-0.005722046	0.008249283	0.008392334	0.045166016	-0.86328125	0.756835938	891	167.1616542	-1.535148948	-86.32715255	-76
11798	0	0.012905121	0.081073761	-0.371621132	0.999999046	-0.000101089	-0.000133514	-4.29E-05	0.322628021	2.026844025	-9.290528297	-0.005054474	-0.00667572	-0.002145767	0.047851563	-0.865478516	0.751220703	890.86	167.156005	-1.514725116	-86.31904398	-76
11799	0	0.010925293	0.081787109	-0.373840332	0.999999046	-0.00082016	-0.000136375	0.000102997	0.273132324	2.044677734	-9.346008301	-0.041008	-0.006818772	0.005149842	0.045410156	-0.867675781	0.754394531	891	167.0683126	-1.497949183	-86.32750639	-76
11800	0	0.010961533	0.08459568	-0.374194145	0.999999046	-0.000216484	-9.73E-05	0.000128746	0.274038315	2.114892006	-9.35485363	-0.010824204	-0.004863739	0.006437302	0.045410156	-0.867675781	0.751464844	890.9	167.0496616	-1.486450309	-86.3377746	-76
11801	0	0.010192871	0.083007813	-0.372680664	0.999999046	6.48E-05	-7.92E-05	0.000236511	0.254821777	2.075195313	-9.317016602	0.003242493	-0.003957748	0.011825562	0.047851563	-0.867675781	0.754150391	890.92	167.063437	-1.479942201	-86.35935293	-76
11802	0	0.011474609	0.082946777	-0.374694824	0.999999046	6.48E-05	-4.20E-05	0.000144958	0.286865234	2.073669434	-9.367370605	0.003242493	-0.002098084	0.007247925	0.047607422	-0.865478516	0.75390625	891	167.0768363	-1.475497293	-86.36981198	-76
11803	0	0.011474609	0.083435059	-0.372070313	0.999999046	5.34E-05	5.05E-05	0.000202179	0.286865234	2.085876465	-9.301757813	0.002670288	0.002527237	0.010108948	0.047851563	-0.867675781	0.754150391	890.92	167.088887	-1.483108029	-86.38429382	-76
11804	0	0.011657715	0.082458496	-0.373657227	0.999999046	-0.00051403	-7.63E-06	0.000133514	0.291442871	2.061462402	-9.341430664	-0.025701524	-0.00038147	0.006675721	0.047851563	-0.867675781	0.751464844	890.96	167.03568	-1.482723428	-86.39261133	-75
11805	0	0.012512207	0.084533691	-0.373474121	0.999999046	-0.000312805	-1.05E-05	0.000125885	0.312805176	2.113342285	-9.336853027	-0.015640259	-0.000524521	0.006294251	0.045654297	-0.867675781	0.748535156	890.9	167.005352	-1.482125092	-86.40034358	-75
11806	0	0.011669159	0.083359718	-0.372629166	0.999999046	-0.000221252	1.91E-06	0.000114441	0.291728973	2.083992958	-9.315729141	-0.011062622	9.54E-05	0.005722046	0.045654297	-0.867675781	0.748535156	890.9	166.9853775	-1.482864924	-86.40639307	-75
11807	0	0.01171875	0.084594727	-0.371826172	0.999999046	-0.000167847	-2.57E-05	0.000190735	0.29296875	2.114868164	-9.295654297	-0.008392334	-0.00128746	0.009536743	0.047851563	-0.867675781	0.748535156	891.04	166.9716044	-1.482729589	-86.42140604	-75
11808	0	0.011486053	0.084165573	-0.373020172	0.999999046	0.000109673	-7.82E-05	7.92E-05	0.287151337	2.104139328	-9.325504303	0.005483627	-0.003910065	0.003957748	0.045654297	-0.869873047	0.754394531	891	166.9892317	-1.474081189	-86.42558808	-75
11809	0	0.011901855	0.084350586	-0.373657227	0.999999046	-9.16E-05	8.49E-05	0.000102997	0.297546387	2.108764648	-9.341430664	-0.004577637	0.004243851	0.005149841	0.047851563	-0.867675781	0.751464844	890.96	166.9836426	-1.48449466	-86.42793193	-75
11810	0	0.011797905	0.084903717	-0.371931076	0.999999046	-4.77E-05	-1.72E-05	0.000166893	0.294947624	2.122592926	-9.298276901	-0.002384186	-0.000858307	0.00834465	0.047851563	-0.867675781	0.748535156	891.02	166.9831742	-1.485392228	-86.44010448	-75
11811	0	0.012573242	0.08416748	-0.371459961	0.999999046	9.16E-05	-2.19E-05	0.00012207	0.314331055	2.104187012	-9.286499023	0.004577637	-0.001096725	0.006103516	0.045654297	-0.869873047	0.751708984	891.02	166.9984098	-1.484861602	-86.44765296	-75
11812	0	0.011721611	0.083607674	-0.373490334	0.999999046	0.000132561	-0.000181198	0.0001297	0.293040276	2.090191841	-9.337258339	0.006628037	-0.009059906	0.006484985	0.045410156	-0.867675781	0.751464844	890.86	167.0183956	-1.466950254	-86.46011877	-75
11813	0	0.012817383	0.084472656	-0.372741699	0.999999046	0.0001297	9.25E-05	0.000160217	0.32043457	2.111816406	-9.31854248	0.006484985	0.00462532	0.008010864	0.043212891	-0.867431641	0.751708984	890.9	167.0378278	-1.48064947	-86.469094	-75
11814	0	0.011874199	0.08382225	-0.37434864	0.999999046	6.29E-05	-9.54E-05	0.000110626	0.296854973	2.095556259	-9.358716011	0.003147125	-0.004768372	0.005531311	0.047851563	-0.869873047	0.751464844	890.96	167.0495088	-1.472293382	-86.47677392	-75
11815	0	0.01127243	0.083587646	-0.373934746	0.999999046	-0.000343323	2.00E-05	1.81E-05	0.28181076	2.089691162	-9.348368645	-0.017166138	0.001001358	0.000905991	0.045654297	-0.869873047	0.748779297	890.96	167.0142146	-1.474619968	-86.47151371	-75
11816	0	0.012145042	0.084454536	-0.373815536	0.999999046	-7.72E-05	-5.72E-05	4.48E-05	0.30362606	2.111363411	-9.345388412	-0.003862381	-0.002861023	0.002241135	0.043212891	-0.867431641	0.754394531	890.9	167.00943	-1.469219606	-86.47143544	-75
11817	0	0.01184082	0.084777832	-0.373352051	0.999999046	2.29E-05	5.44E-05	9.92E-05	0.296020508	2.119445801	-9.33380127	0.001144409	0.002717972	0.004959106	0.045654297	-0.869873047	0.748779297	890.92	167.0160777	-1.477869739	-86.47419426	-75
11818	0	0.012324333	0.084330559	-0.372866631	0.999999046	5.53E-05	-9.54E-06	0.00018692	0.30810833	2.108263969	-9.321665764	0.002765656	-0.000476837	0.009346008	0.045410156	-0.865478516	0.751220703	891.02	167.0266292	-1.481851569	-86.48836777	-76
11819	0	0.012145996	0.084777832	-0.371276855	0.999999046	0.000167847	-1.81E-05	5.34E-05	0.303649902	2.119445801	-9.281921387	0.008392334	-0.000905991	0.002670288	0.045410156	-0.867675781	0.751464844	891	167.0495483	-1.481634735	-86.4879031	-76
11820	0	0.011468887	0.083612442	-0.374052048	0.999999046	-0.000315666	-5.34E-05	0.000148773	0.286722183	2.09031105	-9.351301193	-0.01578331	-0.002670288	0.00743866	0.045654297	-0.869873047	0.751708984	891.02	167.0172969	-1.480082304	-86.49897525	-76
11821	0	0.012512207	0.084838867	-0.372497559	0.999999046	-0.000114441	0.000123024	4.20E-05	0.312805176	2.12097168	-9.312438965	-0.005722046	0.006151199	0.002098084	0.045654297	-0.867675781	0.748535156	890.92	167.0075493	-1.495687718	-86.49355402	-76
11822	0	0.011878014	0.084922791	-0.374550819	0.999999046	0.000116348	4.01E-05	0.000202179	0.29695034	2.123069763	-9.363770485	0.005817413	0.002002716	0.010108948	0.043212891	-0.867431641	0.751708984	891.02	167.0246689	-1.506313299	-86.50845478	-76
11823	0	0.012023926	0.084289551	-0.372314453	0.999999046	4.96E-05	-5.63E-05	0.000167847	0.300598145	2.10723877	-9.307861328	0.002479553	-0.002813339	0.008392334	0.047851563	-0.867675781	0.748535156	891.04	167.0340056	-1.505454545	-86.52127637	-76
11824	0	0.012619019	0.0846138	-0.372813225	0.999999046	5.82E-05	-1.72E-05	0.000105858	0.315475464	2.115345001	-9.32033062	0.002908707	-0.000858307	0.005292892	0.043212891	-0.867431641	0.751708984	891.02	167.0440055	-1.507555489	-86.52695396	-76
11825	0	0.012573242	0.084533691	-0.372619629	0.999999046	-0.000156403	-1.43E-05	7.63E-06	0.314331055	2.113342285	-9.315490723	-0.007820129	-0.000715256	0.00038147	0.045654297	-0.867675781	0.745849609	890.98	167.0290179	-1.507629645	-86.52117382	-76
11826	0	0.012145996	0.084106445	-0.372924805	0.999999046	-0.000289917	3.81E-05	8.39E-05	0.303649902	2.102661133	-9.323120117	-0.01449585	0.001907349	0.004196167	0.043212891	-0.867675781	0.745849609	890.96	166.9988424	-1.515677153	-86.52294827	-76
11827	0	0.012390137	0.084960938	-0.373596191	0.999999046	7.63E-06	-4.10E-05	0.000106812	0.309753418	2.124023438	-9.339904785	0.00038147	-0.0020504	0.005340576	0.045654297	-0.869873047	0.748779297	890.96	167.0027871	-1.515632707	-86.52883043	-77
11828	0	0.012436867	0.083975792	-0.373415947	0.999999046	0.000184059	3.24E-05	2.86E-06	0.310921669	2.099394798	-9.335398674	0.009202957	0.001621246	0.000143051	0.045654297	-0.869873047	0.745849609	890.92	167.026541	-1.52126622	-86.52128561	-76
11829	0	0.011901855	0.084716797	-0.373535156	0.999999046	-0.000160217	-0.000113487	9.92E-05	0.297546387	2.117919922	-9.338378906	-0.008010864	-0.005674362	0.004959106	0.045654297	-0.869873047	0.745849609	890.96	167.0111356	-1.513209373	-86.52828598	-76
11830	0	0.012321472	0.08477211	-0.372473717	0.999999046	0.00030899	4.39E-05	0.000201225	0.308036804	2.11930275	-9.311842918	0.015449524	0.002193451	0.010061264	0.043212891	-0.869628906	0.751708984	890.96	167.049592	-1.525491836	-86.54300045	-76
11831	0	0.013061523	0.08380127	-0.372070313	0.999999046	0.000240326	6.96E-05	0.000133514	0.326538086	2.095031738	-9.301757813	0.012016297	0.003480911	0.00667572	0.045410156	-0.867675781	0.751464844	890.92	167.0798978	-1.539077461	-86.54893198	-76
11832	0	0.012280464	0.083922386	-0.374306679	0.999999046	-2.00E-05	-3.05E-05	0.000179291	0.307011604	2.098059654	-9.357666969	-0.001001358	-0.001525879	0.008964539	0.045654297	-0.869873047	0.751708984	890.86	167.0805213	-1.542772475	-86.56255773	-77
11833	0	0.012573242	0.084350586	-0.372741699	0.999999046	-8.01E-05	0.000153542	0.000114441	0.314331055	2.108764648	-9.31854248	-0.004005432	0.007677078	0.005722046	0.045654297	-0.869873047	0.748779297	890.92	167.0738453	-1.565498905	-86.56423347	-76
11834	0	0.012400627	0.084162712	-0.372175217	0.999999046	6.68E-05	3.62E-05	7.63E-05	0.310015678	2.104067802	-9.304380417	0.00333786	0.001811981	0.003814697	0.043212891	-0.867431641	0.754394531	890.84	167.0838784	-1.574263676	-86.56508761	-76
11835	0	0.012207031	0.084472656	-0.372924805	0.999999046	-8.01E-05	-2.19E-05	6.10E-05	0.305175781	2.111816406	-9.323120117	-0.004005432	-0.001096725	0.003051758	0.043212891	-0.869873047	0.749023438	891.02	167.0769826	-1.576239641	-86.56575497	-76
11836	0	0.012443542	0.084285736	-0.372546196	0.999999046	0.000174522	-6.29E-05	0.000239372	0.311088562	2.107143402	-9.3136549	0.00872612	-0.003147125	0.011968613	0.045654297	-0.869873047	0.745849609	890.92	167.0997605	-1.578308352	-86.58682169	-76
11837	0	0.013305664	0.083496094	-0.373962402	0.999999046	4.58E-05	4.67E-05	6.10E-05	0.332641602	2.087402344	-9.349060059	0.002288818	0.002336502	0.003051758	0.043212891	-0.867431641	0.751708984	890.9	167.1071239	-1.588208168	-86.58562684	-75
11838	0	0.012739182	0.084131241	-0.373480797	0.999999046	-0.00028801	-7.63E-06	5.25E-05	0.318479538	2.103281021	-9.33701992	-0.014400482	-0.00038147	0.002622604	0.040771484	-0.867431641	0.754638672	890.86	167.0761762	-1.59192908	-86.58530722	-75
11839	0	0.013000488	0.084777832	-0.372192383	0.999999046	0.000110626	-6.01E-05	0.000106812	0.325012207	2.119445801	-9.30480957	0.005531311	-0.003004074	0.005340576	0.043457031	-0.869873047	0.74609375	890.96	167.0910099	-1.591305239	-86.59179965	-75
11840	0	0.011935234	0.085363388	-0.374715805	0.999999046	0.000264168	5.72E-06	0.000174522	0.298380852	2.134084702	-9.367895126	0.01320839	0.000286102	0.00872612	0.043212891	-0.869628906	0.751708984	890.86	167.1234934	-1.599821307	-86.60412197	-75
11841	0	0.01184082	0.083740234	-0.37322998	0.999999046	0.000480652	-6.77E-05	0.00012207	0.296020508	2.093505859	-9.330749512	0.024032594	-0.003385544	0.006103516	0.045410156	-0.867675781	0.751464844	890.92	167.1806216	-1.598840224	-86.61194277	-75
11842	0	0.012358665	0.083683014	-0.37331295	0.999999046	0.000150681	-9.54E-05	0.0001297	0.308966637	2.092075348	-9.332823753	0.007534027	-0.004768372	0.006484985	0.040771484	-0.867431641	0.748779297	890.98	167.1999093	-1.595038322	-86.62255865	-75
11843	0	0.012512207	0.083496094	-0.374389648	0.999999046	-6.87E-05	2.38E-05	0.000156403	0.312805176	2.087402344	-9.359741211	-0.003433228	0.001192093	0.007820129	0.043212891	-0.869873047	0.749023438	890.92	167.1940123	-1.605317847	-86.63237274	-75
11844	0	0.013183594	0.084533691	-0.372924805	0.999999046	0.000134468	-3.81E-05	9.92E-05	0.329589844	2.113342285	-9.323120117	0.006723404	-0.001907349	0.004959106	0.043212891	-0.867675781	0.748779297	890.98	167.2111427	-1.607332411	-86.63732895	-75
11845	0	0.011901855	0.084350586	-0.374633789	0.999999046	0.00038147	-0.000121117	8.39E-05	0.297546387	2.108764648	-9.365844727	0.019073487	-0.006055832	0.004196167	0.045410156	-0.867675781	0.751464844	890.98	167.2564998	-1.599728762	-86.64213632	-75
11846	0	0.0126791	0.08339119	-0.37360096	0.999998093	0.000313759	-0.00014782	0.000198364	0.316977501	2.084779739	-9.340023994	0.015687943	-0.007390976	0.009918213	0.043212891	-0.867431641	0.754394531	891.02	167.2944029	-1.592112153	-86.66106711	-75
11847	0	0.01361084	0.083435059	-0.374023438	0.999999046	0.000255585	-6.01E-05	7.25E-05	0.340270996	2.085876465	-9.350585938	0.012779236	-0.003004074	0.003623962	0.04296875	-0.865234375	0.754150391	890.9	167.3251097	-1.591257396	-86.6637399	-75
11848	0	0.012294769	0.083119392	-0.375227928	0.999999046	0.000206947	-1.91E-05	8.30E-05	0.307369232	2.07798481	-9.380698204	0.010347366	-0.000953674	0.004148483	0.04296875	-0.865234375	0.754150391	890.98	167.3501921	-1.595312207	-86.66653273	-75
11849	0	0.013000488	0.082641602	-0.374450684	0.999999046	-0.000175476	-1.05E-05	0.000144958	0.325012207	2.066040039	-9.36126709	-0.008773804	-0.000524521	0.007247925	0.045410156	-0.865478516	0.751220703	890.92	167.3315948	-1.601978778	-86.67531984	-75
11850	0	0.012573242	0.083984375	-0.373962402	0.999999046	0.000164032	-1.91E-05	9.16E-05	0.314331055	2.099609375	-9.349060059	0.008201599	-0.000953674	0.004577637	0.045410156	-0.867675781	0.751464844	890.92	167.35163	-1.606415012	-86.67849567	-75
11851	0	0.013000488	0.083435059	-0.374328613	0.999999046	0.000465393	-6.39E-05	0.000102997	0.325012207	2.085876465	-9.358215332	0.023269654	-0.003194809	0.005149842	0.043212891	-0.867431641	0.751708984	890.98	167.4061798	-1.606212286	-86.68482276	-75
11852	0	0.011931419	0.082718849	-0.373187065	0.999999046	1.62E-05	-2.29E-05	0.000137329	0.298285484	2.06797123	-9.329676628	0.000810623	-0.001144409	0.006866455	0.043212891	-0.867431641	0.751708984	890.96	167.4092594	-1.611483426	-86.69387524	-75
11853	0	0.01184082	0.082885742	-0.375061035	0.999999046	0.000160217	-4.10E-05	0.000164032	0.296020508	2.072143555	-9.376525879	0.008010864	-0.0020504	0.008201599	0.043212891	-0.867431641	0.754394531	891.02	167.4288749	-1.615415719	-86.70625631	-76
11854	0	0.012385368	0.0823946	-0.373929024	0.999999046	0.000354767	-1.72E-05	0.000182152	0.309634209	2.059864998	-9.348225594	0.017738343	-0.000858307	0.00910759	0.045410156	-0.865478516	0.754150391	890.9	167.4707716	-1.622508969	-86.71925902	-76
11855	0	0.012695313	0.082092285	-0.373962402	0.999999046	3.43E-05	-3.34E-05	0.000144958	0.317382813	2.052307129	-9.349060059	0.001716614	-0.00166893	0.007247925	0.045410156	-0.865478516	0.754150391	890.96	167.4757896	-1.626921287	-86.72857396	-76
11856	0	0.012329102	0.08203125	-0.375183105	0.999999046	-9.06E-05	2.67E-05	0.000110626	0.308227539	2.05078125	-9.379577637	-0.004529953	0.001335144	0.005531311	0.04296875	-0.863037109	0.754150391	890.92	167.4663	-1.637241516	-86.73334698	-76
11857	0	0.012695313	0.083251953	-0.373596191	0.999999046	0.000198364	-2.57E-05	0.000209808	0.317382813	2.081298828	-9.339904785	0.009918213	-0.00128746	0.010490418	0.045166016	-0.86328125	0.756835938	890.98	167.49017	-1.644212326	-86.74963198	-76
11858	0	0.012038231	0.081998825	-0.374178886	0.999999046	0.000299454	-3.24E-05	9.82E-05	0.300955772	2.049970627	-9.35447216	0.014972687	-0.001621246	0.004911423	0.045410156	-0.865478516	0.757080078	890.86	167.5252233	-1.647679308	-86.7536722	-76
11859	0	0.012268066	0.082519531	-0.374389648	0.999999046	1.14E-05	-0.000105858	0.000183105	0.30670166	2.062988281	-9.359741211	0.000572205	-0.005292892	0.009155274	0.04296875	-0.865478516	0.751464844	890.96	167.5275122	-1.645057296	-86.77005058	-77
11860	0	0.011973381	0.081346512	-0.374394417	0.999999046	0.000119209	-1.91E-06	0.000163078	0.299334526	2.033662796	-9.35986042	0.005960465	-9.54E-05	0.008153915	0.045410156	-0.865478516	0.757080078	890.98	167.5419935	-1.6535802	-86.7805076	-76
11861	0	0.012390137	0.081054688	-0.373718262	0.999999046	-9.92E-05	4.77E-06	6.87E-05	0.309753418	2.026367188	-9.342956543	-0.004959106	0.000238419	0.003433228	0.04296875	-0.863037109	0.754150391	891.02	167.5311167	-1.660547372	-86.78118737	-79
11862	0	0.011976242	0.083018303	-0.37406826	0.999999046	0.000188828	-0.000154495	3.72E-05	0.299406052	2.075457573	-9.351706505	0.009441376	-0.007724762	0.001859665	0.04296875	-0.865234375	0.757080078	890.96	167.5531453	-1.648923074	-86.78235126	-78
11863	0	0.012295723	0.081654549	-0.374835968	0.999999046	8.39E-05	-2.00E-05	7.92E-05	0.307393074	2.041363716	-9.3708992	0.004196167	-0.001001358	0.003957748	0.045166016	-0.86328125	0.75390625	891.08	167.5631572	-1.653407153	-86.78398175	-77
11864	0	0.012050629	0.082566261	-0.374667168	0.999999046	-5.63E-05	-3.05E-05	0.000137329	0.301265717	2.064156532	-9.366679192	-0.002813339	-0.001525879	0.006866455	0.04296875	-0.863037109	0.754150391	890.92	167.5572097	-1.658165157	-86.7932527	-77
11865	0	0.012878418	0.081298828	-0.374633789	0.999999046	0.000152588	9.25E-05	0.000110626	0.321960449	2.032470703	-9.365844727	0.007629395	0.00462532	0.005531311	0.04296875	-0.865234375	0.754150391	890.96	167.5750015	-1.676082148	-86.79641608	-77
11866	0	0.012598038	0.081730843	-0.374107361	0.999999046	-0.000104904	-3.43E-05	7.15E-05	0.314950943	2.043271065	-9.352684021	-0.005245209	-0.001716614	0.003576279	0.04296875	-0.863037109	0.754150391	890.98	167.5631978	-1.678871503	-86.79821722	-78
11867	0	0.012390137	0.082580566	-0.375671387	0.999999046	-9.16E-05	-0.000102043	8.39E-05	0.309753418	2.06451416	-9.391784668	-0.004577637	-0.005102158	0.004196167	0.04296875	-0.863037109	0.756835938	890.98	167.5529406	-1.674406563	-86.80302291	-77
11868	0	0.012997627	0.081852913	-0.373462677	0.999999046	9.54E-07	-2.86E-05	0.000212669	0.324940681	2.046322823	-9.336566925	4.77E-05	-0.001430511	0.010633469	0.04296875	-0.865234375	0.754150391	890.98	167.5535975	-1.681390136	-86.82041288	-78
11869	0	0.012268066	0.082092285	-0.373535156	0.999999046	-2.29E-05	-2.57E-05	7.63E-05	0.30670166	2.052307129	-9.338378906	-0.001144409	-0.00128746	0.003814697	0.04296875	-0.86328125	0.754150391	890.98	167.5510083	-1.685335817	-86.82236657	-78
11870	0	0.011772156	0.082411766	-0.374936104	0.999999046	-0.000171661	1.14E-05	9.92E-05	0.294303894	2.060294151	-9.373402596	-0.008583069	0.000572205	0.004959106	0.040527344	-0.86328125	0.754394531	890.96	167.5313526	-1.693991408	-86.82698107	-77
11871	0	0.012329102	0.082763672	-0.373718262	0.999999046	-0.000202179	3.15E-05	0.000114441	0.308227539	2.069091797	-9.342956543	-0.010108948	0.001573563	0.005722046	0.04296875	-0.86328125	0.757080078	891.02	167.5081553	-1.705275615	-86.83138378	-78
11872	0	0.012817383	0.082397461	-0.374938965	0.999999046	0.000180244	-0.000171661	0	0.32043457	2.059936523	-9.373474121	0.009012222	-0.008583069	0	0.043212891	-0.865478516	0.748779297	890.98	167.5285046	-1.691027099	-86.82834598	-78
11873	0	0.012709618	0.082192421	-0.376429558	0.999998093	-0.000115395	-8.77E-05	6.39E-05	0.31774044	2.054810524	-9.410738945	-0.00576973	-0.004386902	0.003194809	0.04296875	-0.865478516	0.757324219	890.96	167.5151028	-1.687775351	-86.8303268	-79
11874	0	0.013346672	0.082738876	-0.374861717	0.999999046	-6.10E-05	1.72E-05	0.000144958	0.333666801	2.068471909	-9.371542931	-0.003051758	0.000858307	0.007247925	0.04296875	-0.86328125	0.751464844	890.98	167.5080592	-1.69832919	-86.83871748	-78
11875	0	0.013061523	0.082519531	-0.373168945	0.999999046	-0.000102997	-0.000109673	0.000114441	0.326538086	2.062988281	-9.329223633	-0.005149841	-0.005483627	0.005722046	0.04296875	-0.86328125	0.754150391	890.98	167.4961337	-1.69397995	-86.84677567	-78
11876	0	0.011837959	0.083387375	-0.374741554	0.999999046	4.86E-05	-5.53E-05	4.10E-05	0.295948982	2.084684372	-9.368538857	0.00243187	-0.002765656	0.0020504	0.04296875	-0.865478516	0.757324219	891.04	167.5012146	-1.693869381	-86.84531527	-79
11877	0	0.011779785	0.081848145	-0.373352051	0.999999046	-0.00012207	-1.05E-05	0.000133514	0.294494629	2.046203613	-9.33380127	-0.006103516	-0.000524521	0.00667572	0.04296875	-0.865478516	0.751464844	890.98	167.4869829	-1.701046867	-86.85313888	-79
11878	0	0.012647629	0.083766937	-0.374430656	0.999999046	1.91E-06	-4.39E-05	0.000136375	0.31619072	2.094173431	-9.360766411	9.54E-05	-0.002193451	0.006818771	0.04296875	-0.865478516	0.754394531	891.02	167.486891	-1.704580652	-86.86196907	-79
11879	0	0.012268066	0.082641602	-0.374023438	0.999999046	0.0001297	-6.77E-05	0.000106812	0.30670166	2.066040039	-9.350585938	0.006484985	-0.003385544	0.005340576	0.043212891	-0.867675781	0.754638672	890.98	167.5013145	-1.704710644	-86.86802877	-79
11880	0	0.013000488	0.082519531	-0.373657227	0.999999046	-0.000109673	7.63E-06	7.63E-05	0.325012207	2.062988281	-9.341430664	-0.005483627	0.00038147	0.003814697	0.04296875	-0.86328125	0.754150391	890.96	167.4881011	-1.712548121	-86.86872781	-79
11881	0	0.01361084	0.082519531	-0.373168945	0.999999046	3.81E-06	-1.05E-05	0.00012207	0.340270996	2.062988281	-9.329223633	0.000190735	-0.000524521	0.006103516	0.045410156	-0.867919922	0.751708984	890.9	167.488014	-1.719559643	-86.87379331	-79
11882	0	0.012462616	0.083367348	-0.373414993	0.999999046	5.91E-05	-3.62E-05	7.53E-05	0.311565399	2.084183693	-9.335374832	0.00295639	-0.001811981	0.003767014	0.040771484	-0.865478516	0.754638672	890.96	167.4940316	-1.722531989	-86.87689089	-79
11883	0	0.012573242	0.082336426	-0.374511719	0.999999046	4.58E-05	-4.10E-05	7.25E-05	0.314331055	2.058410645	-9.362792969	0.002288818	-0.0020504	0.003623962	0.04296875	-0.86328125	0.748535156	891.02	167.4984938	-1.724904061	-86.87844361	-79
11884	0	0.013061523	0.082946777	-0.373962402	0.999999046	-1.43E-05	7.63E-06	-4.58E-05	0.326538086	2.073669434	-9.349060059	-0.000715256	0.00038147	-0.002288818	0.045166016	-0.863525391	0.754150391	890.9	167.495579	-1.729813103	-86.86415334	-79
11885	0	0.012166023	0.082824707	-0.376235008	0.999997139	0.000183105	-3.34E-05	4.10E-05	0.304150581	2.070617676	-9.405875206	0.009155273	-0.00166893	0.0020504	0.04296875	-0.865478516	0.754394531	890.96	167.5155763	-1.732265819	-86.86217143	-79
11886	0	0.012023926	0.083068848	-0.374450684	0.999999046	-8.77E-05	4.20E-05	0.000179291	0.300598145	2.076721191	-9.36126709	-0.004386902	0.002098084	0.008964539	0.045410156	-0.865722656	0.751464844	890.94	167.5048901	-1.746547321	-86.87213484	-79
11887	0	0.013183594	0.082885742	-0.374633789	0.999999046	-2.67E-05	-7.92E-05	0.000179291	0.329589844	2.072143555	-9.365844727	-0.001335144	-0.003957748	0.008964539	0.040771484	-0.865478516	0.751708984	890.92	167.5012328	-1.747307606	-86.88805856	-79
11888	0	0.012846947	0.082168579	-0.374509811	0.999999046	0.000164986	-5.15E-05	0.000159264	0.321173668	2.054214478	-9.362745285	0.008249283	-0.002574921	0.007963181	0.04296875	-0.865478516	0.751464844	890.96	167.5194464	-1.750673221	-86.89942548	-78
11889	0	0.012207031	0.082641602	-0.374389648	0.999999046	-0.000270844	9.54E-07	0.000114441	0.305175781	2.066040039	-9.359741211	-0.013542175	4.77E-05	0.005722046	0.04296875	-0.867675781	0.757568359	890.98	167.4874834	-1.758772724	-86.90425016	-79
11890	0	0.013018608	0.083390236	-0.37416172	0.999999046	-0.000230789	-1.91E-06	9.82E-05	0.325465202	2.084755898	-9.354043007	-0.011539459	-9.54E-05	0.004911423	0.043212891	-0.867675781	0.751708984	891.02	167.4599871	-1.766167561	-86.90725348	-79
11891	0	0.013000488	0.083251953	-0.374633789	0.999999046	1.53E-05	-3.34E-05	0.0001297	0.325012207	2.081298828	-9.365844727	0.000762939	-0.00166893	0.006484985	0.04296875	-0.865478516	0.751464844	890.98	167.4607717	-1.770836626	-86.91456754	-78
11892	0	0.012568474	0.082992554	-0.376468658	0.999999046	0.000121117	-3.24E-05	0.000109673	0.314211845	2.074813843	-9.411716461	0.006055832	-0.001621246	0.005483627	0.043212891	-0.867675781	0.751708984	890.98	167.473605	-1.775097298	-86.91950754	-78
11893	0	0.013061523	0.081787109	-0.373901367	0.999999046	-1.91E-05	-1.05E-05	9.92E-05	0.326538086	2.044677734	-9.34753418	-0.000953674	-0.000524521	0.004959106	0.040771484	-0.867675781	0.754638672	891.04	167.4703306	-1.781562731	-86.92430583	-78
11894	0	0.013069153	0.083507538	-0.374814987	0.999999046	-0.000362396	-3.81E-06	0.000125885	0.326728821	2.087688446	-9.37037468	-0.018119812	-0.000190735	0.006294251	0.043212891	-0.867675781	0.751708984	890.98	167.4277486	-1.789449989	-86.9299974	-78
11895	0	0.012939453	0.08380127	-0.373657227	0.999999046	4.58E-05	4.29E-05	9.16E-05	0.323486328	2.095031738	-9.341430664	0.002288818	0.002145767	0.004577637	0.043212891	-0.867675781	0.751708984	890.96	167.4317126	-1.801710593	-86.93060016	-78
11896	0	0.012680054	0.082909584	-0.373847008	0.999999046	0.000136375	9.54E-06	0.000152588	0.317001343	2.072739601	-9.346175194	0.006818771	0.000476837	0.007629395	0.04296875	-0.865478516	0.751464844	890.98	167.4462762	-1.811741564	-86.93883955	-78
11897	0	0.012817383	0.083007813	-0.374633789	0.999999046	-0.000141144	-2.57E-05	8.77E-05	0.32043457	2.075195313	-9.365844727	-0.00705719	-0.00128746	0.004386902	0.04296875	-0.865478516	0.751464844	890.98	167.4288128	-1.816195597	-86.94067568	-78
11898	0	0.012695313	0.083435059	-0.374267578	0.999999046	-0.000267029	3.81E-06	7.63E-05	0.317382813	2.085876465	-9.356689453	-0.013351441	0.000190735	0.003814697	0.04296875	-0.865478516	0.754394531	890.98	167.396817	-1.823650748	-86.94031982	-77
11899	0	0.013122559	0.08380127	-0.374633789	0.999999046	-0.000141144	2.77E-05	0.00012207	0.328063965	2.095031738	-9.365844727	-0.00705719	0.001382828	0.006103516	0.04296875	-0.865478516	0.757324219	890.92	167.379346	-1.834916183	-86.94425032	-78
11900	0	0.012979507	0.083415031	-0.373450279	0.999999046	6.39E-05	9.54E-06	0.000106812	0.324487686	2.085375786	-9.336256981	0.003194809	0.000476837	0.005340576	0.04296875	-0.865478516	0.751464844	890.96	167.3852986	-1.843763016	-86.94710522	-77
11901	0	0.013244629	0.083068848	-0.374023438	0.999999046	0.000179291	-1.81E-05	5.34E-05	0.331115723	2.076721191	-9.350585938	0.008964539	-0.000905991	0.002670288	0.04296875	-0.865478516	0.751464844	890.94	167.4042944	-1.848179459	-86.94474391	-77
11902	0	0.013055801	0.083420753	-0.373932838	0.999999046	-0.000244141	-3.43E-05	8.01E-05	0.326395035	2.085518837	-9.348320961	-0.012207031	-0.001716614	0.004005432	0.043212891	-0.867675781	0.751708984	890.98	167.3748435	-1.851438932	-86.94566119	-77
11903	0	0.013305664	0.083435059	-0.372497559	0.999999046	-4.96E-05	-1.81E-05	7.63E-05	0.332641602	2.085876465	-9.312438965	-0.002479553	-0.000905991	0.003814697	0.040771484	-0.867675781	0.751953125	890.98	167.3676127	-1.856418724	-86.94774716	-77
11904	0	0.013486862	0.084018707	-0.374076843	0.999999046	8.58E-06	4.77E-05	9.92E-05	0.337171555	2.100467682	-9.351921082	0.000429153	0.002384186	0.004959106	0.043212891	-0.865478516	0.748779297	890.96	167.3670364	-1.869337369	-86.94845364	-77
11905	0	0.012939453	0.083190918	-0.372924805	0.999999046	-0.000137329	-6.68E-06	0.000102997	0.323486328	2.079772949	-9.323120117	-0.006866455	-0.000333786	0.005149841	0.043212891	-0.867675781	0.751708984	891.02	167.3497804	-1.876250582	-86.95088262	-77
11906	0	0.013439178	0.083473206	-0.374001503	1	4.86E-05	-2.77E-05	2.57E-05	0.335979462	2.086830139	-9.350037575	0.00243187	-0.001382828	0.00128746	0.040771484	-0.865478516	0.754638672	890.94	167.3535485	-1.87887853	-86.94716716	-77
11907	0	0.013122559	0.083374023	-0.374206543	0.999999046	-0.000175476	-6.01E-05	0.000183105	0.328063965	2.084350586	-9.355163574	-0.008773804	-0.003004074	0.009155274	0.040771484	-0.865478516	0.751708984	890.98	167.3322318	-1.881812754	-86.96173838	-77
11908	0	0.013046265	0.083744049	-0.373080254	0.999999046	3.34E-05	-8.96E-05	0.000109673	0.326156616	2.093601227	-9.32700634	0.00166893	-0.004482269	0.005483627	0.043212891	-0.867675781	0.751708984	890.88	167.3345781	-1.879577465	-86.96672308	-77
11909	0	0.01361084	0.084228516	-0.373779297	0.999999046	5.72E-05	-7.53E-05	1.91E-05	0.340270996	2.105712891	-9.344482422	0.002861023	-0.003767014	0.000953674	0.04296875	-0.865478516	0.754394531	890.92	167.3392635	-1.876672502	-86.96137807	-77
11910	0	0.013617516	0.08363533	-0.375561714	0.999999046	0.00031662	1.91E-06	6.68E-06	0.340437889	2.090883255	-9.389042854	0.015830994	9.54E-05	0.000333786	0.040771484	-0.867675781	0.754638672	890.98	167.3735593	-1.882100594	-86.95497502	-78
11911	0	0.012878418	0.083557129	-0.374145508	0.999999046	0.000133514	-6.68E-06	5.72E-05	0.321960449	2.088928223	-9.353637695	0.00667572	-0.000333786	0.002861023	0.040771484	-0.867675781	0.754638672	890.98	167.387043	-1.887805405	-86.95434274	-78
11912	0	0.013735771	0.082905769	-0.373924255	0.999999046	0.00014019	-0.000137329	0.000213623	0.343394279	2.072644234	-9.348106384	0.007009506	-0.006866455	0.010681152	0.040771484	-0.867675781	0.751953125	891.02	167.4019791	-1.882822168	-86.97443555	-78
11913	0	0.013427734	0.083618164	-0.374938965	0.999999046	0.000133514	-0.00014019	1.14E-05	0.335693359	2.090454102	-9.373474121	0.00667572	-0.007009506	0.000572205	0.040771484	-0.867675781	0.751953125	890.96	167.4153824	-1.872458615	-86.97214662	-78
11914	0	0.012713432	0.082906723	-0.373806	1	5.05E-05	-6.68E-06	5.63E-05	0.317835808	2.072668076	-9.345149994	0.002527237	-0.000333786	0.002813339	0.040771484	-0.867675781	0.749023438	890.96	167.4193261	-1.878111256	-86.97155287	-78
11915	0	0.012573242	0.082519531	-0.374023438	0.999999046	-0.000106812	-2.96E-05	3.05E-05	0.314331055	2.062988281	-9.350585938	-0.005340576	-0.001478195	0.001525879	0.043212891	-0.865478516	0.748779297	890.98	167.4051834	-1.880517597	-86.96606521	-78
11916	0	0.013061523	0.083862305	-0.373596191	0.999999046	0.000309944	7.63E-06	8.01E-05	0.326538086	2.096557617	-9.339904785	0.015497208	0.00038147	0.004005432	0.038330078	-0.865234375	0.757568359	890.98	167.4388827	-1.888303249	-86.96960022	-79
11917	0	0.012390137	0.083007813	-0.373840332	0.999999046	9.92E-05	-7.53E-05	0.000164032	0.309753418	2.075195313	-9.346008301	0.004959106	-0.003767014	0.008201599	0.040771484	-0.867675781	0.754638672	890.9	167.4487974	-1.888843947	-86.98214853	-78
11918	0	0.013031006	0.082989693	-0.373065948	0.999999046	7.82E-05	-8.20E-05	8.77E-05	0.325775146	2.074742317	-9.326648712	0.003910065	-0.0041008	0.004386902	0.040771484	-0.865478516	0.754638672	890.94	167.4560035	-1.886716979	-86.9861495	-78
11919	0	0.013183594	0.083312988	-0.37310791	0.999999046	0.000164032	8.58E-06	0.000118256	0.329589844	2.082824707	-9.327697754	0.008201599	0.000429153	0.005912781	0.040771484	-0.865478516	0.751708984	891.02	167.4730376	-1.895471744	-86.99125588	-79
11920	0	0.013635635	0.082820892	-0.373135567	0.999999046	9.06E-05	-0.000110626	0.000270844	0.340890884	2.070522308	-9.328389168	0.004529953	-0.005531311	0.013542176	0.040771484	-0.865478516	0.754638672	891.02	167.4822957	-1.894690499	-87.01595096	-78
11921	0	0.013366699	0.082885742	-0.373901367	0.999999046	1.14E-05	-0.000132561	7.25E-05	0.33416748	2.072143555	-9.34753418	0.000572205	-0.006628037	0.003623962	0.040771484	-0.867675781	0.757568359	890.92	167.4817437	-1.886521341	-87.01908491	-78
11922	0	0.01211834	0.082936287	-0.373601913	1	3.53E-05	-4.77E-06	3.72E-05	0.302958488	2.073407173	-9.340047836	0.001764297	-0.000238419	0.001859665	0.04296875	-0.86328125	0.754150391	891.02	167.4836673	-1.891706274	-87.01255679	-78
11923	0	0.012878418	0.082641602	-0.375793457	0.999999046	0.000175476	4.77E-06	0.000164032	0.321960449	2.066040039	-9.394836426	0.008773804	0.000238419	0.008201599	0.04296875	-0.865478516	0.757324219	890.96	167.5021285	-1.90107597	-87.01983152	-78
11924	0	0.013274193	0.082811356	-0.372710228	0.999999046	0.000227928	-0.000104904	0.000114441	0.33185482	2.07028389	-9.317755699	0.011396408	-0.005245209	0.005722046	0.040771484	-0.865478516	0.751708984	891.04	167.5264609	-1.896934962	-87.02713953	-78
11925	0	0.013549805	0.081237793	-0.374511719	0.999999046	0.000286102	-9.44E-05	0.000125885	0.338745117	2.030944824	-9.362792969	0.014305115	-0.004720688	0.006294251	0.04296875	-0.86328125	0.751464844	890.9	167.5575529	-1.894252362	-87.0328378	-78
11926	0	0.013254166	0.082057953	-0.373890877	0.999999046	-4.96E-05	-3.05E-05	0.000118256	0.331354141	2.051448822	-9.347271919	-0.002479553	-0.001525879	0.005912781	0.040771484	-0.865478516	0.751708984	890.92	167.550083	-1.898521442	-87.03866092	-78
11927	0	0.012207031	0.081848145	-0.375732422	0.999999046	-9.16E-05	-5.63E-05	3.81E-06	0.305175781	2.046203613	-9.393310547	-0.004577637	-0.002813339	0.000190735	0.040771484	-0.865478516	0.754638672	890.88	167.5374283	-1.897016593	-87.03221524	-78
11928	0	0.012939453	0.08215332	-0.37310791	0.999999046	-0.000185966	-8.77E-05	0.000240326	0.323486328	2.053833008	-9.327697754	-0.009298325	-0.004386902	0.012016297	0.04296875	-0.86328125	0.751464844	890.94	167.5148508	-1.897821297	-87.05011158	-79
11929	0	0.01385498	0.083129883	-0.373901367	0.999999046	0.000358582	-0.000163078	0.000156403	0.346374512	2.07824707	-9.34753418	0.017929078	-0.008153916	0.00782013	0.040527344	-0.86328125	0.751464844	890.9	167.5543697	-1.888140718	-87.06352539	-78
11930	0	0.013085365	0.081697464	-0.374331474	0.999999046	0.000118256	-5.34E-05	0.000105858	0.327134132	2.0424366	-9.358286858	0.005912781	-0.002670288	0.005292892	0.040527344	-0.86328125	0.754394531	890.92	167.5660911	-1.889465346	-87.06828678	-79
11931	0	0.01361084	0.082092285	-0.373840332	0.999999046	1.53E-05	-7.53E-05	0.000114441	0.340270996	2.052307129	-9.346008301	0.000762939	-0.003767014	0.005722046	0.04296875	-0.86328125	0.757080078	890.94	167.5660564	-1.888560903	-87.07131539	-78
11932	0	0.012900352	0.082015991	-0.375432014	0.999999046	-9.44E-05	-5.34E-05	9.54E-05	0.322508812	2.05039978	-9.385800362	-0.004720688	-0.002670288	0.004768372	0.04296875	-0.86328125	0.751464844	891.02	167.5533752	-1.889616426	-87.07198894	-78
11933	0	0.012939453	0.08215332	-0.373596191	0.999999046	-2.29E-05	-0.000121117	8.39E-05	0.323486328	2.053833008	-9.339904785	-0.001144409	-0.006055832	0.004196167	0.040527344	-0.86328125	0.757324219	890.94	167.5488823	-1.882794184	-87.07591838	-78
11934	0	0.0122509	0.082716942	-0.374755859	0.999999046	0.000211716	-0.000120163	6.01E-05	0.306272507	2.067923546	-9.368896484	0.010585785	-0.006008148	0.003004074	0.04296875	-0.86328125	0.754150391	890.98	167.5711649	-1.875435483	-87.07436985	-78
11935	0	0.012756348	0.081970215	-0.374389648	0.999999046	6.87E-05	8.58E-06	0.000110626	0.318908691	2.049255371	-9.359741211	0.003433228	0.000429153	0.005531311	0.04296875	-0.865478516	0.757324219	890.98	167.5771367	-1.883706944	-87.07512707	-77
11936	0	0.01290226	0.082831383	-0.372631073	0.999999046	-2.00E-05	-8.01E-05	0.000114441	0.322556496	2.070784569	-9.315776825	-0.001001358	-0.004005432	0.005722046	0.04296875	-0.865478516	0.754394531	890.98	167.5729664	-1.88213185	-87.07867308	-78
11937	0	0.01385498	0.081604004	-0.375	0.999999046	9.54E-05	-4.86E-05	0.000209808	0.346374512	2.040100098	-9.375	0.004768372	-0.00243187	0.010490418	0.04296875	-0.86328125	0.754150391	890.94	167.5823723	-1.886459891	-87.09169813	-78
11938	0	0.012509346	0.082015038	-0.374345779	0.999999046	-0.000143051	-1.53E-05	3.43E-05	0.31273365	2.050375938	-9.358644485	-0.007152557	-0.000762939	0.001716614	0.040527344	-0.86328125	0.754394531	890.94	167.56377	-1.890158512	-87.08753742	-77
11939	0	0.012634277	0.08190918	-0.373901367	0.999999046	-6.10E-05	-0.000113487	0.000152588	0.315856934	2.047729492	-9.34753418	-0.003051758	-0.005674362	0.007629395	0.040771484	-0.865478516	0.751708984	890.98	167.5550841	-1.88575163	-87.09888989	-78
11940	0	0.012451172	0.081339836	-0.374016762	1	-5.72E-06	-1.62E-05	2.19E-05	0.311279297	2.033495903	-9.350419044	-0.000286102	-0.000810623	0.001096725	0.04296875	-0.86328125	0.757080078	890.88	167.5522184	-1.88896458	-87.08963877	-78
11941	0	0.012451172	0.082580566	-0.375183105	0.999999046	0.000259399	2.00E-05	3.05E-05	0.311279297	2.06451416	-9.379577637	0.012969971	0.001001358	0.001525879	0.040527344	-0.86328125	0.760009766	890.98	167.5797115	-1.896404323	-87.0837281	-78
11942	0	0.013507843	0.08128643	-0.375102997	1	3.72E-05	2.38E-05	5.25E-05	0.337696075	2.032160759	-9.377574921	0.001859665	0.001192093	0.002622604	0.040527344	-0.86328125	0.754394531	890.94	167.5818588	-1.904824148	-87.08037555	-78
11943	0	0.01385498	0.082275391	-0.374694824	0.999999046	-0.000324249	-0.000132561	2.67E-05	0.346374512	2.056884766	-9.367370605	-0.016212464	-0.006628037	0.001335144	0.040527344	-0.865478516	0.757324219	890.92	167.5426038	-1.895132635	-87.07811525	-78
11944	0	0.01373291	0.082824707	-0.375061035	0.999999046	0.000130653	-4.58E-05	6.87E-05	0.343322754	2.070617676	-9.376525879	0.006532669	-0.002288818	0.003433228	0.04296875	-0.865478516	0.757324219	890.86	167.5555447	-1.896210145	-87.07483248	-78
