Counter	Temperature	VelInc_X	VelInc_Y	VelInc_Z	OriInc_w	OriInc_x	OriInc_y	OriInc_z	Acc_X	Acc_Y	Acc_Z	Gyr_X	Gyr_Y	Gyr_Z	Mag_X	Mag_Y	Mag_Z	Pressure	Roll	Pitch	Yaw	RSSI
13345	0	0.379577637	-0.078735352	0.065368652	0.999999046	0.000774384	-4.86E-05	0.000324249	9.489440918	-1.968383789	1.634216309	0.038719182	-0.00243187	0.016212465	-0.684570313	0.139892578	-0.762695313	890.96	-50.95785939	-74.99727378	52.7949679	-75
13346	0	0.380084038	-0.076011658	0.065936089	0.999999046	0.000576019	5.72E-06	0.000151634	9.502100945	-1.900291443	1.648402214	0.028800966	0.000286102	0.007581711	-0.686767578	0.137695313	-0.762451172	890.86	-50.90116517	-74.98976666	52.80282614	-75
13347	0	0.382324219	-0.077209473	0.064697266	0.999999046	0.000137329	8.11E-05	0.000102997	9.558105469	-1.930236816	1.617431641	0.006866455	0.004053116	0.005149841	-0.686767578	0.137939453	-0.759765625	890.94	-50.85649707	-74.98111816	52.77035213	-75
13348	0	0.381774902	-0.078063965	0.064575195	0.999999046	0.00061512	7.63E-05	0.000217438	9.544372559	-1.951599121	1.614379883	0.030755999	0.003814698	0.010871888	-0.684326172	0.137695313	-0.765380859	890.96	-50.78953844	-74.9625869	52.76924155	-74
13349	0	0.379725456	-0.077113152	0.063426971	0.999998093	0.001070976	0.000148773	0.000216484	9.493136406	-1.927828789	1.585674286	0.053548824	0.007438661	0.010824206	-0.684082031	0.133300781	-0.765136719	890.96	-50.64634889	-74.93889124	52.74983614	-75
13350	0	0.383547783	-0.075322151	0.062095642	0.999999046	0.000522614	0.000272751	0.000144005	9.588694572	-1.88305378	1.552391052	0.026130678	0.013637544	0.007200242	-0.686523438	0.133300781	-0.762207031	890.96	-50.50600987	-74.91274514	52.66815705	-74
13351	0	0.378112793	-0.080749512	0.064941406	0.999999046	0.000526428	-0.000163078	0.000167847	9.452819824	-2.018737793	1.623535156	0.026321413	-0.008153916	0.008392334	-0.684082031	0.133300781	-0.765136719	890.9	-50.51521564	-74.91602969	52.73891228	-72
13352	0	0.378718376	-0.075922012	0.067216873	0.999997139	0.00073719	-0.000606537	0.000671387	9.467959404	-1.898050308	1.680421829	0.036859521	-0.03032685	0.033569344	-0.686523438	0.133300781	-0.765136719	890.96	-50.78115551	-74.90680669	53.10070135	-73
13353	0	0.382629395	-0.074157715	0.06451416	0.999999046	0.000110626	-0.000247002	0.000736237	9.565734863	-1.853942871	1.612854004	0.005531312	-0.012350084	0.036811832	-0.686523438	0.133300781	-0.762207031	890.96	-51.01662855	-74.86556538	53.35826897	-72
13354	0	0.383589745	-0.07464695	0.066781044	0.999999046	-0.000202179	-4.20E-05	0.000507355	9.589743614	-1.866173744	1.6695261	-0.010108948	-0.002098084	0.025367738	-0.684326172	0.133300781	-0.762207031	890.96	-51.15759967	-74.8298322	53.481825	-72
13355	0	0.382568359	-0.07611084	0.067321777	0.999999046	6.10E-05	-0.000117302	0.000423431	9.564208984	-1.902770996	1.683044434	0.003051758	-0.005865097	0.021171571	-0.684326172	0.135498047	-0.762451172	890.92	-51.26971683	-74.80693039	53.60273903	-72
13356	0	0.380688667	-0.074838638	0.065836906	0.999999046	3.72E-05	-0.000209808	0.000511169	9.517216682	-1.870965958	1.645922661	0.001859665	-0.010490418	0.025558473	-0.684326172	0.135498047	-0.762451172	890.9	-51.43701851	-74.78279872	53.77916998	-73
13357	0	0.38092041	-0.075805664	0.065063477	0.999999046	-0.000198364	0.000195503	0.000328064	9.523010254	-1.895141602	1.626586914	-0.009918213	0.009775162	0.016403199	-0.686523438	0.135498047	-0.762451172	890.92	-51.44892462	-74.74613083	53.76925987	-73
13358	0	0.379806519	-0.0762043	0.067194939	0.999999046	-0.000137329	0.000282288	-0.000190735	9.495162964	-1.905107498	1.679873466	-0.006866455	0.01411438	-0.009536743	-0.686767578	0.137695313	-0.762451172	890.92	-51.28862985	-74.74967445	53.58327129	-74
13359	0	0.382568359	-0.079589844	0.063476563	0.999999046	-0.000221252	-0.000155449	-0.000259399	9.564208984	-1.989746094	1.586914063	-0.011062622	-0.007772446	-0.012969971	-0.686767578	0.135742188	-0.759521484	890.96	-51.26357159	-74.79066971	53.5314549	-75
13360	0	0.381040573	-0.078016281	0.062101364	0.999999046	1.24E-05	-0.000232697	-6.96E-05	9.526014328	-1.950407028	1.552534103	0.000619888	-0.011634827	-0.003480911	-0.684326172	0.137695313	-0.765380859	890.94	-51.28741687	-74.8203065	53.55171546	-76
13361	0	0.385925293	-0.079101563	0.0625	0.999999046	0.000270844	-0.000418663	-1.53E-05	9.648132324	-1.977539063	1.5625	0.013542176	-0.020933152	-0.000762939	-0.686523438	0.135498047	-0.765136719	890.9	-51.35789744	-74.85847369	53.65536479	-77
13362	0	0.381469727	-0.080078125	0.063049316	0.999999046	-7.25E-05	-0.000312805	-0.000343323	9.536743164	-2.001953125	1.57623291	-0.003623963	-0.015640259	-0.017166138	-0.686767578	0.135742188	-0.759521484	890.9	-51.34645134	-74.91835726	53.63183543	-79
13363	0	0.380637169	-0.081137657	0.063528061	0.999998093	0.000142097	-0.000303268	0.000472069	9.515929222	-2.028441429	1.588201523	0.007104874	-0.015163422	0.023603441	-0.686523438	0.133544922	-0.759277344	890.84	-51.52397412	-74.90437491	53.8347191	-79
13364	0	0.380490303	-0.077069283	0.065912247	0.999999046	-0.000414848	-0.000164032	0.000606537	9.512257576	-1.926732063	1.647806168	-0.020742418	-0.0082016	0.030326846	-0.686523438	0.133300781	-0.762207031	890.9	-51.75334055	-74.8681787	54.02849729	-79
13365	0	0.381774902	-0.078430176	0.061340332	0.999999046	-0.000572205	3.15E-05	0.000137329	9.544372559	-1.960754395	1.533508301	-0.028610231	0.001573563	0.006866455	-0.686767578	0.137939453	-0.759765625	890.96	-51.81233916	-74.86030463	54.01915322	-79
13366	0	0.383641243	-0.076719284	0.065547943	0.999999046	0.000144958	0.000131607	-3.43E-05	9.591031075	-1.917982101	1.638698578	0.007247925	0.006580353	-0.001716614	-0.686767578	0.137939453	-0.759765625	890.98	-51.71023163	-74.86080916	53.92739082	-78
13367	0	0.380065918	-0.07611084	0.065246582	0.999999046	-5.72E-05	-0.00020504	-0.00018692	9.501647949	-1.902770996	1.631164551	-0.002861023	-0.010251999	-0.009346008	-0.686767578	0.137695313	-0.762451172	890.96	-51.70252979	-74.89893638	53.90916327	-77
13368	0	0.38109684	-0.076342583	0.064409256	0.999999046	2.19E-05	-0.000202179	-0.000290871	9.527420998	-1.908564568	1.6102314	0.001096725	-0.010108948	-0.014543534	-0.69140625	0.135742188	-0.759277344	890.9	-51.65684175	-74.94624181	53.86621885	-76
13369	0	0.381225586	-0.077697754	0.062438965	0.999999046	-0.000476837	-0.000258446	-7.25E-05	9.530639648	-1.942443848	1.560974121	-0.023841859	-0.012922288	-0.003623963	-0.688964844	0.137939453	-0.765136719	890.92	-51.74488773	-74.97792721	53.89729595	-75
13370	0	0.384868622	-0.079713821	0.059354782	0.999999046	6.10E-05	-3.62E-05	0.000136375	9.621715546	-1.992845535	1.483869553	0.003051758	-0.001811981	0.006818771	-0.688964844	0.135742188	-0.759277344	890.92	-51.7528832	-74.9751283	53.91422482	-75
13371	0	0.379394531	-0.077636719	0.060852051	0.999999046	-0.000209808	-9.82E-05	0.000339508	9.484863281	-1.940917969	1.52130127	-0.010490418	-0.004911423	0.016975403	-0.686767578	0.137939453	-0.759765625	890.92	-51.8665298	-74.95845726	54.00394286	-75
13372	0	0.37813282	-0.07736969	0.060500145	0.999999046	-0.000535011	-0.000423431	0.000388145	9.453320503	-1.934242249	1.512503624	-0.026750567	-0.021171572	0.019407274	-0.689208984	0.137939453	-0.759521484	890.86	-52.13946293	-74.96030686	54.22359778	-75
13373	0	0.385314941	-0.07824707	0.061584473	0.999999046	-3.43E-05	-0.000227928	4.96E-05	9.632873535	-1.956176758	1.539611816	-0.001716614	-0.011396408	0.002479553	-0.689208984	0.137939453	-0.756591797	890.92	-52.20074379	-74.97896768	54.28338589	-75
13374	0	0.380514145	-0.077557564	0.063296318	0.999999046	-0.000551224	-0.000274658	-4.58E-05	9.512853622	-1.938939095	1.582407951	-0.027561189	-0.013732911	-0.002288819	-0.689208984	0.140136719	-0.759765625	890.98	-52.3119877	-75.00949862	54.32989606	-75
13375	0	0.382446289	-0.078796387	0.065917969	0.999999046	6.87E-05	-0.00032711	0.000400543	9.561157227	-1.969909668	1.647949219	0.003433228	-0.016355515	0.020027162	-0.689208984	0.137939453	-0.756591797	890.84	-52.48620622	-75.00301573	54.52061996	-75
13376	0	0.382549286	-0.075188637	0.063723564	0.999999046	-0.000346184	-0.000228882	0.000484467	9.563732147	-1.879715919	1.593089104	-0.01730919	-0.011444093	0.024223329	-0.689208984	0.140136719	-0.756835938	890.92	-52.69542166	-74.98197247	54.69578325	-77
13377	0	0.381958008	-0.07824707	0.063720703	0.999999046	-0.000644684	-5.63E-05	7.25E-05	9.548950195	-1.956176758	1.593017578	-0.032234194	-0.002813339	0.003623963	-0.689208984	0.140136719	-0.759765625	890.86	-52.77286034	-74.98636984	54.70109744	-80
13378	0	0.382929802	-0.080763817	0.062534332	0.999999046	-4.96E-05	0.000259399	-0.00012207	9.573245049	-2.019095421	1.563358307	-0.002479553	0.012969971	-0.006103516	-0.689208984	0.140136719	-0.75390625	890.9	-52.62447928	-74.98648621	54.54298714	-82
13379	0	0.379150391	-0.079956055	0.064758301	0.999999046	0.000179291	0.000348091	0.000171661	9.478759766	-1.998901367	1.61895752	0.008964539	0.017404557	0.008583069	-0.691650391	0.140136719	-0.756835938	890.9	-52.49586147	-74.95342366	54.43348614	-87
13380	0	0.379333496	-0.079956055	0.063171387	0.999999046	-0.000224113	3.43E-05	-9.16E-05	9.483337402	-1.998901367	1.579284668	-0.011205673	0.001716614	-0.004577637	-0.689208984	0.140136719	-0.756835938	890.96	-52.45144017	-74.96602807	54.36230034	-92
13381	0	0.381652832	-0.080871582	0.061584473	0.999999046	0.000423431	0.000580788	-0.000118256	9.541320801	-2.021789551	1.539611816	0.021171572	0.029039386	-0.005912781	-0.689208984	0.140136719	-0.756835938	890.84	-52.14176425	-74.94262835	54.09161099	-91
13382	0	0.383666992	-0.081115723	0.060424805	0.999999046	-0.000148773	0.000301361	6.10E-05	9.591674805	-2.027893066	1.510620117	-0.00743866	0.015068054	0.003051758	-0.689208984	0.140136719	-0.756835938	890.96	-52.03974867	-74.92243442	53.96864351	-89
13383	0	0.380825996	-0.080898285	0.060051918	0.999995232	0.000347137	0.000119209	0.000307083	9.52064991	-2.022457123	1.501297951	0.017356873	0.005960465	0.015354157	-0.686767578	0.139892578	-0.759765625	890.86	-52.00724797	-74.89280531	53.97543195	-92
13384	0	0.381530762	-0.079650879	0.059326172	0.999999046	0.000397682	-0.000164032	0.000370026	9.538269043	-1.991271973	1.483154297	0.019884111	-0.0082016	0.018501283	-0.687011719	0.140136719	-0.757080078	890.9	-52.08074523	-74.87752802	54.097082	-92
13385	0	0.385131836	-0.079406738	0.059631348	0.999999046	0.000537872	-0.000102043	3.81E-05	9.628295898	-1.985168457	1.490783691	0.026893617	-0.005102158	0.001907349	-0.689208984	0.142333984	-0.762695313	890.92	-52.03139749	-74.88799106	54.10222543	-91
13386	0	0.379523277	-0.079978943	0.063240051	0.999999046	0.000164032	0.00018692	0.000418663	9.488081932	-1.999473572	1.581001282	0.008201599	0.009346009	0.020933152	-0.687011719	0.140136719	-0.757080078	890.9	-52.0275844	-74.84362745	54.11487218	-89
13387	0	0.379577637	-0.07824707	0.06463623	0.999999046	9.92E-05	-1.81E-05	0.000602722	9.489440918	-1.956176758	1.615905762	0.004959107	-0.000905991	0.03013611	-0.689208984	0.140136719	-0.762695313	890.98	-52.14671342	-74.79701741	54.24948081	-87
13388	0	0.382354736	-0.077780724	0.062561035	0.999999046	0.000344276	1.91E-06	0.00026226	9.558868408	-1.944518089	1.564025879	0.017213822	9.54E-05	0.013113022	-0.686767578	0.139892578	-0.759765625	890.96	-52.14245213	-74.77986099	54.28423798	-86
13389	0	0.385192871	-0.077209473	0.064819336	0.999999046	0.000656128	0.000588417	-4.20E-05	9.629821777	-1.930236816	1.620483398	0.032806401	0.029420856	-0.002098084	-0.684570313	0.142089844	-0.762939453	890.84	-51.82879879	-74.74888586	54.02740203	-86
13390	0	0.380059242	-0.077645302	0.063109398	0.999999046	-2.86E-05	0.000411987	9.82E-05	9.501481056	-1.941132545	1.577734947	-0.001430512	0.020599366	0.004911423	-0.684326172	0.137695313	-0.765380859	890.86	-51.6890579	-74.71762051	53.87954749	-87
13391	0	0.378112793	-0.077453613	0.065795898	0.999999046	0.000556946	0.000275612	-1.91E-05	9.452819824	-1.936340332	1.644897461	0.027847292	0.013780595	-0.000953674	-0.684326172	0.137695313	-0.765380859	890.9	-51.49652202	-74.70645184	53.74456034	-88
13392	0	0.379606247	-0.076271057	0.063342094	0.999999046	3.15E-05	0.000509262	-0.000348091	9.490156174	-1.906776428	1.583552361	0.001573563	0.025463106	-0.017404557	-0.684570313	0.139892578	-0.762695313	890.96	-51.20164984	-74.70796451	53.43544009	-90
13393	0	0.380371094	-0.079589844	0.060668945	0.999999046	-0.000301361	0.000634193	-0.000408173	9.509277344	-1.989746094	1.516723633	-0.015068056	0.031709675	-0.020408633	-0.684326172	0.137695313	-0.762695313	890.9	-50.88906298	-74.70548641	53.07313653	-89
13394	0	0.379871368	-0.080049515	0.060490608	0.999999046	8.20E-05	0.000431061	-0.000236511	9.49678421	-2.001237869	1.512265205	0.0041008	0.02155304	-0.011825562	-0.681884766	0.137695313	-0.765625	890.9	-50.64496436	-74.70208635	52.82519683	-88
13395	0	0.376159668	-0.077209473	0.060546875	0.999999046	-0.000331879	0.000336647	6.10E-05	9.403991699	-1.930236816	1.513671875	-0.016593934	0.016832352	0.003051758	-0.684570313	0.139892578	-0.762695313	890.9	-50.55873438	-74.67913175	52.68962178	-87
13396	0	0.381662369	-0.080898285	0.060810089	0.999999046	-0.000151634	-0.000118256	-0.00024128	9.541559219	-2.022457123	1.520252228	-0.007581711	-0.005912781	-0.01206398	-0.684326172	0.137695313	-0.765380859	890.92	-50.51951296	-74.71606537	52.6282824	-86
13397	0	0.37701416	-0.080078125	0.061950684	0.999999046	-0.000102997	-0.000308037	-0.000110626	9.425354004	-2.001953125	1.54876709	-0.005149841	-0.015401841	-0.005531311	-0.682128906	0.139892578	-0.762939453	890.96	-50.57171918	-74.75522022	52.66125245	-85
13398	0	0.378170967	-0.079886436	0.065667152	0.999999046	-3.43E-05	-0.000314713	0.000372887	9.454274178	-1.997160912	1.64167881	-0.001716614	-0.015735627	0.018644334	-0.684326172	0.137695313	-0.762695313	890.92	-50.74753912	-74.75185386	52.83727591	-85
13399	0	0.380957603	-0.080113411	0.063896179	0.999999046	-0.00018692	-0.000288963	0.000213623	9.523940086	-2.002835274	1.59740448	-0.009346009	-0.014448166	0.010681153	-0.682128906	0.137695313	-0.762695313	890.96	-50.89049099	-74.76058981	52.96090796	-83
13400	0	0.381572723	-0.081339836	0.065169334	0.999999046	9.25E-05	-0.000276566	0.000182152	9.539318085	-2.033495903	1.62923336	0.004625321	-0.013828278	0.00910759	-0.684326172	0.137695313	-0.765380859	890.98	-50.98942535	-74.77103139	53.07287244	-81
13401	0	0.381469727	-0.08001709	0.064880371	0.999999046	0.000141144	-0.000380516	0.000350952	9.536743164	-2.000427246	1.622009277	0.00705719	-0.019025804	0.017547608	-0.686767578	0.139892578	-0.765625	890.86	-51.16171784	-74.77376304	53.26308331	-81
13402	0	0.379144669	-0.08020401	0.066078186	0.999999046	0.000465393	-0.000104904	0.000144005	9.478616714	-2.00510025	1.651954651	0.023269654	-0.005245209	0.007200241	-0.686767578	0.139892578	-0.762695313	890.92	-51.15174949	-74.77493627	53.30167517	-80
13403	0	0.38067627	-0.078125	0.067321777	0.999999046	-4.20E-05	0.000115395	0.000198364	9.516906738	-1.953125	1.683044434	-0.002098084	0.00576973	0.009918213	-0.684326172	0.135498047	-0.765380859	890.86	-51.14148665	-74.75534974	53.28882855	-80
13404	0	0.3828125	-0.079162598	0.063476563	0.999999046	-0.000231743	-0.000106812	0.000396729	9.5703125	-1.979064941	1.586914063	-0.011587143	-0.005340576	0.019836427	-0.686767578	0.137695313	-0.765380859	890.86	-51.27806275	-74.73403466	53.40359747	-79
13405	0	0.383403778	-0.078468323	0.063030243	0.999998093	0.000237465	0.000116348	0.000372887	9.585094452	-1.961708069	1.575756073	0.011873246	0.005817414	0.018644334	-0.684326172	0.137695313	-0.765380859	890.84	-51.28139563	-74.69890751	53.43503122	-79
13406	0	0.380516052	-0.074716568	0.063567162	0.999999046	-0.000225067	0.000244141	0.000315666	9.512901306	-1.8679142	1.589179039	-0.011253357	0.012207032	0.01578331	-0.681884766	0.137695313	-0.765625	890.92	-51.28053369	-74.65992425	53.4077078	-79
13407	0	0.381896973	-0.077758789	0.062927246	0.999999046	-0.000255585	-0.000235558	8.01E-05	9.547424316	-1.943969727	1.573181152	-0.012779236	-0.011777878	0.004005432	-0.684326172	0.139892578	-0.765625	890.92	-51.37811771	-74.67648425	53.47586356	-79
13408	0	0.384355545	-0.0766325	0.062522888	0.999999046	0.000483513	-3.81E-05	-0.000226021	9.608888626	-1.915812492	1.563072205	0.024175645	-0.001907349	-0.011301041	-0.684570313	0.139892578	-0.762695313	890.8	-51.24640665	-74.70648729	53.3917588	-79
13409	0	0.37701416	-0.077514648	0.067077637	0.999999046	-0.000492096	0.000100136	-3.43E-05	9.425354004	-1.937866211	1.676940918	-0.024604798	0.00500679	-0.001716614	-0.684326172	0.139892578	-0.765625	890.92	-51.23075278	-74.70932321	53.31336788	-79
13410	0	0.379446983	-0.079446793	0.066646576	0.999999046	-0.000133514	-0.000144958	-0.000229836	9.486174583	-1.986169815	1.666164398	-0.00667572	-0.007247925	-0.011491776	-0.686767578	0.137939453	-0.759765625	890.98	-51.20238026	-74.74709301	53.26937034	-79
13411	0	0.382080078	-0.077697754	0.064208984	0.999999046	-5.72E-05	0.000245094	-0.000274658	9.552001953	-1.942443848	1.605224609	-0.002861023	0.012254715	-0.01373291	-0.684570313	0.139892578	-0.760009766	890.84	-51.02533938	-74.76082236	53.07430812	-79
13412	0	0.382274628	-0.079082489	0.065423965	0.999999046	-0.000422478	0.000173569	-0.000336647	9.556865692	-1.977062225	1.635599136	-0.021123887	0.008678437	-0.016832353	-0.684326172	0.137695313	-0.762695313	890.9	-50.89664218	-74.78505505	52.8909136	-79
13413	0	0.379211426	-0.081237793	0.064880371	0.999999046	-0.000286102	-0.000212669	-0.000221252	9.480285645	-2.030944824	1.622009277	-0.014305115	-0.010633469	-0.011062622	-0.684326172	0.137695313	-0.759765625	890.92	-50.90931531	-74.82672814	52.87010456	-79
13414	0	0.37933445	-0.079703331	0.064245224	0.999999046	0.00025177	-8.39E-05	-1.62E-05	9.483361244	-1.992583275	1.6061306	0.012588501	-0.004196167	-0.000810623	-0.684326172	0.139892578	-0.765625	890.92	-50.87295207	-74.84076772	52.85621978	-79
13415	0	0.37890625	-0.078613281	0.063720703	0.999999046	-0.000339508	4.77E-06	-6.10E-05	9.47265625	-1.965332031	1.593017578	-0.016975403	0.000238419	-0.003051758	-0.684326172	0.137695313	-0.765380859	890.96	-50.86339989	-74.85234227	52.80550493	-79
13416	0	0.381905556	-0.081234932	0.063546181	0.999999046	6.58E-05	-0.0001297	-0.000145912	9.547638893	-2.030873299	1.588654518	0.003290176	-0.006484985	-0.007295609	-0.684326172	0.135498047	-0.765380859	890.96	-50.82930396	-74.8810895	52.78120573	-79
13417	0	0.38104248	-0.079711914	0.064208984	0.999999046	0.000541687	-0.000250816	0.000198364	9.526062012	-1.992797852	1.605224609	0.027084352	-0.012540818	0.009918214	-0.686767578	0.139892578	-0.762695313	890.86	-50.87296405	-74.88791845	52.88386507	-76
13418	0	0.379396439	-0.076741219	0.064466476	0.999999046	0.000890732	-0.000423431	0.000331879	9.484910965	-1.918530464	1.611661911	0.044536599	-0.021171574	0.016593936	-0.686767578	0.135742188	-0.759521484	890.92	-50.96912743	-74.89531902	53.08912247	-79
13419	0	0.386291504	-0.076293945	0.06451416	0.999999046	0.000465393	-0.000597954	7.63E-05	9.657287598	-1.907348633	1.612854004	0.023269656	-0.029897693	0.003814698	-0.688964844	0.135742188	-0.759277344	890.9	-51.10352836	-74.93807245	53.28252709	-79
13420	0	0.382024765	-0.075864792	0.065469742	0.999999046	-0.000149727	-5.53E-05	-8.39E-05	9.550619125	-1.896619797	1.636743546	-0.007486343	-0.002765656	-0.004196167	-0.686523438	0.135498047	-0.762451172	890.92	-51.08565196	-74.95603132	53.24453074	-78
13421	0	0.378662109	-0.078674316	0.068115234	0.999999046	-0.000205994	-4.10E-05	0.000263214	9.466552734	-1.96685791	1.702880859	-0.010299683	-0.0020504	0.013160706	-0.686767578	0.137939453	-0.759765625	890.96	-51.16178918	-74.94177537	53.29336762	-78
13422	0	0.381008148	-0.075485229	0.066708565	0.999999046	-0.000228882	-1.53E-05	0.000209808	9.525203705	-1.887130737	1.667714119	-0.011444092	-0.000762939	0.010490418	-0.688964844	0.135742188	-0.759277344	890.92	-51.21688198	-74.93041833	53.3248254	-79
13423	0	0.381591797	-0.078430176	0.065612793	0.999999046	-0.00050354	0.000344276	6.10E-05	9.539794922	-1.960754395	1.640319824	-0.025177004	0.017213822	0.003051758	-0.689208984	0.135742188	-0.756591797	890.86	-51.14440906	-74.90644075	53.19358539	-78
13424	0	0.384344101	-0.078910828	0.066224098	0.999999046	0.000130653	0.000253677	3.81E-06	9.608602524	-1.972770691	1.655602455	0.006532669	0.012683869	0.000190735	-0.689208984	0.137939453	-0.759521484	890.82	-51.01403305	-74.89394954	53.07221243	-77
13425	0	0.381652832	-0.077392578	0.063476563	0.999999046	1.14E-05	0.00024128	3.43E-05	9.541320801	-1.934814453	1.586914063	0.000572205	0.01206398	0.001716614	-0.686767578	0.137695313	-0.762451172	890.98	-50.90982357	-74.87961661	52.96315232	-77
13426	0	0.380517006	-0.076135635	0.06494236	0.999999046	0.000213623	0.000394821	-0.00012207	9.512925148	-1.903390884	1.623558998	0.010681153	0.019741059	-0.006103516	-0.686767578	0.137695313	-0.762451172	891.02	-50.69006243	-74.86800753	52.75740521	-79
13427	0	0.381225586	-0.076782227	0.062866211	0.999999046	8.01E-05	0.00048542	-0.00030899	9.530639648	-1.919555664	1.571655273	0.004005432	0.024271013	-0.015449525	-0.686523438	0.137695313	-0.768310547	890.92	-50.40610745	-74.86619405	52.46799024	-79
13428	0	0.383348465	-0.07702446	0.062456131	0.999999046	0.000199318	0.000328064	-0.000247955	9.583711624	-1.925611496	1.561403275	0.009965897	0.016403199	-0.012397767	-0.684326172	0.135498047	-0.765380859	890.84	-50.17670036	-74.87030653	52.25172158	-79
13429	0	0.38092041	-0.077392578	0.062744141	0.999999046	0.000205994	0.00024128	-0.000389099	9.523010254	-1.934814453	1.568603516	0.010299683	0.012063981	-0.019454957	-0.684326172	0.133300781	-0.762207031	890.96	-49.93650801	-74.8930359	52.02800585	-79
13430	0	0.377897263	-0.075791359	0.061919212	0.999999046	0.000102997	-1.91E-06	-0.000377655	9.447431564	-1.894783974	1.547980309	0.005149841	-9.54E-05	-0.018882752	-0.684326172	0.135498047	-0.762451172	890.92	-49.7899819	-74.93261824	51.88248354	-80
13431	0	0.385192871	-0.078186035	0.063232422	0.999999046	0.00056076	-0.000304222	-0.000823975	9.629821777	-1.954650879	1.580810547	0.02803803	-0.015211108	-0.041198738	-0.684082031	0.131103516	-0.762207031	890.84	-49.56553406	-75.03354257	51.71532863	-80
13432	0	0.379989624	-0.077486038	0.066200256	0.999999046	0.000563622	-0.000255585	-0.000775337	9.499740601	-1.937150955	1.655006409	0.028181081	-0.012779238	-0.038766867	-0.686523438	0.131103516	-0.764892578	890.9	-49.33600174	-75.12630572	51.53962112	-81
13433	0	0.379882813	-0.077819824	0.066040039	0.999999046	0.000335693	-0.000250816	-0.0001297	9.497070313	-1.945495605	1.651000977	0.016784669	-0.012540818	-0.006484986	-0.684082031	0.12890625	-0.764892578	890.9	-49.31156875	-75.162341	51.55098023	-81
13434	0	0.380423546	-0.076273918	0.064922333	0.999999046	0.000141144	-0.000102997	6.77E-05	9.510588646	-1.906847954	1.623058319	0.00705719	-0.005149841	0.003385544	-0.688720703	0.129150391	-0.764648438	890.96	-49.31685425	-75.17010938	51.57102158	-81
13435	0	0.38293457	-0.074462891	0.065307617	0.999999046	1.91E-05	0.000153542	0.000160217	9.573364258	-1.861572266	1.63269043	0.000953674	0.007677078	0.008010864	-0.686279297	0.12890625	-0.764648438	890.88	-49.2780293	-75.15068694	51.53075741	-81
13436	0	0.382157326	-0.075559616	0.064572334	0.999999046	0.000113487	-7.44E-05	0.000232697	9.553933144	-1.888990402	1.614308357	0.005674362	-0.00371933	0.011634827	-0.683837891	0.126708984	-0.764648438	890.9	-49.32370754	-75.14199741	51.59290305	-82
13437	0	0.380310059	-0.072998047	0.063415527	0.999999046	0.000320435	-9.44E-05	0.000125885	9.507751465	-1.824951172	1.585388184	0.016021729	-0.004720688	0.006294251	-0.684082031	0.131103516	-0.767822266	890.88	-49.32218287	-75.14417727	51.62012768	-81
13438	0	0.380547523	-0.0710392	0.063448906	0.999999046	-0.000141144	4.58E-05	0.000235558	9.513688087	-1.775979996	1.586222649	-0.00705719	0.002288818	0.011777878	-0.684082031	0.12890625	-0.764892578	890.86	-49.35823522	-75.12653683	51.63760749	-81
13439	0	0.381713867	-0.071289063	0.060913086	0.999999046	-0.000236511	-0.000163078	0.000167847	9.54284668	-1.782226563	1.522827148	-0.011825562	-0.008153916	0.008392334	-0.686279297	0.12890625	-0.764648438	890.86	-49.45472581	-75.13062353	51.70829627	-81
13440	0	0.383480072	-0.069310188	0.060387611	0.999999046	-0.000412941	-0.000106812	4.20E-05	9.587001801	-1.732754707	1.509690285	-0.02064705	-0.005340576	0.002098084	-0.686279297	0.131103516	-0.767822266	890.92	-49.51767188	-75.14183157	51.71966945	-81
13441	0	0.382141113	-0.070678711	0.061035156	0.999999046	-0.000705719	-0.000285149	-4.96E-05	9.553527832	-1.766967773	1.525878906	-0.035285953	-0.014257432	-0.002479553	-0.684082031	0.131103516	-0.767822266	890.96	-49.64730745	-75.1745388	51.76618218	-81
13442	0	0.378521919	-0.072501183	0.063157082	0.999999046	-0.000535965	-0.000457764	-0.000218391	9.463047981	-1.812529564	1.57892704	-0.026798251	-0.022888186	-0.010919572	-0.686523438	0.131103516	-0.764892578	890.92	-49.76754294	-75.2348317	51.82483713	-81
13443	0	0.386413574	-0.077209473	0.064575195	0.999999046	5.72E-05	-0.000624657	-0.000751495	9.660339355	-1.930236816	1.614379883	0.002861023	-0.031232839	-0.037574774	-0.686523438	0.131103516	-0.764892578	890.92	-49.72577198	-75.35401579	51.78303949	-81
13444	0	0.382771492	-0.078518867	0.067645073	0.999999046	-5.05E-05	-0.000452042	-0.000862122	9.5692873	-1.962971687	1.691126823	-0.002527237	-0.022602085	-0.043106086	-0.686279297	0.129150391	-0.76171875	890.86	-49.60587787	-75.46973718	51.64901808	-81
13445	0	0.380859375	-0.082519531	0.068481445	0.999999046	2.67E-05	-0.000113487	-9.92E-05	9.521484375	-2.062988281	1.712036133	0.001335144	-0.005674362	-0.004959106	-0.690917969	0.126953125	-0.764160156	890.86	-49.58107453	-75.49315732	51.62843085	-80
13446	0	0.380187988	-0.080749512	0.068725586	0.999999046	0.000221252	0.000209808	0.000450134	9.504699707	-2.018737793	1.718139648	0.011062623	0.010490418	0.022506715	-0.688720703	0.129150391	-0.76171875	890.88	-49.58275924	-75.44414013	51.65308107	-79
13447	0	0.382104874	-0.077487946	0.06545639	0.999997139	0.00012207	0.000576973	0.000776291	9.552621841	-1.937198639	1.63640976	0.006103517	0.028848653	0.038814551	-0.686523438	0.129150391	-0.759033203	890.88	-49.56600099	-75.33918405	51.64827444	-80
13448	0	0.383038521	-0.078393936	0.064109802	0.999999046	-6.96E-05	0.000461578	0.000876427	9.57596302	-1.959848404	1.602745056	-0.003480912	0.023078922	0.043821342	-0.686279297	0.129150391	-0.76171875	890.98	-49.63824102	-75.23391992	51.71562849	-79
13449	0	0.381347656	-0.076660156	0.061401367	0.999999046	0.000457764	0.000435829	0.000904083	9.533691406	-1.916503906	1.53503418	0.022888188	0.021791463	0.045204172	-0.686523438	0.131347656	-0.761962891	890.98	-49.66617244	-75.12816174	51.79632716	-79
13450	0	0.381954193	-0.074121475	0.061373711	0.999999046	0.00034523	0.000263214	0.000873566	9.548854828	-1.85303688	1.534342766	0.017261508	0.013160708	0.043678291	-0.686523438	0.131347656	-0.761962891	890.88	-49.75453342	-75.03801134	51.92781958	-79
13451	0	0.380065918	-0.073486328	0.061340332	0.999999046	0.000434875	0.000172615	0.000667572	9.501647949	-1.837158203	1.533508301	0.021743777	0.008630754	0.033378605	-0.686523438	0.133300781	-0.762207031	890.8	-49.80443898	-74.97274124	52.02646536	-78
13452	0	0.383241653	-0.074005127	0.062878609	0.999999046	0.000632286	-6.29E-05	0.000549316	9.581041336	-1.850128174	1.571965218	0.031614307	-0.003147126	0.027465824	-0.684326172	0.133300781	-0.762207031	890.88	-49.87537935	-74.93539422	52.16877905	-77
13453	0	0.382446289	-0.073242188	0.062988281	0.999999046	0.000396729	-1.43E-05	0.000602722	9.561157227	-1.831054688	1.574707031	0.019836428	-0.000715256	0.030136111	-0.684082031	0.131103516	-0.762207031	890.92	-49.97138357	-74.88993575	52.31424524	-77
13454	0	0.381994247	-0.072796822	0.065170288	0.999999046	0.000181198	-3.05E-05	0.000453949	9.549856186	-1.81992054	1.629257202	0.009059906	-0.001525879	0.02269745	-0.684082031	0.131103516	-0.762207031	890.86	-50.05565953	-74.85883707	52.42260423	-77
13455	0	0.383789063	-0.074401855	0.065612793	0.999999046	0.000183105	4.77E-06	0.000106812	9.594726563	-1.860046387	1.640319824	0.009155274	0.000238419	0.005340576	-0.684082031	0.131103516	-0.767822266	890.88	-50.03327128	-74.85573637	52.42000495	-77
13456	0	0.379011154	-0.076167107	0.067840576	0.999999046	0.000130653	3.24E-05	-8.58E-06	9.475278854	-1.904177666	1.696014404	0.006532669	0.001621246	-0.000429153	-0.684326172	0.133300781	-0.762207031	890.92	-49.97602053	-74.86063857	52.36996471	-77
13457	0	0.382141113	-0.076904297	0.066162109	0.999999046	8.01E-05	0.000184059	7.25E-05	9.553527832	-1.922607422	1.654052734	0.004005432	0.009202957	0.003623962	-0.686279297	0.131103516	-0.767822266	890.92	-49.89737054	-74.84722079	52.29721025	-77
13458	0	0.383265495	-0.078475952	0.064788818	0.999999046	9.54E-05	0.000242233	7.92E-05	9.581637383	-1.961898804	1.619720459	0.004768372	0.012111664	0.003957748	-0.681640625	0.131103516	-0.765136719	890.98	-49.80044641	-74.8288751	52.20516089	-77
13459	0	0.382507324	-0.079040527	0.065490723	0.999999046	0.00019455	0.000412941	6.48E-05	9.562683105	-1.976013184	1.637268066	0.009727478	0.02064705	0.003242493	-0.684082031	0.131103516	-0.764892578	890.92	-49.63386859	-74.79901817	52.05348712	-77
13460	0	0.380367279	-0.078393936	0.065711975	0.999999046	-0.000142097	0.000434875	0.000212669	9.509181976	-1.959848404	1.642799377	-0.007104874	0.021743775	0.010633469	-0.681884766	0.131103516	-0.762207031	890.96	-49.54003955	-74.7544856	51.93753346	-77
13461	0	0.380187988	-0.077575684	0.065734863	0.999999046	7.25E-05	0.000470161	0.000377655	9.504699707	-1.93939209	1.643371582	0.003623963	0.023508073	0.018882753	-0.679199219	0.130859375	-0.770996094	890.92	-49.45612974	-74.6928894	51.85736121	-77
13462	0	0.380433083	-0.077365875	0.066347122	0.999999046	0.00025177	0.000368118	0.000160217	9.510827065	-1.934146881	1.658678055	0.012588501	0.018405915	0.008010865	-0.681640625	0.133300781	-0.770996094	890.96	-49.3256312	-74.65777591	51.74570179	-76
13463	0	0.38269043	-0.077270508	0.065673828	0.999999046	0.000114441	0.000374794	0.000110626	9.567260742	-1.931762695	1.641845703	0.005722046	0.018739701	0.005531311	-0.679443359	0.130859375	-0.765136719	890.98	-49.19596572	-74.62647616	51.62321122	-76
13464	0	0.379631996	-0.079232216	0.067134857	0.999999046	0.000187874	0.000314713	-7.63E-06	9.490799904	-1.980805397	1.678371429	0.009393692	0.015735627	-0.00038147	-0.679443359	0.133056641	-0.770996094	890.96	-49.04531384	-74.6097588	51.48203052	-76
13465	0	0.378356934	-0.077941895	0.067932129	0.999999046	0.000358582	0.000237465	8.39E-05	9.45892334	-1.948547363	1.698303223	0.017929078	0.011873246	0.004196167	-0.677001953	0.130859375	-0.770996094	890.96	-48.92467912	-74.59078046	51.39507569	-76
13466	0	0.381851196	-0.079728127	0.068047523	0.999999046	0.000617981	2.48E-05	-9.92E-05	9.546279907	-1.993203163	1.701188087	0.03089905	0.001239777	-0.004959107	-0.677001953	0.130859375	-0.770996094	891.02	-48.79129205	-74.60350035	51.32321531	-76
13467	0	0.379089355	-0.078979492	0.068237305	0.999999046	0.000514984	0.000191689	-0.000137329	9.477233887	-1.974487305	1.705932617	0.025749208	0.009584427	-0.006866455	-0.679199219	0.128662109	-0.770751953	890.88	-48.60709284	-74.60673285	51.1901072	-77
13468	0	0.376153946	-0.079171181	0.069682121	0.999999046	0.000292778	9.92E-05	0.000366211	9.403848648	-1.979279518	1.742053032	0.014638901	0.004959107	0.018310548	-0.679199219	0.128662109	-0.770751953	891.02	-48.61581479	-74.57343522	51.23074372	-77
13469	0	0.37890625	-0.076660156	0.066223145	0.999999046	6.48E-05	0.000267982	0.000339508	9.47265625	-1.916503906	1.655578613	0.003242493	0.013399125	0.016975403	-0.679199219	0.128662109	-0.773681641	890.88	-48.59099096	-74.52970842	51.21020955	-77
13470	0	0.380039215	-0.077703476	0.06472683	0.999999046	-0.000221252	0.000324249	6.68E-06	9.500980377	-1.942586899	1.618170738	-0.011062622	0.016212464	0.000333786	-0.676757813	0.128662109	-0.770751953	890.96	-48.49113094	-74.51039301	51.07759827	-79
13471	0	0.380310059	-0.078552246	0.064086914	0.999999046	3.81E-05	-0.000174522	0.000164032	9.507751465	-1.963806152	1.602172852	0.001907349	-0.00872612	0.008201599	-0.674316406	0.126464844	-0.770751953	890.94	-48.56008219	-74.51551476	51.15465727	-79
13472	0	0.378842354	-0.076414108	0.064020157	0.999999046	0.000575066	-0.000402451	0.000182152	9.471058846	-1.910352707	1.600503922	0.028753283	-0.02012253	0.009107591	-0.677001953	0.128662109	-0.768066406	890.92	-48.64385257	-74.53647705	51.30556598	-79
13473	0	0.378173828	-0.075317383	0.065612793	0.999999046	-6.87E-05	-0.000479698	5.72E-05	9.454345703	-1.88293457	1.640319824	-0.003433228	-0.02398491	0.002861023	-0.679199219	0.126464844	-0.770507813	891.04	-48.79182408	-74.57408551	51.45208289	-80
13474	0	0.381035805	-0.076347351	0.065906525	0.999999046	9.54E-06	-0.000629425	-8.11E-05	9.525895119	-1.908683777	1.647663116	0.000476837	-0.031471255	-0.004053116	-0.679199219	0.126464844	-0.770507813	890.98	-48.94085973	-74.6349158	51.60792812	-79
13475	0	0.381408691	-0.075439453	0.066162109	0.999999046	-4.58E-05	-0.000639915	-6.87E-05	9.535217285	-1.885986328	1.654052734	-0.002288819	-0.031995776	-0.003433228	-0.679199219	0.128662109	-0.765136719	890.98	-49.10409244	-74.69545251	51.76657979	-80
13476	0	0.38138485	-0.076187134	0.068595886	0.999999046	-9.25E-05	-0.00071907	-0.000114441	9.534621239	-1.904678345	1.714897156	-0.004625321	-0.035953525	-0.005722046	-0.681396484	0.126708984	-0.767578125	890.96	-49.28624142	-74.76573866	51.94366872	-80
13477	0	0.380249023	-0.075073242	0.069213867	0.999999046	-0.000209808	-0.000563622	-0.000289917	9.506225586	-1.876831055	1.73034668	-0.010490418	-0.028181078	-0.014495851	-0.681396484	0.126708984	-0.773193359	890.92	-49.38464597	-74.83951446	52.01892008	-81
13478	0	0.385070801	-0.077870369	0.068623543	0.999999046	-0.000192642	-0.000305176	-0.000522614	9.62677002	-1.946759224	1.71558857	-0.009632111	-0.01525879	-0.026130678	-0.681640625	0.126708984	-0.764648438	890.96	-49.33388742	-74.91413862	51.94079118	-81
13479	0	0.379577637	-0.077087402	0.069885254	0.999999046	-0.000659943	-0.000144005	-0.000232697	9.489440918	-1.927185059	1.747131348	-0.032997134	-0.007200242	-0.011634828	-0.681640625	0.126708984	-0.764648438	890.98	-49.36414176	-74.95132745	51.89233179	-81
13480	0	0.380915642	-0.07840538	0.068572044	0.999999046	-0.000357628	-7.44E-05	0.000335693	9.522891045	-1.960134506	1.714301109	-0.017881394	-0.00371933	0.016784669	-0.683837891	0.126708984	-0.764648438	890.92	-49.49467925	-74.93368028	51.98654419	-81
13481	0	0.381286621	-0.07611084	0.06640625	0.999999046	-0.000480652	5.82E-05	0.000179291	9.532165527	-1.902770996	1.66015625	-0.024032594	0.002908707	0.008964539	-0.683837891	0.126708984	-0.767578125	890.96	-49.55283077	-74.91974737	51.99300533	-81
13482	0	0.381799698	-0.078324318	0.064115524	0.999999046	-0.000591278	0.000293732	0.000118256	9.544992447	-1.958107948	1.602888107	-0.029563906	0.014686586	0.005912781	-0.684082031	0.131103516	-0.767822266	890.86	-49.53109734	-74.89359504	51.89638957	-81
13483	0	0.382263184	-0.07623291	0.063659668	0.999999046	-0.000576019	2.00E-05	0.000415802	9.55657959	-1.905822754	1.591491699	-0.028800967	0.001001358	0.020790102	-0.684082031	0.131103516	-0.767822266	890.94	-49.67807189	-74.86192095	51.97937265	-80
13484	0	0.38006115	-0.076134682	0.0635252	0.999999046	-0.000523567	-0.000125885	0.00026989	9.50152874	-1.903367043	1.588129997	-0.026178362	-0.006294251	0.013494492	-0.681640625	0.133300781	-0.770996094	890.96	-49.8260476	-74.85383112	52.0659226	-80
13485	0	0.381774902	-0.074768066	0.062683105	0.999999046	-0.000339508	-0.000163078	0.00012207	9.544372559	-1.86920166	1.567077637	-0.016975403	-0.008153916	0.006103516	-0.681884766	0.133300781	-0.762451172	890.92	-49.9246447	-74.86157105	52.12476704	-79
13486	0	0.381166458	-0.075759888	0.064580917	0.999999046	-0.000131607	-0.000247955	-7.34E-05	9.529161453	-1.893997192	1.614522934	-0.006580353	-0.012397766	-0.003671646	-0.684082031	0.133300781	-0.765136719	890.98	-49.97362526	-74.8927652	52.15766391	-79
13487	0	0.382446289	-0.076721191	0.064453125	0.999999046	-4.58E-05	-0.000491142	-0.00019455	9.561157227	-1.918029785	1.611328125	-0.002288818	-0.024557115	-0.009727478	-0.684082031	0.133300781	-0.765136719	891.02	-50.05918124	-74.95252776	52.23761839	-78
13488	0	0.380402565	-0.075908661	0.064743042	0.999999046	-0.000212669	-0.000341415	-7.63E-05	9.510064125	-1.897716522	1.61857605	-0.010633469	-0.017070771	-0.003814697	-0.686523438	0.133300781	-0.762207031	890.92	-50.14764848	-74.99086892	52.30200105	-78
13489	0	0.382446289	-0.077453613	0.066162109	0.999999046	-0.000125885	-0.000403404	-0.000133514	9.561157227	-1.936340332	1.654052734	-0.006294251	-0.020170212	-0.00667572	-0.684326172	0.133300781	-0.762207031	890.98	-50.23106612	-75.0386895	52.36997091	-77
13490	0	0.380260468	-0.077611923	0.065285683	0.999998093	2.96E-05	-0.000266075	-0.000362396	9.506511688	-1.94029808	1.632142067	0.001478195	-0.013303757	-0.018119813	-0.686523438	0.133300781	-0.765136719	890.88	-50.1886218	-75.09648429	52.32543047	-77
13491	0	0.380004883	-0.079040527	0.066772461	0.999999046	-3.43E-05	-0.000304222	9.54E-05	9.50012207	-1.976013184	1.669311523	-0.001716614	-0.015211106	0.004768372	-0.684326172	0.133300781	-0.759521484	890.88	-50.2921776	-75.11653239	52.4236091	-77
13492	0	0.380824089	-0.076677322	0.067205429	0.999999046	2.77E-05	-0.000162125	0.000349998	9.520602226	-1.91693306	1.680135727	0.001382828	-0.008106232	0.017499924	-0.684082031	0.131103516	-0.762207031	890.86	-50.41115699	-75.10354137	52.55042933	-77
13493	0	0.382629395	-0.07824707	0.065673828	0.999999046	-0.00018692	6.96E-05	0.000221252	9.565734863	-1.956176758	1.641845703	-0.009346008	0.003480911	0.011062622	-0.686523438	0.131347656	-0.762207031	890.86	-50.44221659	-75.08484772	52.56250365	-77
13494	0	0.382097244	-0.077709198	0.065391541	0.999999046	-5.72E-05	8.96E-05	0.000221252	9.552431107	-1.94272995	1.634788513	-0.002861023	0.004482269	0.011062622	-0.684326172	0.133300781	-0.765380859	890.94	-50.45161094	-75.06460296	52.56291144	-77
13495	0	0.379516602	-0.077331543	0.06451416	0.999999046	-3.81E-06	-2.86E-06	0.000427246	9.487915039	-1.933288574	1.612854004	-0.000190735	-0.000143051	0.021362305	-0.686767578	0.133544922	-0.762207031	890.92	-50.54162921	-75.03282226	52.65490769	-76
13496	0	0.38018322	-0.076681137	0.064815521	0.999999046	0.000258446	-5.15E-05	0.000243187	9.504580498	-1.917028427	1.620388031	0.012922287	-0.002574921	0.012159348	-0.686767578	0.135742188	-0.762451172	890.92	-50.56713573	-75.02081198	52.70615752	-76
13497	0	0.381347656	-0.077331543	0.062316895	0.999999046	-3.81E-05	-2.19E-05	0.000370026	9.533691406	-1.933288574	1.557922363	-0.001907349	-0.001096725	0.018501282	-0.684326172	0.133300781	-0.759521484	890.92	-50.65143313	-74.99545402	52.78846758	-77
13498	0	0.382757187	-0.077559471	0.062232018	0.999999046	-4.01E-05	-9.73E-05	0.000552177	9.568929672	-1.938986778	1.555800438	-0.002002716	-0.004863739	0.027608873	-0.684326172	0.133300781	-0.762451172	890.92	-50.80997582	-74.9594224	52.94887708	-77
13499	0	0.381530762	-0.077087402	0.062133789	0.999999046	0.000171661	-0.000189781	0.000564575	9.538269043	-1.927185059	1.553344727	0.008583069	-0.00948906	0.028228762	-0.686767578	0.135742188	-0.762451172	891.02	-50.97759877	-74.92893576	53.14045289	-77
13500	0	0.379270554	-0.076701164	0.063052177	0.999999046	0.00014782	-0.000236511	0.000667572	9.48176384	-1.917529106	1.576304436	0.007390977	-0.011825563	0.033378604	-0.684570313	0.137939453	-0.757080078	890.98	-51.1900167	-74.89250575	53.3712466	-76
13501	0	0.382873535	-0.077758789	0.064697266	0.999999046	0.000801086	-0.000552177	0.000335693	9.571838379	-1.943969727	1.617431641	0.040054328	-0.027608876	0.016784671	-0.686767578	0.135742188	-0.765380859	890.92	-51.34308946	-74.90819677	53.62155842	-76
13502	0	0.378681183	-0.07815361	0.065073967	0.999999046	0.000871658	-0.000455856	-0.000187874	9.467029572	-1.953840256	1.626849174	0.043582924	-0.02279282	-0.009393694	-0.686767578	0.135742188	-0.762451172	891.02	-51.31712106	-74.96368307	53.69096429	-78
13503	0	0.379272461	-0.081726074	0.065490723	0.999999046	0.000656128	-0.000315666	0.000320435	9.481811523	-2.043151855	1.637268066	0.0328064	-0.015783312	0.01602173	-0.689208984	0.135742188	-0.759521484	890.88	-51.40484653	-74.96339614	53.85226144	-79
13504	0	0.381032944	-0.080053329	0.06602478	0.999999046	0.000889778	-0.000221252	0.000594139	9.525823593	-2.001333237	1.650619507	0.044488916	-0.011062624	0.029706961	-0.689208984	0.133544922	-0.759277344	890.88	-51.50656399	-74.93161193	54.05924909	-79
13505	0	0.381530762	-0.078918457	0.063415527	0.999999046	0.000240326	6.20E-05	0.000720978	9.538269043	-1.972961426	1.585388184	0.012016298	0.003099442	0.036048893	-0.688964844	0.131347656	-0.764892578	891.02	-51.62104432	-74.86815793	54.20814328	-79
13506	0	0.383605957	-0.079626083	0.061790466	0.999999046	0.000310898	-0.000165939	0.000602722	9.590148926	-1.990652084	1.544761658	0.015544893	-0.008296967	0.030136111	-0.686767578	0.131347656	-0.759277344	890.94	-51.77135323	-74.83150108	54.4022359	-79
13507	0	0.38067627	-0.077453613	0.059997559	0.999999046	0.000732422	-0.00014782	0.00056076	9.516906738	-1.936340332	1.499938965	0.036621099	-0.007390977	0.028038029	-0.686767578	0.131347656	-0.759277344	890.94	-51.85589203	-74.79740938	54.57721902	-80
13508	0	0.380303383	-0.076446533	0.062253952	0.999999046	0.000624657	-0.000299454	0.000469208	9.507584572	-1.91116333	1.556348801	0.031232838	-0.014972689	0.023460391	-0.689208984	0.133544922	-0.756591797	890.94	-51.97850718	-74.78235245	54.77439553	-81
13509	0	0.380859375	-0.077697754	0.064025879	0.999999046	0.000541687	-0.00033474	0.000190735	9.521484375	-1.942443848	1.600646973	0.027084353	-0.016736985	0.009536744	-0.688720703	0.129150391	-0.764648438	890.88	-52.04956685	-74.7949051	54.91554624	-80
13510	0	0.383435249	-0.078325272	0.062997818	0.999999046	0.00053978	-0.000371933	6.87E-05	9.585881233	-1.95813179	1.57494545	0.026988985	-0.018596651	0.003433228	-0.69140625	0.131347656	-0.761962891	890.86	-52.1015805	-74.82115571	55.0312648	-80
13511	0	0.380981445	-0.080444336	0.065185547	0.999999046	0.000350952	-0.000174522	-6.10E-05	9.524536133	-2.011108398	1.629638672	0.017547608	-0.00872612	-0.003051758	-0.688964844	0.131347656	-0.764892578	891.02	-52.07560638	-74.84511737	55.04079389	-80
13512	0	0.380524635	-0.078217506	0.063824654	0.999999046	0.000523567	-0.000205994	5.25E-05	9.513115883	-1.95543766	1.595616341	0.026178361	-0.010299683	0.002622605	-0.691162109	0.127197266	-0.758789063	890.94	-52.06951385	-74.86105661	55.09991245	-79
13513	0	0.386352539	-0.079345703	0.064941406	0.999999046	0.000347137	-2.86E-06	0.000114441	9.658813477	-1.983642578	1.623535156	0.017356873	-0.000143051	0.005722046	-0.688964844	0.129150391	-0.759033203	890.92	-52.03157257	-74.85708384	55.09878952	-79
13514	0	0.381451607	-0.077435493	0.065052986	0.999999046	3.43E-05	0.000190735	0.00014782	9.536290169	-1.935887337	1.626324654	0.001716614	0.009536743	0.007390976	-0.688964844	0.129150391	-0.759033203	890.86	-51.97301839	-74.83645029	55.03954135	-79
13515	0	0.380187988	-0.077148438	0.065246582	0.999999046	-0.000366211	0.000451088	0.000457764	9.504699707	-1.928710938	1.631164551	-0.018310549	0.0225544	0.022888186	-0.688964844	0.126953125	-0.758789063	890.98	-51.95398956	-74.7694615	54.98124066	-79
13516	0	0.381097794	-0.076750755	0.06370163	0.999999046	-0.000319481	0.000396729	0.000312805	9.527444839	-1.918768883	1.592540741	-0.015974046	0.019836427	0.01564026	-0.688964844	0.129150391	-0.759033203	890.94	-51.90998911	-74.71948159	54.89985203	-79
13517	0	0.382995605	-0.075927734	0.062561035	0.999999046	-0.000526428	0.000477791	-2.67E-05	9.574890137	-1.898193359	1.564025879	-0.026321413	0.023889544	-0.001335144	-0.688964844	0.129150391	-0.761962891	890.92	-51.77524383	-74.69452895	54.7013712	-79
13518	0	0.382263184	-0.077941895	0.06262207	0.999999046	-0.000164032	0.000232697	-0.0001297	9.55657959	-1.948547363	1.565551758	-0.008201599	0.011634827	-0.006484985	-0.688964844	0.131347656	-0.759277344	890.98	-51.65312431	-74.69623951	54.55442735	-79
13519	0	0.379150391	-0.078063965	0.063171387	0.999999046	-5.34E-05	3.15E-05	-0.000217438	9.478759766	-1.951599121	1.579284668	-0.002670288	0.001573563	-0.010871887	-0.686523438	0.131347656	-0.762207031	890.98	-51.56138695	-74.72013179	54.45012739	-79
13520	0	0.37911129	-0.078316689	0.064937592	0.999997139	-0.000256538	0.000120163	-0.000329018	9.477782249	-1.957917213	1.623439789	-0.01282692	0.006008148	-0.016450882	-0.688964844	0.131347656	-0.759277344	890.94	-51.4340006	-74.74763321	54.28579302	-80
13521	0	0.38092041	-0.080993652	0.064941406	0.999999046	-0.000400543	0.000226021	-0.000339508	9.523010254	-2.024841309	1.623535156	-0.020027162	0.011301041	-0.016975404	-0.688964844	0.129150391	-0.761962891	890.92	-51.28517122	-74.76829142	54.08696319	-79
13522	0	0.3811903	-0.081580162	0.064253807	0.999999046	-0.000453949	4.77E-05	-0.0001688	9.5297575	-2.039504051	1.606345177	-0.02269745	0.002384186	-0.008440018	-0.688964844	0.131347656	-0.764892578	890.98	-51.24596181	-74.78627651	53.99119546	-79
13523	0	0.381958008	-0.081359863	0.064025879	0.999999046	-0.000133514	0.000184059	-0.000152588	9.548950195	-2.033996582	1.600646973	-0.00667572	0.009202957	-0.007629395	-0.686523438	0.131347656	-0.762207031	890.98	-51.12969926	-74.79289739	53.85248191	-79
13524	0	0.378662109	-0.080408096	0.06511879	0.999999046	-0.000123024	7.44E-05	1.05E-05	9.466552734	-2.010202408	1.627969742	-0.006151199	0.00371933	0.000524521	-0.686523438	0.131347656	-0.762207031	890.88	-51.09141219	-74.79268698	53.79610876	-79
13525	0	0.382019043	-0.081481934	0.065917969	0.999999046	0.000434875	-0.000189781	-0.000408173	9.550476074	-2.03704834	1.647949219	0.021743776	-0.00948906	-0.020408632	-0.686523438	0.129150391	-0.761962891	890.94	-50.96474142	-74.84865046	53.71611723	-79
13526	0	0.380582809	-0.080016136	0.065231323	0.999999046	0.000337601	-0.000116348	-0.000473976	9.514570236	-2.000403404	1.630783081	0.016880036	-0.005817414	-0.023698808	-0.688720703	0.126953125	-0.76171875	890.98	-50.80672631	-74.90500408	53.59499724	-79
13527	0	0.379821777	-0.083007813	0.066345215	0.999999046	0.000354767	-0.000170708	-0.000133514	9.495544434	-2.075195313	1.658630371	0.017738343	-0.008535385	-0.00667572	-0.686523438	0.126953125	-0.764648438	890.94	-50.75581476	-74.93473111	53.58368385	-79
13528	0	0.378950119	-0.079136848	0.066820145	0.999999046	0.001051903	-7.25E-05	-5.44E-05	9.473752975	-1.978421211	1.670503616	0.052595148	-0.003623963	-0.002717972	-0.686279297	0.126953125	-0.767578125	890.88	-50.61362457	-74.9501418	53.55642852	-79
13529	0	0.383422852	-0.077758789	0.067749023	0.999999046	0.000751495	-1.43E-05	-0.000629425	9.585571289	-1.943969727	1.693725586	0.037574774	-0.000715256	-0.031471257	-0.686279297	0.124755859	-0.76171875	890.94	-50.32965524	-75.01203733	53.34729594	-80
13530	0	0.383464813	-0.079921722	0.067857742	0.999998093	0.00118351	-0.000134468	-0.001022339	9.586620331	-1.99804306	1.696443558	0.059175516	-0.006723407	-0.051116964	-0.686279297	0.122558594	-0.761474609	890.92	-49.9249599	-75.1168086	53.06204486	-79
13531	0	0.382629395	-0.076904297	0.069152832	0.999997139	0.001613617	-0.000193596	-0.001506805	9.565734863	-1.922607422	1.728820801	0.080680913	-0.009679802	-0.075340333	-0.688476563	0.118164063	-0.760986328	890.92	-49.34816751	-75.2674943	52.65032572	-79
13532	0	0.383618355	-0.075271606	0.072422028	0.999996185	0.001089096	0.000153542	-0.002411842	9.59045887	-1.881790161	1.81055069	0.054454867	0.007677087	-0.120592259	-0.688232422	0.111572266	-0.760498047	890.92	-48.44211499	-75.4685854	51.83980791	-81
13533	0	0.37902832	-0.078918457	0.071533203	0.999992371	0.000466347	0.000297546	-0.003631592	9.475708008	-1.972961426	1.788330078	0.023317389	0.014877353	-0.181579998	-0.688232422	0.111572266	-0.763427734	890.98	-47.16502313	-75.75774502	50.56062555	-82
13534	0	0.383560181	-0.082052231	0.069274902	0.999984741	0.00262928	0.00014019	-0.004844666	9.589004517	-2.051305771	1.731872559	0.131464671	0.007009542	-0.242234504	-0.689941406	0.100830078	-0.768066406	890.86	-45.24606187	-76.15033758	48.87739804	-82
13535	0	0.381225586	-0.080505371	0.06817627	0.999979973	0.003070831	5.44E-05	-0.005378723	9.530639648	-2.012634277	1.704406738	0.153542547	0.002717989	-0.268937877	-0.689453125	0.087646484	-0.761230469	890.88	-43.01755922	-76.5771321	46.93316405	-82
13536	0	0.375761986	-0.080633163	0.067442894	0.999982834	0.002929688	-2.96E-05	-0.005001068	9.394049644	-2.015829086	1.68607235	0.146485195	-0.001478203	-0.250054806	-0.69140625	0.076660156	-0.763183594	890.92	-40.84438134	-76.96361009	45.03173913	-86
13537	0	0.376464844	-0.079345703	0.065002441	0.999987602	0.002384186	-0.000308037	-0.004322052	9.411621094	-1.983642578	1.625061035	0.119209776	-0.015401903	-0.216103481	-0.693115234	0.065917969	-0.767822266	890.94	-38.97619476	-77.30846528	43.38381958	-91
13538	0	0.378232956	-0.07815361	0.06435585	0.99998951	0.002025604	-0.000295639	-0.003956795	9.455823898	-1.953840256	1.608896255	0.101280547	-0.014782001	-0.197840391	-0.692871094	0.057128906	-0.767089844	891.04	-37.20680378	-77.61396043	41.79713818	-85
13539	0	0.371643066	-0.079101563	0.065185547	0.999994278	0.000920296	-0.000602722	-0.003196716	9.29107666	-1.977539063	1.629638672	0.046014873	-0.030136166	-0.15983612	-0.694580078	0.046142578	-0.766113281	890.82	-35.91385768	-77.88571769	40.58142609	-81
13540	0	0.374176979	-0.077138901	0.066343307	0.999993324	0.001965523	-0.000934601	-0.002667427	9.354424477	-1.928472519	1.658582687	0.098276332	-0.046730134	-0.133371617	-0.694580078	0.043945313	-0.763183594	890.92	-34.7893286	-78.14700737	39.65118726	-79
13541	0	0.37677002	-0.073303223	0.067993164	0.999992371	0.002140999	-0.00120163	-0.002845764	9.419250488	-1.832580566	1.699829102	0.107050194	-0.060081623	-0.142288543	-0.696533203	0.03515625	-0.768066406	890.88	-33.60372325	-78.44033083	38.68244278	-79
13542	0	0.378401756	-0.074213982	0.068505287	0.999992371	0.001732826	-0.001461983	-0.002898216	9.460043907	-1.855349541	1.712632179	0.086641507	-0.073099301	-0.144911139	-0.701171875	0.028808594	-0.758544922	890.88	-32.47086019	-78.75698805	37.72191567	-79
13543	0	0.379455566	-0.071960449	0.071350098	0.999990463	0.002598763	-0.001663208	-0.00289917	9.48638916	-1.79901123	1.783752441	0.129938514	-0.083160649	-0.144958929	-0.705322266	0.022460938	-0.763671875	890.92	-31.24427902	-79.08826448	36.76354241	-81
13544	0	0.375567436	-0.066239357	0.071062088	0.999985695	0.003655434	-0.002023697	-0.003098488	9.389185905	-1.655983925	1.7765522	0.182772507	-0.101185301	-0.154925091	-0.707275391	0.01171875	-0.759765625	890.92	-29.83650365	-79.46142516	35.74700726	-81
13545	0	0.384033203	-0.06451416	0.072692871	0.999979019	0.004883766	-0.002109528	-0.003601074	9.600830078	-1.612854004	1.817321777	0.244189988	-0.105477105	-0.180054949	-0.711914063	0.005371094	-0.753173828	890.98	-27.94520248	-79.86438915	34.37121098	-79
13546	0	0.385375977	-0.05267334	0.06829834	0.99998188	0.004653931	-0.001548767	-0.003311157	9.634399414	-1.316833496	1.707458496	0.232697891	-0.077438807	-0.165558828	-0.716064453	-0.010009766	-0.751708984	890.98	-25.9593006	-80.18585998	32.88289665	-73
13547	0	0.372158051	-0.045464516	0.067976952	0.999982834	0.003951073	-0.001573563	-0.003477097	9.303951263	-1.136612892	1.69942379	0.197554628	-0.078678527	-0.173855702	-0.715576172	-0.020751953	-0.748046875	890.88	-23.84493038	-80.50784769	31.18387543	-75
13548	0	0.371260643	-0.03796196	0.064051628	0.999982834	0.003925323	-0.001383781	-0.004008293	9.281516075	-0.949048996	1.601290703	0.196267267	-0.069189457	-0.200415773	-0.719726563	-0.031738281	-0.749755859	890.88	-21.20409662	-80.82060359	28.94831291	-73
13549	0	0.374938965	-0.036193848	0.063110352	0.99998188	0.003318787	-0.00140667	-0.004764557	9.373474121	-0.904846191	1.577758789	0.165940318	-0.070333899	-0.238229261	-0.721679688	-0.042480469	-0.748779297	890.86	-17.94773562	-81.14551517	26.0189002	-74
13550	0	0.371103287	-0.038661957	0.060932159	0.999976158	0.003606796	-0.001367569	-0.005597115	9.277582169	-0.96654892	1.523303986	0.180341202	-0.068378975	-0.279857883	-0.723388672	-0.055664063	-0.747558594	890.92	-13.81541515	-81.46172026	22.23880688	-81
13551	0	0.360778809	-0.039672852	0.062683105	0.999975204	0.003586769	-0.002002716	-0.005565643	9.019470215	-0.991821289	1.567077637	0.179339886	-0.100136602	-0.278284385	-0.725341797	-0.068603516	-0.743652344	890.86	-9.518787985	-81.80514104	18.29314975	-84
13552	0	0.355407715	-0.040222168	0.063415527	0.999961853	0.005187988	-0.002566338	-0.006408691	8.885192871	-1.005554199	1.585388184	0.259402638	-0.128318474	-0.320438553	-0.734375	-0.081298828	-0.736328125	890.86	-4.050346022	-82.17353409	13.34532265	-75
13553	0	0.343335152	-0.040074348	0.063975334	0.999947548	0.006311417	-0.00249958	-0.007199287	8.583378792	-1.001858711	1.599383354	0.315575981	-0.124981059	-0.359970245	-0.735839844	-0.101074219	-0.734619141	890.88	2.68147301	-82.45950803	7.255631883	-87
13554	0	0.349300385	-0.04199028	0.066023827	0.999949455	0.006156921	-0.002677917	-0.007414818	8.732509613	-1.049757004	1.650595665	0.307851203	-0.133898107	-0.370747073	-0.734863281	-0.123046875	-0.732910156	890.86	10.00785679	-82.66079188	0.555453535	-84
13555	0	0.34185791	-0.039550781	0.064575195	0.999956131	0.004487038	-0.002532959	-0.007785797	8.546447754	-0.988769531	1.614379883	0.224355142	-0.126649789	-0.389295512	-0.738769531	-0.142578125	-0.731201172	890.92	17.68502506	-82.7203456	-6.686947082	-75
13556	0	0.317949295	-0.043663025	0.065031052	0.999945641	0.005122185	-0.002674103	-0.008653641	7.948732376	-1.091575623	1.625776291	0.25611386	-0.133707552	-0.432689846	-0.742919922	-0.159912109	-0.720947266	890.88	26.15870291	-82.62740395	-14.66355903	-79
13557	0	0.307556152	-0.039367676	0.060424805	0.999861717	0.011791229	-0.004439354	-0.01083374	7.688903809	-0.984191895	1.510620117	0.589588596	-0.221977913	-0.541711942	-0.746582031	-0.18359375	-0.715820313	890.92	37.40615384	-82.40191311	-24.69408082	-81
13558	0	0.322345734	-0.030226707	0.054715157	0.999707222	0.018203735	-0.006576538	-0.014508247	8.058643341	-0.755667686	1.367878914	0.910275552	-0.32885898	-0.725483129	-0.75	-0.220703125	-0.70703125	890.98	51.65024673	-81.77213063	-37.04695141	-75
13559	0	0.30267334	-0.021179199	0.050231934	0.999527931	0.024494171	-0.007842064	-0.016784668	7.566833496	-0.52947998	1.25579834	1.224901161	-0.392164859	-0.83936538	-0.752685547	-0.272949219	-0.688232422	890.88	65.69398674	-80.59979044	-48.51616818	-76
13560	0	0.260017395	-0.013544083	0.047525406	0.999296188	0.029569626	-0.00820446	-0.021549225	6.500434875	-0.338602066	1.188135147	1.478827981	-0.4103192	-1.077713896	-0.754882813	-0.340576172	-0.665527344	890.82	77.98052093	-78.55555957	-57.68178232	-73
13561	0	0.222045898	-0.000854492	0.049621582	0.998862267	0.039413452	-0.011496544	-0.024230957	5.551147461	-0.021362305	1.240539551	1.97141984	-0.575045155	-1.212007242	-0.752685547	-0.414794922	-0.622314453	890.88	89.50695476	-75.95444923	-65.02543882	-73
13562	0	0.151647568	-0.004891396	0.052057266	0.998631477	0.040969849	-0.017524719	-0.027349472	3.791189194	-0.122284889	1.301431656	2.049426888	-0.876635672	-1.3680974	-0.749755859	-0.506347656	-0.569335938	890.92	100.2825219	-72.68084525	-71.51469575	-72
13563	0	0.158874512	-0.218933105	0.076599121	0.9938097	0.101146698	-0.027251244	-0.036979675	3.971862793	-5.473327637	1.914978027	5.067795004	-1.365380372	-1.852808024	-0.739746094	-0.611328125	-0.487060547	890.88	116.364797	-67.7128716	-76.71130518	-72
13564	0	0.139719963	-0.018411636	0.071289063	0.989954948	0.131619453	-0.038761139	-0.034096718	3.492999077	-0.460290909	1.782226563	6.60309643	-1.94457226	-1.710567169	-0.720703125	-0.763427734	-0.272949219	891.04	134.3535118	-62.00102339	-80.31760798	-83
13565	0	0.217651367	0.045776367	-0.008422852	0.989386559	0.133232117	-0.050635338	-0.028270721	5.44128418	1.14440918	-0.210571289	6.685273561	-2.540761895	-1.418558162	-0.684082031	-0.856933594	0.000976563	890.88	151.180371	-55.47132197	-82.31093572	-79
13566	0	0.521993637	0.407069206	-1.547296524	0.966065407	0.152906418	-0.207052231	-0.02156353	13.04984093	10.17673016	-38.6824131	7.73299015	-10.47132543	-1.09054	-0.604248047	-0.856689453	0.387695313	890.92	173.8303012	-31.90052453	-89.08896515	-81
13567	0	0.54486084	-0.101379395	-1.02947998	0.982739449	0.058765411	-0.175341606	0.004966736	13.621521	-2.534484863	-25.73699951	2.955293317	-8.817872023	0.249775521	-0.331787109	-0.718261719	0.803955078	890.88	-178.733053	-11.74830545	-90.6118943	-82
13568	0	0.204861641	0.104133606	-0.099506378	0.97957325	0.093951225	-0.177301407	0.013140678	5.121541023	2.603340149	-2.487659454	4.729809447	-8.925927966	0.661544378	-0.029785156	-0.615722656	0.953369141	891.04	-167.7932552	8.70115923	-89.71581025	-76
13569	0	-0.330871582	-0.230834961	-1.062683105	0.981092453	0.142605782	-0.127002716	0.031475067	-8.271789551	-5.770874023	-26.56707764	7.175569478	-6.390461895	1.583747367	0.317138672	-0.383789063	1.041015625	890.92	-150.7235268	23.62659728	-87.83703385	-82
13570	0	-0.114929199	0.064038277	-0.262034416	0.997304916	0.028910637	0.054564476	-0.03960228	-2.87322998	1.600956917	-6.550860405	1.446831504	2.730676711	-1.981894278	0.447998047	-0.107910156	1.059570313	890.98	-147.1656551	15.91747354	-87.10888536	-79
13571	0	-0.086853027	-0.01739502	-0.020568848	0.992908478	-0.115584373	0.025180817	0.011726379	-2.171325684	-0.434875488	-0.514221191	-5.792917305	1.262025169	0.587708737	0.322509766	-0.149414063	1.098388672	891	-161.1046045	13.90499193	-89.65882726	-78
13572	0	0.01301384	-0.27400589	-0.396946907	0.998597145	-0.049839973	0.014932632	0.009822845	0.325345993	-6.850147247	-9.923672676	-2.493164528	0.746980926	0.491372049	0.275146484	-0.391113281	1.049560547	891	-167.1786326	12.55909414	-91.24417605	-81
13573	0	-0.157470703	-0.219360352	-0.46484375	0.999849319	0.008648872	0.014820099	-0.002578735	-3.936767578	-5.484008789	-11.62109375	0.432465322	0.741042134	-0.128943239	0.240478516	-0.453613281	1.039306641	890.92	-166.1982435	10.83362881	-91.34148303	-87
13574	0	-0.3436203	-0.032122612	-0.265723228	0.999797821	0.018332481	0.008179665	0.000753403	-8.590507507	-0.8030653	-6.643080711	0.916685732	0.409010743	0.03767267	0.205566406	-0.415039063	1.063720703	891	-164.1480877	9.959392717	-91.6634244	-89
13575	0	-0.202087402	-0.100341797	-0.312744141	0.99995327	0.008361816	0.004654884	-0.000907898	-5.052185059	-2.508544922	-7.818603516	0.41809726	0.232747802	-0.045395597	0.189941406	-0.379394531	1.075927734	890.98	-163.1896825	9.434759048	-91.70771791	-89
13576	0	-0.073680878	-0.151683807	-0.349228859	0.999964714	-0.006436348	0.005290985	-0.000989914	-1.842021942	-3.792095184	-8.730721474	-0.321821174	0.26455236	-0.049496278	0.177734375	-0.372314453	1.084716797	890.92	-163.9266917	8.837573509	-91.76439904	-89
13577	0	-0.115356445	-0.149291992	-0.342773438	0.999979973	-0.00604248	-0.000563622	0.001560211	-2.883911133	-3.732299805	-8.569335938	-0.302126001	-0.02818126	0.07801107	0.171386719	-0.387451172	1.080566406	890.88	-164.63054	8.966990011	-91.91367873	-92
13578	0	-0.102404594	-0.125854492	-0.338041306	0.999966621	0.001560211	0.007913589	-0.000346184	-2.560114861	-3.146362305	-8.451032639	0.078011407	0.395683772	-0.017309377	0.167236328	-0.395996094	1.078613281	890.92	-164.4683482	8.102859296	-92.11065704	-88
13579	0	-0.104858398	-0.111022949	-0.33972168	0.999933243	0.002606392	0.011016846	-0.002056122	-2.621459961	-2.77557373	-8.493041992	0.130322471	0.55085444	-0.10280836	0.145751953	-0.390869141	1.085205078	890.92	-164.1705393	6.84623423	-92.21791747	-87
13580	0	-0.099975586	-0.121704102	-0.373901367	0.999806404	-0.004569054	0.019100189	-0.000846863	-2.499389648	-3.042602539	-9.34753418	-0.228467398	0.955070975	-0.042345867	0.124755859	-0.39453125	1.086425781	890.88	-164.7301361	4.736014369	-92.70463194	-85
13581	0	-0.084565163	-0.099226952	-0.365065575	0.999533653	-0.005846024	0.029911995	-0.000886917	-2.114129066	-2.48067379	-9.126639366	-0.292346489	1.495831584	-0.04435273	0.075927734	-0.401855469	1.081298828	890.94	-165.4295474	1.423864379	-93.48138294	-89
13582	0	-0.078642845	-0.122585297	-0.392224312	0.99922657	-0.024206161	0.030950546	-0.001143456	-1.966071129	-3.064632416	-9.805607796	-1.210619983	1.547926126	-0.057187509	0.009033203	-0.421386719	1.077880859	891	-168.1884693	-2.030096776	-94.1565207	-87
13583	0	-0.088989258	-0.09967041	-0.393920898	0.999295235	-0.033473969	0.015980721	0.005752563	-2.224731445	-2.491760254	-9.848022461	-1.67409171	0.799223783	0.287695761	-0.05078125	-0.489501953	1.049560547	890.94	-171.9647773	-3.686006261	-95.11902143	-85
13584	0	0.09731102	-0.044568062	-0.335835457	0.99968338	-0.024423599	0.005721092	-0.001533508	2.432775497	-1.114201546	-8.395886421	-1.221308547	0.286084732	-0.076683489	-0.075683594	-0.550292969	1.010253906	891	-174.7591754	-4.327488035	-95.01691576	-85
13585	0	0.147888184	-0.022766113	-0.325195313	0.999547005	-0.02973175	-0.001303673	-0.004333496	3.69720459	-0.569152832	-8.129882813	-1.486811708	-0.065193469	-0.21670748	-0.077636719	-0.603027344	0.98046875	890.88	-178.193432	-4.185782095	-94.50680518	-85
13586	0	0.040315628	-0.033204079	-0.369932175	0.999634743	-0.022245407	-0.01499176	-0.003017426	1.007890701	-0.830101967	-9.248304367	-1.112405488	-0.749679082	-0.150889607	-0.060546875	-0.658691406	0.944091797	890.94	179.2478122	-2.449103807	-94.14061051	-84
13587	0	0.071716309	0.006408691	-0.382141113	0.999887466	-0.008742332	-0.011730194	-0.003128052	1.792907715	0.160217285	-9.553527832	-0.43713293	-0.586531585	-0.156408423	-0.030517578	-0.697021484	0.919921875	890.94	178.2474306	-1.078825898	-93.80536899	-83
13588	0	0.027099609	0.038879395	-0.406188965	0.999944687	0.004245758	-0.009520531	0.001174927	0.677490234	0.971984863	-10.15472412	0.212291797	-0.476035266	0.058747415	-0.001953125	-0.704589844	0.916259766	890.92	178.7455318	0.025233991	-93.96094435	-83
13589	0	0.008789063	0.018798828	-0.383300781	0.999994278	0.002781868	0.001586914	-0.000183105	0.219726563	0.469970703	-9.582519531	0.139093638	0.079345839	-0.009155289	0.006835938	-0.693847656	0.923339844	890.98	179.0734788	-0.140247252	-93.92849419	-83
13590	0	0.006356239	-1.81E-05	-0.387561798	0.999997139	-0.001634598	0.001157761	-9.06E-05	0.158905983	-0.000452995	-9.689044952	-0.081729944	0.05788807	-0.004529956	0.004394531	-0.691650391	0.926269531	890.94	178.8952996	-0.257607351	-93.90845548	-82
13591	0	0.006896973	0.010498047	-0.375427246	0.999998093	-0.000109673	0.000923157	-0.001441956	0.172424316	0.262451172	-9.385681152	-0.00548363	0.04615786	-0.072097814	0.002197266	-0.695800781	0.926757813	891.04	178.8905535	-0.345863774	-93.73429533	-82
13592	0	-0.019210815	0.003993988	-0.37863636	0.999997139	0.002388954	-7.44E-05	-5.53E-05	-0.480270386	0.099849701	-9.465909004	0.119447822	-0.003719333	-0.002765658	0.002197266	-0.693603516	0.926513672	890.94	179.1728641	-0.322350658	-93.72121818	-83
13593	0	-0.005371094	0.005554199	-0.373840332	0.999993324	0.003410339	0.000329018	0.000328064	-0.134277344	0.13885498	-9.346008301	0.170517304	0.016450914	0.016403231	-0.000488281	-0.689208984	0.929199219	891.04	179.5721512	-0.345744942	-93.751635	-84
13594	0	-0.002490044	-0.001937866	-0.391721725	0.999984741	0.005120277	0.00191021	8.58E-05	-0.062251091	-0.048446655	-9.793043137	0.256015145	0.095510958	0.004291556	-0.000732422	-0.682617188	0.934326172	891	-179.8328328	-0.550253697	-93.75399154	-84
13595	0	0.002380371	-0.011657715	-0.375976563	0.999991417	0.003845215	0.001210213	2.67E-05	0.059509277	-0.291442871	-9.399414063	0.192261263	0.060510799	0.001335148	-0.003662109	-0.673583984	0.939453125	890.98	-179.3837437	-0.675000136	-93.75124185	-85
13596	0	0.003352165	-0.015841484	-0.377140999	0.999999046	0.001084328	0.000572205	1.81E-05	0.083804131	-0.396037102	-9.428524971	0.054216398	0.028610237	0.000905991	-0.006347656	-0.664794922	0.938964844	890.88	-179.2507562	-0.727097296	-93.74752134	-84
13597	0	0.004309654	-0.009926796	-0.38772583	0.999999046	-0.000562668	0.000412941	0.000171661	0.107741356	-0.248169899	-9.693145752	-0.028133395	0.020647051	0.00858307	-0.008789063	-0.664794922	0.938964844	890.94	-179.3063475	-0.761168642	-93.76125778	-85
13598	0	0.004707336	-0.008433342	-0.378220558	0.999998093	0.001288414	0.000531197	0.00031662	0.117683411	-0.210833549	-9.455513954	0.064420722	0.026559839	0.015830999	-0.008544922	-0.666992188	0.939208984	891	-179.149705	-0.808994262	-93.79165232	-84
13599	0	0.002563477	-0.012023926	-0.378540039	0.999999046	0.000976563	-8.68E-05	0.000385284	0.064086914	-0.300598145	-9.463500977	0.048828134	-0.004339219	0.019264225	-0.008789063	-0.664794922	0.944824219	890.92	-179.0286892	-0.78611674	-93.82897093	-83
13600	0	0.001509666	-0.013017654	-0.383459091	0.999998093	0.001178741	0.000159264	0.000323296	0.037741661	-0.32544136	-9.58647728	0.058937088	0.007963183	0.016164784	-0.009033203	-0.660400391	0.950195313	890.94	-178.8845897	-0.791717351	-93.85967265	-84
13601	0	0.001708984	-0.014099121	-0.384033203	0.999998093	0.001748085	0.00062561	0.000362396	0.042724609	-0.352478027	-9.600830078	0.087404303	0.031280536	0.018119823	-0.009033203	-0.658203125	0.947021484	890.94	-178.6751319	-0.850800625	-93.89598992	-83
13602	0	0.004918098	-0.01499939	-0.378728867	0.999997139	0.001903534	0.001012802	0.000285149	0.122952461	-0.374984741	-9.468221664	0.095176772	0.050640146	0.014257442	-0.01171875	-0.655761719	0.949951172	890.94	-178.4479285	-0.954708745	-93.92496747	-83
13603	0	0.005065918	-0.018676758	-0.381347656	0.999999046	0.000404358	0.000653267	0.000236511	0.126647949	-0.466918945	-9.533691406	0.020217898	0.032663349	0.011825563	-0.014160156	-0.651367188	0.949707031	890.94	-178.3924797	-1.017863003	-93.94763284	-84
13604	0	0.005861282	-0.01679039	-0.381691933	0.999999046	-0.000164986	0.000555038	7.53E-05	0.146532059	-0.41975975	-9.542298317	-0.008249283	0.027751924	0.003767014	-0.014160156	-0.651367188	0.949707031	890.92	-178.4025997	-1.070632252	-93.95145866	-84
13605	0	0.005432129	-0.014892578	-0.377319336	0.999999046	-0.00025177	0.000462532	0.000125885	0.135803223	-0.372314453	-9.432983398	-0.012588502	0.023126603	0.006294251	-0.016601563	-0.651367188	0.952636719	890.94	-178.4226486	-1.112962135	-93.96088633	-84
13606	0	0.006329536	-0.015190125	-0.382082939	0.999999046	-0.000205994	0.000267029	4.86E-05	0.158238411	-0.379753113	-9.552073479	-0.010299683	0.013351441	0.00243187	-0.016357422	-0.653564453	0.949951172	890.94	-178.4377069	-1.133476842	-93.96074762	-85
13607	0	0.00592041	-0.014282227	-0.380615234	0.999999046	0.000606537	0.000184059	0.000133514	0.148010254	-0.357055664	-9.515380859	0.030326845	0.009202958	0.006675721	-0.018798828	-0.653320313	0.952880859	890.92	-178.3595779	-1.14451593	-93.97021956	-85
13608	0	0.006175995	-0.017612457	-0.378395081	0.999999046	0.001055717	9.35E-05	0.000171661	0.154399872	-0.440311432	-9.459877014	0.052785884	0.004673005	0.00858307	-0.016601563	-0.649169922	0.952392578	891	-178.2298578	-1.145331099	-93.98357642	-85
13609	0	0.006958008	-0.01763916	-0.382385254	0.999999046	0.000297546	0.000100136	0.000232697	0.173950195	-0.440979004	-9.559631348	0.01487732	0.00500679	0.011634827	-0.021240234	-0.648925781	0.949707031	890.84	-178.1868901	-1.147001473	-94.00432265	-85
13610	0	0.007330894	-0.016589165	-0.382374763	0.999999046	0.000293732	0.000148773	0.00026226	0.183272362	-0.414729118	-9.559369087	0.014686585	0.00743866	0.013113022	-0.019042969	-0.646728516	0.952392578	891	-178.1443698	-1.15445337	-94.02831816	-85
13611	0	0.007751465	-0.017089844	-0.380615234	0.999999046	-9.54E-05	0.000203133	0.000221252	0.193786621	-0.427246094	-9.515380859	-0.004768372	0.010156632	0.011062622	-0.019042969	-0.646728516	0.955322266	890.92	-178.1465899	-1.168622868	-94.0478189	-85
13612	0	0.006896973	-0.017150879	-0.381225586	0.999999046	0.000145912	-9.54E-05	0.000114441	0.172424316	-0.428771973	-9.530639648	0.007295609	-0.004768372	0.005722046	-0.023681641	-0.648925781	0.952880859	891	-178.1214908	-1.149293267	-94.05437667	-85
13613	0	0.006591797	-0.01965332	-0.382385254	0.999999046	8.01E-05	0.000248909	0.000167847	0.164794922	-0.491333008	-9.559631348	0.004005432	0.01244545	0.008392334	-0.021240234	-0.648925781	0.949707031	891.02	-178.1037234	-1.16946207	-94.06794861	-86
13614	0	0.006957054	-0.017947197	-0.37963295	0.999999046	-0.000148773	0.000133514	6.01E-05	0.173926353	-0.448679924	-9.490823746	-0.00743866	0.00667572	0.003004074	-0.021240234	-0.648925781	0.952636719	890.88	-178.1124715	-1.177103681	-94.06875394	-87
13615	0	0.007446289	-0.017822266	-0.382385254	0.999999046	-0.000137329	-9.82E-05	8.01E-05	0.186157227	-0.445556641	-9.559631348	-0.006866455	-0.004911423	0.004005432	-0.021240234	-0.648925781	0.952636719	891.02	-178.1199146	-1.158423876	-94.07102098	-88
13616	0	0.007612228	-0.016435623	-0.383366585	0.999998093	-8.20E-05	8.30E-05	4.20E-05	0.19030571	-0.410890579	-9.584164619	-0.0041008	0.004148483	0.002098084	-0.021240234	-0.648925781	0.952636719	890.98	-178.1211979	-1.160941541	-94.06959272	-87
13617	0	0.007568359	-0.018371582	-0.380615234	0.999999046	-8.39E-05	3.15E-05	-3.81E-06	0.189208984	-0.459289551	-9.515380859	-0.004196167	0.001573563	-0.000190735	-0.018798828	-0.648925781	0.949707031	890.88	-178.1228065	-1.1580259	-94.06250951	-88
13618	0	0.006370544	-0.015256882	-0.380129814	0.999999046	-0.00053978	-0.000123978	0.000166893	0.159263611	-0.381422043	-9.503245354	-0.026988985	-0.006198883	0.008344651	-0.021240234	-0.651123047	0.952880859	891	-178.1764249	-1.136898483	-94.07473948	-88
13619	0	0.006347656	-0.016662598	-0.382995605	0.999999046	0.000431061	3.53E-05	0.000102997	0.158691406	-0.416564941	-9.574890137	0.02155304	0.001764298	0.005149841	-0.023681641	-0.651123047	0.955810547	890.94	-178.1189952	-1.134470166	-94.08040553	-89
13620	0	0.006796837	-0.018275261	-0.381149292	0.999999046	-9.06E-05	0.000118256	0.000136375	0.169920921	-0.456881523	-9.5287323	-0.004529953	0.005912781	0.006818771	-0.021240234	-0.651123047	0.949951172	891	-178.1212602	-1.141655841	-94.089813	-88
13621	0	0.007568359	-0.017822266	-0.38293457	0.999999046	-8.39E-05	0.000107765	8.77E-05	0.189208984	-0.445556641	-9.573364258	-0.004196167	0.00538826	0.004386902	-0.018798828	-0.651123047	0.949951172	890.88	-178.1228953	-1.148092003	-94.09337145	-89
13622	0	0.008012772	-0.015807152	-0.381227493	0.999999046	-0.000522614	0.000141144	8.30E-05	0.20031929	-0.395178795	-9.530687332	-0.026130678	0.00705719	0.004148483	-0.023681641	-0.651123047	0.955810547	890.94	-178.1749303	-1.158658461	-94.09712996	-88
13623	0	0.008178711	-0.017089844	-0.382568359	0.999999046	3.81E-06	-0.000113487	4.58E-05	0.204467773	-0.427246094	-9.564208984	0.000190735	-0.005674362	0.002288818	-0.023681641	-0.651123047	0.952880859	891	-178.166783	-1.140479992	-94.09559198	-88
13624	0	0.007479668	-0.015384674	-0.379091263	0.999999046	-0.000109673	-0.000148773	0.000114441	0.186991692	-0.384616852	-9.47728157	-0.005483627	-0.00743866	0.005722046	-0.021240234	-0.651123047	0.949951172	890.94	-178.1716075	-1.118256015	-94.10145735	-88
13625	0	0.0078125	-0.016662598	-0.381530762	0.999999046	0.000236511	-3.34E-05	0.0001297	0.1953125	-0.416564941	-9.538269043	0.011825562	-0.00166893	0.006484985	-0.0234375	-0.651123047	0.950195313	890.94	-178.1367768	-1.109454447	-94.10979116	-88
13626	0	0.007109642	-0.01776123	-0.382194519	0.999999046	-0.000236511	2.67E-05	0.000121117	0.177741051	-0.444030762	-9.554862976	-0.011825562	0.001335144	0.006055832	-0.021240234	-0.651123047	0.949951172	891.06	-178.1561766	-1.107785884	-94.11700819	-87
13627	0	0.007568359	-0.014831543	-0.381225586	0.999999046	-3.05E-05	7.34E-05	3.43E-05	0.189208984	-0.370788574	-9.530639648	-0.001525879	0.003671646	0.001716614	-0.0234375	-0.651123047	0.950195313	890.92	-178.1523103	-1.112034252	-94.1147836	-87
13628	0	0.007987976	-0.017251015	-0.380615234	0.999999046	-0.000138283	7.25E-05	0.000109673	0.199699402	-0.431275368	-9.515380859	-0.006914139	0.003623962	0.005483627	-0.021240234	-0.651123047	0.955810547	891.1	-178.1606488	-1.11615064	-94.12079563	-87
13629	0	0.006958008	-0.014038086	-0.381164551	0.999999046	0.00025177	-2.86E-06	4.58E-05	0.173950195	-0.350952148	-9.52911377	0.012588501	-0.000143051	0.002288818	-0.020996094	-0.653320313	0.947265625	891.06	-178.1246217	-1.112069854	-94.11927424	-86
13630	0	0.007502556	-0.017160416	-0.38066864	0.999999046	0.000236511	6.10E-05	0.000105858	0.187563896	-0.429010391	-9.516716003	0.011825562	0.003051758	0.005292893	-0.021240234	-0.651123047	0.955810547	891	-178.0902364	-1.115300242	-94.1249294	-86
13631	0	0.00769043	-0.017150879	-0.380554199	0.999999046	-0.000240326	6.96E-05	5.72E-05	0.192260742	-0.428771973	-9.51385498	-0.012016297	0.003480911	0.002861023	-0.023681641	-0.648925781	0.949951172	891	-178.1106435	-1.119920984	-94.1254341	-86
13632	0	0.007678986	-0.016421318	-0.378547668	0.999999046	-0.000231743	0.000160217	0	0.19197464	-0.410532951	-9.463691711	-0.011587143	0.008010864	0	-0.0234375	-0.651123047	0.950195313	891.02	-178.1302568	-1.135349989	-94.1195343	-86
13633	0	0.00769043	-0.017150879	-0.380432129	0.999999046	-0.000293732	-5.25E-05	1.53E-05	0.192260742	-0.428771973	-9.510803223	-0.014686585	-0.002622604	0.000762939	-0.0234375	-0.653076172	0.956054688	891	-178.1569798	-1.126567909	-94.11453626	-85
13634	0	0.008136749	-0.014547348	-0.381052971	0.999999046	-0.000366211	4.39E-05	8.77E-05	0.203418732	-0.363683701	-9.526324272	-0.018310547	0.002193451	0.004386902	-0.025878906	-0.653076172	0.950439453	891.02	-178.1919873	-1.12877579	-94.11853347	-85
13635	0	0.007873535	-0.015563965	-0.380371094	0.999999046	0.000434875	-6.77E-05	0.000118256	0.196838379	-0.389099121	-9.509277344	0.021743775	-0.003385544	0.005912781	-0.0234375	-0.653320313	0.950195313	890.94	-178.1352169	-1.118293958	-94.12509679	-85
13636	0	0.007633209	-0.017241478	-0.381761551	0.999999046	-2.57E-05	5.72E-05	0.000117302	0.190830231	-0.431036949	-9.544038773	-0.00128746	0.002861023	0.005865097	-0.0234375	-0.651123047	0.947265625	890.96	-178.1312391	-1.122308678	-94.13203702	-85
13637	0	0.007080078	-0.016723633	-0.379333496	0.999999046	-0.000545502	3.15E-05	0.000118256	0.177001953	-0.41809082	-9.483337402	-0.027275087	0.001573563	0.005912781	-0.0234375	-0.653320313	0.950195313	890.9	-178.1868583	-1.123530052	-94.13895957	-85
13638	0	0.007709503	-0.014051437	-0.381668091	0.999999046	0.000335693	0.000120163	4.96E-05	0.192737579	-0.351285934	-9.541702271	0.016784668	0.006008148	0.002479553	-0.0234375	-0.653320313	0.953125	890.94	-178.1418051	-1.13534434	-94.13831477	-85
13639	0	0.008300781	-0.018554688	-0.381835938	0.999999046	8.77E-05	0.000138283	0.000114441	0.207519531	-0.463867188	-9.545898438	0.004386902	0.006914139	0.005722046	-0.0234375	-0.651123047	0.950195313	891.02	-178.1249563	-1.14919467	-94.14517373	-86
13640	0	0.007669449	-0.01453495	-0.381954193	0.999999046	-0.000355721	1.91E-05	0.000144005	0.191736221	-0.363373756	-9.548854828	-0.017786026	0.000953674	0.007200241	-0.0234375	-0.653320313	0.953125	891.02	-178.1590164	-1.149443108	-94.15495279	-87
13641	0	0.008178711	-0.016540527	-0.381713867	0.999999046	0.000274658	-1.43E-05	3.43E-05	0.204467773	-0.413513184	-9.54284668	0.01373291	-0.000715256	0.001716614	-0.023681641	-0.651123047	0.952880859	890.9	-178.1211288	-1.146458785	-94.15214984	-85
13642	0	0.008227348	-0.01589489	-0.380727768	0.999997139	-0.000465393	5.53E-05	7.92E-05	0.205683708	-0.397372246	-9.518194199	-0.023269654	0.002765656	0.003957749	-0.025878906	-0.653076172	0.950439453	891	-178.1680144	-1.151464951	-94.15512632	-86
13643	0	0.008178711	-0.015319824	-0.382629395	0.999999046	0.000354767	4.29E-05	9.92E-05	0.204467773	-0.382995605	-9.565734863	0.017738343	0.002145767	0.004959107	-0.0234375	-0.653320313	0.953125	890.9	-178.1209607	-1.155146948	-94.1597217	-85
13644	0	0.008084297	-0.016324043	-0.379505157	0.999999046	-3.15E-05	5.72E-05	0.000231743	0.20210743	-0.408101082	-9.487628937	-0.001573563	0.002861023	0.011587143	-0.025878906	-0.653076172	0.950439453	890.96	-178.1179088	-1.160129885	-94.18005333	-83
13645	0	0.008544922	-0.015686035	-0.379882813	0.999999046	-0.000106812	5.05E-05	0.000133514	0.213623047	-0.392150879	-9.497070313	-0.005340576	0.002527237	0.00667572	-0.0234375	-0.653320313	0.953125	891	-178.123798	-1.164896037	-94.18848857	-82
13646	0	0.007418633	-0.016644478	-0.382754326	0.999999046	-0.000120163	-5.72E-06	0.00014782	0.185465813	-0.416111946	-9.568858147	-0.006008148	-0.000286102	0.007390976	-0.025878906	-0.653076172	0.953369141	891	-178.1312228	-1.16327969	-94.198926	-81
13647	0	0.007995605	-0.015197754	-0.379882813	0.999999046	0.000160217	9.63E-05	0.000110626	0.199890137	-0.379943848	-9.497070313	0.008010864	0.004816055	0.005531311	-0.0234375	-0.651123047	0.947265625	890.96	-178.1066937	-1.173631288	-94.20489797	-81
13648	0	0.008552551	-0.015565872	-0.380060196	0.999999046	-1.62E-05	-0.000164032	9.92E-05	0.213813782	-0.389146805	-9.501504898	-0.000810623	-0.008201599	0.004959106	-0.0234375	-0.655517578	0.953369141	891	-178.1025148	-1.154371893	-94.2086516	-81
13649	0	0.007995605	-0.01550293	-0.382141113	0.999999046	0.000453949	3.91E-05	0.000118256	0.199890137	-0.387573242	-9.553527832	0.02269745	0.001955032	0.005912781	-0.025878906	-0.653076172	0.950439453	891.02	-178.0444932	-1.158438187	-94.21596915	-81
13650	0	0.008264542	-0.016094208	-0.379258156	0.999999046	-0.000152588	4.20E-05	3.72E-05	0.206613541	-0.402355194	-9.481453896	-0.007629395	0.002098084	0.001859665	-0.025878906	-0.650878906	0.950195313	890.94	-178.0562362	-1.163293633	-94.21393426	-81
13651	0	0.009338379	-0.014221191	-0.377746582	0.999999046	0.000106812	-1.81E-05	5.72E-05	0.233459473	-0.355529785	-9.443664551	0.005340576	-0.000905991	0.002861023	-0.025878906	-0.650878906	0.947265625	890.94	-178.0383721	-1.161390044	-94.21390976	-82
13652	0	0.007551193	-0.016623497	-0.380978584	0.999999046	0.000103951	0	7.92E-05	0.188779831	-0.415587425	-9.524464607	0.005197525	0	0.003957748	-0.0234375	-0.653320313	0.947509766	890.94	-178.0208262	-1.16157507	-94.21575465	-83
13653	0	0.00769043	-0.014709473	-0.381286621	0.999999046	0.000102997	7.72E-05	0.000141144	0.192260742	-0.367736816	-9.532165527	0.005149841	0.003862381	0.00705719	-0.025634766	-0.653076172	0.947509766	890.9	-178.0033882	-1.170464309	-94.22561474	-83
13654	0	0.007925987	-0.01662159	-0.379512787	0.999999046	-2.48E-05	2.29E-05	0.000102043	0.198149681	-0.415539742	-9.487819672	-0.001239777	0.001144409	0.005102158	-0.0234375	-0.651123047	0.950195313	890.94	-178.0007367	-1.173393682	-94.23010687	-83
13655	0	0.008239746	-0.015869141	-0.381164551	0.999999046	-3.05E-05	-5.25E-05	0.00012207	0.205993652	-0.396728516	-9.52911377	-0.001525879	-0.002622604	0.006103516	-0.025878906	-0.650878906	0.953125	891	-177.998793	-1.167737717	-94.23738013	-83
13656	0	0.008117676	-0.016723633	-0.379272461	0.999999046	3.15E-05	-2.29E-05	6.48E-05	0.202941895	-0.41809082	-9.481811523	0.001573563	-0.001144409	0.003242493	-0.025878906	-0.648681641	0.949951172	890.9	-177.989919	-1.165813085	-94.23820782	-84
13657	0	0.008239746	-0.016052246	-0.380432129	0.999999046	-0.000160217	-2.96E-05	0.000133514	0.205993652	-0.401306152	-9.510803223	-0.008010864	-0.001478195	0.00667572	-0.025878906	-0.653076172	0.953369141	891	-178.0029305	-1.162968513	-94.24671113	-84
13658	0	0.00877285	-0.015248299	-0.378973961	0.999997139	9.92E-05	5.34E-05	5.72E-05	0.219321251	-0.381207466	-9.474349022	0.004959106	0.002670288	0.002861023	-0.028076172	-0.653076172	0.953369141	891.02	-177.9865013	-1.170077867	-94.24742355	-82
13659	0	0.008605957	-0.016723633	-0.380187988	0.999999046	0.000118256	1.24E-05	0.000125885	0.215148926	-0.41809082	-9.504699707	0.005912781	0.000619888	0.006294251	-0.025878906	-0.648681641	0.949951172	891	-177.9677674	-1.172342357	-94.25501771	-84
13660	0	0.008422852	-0.015686035	-0.379699707	0.999999046	-6.77E-05	-1.53E-05	9.16E-05	0.210571289	-0.392150879	-9.492492676	-0.003385544	-0.000762939	0.004577637	-0.0234375	-0.653320313	0.947509766	890.96	-177.9705212	-1.171694732	-94.25771664	-84
13661	0	0.008117676	-0.015808105	-0.378295898	0.999999046	-2.67E-05	-2.57E-05	0.00012207	0.202941895	-0.395202637	-9.457397461	-0.001335144	-0.00128746	0.006103516	-0.025878906	-0.650878906	0.950195313	891	-177.9685948	-1.169822242	-94.26485388	-83
13662	0	0.009252548	-0.015790939	-0.379030228	0.999999046	-9.73E-05	-8.77E-05	-9.54E-07	0.231313705	-0.394773483	-9.475755692	-0.004863739	-0.004386902	-4.77E-05	-0.025878906	-0.653076172	0.950439453	891.02	-177.9751338	-1.161505804	-94.25766276	-85
13663	0	0.008789063	-0.015380859	-0.378967285	0.999999046	8.39E-05	-8.68E-05	0.000144958	0.219726563	-0.384521484	-9.474182129	0.004196167	-0.004339218	0.007247925	-0.025878906	-0.650878906	0.953125	891	-177.9606729	-1.152836784	-94.26717991	-85
13664	0	0.008351326	-0.016241074	-0.380431175	0.999999046	0.000376701	-0.000116348	5.25E-05	0.20878315	-0.40602684	-9.510779381	0.018835068	-0.005817413	0.002622604	-0.025878906	-0.650878906	0.950195313	891	-177.9129421	-1.141264579	-94.26603286	-87
13665	0	0.008728027	-0.017150879	-0.379394531	0.999999046	-0.000110626	5.82E-05	6.48E-05	0.218200684	-0.428771973	-9.484863281	-0.005531311	0.002908707	0.003242493	-0.025878906	-0.650878906	0.953125	890.96	-177.9210413	-1.14975442	-94.26690864	-89
13666	0	0.00846386	-0.01554203	-0.38043499	0.999999046	-0.000322342	-8.39E-05	2.86E-06	0.211596489	-0.388550758	-9.510874748	-0.016117096	-0.004196167	0.000143051	-0.025878906	-0.653076172	0.950439453	890.9	-177.9536648	-1.142335375	-94.26014017	-90
13667	0	0.008422852	-0.015869141	-0.380737305	0.999999046	0.000209808	-2.86E-06	-3.05E-05	0.210571289	-0.396728516	-9.518432617	0.010490418	-0.000143051	-0.001525879	-0.025878906	-0.653076172	0.950439453	890.96	-177.9254571	-1.14444217	-94.24988027	-89
13668	0	0.008419991	-0.016393661	-0.377556801	0.999999046	-0.000128746	-5.72E-05	5.34E-05	0.210499763	-0.409841537	-9.438920021	-0.006437302	-0.002861023	0.002670288	-0.025878906	-0.650878906	0.950195313	890.88	-177.9359121	-1.140082675	-94.24905301	-89
13669	0	0.008361816	-0.015441895	-0.381591797	0.999999046	7.63E-05	-3.72E-05	6.10E-05	0.20904541	-0.386047363	-9.539794922	0.003814697	-0.001859665	0.003051758	-0.025878906	-0.653076172	0.950439453	891	-177.9229572	-1.138081	-94.24910645	-88
13670	0	0.007781029	-0.01666069	-0.380918503	0.999999046	0.000162125	-8.58E-05	0.000118256	0.194525719	-0.416517258	-9.52296257	0.008106232	-0.004291534	0.005912781	-0.025878906	-0.650878906	0.953125	891	-177.9000851	-1.13033489	-94.25551286	-88
13671	0	0.008483887	-0.016296387	-0.380371094	0.999999046	0.000102997	-4.48E-05	6.48E-05	0.212097168	-0.407409668	-9.509277344	0.005149841	-0.002241135	0.003242493	-0.025878906	-0.650878906	0.950195313	890.96	-177.8841742	-1.127609382	-94.2559797	-88
13672	0	0.008141518	-0.01631546	-0.381528854	0.999999046	1.05E-05	-3.43E-05	4.96E-05	0.203537941	-0.407886505	-9.538221359	0.000524521	-0.001716614	0.002479553	-0.025878906	-0.650878906	0.953125	891.02	-177.8789697	-1.126231576	-94.2546947	-88
13673	0	0.008605957	-0.016235352	-0.380126953	0.999999046	0.000328064	-2.19E-05	9.54E-05	0.215148926	-0.405883789	-9.503173828	0.016403199	-0.001096725	0.004768372	-0.028320313	-0.648681641	0.950195313	891	-177.8373484	-1.126182345	-94.25983252	-87
13674	0	0.008890152	-0.016365051	-0.380910873	0.999999046	-4.58E-05	4.20E-05	0.00014782	0.222253799	-0.409126282	-9.522771835	-0.002288818	0.002098084	0.007390976	-0.023681641	-0.648925781	0.955566406	890.9	-177.8385125	-1.133337763	-94.26872658	-87
13675	0	0.008239746	-0.015869141	-0.381652832	0.999999046	0.000278473	-7.92E-05	0.000144958	0.205993652	-0.396728516	-9.541320801	0.013923645	-0.003957748	0.007247925	-0.025878906	-0.650878906	0.956054688	890.94	-177.8026469	-1.126709074	-94.27793142	-86
13676	0	0.0089674	-0.017059326	-0.378044128	0.999999046	0.000109673	-0.000152588	0.000164032	0.22418499	-0.426483154	-9.45110321	0.005483627	-0.007629395	0.008201599	-0.025878906	-0.650878906	0.953125	890.94	-177.7861372	-1.11169967	-94.28907421	-86
13677	0	0.008056641	-0.016113281	-0.379455566	0.999999046	3.05E-05	-6.39E-05	1.14E-05	0.201416016	-0.402832031	-9.48638916	0.001525879	-0.003194809	0.000572205	-0.025878906	-0.650878906	0.953125	890.94	-177.7791331	-1.107591762	-94.28318608	-85
13678	0	0.008361816	-0.017150879	-0.379882813	0.999999046	0.000144958	3.05E-05	0.000133514	0.20904541	-0.428771973	-9.497070313	0.007247925	0.001525879	0.00667572	-0.026123047	-0.648681641	0.955810547	890.94	-177.7587857	-1.113837608	-94.291717	-85
13679	0	0.008056641	-0.016906738	-0.379699707	0.999999046	-1.91E-05	9.63E-05	5.72E-05	0.201416016	-0.422668457	-9.492492676	-0.000953674	0.004816055	0.002861023	-0.023681641	-0.648925781	0.955566406	890.94	-177.75746	-1.128025656	-94.29044477	-85
13680	0	0.007760048	-0.017076492	-0.380310059	0.999999046	2.57E-05	-9.54E-06	8.77E-05	0.194001198	-0.426912308	-9.507751465	0.00128746	-0.000476837	0.004386902	-0.026123047	-0.648681641	0.952880859	890.84	-177.7510028	-1.129999041	-94.29361156	-86
13681	0	0.008605957	-0.018493652	-0.380371094	0.999999046	-7.25E-05	2.77E-05	8.77E-05	0.215148926	-0.462341309	-9.509277344	-0.003623962	0.001382828	0.004386902	-0.025878906	-0.650878906	0.950195313	890.9	-177.755784	-1.136316602	-94.29668183	-86
13682	0	0.008361816	-0.015625	-0.378723145	0.999999046	-1.91E-05	-1.91E-05	-5.72E-05	0.20904541	-0.390625	-9.468078613	-0.000953674	-0.000953674	-0.002861023	-0.026123047	-0.648681641	0.952880859	890.94	-177.7549081	-1.138005024	-94.28316578	-85
13683	0	0.008972168	-0.017333984	-0.380249023	0.999999046	0.000198364	1.62E-05	0.00012207	0.224304199	-0.433349609	-9.506225586	0.009918213	0.000810623	0.006103516	-0.028320313	-0.648681641	0.955810547	890.96	-177.7287502	-1.143024511	-94.29136494	-86
13684	0	0.008918762	-0.015655518	-0.378778458	0.999999046	-8.87E-05	1.53E-05	3.34E-05	0.222969055	-0.391387939	-9.469461441	-0.004434586	0.000762939	0.00166893	-0.025878906	-0.650878906	0.956054688	891	-177.7358135	-1.148429044	-94.28779051	-86
13685	0	0.008850098	-0.016540527	-0.381286621	0.999999046	0.000328064	-4.48E-05	1.14E-05	0.221252441	-0.413513184	-9.532165527	0.016403199	-0.002241135	0.000572205	-0.025878906	-0.650878906	0.953125	890.94	-177.6952621	-1.147137445	-94.28154271	-85
13686	0	0.008631706	-0.017338753	-0.378652573	0.999999046	0.000125885	-1.14E-05	9.06E-05	0.215792656	-0.433468819	-9.466314316	0.006294251	-0.000572205	0.004529953	-0.025878906	-0.648681641	0.949951172	891	-177.6777456	-1.149375749	-94.28458287	-85
13687	0	0.007568359	-0.018432617	-0.38067627	0.999999046	0.00025177	-7.92E-05	5.34E-05	0.189208984	-0.46081543	-9.516906738	0.012588501	-0.003957748	0.002670288	-0.026123047	-0.648681641	0.958740234	891	-177.6458998	-1.14404618	-94.28312893	-85
13688	0	0.008419991	-0.01740551	-0.381157875	0.999999046	-9.06E-05	2.67E-05	6.48E-05	0.210499763	-0.435137749	-9.528946877	-0.004529953	0.001335144	0.003242493	-0.026123047	-0.646484375	0.955566406	890.94	-177.6533188	-1.150840137	-94.28351572	-85
13689	0	0.008300781	-0.016906738	-0.380249023	0.999999046	0.000217438	1.24E-05	0.000148773	0.207519531	-0.422668457	-9.506225586	0.010871887	0.000619888	0.00743866	-0.026123047	-0.646484375	0.952636719	890.94	-177.625334	-1.155647736	-94.29334125	-87
13690	0	0.008181572	-0.018540382	-0.381767273	0.999999046	9.54E-06	-4.96E-05	6.10E-05	0.204539299	-0.46350956	-9.544181824	0.000476837	-0.002479553	0.003051758	-0.026123047	-0.646484375	0.952636719	891	-177.6213955	-1.153809069	-94.29283834	-89
13691	0	0.008422852	-0.016662598	-0.38079834	0.999999046	9.54E-05	2.00E-05	3.43E-05	0.210571289	-0.416564941	-9.519958496	0.004768372	0.001001358	0.001716614	-0.026123047	-0.646484375	0.952636719	891.02	-177.6077853	-1.160119372	-94.28955044	-90
13692	0	0.00855732	-0.018322945	-0.380368233	0.999999046	6.01E-05	6.48E-05	7.92E-05	0.213932991	-0.458073616	-9.509205818	0.003004074	0.003242493	0.003957748	-0.026123047	-0.646484375	0.952636719	890.84	-177.5981345	-1.171401677	-94.29145568	-91
13693	0	0.008239746	-0.01739502	-0.38092041	0.999999046	0.000183105	1.62E-05	7.25E-05	0.205993652	-0.434875488	-9.523010254	0.009155273	0.000810623	0.003623962	-0.026123047	-0.648925781	0.953125	890.96	-177.5744814	-1.177179511	-94.29218759	-91
13694	0	0.009652138	-0.01820755	-0.380181313	0.999999046	0.000108719	-1.14E-05	6.87E-05	0.241303444	-0.455188751	-9.504532814	0.005435944	-0.000572205	0.003433228	-0.026123047	-0.646728516	0.952880859	890.96	-177.5594036	-1.179910835	-94.29239727	-89
13695	0	0.008972168	-0.017822266	-0.381103516	0.999999046	0.000255585	-0.000102043	0.000118256	0.224304199	-0.445556641	-9.527587891	0.012779236	-0.005102158	0.005912781	-0.026123047	-0.646728516	0.958740234	890.9	-177.5274535	-1.172088575	-94.29777227	-88
13696	0	0.008461952	-0.018507004	-0.379815102	0.999999046	-0.000132561	1.53E-05	0.000125885	0.211548805	-0.462675095	-9.495377541	-0.006628037	0.000762939	0.006294251	-0.026367188	-0.64453125	0.955566406	890.9	-177.5399893	-1.177695228	-94.30479289	-87
13697	0	0.008666992	-0.018432617	-0.380371094	0.999999046	-0.000270844	0.000107765	-1.91E-05	0.216674805	-0.46081543	-9.509277344	-0.013542175	0.00538826	-0.000953674	-0.026123047	-0.646728516	0.958740234	891	-177.5687379	-1.194651422	-94.29521227	-87
13698	0	0.00880909	-0.018410683	-0.379403114	0.999999046	0.000120163	2.10E-05	0.000152588	0.220227242	-0.460267067	-9.485077858	0.006008148	0.001049042	0.007629395	-0.028564453	-0.64453125	0.952880859	890.94	-177.5523128	-1.200878796	-94.306775	-87
13699	0	0.008850098	-0.018920898	-0.381652832	0.999999046	0.000183105	5.05E-05	2.67E-05	0.221252441	-0.473022461	-9.541320801	0.009155273	0.002527237	0.001335144	-0.026123047	-0.646728516	0.955810547	890.9	-177.5289717	-1.211152451	-94.30175745	-86
13700	0	0.008887291	-0.01924324	-0.380056381	0.999998093	-0.000167847	-3.34E-05	2.96E-05	0.222182274	-0.481081009	-9.501409531	-0.008392334	-0.00166893	0.001478195	-0.026123047	-0.646728516	0.955810547	890.94	-177.5458453	-1.21184722	-94.29674614	-86
13701	0	0.008666992	-0.018798828	-0.381347656	0.999999046	5.72E-05	-2.86E-06	-3.81E-05	0.216674805	-0.469970703	-9.533691406	0.002861023	-0.000143051	-0.001907349	-0.026123047	-0.646728516	0.950195313	890.94	-177.5371059	-1.216397779	-94.28432719	-86
13702	0	0.008787155	-0.01926899	-0.379453659	0.999999046	-0.000179291	1.91E-06	6.77E-05	0.219678879	-0.481724739	-9.486341476	-0.008964539	9.54E-05	0.003385544	-0.026123047	-0.646728516	0.955810547	890.94	-177.555201	-1.221009346	-94.28389898	-85
13703	0	0.008361816	-0.018005371	-0.381164551	0.999999046	-1.14E-05	3.15E-05	0.000156403	0.20904541	-0.450134277	-9.52911377	-0.000572205	0.001573563	0.007820129	-0.028320313	-0.648681641	0.953125	890.96	-177.5539011	-1.228578526	-94.29540996	-85
13704	0	0.00917244	-0.018488884	-0.379882813	0.999999046	7.34E-05	4.39E-05	0.000102997	0.229310989	-0.462222099	-9.497070313	0.003671646	0.002193451	0.005149841	-0.026123047	-0.64453125	0.952880859	891	-177.5430196	-1.237877585	-94.29885554	-86
13705	0	0.008422852	-0.018615723	-0.382446289	0.999999046	5.34E-05	5.05E-05	0.000167847	0.210571289	-0.465393066	-9.561157227	0.002670288	0.002527237	0.008392334	-0.026123047	-0.646728516	0.955810547	891.08	-177.5342945	-1.247624048	-94.3093605	-85
13706	0	0.00894165	-0.018842697	-0.380308151	0.999999046	2.48E-05	1.14E-05	0.000183105	0.22354126	-0.471067429	-9.507703781	0.001239777	0.000572205	0.009155273	-0.026123047	-0.646728516	0.955810547	891.02	-177.5288238	-1.252844828	-94.32125491	-85
13707	0	0.009094238	-0.018859863	-0.380981445	0.999999046	-1.53E-05	-7.15E-05	7.63E-06	0.227355957	-0.471496582	-9.524536133	-0.000762939	-0.003576279	0.00038147	-0.028564453	-0.646484375	0.955810547	890.96	-177.5284152	-1.24946285	-94.31510704	-86
13708	0	0.009037971	-0.019275665	-0.380251884	0.999999046	-4.86E-05	-2.86E-05	6.10E-05	0.225949287	-0.481891632	-9.506297112	-0.00243187	-0.001430511	0.003051758	-0.026123047	-0.646728516	0.955810547	890.9	-177.5316745	-1.250764859	-94.31284961	-86
13709	0	0.009094238	-0.017700195	-0.380737305	0.999999046	0.000148773	9.25E-05	-7.63E-06	0.227355957	-0.442504883	-9.518432617	0.00743866	0.00462532	-0.00038147	-0.026123047	-0.646728516	0.952880859	890.84	-177.5125433	-1.26630595	-94.30329826	-86
13710	0	0.008553505	-0.019461632	-0.380303383	0.999999046	0.000162125	-9.54E-05	0.000102997	0.213837624	-0.486540794	-9.507584572	0.008106232	-0.004768372	0.005149841	-0.028564453	-0.646484375	0.955810547	890.86	-177.4916198	-1.259784846	-94.30790673	-86
13711	0	0.008544922	-0.018249512	-0.379211426	0.999999046	-0.000164032	-4.86E-05	0.000102997	0.213623047	-0.456237793	-9.480285645	-0.008201599	-0.00243187	0.005149841	-0.028564453	-0.646484375	0.955810547	890.9	-177.5081182	-1.258615301	-94.312608	-85
13712	0	0.008686066	-0.018066406	-0.379524231	0.999999046	-9.06E-05	1.91E-06	0.000156403	0.217151642	-0.451660156	-9.488105774	-0.004529953	9.54E-05	0.007820129	-0.026123047	-0.646728516	0.950195313	890.94	-177.516106	-1.262979935	-94.32102118	-86
13713	0	0.008789063	-0.018188477	-0.380859375	0.999999046	0.000213623	-2.96E-05	0.000106812	0.219726563	-0.454711914	-9.521484375	0.010681152	-0.001478195	0.005340576	-0.028564453	-0.646484375	0.955810547	890.94	-177.4894184	-1.263995207	-94.32596032	-86
13714	0	0.008517265	-0.01884079	-0.379570961	0.999999046	6.68E-05	-7.63E-05	0.0001297	0.212931633	-0.471019745	-9.489274025	0.00333786	-0.003814697	0.006484985	-0.028564453	-0.646484375	0.953125	890.9	-177.4795275	-1.259541776	-94.33323296	-85
13715	0	0.009155273	-0.019287109	-0.380554199	0.999999046	-7.63E-05	2.00E-05	9.54E-05	0.228881836	-0.482177734	-9.51385498	-0.003814697	0.001001358	0.004768372	-0.028564453	-0.646484375	0.958740234	890.86	-177.486105	-1.266319249	-94.33665015	-85
13716	0	0.008911133	-0.017456055	-0.379577637	0.999999046	0.000142097	-8.77E-05	8.39E-05	0.22277832	-0.436401367	-9.489440918	0.007104874	-0.004386902	0.004196167	-0.028564453	-0.646484375	0.955810547	890.94	-177.4677885	-1.260833671	-94.33827734	-85
13717	0	0.008922577	-0.019833565	-0.380066872	0.999998093	5.44E-05	9.35E-05	2.57E-05	0.223064423	-0.495839119	-9.501671791	0.002717972	0.004673004	0.00128746	-0.028564453	-0.644287109	0.958496094	890.9	-177.4596267	-1.276404411	-94.33390384	-85
13718	0	0.00867939	-0.018346786	-0.380610466	0.999999046	-0.000259399	3.05E-05	0.000109673	0.216984749	-0.458669662	-9.51526165	-0.012969971	0.001525879	0.005483627	-0.028564453	-0.646484375	0.955810547	890.86	-177.4872656	-1.284345195	-94.33849307	-85
13719	0	0.008789063	-0.018554688	-0.379638672	0.999999046	0.000286102	-1.81E-05	5.34E-05	0.219726563	-0.463867188	-9.490966797	0.014305115	-0.000905991	0.002670288	-0.028564453	-0.646484375	0.953125	890.96	-177.4525751	-1.287005761	-94.33636253	-85
13720	0	0.009870529	-0.017859459	-0.381948471	0.999999046	0.000187874	4.20E-05	0.000124931	0.246763229	-0.446486473	-9.548711777	0.009393692	0.002098084	0.006246567	-0.028564453	-0.646484375	0.955810547	891.02	-177.4290305	-1.296234157	-94.34230902	-85
13721	0	0.008666992	-0.019165039	-0.380187988	0.999999046	0.000125885	0.000191689	6.87E-05	0.216674805	-0.479125977	-9.504699707	0.006294251	0.009584427	0.003433228	-0.028564453	-0.64453125	0.952880859	891	-177.4127332	-1.322881053	-94.34222972	-85
13722	0	0.009419441	-0.019385338	-0.382072449	0.999999046	7.63E-06	8.96E-05	2.86E-06	0.235486031	-0.484633446	-9.551811218	0.00038147	0.004482269	0.000143051	-0.028564453	-0.646484375	0.953125	891	-177.4101879	-1.338206231	-94.3337305	-84
13723	0	0.009399414	-0.019104004	-0.380249023	0.999999046	-7.63E-06	8.49E-05	0.00012207	0.234985352	-0.477600098	-9.506225586	-0.00038147	0.004243851	0.006103516	-0.028564453	-0.646484375	0.958740234	890.96	-177.4090974	-1.352383115	-94.33828816	-84
13724	0	0.00860405	-0.019406319	-0.380980492	0.999999046	6.39E-05	1.91E-06	8.77E-05	0.215101242	-0.485157967	-9.524512291	0.003194809	9.54E-05	0.004386902	-0.028808594	-0.644287109	0.961425781	891	-177.3999264	-1.35720593	-94.33873833	-84
13725	0	0.008972168	-0.01940918	-0.380737305	0.999999046	-0.000164032	4.77E-06	0.000114441	0.224304199	-0.485229492	-9.518432617	-0.008201599	0.000238419	0.005722046	-0.028564453	-0.646484375	0.953125	890.94	-177.4168142	-1.362204133	-94.34190367	-84
13726	0	0.009214401	-0.018432617	-0.380011559	0.999999046	1.91E-05	8.96E-05	0.000144958	0.230360031	-0.46081543	-9.500288963	0.000953674	0.004482269	0.007247925	-0.026123047	-0.64453125	0.949951172	890.9	-177.4126687	-1.376762947	-94.34568946	-84
13727	0	0.009399414	-0.019958496	-0.378845215	0.999999046	8.77E-05	6.58E-05	8.77E-05	0.234985352	-0.498962402	-9.471130371	0.004386902	0.003290176	0.004386902	-0.028564453	-0.644287109	0.958496094	890.9	-177.4008004	-1.388887039	-94.34558181	-84
13728	0	0.009628296	-0.019355774	-0.380916595	0.999999046	-0.000203133	-5.72E-05	6.01E-05	0.240707397	-0.483894348	-9.522914886	-0.010156632	-0.002861023	0.003004074	-0.031005859	-0.646484375	0.958984375	890.94	-177.4223837	-1.387075822	-94.34481984	-83
13729	0	0.009765625	-0.017700195	-0.38067627	0.999999046	0.000171661	7.34E-05	8.39E-05	0.244140625	-0.442504883	-9.516906738	0.008583069	0.003671646	0.004196167	-0.028564453	-0.646484375	0.953125	890.96	-177.4010147	-1.400118826	-94.34391659	-83
13730	0	0.009511948	-0.019663811	-0.379264832	0.999999046	0.000188828	5.72E-06	4.20E-05	0.237798691	-0.491595268	-9.481620789	0.009441376	0.000286102	0.002098084	-0.028564453	-0.646484375	0.953125	890.94	-177.3777979	-1.405628731	-94.3377996	-83
13731	0	0.009277344	-0.018859863	-0.381164551	0.999999046	-0.000343323	-3.34E-05	6.48E-05	0.231933594	-0.471496582	-9.52911377	-0.017166138	-0.00166893	0.003242493	-0.028320313	-0.648681641	0.953125	890.86	-177.4155473	-1.406528289	-94.33363065	-82
13732	0	0.009858131	-0.018966675	-0.380690575	0.999999046	-0.000393867	-1.14E-05	3.05E-05	0.246453285	-0.47416687	-9.517264366	-0.019693375	-0.000572205	0.001525879	-0.030761719	-0.646484375	0.953125	890.94	-177.4592238	-1.410124249	-94.32934944	-82
13733	0	0.009643555	-0.01763916	-0.380615234	0.999999046	-6.48E-05	-8.30E-05	6.10E-05	0.241088867	-0.440979004	-9.515380859	-0.003242493	-0.004148483	0.003051758	-0.028564453	-0.646484375	0.953125	890.94	-177.4651876	-1.405382245	-94.3250468	-82
13734	0	0.009698868	-0.018873215	-0.381291389	0.999999046	-9.16E-05	4.58E-05	6.10E-05	0.242471695	-0.471830368	-9.532284737	-0.004577637	0.002288818	0.003051758	-0.030761719	-0.648681641	0.958984375	891.06	-177.4742176	-1.415381358	-94.32395011	-82
13735	0	0.010620117	-0.018005371	-0.380187988	0.999999046	-0.000419617	1.24E-05	3.05E-05	0.26550293	-0.450134277	-9.504699707	-0.020980836	0.000619888	0.001525879	-0.030761719	-0.648681641	0.956298828	890.96	-177.5209832	-1.421762549	-94.31915012	-81
13736	0	0.010016441	-0.017626762	-0.380142212	0.999999046	2.86E-06	3.62E-05	8.39E-05	0.250411034	-0.44066906	-9.503555298	0.000143051	0.001811981	0.004196167	-0.028320313	-0.648681641	0.953125	890.94	-177.5192207	-1.43062872	-94.31667874	-82
13737	0	0.00994873	-0.018066406	-0.380432129	0.999999046	0.000411987	-0.000174522	8.77E-05	0.248718262	-0.451660156	-9.510803223	0.020599366	-0.00872612	0.004386902	-0.030761719	-0.646484375	0.956054688	890.9	-177.4706376	-1.415348663	-94.31773666	-82
13738	0	0.008895874	-0.019236565	-0.380969048	0.999999046	-0.000125885	-0.000114441	0.0001297	0.222396851	-0.480914116	-9.524226189	-0.006294251	-0.005722046	0.006484985	-0.030761719	-0.646484375	0.956054688	891	-177.4835529	-1.4066932	-94.32386902	-82
13739	0	0.009277344	-0.01739502	-0.38079834	0.999999046	-0.000190735	2.77E-05	1.91E-05	0.231933594	-0.434875488	-9.519958496	-0.009536743	0.001382828	0.000953674	-0.028564453	-0.646484375	0.955810547	890.96	-177.5042582	-1.414849878	-94.31440171	-83
13740	0	0.009479523	-0.019143105	-0.380256653	0.999999046	0.000235558	-6.29E-05	6.39E-05	0.236988068	-0.478577614	-9.506416321	0.011777878	-0.003147125	0.003194809	-0.030761719	-0.648681641	0.956298828	890.94	-177.4759884	-1.412397714	-94.31292537	-83
13741	0	0.00994873	-0.018127441	-0.379760742	0.999999046	1.14E-05	-2.57E-05	3.43E-05	0.248718262	-0.453186035	-9.494018555	0.000572205	-0.00128746	0.001716614	-0.028564453	-0.646484375	0.953125	891.02	-177.4735065	-1.414374134	-94.3049712	-84
13742	0	0.010293961	-0.018563271	-0.380858421	0.999998093	0.000287056	-7.34E-05	0.000117302	0.257349014	-0.464081764	-9.521460533	0.014352799	-0.003671646	0.005865097	-0.030761719	-0.646484375	0.956054688	890.9	-177.4392445	-1.410498515	-94.30968595	-84
13743	0	0.010009766	-0.018859863	-0.379577637	0.999999046	7.63E-06	-9.44E-05	0.000167847	0.250244141	-0.471496582	-9.489440918	0.00038147	-0.004720688	0.008392334	-0.028320313	-0.648925781	0.950439453	891	-177.4368603	-1.403985437	-94.31586812	-84
13744	0	0.010113716	-0.018442154	-0.380983353	0.999999046	6.77E-05	-0.00015831	5.25E-05	0.252842903	-0.461053848	-9.524583817	0.003385544	-0.007915497	0.002622604	-0.028564453	-0.646484375	0.953125	891	-177.4279644	-1.390772194	-94.30946587	-85
13745	0	0.009094238	-0.018554688	-0.381408691	0.999999046	0.000213623	4.77E-06	8.39E-05	0.227355957	-0.463867188	-9.535217285	0.010681152	0.000238419	0.004196167	-0.030761719	-0.648681641	0.953369141	890.94	-177.4022854	-1.396037675	-94.31074133	-85
13746	0	0.009520531	-0.01926899	-0.380729675	0.999999046	0.000127792	-4.96E-05	7.25E-05	0.238013268	-0.481724739	-9.518241882	0.006389618	-0.002479553	0.003623962	-0.026123047	-0.646728516	0.952880859	891	-177.3864575	-1.395146936	-94.30254796	-85
13747	0	0.010131836	-0.018188477	-0.380371094	0.999999046	0.000133514	-0.000124931	3.81E-05	0.253295898	-0.454711914	-9.509277344	0.00667572	-0.006246567	0.001907349	-0.030761719	-0.646484375	0.950439453	890.96	-177.3701729	-1.385829937	-94.29869043	-85
13748	0	0.010094643	-0.019207001	-0.380491257	0.999999046	0.00017643	-4.58E-05	8.68E-05	0.252366066	-0.480175018	-9.512281418	0.008821487	-0.002288818	0.004339218	-0.031005859	-0.644287109	0.953125	890.9	-177.3488426	-1.385347479	-94.30111384	-85
13749	0	0.010131836	-0.019165039	-0.380737305	0.999999046	0.000415802	4.77E-06	8.77E-05	0.253295898	-0.479125977	-9.518432617	0.020790101	0.000238419	0.004386902	-0.028564453	-0.646484375	0.955810547	890.96	-177.3000797	-1.390682033	-94.29869495	-85
13750	0	0.00915432	-0.019543648	-0.379562378	0.999999046	7.82E-05	-7.63E-05	8.39E-05	0.228857994	-0.488591194	-9.489059448	0.003910065	-0.003814697	0.004196167	-0.026367188	-0.64453125	0.955566406	890.94	-177.290031	-1.386741185	-94.29169391	-85
13751	0	0.009338379	-0.019165039	-0.381713867	0.999999046	6.48E-05	-2.86E-06	5.34E-05	0.233459473	-0.479125977	-9.54284668	0.003242493	-0.000143051	0.002670288	-0.031005859	-0.646484375	0.958984375	890.94	-177.2816611	-1.391349357	-94.2896881	-85
13752	0	0.009515762	-0.019337654	-0.381101608	0.999999046	-0.000124931	6.87E-05	0.000113487	0.237894058	-0.483441353	-9.527540207	-0.006246567	0.003433228	0.005674362	-0.028564453	-0.644287109	0.955810547	890.94	-177.2948834	-1.403821679	-94.29016488	-85
13753	0	0.009521484	-0.017578125	-0.380004883	0.999999046	0.000389099	6.96E-05	0.000167847	0.238037109	-0.439453125	-9.50012207	0.019454957	0.003480911	0.008392334	-0.031005859	-0.644287109	0.958740234	891.08	-177.249179	-1.416094393	-94.30058268	-85
13754	0	0.009566307	-0.021111488	-0.378828049	0.999999046	0.000299454	5.72E-06	3.43E-05	0.239157677	-0.527787209	-9.470701218	0.014972687	0.000286102	0.001716614	-0.033447266	-0.642089844	0.958740234	891.02	-177.2140963	-1.421771169	-94.29999436	-85
13755	0	0.010070801	-0.019104004	-0.379943848	0.999999046	-0.000137329	-3.72E-05	-3.81E-06	0.25177002	-0.477600098	-9.498596191	-0.006866455	-0.001859665	-0.000190735	-0.031005859	-0.644287109	0.958740234	890.94	-177.2292294	-1.422772633	-94.28968106	-85
13756	0	0.009613991	-0.019976616	-0.380011559	0.999999046	7.72E-05	-7.82E-05	0.000113487	0.24034977	-0.499415398	-9.500288963	0.003862381	-0.003910065	0.005674362	-0.031005859	-0.642089844	0.955810547	890.86	-177.2194633	-1.4184213	-94.29286461	-85
13757	0	0.009399414	-0.020385742	-0.380065918	0.999999046	9.16E-05	-6.68E-06	3.81E-06	0.234985352	-0.509643555	-9.501647949	0.004577637	-0.000333786	0.000190735	-0.028808594	-0.642089844	0.955566406	891	-177.2083426	-1.422855488	-94.27941349	-85
13758	0	0.008965492	-0.01899147	-0.382199287	0.999999046	2.48E-05	2.86E-05	-2.77E-05	0.224137306	-0.474786758	-9.554982185	0.001239777	0.001430511	-0.001382828	-0.031005859	-0.642089844	0.958496094	890.9	-177.2050493	-1.431457773	-94.26674661	-85
13759	0	0.008972168	-0.019287109	-0.381774902	0.999999046	0.000160217	-6.68E-06	0.000102997	0.224304199	-0.482177734	-9.544372559	0.008010864	-0.000333786	0.005149841	-0.031005859	-0.642089844	0.955810547	891	-177.1859298	-1.435247919	-94.26858771	-86
13760	0	0.009877205	-0.019960403	-0.379144669	1	-5.72E-06	-1.05E-05	5.34E-05	0.246930122	-0.499010086	-9.478616714	-0.000286102	-0.000524521	0.002670288	-0.028808594	-0.642089844	0.958496094	890.94	-177.1859774	-1.438891596	-94.25985496	-86
13761	0	0.009216309	-0.019287109	-0.380065918	0.999999046	0.000198364	-8.68E-05	0.000160217	0.230407715	-0.482177734	-9.501647949	0.009918213	-0.004339218	0.008010864	-0.028564453	-0.644287109	0.958496094	891	-177.1624006	-1.433170962	-94.26202815	-86
13762	0	0.008958817	-0.021393776	-0.379143715	0.999999046	0.000301361	1.34E-05	5.63E-05	0.223970413	-0.534844398	-9.478592873	0.015068054	0.000667572	0.002813339	-0.028808594	-0.639892578	0.958251953	890.94	-177.1272665	-1.439456591	-94.25378007	-86
13763	0	0.008911133	-0.019714355	-0.381652832	0.999999046	-0.000385284	-4.86E-05	6.87E-05	0.22277832	-0.492858887	-9.541320801	-0.019264222	-0.00243187	0.003433228	-0.028808594	-0.642089844	0.958496094	891.06	-177.1708513	-1.438531304	-94.24637939	-86
13764	0	0.009175301	-0.020031929	-0.381792068	0.999999046	0.000222206	-1.34E-05	0.000151634	0.229382515	-0.500798225	-9.544801712	0.011110306	-0.000667572	0.007581711	-0.028564453	-0.64453125	0.952880859	890.96	-177.1446062	-1.441143076	-94.2477698	-86
13765	0	0.009399414	-0.019836426	-0.379089355	0.999999046	2.29E-05	-4.48E-05	0.00019455	0.234985352	-0.495910645	-9.477233887	0.001144409	-0.002241135	0.009727478	-0.031005859	-0.642089844	0.955810547	891	-177.14114	-1.439881175	-94.25900551	-86
13766	0	0.009112358	-0.020528793	-0.380494118	0.999999046	6.48E-05	2.86E-05	6.39E-05	0.227808952	-0.513219833	-9.512352943	0.003242493	0.001430511	0.003194809	-0.028808594	-0.644287109	0.961425781	890.96	-177.133222	-1.447744728	-94.24982716	-86
13767	0	0.009216309	-0.019958496	-0.38067627	0.999999046	-0.000175476	-2.86E-06	6.10E-05	0.230407715	-0.498962402	-9.516906738	-0.008773804	-0.000143051	0.003051758	-0.028808594	-0.642089844	0.955566406	891	-177.1529005	-1.451992701	-94.24078048	-86