Counter	Temperature	VelInc_X	VelInc_Y	VelInc_Z	OriInc_w	OriInc_x	OriInc_y	OriInc_z	Acc_X	Acc_Y	Acc_Z	Gyr_X	Gyr_Y	Gyr_Z	Mag_X	Mag_Y	Mag_Z	Pressure	Roll	Pitch	Yaw	RSSI
14028	0	0.362339973	-0.140989304	0.055173874	0.999887466	0.012804031	-0.007174492	-0.003015518	9.058499336	-3.52473259	1.379346848	0.640225526	-0.358738018	-0.150781552	-0.767333984	-0.108154297	0.823730469	892.6	-74.28893427	-66.9646324	-123.5646461	-70
14029	0	0.354980469	-0.12310791	0.053771973	0.999945641	0.008472443	-0.00562191	-0.00194931	8.874511719	-3.077697754	1.344299316	0.4236297	-0.281100527	-0.097467256	-0.754150391	-0.095458984	0.841796875	892.6	-74.60896469	-67.35755991	-122.1607974	-69
14030	0	0.357953072	-0.1196661	0.058697701	0.999995232	-0.002344131	-0.001312256	-0.001181602	8.94882679	-2.991652489	1.467442513	-0.117206742	-0.065612887	-0.059080209	-0.745117188	-0.089111328	0.849365234	892.58	-75.09818002	-67.53362743	-121.9171907	-69
14031	0	0.363708496	-0.139099121	0.066223145	0.999965668	-0.008158684	0.001102448	-0.000465393	9.092712402	-3.477478027	1.655578613	-0.407938812	0.055123	-0.023269917	-0.744873047	-0.097900391	0.847167969	892.64	-75.65798011	-67.55943946	-122.3178892	-69
14032	0	0.375608444	-0.147892952	0.062018394	0.999974251	-0.006875038	0.001491547	0.000492096	9.390211105	-3.697323799	1.550459862	-0.343754757	0.07457795	0.024605001	-0.744140625	-0.113037109	0.845703125	892.74	-76.02994258	-67.46889125	-122.7629613	-69
14033	0	0.387634277	-0.14831543	0.058898926	0.999990463	-0.003771782	0.001243591	0.001331329	9.690856934	-3.707885742	1.472473145	-0.188589648	0.062179747	0.066566662	-0.750488281	-0.123779297	0.843994141	892.64	-76.16780432	-67.29259627	-123.0770717	-69
14034	0	0.400285721	-0.148701668	0.05535984	0.999998093	-0.000460625	0.001065254	0.0008955	10.00714302	-3.717541695	1.38399601	-0.023031243	0.05326273	0.044775025	-0.752929688	-0.125976563	0.844238281	892.68	-75.94580831	-67.17002949	-123.3698352	-69
14035	0	0.38470459	-0.141540527	0.050109863	0.999997139	0.002017975	0.000580788	7.63E-05	9.617614746	-3.538513184	1.252746582	0.100898817	0.029039404	0.0038147	-0.752929688	-0.123779297	0.843994141	892.68	-75.51428664	-67.1520822	-123.5815636	-69
14036	0	0.3602705	-0.134858131	0.051865578	0.999992371	0.003675461	-0.000884056	0.000331879	9.006762505	-3.371453285	1.296639442	0.183773482	-0.044202911	0.016593973	-0.753173828	-0.119384766	0.84375	892.74	-75.29502818	-67.14808275	-123.3567791	-69
14037	0	0.358032227	-0.136230469	0.053588867	0.999973297	0.006936073	-0.002017975	-0.000408173	8.950805664	-3.405761719	1.33972168	0.346806691	-0.100899623	-0.020408808	-0.753417969	-0.110595703	0.845947266	892.68	-74.94848459	-67.26024396	-122.8647086	-70
14038	0	0.368271828	-0.127721786	0.046312332	0.999954224	0.009205818	-0.00159359	-0.001922607	9.206795692	-3.193044662	1.157808304	0.460297889	-0.079680697	-0.096131829	-0.749511719	-0.099853516	0.850585938	892.6	-74.11913097	-67.52974242	-122.61432	-70
14039	0	0.370422363	-0.114013672	0.04107666	0.999987602	0.004623413	7.34E-05	-0.001754761	9.260559082	-2.850341797	1.026916504	0.231171597	0.003671661	-0.087738395	-0.747558594	-0.088867188	0.849609375	892.64	-73.37603055	-67.7302535	-122.8383381	-70
14040	0	0.370475769	-0.120404243	0.040297508	0.999995232	-0.002287865	0.001493454	-0.000938416	9.261894226	-3.010106087	1.007437706	-0.114393393	0.074672803	-0.046920842	-0.747558594	-0.086914063	0.846435547	892.68	-73.10458658	-67.79459208	-123.4079207	-71
14041	0	0.367675781	-0.133605957	0.041137695	0.999994278	-0.002646446	0.001369476	-0.000835419	9.191894531	-3.340148926	1.028442383	-0.132322523	0.068473925	-0.041771002	-0.751953125	-0.093261719	0.850097656	892.6	-72.91474453	-67.85120925	-123.9341079	-71
14042	0	0.36577034	-0.133705139	0.041917801	0.999999046	-0.000331879	0.000394821	-0.00088501	9.144258499	-3.342628479	1.047945023	-0.016593936	0.019741062	-0.044250496	-0.754150391	-0.097412109	0.844970703	892.68	-72.71689595	-67.94582319	-124.18325	-71
14043	0	0.369384766	-0.130187988	0.045715332	0.999999046	0.00094986	-0.000678062	-0.000320435	9.234619141	-3.254699707	1.142883301	0.047492993	-0.03390313	-0.016021732	-0.75390625	-0.09765625	0.842041016	892.68	-72.70897174	-68.01546713	-124.0692143	-71
14044	0	0.371178627	-0.127967834	0.047590256	0.999999046	0.000496864	-0.000541687	0.000541687	9.279465675	-3.199195862	1.189756393	0.024843219	-0.027084354	0.027084354	-0.754150391	-0.097412109	0.84765625	892.6	-72.7887961	-67.98662986	-123.9163487	-71
14045	0	0.371032715	-0.12890625	0.050964355	0.999999046	0.000362396	-4.10E-05	0.000686646	9.275817871	-3.22265625	1.274108887	0.018119814	-0.0020504	0.034332279	-0.751953125	-0.095458984	0.847412109	892.58	-72.76011084	-67.92533383	-123.8968832	-71
14046	0	0.370432854	-0.128890038	0.051758766	0.999999046	0.001207352	-5.15E-05	0.000288963	9.260821342	-3.222250938	1.293969154	0.0603676	-0.002574921	0.01444817	-0.751953125	-0.091064453	0.844238281	892.52	-72.60375101	-67.90832939	-123.9105592	-72
14047	0	0.368225098	-0.127563477	0.051147461	0.999999046	0.000873566	0.000157356	0.000202179	9.205627441	-3.189086914	1.278686523	0.04367829	0.007867814	0.010108949	-0.751953125	-0.091064453	0.844238281	892.6	-72.42184067	-67.89404478	-123.9931622	-72
14048	0	0.368398666	-0.131282806	0.052956581	0.999998093	0.001722336	-0.000184059	-9.92E-05	9.20996666	-3.28207016	1.323914528	0.086116834	-0.009202962	-0.004959109	-0.751953125	-0.091064453	0.847167969	892.64	-72.20839117	-67.92469244	-124.0048269	-73
14049	0	0.366027832	-0.127807617	0.052124023	0.999996185	0.002625465	-0.000225067	-9.92E-05	9.150695801	-3.19519043	1.303100586	0.131273422	-0.01125337	-0.004959112	-0.752197266	-0.084472656	0.846435547	892.54	-71.9018294	-67.95714847	-124.0049772	-72
14050	0	0.366257668	-0.123753548	0.049618721	0.999999046	0.001209259	0.000274658	0.000387192	9.156441689	-3.093838692	1.240468025	0.060462969	0.013732914	0.019359594	-0.75	-0.082519531	0.843505859	892.58	-71.6659203	-67.9193342	-124.1040767	-72
14051	0	0.367004395	-0.12713623	0.049377441	0.999999046	-0.000259399	0.001072884	0.000537872	9.175109863	-3.178405762	1.234436035	-0.012969974	0.053644194	0.026893622	-0.752441406	-0.080078125	0.849121094	892.64	-71.39917991	-67.8363943	-124.4177492	-72
14052	0	0.366158485	-0.127249718	0.046068192	0.999998093	-0.001119614	0.001126289	0.000979424	9.153962135	-3.181242943	1.151704788	-0.055980715	0.056314501	0.048971205	-0.754882813	-0.080078125	0.843505859	892.58	-71.25938784	-67.70354606	-124.7014562	-72
14053	0	0.368225098	-0.127441406	0.046325684	0.999997139	-0.001583099	0.000599861	0.001415253	9.205627441	-3.186035156	1.15814209	-0.079155032	0.029993082	0.070762692	-0.757080078	-0.080078125	0.837890625	892.58	-71.35304752	-67.54313885	-124.7907329	-72
14054	0	0.365864754	-0.124838829	0.04569912	0.999997139	-0.001810074	0.000301361	0.001006126	9.146618843	-3.120970726	1.142477989	-0.090503759	0.015068065	0.050306357	-0.756835938	-0.084228516	0.843994141	892.6	-71.51513944	-67.43871809	-124.8341949	-72
14055	0	0.365966797	-0.127929688	0.046875	0.999998093	-0.001669884	3.05E-05	0.000499725	9.149169922	-3.198242188	1.171875	-0.083494229	0.00152588	0.02498628	-0.756835938	-0.084472656	0.838134766	892.58	-71.68777799	-67.39965213	-124.8490041	-72
14056	0	0.367483139	-0.128218651	0.04921627	0.999999046	-0.001191139	-0.000530243	0.000342369	9.187078476	-3.20546627	1.230406761	-0.059556979	-0.026512154	0.017118459	-0.759277344	-0.086425781	0.844238281	892.64	-71.93844312	-67.39823716	-124.7198431	-72
14057	0	0.367675781	-0.127807617	0.04876709	0.999998093	-0.001482964	-0.000747681	0.000171661	9.191894531	-3.19519043	1.219177246	-0.074148213	-0.037384051	0.008583073	-0.756835938	-0.088623047	0.844238281	892.58	-72.26519059	-67.42331247	-124.5445738	-72
14058	0	0.367463112	-0.130344391	0.050821304	0.999998093	-0.001439095	-0.000594139	-0.000156403	9.186577797	-3.258609772	1.270532608	-0.071954757	-0.029706967	-0.007820133	-0.754150391	-0.093261719	0.841552734	892.6	-72.51953471	-67.47885383	-124.4425526	-71
14059	0	0.368164063	-0.131591797	0.051330566	0.999998093	-0.001643181	-0.000484467	-7.63E-06	9.204101563	-3.289794922	1.28326416	-0.082159083	-0.024223339	-0.00038147	-0.754150391	-0.093261719	0.841552734	892.58	-72.78105122	-67.51441355	-124.3577367	-71
14060	0	0.368950844	-0.134449959	0.053765297	0.999998093	-0.001346588	-0.000527382	6.39E-05	9.223771095	-3.36124897	1.344132423	-0.06732943	-0.026369104	0.00319481	-0.751708984	-0.09765625	0.844726563	892.68	-73.02566671	-67.5434961	-124.2544489	-70
14061	0	0.369812012	-0.133178711	0.052001953	0.999999046	-0.00087738	-0.00039196	7.25E-05	9.245300293	-3.329467773	1.300048828	-0.043869025	-0.01959801	0.003623963	-0.751708984	-0.099853516	0.844970703	892.68	-73.18114912	-67.56713925	-124.1894565	-70
14062	0	0.368857384	-0.131493568	0.052152634	0.999999046	-0.000904083	-0.000188828	0.000175476	9.221434593	-3.287339211	1.303815842	-0.045204169	-0.009441377	0.008773805	-0.751464844	-0.102050781	0.842285156	892.64	-73.29352304	-67.57290588	-124.1744346	-70
14063	0	0.369689941	-0.131225586	0.051513672	0.999999046	-0.000652313	0.000145912	-0.000328064	9.242248535	-3.280639648	1.287841797	-0.032615665	0.007295609	-0.0164032	-0.749267578	-0.102050781	0.850585938	892.68	-73.247088	-67.62310757	-124.2991485	-70
14064	0	0.369823456	-0.133672714	0.049675941	0.999999046	-0.000468254	7.25E-05	-0.000721931	9.245586395	-3.341817856	1.241898537	-0.023412707	0.003623963	-0.036096577	-0.751464844	-0.104248047	0.848144531	892.58	-73.16668401	-67.71901618	-124.4381588	-70
14065	0	0.369140625	-0.133972168	0.048217773	0.999999046	0.000293732	6.58E-05	-0.00043869	9.228515625	-3.349304199	1.205444336	0.014686585	0.003290177	-0.02193451	-0.749023438	-0.106445313	0.842529297	892.58	-73.02291828	-67.78407736	-124.5515935	-70
14066	0	0.367722511	-0.129961014	0.046205521	0.999999046	-0.000143051	0.000185013	-2.77E-05	9.193062782	-3.249025345	1.155138016	-0.007152557	0.009250641	-0.001382828	-0.749023438	-0.106445313	0.848144531	892.58	-72.93065827	-67.80025993	-124.6629991	-71
14067	0	0.369750977	-0.131530762	0.046508789	0.999999046	-0.000675201	0.000329018	4.96E-05	9.243774414	-3.288269043	1.162719727	-0.033760074	0.016450884	0.002479553	-0.751464844	-0.108398438	0.851318359	892.6	-72.86724952	-67.80325885	-124.8092308	-71
14068	0	0.369035721	-0.132790565	0.046326637	0.999999046	-0.000874519	0.000432968	0.000133514	9.225893021	-3.319764137	1.158165932	-0.043725974	0.02164841	0.006675721	-0.751220703	-0.108642578	0.842773438	892.68	-72.80607786	-67.79359675	-124.9780227	-71
14069	0	0.365722656	-0.13458252	0.048461914	0.999999046	0.000244141	-6.01E-05	0.000328064	9.143066406	-3.364562988	1.211547852	0.012207032	-0.003004074	0.016403199	-0.753417969	-0.110595703	0.845947266	892.64	-72.76530491	-67.77924945	-124.9865107	-71
14070	0	0.367411613	-0.13095665	0.045550346	0.999999046	0.001081467	-0.000391006	0.00044632	9.185290337	-3.273916245	1.138758659	0.054073347	-0.019550328	0.022315985	-0.751220703	-0.108642578	0.83984375	892.6	-72.72753211	-67.76342554	-124.8883286	-71
14071	0	0.368774414	-0.129943848	0.045166016	0.999999046	0.000225067	9.54E-07	0.000911713	9.219360352	-3.248596191	1.129150391	0.011253359	4.77E-05	0.045585639	-0.751464844	-0.106445313	0.845458984	892.64	-72.72212513	-67.68364824	-124.8607587	-71
14072	0	0.369695663	-0.130964279	0.046322823	0.999999046	-0.000113487	0.000167847	0.001055717	9.242391586	-3.274106979	1.158070564	-0.005674363	0.008392336	0.052785884	-0.751464844	-0.104248047	0.845214844	892.7	-72.72326279	-67.58268856	-124.8680581	-71
14073	0	0.368469238	-0.130249023	0.045410156	0.999999046	9.92E-05	-0.000285149	0.001247406	9.211730957	-3.256225586	1.135253906	0.004959108	-0.014257435	0.062370317	-0.751464844	-0.102050781	0.842285156	892.68	-72.83583499	-67.4764239	-124.7287037	-71
14074	0	0.367506981	-0.127800941	0.046994209	0.999999046	0.000398636	-0.000398636	0.000983238	9.187674522	-3.195023537	1.174855232	0.019931797	-0.019931797	0.049161922	-0.751464844	-0.102050781	0.844970703	892.64	-72.92163077	-67.40323897	-124.5812203	-71
14075	0	0.368103027	-0.12701416	0.048583984	0.999999046	2.67E-05	-0.000266075	0.000289917	9.202575684	-3.175354004	1.214599609	0.001335144	-0.013303757	0.01449585	-0.751464844	-0.102050781	0.844970703	892.6	-72.95852384	-67.40193931	-124.5327625	-71
14076	0	0.368481636	-0.128568649	0.049491882	0.999999046	-0.000222206	3.43E-05	-0.000148773	9.212040901	-3.214216232	1.237297058	-0.011110306	0.001716614	-0.00743866	-0.749267578	-0.099853516	0.842041016	892.64	-72.9090636	-67.43894548	-124.6082992	-71
14077	0	0.37121582	-0.131958008	0.050109863	0.999999046	-0.000244141	1.62E-05	-0.000495911	9.280395508	-3.298950195	1.252746582	-0.012207032	0.000810623	-0.024795533	-0.751708984	-0.099853516	0.84765625	892.64	-72.83812341	-67.51476128	-124.7095524	-71
14078	0	0.366951942	-0.133511543	0.050971031	0.999999046	3.43E-05	-0.000183105	-0.000306129	9.173798561	-3.337788582	1.27427578	0.001716614	-0.009155274	-0.015306473	-0.751464844	-0.104248047	0.848144531	892.7	-72.80289384	-67.57653228	-124.7382244	-72
14079	0	0.366760254	-0.132324219	0.04888916	0.999999046	-4.58E-05	0.00017643	-0.000106812	9.169006348	-3.308105469	1.222229004	-0.002288818	0.008821487	-0.005340576	-0.749267578	-0.102050781	0.847900391	892.64	-72.69759846	-67.60433972	-124.8520631	-72
14080	0	0.367014885	-0.132922173	0.04961586	0.999999046	-0.000201225	0.000444412	-0.000302315	9.175372124	-3.323054314	1.2403965	-0.010061265	0.022220613	-0.015115739	-0.749267578	-0.104248047	0.847900391	892.68	-72.5222802	-67.64427023	-125.0611073	-72
14081	0	0.363464355	-0.134399414	0.047546387	0.999999046	-0.00012207	0.000611305	-0.000469208	9.086608887	-3.359985352	1.188659668	-0.006103516	0.030565265	-0.023460391	-0.751464844	-0.104248047	0.842529297	892.6	-72.2789631	-67.69626043	-125.3340246	-72
14082	0	0.367747307	-0.13492012	0.044910431	0.999999046	0.000112534	0.000530243	-0.000392914	9.193682671	-3.373003006	1.122760773	0.005626679	0.026512148	-0.019645692	-0.753662109	-0.106201172	0.845458984	892.68	-72.03649692	-67.74232379	-125.577016	-73
14083	0	0.365783691	-0.135192871	0.043457031	0.999999046	-8.01E-05	0.000390053	-0.000106812	9.144592285	-3.379821777	1.086425781	-0.004005432	0.01950264	-0.005340576	-0.753662109	-0.106201172	0.845458984	892.6	-71.87854602	-67.76181666	-125.7525549	-73
14084	0	0.365718842	-0.135854721	0.042193413	0.999999046	-4.29E-05	-4.77E-05	0.000170708	9.142971039	-3.396368027	1.05483532	-0.002145767	-0.002384186	0.008535385	-0.753662109	-0.108398438	0.842773438	892.68	-71.85824412	-67.76652968	-125.7754807	-73
14085	0	0.367492676	-0.135498047	0.044494629	0.999999046	-7.63E-06	-0.000273705	0.000350952	9.187316895	-3.387451172	1.112365723	-0.00038147	-0.013685227	0.017547608	-0.753662109	-0.106201172	0.848388672	892.54	-71.91075383	-67.75962624	-125.7149428	-74
14086	0	0.368153572	-0.136306763	0.044594765	0.999999046	-1.53E-05	-0.000411987	0.000545502	9.203839302	-3.407669067	1.114869118	-0.00076294	-0.020599367	0.027275088	-0.753662109	-0.106201172	0.842773438	892.6	-72.01870844	-67.73633899	-125.5962056	-73
14087	0	0.366638184	-0.137878418	0.046386719	0.999999046	4.58E-05	-0.0007658	0.000720978	9.16595459	-3.446960449	1.159667969	0.002288819	-0.038290031	0.036048896	-0.751464844	-0.106201172	0.848388672	892.58	-72.22932329	-67.70606318	-125.358836	-73
14088	0	0.368468285	-0.135842323	0.047054291	0.999998093	0.000556946	-0.001004219	0.001166344	9.211707115	-3.396058083	1.176357269	0.027847302	-0.050210975	0.05831721	-0.751464844	-0.102050781	0.844970703	892.6	-72.48204988	-67.63504113	-125.0127705	-72
14089	0	0.36932373	-0.133117676	0.048217773	0.999998093	0.0002985	-0.000705719	0.001220703	9.233093262	-3.327941895	1.205444336	0.014925008	-0.035285962	0.061035177	-0.749267578	-0.102050781	0.850585938	892.58	-72.68795211	-67.54743336	-124.749168	-72
14090	0	0.368701935	-0.133501053	0.04893589	0.999999046	-0.000282288	-0.000228882	0.000881195	9.21754837	-3.337526321	1.223397255	-0.014114382	-0.011444094	0.04405976	-0.749511719	-0.099853516	0.850585938	892.58	-72.80487964	-67.48058566	-124.653577	-72
14091	0	0.367919922	-0.133544922	0.04675293	0.999999046	-0.000244141	-0.000128746	0.000583649	9.197998047	-3.338623047	1.168823242	-0.012207032	-0.006437302	0.029182436	-0.747070313	-0.099853516	0.847412109	892.58	-72.8664469	-67.4429913	-124.6133592	-72
14092	0	0.36606884	-0.131736755	0.045922279	0.999999046	-0.000113487	-5.15E-05	0.000324249	9.151721001	-3.293418884	1.148056984	-0.005674362	-0.002574921	0.016212464	-0.749511719	-0.09765625	0.850341797	892.64	-72.87166766	-67.43137179	-124.6176806	-72
14093	0	0.369750977	-0.131835938	0.045227051	0.999999046	0.000656128	-0.000483513	-0.00056839	9.243774414	-3.295898438	1.13067627	0.032806402	-0.024175648	-0.028419499	-0.747314453	-0.09765625	0.853027344	892.64	-72.83032013	-67.53236028	-124.5770304	-71
14094	0	0.366342545	-0.131299973	0.044799805	0.999997139	0.001218796	-0.0004673	-0.001584053	9.158563614	-3.282499313	1.119995117	0.060939832	-0.023365037	-0.079202708	-0.749267578	-0.099853516	0.84765625	892.6	-72.63635557	-67.74417364	-124.6325865	-71
14095	0	0.367492676	-0.134216309	0.046936035	0.999998093	0.000767708	-0.000236511	-0.001617432	9.187316895	-3.355407715	1.173400879	0.038385412	-0.011825568	-0.080871626	-0.747070313	-0.099853516	0.847412109	892.74	-72.4271708	-67.95160652	-124.7599055	-71
14096	0	0.368989944	-0.134659767	0.047761917	0.999999046	-2.38E-05	-9.54E-06	-0.001106262	9.224748611	-3.366494179	1.194047928	-0.001192093	-0.000476837	-0.055313122	-0.747070313	-0.102050781	0.853271484	892.58	-72.28883421	-68.09508441	-124.9082977	-71
14097	0	0.366943359	-0.136779785	0.047302246	0.999999046	-0.00043869	0.00011158	-0.000350952	9.173583984	-3.419494629	1.182556152	-0.02193451	0.005578995	-0.017547608	-0.744384766	-0.104248047	0.84765625	892.6	-72.22982167	-68.15150899	-125.0227762	-71
14098	0	0.369530678	-0.136011124	0.045188904	0.999999046	-5.72E-06	-2.48E-05	0.000109673	9.238266945	-3.400278091	1.129722595	-0.000286102	-0.001239777	0.005483627	-0.744628906	-0.104248047	0.853515625	892.6	-72.19884586	-68.16222607	-125.0533684	-71
14099	0	0.370056152	-0.131713867	0.041809082	0.999999046	-0.000286102	0.000142097	0.000301361	9.251403809	-3.29284668	1.045227051	-0.014305115	0.007104874	0.015068055	-0.746826172	-0.104248047	0.847900391	892.6	-72.1722063	-68.14624202	-125.1144922	-70
14100	0	0.365995407	-0.133180618	0.044338226	0.999999046	0.000182152	-0.000482559	-7.72E-05	9.149885178	-3.329515457	1.108455658	0.00910759	-0.024127961	-0.003862381	-0.746826172	-0.106445313	0.848144531	892.64	-72.229483	-68.19335063	-125.0277346	-70
14101	0	0.363952637	-0.132385254	0.045776367	0.999995232	0.002494812	-0.001349449	-0.000637054	9.098815918	-3.309631348	1.14440918	0.124740776	-0.067472553	-0.031852767	-0.744628906	-0.104248047	0.853515625	892.58	-72.2107445	-68.33176085	-124.7374439	-70
14102	0	0.371321678	-0.127772331	0.046694756	0.999997139	0.00211525	-0.000682831	-0.000478745	9.283041954	-3.194308281	1.167368889	0.105762573	-0.03414157	-0.023937246	-0.7421875	-0.102294922	0.850341797	892.6	-72.06742507	-68.42982413	-124.6283937	-70
14103	0	0.37322998	-0.12902832	0.048278809	0.999999046	-0.000328064	0.00024128	-0.000190735	9.330749512	-3.225708008	1.206970215	-0.016403199	0.012063981	-0.009536743	-0.742431641	-0.100097656	0.853027344	892.66	-71.97466894	-68.46397278	-124.7653634	-70
14104	0	0.370998383	-0.130382538	0.046784401	0.999998093	-0.001153946	0.000296593	0.000792503	9.274959564	-3.259563446	1.169610023	-0.057697316	0.014829641	0.039625181	-0.742431641	-0.097900391	0.852783203	892.64	-72.04956095	-68.38894519	-124.8236841	-70
14105	0	0.372070313	-0.130554199	0.047180176	0.999999046	-0.000434875	0.00024128	0.001106262	9.301757813	-3.26385498	1.179504395	-0.02174378	0.012063983	0.055313124	-0.740234375	-0.100097656	0.855712891	892.54	-72.0852506	-68.28167012	-124.8359877	-70
14106	0	0.368655205	-0.126103401	0.049750328	0.999999046	-0.000240326	0.000156403	0.000576019	9.216380119	-3.15258503	1.243758202	-0.012016297	0.00782013	0.028800966	-0.744873047	-0.099853516	0.853027344	892.7	-72.07452902	-68.23533479	-124.8745487	-70
14107	0	0.366577148	-0.128234863	0.047912598	0.999999046	-6.10E-05	0.000355721	-6.10E-05	9.164428711	-3.205871582	1.197814941	-0.003051758	0.017786026	-0.003051758	-0.744873047	-0.099853516	0.853027344	892.6	-71.93241277	-68.25139209	-125.0322351	-70
14108	0	0.366681099	-0.127708435	0.046508789	0.999999046	0.000531197	0.000427246	-0.000282288	9.167027473	-3.192710876	1.162719727	0.026559832	0.021362307	-0.014114381	-0.744628906	-0.100097656	0.850341797	892.7	-71.68284313	-68.28885892	-125.2326601	-70
14109	0	0.370300293	-0.128967285	0.045898438	0.999999046	-7.63E-06	0.000603676	-0.000278473	9.257507324	-3.224182129	1.147460938	-0.00038147	0.030183794	-0.013923646	-0.747070313	-0.09765625	0.850097656	892.7	-71.44679362	-68.3192907	-125.4845809	-70
14110	0	0.368794441	-0.130289078	0.043411255	0.999999046	-0.000312805	0.00071907	-0.000409126	9.219861031	-3.257226944	1.085281372	-0.015640261	0.035953526	-0.020456317	-0.747070313	-0.099853516	0.844726563	892.68	-71.20214052	-68.35929501	-125.7838831	-71
14111	0	0.369873047	-0.133361816	0.045166016	0.999999046	-1.91E-05	0.000283241	-0.00056076	9.246826172	-3.33404541	1.129150391	-0.000953674	0.014162065	-0.028038027	-0.749267578	-0.102050781	0.844970703	892.64	-71.02853978	-68.43136027	-125.9706899	-71
14112	0	0.367677689	-0.132219315	0.043231964	0.999999046	0.000859261	-0.000118256	-0.000545502	9.191942215	-3.305482864	1.080799103	0.042963035	-0.005912782	-0.02727509	-0.749267578	-0.099853516	0.844726563	892.6	-70.86580751	-68.51648321	-126.0374132	-71
14113	0	0.366271973	-0.130004883	0.043029785	0.999999046	0.000190735	-1.43E-05	-0.000217438	9.156799316	-3.25012207	1.075744629	0.009536743	-0.000715256	-0.010871887	-0.747070313	-0.099853516	0.844726563	892.58	-70.78282671	-68.56207989	-126.1008627	-71
14114	0	0.367062569	-0.132513046	0.047158241	0.999999046	0.000143051	4.96E-05	1.05E-05	9.176564217	-3.312826157	1.178956032	0.007152557	0.002479553	0.000524521	-0.749267578	-0.099853516	0.84765625	892.54	-70.70996543	-68.58033722	-126.1594498	-72
14115	0	0.368652344	-0.130004883	0.044799805	0.999999046	0.000110626	-5.63E-05	0.000198364	9.216308594	-3.25012207	1.119995117	0.005531311	-0.002813339	0.009918213	-0.749267578	-0.099853516	0.844726563	892.54	-70.6888645	-68.58221059	-126.166796	-72
14116	0	0.368239403	-0.130202293	0.045151711	0.999999046	-0.000395775	7.63E-06	0.000705719	9.205985069	-3.255057335	1.128792763	-0.019788744	0.00038147	0.035285954	-0.747070313	-0.099853516	0.847412109	892.58	-70.757788	-68.52670855	-126.1396478	-72
14117	0	0.368103027	-0.129089355	0.04675293	0.999999046	-0.000362396	3.15E-05	0.000972748	9.202575684	-3.227233887	1.168823242	-0.018119815	0.001573563	0.048637399	-0.749267578	-0.099853516	0.84765625	892.52	-70.84199214	-68.44135724	-126.0922314	-72
14118	0	0.371146202	-0.128321648	0.048452377	0.999999046	-0.000150681	-5.15E-05	0.000552177	9.278655052	-3.208041191	1.211309433	-0.007534028	-0.002574921	0.027608873	-0.749511719	-0.09765625	0.850341797	892.6	-70.88443202	-68.40469233	-126.0632859	-72
14119	0	0.368103027	-0.127380371	0.04675293	0.999999046	-0.000652313	0.00024128	0.000629425	9.202575684	-3.184509277	1.168823242	-0.032615666	0.012063982	0.031471257	-0.749267578	-0.09765625	0.844726563	892.6	-70.91182508	-68.34875338	-126.1127096	-72
14120	0	0.367367744	-0.128580093	0.049813271	0.999999046	-0.000664711	0.000246048	0.00069809	9.184193611	-3.214502335	1.245331764	-0.033235555	0.012302401	0.034904486	-0.747070313	-0.09765625	0.847412109	892.68	-70.94574331	-68.28518429	-126.1563522	-72
14121	0	0.367919922	-0.128601074	0.047607422	0.999999046	-0.000114441	4.29E-05	0.000236511	9.197998047	-3.215026855	1.190185547	-0.005722046	0.002145767	0.011825562	-0.749511719	-0.09765625	0.847412109	892.58	-70.92869222	-68.2792572	-126.1872518	-72
14122	0	0.36846447	-0.13043499	0.048890114	0.999999046	-6.29E-05	-2.67E-05	1.43E-05	9.211611748	-3.260874748	1.222252846	-0.003147125	-0.001335144	0.000715256	-0.751708984	-0.099853516	0.850585938	892.58	-70.90387109	-68.29995651	-126.220371	-72
14123	0	0.369812012	-0.130554199	0.047729492	0.999999046	-0.000102997	0.000302315	6.10E-05	9.245300293	-3.26385498	1.193237305	-0.005149841	0.015115738	0.003051758	-0.754150391	-0.099609375	0.850830078	892.54	-70.79873549	-68.30320628	-126.344811	-72
14124	0	0.369887352	-0.131770134	0.050488472	0.999999046	-0.000367165	0.000303268	0.000235558	9.2471838	-3.294253349	1.2622118	-0.018358231	0.015163422	0.011777878	-0.75390625	-0.099609375	0.847900391	892.6	-70.74016665	-68.28736148	-126.4517181	-72
14125	0	0.367980957	-0.133361816	0.051086426	0.999999046	-0.000190735	0.000107765	0.000236511	9.199523926	-3.33404541	1.277160645	-0.009536743	0.00538826	0.011825562	-0.751708984	-0.099853516	0.84765625	892.64	-70.71465529	-68.27856186	-126.5012048	-72
14126	0	0.367296219	-0.133921623	0.050991058	0.999999046	-0.00012207	0.000265121	0.000247955	9.182405472	-3.348040581	1.274776459	-0.006103516	0.013256073	0.012397766	-0.75390625	-0.099609375	0.844970703	892.6	-70.63977319	-68.26229883	-126.5955666	-72
14127	0	0.368103027	-0.134887695	0.05078125	0.999999046	-6.87E-05	0.00048542	0.000293732	9.202575684	-3.372192383	1.26953125	-0.003433228	0.024271013	0.014686585	-0.75390625	-0.09765625	0.842041016	892.64	-70.50380883	-68.23237238	-126.7489582	-72
14128	0	0.370294571	-0.135417938	0.04996109	0.999999046	-0.000212669	0.000785828	0.000296593	9.257364273	-3.385448456	1.249027252	-0.01063347	0.039291387	0.014829637	-0.75390625	-0.099609375	0.842285156	892.54	-70.30429211	-68.19021459	-126.9888069	-72
14129	0	0.368225098	-0.135437012	0.049743652	0.999999046	-0.000377655	0.000885963	0.000659943	9.205627441	-3.385925293	1.243591309	-0.018882756	0.044298182	0.032997139	-0.75390625	-0.099609375	0.842285156	892.58	-70.13335215	-68.10447709	-127.2182809	-72
14130	0	0.366924286	-0.134921074	0.048276901	0.999998093	-0.000447273	0.000868797	0.001162529	9.173107147	-3.373026848	1.206922531	-0.022363671	0.043439882	0.058126472	-0.758544922	-0.099609375	0.842529297	892.66	-70.02596079	-67.96488464	-127.388278	-72
14131	0	0.369567871	-0.132629395	0.047180176	0.999999046	1.14E-05	0.000729561	0.000984192	9.239196777	-3.315734863	1.179504395	0.000572205	0.036478052	0.049209607	-0.760986328	-0.097412109	0.836669922	892.64	-69.88809496	-67.84987968	-127.5347672	-72
14132	0	0.367101669	-0.132496834	0.047595978	0.999999046	-0.00026989	0.000598907	0.000559807	9.177541733	-3.312420845	1.189899445	-0.013494493	0.029945377	0.027990345	-0.758789063	-0.093017578	0.836181641	892.6	-69.7776829	-67.78561789	-127.6859241	-72
14133	0	0.365478516	-0.136169434	0.048034668	0.999999046	0.000232697	0.000245094	0.000415802	9.136962891	-3.40423584	1.200866699	0.011634827	0.012254716	0.020790101	-0.760986328	-0.097412109	0.833740234	892.6	-69.69016179	-67.75065169	-127.7513132	-72
14134	0	0.366563797	-0.133216858	0.049434662	0.999999046	0.000505447	0.000123978	0.000335693	9.164094925	-3.330421448	1.235866547	0.025272371	0.006198883	0.016784669	-0.763427734	-0.093017578	0.833496094	892.66	-69.59611054	-67.72910579	-127.7895432	-72
14135	0	0.367614746	-0.134033203	0.051452637	0.999999046	0.000225067	0.000252724	0.00019455	9.190368652	-3.350830078	1.286315918	0.011253357	0.012636185	0.009727478	-0.760986328	-0.093017578	0.836425781	892.58	-69.487087	-67.71751284	-127.8785781	-73
14136	0	0.366866112	-0.134093285	0.049926758	0.999999046	-7.92E-05	0.000289917	7.53E-05	9.171652794	-3.352332115	1.248168945	-0.003957748	0.01449585	0.003767014	-0.765869141	-0.092773438	0.836669922	892.58	-69.39207471	-67.71714245	-127.9904257	-72
14137	0	0.366333008	-0.134887695	0.052612305	0.999999046	0.000110626	0.0001688	4.96E-05	9.158325195	-3.372192383	1.315307617	0.005531311	0.008440018	0.002479553	-0.763427734	-0.090820313	0.833496094	892.64	-69.30469454	-67.72426079	-128.0704066	-73
14138	0	0.366606712	-0.134425163	0.05166626	0.999999046	0.000339508	0.000200272	-0.000106812	9.165167809	-3.360629082	1.291656494	0.016975403	0.010013581	-0.005340576	-0.765625	-0.092773438	0.833740234	892.74	-69.16761336	-67.74674278	-128.1761734	-73
14139	0	0.364135742	-0.133666992	0.05291748	0.999999046	8.77E-05	8.87E-05	-0.000148773	9.103393555	-3.341674805	1.322937012	0.004386902	0.004434586	-0.00743866	-0.763427734	-0.090820313	0.836181641	892.54	-69.08439076	-67.77810041	-128.2544285	-73
14140	0	0.365875244	-0.135136604	0.052944183	0.999999046	0.000208855	0.000175476	-0.000263214	9.146881104	-3.378415108	1.323604584	0.010442734	0.008773804	-0.013160706	-0.765869141	-0.092773438	0.836669922	892.76	-68.9530624	-67.817947	-128.3700977	-73
14141	0	0.366577148	-0.134277344	0.051940918	0.999999046	8.01E-05	0.000180244	-0.000152588	9.164428711	-3.356933594	1.298522949	0.004005432	0.009012222	-0.007629395	-0.765869141	-0.092773438	0.836669922	892.6	-68.84647761	-67.84559944	-128.4749316	-73
14142	0	0.36550045	-0.135867119	0.052154541	0.999999046	-0.000137329	7.06E-05	-0.000126839	9.137511253	-3.396677971	1.303863525	-0.006866455	0.003528595	-0.006341934	-0.765625	-0.092773438	0.833740234	892.58	-68.7964944	-67.87480378	-128.5456782	-73
14143	0	0.364746094	-0.135375977	0.053344727	0.999999046	0.000114441	-1.05E-05	-8.77E-05	9.118652344	-3.384399414	1.333618164	0.005722046	-0.000524521	-0.004386902	-0.765869141	-0.090576172	0.833496094	892.58	-68.74313512	-67.90297125	-128.588759	-73
14144	0	0.366112709	-0.134995461	0.051230431	0.999999046	0.000124931	-2.10E-05	-0.000115395	9.152817726	-3.374886513	1.280760765	0.006246567	-0.001049042	-0.00576973	-0.768066406	-0.092773438	0.833740234	892.58	-68.6889704	-67.93438797	-128.6318876	-73
14145	0	0.364990234	-0.13482666	0.051086426	0.999999046	0.000137329	3.15E-05	-0.00012207	9.124755859	-3.370666504	1.277160645	0.006866455	0.001573563	-0.006103516	-0.765625	-0.094970703	0.833984375	892.58	-68.61934196	-67.96416875	-128.6902758	-73
14146	0	0.364409447	-0.135639191	0.051145554	0.999999046	6.10E-05	-0.000259399	0.000209808	9.110236168	-3.390979767	1.27863884	0.003051758	-0.012969971	0.010490418	-0.765625	-0.094970703	0.831054688	892.54	-68.66997809	-67.97046728	-128.628521	-73
14147	0	0.366271973	-0.136291504	0.051025391	0.999999046	8.77E-05	-0.000170708	0.000347137	9.156799316	-3.407287598	1.275634766	0.004386902	-0.008535385	0.017356873	-0.765625	-0.092773438	0.830810547	892.54	-68.70896431	-67.95820964	-128.5758876	-73
14148	0	0.36601162	-0.135499954	0.050435066	0.999999046	-0.000285149	-8.77E-05	0.000576019	9.150290489	-3.387498856	1.260876656	-0.014257432	-0.004386902	0.028800966	-0.765869141	-0.092773438	0.836669922	892.58	-68.79283711	-67.91790367	-128.5208796	-73
14149	0	0.365783691	-0.137268066	0.051879883	0.999999046	-4.20E-05	-0.000227928	0.000652313	9.144592285	-3.43170166	1.29699707	-0.002098084	-0.011396409	0.032615664	-0.765625	-0.094970703	0.833984375	892.58	-68.89375429	-67.8749817	-128.4179738	-73
14150	0	0.365690231	-0.135796547	0.050601959	0.999999046	1.34E-05	-0.00034523	0.000658989	9.142255783	-3.394913673	1.265048981	0.000667572	-0.017261507	0.032949451	-0.763427734	-0.090820313	0.830566406	892.58	-69.01999811	-67.8359771	-128.2805786	-72
14151	0	0.366699219	-0.136901855	0.051330566	0.999999046	-0.000400543	-0.000243187	0.00075531	9.167480469	-3.422546387	1.28326416	-0.020027163	-0.012159349	0.037765508	-0.765869141	-0.090576172	0.830810547	892.64	-69.17647388	-67.78221597	-128.1619391	-72
14152	0	0.36548233	-0.135665894	0.053240776	0.999999046	2.57E-05	-0.000226974	0.000559807	9.137058258	-3.391647339	1.331019402	0.00128746	-0.011348725	0.027990343	-0.763427734	-0.090820313	0.836181641	892.64	-69.25998248	-67.7485232	-128.0691738	-72
14153	0	0.364868164	-0.135253906	0.052734375	0.999999046	-0.000190735	-0.000178337	0.000576019	9.121704102	-3.381347656	1.318359375	-0.009536744	-0.008916855	0.028800966	-0.765869141	-0.090576172	0.833496094	892.64	-69.35699456	-67.71097319	-127.9888938	-73
14154	0	0.365949631	-0.136489868	0.052062035	0.999999046	-0.000110626	7.06E-05	0.00050354	9.148740768	-3.412246704	1.301550865	-0.005531311	0.003528595	0.025177003	-0.763427734	-0.090820313	0.830566406	892.64	-69.37261085	-67.67101173	-127.9866956	-72
14155	0	0.367675781	-0.135375977	0.052490234	0.999999046	-0.00018692	3.53E-05	0.000617981	9.191894531	-3.384399414	1.312255859	-0.009346009	0.001764298	0.03089905	-0.763427734	-0.090820313	0.833496094	892.66	-69.41742605	-67.62018749	-127.962252	-72
14156	0	0.364938736	-0.1372509	0.052158356	0.999999046	-0.000153542	-8.58E-05	0.000540733	9.123468399	-3.431272507	1.303958893	-0.007677079	-0.004291535	0.027036668	-0.763427734	-0.088623047	0.830322266	892.6	-69.4824402	-67.58239251	-127.9118268	-72
14157	0	0.365722656	-0.135253906	0.050720215	0.999999046	-0.000213623	6.20E-05	0.00063324	9.143066406	-3.381347656	1.268005371	-0.010681153	0.003099442	0.03166199	-0.763671875	-0.088623047	0.833251953	892.58	-69.5249785	-67.52874008	-127.893156	-72
14158	0	0.365848541	-0.136837959	0.049485207	0.999999046	-0.000509262	-1.53E-05	0.000559807	9.146213531	-3.420948982	1.237130165	-0.025463107	-0.00076294	0.027990344	-0.763671875	-0.086425781	0.8359375	892.6	-69.61459584	-67.48604628	-127.8600188	-72
14159	0	0.366027832	-0.138000488	0.05065918	0.999999046	-0.000270844	-0.00014019	0.000354767	9.150695801	-3.450012207	1.266479492	-0.013542176	-0.007009506	0.017738343	-0.763671875	-0.088623047	0.836181641	892.7	-69.68968297	-67.47028031	-127.8134584	-72
14160	0	0.364539146	-0.138530731	0.050358772	0.999999046	-0.000395775	-0.000169754	0.000522614	9.113478661	-3.46326828	1.258969307	-0.019788744	-0.008487702	0.026130678	-0.763671875	-0.088623047	0.836181641	892.6	-69.80301118	-67.43751225	-127.7410396	-73
14161	0	0.364379883	-0.139526367	0.049438477	0.999999046	-0.000507355	-8.30E-05	0.00056076	9.10949707	-3.48815918	1.235961914	-0.025367739	-0.004148484	0.028038028	-0.763427734	-0.090820313	0.836181641	892.64	-69.91047456	-67.39704215	-127.6890367	-73
14162	0	0.363620758	-0.139986038	0.050456047	0.999999046	-0.000207901	-0.000305176	0.000208855	9.090518951	-3.499650955	1.261401176	-0.01039505	-0.01525879	0.010442734	-0.763671875	-0.088623047	0.833251953	892.68	-70.00797582	-67.40299255	-127.6105484	-73
14163	0	0.364562988	-0.141540527	0.052307129	0.999999046	-0.000164032	-0.00039196	0.000347137	9.114074707	-3.538513184	1.307678223	-0.0082016	-0.019598008	0.017356873	-0.763671875	-0.090820313	0.839111328	892.58	-70.13601911	-67.39714522	-127.4936069	-73
14164	0	0.365481377	-0.140895844	0.051118851	0.999999046	-0.000319481	-4.96E-05	0.00063324	9.137034416	-3.522396088	1.277971268	-0.015974046	-0.002479553	0.03166199	-0.761474609	-0.088623047	0.841796875	892.54	-70.22000085	-67.34691174	-127.4434061	-74
14165	0	0.366271973	-0.139282227	0.049804688	0.999999046	-0.000808716	0.000191689	0.000926971	9.156799316	-3.482055664	1.245117188	-0.040435801	0.009584429	0.046348584	-0.763671875	-0.088623047	0.836181641	892.6	-70.32484202	-67.25559973	-127.4317478	-74
14166	0	0.364895821	-0.139308929	0.050329208	0.999999046	-0.000391006	-0.000112534	0.000731468	9.122395515	-3.482723236	1.258230209	-0.019550326	-0.005626679	0.036573414	-0.766113281	-0.086181641	0.8359375	892.6	-70.44176599	-67.19705228	-127.3549518	-74
14167	0	0.364379883	-0.137329102	0.047790527	0.999999046	3.43E-05	-0.000266075	0.00062561	9.10949707	-3.433227539	1.194763184	0.001716614	-0.013303758	0.03128052	-0.763671875	-0.086425781	0.838867188	892.6	-70.53960927	-67.15586675	-127.2459753	-75
14168	0	0.365332603	-0.137783051	0.049313545	0.999999046	-8.49E-05	-0.000278473	0.00037384	9.133315086	-3.444576263	1.232838631	-0.004243851	-0.013923646	0.018692017	-0.763671875	-0.086425781	0.8359375	892.64	-70.63134661	-67.14238814	-127.1586253	-76
14169	0	0.366088867	-0.138000488	0.048522949	0.999999046	0.00012207	-0.000330925	-0.000167847	9.15222168	-3.450012207	1.21307373	0.006103516	-0.01654625	-0.008392334	-0.763671875	-0.086425781	0.838867188	892.64	-70.66419612	-67.18954458	-127.1093347	-76
14170	0	0.365007401	-0.138721466	0.048924446	0.999999046	-7.63E-06	-0.000429153	-2.67E-05	9.125185013	-3.468036652	1.223111153	-0.00038147	-0.021457673	-0.001335144	-0.763671875	-0.086425781	0.838867188	892.54	-70.75026098	-67.22516974	-127.0185279	-76
14171	0	0.364929199	-0.137939453	0.049377441	0.999999046	-3.81E-06	-0.000330925	-4.58E-05	9.12322998	-3.448486328	1.234436035	-0.000190735	-0.01654625	-0.002288818	-0.759033203	-0.088623047	0.841552734	892.6	-70.80910499	-67.25915649	-126.9567684	-75
14172	0	0.36625576	-0.137357712	0.048766136	0.999999046	-0.000374794	-0.000322342	-0.000488281	9.156394005	-3.433942795	1.219153404	-0.018739702	-0.016117097	-0.024414064	-0.759033203	-0.088623047	0.841552734	892.6	-70.8687334	-67.34078895	-126.9401922	-75
14173	0	0.367553711	-0.139465332	0.047668457	0.999999046	-0.000270844	-0.000155449	-0.000793457	9.188842773	-3.486633301	1.191711426	-0.013542177	-0.007772447	-0.039672856	-0.759033203	-0.090820313	0.844482422	892.58	-70.84588048	-67.44919645	-127.0001197	-75
14174	0	0.365348816	-0.13921833	0.049186707	0.999999046	-0.000286102	-0.00021553	-0.000660896	9.133720398	-3.48045826	1.229667664	-0.014305116	-0.010776521	-0.033044818	-0.758789063	-0.093017578	0.839111328	892.7	-70.85221994	-67.54542643	-127.0306036	-75
14175	0	0.365844727	-0.141052246	0.051025391	0.999999046	0.000209808	-0.000380516	-0.00087738	9.146118164	-3.526306152	1.275634766	0.010490419	-0.019025806	-0.043869026	-0.758789063	-0.095214844	0.844970703	892.64	-70.82500951	-67.67107956	-127.0357248	-75
14176	0	0.36484623	-0.139781952	0.049462318	0.999999046	5.63E-05	0.000135422	-0.00118351	9.121155739	-3.494548798	1.236557961	0.00281334	0.006771089	-0.059175505	-0.758789063	-0.095214844	0.844970703	892.6	-70.65023655	-67.81015084	-127.2191583	-75
14177	0	0.363891602	-0.142089844	0.049255371	0.999999046	-0.000110626	0.000336647	-0.00112915	9.097290039	-3.552246094	1.231384277	-0.005531312	0.016832356	-0.056457533	-0.758544922	-0.097412109	0.839355469	892.64	-70.44418695	-67.93508346	-127.4571275	-76
14178	0	0.363880157	-0.144209862	0.0487957	0.999999046	5.34E-05	0.000202179	-0.000907898	9.097003937	-3.605246544	1.219892502	0.002670288	0.010108949	-0.045394904	-0.760986328	-0.099609375	0.842529297	892.72	-70.2744847	-68.04054748	-127.6354737	-76
14179	0	0.366271973	-0.143127441	0.047851563	0.999999046	0.000244141	-9.06E-05	-0.000343323	9.156799316	-3.578186035	1.196289063	0.012207032	-0.004529953	-0.017166138	-0.760986328	-0.099609375	0.839599609	892.58	-70.21505608	-68.09594118	-127.6714487	-76
14180	0	0.364179611	-0.140962601	0.047548294	0.999999046	3.34E-05	5.34E-05	0.000170708	9.10449028	-3.524065018	1.188707352	0.00166893	0.002670288	0.008535385	-0.758544922	-0.099609375	0.842529297	892.58	-70.19118146	-68.08997883	-127.6950174	-76
14181	0	0.364562988	-0.140808105	0.047912598	0.999999046	-0.000286102	0.000199318	0.000411987	9.114074707	-3.520202637	1.197814941	-0.014305115	0.009965897	0.020599366	-0.760986328	-0.099609375	0.839599609	892.6	-70.18862006	-68.05201846	-127.7353651	-76
14182	0	0.367418289	-0.141200066	0.047367096	0.999999046	-8.20E-05	5.72E-06	0.000918388	9.18545723	-3.53000164	1.184177399	-0.0041008	0.000286102	0.045919425	-0.763183594	-0.099365234	0.83984375	892.58	-70.26358794	-67.96671591	-127.6670653	-76
14183	0	0.365478516	-0.139282227	0.047485352	0.999999046	0.000762939	-0.00051403	0.000919342	9.136962891	-3.482055664	1.187133789	0.038146983	-0.02570153	0.045967115	-0.760986328	-0.097412109	0.839599609	892.66	-70.38000696	-67.90115893	-127.4495665	-76
14184	0	0.364912987	-0.136338234	0.049391747	0.999999046	0.0008955	-0.000459671	0.000628471	9.122824669	-3.408455849	1.234793663	0.04477502	-0.022983556	0.031423576	-0.758789063	-0.095214844	0.844970703	892.64	-70.43855437	-67.86474428	-127.2778083	-76
14185	0	0.366394043	-0.13482666	0.047668457	0.999999046	0.000106812	4.29E-05	0.000667572	9.159851074	-3.370666504	1.191711426	0.005340577	0.002145767	0.033378604	-0.759033203	-0.093017578	0.844726563	892.6	-70.45763084	-67.80487906	-127.2461826	-76
14186	0	0.365596771	-0.136953354	0.048032761	0.999999046	3.43E-05	0.000167847	0.000666618	9.139919281	-3.423833847	1.200819016	0.001716614	0.008392335	0.03333092	-0.759033203	-0.090820313	0.841796875	892.64	-70.45195517	-67.74031683	-127.2503257	-76
14187	0	0.367675781	-0.136962891	0.048522949	0.999999046	-1.53E-05	0.000229836	0.000797272	9.191894531	-3.424072266	1.21307373	-0.00076294	0.011491777	0.039863591	-0.761230469	-0.090820313	0.841796875	892.6	-70.44797024	-67.65931402	-127.2589899	-76
14188	0	0.367129326	-0.137245178	0.049906731	0.999999046	-0.000145912	0.000217438	0.000887871	9.178233147	-3.431129456	1.247668266	-0.00729561	0.010871889	0.044393546	-0.761230469	-0.088623047	0.8359375	892.66	-70.47056064	-67.5690306	-127.2551445	-76
14189	0	0.364379883	-0.137084961	0.04901123	0.999999046	-0.000267029	0.000271797	0.000759125	9.10949707	-3.427124023	1.225280762	-0.013351442	0.013589861	0.037956242	-0.761474609	-0.086425781	0.841552734	892.7	-70.4808513	-67.4905968	-127.2791206	-76
14190	0	0.3657341	-0.13638401	0.046755791	0.999999046	-0.000131607	0.000120163	0.000380516	9.143352509	-3.409600258	1.168894768	-0.006580353	0.006008148	0.019025803	-0.763671875	-0.088623047	0.838867188	892.66	-70.4804669	-67.4590067	-127.2985024	-76
14191	0	0.363708496	-0.136535645	0.04473877	0.999999046	-1.53E-05	0.000103951	0.000247955	9.092712402	-3.413391113	1.118469238	-0.000762939	0.005197525	0.012397766	-0.761230469	-0.088623047	0.838867188	892.64	-70.45929002	-67.44249192	-127.3258327	-76
14192	0	0.364608765	-0.135070801	0.044260025	0.999999046	-6.01E-05	3.43E-05	-5.82E-05	9.115219116	-3.37677002	1.106500626	-0.003004074	0.001716614	-0.002908707	-0.763671875	-0.088378906	0.841796875	892.66	-70.43359848	-67.46193113	-127.3635205	-76
14193	0	0.364440918	-0.135864258	0.044128418	0.999999046	-0.000343323	8.58E-06	-0.000183105	9.111022949	-3.396606445	1.103210449	-0.017166138	0.000429153	-0.009155274	-0.761474609	-0.088623047	0.841796875	892.7	-70.43599793	-67.49602724	-127.4058377	-76
14194	0	0.364916801	-0.136860847	0.045199394	0.999999046	-0.000591278	-0.000183105	-0.000374794	9.122920036	-3.421521187	1.129984856	-0.029563906	-0.009155274	-0.018739702	-0.765869141	-0.090576172	0.836425781	892.7	-70.49948864	-67.55829123	-127.413434	-75
14195	0	0.363891602	-0.139465332	0.045898438	0.999999046	-0.000953674	-0.000159264	-0.000461578	9.097290039	-3.486633301	1.147460938	-0.047683725	-0.007963182	-0.023078923	-0.761230469	-0.090820313	0.836181641	892.64	-70.59082156	-67.62896925	-127.4352878	-75
14196	0	0.368613243	-0.140556335	0.045633316	0.999999046	-0.00105381	-6.48E-05	-0.00063324	9.215331078	-3.513908386	1.140832901	-0.052690519	-0.003242493	-0.031661995	-0.761230469	-0.095214844	0.842285156	892.6	-70.65348315	-67.71459211	-127.5005614	-76
14197	0	0.368713379	-0.144042969	0.045959473	0.999997139	-0.001865387	0.000355721	-0.000812531	9.217834473	-3.601074219	1.148986816	-0.093269414	0.017786039	-0.040626555	-0.763183594	-0.097167969	0.836914063	892.66	-70.68170851	-67.80344656	-127.7036322	-76
14198	0	0.36220932	-0.150472641	0.048521996	0.999998093	-0.001353264	0.000470161	-0.0013237	9.055233002	-3.761816025	1.213049889	-0.067663236	0.023508087	-0.06618504	-0.762939453	-0.103759766	0.834472656	892.6	-70.57224279	-67.94245764	-127.9923467	-75
14199	0	0.357666016	-0.159729004	0.053222656	0.999994278	0.001423836	-0.000350952	-0.002826691	8.941650391	-3.993225098	1.330566406	0.071191908	-0.017547637	-0.141334773	-0.762939453	-0.108154297	0.840576172	892.6	-70.21708531	-68.27354201	-128.2025143	-75
14200	0	0.362230301	-0.163344383	0.048858643	0.999979019	0.004505157	0.000361443	-0.004473686	9.055757523	-4.083609581	1.221466064	0.225259392	0.01807225	-0.223685819	-0.760498047	-0.105957031	0.840332031	892.58	-69.13459309	-68.75086282	-128.8141763	-75
14201	0	0.358154297	-0.163146973	0.045898438	0.999973297	0.003838539	0.002281189	-0.005729675	8.953857422	-4.078674316	1.147460938	0.191928644	0.114060451	-0.286486284	-0.760498047	-0.108154297	0.837646484	892.58	-67.41389105	-69.27333327	-130.1893674	-74
14202	0	0.362710953	-0.165784836	0.040049553	0.999976158	0.001607895	0.003061295	-0.005841255	9.067773819	-4.144620895	1.001238823	0.080395362	0.153065903	-0.292065002	-0.767333984	-0.112548828	0.832519531	892.58	-65.64306309	-69.75513213	-131.8868223	-73
14203	0	0.353149414	-0.165466309	0.033691406	0.999984741	0.000599861	0.002628326	-0.004768372	8.828735352	-4.136657715	0.842285156	0.029993207	0.131416978	-0.238419771	-0.769287109	-0.116699219	0.830078125	892.64	-64.18556762	-70.12800482	-133.3692955	-72
14204	0	0.354557991	-0.162666321	0.031230927	0.999987602	0.002840996	0.00091362	-0.003930092	8.863949776	-4.06665802	0.780773163	0.142050366	0.045681185	-0.19650539	-0.771240234	-0.125488281	0.822509766	892.7	-63.03701911	-70.48894896	-134.2497795	-73
14205	0	0.364562988	-0.14654541	0.030578613	0.999978065	0.005046844	8.58E-06	-0.004196167	9.114074707	-3.663635254	0.764465332	0.252344036	0.000429157	-0.209809856	-0.771240234	-0.123291016	0.827880859	892.54	-61.82403395	-70.91800213	-134.9284501	-75
14206	0	0.389327049	-0.119956017	0.038039207	0.999985695	0.002847672	0.000450134	-0.004302025	9.733176231	-2.998900414	0.950980186	0.142384212	0.022506814	-0.215102204	-0.769042969	-0.118896484	0.824707031	892.54	-60.67805843	-71.32918714	-135.8000329	-78
14207	0	0.350830078	-0.087280273	0.055175781	0.999990463	0.00124073	0.000644684	-0.004089355	8.770751953	-2.182006836	1.379394531	0.062036707	0.032234292	-0.20446841	-0.766845703	-0.121337891	0.827636719	892.58	-59.65090323	-71.70346214	-136.7378193	-77
14208	0	0.309746742	-0.051710129	0.057231903	0.999983788	-0.003338814	0.001777649	-0.0041399	7.743668556	-1.29275322	1.430797577	-0.166941564	0.088882912	-0.206996095	-0.766601563	-0.125488281	0.830810547	892.64	-58.75745584	-72.0126341	-138.0833898	-72
14209	0	0.399597168	-0.090209961	0.066589355	0.999938011	-0.008769989	0.002018929	-0.006454468	9.989929199	-2.255249023	1.664733887	-0.438508415	0.10094849	-0.322729986	-0.768066406	-0.143066406	0.823730469	892.64	-57.92859876	-72.52770362	-140.0109262	-71
14210	0	0.431954384	-0.109510422	0.067591667	0.999923706	-0.007658958	0.000416756	-0.0096035	10.7988596	-2.737760544	1.689791679	-0.382957564	0.020838308	-0.480187108	-0.769287109	-0.166992188	0.817138672	892.58	-56.72879485	-73.43566232	-142.186225	-69
14211	0	0.363708496	-0.131835938	0.082519531	0.999909401	-0.008033752	-0.001803398	-0.010635376	9.092712402	-3.295898438	2.062988281	-0.401699734	-0.090172626	-0.531784833	-0.761230469	-0.193603516	0.813232422	892.58	-55.88452464	-74.56933908	-144.0254147	-69
14212	0	0.323779106	-0.140694618	0.079539299	0.999941826	-0.005412102	-0.000385284	-0.009314537	8.094477654	-3.517365456	1.988482475	-0.270610328	-0.019264594	-0.465735872	-0.753173828	-0.219970703	0.817871094	892.58	-54.35317338	-75.47173906	-146.2566649	-69
14213	0	0.316650391	-0.15411377	0.078857422	0.999948502	-0.005106926	0.001750946	-0.008583069	7.916259766	-3.852844238	1.971435547	-0.255350674	0.087548803	-0.429160797	-0.75	-0.239746094	0.81640625	892.54	-51.97109123	-76.13591771	-149.3218859	-70
14214	0	0.324697495	-0.171686172	0.088404655	0.999955177	-0.002563477	-8.01E-05	-0.009013176	8.117437363	-4.292154312	2.210116386	-0.128175704	-0.004005491	-0.450665394	-0.749023438	-0.259277344	0.812255859	892.52	-49.57312415	-76.93391361	-152.0957724	-71
14215	0	0.336853027	-0.189575195	0.09588623	0.999958992	0.001739502	-0.001952171	-0.008609772	8.421325684	-4.739379883	2.397155762	0.086976271	-0.097609883	-0.430494396	-0.741699219	-0.268310547	0.823974609	892.64	-47.21598832	-77.80624912	-154.3133469	-73
14216	0	0.339439392	-0.187244415	0.104140282	0.99996376	0.006282806	-0.00124073	-0.005531311	8.485984802	-4.681110382	2.603507042	0.314144069	-0.062037255	-0.276568853	-0.739746094	-0.266113281	0.832275391	892.64	-44.93264379	-78.34116194	-155.9183972	-68
14217	0	0.355285645	-0.174072266	0.097839355	0.99998188	0.00548172	6.58E-05	-0.002117157	8.882141113	-4.351806641	2.445983887	0.274087576	0.003290195	-0.105858458	-0.735839844	-0.250976563	0.842285156	892.64	-43.47925756	-78.47934353	-156.7646648	-76
14218	0	0.41918087	-0.186813354	0.091228485	0.999992371	0.00350666	0.001019478	-0.001241684	10.47952175	-4.670333862	2.280712128	0.175333458	0.050974019	-0.062084352	-0.734619141	-0.233398438	0.854980469	892.66	-42.24346201	-78.46030663	-157.6123005	-64
14219	0	0.459594727	-0.183959961	0.081420898	0.999993324	0.00328064	0.000508308	-0.001010895	11.48986816	-4.598999023	2.035522461	0.164032312	0.025415472	-0.05054484	-0.735839844	-0.202636719	0.863769531	892.7	-41.34114747	-78.46041537	-158.129734	-66
14220	0	0.456504822	-0.16779232	0.073223114	0.999992371	-0.002187729	-0.000128746	0.003203392	11.41262054	-4.194808006	1.83057785	-0.109386719	-0.006437318	0.160170004	-0.735107422	-0.169921875	0.864013672	892.6	-43.05644768	-78.18828274	-156.595337	-85
14221	0	0.45715332	-0.18560791	0.08215332	0.999973297	-0.000128746	-0.003902435	0.006099701	11.42883301	-4.640197754	2.053833008	-0.006437358	-0.195123471	0.304987713	-0.729736328	-0.130859375	0.866210938	892.58	-47.01554014	-77.96859816	-152.5233901	-74
14222	0	0.43964386	-0.185570717	0.081780434	0.999855042	0.014819145	-0.00653553	0.005137444	10.9910965	-4.639267921	2.044510841	0.740992919	-0.326792231	0.256884539	-0.720458984	-0.074462891	0.864013672	892.54	-49.882642	-77.97828221	-147.8300759	-69
14223	0	0.38482666	-0.130737305	0.064453125	0.999653816	0.024219513	-0.004511833	0.009189606	9.620666504	-3.268432617	1.611328125	1.211115233	-0.225617663	0.459533249	-0.707275391	0.010009766	0.850585938	892.54	-52.0775669	-77.43497724	-142.7204966	-67
14224	0	0.373429298	-0.073594093	0.052759171	0.999619484	0.019351006	-0.001487732	0.019577026	9.33573246	-1.839852333	1.318979263	0.967672865	-0.074396021	0.978975338	-0.696777344	0.107421875	0.807861328	892.6	-56.00137403	-75.66561661	-136.383207	-69
14225	0	0.394042969	-0.041137695	0.030151367	0.999614716	0.00754261	0.002731323	0.026550293	9.851074219	-1.028442383	0.75378418	0.377178878	0.136583678	1.32768491	-0.687744141	0.196289063	0.754638672	892.7	-59.94981443	-72.86918961	-131.3604302	-72
14226	0	0.389448166	-0.057796478	0.022322655	0.999673843	-0.001347542	0.006716728	0.024595261	9.736204147	-1.444911957	0.558066368	-0.067384413	0.335872907	1.229896675	-0.680175781	0.258789063	0.695068359	892.6	-62.17208398	-69.98528841	-129.1637533	-68
14227	0	0.33190918	-0.04901123	0.013122559	0.999745369	-0.002681732	0.007451057	0.021110535	8.297729492	-1.225280762	0.328063965	-0.134097972	0.372584444	1.055616186	-0.671386719	0.299560547	0.631347656	892.7	-63.38004938	-67.40377435	-128.1948153	-67
14228	0	0.288996696	-0.066257477	0.020423889	0.999842644	-0.002591133	0.005321503	0.016710281	7.224917412	-1.65643692	0.510597229	-0.129563443	0.266089073	0.835557837	-0.657714844	0.329345703	0.579833984	892.64	-64.36252724	-65.38004644	-127.4501994	-66
14229	0	0.269714355	-0.083862305	0.025512695	0.999909401	0.002822876	0.002079964	0.012928009	6.742858887	-2.096557617	0.637817383	0.14114802	0.104001294	0.646419784	-0.638916016	0.345703125	0.531982422	892.58	-64.93130522	-63.90603619	-126.4730602	-65
14230	0	0.278289795	-0.083886147	0.022244453	0.999917984	0.006346703	0.000742912	0.011059761	6.957244873	-2.097153664	0.556111336	0.317343758	0.037146625	0.55300309	-0.608398438	0.364013672	0.483398438	892.58	-65.12233955	-62.69129377	-125.4550476	-64
14231	0	0.308349609	-0.088989258	0.020751953	0.999958038	0.004582405	0.001178741	0.007724762	7.708740234	-2.224731445	0.518798828	0.229123388	0.058937879	0.386243381	-0.579833984	0.371337891	0.424316406	892.58	-65.08106283	-61.8055941	-124.9196471	-66
14232	0	0.36482048	-0.108761787	0.025026321	0.999992371	0.003454208	0.001498222	0.000767708	9.120512009	-2.719044685	0.625658035	0.172710844	0.074911302	0.038385486	-0.557128906	0.359130859	0.364257813	892.64	-64.47626528	-61.6315941	-125.1709362	-74
14233	0	0.461608887	-0.124938965	0.016601563	0.999955177	0.001586914	0.002675056	-0.008842468	11.54022217	-3.123474121	0.415039063	0.079346865	0.133754782	-0.442129888	-0.544921875	0.319091797	0.295654297	892.58	-62.94692088	-62.38966312	-126.7145363	-75
14234	0	0.507329941	-0.132712364	0.020476341	0.999860764	-0.003109932	0.002873421	-0.01612854	12.68324852	-3.317809105	0.511908531	-0.155503804	0.143677695	-0.806464379	-0.552978516	0.255615234	0.247314453	892.54	-61.03587725	-63.85944476	-129.2760396	-71
14235	0	0.548278809	-0.114807129	0.017211914	0.999786377	-0.011599541	-1.14E-05	-0.017089844	13.70697021	-2.870178223	0.430297852	-0.580018281	-0.000572245	-0.854552955	-0.572509766	0.1796875	0.208984375	892.64	-60.36285346	-65.56868848	-131.5110569	-73
14236	0	0.483899117	-0.137274742	0.045024872	0.999567986	-0.019963264	-0.002077103	-0.021436691	12.09747791	-3.431868553	1.125621796	-0.998306745	-0.103870066	-1.071988678	-0.599609375	0.106445313	0.199462891	892.6	-60.33771084	-67.8267978	-134.0493382	-67
14237	0	0.287902832	-0.132385254	0.074462891	0.999721527	-0.012949944	-0.007419586	-0.018276215	7.197570801	-3.309631348	1.861572266	-0.647557277	-0.371013743	-0.913895549	-0.626708984	0.028808594	0.204345703	892.64	-61.11752475	-70.07336804	-134.8230253	-72
14238	0	0.342997551	-0.108089447	0.073310852	0.9998703	-0.010134697	-0.009041786	-0.008629799	8.574938774	-2.702236176	1.832771301	-0.50675672	-0.452108823	-0.431508568	-0.647705078	-0.031494141	0.218994141	892.52	-63.62327924	-71.43384332	-133.4158454	-65
14239	0	0.389953613	-0.144958496	0.081542969	0.999868393	-0.011832237	-0.005428314	-0.009658813	9.748840332	-3.623962402	2.038574219	-0.591637774	-0.271427598	-0.482961826	-0.671630859	-0.080810547	0.235595703	892.58	-65.2656979	-72.70287856	-133.128878	-72
14240	0	0.329096794	-0.136220932	0.093089104	0.999876976	-0.012352943	-0.004322052	-0.008584976	8.227419853	-3.4055233	2.327227592	-0.617672392	-0.216111424	-0.429266338	-0.690673828	-0.134521484	0.243896484	892.58	-66.88328957	-73.80246266	-132.930701	-67
14241	0	0.273986816	-0.137084961	0.10723877	0.999875069	-0.01410675	-0.006842613	-0.001651764	6.84967041	-3.427124023	2.680969238	-0.705366746	-0.342144835	-0.082591617	-0.709960938	-0.177490234	0.260009766	892.76	-70.83168313	-74.25737581	-130.5164527	-72
14242	0	0.247583389	-0.139575958	0.09403038	0.999958038	-0.007964134	-0.003405571	0.002760887	6.189584732	-3.489398956	2.350759506	-0.398212196	-0.170280895	0.138046259	-0.732177734	-0.211669922	0.266845703	892.6	-73.40132201	-74.06739831	-128.8048916	-72
14243	0	0.258178711	-0.130371094	0.085510254	0.999986649	-0.004454613	0.001338959	0.002182007	6.454467773	-3.259277344	2.137756348	-0.222731617	0.066948232	0.109100822	-0.756835938	-0.236816406	0.278808594	892.6	-73.64358494	-73.77218848	-129.0940117	-74
14244	0	0.310269356	-0.151780128	0.085609436	0.999984741	-0.004713058	0.001706123	-0.002043724	7.756733894	-3.794503212	2.140235901	-0.235654074	0.085306584	-0.102186702	-0.788574219	-0.264160156	0.282714844	892.58	-73.29564206	-73.92580814	-130.0287648	-67
14245	0	0.35546875	-0.175842285	0.080383301	0.999984741	-2.19E-05	-0.000144958	-0.005413055	8.88671875	-4.396057129	2.00958252	-0.001096731	-0.00724796	-0.270654094	-0.815185547	-0.295898438	0.292480469	892.54	-72.69723682	-74.50478171	-130.6643104	-71
14246	0	0.442677498	-0.18632412	0.076522827	0.999966621	0.003522873	-0.000816345	-0.007267952	11.06693745	-4.658102989	1.913070679	0.176145581	-0.040817709	-0.36340159	-0.842285156	-0.327636719	0.307861328	892.7	-71.65948424	-75.30401072	-131.3325715	-66
14247	0	0.472839355	-0.19720459	0.07800293	0.999957085	0.003688812	-0.001002312	-0.008434296	11.82098389	-4.930114746	1.950073242	0.184443249	-0.050116302	-0.42172081	-0.8671875	-0.354980469	0.337158203	892.54	-70.40426386	-76.22939759	-132.2014726	-66
14248	0	0.49849987	-0.194894791	0.071029663	0.999985695	0.001664162	-0.001552582	-0.004677773	12.46249676	-4.872369766	1.775741577	0.083208459	-0.077629439	-0.233889681	-0.885253906	-0.382324219	0.365966797	892.64	-70.13401294	-76.76457194	-132.2941148	-69
14249	0	0.573547363	-0.262695313	0.09942627	0.999929428	0.010785103	-0.002758026	-0.004066467	14.33868408	-6.567382813	2.485656738	0.539267767	-0.137904535	-0.203328124	-0.901611328	-0.396972656	0.402099609	892.6	-69.46010841	-77.27522341	-131.7297937	-67
14250	0	0.421957016	-0.169510841	0.039219856	0.999773026	0.019490242	0.003788948	0.007652283	10.5489254	-4.237771034	0.980496407	0.974585656	0.189461702	0.382643015	-0.909667969	-0.391845703	0.453369141	892.58	-66.87717544	-76.26097062	-132.1021483	-71
14251	0	0.38458252	-0.079772949	0.032470703	0.999419212	0.012645721	0.007534981	0.030712128	9.614562988	-1.99432373	0.811767578	0.63240837	0.37682191	1.535903404	-0.928955078	-0.338623047	0.492675781	892.52	-67.45604458	-72.64375928	-130.0060672	-68
14252	0	0.424715996	-0.120717049	0.032074928	0.999210358	0.00928688	0.010546684	0.037156105	10.61789989	-3.017926216	0.801873207	0.464466238	0.527473006	1.858294219	-0.956787109	-0.243652344	0.509277344	892.54	-67.79074053	-68.2092284	-128.5174816	-69
14253	0	0.342773438	-0.119445801	0.003601074	0.999420166	0.0053339	0.013774872	0.030654907	8.569335938	-2.98614502	0.090026855	0.266746518	0.688876579	1.533041315	-0.979492188	-0.144775391	0.513671875	892.6	-66.93173105	-64.32517405	-128.7723926	-66
14254	0	0.265625	-0.072021484	0.009216309	0.999443054	0.00206852	0.010704994	0.031517029	6.640625	-1.800537109	0.230407715	0.103445161	0.535348977	1.576143697	-1.00390625	-0.063232422	0.505615234	892.54	-67.21958743	-60.49031989	-128.173033	-62
14255	0	0.264831543	-0.083129883	0.016418457	0.999442101	-0.001552582	0.005173683	0.032939911	6.620788574	-2.07824707	0.410461426	-0.077643513	0.258732221	1.647301549	-1.030517578	0.018310547	0.500244141	892.6	-68.81036509	-56.74121993	-126.5188437	-62
14256	0	0.257025719	-0.098334312	0.006806374	0.99958992	0.002256393	0.005078316	0.028059959	6.425642967	-2.458357811	0.17015934	0.112835063	0.253950427	1.403189373	-1.060058594	0.108642578	0.500244141	892.54	-69.41588595	-53.50717657	-125.4670187	-64
14257	0	0.274780273	-0.086730957	0.010681152	0.999725342	0.007100105	0.005878448	0.021507263	6.869506836	-2.168273926	0.267028809	0.355037668	0.293949253	1.075461316	-1.096679688	0.197265625	0.506347656	892.58	-68.92147801	-50.94761172	-125.0653634	-64
14258	0	0.329734802	-0.077858925	0.006303787	0.999884605	0.002714157	0.005907059	0.01368618	8.243370056	-1.946473122	0.157594681	0.135713048	0.295364238	0.684335191	-1.128662109	0.290039063	0.509033203	892.58	-68.53901944	-49.23229764	-125.1599051	-63
14259	0	0.398681641	-0.105285645	0.019287109	0.999973297	-0.005637169	0.004314423	0.001674652	9.967041016	-2.632141113	0.482177734	-0.281860943	0.215723043	0.083733347	-1.152832031	0.360839844	0.52734375	892.58	-68.73900899	-48.87490219	-125.7516334	-62
14260	0	0.45982933	-0.142923355	0.024951935	0.999881744	-0.006120682	0.003611565	-0.013602257	11.49573326	-3.573083878	0.62379837	-0.306046103	0.180585321	-0.680139539	-1.161376953	0.391601563	0.545166016	892.64	-68.32619094	-50.18575775	-127.2186874	-63
14261	0	0.454162598	-0.153808594	0.038513184	0.999724388	-0.004039764	0.001317024	-0.023071289	11.35406494	-3.845214844	0.96282959	-0.202006752	0.065857253	-1.153670288	-1.165527344	0.374511719	0.549560547	892.58	-67.37190784	-52.59824365	-129.0361329	-65
14262	0	0.565330505	-0.142630577	0.027810097	0.999530792	-0.0089674	-0.00155735	-0.029238701	14.13326263	-3.565764427	0.695252419	-0.448440085	-0.077879683	-1.462163626	-1.163818359	0.330810547	0.553222656	892.54	-66.82695086	-55.78676016	-130.9774774	-62
14263	0	0.367614746	-0.171630859	0.064025879	0.999343872	-0.010272026	-0.006134033	-0.034172058	9.190368652	-4.290771484	1.600646973	-0.51371358	-0.306768707	-1.708976418	-1.16015625	0.245605469	0.557128906	892.64	-66.57862608	-59.69661745	-132.6672833	-66
14264	0	0.357168198	-0.151978493	0.060018539	0.999447823	-0.009074211	-0.011735916	-0.029725075	8.929204941	-3.799462318	1.500463486	-0.453794054	-0.586903797	-1.486527259	-1.146972656	0.151367188	0.566894531	892.52	-67.45382997	-63.39376927	-132.8635221	-65
14265	0	0.401794434	-0.179626465	0.080383301	0.99949646	-0.007777214	-0.013816833	-0.027469635	10.04486084	-4.490661621	2.00958252	-0.388925929	-0.690957555	-1.373712135	-1.122802734	0.067871094	0.583740234	892.64	-69.00386872	-66.94002636	-132.1477053	-65
14266	0	0.341470718	-0.199846268	0.082112312	0.999500275	-0.001170158	-0.011990547	-0.029204369	8.53676796	-4.996156693	2.052807808	-0.058517656	-0.599627129	-1.460461431	-1.098876953	-0.011230469	0.608886719	892.7	-69.38748178	-70.58815235	-131.8887413	-61
14267	0	0.259460449	-0.148620605	0.095947266	0.999669075	-0.003437042	-0.009741783	-0.023529053	6.48651123	-3.715515137	2.398681641	-0.171871031	-0.48714278	-1.17658215	-1.072753906	-0.081787109	0.621826172	892.52	-70.13148743	-73.531014	-131.5285542	-65
14268	0	0.2546978	-0.157151222	0.098807335	0.999769211	-0.013038635	-0.007674217	-0.015207291	6.367444992	-3.928780556	2.470183372	-0.651981772	-0.383740295	-0.76042286	-1.052001953	-0.143554688	0.642822266	892.6	-72.61195958	-75.48446665	-130.5111737	-68
14269	0	0.256347656	-0.178283691	0.078063965	0.999897957	-0.01033783	-0.000590324	-0.009796143	6.408691406	-4.457092285	1.951599121	-0.516908985	-0.02951722	-0.489823717	-1.033691406	-0.194335938	0.648925781	892.58	-72.6917637	-76.59076531	-131.6547	-63
14270	0	0.298550606	-0.186764717	0.095784187	0.999943733	-0.004030228	0.002147675	-0.009506226	7.463765144	-4.669117928	2.394604683	-0.201515119	0.107385719	-0.475320091	-1.029541016	-0.233642578	0.646240234	892.66	-70.61206761	-77.55504112	-134.2667082	-66
14271	0	0.359863281	-0.196960449	0.094604492	0.999939919	-0.001811981	0.000416756	-0.010723114	8.996582031	-4.92401123	2.365112305	-0.090600849	0.020838195	-0.536166285	-1.025878906	-0.262207031	0.645507813	892.6	-68.52812597	-78.69046858	-136.6120561	-70
14272	0	0.461858749	-0.22354126	0.082927704	0.999926567	0.000975609	0.000595093	-0.011986732	11.54646873	-5.588531494	2.073192596	0.04878162	0.029755358	-0.599351108	-1.020019531	-0.294921875	0.65625	892.64	-65.18353291	-79.92003284	-139.9054569	-66
14273	0	0.505310059	-0.228515625	0.073608398	0.999930382	0.005622864	0.002285957	-0.010112762	12.63275146	-5.712890625	1.840209961	0.281149707	0.114300517	-0.505649847	-1.019287109	-0.323242188	0.672851563	892.58	-59.99127251	-80.81403776	-144.5226183	-67
14274	0	0.501560211	-0.19895649	0.071292877	0.999991417	0.003551483	0.001623154	-0.000562668	12.53900528	-4.973912239	1.78232193	0.177574618	0.081157895	-0.028133465	-1.019042969	-0.334228516	0.685058594	892.64	-58.3779109	-80.75307871	-145.7504746	-66
14275	0	0.521728516	-0.270690918	0.112548828	0.99982357	0.017158508	-0.00316906	0.006820679	13.04321289	-6.767272949	2.813720703	0.857975609	-0.158462258	0.341053888	-1.022460938	-0.318603516	0.712402344	892.6	-60.63883233	-80.23267322	-141.4743118	-66
14276	0	0.438557625	-0.154983521	0.024353981	0.999442101	0.026337624	0.003913879	0.02014637	10.96394062	-3.874588013	0.608849525	1.317125993	0.19573035	1.007505761	-1.021728516	-0.244140625	0.757568359	892.66	-61.38502166	-77.96080902	-137.6446676	-66
14277	0	0.435241699	-0.085266113	0.014160156	0.999059677	0.014489174	0.01354599	0.038543701	10.88104248	-2.131652832	0.354003906	0.724685768	0.677511792	1.927789115	-1.034423828	-0.112548828	0.773193359	892.66	-62.48228783	-73.29799623	-134.7866722	-63
14278	0	0.44299221	-0.11428833	0.014629364	0.99888134	0.003822327	0.017469406	0.043763161	11.07480526	-2.857208252	0.3657341	0.191187596	0.873796002	2.188973947	-1.052246094	0.046875	0.729736328	892.52	-63.45080745	-67.88843065	-133.272122	-63
14279	0	0.346130371	-0.090942383	0.014099121	0.998827934	-0.006977081	0.01661396	0.044914246	8.653259277	-2.27355957	0.352478027	-0.348990378	0.831022604	2.246589779	-1.049804688	0.190185547	0.65234375	892.6	-65.34729658	-62.39511907	-132.04586	-61
14280	0	0.272955894	-0.054210663	0.032806396	0.998411179	-0.020669937	0.010113716	0.051421165	6.823897362	-1.355266571	0.820159912	-1.034044302	0.505953669	2.572420168	-1.029296875	0.291503906	0.568847656	892.64	-69.721151	-56.48120906	-129.7254455	-61
14281	0	0.247070313	-0.081298828	0.004394531	0.998168945	-0.028964043	0.009384155	0.052249908	6.176757813	-2.032470703	0.109863281	-1.449086276	0.46949422	2.614090378	-0.999267578	0.373046875	0.520751953	892.64	-74.17296806	-50.43496129	-128.3332748	-63
14282	0	0.238764763	-0.120770454	0.014164925	0.998810768	-0.015478134	0.009260178	0.045280457	5.969119072	-3.01926136	0.354123116	-0.774213457	0.463192401	2.264920205	-0.973632813	0.4375	0.497070313	892.52	-76.28031206	-45.13211875	-127.8989571	-62
14283	0	0.283874512	-0.108581543	0.004455566	0.999391556	0.006306648	0.007286072	0.033500671	7.096862793	-2.714538574	0.11138916	0.315396311	0.36437741	1.675372993	-0.946044922	0.512695313	0.478027344	892.52	-75.67559671	-41.19837795	-127.7384882	-60
14284	0	0.372253418	-0.100914001	0.007196426	0.999809265	0.012559891	0.004090309	0.014335632	9.306335449	-2.522850037	0.17991066	0.628034316	0.204528412	0.716827019	-0.920898438	0.590087891	0.450439453	892.6	-74.22079372	-39.49517172	-127.7736725	-60
14285	0	0.441162109	-0.122802734	0.002441406	0.999913216	0.008983612	0.00167942	-0.009437561	11.02905273	-3.070068359	0.061035156	0.449193525	0.083973439	-0.471891627	-0.908203125	0.633056641	0.420654297	892.6	-72.78716179	-40.49586257	-128.4140518	-63
14286	0	0.408699989	-0.138658524	0.019739151	0.999670982	0.004896164	-0.001960754	-0.025076866	10.21749973	-3.466463089	0.493478775	0.244834998	-0.098048453	-1.253980574	-0.923583984	0.626953125	0.385009766	892.58	-71.63871395	-43.33034351	-129.3045649	-64
14287	0	0.536437988	-0.149475098	0.018676758	0.999329567	0.001197815	-0.004889488	-0.036243439	13.41094971	-3.736877441	0.466918945	0.05990412	-0.244529	-1.812576575	-0.956298828	0.58203125	0.364746094	892.58	-70.68810823	-47.48647202	-130.45665	-65
14288	0	0.410288811	-0.176264763	0.049734116	0.998990059	-0.001872063	-0.009410858	-0.043888092	10.25722027	-4.406619072	1.24335289	-0.093634648	-0.470701329	-2.19514341	-0.999511719	0.502685547	0.362304688	892.64	-70.10900714	-52.63763856	-131.5026502	-63
14289	0	0.391967773	-0.183410645	0.071105957	0.99886322	9.63E-05	-0.018222809	-0.044044495	9.799194336	-4.585266113	1.777648926	0.004817881	-0.911485813	-2.203059493	-1.040039063	0.403808594	0.381103516	892.66	-70.48921569	-58.1481725	-131.0444304	-63
14290	0	0.398182869	-0.232316971	0.153017998	0.998550415	0.015616417	-0.031575203	-0.040678978	9.954571724	-5.807924271	3.825449944	0.781198168	-1.579523063	-2.034931779	-1.057617188	0.306640625	0.421386719	892.66	-72.19497454	-63.77828162	-127.0694708	-63
14291	0	0.33203125	-0.169616699	0.091430664	0.998717308	0.02135849	-0.02968502	-0.034999847	8.30078125	-4.24041748	2.285766602	1.068381097	-1.484885622	-1.75074059	-1.055664063	0.234863281	0.478271484	892.64	-74.54908438	-68.64892834	-121.8416017	-60
14292	0	0.245637894	-0.093420982	0.067799568	0.999566078	0.003243446	-0.015552521	-0.02478981	6.140947342	-2.335524559	1.694989204	0.162195759	-0.77773844	-1.239669672	-1.044677734	0.176025391	0.525146484	892.58	-77.06325567	-71.88722519	-118.788706	-63
14293	0	0.24432373	-0.151977539	0.091552734	0.999738693	-0.012763023	-0.005577087	-0.018089294	6.108093262	-3.799438477	2.288818359	-0.638206618	-0.2788786	-0.904543311	-1.042480469	0.1171875	0.546875	892.66	-79.18025672	-74.08786422	-118.1135301	-63
14294	0	0.275541306	-0.202973366	0.111271858	0.999833107	-0.004125595	-0.001838684	-0.017701149	6.888532639	-5.074334145	2.781796455	-0.20629123	-0.091939318	-0.885106685	-1.049804688	0.060791016	0.560546875	892.64	-78.9752665	-76.15230617	-118.8224761	-76
14295	0	0.313903809	-0.188964844	0.100952148	0.999802589	0.002948761	-0.001631737	-0.019577026	7.847595215	-4.724121094	2.523803711	0.147447748	-0.081592205	-0.978915708	-1.054931641	0.012939453	0.564697266	892.66	-77.38214543	-78.41233285	-120.1146955	-73
14296	0	0.410196304	-0.216351509	0.103942871	0.99976635	0.000741005	-0.002168655	-0.02148056	10.25490761	-5.408787727	2.598571777	0.037053129	-0.108441205	-1.074111568	-1.059814453	-0.036865234	0.569091797	892.64	-75.39171959	-80.88111537	-122.0550765	-67
14297	0	0.505432129	-0.237243652	0.089416504	0.999821663	0.003444672	0.00106144	-0.018489838	12.63580322	-5.931091309	2.235412598	0.17224377	0.053075115	-0.92454657	-1.060058594	-0.089111328	0.581787109	892.54	-69.63352739	-82.87549231	-127.4753137	-66
14298	0	0.471108437	-0.175146103	0.053894997	0.999960899	-0.000677109	0.007177353	-0.004944801	11.77771091	-4.378652573	1.347374916	-0.033855869	0.358872216	-0.247243216	-1.063232422	-0.130371094	0.588378906	892.54	-61.64198449	-83.05278993	-135.6093792	-69
14299	0	0.55065918	-0.225524902	0.118347168	0.999959946	-0.003088951	0.001911163	0.008144379	13.76647949	-5.638122559	2.958679199	-0.154449603	0.095559433	0.407224331	-1.069335938	-0.147705078	0.581542969	892.66	-63.70141463	-82.11298166	-133.8949729	-71
14300	0	0.519360542	-0.20408535	0.056238174	0.999792099	0.009653091	0.005671501	0.017028809	12.98401356	-5.102133751	1.405954361	0.482687988	0.283594691	0.851499379	-1.067871094	-0.134521484	0.600341797	892.64	-64.26441334	-80.05775634	-132.2129577	-66
14301	0	0.425170898	-0.095153809	0.00402832	0.99928093	0.001675606	0.01619339	0.034229279	10.62927246	-2.378845215	0.100708008	0.083800363	0.809863492	1.711873997	-1.074707031	-0.084228516	0.604980469	892.64	-64.19365942	-75.70144718	-132.0957067	-67
14302	0	0.448765755	-0.085165977	0.035927773	0.998625755	-0.007932663	0.019147873	0.048127174	11.21914387	-2.129149437	0.898194313	-0.396814885	0.957832323	2.407461309	-1.087402344	-0.000976563	0.590332031	892.64	-66.12719658	-69.7576152	-131.0300963	-67
14303	0	0.353942871	-0.114440918	0.013916016	0.998639107	-0.013839722	0.019223213	0.046447754	8.848571777	-2.861022949	0.347900391	-0.692299991	0.961596673	2.323441206	-1.09375	0.099609375	0.573974609	892.6	-67.82893838	-63.98240814	-130.9064184	-67
14304	0	0.271990776	-0.104849815	0.001551628	0.998920441	-0.013519287	0.017697334	0.040759087	6.799769402	-2.621245384	0.038790703	-0.676207631	0.885185173	2.038687779	-1.094238281	0.184326172	0.541503906	892.76	-69.0616051	-58.88128432	-131.2701197	-64
14305	0	0.22277832	-0.098083496	0.029907227	0.999189377	-0.003623009	0.010139465	0.038772583	5.569458008	-2.452087402	0.747680664	-0.18119936	0.507110186	1.939152719	-1.089599609	0.249511719	0.515869141	892.64	-70.16982371	-54.30211211	-130.4476502	-67
14306	0	0.271901131	-0.102184296	0.017197609	0.999376297	0.007155418	0.003199577	0.034425735	6.797528267	-2.554607391	0.429940224	0.357845293	0.160012123	1.721644591	-1.084716797	0.305908203	0.505371094	892.64	-70.61897105	-50.45772157	-128.8554049	-68
14307	0	0.31451416	-0.082214355	-0.010437012	0.999582291	0.009945869	0.003967285	0.026809692	7.862854004	-2.055358887	-0.260925293	0.497362574	0.198391822	1.340670887	-1.084960938	0.358398438	0.515380859	892.66	-70.17319859	-47.41401905	-127.945699	-68
14308	0	0.350273132	-0.08148098	0.000749588	0.999811172	0.004489899	0.004710197	0.01830864	8.756828308	-2.037024498	0.0187397	0.224509063	0.235524694	0.91548959	-1.091552734	0.400146484	0.526367188	892.66	-69.88269703	-45.27020273	-127.6482269	-69
14309	0	0.443481445	-0.09942627	0.011657715	0.999979019	-0.001425743	0.002941132	0.005550385	11.08703613	-2.485656738	0.291442871	-0.071287648	0.147057596	0.277521145	-1.108886719	0.418457031	0.548583984	892.6	-69.95442137	-44.58180859	-127.7912481	-69
14310	0	0.435240746	-0.129043579	0.042547226	0.99996376	-0.002749443	0.000657082	-0.008010864	10.88101864	-3.226089478	1.063680649	-0.137473806	0.032854475	-0.400548031	-1.132324219	0.404052734	0.582275391	892.64	-69.88938599	-45.45334215	-128.3407171	-69
14311	0	0.587524414	-0.100402832	0.001220703	0.99984169	-0.005270958	-0.000801086	-0.016929626	14.68811035	-2.510070801	0.030517578	-0.263561737	-0.040056425	-0.846525775	-1.161621094	0.361816406	0.618652344	892.64	-69.89067672	-47.35880814	-129.18504	-71
14312	0	0.458589554	-0.162859917	0.080299377	0.999454498	-0.011829376	-0.004294395	-0.030529976	11.46473885	-4.071497917	2.007484436	-0.591576359	-0.214758815	-1.526776361	-1.185058594	0.29296875	0.662597656	892.66	-70.41298492	-50.87727381	-130.2901291	-72
14313	0	0.366516113	-0.16986084	0.088256836	0.999236107	-0.005508423	-0.015082359	-0.035614014	9.162902832	-4.246520996	2.206420898	-0.275491248	-0.754309917	-1.781153939	-1.196044922	0.195800781	0.728027344	892.66	-71.44546816	-55.36325416	-129.7938241	-66
14314	0	0.390172958	-0.150856018	0.086484909	0.9992733	-0.003287315	-0.019318581	-0.032692909	9.754323959	-3.771400452	2.162122726	-0.164405594	-0.966163075	-1.635041534	-1.186523438	0.102050781	0.803466797	892.58	-73.35754841	-59.67090977	-127.9820157	-70
14315	0	0.34185791	-0.180908203	0.09765625	0.999359131	0.001610756	-0.017280579	-0.031299591	8.546447754	-4.522705078	2.44140625	0.080554999	-0.86421349	-1.565313837	-1.152099609	0.02734375	0.87890625	892.6	-74.88581273	-63.72818804	-126.0367304	-67
14316	0	0.244148254	-0.143126488	0.090466499	0.999490738	-0.0007267	-0.011481285	-0.029740334	6.10370636	-3.578162193	2.261662483	-0.036341152	-0.574161587	-1.487268802	-1.122558594	-0.031982422	0.944824219	892.72	-75.87115825	-67.4196082	-125.0349777	-61
14317	0	0.238464355	-0.153198242	0.099365234	0.999551773	-0.00947094	-0.007553101	-0.027359009	5.961608887	-3.829956055	2.484130859	-0.473617669	-0.377711402	-1.368154634	-1.097412109	-0.100097656	0.997558594	892.6	-77.23588512	-70.72665888	-124.7210541	-58
14318	0	0.268784523	-0.191112518	0.091959	0.99960041	-0.006954193	-0.001441956	-0.027347565	6.719613075	-4.777812958	2.298974991	-0.347755937	-0.072107375	-1.367560237	-1.071533203	-0.174804688	1.036376953	892.64	-76.25595896	-73.86510116	-126.5737294	-57
14319	0	0.282714844	-0.194335938	0.092834473	0.999573708	-0.003261566	0.002736092	-0.02885437	7.067871094	-4.858398438	2.320861816	-0.163101439	0.136823985	-1.442923137	-1.057861328	-0.23828125	1.074951172	892.54	-71.92267718	-77.00348866	-131.422722	-55
14320	0	0.359239578	-0.225070953	0.105133057	0.999577522	-0.003525734	0.001750946	-0.028787613	8.980989456	-5.626773834	2.628326416	-0.176311511	0.087559625	-1.439583249	-1.041992188	-0.299560547	1.11328125	892.64	-65.39140433	-80.03973607	-138.4860456	-57
14321	0	0.472351074	-0.24609375	0.085327148	0.999670982	-0.002235413	0.003487587	-0.025276184	11.80877686	-6.15234375	2.133178711	-0.111782855	0.174398421	-1.263947431	-1.01953125	-0.354492188	1.162109375	892.7	-53.78120737	-82.36589326	-150.4822442	-57
14322	0	0.503735542	-0.22608757	0.066065788	0.999839783	-0.005820274	0.008528709	-0.014582634	12.59338856	-5.652189255	1.651644707	-0.291029205	0.426458165	-0.729170502	-1.009765625	-0.385009766	1.215332031	892.58	-39.87423684	-82.92533072	-165.1686353	-57
14323	0	0.520202637	-0.191467285	0.077270508	0.999814987	-0.017935753	0.006126404	0.003089905	13.00506592	-4.786682129	1.931762695	-0.896842771	0.306339021	0.154504736	-1.01953125	-0.393310547	1.253417969	892.6	-40.42690497	-82.15668079	-166.6776267	-58
14324	0	0.598317146	-0.275644302	0.096466064	0.999874115	-0.006820679	0.000342369	0.014286995	14.95792866	-6.891107559	2.411651611	-0.34104819	0.017119169	0.714379605	-1.032714844	-0.372802734	1.298095703	892.66	-48.83048252	-80.9644248	-158.9668861	-58
14325	0	0.421508789	-0.177978516	0.015319824	0.99955368	0.007031441	0.006893158	0.028198242	10.53771973	-4.449462891	0.382995605	0.351624331	0.344709163	1.410121823	-1.044921875	-0.273681641	1.353271484	892.7	-55.32081448	-77.90909189	-151.5380566	-57
14326	0	0.39983654	-0.102767944	0.040289879	0.998794556	0.008206367	0.006052971	0.04801178	9.995913506	-2.569198608	1.007246971	0.410483304	0.302770195	2.401553918	-1.073974609	-0.098144531	1.385986328	892.64	-62.90953804	-72.80041835	-142.7164335	-58
14327	0	0.408630371	-0.106933594	0.033325195	0.998488426	0.005126953	0.004696846	0.054515839	10.21575928	-2.673339844	0.833129883	0.256476874	0.234960678	2.727165928	-1.076660156	0.12890625	1.390136719	892.58	-68.04581414	-66.87007106	-136.6042569	-58
14328	0	0.314994812	-0.126952171	0.022577286	0.998819351	0.002679825	0.004443169	0.048291206	7.8748703	-3.173804283	0.564432144	0.134043978	0.222245869	2.415510637	-1.04296875	0.334960938	1.371582031	892.64	-70.7713641	-61.49538751	-133.2163419	-56
14329	0	0.273864746	-0.099853516	0.023071289	0.999046326	0.007718086	0.002635956	0.042877197	6.846618652	-2.496337891	0.576782227	0.38602694	0.131839672	2.144541113	-0.989013672	0.51171875	1.328369141	892.64	-72.02346785	-56.7315186	-130.7143579	-56
14330	0	0.250337601	-0.083926201	0.019008636	0.999178886	0.011291504	-1.53E-05	0.038897514	6.258440018	-2.098155022	0.475215912	0.564729675	-0.000763148	1.945407876	-0.917724609	0.672363281	1.268798828	892.7	-72.63183493	-52.47865824	-128.3746508	-60
14331	0	0.291809082	-0.090698242	0.005432129	0.999403	0.013344765	0.000366211	0.031852722	7.295227051	-2.267456055	0.135803223	0.667370955	0.018314189	1.592952898	-0.837890625	0.798095703	1.205810547	892.7	-72.39256881	-48.98496765	-126.706126	-60
14332	0	0.311061859	-0.06333828	-0.006221771	0.999623299	0.013173103	0.003133774	0.023857117	7.776546478	-1.583456993	-0.155544281	0.658737802	0.156708349	1.193005492	-0.765869141	0.893066406	1.125732422	892.7	-71.43868064	-46.28374106	-125.9546814	-56
14333	0	0.372924805	-0.078979492	0.012084961	0.999900818	0.004567146	0.002765656	0.012992859	9.323120117	-1.974487305	0.302124023	0.228364826	0.138287324	0.649664311	-0.708984375	0.954101563	1.060791016	892.66	-71.09763195	-44.79126453	-125.7005178	-55
14334	0	0.459115982	-0.101359367	0.004088402	0.999992371	-0.000809669	0.003006935	-0.002232552	11.47789955	-2.533984184	0.102210045	-0.040483574	0.150347124	-0.111627852	-0.673339844	0.967773438	1.000732422	892.64	-70.78575936	-44.95264781	-126.2754318	-57
14335	0	0.413635254	-0.126708984	0.028320313	0.999867439	-0.005722046	0.002869606	-0.014930725	10.34088135	-3.167724609	0.708007813	-0.28611488	0.143486612	-0.746569094	-0.671630859	0.941162109	0.960205078	892.64	-70.54480779	-46.50006775	-127.5296968	-56
14336	0	0.529279709	-0.115222931	0.016327858	0.999739647	-0.008034706	-0.001615524	-0.021260262	13.23199272	-2.880573273	0.408196449	-0.401770075	-0.080783206	-1.063105078	-0.689941406	0.889160156	0.931396484	892.66	-70.77328423	-48.91560645	-128.4727909	-59
14337	0	0.460449219	-0.162963867	0.057739258	0.999377251	-0.013465881	-0.005805016	-0.032093048	11.51123047	-4.07409668	1.443481445	-0.673433853	-0.290311039	-1.604985555	-0.717041016	0.818115234	0.921630859	892.64	-71.63691292	-52.67502788	-129.3568947	-57
14338	0	0.389852524	-0.165801048	0.057291031	0.999202728	-0.011574745	-0.012869835	-0.035963058	9.746313095	-4.145026207	1.432275772	-0.578891019	-0.643662709	-1.79863066	-0.755126953	0.721191406	0.928710938	892.7	-73.19219868	-57.11666043	-129.0980955	-60
14339	0	0.387207031	-0.169311523	0.080505371	0.999225616	-0.007834435	-0.01733017	-0.034420013	9.680175781	-4.232788086	2.012634277	-0.391822759	-0.866731975	-1.721444554	-0.772460938	0.628173828	0.945800781	892.66	-75.51938786	-61.51972486	-127.4628258	-66
14340	0	0.343084335	-0.217857361	0.110837936	0.999142647	0.004103661	-0.020748138	-0.03558445	8.577108383	-5.446434021	2.77094841	0.205241674	-1.03770343	-1.77973102	-0.778564453	0.543457031	0.964355469	892.62	-77.8408032	-66.10246247	-124.3839542	-63
14341	0	0.258972168	-0.166870117	0.085327148	0.999231339	0.009186745	-0.017971039	-0.033588409	6.474304199	-4.17175293	2.133178711	0.459454871	-0.89878206	-1.67985057	-0.773925781	0.484375	0.971923828	892.58	-79.99137799	-70.33797102	-120.9601922	-66
14342	0	0.274506569	-0.163543701	0.116102219	0.999483109	-0.000163078	-0.015345573	-0.028227806	6.862664223	-4.088592529	2.902555466	-0.008155319	-0.767410746	-1.411633252	-0.769287109	0.4296875	0.973144531	892.6	-83.99767416	-73.84329277	-116.7881969	-66
14343	0	0.291320801	-0.191467285	0.087463379	0.999676704	-0.003520966	-0.00713253	-0.024112701	7.28302002	-4.786682129	2.186584473	-0.1760672	-0.356664841	-1.205764652	-0.759765625	0.368408203	0.983398438	892.66	-86.62810163	-76.71259291	-114.498617	-69
14344	0	0.295095444	-0.212859154	0.084169388	0.999753952	0.002603531	0.001122475	-0.021996498	7.377386093	-5.321478844	2.104234695	0.130187219	0.056128336	-1.09991509	-0.759521484	0.311523438	0.970947266	892.64	-84.80742714	-79.2563946	-116.0672362	-65
14345	0	0.345336914	-0.20501709	0.100097656	0.999821663	0.006397247	0.001381874	-0.017700195	8.633422852	-5.125427246	2.502441406	0.319881354	0.069097806	-0.885062304	-0.769042969	0.268066406	0.949462891	892.58	-81.69069671	-81.28330315	-118.4966649	-63
14346	0	0.451618195	-0.206467628	0.075458527	0.999928474	0.00308609	0.000720978	-0.011451721	11.29045486	-5.161690712	1.886463165	0.154308136	0.036049737	-0.572599534	-0.776611328	0.235351563	0.932617188	892.58	-79.10213779	-82.58579856	-120.7616848	-68
14347	0	0.501281738	-0.194152832	0.046264648	0.999972343	-0.002826691	0.005848885	-0.003429413	12.53204346	-4.853820801	1.156616211	-0.141335805	0.292446859	-0.171472184	-0.777099609	0.198242188	0.915771484	892.58	-73.47184879	-82.82273501	-126.7706841	-69
14348	0	0.538058281	-0.203654289	0.057434082	0.999946594	-0.007175446	0.005255699	0.005171776	13.45145702	-5.091357231	1.435852051	-0.358778608	0.262789594	0.258593353	-0.791503906	0.159423828	0.891357422	892.6	-71.18528299	-82.07987497	-129.9129045	-72
14349	0	0.587402344	-0.249450684	0.062561035	0.999923706	0.007611275	0.00270462	0.009284973	14.68505859	-6.23626709	1.564025879	0.380573343	0.135234432	0.464260377	-0.801757813	0.133544922	0.885498047	892.6	-70.57441218	-80.96877187	-129.6584426	-71
14350	0	0.37953949	-0.12051487	-0.008918762	0.999584198	0.012570381	0.009495735	0.024128914	9.488487244	-3.012871742	-0.222969055	0.628606077	0.474852493	1.206612726	-0.823242188	0.142822266	0.877197266	892.64	-68.73962797	-77.99092002	-130.0700844	-65
14351	0	0.371398926	-0.066345215	0.024169922	0.999018669	0.00276947	0.008065224	0.043441772	9.284973145	-1.658630371	0.604248047	0.138518783	0.403393027	2.172798764	-0.855224609	0.189697266	0.863769531	892.6	-71.54605953	-72.98560635	-126.8555648	-58
14352	0	0.4077425	-0.09759903	0.014528275	0.998806	-0.003498077	0.007821083	0.04808712	10.19356251	-2.439975739	0.363206863	-0.174973491	0.391209815	2.405313074	-0.874755859	0.262207031	0.870361328	892.64	-74.06287648	-67.44994302	-124.6155338	-60
14353	0	0.322814941	-0.110046387	-0.010681152	0.999053001	-0.008495331	0.01113987	0.041172028	8.070373535	-2.751159668	-0.267028809	-0.424900555	0.557169217	2.059250873	-0.89453125	0.34375	0.867675781	892.6	-75.06884206	-62.55955959	-124.5824937	-74
14354	0	0.269796371	-0.082154274	0.004937172	0.999207497	-0.004270554	0.00985527	0.038312912	6.744909286	-2.05385685	0.123429298	-0.213584064	0.492893639	1.916151449	-0.906982422	0.422607422	0.861816406	892.6	-75.57755171	-58.0268145	-124.5622029	-71
14355	0	0.258728027	-0.076965332	0.004272461	0.999363899	-6.10E-05	0.005677223	0.035190582	6.468200684	-1.924133301	0.106811523	-0.003052404	0.283921308	1.75990194	-0.903320313	0.507324219	0.848876953	892.58	-76.10058181	-53.96232043	-123.9419041	-72
14356	0	0.291292191	-0.08686161	-0.008145332	0.999611855	0.003878593	0.003955841	0.027300835	7.282304764	-2.17154026	-0.203633308	0.193954763	0.197817644	1.365218346	-0.887939453	0.591796875	0.835449219	892.58	-76.05474056	-50.82728628	-123.4410078	-70
14357	0	0.31640625	-0.080749512	-0.009887695	0.999817848	0.007572174	0.0043993	0.016902924	7.91015625	-2.018737793	-0.247192383	0.378631575	0.219978269	0.845197234	-0.869384766	0.656494141	0.814941406	892.7	-75.17425314	-48.84374406	-123.4605871	-72
14358	0	0.37298584	-0.084411621	-0.010192871	0.999976158	0.001571655	0.005203247	0.004196167	9.324645996	-2.110290527	-0.254821777	0.078583381	0.260164398	0.209809998	-0.856933594	0.699707031	0.796630859	892.58	-74.48328715	-48.25069646	-124.1438813	-54
14359	0	0.420992851	-0.110491753	-0.011566162	0.999903679	-0.007242203	0.006539345	-0.009732246	10.52482128	-2.762293816	-0.289154053	-0.362121601	0.32697759	-0.486627725	-0.856933594	0.706054688	0.781738281	892.64	-74.14890762	-49.15882902	-125.6919753	-60
14360	0	0.429583549	-0.166631699	0.027335167	0.999729156	-0.004938126	0.003882408	-0.022403717	10.73958874	-4.165792465	0.683379173	-0.246928564	0.194137927	-1.120286952	-0.881103516	0.671875	0.780273438	892.7	-73.3315195	-51.54329356	-127.4861897	-54
14361	0	0.575927734	-0.171386719	0.011962891	0.999444962	4.77E-06	-0.00062561	-0.033290863	14.39819336	-4.284667969	0.299072266	0.000238463	-0.0312863	-1.664850878	-0.909179688	0.624755859	0.765625	892.64	-71.88656207	-55.26079217	-129.2812754	-55
14362	0	0.423049927	-0.191696167	0.043669701	0.999180794	-0.001508713	-0.003631592	-0.040270805	10.57624817	-4.792404175	1.091742516	-0.075456238	-0.181629173	-2.014090102	-0.943115234	0.549560547	0.750976563	892.6	-70.32462038	-59.82074733	-131.336895	-55
14363	0	0.366271973	-0.162963867	0.063781738	0.99939537	-0.002573967	-0.011009216	-0.032863617	9.156799316	-4.07409668	1.594543457	-0.128724271	-0.550571688	-1.643511812	-0.972412109	0.467529297	0.756347656	892.58	-70.47207793	-63.8499797	-131.5164143	-53
14364	0	0.39852047	-0.145097733	0.07934761	0.999673843	-0.000574112	-0.015971184	-0.019875526	9.963011742	-3.627443314	1.983690262	-0.02870871	-0.798645784	-0.993884086	-0.974365234	0.40234375	0.764648438	892.58	-72.7363089	-66.64743974	-129.1183323	-51
14365	0	0.331298828	-0.172546387	0.077148438	0.999769211	-0.005427361	-0.012817383	-0.016311646	8.282470703	-4.313659668	1.928710938	-0.271388827	-0.640918264	-0.815644791	-0.961425781	0.358398438	0.787353516	892.54	-75.55820756	-68.90200334	-126.7545283	-52
14366	0	0.261558533	-0.145669937	0.078001976	0.999836922	-0.009708405	-0.007541656	-0.013159752	6.538963318	-3.641748428	1.9500494	-0.485446469	-0.37710321	-0.658023165	-0.955078125	0.314697266	0.804931641	892.66	-78.00648187	-70.61865341	-125.3385781	-58
14367	0	0.263061523	-0.168945313	0.080627441	0.999873161	-0.010284424	-0.003119469	-0.011703491	6.576538086	-4.223632813	2.015686035	-0.514242832	-0.155979998	-0.585199187	-0.948730469	0.272949219	0.808105469	892.6	-79.42912359	-72.04940891	-125.0864315	-59
14368	0	0.262268066	-0.184145927	0.070591927	0.999908447	-0.001943588	0.00058651	-0.013316154	6.55670166	-4.603648186	1.764798164	-0.097182352	0.029326372	-0.66582786	-0.949462891	0.236083984	0.805419922	892.58	-78.46701852	-73.57357992	-126.3317639	-60
14369	0	0.294616699	-0.179016113	0.074707031	0.999879837	0.002995491	0.001216888	-0.015159607	7.36541748	-4.475402832	1.867675781	0.14978055	0.060846858	-0.758010703	-0.959716797	0.205566406	0.791259766	892.64	-76.2311123	-75.27145468	-128.3015073	-64
14370	0	0.345006943	-0.188552856	0.069987297	0.999885559	0.001383781	0.000571251	-0.015022278	8.625173569	-4.713821411	1.749682426	0.0691917	0.028563631	-0.751142426	-0.965332031	0.177490234	0.782470703	892.72	-73.97322589	-76.94512025	-130.4672592	-69
14371	0	0.421081543	-0.203491211	0.055053711	0.999916077	0.001221657	0.002643585	-0.01260376	10.52703857	-5.087280273	1.376342773	0.061084544	0.132182947	-0.630205565	-0.970703125	0.149169922	0.765380859	892.6	-70.45045055	-78.24817766	-133.9341795	-60
14372	0	0.46309948	-0.198210716	0.057682037	0.999972343	0.000206947	0.003976822	-0.006235123	11.57748699	-4.955267906	1.442050934	0.010347461	0.198842909	-0.311758978	-0.978759766	0.127441406	0.741943359	892.66	-66.99247709	-78.76185896	-137.4425203	-60
14373	0	0.459472656	-0.16192627	0.053039551	0.999941826	-0.009349823	0.002015114	0.004943848	11.48681641	-4.048156738	1.32598877	-0.467500182	0.100757638	0.247197159	-0.989501953	0.114501953	0.720703125	892.66	-68.01339656	-78.15864564	-137.497885	-66
14374	0	0.549621582	-0.250553131	0.089458466	0.999940872	-0.000681877	-0.003239632	0.010306358	13.74053955	-6.263828278	2.236461639	-0.034094523	-0.161984746	0.515327982	-0.991455078	0.110107422	0.704101563	892.64	-71.49608415	-77.18005715	-134.0180451	-66
14375	0	0.432434082	-0.158203125	0.007141113	0.999732018	0.01374054	0.003441811	0.0182724	10.81085205	-3.955078125	0.178527832	0.687088198	0.172105865	0.913701407	-0.994384766	0.136230469	0.679443359	892.66	-71.0856283	-75.06942196	-132.8249454	-64
14376	0	0.424254417	-0.08792305	0.019177437	0.999415398	0.006510735	0.007066727	0.03279686	10.60636044	-2.198076248	0.479435921	0.32560013	0.353405151	1.640162367	-1.000488281	0.186279297	0.641357422	892.6	-71.73020643	-71.24887919	-131.3789205	-73
14377	0	0.444824219	-0.099975586	0.020935059	0.99924469	-0.000277519	0.006511688	0.038299561	11.12060547	-2.499389648	0.523376465	-0.013879454	0.32566637	1.915460079	-0.998046875	0.251464844	0.607421875	892.6	-73.3223189	-66.84050222	-129.7155567	-62
14378	0	0.341448784	-0.0906744	0.004078865	0.999286652	-0.006846428	0.006016731	0.036647797	8.536219597	-2.266860008	0.101971626	-0.342402814	0.300908115	1.832825651	-0.98828125	0.309814453	0.576660156	892.6	-75.10711941	-62.61722141	-128.6165346	-58
14379	0	0.303955078	-0.090332031	0.019042969	0.999378204	-0.003367424	0.002029419	0.035015106	7.598876953	-2.258300781	0.476074219	-0.168406059	0.101491955	1.751117778	-0.973632813	0.359375	0.551757813	892.7	-76.8122096	-58.67690502	-127.110325	-56
14380	0	0.303792	-0.088686943	0.019213676	0.999504089	0.006908417	-0.001868248	0.030653	7.594799995	-2.217173576	0.480341911	0.345477905	-0.093427832	1.532903204	-0.954345703	0.406494141	0.541259766	892.66	-77.53388585	-55.31259698	-125.3124283	-54
14381	0	0.306884766	-0.078186035	-0.000915527	0.999685287	0.008633614	-0.001255035	0.023506165	7.672119141	-1.954650879	-0.022888184	0.431725922	-0.062758347	1.175431406	-0.930419922	0.453613281	0.521972656	892.54	-77.53324731	-52.73272791	-124.0971067	-53
14382	0	0.310857773	-0.084014893	0.005238533	0.999861717	0.004831314	0.001602173	0.015791893	7.771444321	-2.100372314	0.130963326	0.241576789	0.080112319	0.789630883	-0.915039063	0.481445313	0.510253906	892.64	-77.25057889	-50.95199849	-123.7594558	-51
14383	0	0.323242188	-0.108520508	0.020507813	0.99997139	0.000836372	0.002944946	0.006847382	8.081054688	-2.713012695	0.512695313	0.041819011	0.147248695	0.34237229	-0.915039063	0.489990234	0.500976563	892.6	-76.96459387	-50.14271542	-124.0132555	-50
14384	0	0.352579117	-0.115112305	0.011912346	0.999972343	-0.004509926	0.00573349	-0.000540733	8.814477921	-2.877807617	0.297808647	-0.225498303	0.286677056	-0.027036908	-0.924072266	0.479492188	0.499511719	892.6	-76.69642501	-50.09062879	-125.0440437	-51
14385	0	0.366516113	-0.132568359	0.016052246	0.999909401	-0.008556366	0.00760746	-0.007068634	9.162902832	-3.314208984	0.401306152	-0.427831209	0.38038448	-0.353442367	-0.943847656	0.451660156	0.502929688	892.56	-76.42143436	-50.71915635	-126.6811491	-58
14386	0	0.363061905	-0.172691345	0.037793159	0.999872208	-0.004225731	0.004681587	-0.014655113	9.076547623	-4.31728363	0.944828987	-0.21129551	0.234089293	-0.732786751	-0.972412109	0.406982422	0.505126953	892.64	-75.7387961	-52.26734921	-128.181611	-64
14387	0	0.460693359	-0.156860352	0.027709961	0.999827385	0.002147675	-0.00026226	-0.018451691	11.51733398	-3.921508789	0.692749023	0.107389906	-0.013113776	-0.922637613	-0.993896484	0.359619141	0.515869141	892.66	-74.80406689	-54.37393869	-129.0500837	-68
14388	0	0.497057915	-0.16865921	0.030105591	0.999660492	-0.003078461	0.000823021	-0.025837898	12.42644787	-4.216480255	0.752639771	-0.153940427	0.041155697	-1.292040888	-1.015380859	0.308105469	0.529785156	892.66	-73.83727552	-57.25982288	-130.6482993	-60
14389	0	0.338256836	-0.164306641	0.036193848	0.999564171	-0.012050629	0.000374794	-0.026935577	8.456420898	-4.107666016	0.904846191	-0.602618923	0.018742421	-1.346974428	-1.033447266	0.236816406	0.536621094	892.64	-73.71745482	-60.2730118	-132.4076895	-54
14390	0	0.335148811	-0.166623116	0.080938339	0.999721527	-0.011126518	-0.007569313	-0.019371986	8.378720284	-4.165577888	2.023458481	-0.556377512	-0.378500756	-0.968689158	-1.044677734	0.161132813	0.560546875	892.6	-75.42824361	-62.70369906	-131.9253987	-52
14391	0	0.390869141	-0.221313477	0.084350586	0.999742508	0.002861977	-0.014053345	-0.017566681	9.771728516	-5.532836914	2.108764648	0.143111099	-0.702727478	-0.878409347	-1.036132813	0.110839844	0.58984375	892.6	-77.30891946	-65.09750541	-129.4803291	-49
14392	0	0.347387314	-0.188409805	0.066361427	0.999698639	0.01117897	-0.011693001	-0.018452644	8.684682846	-4.710245132	1.659035683	0.559004631	-0.584708735	-0.922724843	-1.021484375	0.077880859	0.631591797	892.66	-77.96013917	-67.50496451	-127.3762531	-48
14393	0	0.318847656	-0.139221191	0.074523926	0.999883652	0.000599861	-0.008026123	-0.012943268	7.971191406	-3.480529785	1.863098145	0.029994219	-0.401321692	-0.64718845	-1.011474609	0.049316406	0.661865234	892.58	-79.40851686	-69.19252124	-125.7462862	-52
14394	0	0.336268425	-0.185604095	0.088141441	0.999937057	-0.005707741	-0.005091667	-0.008196831	8.406710625	-4.640102386	2.203536034	-0.285393018	-0.254588692	-0.409850124	-1.001220703	0.018798828	0.686523438	892.66	-81.16305495	-70.26508246	-124.574501	-54
14395	0	0.325012207	-0.18182373	0.070739746	0.99998188	5.72E-05	-0.000601768	-0.005939484	8.125305176	-4.545593262	1.768493652	0.00286104	-0.030088603	-0.296975946	-0.995849609	-0.007568359	0.705566406	892.6	-81.01657124	-70.99190895	-124.7254112	-55
14396	0	0.333304405	-0.174145699	0.08006382	0.999988556	0.000637054	0.001303673	-0.004452705	8.33261013	-4.353642464	2.001595497	0.031852839	0.065183878	-0.222636083	-0.997558594	-0.024902344	0.715576172	892.66	-80.22042317	-71.51030548	-125.4912134	-60
14397	0	0.335205078	-0.170959473	0.063842773	0.999995232	0.000164032	0.002644539	-0.001468658	8.380126953	-4.273986816	1.596069336	0.008201612	0.132227146	-0.073433035	-0.999755859	-0.033447266	0.73046875	892.72	-79.16445677	-71.65663665	-126.5843201	-57
14398	0	0.322238922	-0.16212368	0.050034523	0.999984741	-0.000252724	0.005059242	0.002004623	8.055973053	-4.053092003	1.250863075	-0.012636247	0.252963364	0.100231666	-1.006591797	-0.043945313	0.737548828	892.72	-77.57887238	-71.34557524	-128.2878003	-56
14399	0	0.342163086	-0.166687012	0.056213379	0.999983788	-0.001125336	0.00433445	0.003257751	8.554077148	-4.167175293	1.405334473	-0.056267072	0.216723596	0.162888406	-1.015869141	-0.043701172	0.746582031	892.66	-76.47870315	-70.89712726	-129.5862814	-56
14400	0	0.379013062	-0.176345825	0.047636032	0.999992371	-0.000597	0.003298759	0.001889229	9.475326538	-4.40864563	1.190900803	-0.02985008	0.16493838	0.094461674	-1.018554688	-0.0390625	0.754882813	892.7	-75.5871422	-70.61926585	-130.6011163	-54
14401	0	0.405029297	-0.17755127	0.034667969	0.999990463	0.000775337	0.004047394	0.000801086	10.12573242	-4.438781738	0.866699219	0.038766975	0.202370284	0.040054439	-1.023681641	-0.041015625	0.775146484	892.6	-74.24287062	-70.43072014	-131.9306061	-54
14402	0	0.420268059	-0.176523209	0.037184715	0.999992371	0.001654625	0.002289772	0.002526283	10.50670147	-4.413080215	0.929617882	0.082731445	0.114488876	0.126314466	-1.026367188	-0.034179688	0.786132813	892.7	-73.52066063	-70.09839185	-132.4948205	-55
14403	0	0.51348877	-0.196838379	0.047546387	0.99997139	0.006260872	-0.002593994	0.003192902	12.83721924	-4.920959473	1.188659668	0.313046523	-0.12970092	0.159646574	-1.027099609	-0.025390625	0.802490234	892.6	-73.81743066	-69.84840442	-131.4152521	-52
14404	0	0.496144295	-0.169535637	0.040178299	0.999887466	0.014284134	-0.003273964	0.003001213	12.40360737	-4.238390923	1.004457474	0.714233334	-0.163704302	0.150066251	-1.021484375	-0.003662109	0.828857422	892.58	-73.37175094	-69.64230219	-130.1456269	-53
14405	0	0.35949707	-0.092163086	0.030639648	0.999893188	0.011048317	-0.001327515	0.009422302	8.987426758	-2.304077148	0.765991211	0.552435424	-0.066378085	0.471131808	-1.018798828	0.033691406	0.854248047	892.64	-73.25775544	-68.67112998	-128.9119046	-52
14406	0	0.303673744	-0.062426567	0.044830322	0.999840736	0.007106781	-0.000936508	0.016307831	7.591843605	-1.560664177	1.120758057	0.355357846	-0.046827886	0.815434671	-1.018554688	0.079589844	0.867431641	892.62	-73.94499532	-66.93006673	-127.2889939	-50
14407	0	0.304870605	-0.063110352	0.034973145	0.999854088	0.006954193	0.000481606	0.015541077	7.621765137	-1.577758789	0.874328613	0.347726471	0.024081441	0.777091411	-1.014160156	0.134033203	0.879882813	892.66	-74.09330318	-65.22697849	-126.2517709	-51
14408	0	0.398635864	-0.085940361	0.007902145	0.999938011	0.007136345	0.004451752	0.007229805	9.965896606	-2.148509026	0.197553635	0.356824562	0.222592149	0.361497662	-1.011474609	0.177490234	0.884765625	892.72	-72.70457789	-64.31563209	-126.8774283	-51
14409	0	0.415100098	-0.082580566	0.002685547	0.999944687	0.008290291	0.006282806	0.000732422	10.37750244	-2.06451416	0.067138672	0.414522054	0.314146013	0.036621757	-1.015136719	0.208251953	0.885253906	892.62	-70.36501751	-64.04084494	-128.414129	-51
14410	0	0.384719849	-0.09555912	0.005438805	0.999952316	0.009257317	0.002821922	-0.001110077	9.617996216	-2.388978004	0.135970116	0.46287315	0.141098347	-0.055504723	-1.025390625	0.23046875	0.884033203	892.62	-68.55877356	-64.08260636	-129.2378977	-49
14411	0	0.372009277	-0.090454102	0.009887695	0.999938011	0.010967255	-0.001624107	0.000137329	9.300231934	-2.261352539	0.247192383	0.548373968	-0.081207032	0.006866596	-1.026123047	0.25	0.885253906	892.62	-67.64166977	-64.17674316	-128.8585401	-49
14412	0	0.355620384	-0.089026451	0.017095566	0.999926567	0.010958672	-0.005001068	0.000936508	8.890509605	-2.225661278	0.427389145	0.547946911	-0.25005949	0.046826548	-1.020263672	0.276123047	0.888427734	892.6	-67.54438843	-64.33824097	-127.5715633	-49
14413	0	0.366577148	-0.078369141	0.018493652	0.999929428	0.010643959	-0.004768372	0.002151489	9.164428711	-1.959228516	0.462341309	0.53221043	-0.238424169	0.107576985	-1.002929688	0.306152344	0.896484375	892.6	-67.55110247	-64.36487689	-126.2084136	-49
14414	0	0.367775917	-0.071338654	0.02229023	0.999977112	0.005518913	-0.002923012	0.002404213	9.194397926	-1.783466339	0.557255745	0.275947723	-0.14615168	0.120211545	-0.990234375	0.331787109	0.902099609	892.7	-67.76258286	-64.28688548	-125.2669543	-49
14415	0	0.379333496	-0.073852539	0.021728516	0.999996185	-0.000174522	-0.001316071	0.002178192	9.483337402	-1.846313477	0.543212891	-0.008726129	-0.065803599	0.108909725	-0.979003906	0.344482422	0.897705078	892.6	-68.24981814	-64.16520431	-124.7428144	-49
14416	0	0.372828484	-0.082018852	0.028102875	0.99998951	-0.004084587	-0.001483917	0.000691414	9.32071209	-2.050471306	0.702571869	-0.204230014	-0.074196101	0.034570806	-0.974609375	0.351074219	0.899658203	892.62	-69.09064782	-64.20968596	-124.3217076	-49
14417	0	0.370117188	-0.104492188	0.031738281	0.999990463	-0.002329826	-0.002944946	-0.002170563	9.252929688	-2.612304688	0.793457031	-0.116491683	-0.147247776	-0.108528477	-0.96484375	0.33984375	0.905761719	892.56	-69.82280072	-64.61944065	-123.803946	-49
14418	0	0.361368179	-0.104908943	0.031376839	0.99998188	0.002483368	-0.003816605	-0.003873825	9.034204483	-2.622723579	0.784420967	0.124169136	-0.190831367	-0.193692407	-0.957763672	0.335205078	0.903076172	892.6	-70.0803566	-65.24634486	-123.2068881	-48
14419	0	0.352355957	-0.116088867	0.047302246	0.999968529	0.003730774	-0.004912376	-0.004802704	8.808898926	-2.90222168	1.182556152	0.186540596	-0.245621322	-0.240137639	-0.950683594	0.330566406	0.914306641	892.62	-70.40122511	-66.0148963	-122.3870201	-48
14420	0	0.36755085	-0.131700516	0.060321808	0.999954224	0.004476547	-0.005021095	-0.006763458	9.188771248	-3.292512894	1.508045197	0.223830757	-0.251058571	-0.338178041	-0.941162109	0.325927734	0.916992188	892.6	-70.52856419	-66.99749463	-121.6898894	-48
14421	0	0.404907227	-0.139404297	0.05670166	0.999952316	-0.000681877	-0.003032684	-0.009231567	10.12268066	-3.485107422	1.417541504	-0.034094396	-0.151636614	-0.461585669	-0.934082031	0.319091797	0.920166016	892.7	-70.53441344	-68.17006336	-121.7616225	-49
14422	0	0.400016785	-0.142561913	0.055610657	0.999927521	-0.008061409	-0.000361443	-0.008922577	10.00041962	-3.564047813	1.390266418	-0.403080173	-0.018072564	-0.446139607	-0.935058594	0.290771484	0.919677734	892.66	-70.67313815	-69.20659742	-122.6003956	-49
14423	0	0.346008301	-0.143432617	0.073059082	0.999902725	-0.013262749	-6.10E-05	-0.004207611	8.65020752	-3.58581543	1.826477051	-0.663158836	-0.003051856	-0.210387343	-0.940673828	0.256103516	0.922851563	892.66	-71.77604638	-69.7210535	-123.0466482	-49
14424	0	0.353886604	-0.165846825	0.078125954	0.99995327	-0.009480476	-0.001764297	-0.000119209	8.847165108	-4.146170616	1.953148842	-0.474031167	-0.088216242	-0.005960557	-0.937011719	0.221191406	0.925537109	892.7	-73.35130505	-69.84681709	-122.5354058	-49
14425	0	0.392089844	-0.16784668	0.061584473	0.999999046	-0.001144409	0.000134468	-0.000370026	9.802246094	-4.196166992	1.539611816	-0.057220473	0.006723406	-0.018501286	-0.934326172	0.210205078	0.934814453	892.66	-73.38435822	-69.93245017	-122.6463909	-49
14426	0	0.406587601	-0.14648819	0.052933693	0.999994278	-0.000199318	0.002968788	-0.001152992	10.16469002	-3.662204742	1.323342323	-0.009965914	0.148439659	-0.05764971	-0.934082031	0.208007813	0.926269531	892.66	-72.38150502	-70.0064577	-123.7407765	-48
14427	0	0.375732422	-0.129150391	0.046569824	0.99998188	-0.004867554	0.003457069	0.000694275	9.393310547	-3.228759766	1.164245605	-0.243379151	0.172854511	0.034713954	-0.940673828	0.203857422	0.918457031	892.66	-71.94366519	-69.85596037	-124.8013633	-49
14428	0	0.358293533	-0.133737564	0.050680161	0.999982834	-0.005031586	0.001723289	0.00235939	8.957338333	-3.343439102	1.267004013	-0.251580704	0.086164961	0.117970179	-0.947265625	0.193115234	0.919677734	892.66	-72.20509184	-69.582865	-125.1404718	-48
14429	0	0.362182617	-0.139648438	0.048034668	0.999999046	0.000862122	0.000542641	0.000831604	9.05456543	-3.491210938	1.200866699	0.043106092	0.027132042	0.041580212	-0.949707031	0.193115234	0.916992188	892.62	-71.99405085	-69.51636031	-125.2635444	-49
14430	0	0.367657661	-0.129688263	0.043406487	0.999990463	0.003575325	0.000788689	-0.002100945	9.191441536	-3.242206573	1.085162163	0.178766782	0.03943455	-0.105047538	-0.952148438	0.195556641	0.916992188	892.66	-71.11535151	-69.75839804	-125.7654677	-48
14431	0	0.379882813	-0.12878418	0.042419434	0.999991417	0.00019455	0.001801491	-0.003704071	9.497070313	-3.219604492	1.06048584	0.009727506	0.090074794	-0.185204077	-0.954345703	0.195556641	0.911376953	892.6	-70.13959856	-70.13168576	-126.7794043	-48
14432	0	0.370975494	-0.142686844	0.041611671	0.999987602	-0.001851082	0.002269745	-0.003918648	9.27438736	-3.567171097	1.040291786	-0.092554462	0.113487696	-0.19593317	-0.960693359	0.184814453	0.901123047	892.62	-69.19823707	-70.50189141	-128.0052745	-48
14433	0	0.355957031	-0.148620605	0.046325684	0.999995232	0.001441956	0.000561714	-0.002639771	8.898925781	-3.715515137	1.15814209	0.072097891	0.028085752	-0.131988731	-0.967285156	0.174072266	0.899658203	892.58	-68.51517138	-70.79780817	-128.5579477	-48
14434	0	0.359461784	-0.141759872	0.050191879	0.999982834	0.005318642	-0.001700401	-0.001391411	8.986544609	-3.543996811	1.254796982	0.265933551	-0.085020535	-0.069570925	-0.969726563	0.174072266	0.905517578	892.68	-68.22365895	-71.05274921	-128.2258433	-48
14435	0	0.362792969	-0.131835938	0.048034668	0.999982834	0.00540638	-0.001564026	-0.000923157	9.069824219	-3.295898438	1.200866699	0.27032045	-0.078201718	-0.046158087	-0.967529297	0.180664063	0.904785156	892.56	-67.94067772	-71.25115759	-127.8735101	-48
14436	0	0.366479874	-0.128064156	0.049378395	0.999996185	0.002454758	-0.000227928	-0.000372887	9.161996841	-3.201603889	1.234459877	0.122738012	-0.01139642	-0.018644352	-0.963134766	0.189208984	0.901123047	892.6	-67.64889356	-71.33258947	-127.8857621	-48
14437	0	0.366149902	-0.130554199	0.052062988	0.999999046	0.000289917	0.000252724	0.000167847	9.153747559	-3.26385498	1.301574707	0.01449585	0.012636185	0.008392334	-0.965576172	0.193603516	0.897949219	892.66	-67.52425459	-71.33423583	-127.9833582	-48
14438	0	0.36784935	-0.133700371	0.050311089	0.999999046	0.000684738	-3.05E-05	0.000682831	9.196233749	-3.34250927	1.257777214	0.034236913	-0.001525879	0.034141546	-0.963134766	0.19140625	0.897949219	892.62	-67.5109295	-71.29219267	-127.9171536	-48
14439	0	0.368286133	-0.132324219	0.053222656	0.999996185	0.002240181	-0.000659943	0.001064301	9.20715332	-3.308105469	1.330566406	0.112009171	-0.032997168	0.053215085	-0.965820313	0.197998047	0.897705078	892.6	-67.56561418	-71.2358449	-127.5908432	-48
14440	0	0.36515522	-0.128341675	0.054533958	0.999996185	0.002256393	-0.001051903	0.001159668	9.128880501	-3.20854187	1.363348961	0.112819813	-0.052595205	0.057983471	-0.961425781	0.204345703	0.896728516	892.54	-67.75180276	-71.18495011	-127.1234017	-48
14441	0	0.367736816	-0.127502441	0.055175781	0.999997139	0.00188446	-0.000555992	0.001132965	9.19342041	-3.187561035	1.379394531	0.094223103	-0.02779963	0.056648303	-0.961669922	0.2109375	0.896240234	892.62	-67.82132991	-71.11389491	-126.8240331	-48
14442	0	0.369340897	-0.126673698	0.053530693	0.999998093	0.001694679	0.000102043	0.000947952	9.233522415	-3.166842461	1.338267326	0.084734016	0.005102161	0.047397643	-0.959716797	0.215332031	0.901611328	892.66	-67.68473479	-71.03294412	-126.7652388	-48
14443	0	0.371520996	-0.124633789	0.051940918	0.999998093	0.001389503	8.39E-05	0.001102448	9.288024902	-3.115844727	1.298522949	0.06947521	0.004196169	0.055122404	-0.959716797	0.219482422	0.892578125	892.66	-67.60863533	-70.93562658	-126.6799826	-48
14444	0	0.370326042	-0.122988701	0.051733017	0.999998093	0.001512527	-2.38E-05	0.000976563	9.258151054	-3.074717522	1.293325424	0.075626414	-0.001192094	0.048828151	-0.957519531	0.226074219	0.894775391	892.68	-67.53570615	-70.85568648	-126.5757989	-48
14445	0	0.369140625	-0.12109375	0.052307129	0.999998093	0.001782417	0.000125885	0.000553131	9.228515625	-3.02734375	1.307678223	0.089120917	0.006294254	0.027656571	-0.957763672	0.228271484	0.897460938	892.56	-67.33295486	-70.81344716	-126.5767025	-48
14446	0	0.369728088	-0.119006157	0.05025959	0.999999046	0.000873566	0.000364304	6.01E-05	9.243202209	-2.975153923	1.256489754	0.04367829	0.018215182	0.003004075	-0.955566406	0.234619141	0.894042969	892.66	-67.09982435	-70.81228343	-126.7193203	-48
14447	0	0.371337891	-0.121765137	0.04888916	0.999999046	-0.000190735	0.000878334	-0.000156403	9.283447266	-3.044128418	1.222229004	-0.009536744	0.043916708	-0.00782013	-0.958007813	0.232666016	0.894287109	892.6	-66.80561672	-70.81017193	-127.0563398	-48
14448	0	0.371048927	-0.123620987	0.047844887	0.999999046	-0.000720024	0.000680923	-0.000374794	9.276223183	-3.090524673	1.196122169	-0.036001212	0.034046179	-0.018739704	-0.960205078	0.234863281	0.888671875	892.7	-66.60402738	-70.83895923	-127.3591998	-48
14449	0	0.374694824	-0.127319336	0.047790527	0.999999046	-0.000587463	0.000100136	-0.000648499	9.367370605	-3.182983398	1.194763184	-0.029373173	0.005006791	-0.032424931	-0.960205078	0.23046875	0.891845703	892.6	-66.5274696	-70.92209997	-127.5140618	-48
14450	0	0.372895241	-0.125918388	0.050035477	0.999999046	-7.63E-05	-0.000583649	-0.000618935	9.32238102	-3.147959709	1.250886917	-0.003814698	-0.029182438	-0.030946735	-0.962402344	0.228271484	0.889160156	892.66	-66.60475976	-71.03262292	-127.4445208	-48
14451	0	0.374511719	-0.126098633	0.049682617	0.999999046	-0.000484467	-0.000349998	-0.000392914	9.362792969	-3.15246582	1.24206543	-0.02422333	-0.017499925	-0.019645693	-0.962158203	0.223876953	0.889648438	892.6	-66.68871294	-71.10805592	-127.417662	-48
14452	0	0.367691994	-0.127450943	0.055464745	0.999999046	8.11E-05	-0.000293732	-0.000271797	9.192299843	-3.186273575	1.386618614	0.004053116	-0.014686585	-0.013589859	-0.959716797	0.223876953	0.892333984	892.7	-66.70693151	-71.16722636	-127.3913883	-48
14453	0	0.367431641	-0.125915527	0.055786133	0.999999046	0.001163483	-0.000445366	-0.000545502	9.185791016	-3.147888184	1.39465332	0.058174151	-0.022268302	-0.027275094	-0.959716797	0.223876953	0.892333984	892.66	-66.61140455	-71.26119118	-127.354394	-48
14454	0	0.361995697	-0.119962692	0.054338455	0.999998093	0.00146389	-0.000212669	-0.000283241	9.049892426	-2.999067307	1.35846138	0.073194531	-0.010633473	-0.014162069	-0.959960938	0.226074219	0.889160156	892.66	-66.44393973	-71.31629813	-127.3569984	-47
14455	0	0.368530273	-0.122131348	0.052124023	0.999997139	0.001914978	0.000267982	-0.000473022	9.213256836	-3.053283691	1.303100586	0.095748965	0.013399133	-0.023651139	-0.962402344	0.228271484	0.889160156	892.6	-66.04911946	-71.36847591	-127.5450266	-47
14456	0	0.373011589	-0.118849754	0.048018456	0.999998093	0.000989914	0.000720024	-0.000947952	9.325289726	-2.971243858	1.200461388	0.049495717	0.03600122	-0.047397632	-0.962402344	0.23046875	0.886230469	892.62	-65.55253294	-71.44824536	-127.9519207	-47
14457	0	0.370605469	-0.12713623	0.048461914	0.999999046	-1.91E-05	0.000336647	-0.000904083	9.265136719	-3.178405762	1.211547852	-0.000953674	0.016832354	-0.04520417	-0.962402344	0.228271484	0.889160156	892.7	-65.29518702	-71.54008099	-128.2284093	-47
14458	0	0.366775513	-0.128306389	0.050045013	0.999999046	0.000209808	7.63E-06	-0.000743866	9.169387817	-3.207659721	1.251125336	0.010490419	0.00038147	-0.037193302	-0.969238281	0.226318359	0.884033203	892.54	-65.13653305	-71.6297999	-128.3735516	-47
14459	0	0.367553711	-0.128540039	0.049682617	0.999999046	-0.000534058	0.000191689	-6.10E-05	9.188842773	-3.213500977	1.24206543	-0.026702882	0.009584427	-0.003051758	-0.966796875	0.224121094	0.886962891	892.62	-65.10528104	-71.63865515	-128.4741546	-47
14460	0	0.36700058	-0.128488541	0.049928665	0.999999046	-0.000756264	-9.54E-06	0.000479698	9.175014496	-3.212213516	1.248216629	-0.037813192	-0.000476837	0.023984912	-0.966796875	0.224121094	0.884033203	892.6	-65.24227505	-71.60006477	-128.4243485	-47
14461	0	0.3671875	-0.131103516	0.05279541	0.999999046	8.77E-05	-0.000784874	0.000358582	9.1796875	-3.277587891	1.319885254	0.004386902	-0.039243703	0.017929079	-0.964355469	0.221923828	0.886962891	892.68	-65.50865407	-71.61000346	-128.1365093	-47
14462	0	0.367911339	-0.129466057	0.053582191	0.999998093	0.001395226	-0.000958443	-0.000165939	9.19778347	-3.236651421	1.339554787	0.06976131	-0.047922158	-0.008296971	-0.966796875	0.224121094	0.886962891	892.66	-65.60630655	-71.68163913	-127.8686743	-47
14463	0	0.368469238	-0.128295898	0.054260254	0.999998093	0.001366615	-0.000907898	4.20E-05	9.211730957	-3.207397461	1.356506348	0.068330795	-0.045394918	0.002098084	-0.962158203	0.223876953	0.88671875	892.66	-65.72276428	-71.72810537	-127.5846568	-47
14464	0	0.369475365	-0.127503395	0.055829048	0.999999046	0.000782967	-0.000835419	0.000545502	9.236884117	-3.187584877	1.395726204	0.039148341	-0.041770946	0.027275093	-0.962158203	0.228271484	0.886474609	892.66	-65.95553159	-71.71736344	-127.2484325	-47
14465	0	0.367736816	-0.125183105	0.055175781	0.999998093	0.000294685	-0.000404358	0.001369476	9.19342041	-3.129577637	1.379394531	0.014734273	-0.020217903	0.06847384	-0.960205078	0.232666016	0.888671875	892.6	-66.2221274	-71.59904988	-126.9353092	-47
14466	0	0.373661995	-0.12617588	0.054397583	0.999999046	-0.00019455	-0.000198364	0.001338959	9.341549873	-3.154397011	1.359939575	-0.009727481	-0.009918216	0.066947958	-0.955322266	0.232421875	0.885742188	892.66	-66.47218554	-71.47338225	-126.6986842	-47
14467	0	0.372619629	-0.124755859	0.051879883	0.999999046	-0.000385284	4.67E-05	0.001255035	9.315490723	-3.118896484	1.29699707	-0.019264227	0.002336503	0.062751788	-0.958007813	0.234619141	0.891357422	892.6	-66.65331356	-71.34459873	-126.5576474	-47
14468	0	0.370293617	-0.122431755	0.053527832	0.999997139	-0.001421928	0.000377655	0.0013237	9.257340431	-3.060793877	1.338195801	-0.071096467	0.018882764	0.066185041	-0.955566406	0.234619141	0.885498047	892.66	-66.85707526	-71.19307509	-126.5180091	-48
14469	0	0.369812012	-0.123901367	0.052368164	0.999997139	-0.001541138	0.000496864	0.001216888	9.245300293	-3.09753418	1.309204102	-0.077056937	0.024843233	0.060844463	-0.955566406	0.234619141	0.888427734	892.66	-67.02197294	-71.04704222	-126.5338033	-47
14470	0	0.368546486	-0.122763634	0.05247879	0.999998093	-0.001372337	0.000447273	0.000793457	9.213662148	-3.069090843	1.311969757	-0.068616898	0.022363673	0.03967287	-0.955566406	0.236816406	0.879638672	892.54	-67.12679557	-70.94763308	-126.5925768	-48
14471	0	0.369812012	-0.126525879	0.05255127	0.999999046	-0.001171112	0.000306129	0.000339508	9.245300293	-3.163146973	1.313781738	-0.058555618	0.015306477	0.016975407	-0.955322266	0.234619141	0.882568359	892.54	-67.19310436	-70.90207405	-126.66785	-48
14472	0	0.365175247	-0.127024651	0.054613113	0.999999046	-0.001063347	0.000354767	-0.000209808	9.12938118	-3.175616264	1.365327835	-0.053167355	0.017738346	-0.01049042	-0.960205078	0.232666016	0.888671875	892.54	-67.16146216	-70.911871	-126.8337579	-48
14473	0	0.365539551	-0.12890625	0.053039551	0.999999046	-0.000347137	0.000348091	-0.000541687	9.13848877	-3.22265625	1.32598877	-0.017356874	0.017404558	-0.027084353	-0.957519531	0.228027344	0.883300781	892.66	-67.00675267	-70.95635922	-127.0431895	-48
14474	0	0.367656708	-0.128299713	0.051007271	0.999999046	-0.000417709	0.000387192	-0.000378609	9.191417694	-3.207492828	1.27518177	-0.020885469	0.01935959	-0.018930437	-0.957519531	0.228027344	0.883300781	892.72	-66.86909589	-70.98127556	-127.2429292	-48
14475	0	0.368774414	-0.129455566	0.050842285	0.999999046	-0.00112915	0.000565529	0.000278473	9.219360352	-3.23638916	1.271057129	-0.056457535	0.028276451	0.013923649	-0.959716797	0.226074219	0.883544922	892.56	-66.8448562	-70.92835792	-127.4090647	-48
14476	0	0.36937809	-0.130079269	0.049561501	0.999998093	-0.001588821	0.000498772	0.000826836	9.234452248	-3.251981735	1.239037514	-0.079441116	0.024938598	0.041341805	-0.959716797	0.226074219	0.880615234	892.66	-66.96602516	-70.82025163	-127.4770981	-48
14477	0	0.371276855	-0.129821777	0.049255371	0.999998093	-0.001322746	0.000156403	0.000892639	9.281921387	-3.245544434	1.231384277	-0.066137342	0.007820133	0.044631977	-0.959716797	0.223876953	0.880859375	892.6	-67.16895073	-70.72021589	-127.4264787	-48
14478	0	0.369446754	-0.127926826	0.04897213	0.999998093	-0.001099586	-0.000115395	0.000876427	9.236168861	-3.198170662	1.224303246	-0.054979343	-0.005769732	0.043821349	-0.959716797	0.223876953	0.883789063	892.6	-67.42537334	-70.63361464	-127.292006	-48
14479	0	0.366516113	-0.127868652	0.052001953	0.999998093	-0.001288414	-0.000282288	0.000770569	9.162902832	-3.196716309	1.300048828	-0.064420725	-0.014114385	0.038528457	-0.959472656	0.221679688	0.884033203	892.56	-67.7387458	-70.56499944	-127.1201443	-48
14480	0	0.367139816	-0.129486084	0.052071571	0.999999046	-0.000668526	0	-0.000297546	9.178495407	-3.2371521	1.301789284	-0.033426288	0	-0.014877321	-0.957275391	0.219482422	0.884033203	892.66	-67.76394814	-70.59692076	-127.1784195	-48
14481	0	0.367980957	-0.129577637	0.052734375	0.999999046	-0.000469208	5.82E-05	-0.000679016	9.199523926	-3.239440918	1.318359375	-0.023460391	0.002908707	-0.03395081	-0.959472656	0.219482422	0.884033203	892.62	-67.70134345	-70.66642563	-127.3054065	-48
14482	0	0.369316101	-0.133826256	0.053138733	0.999999046	-0.000270844	-0.000137329	-0.000695229	9.232902527	-3.345656395	1.328468323	-0.013542177	-0.006866456	-0.034761432	-0.959472656	0.217285156	0.884277344	892.6	-67.67263334	-70.74559368	-127.3724344	-48
14483	0	0.370544434	-0.132202148	0.052612305	0.999999046	7.63E-05	-0.000117302	-0.000331879	9.26361084	-3.305053711	1.315307617	0.003814697	-0.005865097	-0.016593933	-0.959472656	0.215087891	0.887207031	892.66	-67.64316878	-70.78492648	-127.3982311	-48
14484	0	0.365821838	-0.130791664	0.054742813	0.999999046	0.000172615	-0.000297546	-9.54E-05	9.145545959	-3.269791603	1.368570328	0.008630753	-0.01487732	-0.004768372	-0.959228516	0.212890625	0.887451172	892.56	-67.68673621	-70.80654145	-127.3351342	-48
14485	0	0.368408203	-0.131652832	0.05279541	0.999999046	0.000465393	-0.000136375	-0.000492096	9.210205078	-3.291320801	1.319885254	0.023269655	-0.006818772	-0.024604799	-0.961425781	0.212890625	0.881835938	892.66	-67.59795729	-70.86273026	-127.3766458	-48
14486	0	0.369099617	-0.130570412	0.05177784	0.999999046	-0.000150681	0.000307083	-0.000416756	9.227490425	-3.264260292	1.294445992	-0.007534027	0.015354157	-0.020837785	-0.956787109	0.212890625	0.884521484	892.6	-67.4535763	-70.89110692	-127.551361	-48
14487	0	0.368530273	-0.134643555	0.052368164	0.999999046	3.81E-06	0.000435829	-0.000205994	9.213256836	-3.366088867	1.309204102	0.000190735	0.021791459	-0.010299683	-0.959228516	0.210693359	0.884765625	892.66	-67.27900306	-70.89077308	-127.7395759	-48
14488	0	0.368297577	-0.131928444	0.049087524	0.999999046	0.000308037	5.72E-05	4.96E-05	9.207439423	-3.298211098	1.22718811	0.01540184	0.002861023	0.002479553	-0.959228516	0.212890625	0.887451172	892.56	-67.21845817	-70.8796933	-127.7700412	-48
14489	0	0.367492676	-0.130310059	0.048095703	0.999999046	0.000331879	-4.10E-05	0.000431061	9.187316895	-3.257751465	1.202392578	0.016593934	-0.0020504	0.021553041	-0.959228516	0.212890625	0.881835938	892.66	-67.23460781	-70.83236139	-127.7167484	-48
14490	0	0.368605614	-0.129009247	0.048638344	0.999999046	0.000171661	-9.54E-06	0.000216484	9.215140343	-3.225231171	1.215958595	0.008583069	-0.000476837	0.010824204	-0.959472656	0.215087891	0.887207031	892.6	-67.23263948	-70.80609633	-127.7018386	-48
14491	0	0.367370605	-0.129455566	0.04888916	0.999999046	3.43E-05	-7.92E-05	0.000453949	9.184265137	-3.23638916	1.222229004	0.001716614	-0.003957749	0.02269745	-0.959228516	0.215087891	0.884521484	892.62	-67.29814254	-70.75757548	-127.6323572	-48
14492	0	0.369153023	-0.128749847	0.048716545	0.999999046	0.000338554	-0.000349045	0.000468254	9.228825569	-3.218746185	1.217913628	0.01692772	-0.017452241	0.023412706	-0.959472656	0.215087891	0.887207031	892.72	-67.4123609	-70.71926099	-127.4744702	-48
14493	0	0.365783691	-0.128234863	0.048217773	0.999999046	0.000396729	-0.00039959	0.000274658	9.144592285	-3.205871582	1.205444336	0.019836427	-0.019979478	0.013732911	-0.95703125	0.217285156	0.886962891	892.6	-67.5109186	-70.7033994	-127.3258985	-48
14494	0	0.368437767	-0.127362251	0.048267365	0.999999046	0.000463486	-0.000276566	0.000178337	9.210944176	-3.184056282	1.206684113	0.023174287	-0.013828278	0.008916855	-0.95703125	0.217285156	0.886962891	892.68	-67.55275666	-70.69222028	-127.2294764	-48
14495	0	0.371398926	-0.126586914	0.04901123	0.999999046	6.48E-05	-0.000136375	-0.000144958	9.284973145	-3.164672852	1.225280762	0.003242493	-0.006818771	-0.007247925	-0.954833984	0.219238281	0.88671875	892.62	-67.55766529	-70.70914429	-127.2202726	-48
14496	0	0.369190216	-0.127817154	0.048864365	0.999999046	0.000218391	-0.000473022	-0.000209808	9.229755402	-3.195428848	1.221609116	0.010919571	-0.023651124	-0.010490418	-0.954833984	0.219238281	0.88671875	892.6	-67.63920028	-70.74755159	-127.1113925	-48
14497	0	0.368713379	-0.127746582	0.048156738	0.999999046	0.000850677	-0.00058651	-0.000293732	9.217834473	-3.193664551	1.203918457	0.042533883	-0.029325491	-0.014686587	-0.957275391	0.219482422	0.884033203	892.56	-67.67295303	-70.79966853	-126.9766974	-48
14498	0	0.367073059	-0.12457943	0.048669815	0.999999046	4.39E-05	-0.000249863	-0.000427246	9.176826477	-3.114485741	1.216745377	0.002193451	-0.012493134	-0.021362306	-0.952392578	0.217041016	0.88671875	892.62	-67.68028146	-70.85126636	-126.9678257	-48
14499	0	0.369995117	-0.128051758	0.048095703	0.999999046	-0.00044632	-0.000182152	-0.000522614	9.24987793	-3.201293945	1.202392578	-0.022315981	-0.00910759	-0.026130678	-0.955078125	0.219238281	0.892333984	892.54	-67.71155391	-70.90991862	-126.9925899	-48
14500	0	0.36776638	-0.128931046	0.0471735	0.999999046	-0.000430107	-0.000305176	-0.000531197	9.194159508	-3.223276138	1.179337502	-0.021505358	-0.01525879	-0.026559832	-0.952636719	0.217041016	0.892578125	892.6	-67.77825575	-70.97464039	-126.9780621	-48
