Counter	Temperature	VelInc_X	VelInc_Y	VelInc_Z	OriInc_w	OriInc_x	OriInc_y	OriInc_z	Acc_X	Acc_Y	Acc_Z	Gyr_X	Gyr_Y	Gyr_Z	Mag_X	Mag_Y	Mag_Z	Pressure	Roll	Pitch	Yaw	RSSI
54370	0	0.389237404	0.058690071	0.028151512	0.999999046	0.000907898	0.000545502	0.000208855	9.730935097	1.467251778	0.703787804	0.045394906	0.027275091	0.010442736	-0.914794922	0.472412109	0.076416016	891.54	62.24978916	-80.35304487	-165.9203726	-51
54371	0	0.388549805	0.059082031	0.029968262	0.999999046	0.000549316	0.000477791	0.000202179	9.713745117	1.477050781	0.749206543	0.027465823	0.023889544	0.010108949	-0.912597656	0.474609375	0.073242188	891.54	61.98626694	-80.33534433	-165.5973964	-51
54372	0	0.389277458	0.057857513	0.029054642	0.999999046	0.000756264	0.00053215	7.63E-06	9.731936455	1.446437836	0.726366043	0.037813192	0.026607517	0.00038147	-0.912597656	0.476806641	0.075927734	891.46	61.77739134	-80.29490462	-165.3127672	-51
54373	0	0.389526367	0.057678223	0.028503418	0.999999046	0.001068115	0.000626564	0.000144958	9.73815918	1.441955566	0.712585449	0.053405776	0.031328209	0.007247927	-0.915039063	0.474609375	0.076171875	891.54	61.50746332	-80.26308937	-164.9351968	-52
54374	0	0.388103485	0.060129166	0.028982162	0.999999046	0.000989914	0.00063324	0.000193596	9.702587128	1.503229141	0.724554062	0.049495709	0.031661995	0.009679797	-0.912353516	0.474609375	0.064453125	891.48	61.21184502	-80.23547806	-164.5224903	-51
54375	0	0.389404297	0.059265137	0.027832031	0.999999046	0.00075531	0.000645638	0.000240326	9.735107422	1.481628418	0.695800781	0.03776551	0.032281881	0.012016298	-0.912597656	0.476806641	0.064208984	891.54	60.86995564	-80.2115644	-164.0924451	-51
54376	0	0.38939476	0.062112808	0.030070305	0.999999046	0.001021385	0.000492096	0.000423431	9.734869003	1.552820206	0.751757622	0.051069272	0.024604803	0.021171575	-0.914794922	0.474609375	0.061767578	891.5	60.59010093	-80.21407612	-163.6945988	-51
54377	0	0.390075684	0.061157227	0.02935791	0.999999046	0.000396729	0.00036335	0.00031662	9.75189209	1.528930664	0.733947754	0.019836427	0.018167497	0.015830995	-0.912353516	0.474609375	0.067382813	891.46	60.34891746	-80.21288057	-163.4207982	-51
54378	0	0.389419556	0.06136322	0.032337189	0.999999046	-0.000164032	0.00056839	0.000178337	9.735488892	1.534080505	0.808429718	-0.0082016	0.028419496	0.008916855	-0.914794922	0.476806641	0.064453125	891.42	59.97183451	-80.18587826	-163.069686	-51
54379	0	0.387512207	0.059692383	0.035400391	0.999999046	-2.29E-05	0.00105381	5.72E-05	9.687805176	1.49230957	0.885009766	-0.001144409	0.052690516	0.002861023	-0.912353516	0.474609375	0.05859375	891.48	59.37711382	-80.1181737	-162.4741786	-51
54380	0	0.388971329	0.058302879	0.034878731	0.999999046	-0.000266075	0.000858307	2.86E-06	9.724283218	1.457571983	0.871968269	-0.013303759	0.04291535	0.000143051	-0.914794922	0.476806641	0.05859375	891.54	58.88998173	-80.05564679	-162.0178317	-51
54381	0	0.389892578	0.06072998	0.033447266	0.999999046	-0.000202179	0.000760078	-0.000125885	9.747314453	1.518249512	0.836181641	-0.010108949	0.038003926	-0.006294251	-0.914794922	0.476806641	0.055664063	891.6	58.51456294	-79.98572344	-161.663851	-51
54382	0	0.387200356	0.061789513	0.03412056	0.999999046	-0.000413895	0.001047134	0.000212669	9.680008888	1.544737816	0.853013992	-0.020694737	0.052356731	0.010633471	-0.912353516	0.474365234	0.055908203	891.5	57.84788373	-79.93076124	-161.0425838	-51
54383	0	0.385742188	0.059814453	0.040222168	0.999999046	-0.000801086	0.000962257	4.96E-05	9.643554688	1.495361328	1.005554199	-0.040054332	0.048112882	0.002479554	-0.912353516	0.474365234	0.055908203	891.54	57.24538065	-79.86386729	-160.5331655	-51
54384	0	0.386522293	0.058976173	0.041975021	0.999999046	-0.001027107	0.000642776	0.00014782	9.663057327	1.474404335	1.049375534	-0.051355375	0.032138832	0.007390978	-0.914794922	0.476806641	0.055664063	891.54	56.75907003	-79.82533888	-160.1672095	-51
54385	0	0.386413574	0.060058594	0.040649414	0.999999046	-0.000953674	0.000306129	6.48E-05	9.660339355	1.501464844	1.016235352	-0.047683724	0.015306475	0.003242493	-0.914550781	0.474609375	0.052978516	891.48	56.49148049	-79.79951387	-160.0098403	-51
54386	0	0.388046265	0.059082985	0.037153244	0.999999046	-0.001184464	4.58E-05	6.68E-06	9.701156616	1.477074623	0.9288311	-0.059223189	0.002288819	0.000333786	-0.912109375	0.474365234	0.055664063	891.5	56.35690958	-79.78455149	-160.0172385	-51
54387	0	0.389099121	0.057922363	0.036010742	0.999999046	-0.000804901	8.87E-05	3.81E-05	9.727478027	1.448059082	0.900268555	-0.040245061	0.004434586	0.001907349	-0.914306641	0.474365234	0.055908203	891.62	56.23249265	-79.76997225	-159.990215	-51
54388	0	0.389036179	0.059420586	0.036601067	0.999999046	-0.000580788	0.000165939	0.000190735	9.725904465	1.485514641	0.915026665	-0.029039385	0.008296967	0.009536744	-0.914306641	0.474365234	0.055908203	891.5	56.03971318	-79.76499975	-159.8671463	-51
54389	0	0.389160156	0.059204102	0.038574219	0.999999046	-0.000522614	0.00049305	0.00018692	9.729003906	1.480102539	0.964355469	-0.026130679	0.024652483	0.009346009	-0.914306641	0.474365234	0.055908203	891.54	55.68363665	-79.7385136	-159.5721274	-51
54390	0	0.386517525	0.058712006	0.040419579	0.999999046	-0.000513077	0.000286102	0.000109673	9.662938118	1.46780014	1.010489464	-0.025653841	0.014305116	0.005483628	-0.914550781	0.474365234	0.061767578	891.5	55.46520836	-79.71780966	-159.4270424	-51
54391	0	0.386291504	0.058044434	0.040527344	0.999999046	-0.000370026	0.000203133	0.000202179	9.657287598	1.45111084	1.013183594	-0.018501282	0.010156632	0.010108948	-0.914550781	0.474365234	0.058837891	891.56	55.27322682	-79.71110626	-159.2864448	-51
54392	0	0.386543274	0.059933662	0.039873123	0.999999046	-0.000103951	5.15E-05	0.000174522	9.663581848	1.49834156	0.996828079	-0.005197525	0.002574921	0.00872612	-0.914306641	0.474365234	0.055908203	891.46	55.20051605	-79.71156948	-159.2303486	-51
54393	0	0.388977051	0.05847168	0.038146973	0.999999046	-9.16E-05	0.000145912	0.000175476	9.72442627	1.461791992	0.953674316	-0.004577637	0.007295609	0.008773804	-0.914550781	0.4765625	0.05859375	891.54	55.08025481	-79.70597721	-159.1291004	-51
54394	0	0.390267372	0.058387756	0.038514137	0.999999046	0.000131607	0.000185013	0.000213623	9.756684303	1.459693909	0.962853432	0.006580353	0.009250641	0.010681153	-0.914550781	0.474365234	0.058837891	891.48	54.95187247	-79.70141819	-158.9958205	-51
54395	0	0.389343262	0.059997559	0.040893555	0.999999046	0.000495911	0.000267982	0.000247955	9.733581543	1.499938965	1.022338867	0.024795534	0.013399125	0.012397767	-0.916748047	0.474609375	0.055908203	891.54	54.81007798	-79.69446936	-158.8028795	-51
54396	0	0.388981819	0.056733131	0.042264938	0.999999046	0.000571251	7.82E-05	0.00018692	9.724545479	1.418328285	1.056623459	0.028562548	0.003910065	0.009346009	-0.916748047	0.474609375	0.055908203	891.54	54.7960847	-79.69430888	-158.7323984	-51
54397	0	0.38885498	0.058166504	0.039489746	0.999999046	0.000617981	0.000317574	8.77E-05	9.721374512	1.454162598	0.987243652	0.03089905	0.015878679	0.004386902	-0.914306641	0.474365234	0.052978516	891.48	54.70058251	-79.66906037	-158.5698562	-51
54398	0	0.389083862	0.060162544	0.040699005	0.999999046	0.000511169	0.00075531	0.00014019	9.727096558	1.504063606	1.017475128	0.025558475	0.037765508	0.007009507	-0.914306641	0.474365234	0.052978516	891.48	54.35148002	-79.61941155	-158.1655285	-51
54399	0	0.388305664	0.059448242	0.04296875	0.999999046	0.000736237	0.000580788	0.000274658	9.707641602	1.486206055	1.07421875	0.036811834	0.029039388	0.013732912	-0.914550781	0.4765625	0.052734375	891.5	54.07010214	-79.59345656	-157.8059381	-51
54400	0	0.385234833	0.05765152	0.043452263	0.999999046	0.000689507	0.000150681	7.25E-05	9.630870819	1.441287994	1.086306572	0.034475329	0.007534028	0.003623963	-0.914306641	0.4765625	0.050048828	891.54	54.07488161	-79.57744869	-157.7391385	-51
54401	0	0.385131836	0.058776855	0.040344238	0.999999046	0.000640869	-7.15E-05	-0.00012207	9.628295898	1.469421387	1.008605957	0.032043459	-0.003576279	-0.006103516	-0.916503906	0.474365234	0.047363281	891.54	54.25730368	-79.55829609	-157.8552733	-51
54402	0	0.387624741	0.059225082	0.038014412	0.999999046	0.000663757	-0.000534058	0	9.690618515	1.48062706	0.950360298	0.03318787	-0.026702884	0	-0.914306641	0.474365234	0.047119141	891.54	54.63268359	-79.58132373	-158.1633502	-51
54403	0	0.389221191	0.057434082	0.03918457	0.999999046	0.000644684	-0.000388145	5.72E-05	9.730529785	1.435852051	0.979614258	0.032234195	-0.019407274	0.002861023	-0.914306641	0.474365234	0.050048828	891.5	54.91232163	-79.59986653	-158.3818102	-51
54404	0	0.38986969	0.059638977	0.040757179	0.999999046	0.000590324	-0.000364304	1.91E-05	9.746742249	1.490974426	1.018929482	0.029516222	-0.018215181	0.000953674	-0.914306641	0.474365234	0.047119141	891.54	55.18793038	-79.61305977	-158.5964005	-51
54405	0	0.389282227	0.05871582	0.040161133	0.999999046	0.000530243	0.000302315	-0.000106812	9.732055664	1.467895508	1.00402832	0.026512148	0.015115739	-0.005340577	-0.916748047	0.474365234	0.050292969	891.66	55.15981634	-79.57072984	-158.5177126	-51
54406	0	0.38790226	0.057865143	0.041065216	0.999999046	0.000730515	0.000190735	1.14E-05	9.697556496	1.446628571	1.026630402	0.03652573	0.009536744	0.000572205	-0.916503906	0.472167969	0.047607422	891.6	55.16942645	-79.54686315	-158.4514339	-51
54407	0	0.386230469	0.059570313	0.042053223	0.999999046	0.000511169	-0.000189781	0.000125885	9.655761719	1.489257813	1.051330566	0.025558473	-0.00948906	0.006294251	-0.914306641	0.474365234	0.050048828	891.48	55.30707314	-79.55857989	-158.5447679	-51
54408	0	0.387663841	0.061038017	0.038912773	0.999999046	0.000166893	-0.000328064	0.000183105	9.691596031	1.525950432	0.972819328	0.008344651	-0.016403199	0.009155274	-0.911865234	0.472167969	0.047363281	891.5	55.45667736	-79.58463006	-158.6845718	-51
54409	0	0.390197754	0.060668945	0.035766602	0.999999046	7.63E-06	-0.000536919	0.000125885	9.754943848	1.516723633	0.894165039	0.00038147	-0.026845933	0.006294251	-0.914306641	0.472167969	0.050292969	891.56	55.7178185	-79.61879743	-158.9604842	-51
54410	0	0.390130997	0.061730385	0.036870956	0.999999046	-6.10E-05	-0.000354767	0.000263214	9.753274918	1.543259621	0.921773911	-0.003051758	-0.017738343	0.013160706	-0.916503906	0.474365234	0.047363281	891.54	55.83070837	-79.65407809	-159.0858648	-51
54411	0	0.389282227	0.060974121	0.039367676	0.999999046	-0.000331879	-3.34E-05	0.000125885	9.732055664	1.524353027	0.984191895	-0.016593933	-0.00166893	0.006294251	-0.916748047	0.472412109	0.047607422	891.56	55.79458577	-79.65557086	-159.0918489	-51
54412	0	0.389482498	0.060297966	0.042431831	0.999999046	-0.000349998	0.000370026	-1.91E-05	9.737062454	1.50744915	1.060795784	-0.017499924	0.018501283	-0.000953674	-0.916992188	0.474609375	0.050292969	891.54	55.59805782	-79.61717156	-158.9419825	-51
54413	0	0.388244629	0.059082031	0.041748047	0.999999046	-0.000221252	0.00130558	-0.000289917	9.706115723	1.477050781	1.043701172	-0.011062625	0.065279027	-0.014495854	-0.916748047	0.474609375	0.047363281	891.5	55.03586696	-79.49201564	-158.403267	-51
54414	0	0.384129524	0.062397957	0.043205261	0.999999046	-0.000774384	0.00053215	-0.000229836	9.603238106	1.559948921	1.080131531	-0.038719183	0.026607518	-0.011491777	-0.914550781	0.474609375	0.047119141	891.5	54.78829826	-79.42253254	-158.2481438	-51
54415	0	0.386779785	0.061157227	0.039123535	0.999999046	-0.000957489	-3.34E-05	-0.000205994	9.669494629	1.528930664	0.978088379	-0.047874458	-0.00166893	-0.010299684	-0.916748047	0.472412109	0.041748047	891.54	54.79658363	-79.39259202	-158.3628091	-51
54416	0	0.3879776	0.060082436	0.038906097	0.999999046	-0.000508308	0.000101089	3.81E-06	9.699440002	1.50206089	0.972652435	-0.025415422	0.005054474	0.000190735	-0.916748047	0.474609375	0.044433594	891.48	54.71546794	-79.37348636	-158.3381063	-52
54417	0	0.388671875	0.057128906	0.04083252	0.999999046	-0.00012207	0.000359535	6.48E-05	9.716796875	1.428222656	1.020812988	-0.006103516	0.017976761	0.003242493	-0.916748047	0.472412109	0.050537109	891.6	54.52841477	-79.34308094	-158.1748348	-51
54418	0	0.38974762	0.05847168	0.042590141	0.999999046	0.000461578	0.000867844	1.14E-05	9.743690491	1.461791992	1.064753532	0.023078922	0.043392188	0.000572205	-0.916748047	0.470214844	0.047607422	891.5	54.17747111	-79.27367409	-157.7755332	-51
54419	0	0.388061523	0.06048584	0.043457031	0.999999046	0.000545502	0.001049995	-9.54E-05	9.701538086	1.512145996	1.086425781	0.027275092	0.052499783	-0.004768373	-0.919189453	0.472412109	0.044677734	891.5	53.79041734	-79.18157534	-157.3277752	-51
54420	0	0.388019562	0.059752464	0.043778419	0.999999046	0.000224113	0.000320435	0.000202179	9.700489044	1.493811607	1.094460487	0.011205674	0.016021729	0.010108948	-0.919189453	0.472412109	0.044677734	891.54	53.6176717	-79.16605257	-157.137211	-52
54421	0	0.387329102	0.060180664	0.039001465	0.999999046	-1.53E-05	0.000145912	0.000301361	9.683227539	1.504516602	0.975036621	-0.000762939	0.007295609	0.015068054	-0.918945313	0.472412109	0.041992188	891.48	53.46745755	-79.17159317	-156.9925777	-51
54422	0	0.386193275	0.060678482	0.041983604	0.999999046	7.25E-05	0.000352859	0.000240326	9.654831886	1.516962051	1.049590111	0.003623963	0.017642975	0.012016297	-0.916503906	0.472167969	0.038818359	891.48	53.24998732	-79.15729809	-156.7640232	-51
54423	0	0.386779785	0.06048584	0.046325684	0.999999046	-0.000175476	0.0001688	0.000125885	9.669494629	1.512145996	1.15814209	-0.008773804	0.008440018	0.006294251	-0.916748047	0.474609375	0.044433594	891.48	53.13315321	-79.14491823	-156.6775799	-51
54424	0	0.386413574	0.059090614	0.043545723	0.999999046	-0.0001688	-0.000209808	6.01E-05	9.660339355	1.477265358	1.088643074	-0.008440018	-0.010490418	0.003004074	-0.916503906	0.472167969	0.038818359	891.46	53.22172589	-79.15255012	-156.7878395	-51
54425	0	0.386169434	0.057434082	0.041931152	0.999999046	1.14E-05	-0.000212669	1.14E-05	9.65423584	1.435852051	1.048278809	0.000572205	-0.010633469	0.000572205	-0.916503906	0.472167969	0.038818359	891.54	53.34976017	-79.15602634	-156.9164691	-51
54426	0	0.386981964	0.057974815	0.041947365	0.999999046	0.000358582	-6.29E-05	2.96E-05	9.674549103	1.449370384	1.04868412	0.017929078	-0.003147125	0.001478195	-0.919189453	0.474609375	0.044677734	891.42	53.43921469	-79.15102581	-156.9770806	-51
54427	0	0.388427734	0.058776855	0.039245605	0.999999046	0.000232697	-6.39E-05	7.63E-06	9.710693359	1.469421387	0.981140137	0.011634827	-0.003194809	0.00038147	-0.916503906	0.470214844	0.044921875	891.54	53.52307888	-79.14425393	-157.0484731	-51
54428	0	0.388982773	0.060070038	0.039166451	0.999999046	0.000351906	3.05E-05	0.000109673	9.724569321	1.501750946	0.979161263	0.017595292	0.001525879	0.005483627	-0.919189453	0.474609375	0.038818359	891.54	53.53975658	-79.14059772	-157.0244409	-52
54429	0	0.388000488	0.058959961	0.041320801	0.999999046	0.000377655	5.82E-05	3.43E-05	9.700012207	1.473999023	1.03302002	0.018882752	0.002908707	0.001716614	-0.918945313	0.472412109	0.036132813	891.36	53.57297375	-79.12823671	-157.0105928	-51
54430	0	0.388792038	0.060248375	0.045103073	0.999999046	0.000154495	8.39E-05	0.000201225	9.719800949	1.506209373	1.127576828	0.007724762	0.004196167	0.010061264	-0.918945313	0.472412109	0.036132813	891.6	53.50862616	-79.12946727	-156.9242829	-51
54431	0	0.389160156	0.063476563	0.043151855	0.999999046	7.63E-06	6.96E-05	0.000125885	9.729003906	1.586914063	1.078796387	0.00038147	0.003480911	0.006294251	-0.916503906	0.469970703	0.0390625	891.42	53.46156023	-79.12461441	-156.8796258	-51
54432	0	0.386849403	0.061426163	0.044973373	0.999999046	2.86E-06	-0.000148773	-3.81E-05	9.671235085	1.535654068	1.124334335	0.000143051	-0.00743866	-0.001907349	-0.916503906	0.472167969	0.035888672	891.46	53.57659062	-79.11943935	-156.9925463	-52
54433	0	0.387207031	0.061706543	0.044250488	0.999999046	-0.000171661	-9.06E-05	7.63E-06	9.680175781	1.542663574	1.106262207	-0.008583069	-0.004529953	0.00038147	-0.916748047	0.472412109	0.041748047	891.46	53.62737826	-79.11441892	-157.0716612	-52
54434	0	0.38739872	0.063760757	0.042247772	0.999999046	-0.000196457	-1.91E-06	7.63E-06	9.684967995	1.594018936	1.056194305	-0.009822846	-9.54E-05	0.00038147	-0.916503906	0.469970703	0.041992188	891.56	53.63341229	-79.10327	-157.1089737	-51
54435	0	0.387512207	0.061279297	0.043884277	0.999999046	-0.000106812	0.000153542	3.81E-06	9.687805176	1.531982422	1.097106934	-0.005340576	0.007677078	0.000190735	-0.916503906	0.472167969	0.038818359	891.6	53.57655085	-79.08116748	-157.0645652	-51
54436	0	0.386155128	0.062242508	0.045601845	0.999999046	0.000117302	5.72E-06	0.000110626	9.653878212	1.556062698	1.14004612	0.005865097	0.000286102	0.005531311	-0.916503906	0.469970703	0.0390625	891.6	53.57817836	-79.07883784	-157.0552835	-51
54437	0	0.386169434	0.061157227	0.043273926	0.999999046	-5.34E-05	5.44E-05	0.000102997	9.65423584	1.528930664	1.081848145	-0.002670288	0.002717972	0.005149841	-0.916748047	0.472412109	0.041748047	891.48	53.53977371	-79.07248001	-157.0297731	-51
54438	0	0.386482239	0.062598228	0.042100906	0.999999046	-0.000150681	-7.63E-06	0.000247002	9.662055969	1.564955711	1.052522659	-0.007534027	-0.00038147	0.012350083	-0.916503906	0.472167969	0.038818359	891.48	53.46952762	-79.08357868	-156.9769636	-52
54439	0	0.385864258	0.0625	0.042663574	0.999999046	2.29E-05	0.000218391	0.000457764	9.646606445	1.5625	1.066589355	0.001144409	0.010919571	0.022888185	-0.918945313	0.470214844	0.0390625	891.54	53.23676833	-79.09851793	-156.741342	-52
54440	0	0.388708115	0.060375214	0.043684006	0.999999046	-1.05E-05	0.000225067	0.000460625	9.717702866	1.509380341	1.092100143	-0.000524521	0.011253357	0.023031236	-0.916748047	0.472412109	0.041748047	891.48	52.9952785	-79.11309953	-156.5060746	-51
54441	0	0.388977051	0.063049316	0.04083252	0.999999046	-2.29E-05	0.000199318	0.000408173	9.72442627	1.57623291	1.020812988	-0.001144409	0.009965897	0.020408631	-0.916503906	0.472167969	0.038818359	891.5	52.78395077	-79.12449139	-156.2978497	-51
54442	0	0.38547039	0.061511993	0.041415215	0.999999046	-0.000181198	0.000102997	0.00039196	9.636759758	1.537799835	1.035380363	-0.009059906	0.005149841	0.019598008	-0.916748047	0.474365234	0.035888672	891.54	52.6063438	-79.1409704	-156.1357928	-51
54443	0	0.387634277	0.059631348	0.03894043	0.999999046	-0.000282288	0.000100136	0.000366211	9.690856934	1.490783691	0.973510742	-0.01411438	0.00500679	0.018310548	-0.916748047	0.474609375	0.038574219	891.56	52.42839122	-79.15538721	-155.9907194	-52
54444	0	0.389865875	0.058346748	0.038989067	0.999999046	-0.000226021	-0.000177383	0.000308037	9.746646881	1.458668709	0.974726677	-0.011301041	-0.008869171	0.015401841	-0.916748047	0.474365234	0.035888672	891.56	52.41026702	-79.18410486	-155.9954269	-51
54445	0	0.389038086	0.05682373	0.039428711	0.999999046	-7.25E-05	-0.000288963	0.000331879	9.725952148	1.420593262	0.985717773	-0.003623963	-0.014448166	0.016593934	-0.914306641	0.474365234	0.041503906	891.5	52.45467837	-79.22303846	-156.0560687	-51
54446	0	0.389526367	0.056131363	0.042017937	0.999999046	0.000366211	-3.24E-05	0.000395775	9.73815918	1.403284073	1.050448418	0.018310548	-0.001621246	0.019788743	-0.916748047	0.476806641	0.038574219	891.46	52.40321895	-79.25004426	-155.9620832	-52
54447	0	0.387084961	0.057800293	0.043334961	0.999999046	0.000808716	-6.68E-06	0.000270844	9.677124023	1.445007324	1.083374023	0.040435796	-0.000333786	0.013542177	-0.914306641	0.4765625	0.038330078	891.48	52.43573108	-79.2639533	-155.9028922	-51
54448	0	0.387787819	0.058450699	0.041952133	0.999999046	0.000437737	-5.72E-05	0.000350952	9.694695473	1.461267471	1.048803329	0.021886827	-0.002861023	0.017547608	-0.916748047	0.476806641	0.041503906	891.54	52.42049808	-79.28873776	-155.846108	-52
54449	0	0.389831543	0.058105469	0.04083252	0.999999046	-1.53E-05	0.000237465	0.000137329	9.745788574	1.452636719	1.020812988	-0.000762939	0.011873245	0.006866455	-0.916992188	0.479003906	0.038330078	891.48	52.29124699	-79.2736227	-155.7194003	-51
54450	0	0.389705658	0.058668137	0.041323662	0.999999046	-0.000171661	0.000263214	7.15E-05	9.742641449	1.466703415	1.033091545	-0.008583069	0.013160706	0.003576279	-0.914550781	0.4765625	0.041259766	891.56	52.15693393	-79.25076823	-155.6129615	-52
54451	0	0.388916016	0.059814453	0.04083252	0.999999046	-0.000114441	0.000424385	4.58E-05	9.722900391	1.495361328	1.020812988	-0.005722046	0.021219254	0.002288818	-0.914306641	0.4765625	0.038330078	891.6	51.96350441	-79.21422361	-155.434672	-51
54452	0	0.388150215	0.058180809	0.045080185	0.999999046	-0.000288963	0.000118256	2.86E-06	9.703755379	1.454520226	1.127004623	-0.014448166	0.005912781	0.000143051	-0.914550781	0.478759766	0.038085938	891.48	51.91129547	-79.19535135	-155.4187924	-52
54453	0	0.38848877	0.057861328	0.046264648	0.999999046	-9.54E-05	5.05E-05	-3.05E-05	9.712219238	1.446533203	1.156616211	-0.004768372	0.002527237	-0.001525879	-0.916748047	0.4765625	0.032714844	891.44	51.92496466	-79.1782313	-155.4374877	-52
54454	0	0.387320518	0.059279442	0.047290802	0.999999046	0.000230789	8.77E-05	3.43E-05	9.683012962	1.481986046	1.18227005	0.011539459	0.004386902	0.001716614	-0.914550781	0.4765625	0.041259766	891.46	51.93380372	-79.16421404	-155.4313324	-51
54455	0	0.386962891	0.057678223	0.047607422	0.999999046	0.000164032	0.00024128	6.48E-05	9.674072266	1.441955566	1.190185547	0.008201599	0.01206398	0.003242493	-0.914306641	0.4765625	0.035400391	891.48	51.85056464	-79.14203439	-155.3281039	-51
54456	0	0.386276245	0.060145378	0.046673775	0.999999046	0.000149727	0.000234604	-6.58E-05	9.656906128	1.503634453	1.166844368	0.007486343	0.011730194	-0.003290176	-0.914550781	0.478759766	0.038085938	891.6	51.8170459	-79.10841332	-155.2828669	-51
54457	0	0.388061523	0.061401367	0.04296875	0.999999046	-0.000286102	0.000306129	-4.96E-05	9.701538086	1.53503418	1.07421875	-0.014305115	0.015306473	-0.002479553	-0.916503906	0.474365234	0.032958984	891.5	51.69531659	-79.071142	-155.1906106	-51
54458	0	0.387908936	0.060012817	0.040309906	0.999999046	-0.000286102	-1.91E-06	-2.77E-05	9.697723389	1.500320435	1.00774765	-0.014305115	-9.54E-05	-0.001382828	-0.916503906	0.474365234	0.032958984	891.5	51.71034075	-79.05782586	-155.2369513	-51
54459	0	0.387329102	0.056030273	0.04510498	0.999999046	-0.000118256	9.54E-07	-7.63E-06	9.683227539	1.400756836	1.127624512	-0.005912781	4.77E-05	-0.00038147	-0.916748047	0.476806641	0.035644531	891.56	51.73518938	-79.04622922	-155.2780078	-51
54460	0	0.386595726	0.056879044	0.047376633	0.999999046	6.68E-06	9.54E-05	-0.000133514	9.66489315	1.421976089	1.184415817	0.000333786	0.004768372	-0.00667572	-0.916503906	0.474365234	0.032958984	891.54	51.77549496	-79.01662002	-155.3158522	-51
54461	0	0.385375977	0.05871582	0.046630859	0.999999046	9.92E-05	-0.000235558	-5.34E-05	9.634399414	1.467895508	1.165771484	0.004959107	-0.011777878	-0.002670288	-0.916503906	0.472167969	0.038818359	891.42	51.95003727	-79.0175986	-155.4919466	-51
54462	0	0.388320923	0.058521271	0.046069145	0.999999046	4.20E-05	-0.000385284	0.000144958	9.708023071	1.463031769	1.15172863	0.002098084	-0.019264222	0.007247925	-0.916748047	0.474365234	0.035888672	891.6	52.11543658	-79.04698032	-155.6569574	-51
54463	0	0.388977051	0.061828613	0.043701172	0.999999046	0.000209808	-0.000304222	-1.91E-05	9.72442627	1.545715332	1.092529297	0.010490418	-0.015211106	-0.000953674	-0.914306641	0.474365234	0.035644531	891.48	52.32295703	-79.05567214	-155.8434679	-51
54464	0	0.385950089	0.060214043	0.044843674	0.999999046	0.000170708	-8.96E-05	-0.000126839	9.648752213	1.505351067	1.121091843	0.008535385	-0.004482269	-0.006341934	-0.919189453	0.474609375	0.041748047	891.46	52.46428891	-79.03942051	-155.9803423	-51
54465	0	0.385925293	0.061523438	0.044616699	0.999999046	7.63E-05	4.77E-06	0	9.648132324	1.538085938	1.11541748	0.003814697	0.000238419	0	-0.916748047	0.4765625	0.032714844	891.46	52.50468286	-79.02799407	-156.0053167	-51
54466	0	0.387084007	0.060126305	0.045098305	0.999999046	-0.000116348	-3.43E-05	0.000106812	9.677100182	1.503157616	1.127457619	-0.005817413	-0.001716614	0.005340576	-0.916748047	0.474365234	0.035888672	891.54	52.50267589	-79.02897857	-156.0169273	-51
54467	0	0.388977051	0.059326172	0.04296875	0.999999046	0.000175476	0.000199318	-4.58E-05	9.72442627	1.483154297	1.07421875	0.008773804	0.009965897	-0.002288818	-0.918945313	0.474609375	0.032958984	891.5	52.47965013	-78.99988319	-155.9682813	-51
54468	0	0.386755943	0.059926033	0.044382095	0.999999046	0.000369072	4.58E-05	0.000106812	9.668898582	1.498150826	1.109552383	0.018453598	0.002288818	0.005340576	-0.916748047	0.474609375	0.038574219	891.56	52.49583751	-78.99538046	-155.9492427	-51
54469	0	0.386962891	0.0625	0.043945313	0.999999046	0.000110626	-0.000243187	0.000228882	9.674072266	1.5625	1.098632813	0.005531311	-0.012159348	0.011444092	-0.916503906	0.472167969	0.035888672	891.54	52.574311	-79.02205438	-156.0185656	-51
54470	0	0.387072563	0.061721802	0.042765617	0.999999046	-6.10E-05	-9.54E-05	0.000225067	9.676814079	1.543045044	1.069140434	-0.003051758	-0.004768372	0.011253357	-0.916503906	0.472167969	0.032958984	891.56	52.56582895	-79.03806512	-156.0128813	-52
54471	0	0.385803223	0.062561035	0.044494629	0.999999046	3.05E-05	-0.000567436	0.000286102	9.645080566	1.564025879	1.112365723	0.001525879	-0.028371813	0.014305116	-0.916748047	0.474609375	0.038574219	891.48	52.76894569	-79.09232196	-156.2208455	-51
54472	0	0.385890961	0.060267448	0.047103882	0.999999046	-0.000504494	-0.001197815	0.000171661	9.647274017	1.506686211	1.177597046	-0.025224693	-0.059890764	0.008583071	-0.916503906	0.472167969	0.038818359	891.5	53.25480842	-79.17920995	-156.7751056	-52
54473	0	0.386169434	0.060546875	0.043029785	0.999998093	-0.000926018	-0.001148224	0.00025177	9.65423584	1.513671875	1.075744629	-0.046300905	-0.057411215	0.012588506	-0.916748047	0.474609375	0.041503906	891.5	53.64777106	-79.26924452	-157.282316	-51
54474	0	0.389899254	0.061368942	0.042369843	0.999999046	-0.000865936	-0.000713348	0.000183105	9.747481346	1.534223557	1.059246063	-0.043296823	-0.035667427	0.009155275	-0.916748047	0.476806641	0.041503906	891.48	53.86575462	-79.32291402	-157.5990411	-52
54475	0	0.388305664	0.059936523	0.04095459	0.999999046	-0.000911713	-0.000720024	0.000339508	9.707641602	1.498413086	1.023864746	-0.045585643	-0.036001214	0.016975407	-0.919189453	0.474609375	0.044677734	891.48	54.02865539	-79.39134154	-157.8687697	-51
54476	0	0.386206627	0.057705879	0.0411129	0.999999046	-0.000977516	-0.000720978	0.000141144	9.655165672	1.44264698	1.027822495	-0.048875821	-0.036048898	0.007057192	-0.914550781	0.476806641	0.050048828	891.54	54.25826694	-79.44129514	-158.2188172	-51
54477	0	0.389038086	0.058349609	0.039306641	0.999999046	-0.000827789	-0.000529289	8.01E-05	9.725952148	1.458740234	0.982666016	-0.041389472	-0.026464467	0.004005433	-0.914550781	0.474609375	0.050048828	891.48	54.4335016	-79.47263042	-158.4933463	-51
54478	0	0.390004158	0.058709145	0.039356232	0.999999046	-0.000947952	-0.000419617	2.67E-05	9.750103951	1.467728615	0.983905792	-0.047397622	-0.020980839	0.001335144	-0.916748047	0.472412109	0.053222656	891.6	54.56025961	-79.49162476	-158.7369429	-52
54479	0	0.388977051	0.056518555	0.040527344	0.999999046	-0.000915527	-0.000239372	-8.39E-05	9.72442627	1.412963867	1.013183594	-0.045776374	-0.011968614	-0.004196168	-0.916992188	0.472412109	0.056152344	891.54	54.63941151	-79.48835187	-158.9314728	-52
54480	0	0.387094498	0.058033943	0.040691376	0.999999046	-0.000538826	-7.25E-05	-0.000171661	9.677362442	1.450848579	1.017284393	-0.026941301	-0.003623963	-0.008583069	-0.916992188	0.472412109	0.056152344	891.5	54.70844325	-79.46580019	-159.0700699	-52
54481	0	0.388000488	0.057128906	0.039245605	0.999999046	-0.000221252	0.000180244	1.53E-05	9.700012207	1.428222656	0.981140137	-0.011062622	0.009012222	0.000762939	-0.916992188	0.474609375	0.053222656	891.46	54.61997597	-79.44410149	-159.0044206	-51
54482	0	0.386095047	0.057037354	0.04172802	0.999999046	0.000101089	7.44E-05	5.34E-05	9.652376175	1.425933838	1.043200493	0.005054474	0.00371933	0.002670288	-0.916992188	0.472412109	0.056152344	891.5	54.60740828	-79.43302332	-158.9860265	-51
54483	0	0.38861084	0.057739258	0.042541504	0.999999046	0.000293732	-6.01E-05	-4.96E-05	9.715270996	1.443481445	1.063537598	0.014686585	-0.003004074	-0.002479553	-0.914550781	0.472412109	0.059082031	891.56	54.7200529	-79.4212502	-159.0783943	-51
54484	0	0.389890671	0.057801247	0.039896011	0.999999046	0.000235558	-6.29E-05	-5.72E-05	9.747266769	1.445031166	0.997400284	0.011777878	-0.003147125	-0.002861023	-0.919189453	0.472412109	0.053466797	891.54	54.8297761	-79.40903438	-159.1635072	-51
54485	0	0.386779785	0.05859375	0.040283203	0.999999046	0.00062561	4.29E-05	-8.39E-05	9.669494629	1.46484375	1.007080078	0.03128052	0.002145767	-0.004196167	-0.916748047	0.470214844	0.053466797	891.48	54.94016162	-79.3873463	-159.2057365	-52
54486	0	0.388597488	0.057610512	0.040426254	0.999999046	0.0008564	0.000267029	-5.05E-05	9.71493721	1.440262794	1.010656357	0.042819983	0.013351442	-0.002527237	-0.919189453	0.470214844	0.056640625	891.5	54.9526536	-79.35412858	-159.1309916	-52
54487	0	0.389404297	0.057922363	0.041748047	0.999999046	0.000637054	0.000172615	-0.000106812	9.735107422	1.448059082	1.043701172	0.031852725	0.008630753	-0.005340577	-0.916748047	0.472412109	0.050537109	891.5	55.00625439	-79.32191727	-159.1111042	-52
54488	0	0.3891325	0.06043911	0.042170525	0.999999046	0.0007658	0.000431061	-3.15E-05	9.728312492	1.510977745	1.054263115	0.038290029	0.021553042	-0.001573563	-0.916748047	0.472412109	0.050537109	891.48	54.91981651	-79.27972817	-158.9367867	-51
54489	0	0.389038086	0.062072754	0.040039063	0.999999046	0.00030899	0.000267982	1.53E-05	9.725952148	1.551818848	1.000976563	0.015449524	0.013399125	0.000762939	-0.919189453	0.472412109	0.047607422	891.56	54.84674446	-79.25259146	-158.8251482	-52
54490	0	0.385844231	0.061230659	0.040145874	0.999999046	0.000310898	0.00056839	0.000201225	9.646105766	1.530766487	1.003646851	0.015544893	0.028419497	0.010061265	-0.916748047	0.470214844	0.047607422	891.56	54.56233814	-79.22287158	-158.5017184	-52
54491	0	0.38671875	0.05847168	0.042114258	0.999999046	0.000377655	0.000683784	2.29E-05	9.66796875	1.461791992	1.052856445	0.018882753	0.034189228	0.001144409	-0.916748047	0.472412109	0.047607422	891.54	54.29306663	-79.16859616	-158.1881466	-52
54492	0	0.387577057	0.061843872	0.044061661	0.999999046	0.000519753	0.000494003	-0.000125885	9.689426422	1.546096802	1.101541519	0.025987627	0.024700167	-0.006294251	-0.916748047	0.472412109	0.044677734	891.54	54.18628524	-79.11288697	-158.0199529	-51
54493	0	0.385986328	0.060546875	0.043395996	0.999999046	0.000347137	0.000329018	-8.39E-05	9.649658203	1.513671875	1.084899902	0.017356873	0.016450883	-0.004196167	-0.918945313	0.472412109	0.041992188	891.56	54.125532	-79.07206488	-157.9153266	-52
54494	0	0.387718201	0.061311722	0.042142868	0.999999046	0.000339508	4.77E-05	-0.000236511	9.692955017	1.532793045	1.053571701	0.016975403	0.002384186	-0.011825562	-0.918945313	0.470214844	0.041992188	891.6	54.25236421	-79.03593758	-158.0042491	-52
54495	0	0.388793945	0.06237793	0.040893555	0.999999046	0.000408173	0.000390053	-0.000183105	9.719848633	1.559448242	1.022338867	0.020408632	0.019502641	-0.009155274	-0.916748047	0.470214844	0.047607422	891.5	54.20478529	-78.98184303	-157.9208716	-51
54496	0	0.388615608	0.061699867	0.042854309	0.999999046	0.000437737	0.000480652	-0.000184059	9.715390205	1.542496681	1.071357727	0.021886827	0.024032595	-0.009202958	-0.916259766	0.467773438	0.036376953	891.56	54.1186293	-78.92157086	-157.7745646	-51
54497	0	0.387145996	0.064331055	0.043518066	0.999999046	0.000667572	0.000519753	-0.000137329	9.678649902	1.608276367	1.08795166	0.033378605	0.025987628	-0.006866456	-0.921386719	0.470214844	0.039306641	891.6	54.02585157	-78.86284782	-157.6037787	-52
54498	0	0.385922432	0.063458443	0.04474926	0.999999046	0.000680923	0.000671387	-5.82E-05	9.648060799	1.586461067	1.118731499	0.034046178	0.033569341	-0.002908707	-0.916259766	0.467773438	0.036376953	891.56	53.8379947	-78.80104487	-157.3323665	-51
54499	0	0.385681152	0.063903809	0.044494629	0.999999046	0.000450134	0.000340462	3.81E-06	9.642028809	1.597595215	1.112365723	0.022506715	0.017023087	0.000190735	-0.918701172	0.468017578	0.039306641	891.5	53.75885989	-78.76715595	-157.2072748	-52
54500	0	0.384919167	0.063879013	0.044270515	0.999999046	0.000494957	0.000328064	0.000152588	9.622979164	1.596975327	1.106762886	0.02474785	0.016403199	0.007629395	-0.918701172	0.467773438	0.033447266	891.54	53.64064031	-78.74772902	-157.027136	-51
54501	0	0.38671875	0.063842773	0.042175293	0.999999046	0.000545502	0.000306129	0.00018692	9.66796875	1.596069336	1.054382324	0.027275087	0.015306474	0.009346009	-0.918701172	0.465576172	0.036621094	891.5	53.52777347	-78.73290119	-156.8565258	-52
54502	0	0.386472702	0.064904213	0.04252243	0.999999046	0.000459671	0.000152588	0.000205994	9.661817551	1.622605324	1.06306076	0.022983552	0.007629395	0.010299683	-0.918701172	0.467773438	0.036376953	891.5	53.47055381	-78.73020713	-156.7526448	-52
54503	0	0.38684082	0.063842773	0.039916992	0.999999046	0.00025177	-1.43E-05	0.000461578	9.671020508	1.596069336	0.997924805	0.012588502	-0.000715256	0.02307892	-0.918701172	0.467773438	0.033447266	891.48	53.38001461	-78.76249097	-156.6335868	-52
54504	0	0.390684128	0.063074112	0.039383888	0.999999046	0.000237465	5.53E-05	0.000380516	9.767103195	1.576852798	0.984597206	0.011873246	0.002765656	0.019025803	-0.918701172	0.467773438	0.030761719	891.56	53.28414608	-78.78268205	-156.5060429	-52
54505	0	0.38885498	0.062011719	0.046081543	0.999999046	0.000671387	0.000519753	0.000259399	9.721374512	1.550292969	1.152038574	0.03356934	0.025987629	0.012969972	-0.916259766	0.467773438	0.030517578	891.56	53.06463744	-78.75977045	-156.2043592	-51
54506	0	0.385237694	0.064315796	0.047187805	0.999999046	0.000940323	0.000463486	0.000236511	9.630942345	1.607894897	1.179695129	0.047016153	0.02317429	0.011825564	-0.921142578	0.470214844	0.030517578	891.48	52.9105445	-78.73827738	-155.9415667	-51
54507	0	0.383911133	0.064575195	0.04675293	0.999999046	0.000236511	0.000115395	0.000312805	9.59777832	1.614379883	1.168823242	0.011825562	0.00576973	0.015640259	-0.916503906	0.472167969	0.02734375	891.56	52.8094139	-78.74754756	-155.8077232	-52
54508	0	0.386198997	0.063988686	0.045345306	0.999999046	-0.000166893	0.000171661	0.000231743	9.654974937	1.59971714	1.13363266	-0.00834465	0.008583069	0.011587143	-0.918701172	0.469970703	0.027587891	891.6	52.66463042	-78.74537682	-155.678913	-52
54509	0	0.38671875	0.065246582	0.045166016	0.999999046	-0.000457764	0.000199318	0.000236511	9.66796875	1.631164551	1.129150391	-0.022888185	0.009965897	0.011825562	-0.916503906	0.472167969	0.030273438	891.6	52.47279273	-78.74151183	-155.5403885	-52
54510	0	0.388439178	0.063127518	0.046232224	0.999999046	-0.000341415	0.000230789	0.000408173	9.710979462	1.578187943	1.155805588	-0.017070771	0.01153946	0.020408632	-0.916259766	0.469970703	0.027587891	891.52	52.21960443	-78.75085797	-155.3214581	-51
54511	0	0.387634277	0.061889648	0.044677734	0.999999046	-0.000331879	0.000229836	0.000335693	9.690856934	1.547241211	1.116943359	-0.016593934	0.011491776	0.016784669	-0.918945313	0.474609375	0.030029297	891.54	51.99351595	-78.75357022	-155.1331173	-52
54512	0	0.384419441	0.061173439	0.046114922	0.999999046	-0.000164986	0.000123978	0.000362396	9.610486031	1.529335976	1.152873039	-0.008249283	0.006198883	0.018119813	-0.918945313	0.472412109	0.033203125	891.68	51.82481535	-78.76602726	-154.9917702	-51
54513	0	0.386962891	0.06072998	0.045776367	0.999999046	-0.000267029	5.82E-05	0.000427246	9.674072266	1.518249512	1.14440918	-0.013351441	0.002908707	0.021362306	-0.916503906	0.472167969	0.02734375	891.6	51.65058421	-78.78893675	-154.8438913	-51
54514	0	0.386155128	0.060984612	0.047134399	0.999999046	-0.000291824	-3.81E-06	0.000445366	9.653878212	1.524615288	1.178359985	-0.014591218	-0.000190735	0.022268296	-0.918945313	0.474609375	0.032958984	891.6	51.49422101	-78.81776576	-154.7280906	-51
54515	0	0.386657715	0.059753418	0.046691895	0.999999046	-0.000392914	-6.01E-05	0.000328064	9.666442871	1.493835449	1.167297363	-0.019645692	-0.003004074	0.016403199	-0.916503906	0.474365234	0.027099609	891.6	51.39333559	-78.84007223	-154.6670826	-51
54516	0	0.387312889	0.06056118	0.045959473	0.999999046	-0.000329018	-9.35E-05	0.000330925	9.682822227	1.514029503	1.148986816	-0.016450883	-0.004673004	0.01654625	-0.916503906	0.4765625	0.026855469	891.5	51.31364835	-78.86501643	-154.6180621	-51
54517	0	0.387451172	0.059448242	0.047546387	0.999999046	-0.000377655	-5.25E-05	4.58E-05	9.686279297	1.486206055	1.188659668	-0.018882752	-0.002622604	0.002288818	-0.916503906	0.474365234	0.030029297	891.56	51.3129519	-78.86150594	-154.6620141	-51
54518	0	0.387765884	0.057605743	0.048036575	0.999999046	-0.000448227	-0.00034523	0.000159264	9.69414711	1.440143585	1.200914383	-0.022411348	-0.017261506	0.007963181	-0.918945313	0.474609375	0.032958984	891.48	51.39533996	-78.88915294	-154.8032454	-51
54519	0	0.388977051	0.059265137	0.046264648	0.999999046	-0.00025177	-0.000464439	0.000228882	9.72442627	1.481628418	1.156616211	-0.012588502	-0.023221971	0.011444092	-0.916503906	0.474365234	0.032958984	891.6	51.52990902	-78.93154884	-154.9721347	-51
54520	0	0.388863564	0.058330536	0.046359062	0.999999046	-6.01E-05	-0.00015831	0.000216484	9.721589088	1.458263397	1.158976555	-0.003004074	-0.007915497	0.010824204	-0.916748047	0.4765625	0.032714844	891.62	51.55077544	-78.95103547	-155.0007066	-52
54521	0	0.38861084	0.057861328	0.04510498	0.999999046	-0.000141144	-0.000227928	6.48E-05	9.715270996	1.446533203	1.127624512	-0.00705719	-0.011396408	0.003242493	-0.914306641	0.4765625	0.038330078	891.56	51.64961983	-78.96196279	-155.1283217	-51
54522	0	0.388332367	0.058713913	0.043172836	0.999999046	-7.63E-06	-0.000204086	7.92E-05	9.708309174	1.467847824	1.079320908	-0.00038147	-0.010204315	0.003957748	-0.914306641	0.4765625	0.035400391	891.54	51.74805676	-78.97257477	-155.2328036	-51
54523	0	0.388000488	0.058227539	0.044799805	0.999999046	0	-5.25E-05	0.000102997	9.700012207	1.455688477	1.119995117	0	-0.002622604	0.005149841	-0.914306641	0.474365234	0.035644531	891.62	51.76860023	-78.97464438	-155.2583105	-52
54524	0	0.386063576	0.057415009	0.043598175	0.999999046	0.000105858	-7.82E-05	7.15E-05	9.651589394	1.435375214	1.089954376	0.005292892	-0.003910065	0.003576279	-0.914306641	0.474365234	0.032714844	891.56	51.82457387	-78.9758391	-155.3012575	-51
54525	0	0.387512207	0.057556152	0.045349121	0.999999046	0.000144958	5.44E-05	5.72E-05	9.687805176	1.438903809	1.133728027	0.007247925	0.002717972	0.002861023	-0.916748047	0.474365234	0.035888672	891.62	51.82853224	-78.96643616	-155.2942623	-51
54526	0	0.38781929	0.060210228	0.044884682	0.999999046	0.000324249	-2.48E-05	-5.72E-05	9.695482254	1.505255699	1.122117043	0.016212464	-0.001239777	-0.002861023	-0.916748047	0.476806641	0.035644531	891.48	51.9311916	-78.9523184	-155.3655914	-52
54527	0	0.38861084	0.057861328	0.043762207	0.999999046	0.000236511	0.000435829	-4.58E-05	9.715270996	1.446533203	1.094055176	0.011825562	0.021791459	-0.002288818	-0.916748047	0.474365234	0.035888672	891.6	51.80721528	-78.90678277	-155.219776	-52
54528	0	0.388811111	0.059869766	0.043704987	0.999999046	0.000390053	0.000883102	-0.000226021	9.720277786	1.496744156	1.092624664	0.019502643	0.044155128	-0.011301043	-0.918945313	0.474609375	0.030029297	891.48	51.56364866	-78.81325215	-154.9258505	-52
54529	0	0.385925293	0.058654785	0.046325684	0.999999046	0.000850677	0.0004282	-6.10E-05	9.648132324	1.466369629	1.15814209	0.042533881	0.021409992	-0.003051758	-0.918945313	0.474609375	0.02734375	891.54	51.52216377	-78.76685618	-154.7816778	-52
54530	0	0.386244774	0.058231354	0.046434402	0.999999046	0.000577927	2.29E-05	2.29E-05	9.656119347	1.455783844	1.160860062	0.028896333	0.001144409	0.001144409	-0.916503906	0.474365234	0.030029297	891.48	51.60229035	-78.75695416	-154.7998626	-52
54531	0	0.38671875	0.06036377	0.044616699	0.999999046	0.000709534	5.82E-05	-4.58E-05	9.66796875	1.509094238	1.11541748	0.035476688	0.002908707	-0.002288819	-0.916503906	0.474365234	0.030029297	891.5	51.70628068	-78.73842579	-154.8284386	-51
54532	0	0.387805939	0.059790611	0.044758797	0.999999046	0.000861168	8.39E-05	0.000109673	9.695148468	1.494765282	1.118969917	0.043058401	0.004196168	0.005483628	-0.918945313	0.474609375	0.030029297	891.56	51.76059155	-78.73214158	-154.7909602	-51
54533	0	0.38659668	0.059631348	0.04498291	0.999999046	0.000911713	4.29E-05	0.000118256	9.664916992	1.490783691	1.124572754	0.045585639	0.002145768	0.005912782	-0.916503906	0.474365234	0.027099609	891.54	51.83617422	-78.72962832	-154.7646699	-52
54534	0	0.386363029	0.062125206	0.04563427	0.999999046	0.000770569	0.00019455	0.000227928	9.659075737	1.55313015	1.140856743	0.038528447	0.009727479	0.011396409	-0.916503906	0.474365234	0.027099609	891.48	51.78834731	-78.72621057	-154.6313937	-52
54535	0	0.387390137	0.060668945	0.044799805	0.999999046	0.000629425	7.72E-05	0.000141144	9.684753418	1.516723633	1.119995117	0.031471255	0.003862381	0.00705719	-0.918945313	0.476806641	0.024169922	891.6	51.80842805	-78.72333932	-154.578666	-52
54536	0	0.387094498	0.061348915	0.045269012	0.999999046	0.000403404	4.20E-05	0.000293732	9.677362442	1.533722878	1.131725311	0.020170213	0.002098084	0.014686585	-0.916259766	0.474365234	0.021240234	891.56	51.76446292	-78.73671611	-154.4826237	-52
54537	0	0.387329102	0.058654785	0.045593262	0.999999046	0.000331879	-1.81E-05	0.000217438	9.683227539	1.466369629	1.139831543	0.016593934	-0.000905991	0.010871887	-0.916259766	0.474365234	0.018554688	891.62	51.76625173	-78.74758249	-154.4368126	-52
54538	0	0.387540817	0.062056541	0.046086311	0.999999046	0.000606537	0.000326157	0.000166893	9.688520432	1.551413536	1.152157784	0.030326846	0.016307832	0.008344651	-0.918701172	0.474365234	0.024414063	891.62	51.66217303	-78.72939737	-154.2663731	-52
54539	0	0.386047363	0.061706543	0.045593262	0.999999046	0.000255585	-7.92E-05	0.000305176	9.651184082	1.542663574	1.139831543	0.012779236	-0.003957749	0.015258789	-0.916259766	0.474365234	0.021240234	891.56	51.65178541	-78.75239177	-154.2256637	-52
54540	0	0.383954048	0.059175491	0.046172142	0.999999046	0.000193596	-0.000226974	0.000228882	9.598851204	1.479387283	1.154303551	0.009679795	-0.011348725	0.011444092	-0.9140625	0.474365234	0.024169922	891.62	51.7282103	-78.77905166	-154.286082	-52
54541	0	0.38494873	0.057922363	0.045349121	0.999999046	3.81E-06	-0.000277519	7.63E-05	9.623718262	1.448059082	1.133728027	0.000190735	-0.013875961	0.003814697	-0.916259766	0.4765625	0.015380859	891.6	51.86042202	-78.79563488	-154.4055403	-52
54542	0	0.38388443	0.058473587	0.046599388	0.999999046	5.91E-05	-0.000524521	-5.44E-05	9.597110748	1.461839676	1.164984703	0.002956391	-0.026226045	-0.002717972	-0.918701172	0.474365234	0.021484375	891.56	52.15830303	-78.81775503	-154.6998542	-51
54543	0	0.387817383	0.057250977	0.04296875	0.999999046	-0.00018692	-0.000700951	-2.67E-05	9.69543457	1.431274414	1.07421875	-0.009346009	-0.035047534	-0.001335144	-0.916259766	0.474365234	0.021240234	891.52	52.50062222	-78.85462233	-155.0641041	-51
54544	0	0.389217377	0.060306549	0.043542862	0.999999046	0.000142097	-0.00034523	0.000136375	9.730434418	1.507663727	1.088571548	0.007104874	-0.017261506	0.006818772	-0.916503906	0.474365234	0.024169922	891.6	52.66050051	-78.88130763	-155.2092617	-51
54545	0	0.389038086	0.058776855	0.043395996	0.999999046	3.05E-05	-0.000212669	0.000267029	9.725952148	1.469421387	1.084899902	0.001525879	-0.010633469	0.013351441	-0.918701172	0.472167969	0.024414063	891.56	52.7003278	-78.91075686	-155.2463897	-51
54546	0	0.388540268	0.061013222	0.045422554	0.999999046	0.000148773	0.000143051	0.000231743	9.713506699	1.525330544	1.13556385	0.00743866	0.007152557	0.011587143	-0.916503906	0.474365234	0.027099609	891.52	52.60070215	-78.91221279	-155.1328769	-52
54547	0	0.388000488	0.060974121	0.046936035	0.999999046	-0.000320435	-6.01E-05	0.0001297	9.700012207	1.524353027	1.173400879	-0.016021729	-0.003004074	0.006484985	-0.918701172	0.474365234	0.024414063	891.52	52.5774505	-78.91839885	-155.1458492	-51
54548	0	0.387654305	0.059195518	0.04564476	0.999999046	-0.000548363	7.63E-06	0.000183105	9.691357613	1.479887962	1.141119003	-0.027418138	0.00038147	0.009155274	-0.916503906	0.474365234	0.027099609	891.56	52.47716386	-78.92472719	-155.1112189	-51
54549	0	0.388061523	0.059936523	0.04498291	0.999999046	-0.000225067	0.000264168	0.000133514	9.701538086	1.498413086	1.124572754	-0.011253357	0.01320839	0.00667572	-0.916503906	0.4765625	0.023925781	891.56	52.3125488	-78.90859709	-154.966253	-52
54550	0	0.387259483	0.060421944	0.046678543	0.999999046	-0.000352859	6.48E-05	4.48E-05	9.681487083	1.510548592	1.166963577	-0.017642975	0.003242493	0.002241135	-0.9140625	0.474365234	0.021240234	891.62	52.25709122	-78.898274	-154.941922	-51
54551	0	0.387023926	0.059509277	0.046875	0.999999046	-0.000343323	0.000199318	-4.96E-05	9.675598145	1.487731934	1.171875	-0.017166138	0.009965897	-0.002479553	-0.916503906	0.474365234	0.027099609	891.5	52.17407812	-78.86990956	-154.9012674	-51
54552	0	0.388586044	0.059332848	0.045726776	0.999999046	-0.000197411	0.000164032	-0.000171661	9.714651108	1.48332119	1.143169403	-0.009870529	0.008201599	-0.008583069	-0.916503906	0.474365234	0.024169922	891.56	52.16751135	-78.83299762	-154.9152829	-52
54553	0	0.388244629	0.062133789	0.045288086	0.999999046	-0.000118256	0.000393867	-0.000110626	9.706115723	1.553344727	1.132202148	-0.005912781	0.019693375	-0.005531311	-0.918945313	0.474609375	0.02734375	891.56	52.04369571	-78.78536831	-154.8086556	-51
54554	0	0.386790276	0.060803413	0.047070503	0.999999046	-0.000429153	0.000291824	6.68E-06	9.669756889	1.520085335	1.176762581	-0.021457673	0.014591218	0.000333786	-0.916503906	0.474365234	0.027099609	891.56	51.88965376	-78.75541882	-154.7067466	-51
54555	0	0.385864258	0.059326172	0.045959473	0.999999046	-0.000370026	0.000325203	-0.000152588	9.646606445	1.483154297	1.148986816	-0.018501283	0.016260148	-0.007629395	-0.916259766	0.472167969	0.024414063	891.58	51.78440114	-78.70874575	-154.6431664	-52
54556	0	0.387220383	0.058494568	0.045459747	0.999999046	-0.000538826	0.000314713	-3.15E-05	9.680509567	1.462364197	1.136493683	-0.026941301	0.015735627	-0.001573563	-0.916503906	0.474365234	0.027099609	891.56	51.62210892	-78.67379062	-154.5458405	-52
54557	0	0.389831543	0.061279297	0.046386719	0.999999046	-0.000411987	0.000210762	-3.05E-05	9.745788574	1.531982422	1.159667969	-0.020599366	0.010538102	-0.001525879	-0.918701172	0.472167969	0.021728516	891.62	51.52135947	-78.64629101	-154.4864035	-51
54558	0	0.387182236	0.060224533	0.048551559	0.999999046	-0.000310898	0.000442505	-5.72E-05	9.679555893	1.505613327	1.213788986	-0.015544892	0.022125245	-0.002861023	-0.921142578	0.472412109	0.027587891	891.56	51.33857552	-78.5997782	-154.3451294	-51
54559	0	0.387756348	0.060791016	0.047729492	0.999999046	-0.00056839	0.000447273	-0.000236511	9.693908691	1.519775391	1.193237305	-0.028419497	0.022363665	-0.011825563	-0.916259766	0.472167969	0.024414063	891.54	51.18903188	-78.53680691	-154.2604828	-52
54560	0	0.387135506	0.062446594	0.046741486	0.999999046	-0.000618935	0.000574112	-0.000167847	9.678387642	1.561164856	1.16853714	-0.030946735	0.0287056	-0.008392335	-0.918457031	0.469970703	0.021728516	891.56	50.9557198	-78.4707438	-154.0927474	-52
54561	0	0.386901855	0.061218262	0.048400879	0.999999046	-0.000408173	0.000699043	-0.000160217	9.672546387	1.530456543	1.210021973	-0.020408633	0.034952168	-0.008010865	-0.918701172	0.469970703	0.027587891	891.5	50.69201043	-78.39616089	-153.8832444	-51
54562	0	0.387852669	0.06166935	0.047954559	0.999999046	-0.00030899	0.000713348	-0.000228882	9.696316719	1.541733742	1.198863983	-0.015449526	0.035667423	-0.011444093	-0.918701172	0.469970703	0.024658203	891.5	50.46102653	-78.31429569	-153.6909319	-51
54563	0	0.386352539	0.061401367	0.047546387	0.999999046	-6.10E-05	0.000462532	-2.67E-05	9.658813477	1.53503418	1.188659668	-0.003051758	0.023126603	-0.001335144	-0.918457031	0.469970703	0.021728516	891.56	50.29675478	-78.26853094	-153.5329113	-52
54564	0	0.386060715	0.063551903	0.047970772	0.999999046	7.72E-05	0.000484467	-0.000102997	9.651517868	1.588797569	1.199269295	0.003862381	0.024223329	-0.005149842	-0.918457031	0.467773438	0.016113281	891.66	50.16777224	-78.21433744	-153.3857603	-51
54565	0	0.385314941	0.063781738	0.048828125	0.999999046	1.53E-05	0.000554085	9.92E-05	9.632873535	1.594543457	1.220703125	0.000762939	0.02770424	0.004959107	-0.918457031	0.467773438	0.016113281	891.56	49.93317152	-78.17264668	-153.1402323	-51
54566	0	0.387533188	0.062850952	0.047179222	0.999999046	-0.000205994	0.000572205	1.43E-05	9.688329697	1.571273804	1.179480553	-0.010299683	0.028610231	0.000715256	-0.920654297	0.467773438	0.016357422	891.54	49.69807149	-78.12206581	-152.9228086	-52
54567	0	0.387573242	0.062805176	0.04675293	0.999999046	6.87E-05	0.000569344	0.0001297	9.689331055	1.570129395	1.168823242	0.003433228	0.02846718	0.006484986	-0.918457031	0.467773438	0.019042969	891.62	49.45764558	-78.08169365	-152.6752496	-52
54568	0	0.387473106	0.063443184	0.048892975	0.999999046	-8.87E-05	0.000526428	0.000136375	9.68682766	1.586079597	1.222324371	-0.004434586	0.026321412	0.006818772	-0.920898438	0.469970703	0.016113281	891.52	49.21673755	-78.04492137	-152.4407193	-52
54569	0	0.387695313	0.06427002	0.04888916	0.999999046	-8.01E-05	0.000916481	0.000190735	9.692382813	1.606750488	1.222229004	-0.004005433	0.045824058	0.009536745	-0.920898438	0.469970703	0.016113281	891.48	48.8014539	-77.98327036	-152.0302828	-52
54570	0	0.385857582	0.064663887	0.050459862	0.999999046	-0.000265121	0.000938416	0.000353813	9.646439552	1.616597176	1.261496544	-0.013256075	0.046920785	0.017690662	-0.918457031	0.469970703	0.013183594	891.5	48.30312807	-77.93323399	-151.5530932	-51
54571	0	0.383666992	0.062805176	0.052978516	0.999999046	-0.000484467	0.000893593	0.000278473	9.591674805	1.570129395	1.324462891	-0.024223332	0.04467965	0.013923648	-0.920654297	0.469970703	0.010253906	891.44	47.82862242	-77.87929948	-151.1228891	-52
54572	0	0.384459496	0.061317444	0.053907394	0.999999046	-0.000620842	0.000858307	7.92E-05	9.611487389	1.532936096	1.34768486	-0.031042105	0.042915352	0.003957749	-0.920654297	0.469970703	0.007568359	891.52	47.42780949	-77.81052102	-150.7804433	-51
54573	0	0.383605957	0.06262207	0.054199219	0.999999046	-0.00087738	0.000657082	0.00018692	9.590148926	1.565551758	1.354980469	-0.043869028	0.032854087	0.00934601	-0.920654297	0.469970703	0.010253906	891.54	47.04104044	-77.76592128	-150.4889645	-52
54574	0	0.385574341	0.061470985	0.052065849	0.999999046	-0.000974655	0.000566483	0.000227928	9.639358521	1.536774635	1.301646233	-0.048732768	0.028324133	0.011396411	-0.920654297	0.469970703	0.010253906	891.52	46.66604386	-77.73153468	-150.2212369	-52
54575	0	0.384155273	0.060913086	0.050109863	0.999999046	-0.000705719	0.000519753	0.000148773	9.603881836	1.522827148	1.252746582	-0.035285954	0.025987629	0.007438661	-0.920654297	0.469970703	0.007568359	891.52	46.37095167	-77.69409666	-149.9986913	-52
54576	0	0.382414818	0.0629282	0.048459053	0.999999046	-0.000596046	0.000383377	0.000380516	9.560370445	1.573204994	1.211476326	-0.029802326	0.019168856	0.019025805	-0.918457031	0.469970703	0.010253906	891.52	46.05880156	-77.68654885	-149.7514669	-52
54577	0	0.385864258	0.062744141	0.046875	0.999998093	-0.00140667	0.000232697	0.000488281	9.646606445	1.568603516	1.171875	-0.070333507	0.011634831	0.024414072	-0.920898438	0.472167969	0.010253906	891.5	45.67318312	-77.69981366	-149.5220352	-52
54578	0	0.390845299	0.058216095	0.042033195	0.999998093	-0.001566887	0.000290871	0.00031662	9.771132469	1.455402374	1.050829887	-0.07834438	0.01454354	0.015831001	-0.920898438	0.472167969	0.010253906	891.56	45.31220613	-77.6946772	-149.3347368	-52
54579	0	0.390991211	0.06036377	0.04284668	0.999999046	-0.001213074	0.000416756	0.000377655	9.774780273	1.509094238	1.071166992	-0.060653705	0.02083779	0.018882757	-0.920898438	0.474365234	0.012939453	891.48	44.9249157	-77.68456254	-149.0828553	-51
54580	0	0.390692711	0.0566082	0.042759895	0.999998093	-0.000919342	0.001128197	0.000344276	9.767317772	1.415205002	1.068997383	-0.045967119	0.056409857	0.017213828	-0.916015625	0.471923828	0.010009766	891.56	44.32514719	-77.61390556	-148.5754459	-52
54581	0	0.389770508	0.05847168	0.042419434	0.999998093	-0.000712395	0.001686096	0.000370026	9.744262695	1.461791992	1.06048584	-0.035619756	0.084304859	0.018501292	-0.916259766	0.474365234	0.012695313	891.52	43.54834813	-77.49854726	-147.8717984	-51
54582	0	0.388557434	0.056591988	0.046923637	0.999997139	-0.000576019	0.002027512	0.000377655	9.713935852	1.41479969	1.173090935	-0.028800986	0.101375657	0.018882766	-0.918457031	0.474365234	0.007080078	891.5	42.68065862	-77.35354697	-147.0540979	-51
54583	0	0.38873291	0.058105469	0.048217773	0.999996185	-0.00045681	0.00239563	0.000350952	9.718322754	1.452636719	1.205444336	-0.022840523	0.119781615	0.017547625	-0.918457031	0.4765625	0.00390625	891.54	41.73368896	-77.17288801	-146.1410868	-52
54584	0	0.388671875	0.057789803	0.04763031	0.999995232	-0.00070858	0.002723694	0.000288963	9.716796875	1.444745064	1.190757751	-0.035429048	0.136184874	0.014448185	-0.918457031	0.474365234	0.001220703	891.62	40.70301284	-76.95635273	-145.1754886	-51
54585	0	0.389465332	0.055664063	0.043579102	0.999993324	-0.000946045	0.00350666	0.000110626	9.736633301	1.391601563	1.089477539	-0.04730235	0.175333409	0.005531323	-0.920654297	0.4765625	-0.007568359	891.5	39.50497418	-76.65466896	-144.0572079	-51
54586	0	0.389180183	0.055375099	0.043727875	0.999988556	-0.000807762	0.004685402	6.58E-05	9.729504585	1.38437748	1.093196869	-0.040388259	0.234270979	0.003290189	-0.920410156	0.474121094	-0.016113281	891.52	38.04995221	-76.23956167	-142.6560028	-52
54587	0	0.385253906	0.055053711	0.047119141	0.999986649	-0.000983238	0.004959106	-8.77E-05	9.631347656	1.376342773	1.177978516	-0.049162121	0.247956379	-0.004386921	-0.91796875	0.474121094	-0.021972656	891.52	36.64294707	-75.78168355	-141.3258505	-52
54588	0	0.385293961	0.054118156	0.046105385	0.999984741	-0.000482559	0.005421638	-1.24E-05	9.632349014	1.352953911	1.152634621	-0.024128079	0.271083263	-0.000619891	-0.920166016	0.474121094	-0.030517578	891.56	35.23669563	-75.27930554	-139.9366193	-52
54589	0	0.382202148	0.054748535	0.048522949	0.999983788	-0.000370026	0.005574226	-0.000175476	9.555053711	1.368713379	1.21307373	-0.018501378	0.27871277	-0.008773849	-0.919921875	0.474121094	-0.0390625	891.5	33.9592104	-74.74503898	-138.6659474	-52
54590	0	0.380094528	0.056552887	0.052498817	0.999982834	-0.000367165	0.005757332	-4.20E-05	9.502363205	1.413822174	1.312470436	-0.018358332	0.287868189	-0.002098095	-0.919921875	0.476074219	-0.048095703	891.5	32.68526301	-74.19548187	-137.3960995	-52
54591	0	0.379333496	0.055603027	0.054626465	0.999982834	-0.000369072	0.005744934	-3.81E-05	9.483337402	1.390075684	1.365661621	-0.0184537	0.287248291	-0.001907359	-0.917236328	0.473876953	-0.059570313	891.56	31.50032412	-73.64131714	-136.2123085	-53
54592	0	0.380267143	0.054616928	0.053362846	0.999982834	6.68E-05	0.005825996	0.000127792	9.506678581	1.365423203	1.334071159	0.003337879	0.291301469	0.006389654	-0.919677734	0.476074219	-0.068359375	891.52	30.37504208	-73.0838684	-135.0389887	-52
54593	0	0.379333496	0.056762695	0.052246094	0.999977112	8.58E-06	0.006698608	-8.01E-05	9.483337402	1.419067383	1.306152344	0.000429157	0.334932925	-0.004005462	-0.919189453	0.471435547	-0.082275391	891.6	29.2306572	-72.422796	-133.8470771	-52
54594	0	0.378928185	0.055358887	0.054884911	0.999974251	4.77E-05	0.007152557	5.72E-05	9.473204613	1.383972168	1.372122765	0.002384206	0.357630918	0.002861047	-0.916503906	0.471191406	-0.093994141	891.56	28.06144015	-71.71827218	-132.6213592	-53
54595	0	0.385559082	0.051086426	0.056396484	0.999966621	0.000450134	0.008091927	2.67E-05	9.638977051	1.277160645	1.409912109	0.02250696	0.404600758	0.001335159	-0.916259766	0.473388672	-0.111572266	891.58	26.89603037	-70.91108792	-131.3387913	-51
54596	0	0.376731873	0.056921005	0.065867424	0.999956131	0.000688553	0.009270668	0.000210762	9.418296814	1.423025131	1.6466856	0.034428139	0.463540082	0.010538253	-0.916015625	0.470947266	-0.125976563	891.48	25.64468358	-69.98521683	-129.9382837	-51
54597	0	0.367736816	0.049316406	0.065612793	0.99994278	0.000828743	0.010616302	-0.000453949	9.19342041	1.232910156	1.640319824	0.041437934	0.530825175	-0.022697878	-0.913330078	0.473144531	-0.140625	891.52	24.54238721	-68.87980768	-128.6799185	-51
54598	0	0.366334915	0.050543785	0.064838409	0.999930382	0.002006531	0.011581421	-0.000480652	9.158372879	1.263594627	1.620960236	0.100328852	0.579084402	-0.024033147	-0.912841797	0.470703125	-0.160644531	891.52	23.59020399	-67.66652663	-127.4359253	-51
54599	0	0.366821289	0.055908203	0.06463623	0.999923706	0.001595497	0.012248993	-1.14E-05	9.170532227	1.397705078	1.615905762	0.079776885	0.612465222	-0.000572219	-0.91015625	0.470458984	-0.189697266	891.56	22.52670372	-66.39834094	-126.0979525	-52
54600	0	0.359090805	0.057621956	0.060693741	0.999911308	0.000834465	0.013210297	-0.000617981	8.977270126	1.440548897	1.517343521	0.041724472	0.660534163	-0.030899952	-0.907226563	0.467773438	-0.212890625	891.5	21.55642229	-64.99566134	-124.9485732	-53
54601	0	0.35345459	0.052856445	0.055969238	0.999892235	0.000617981	0.014645576	-0.00069046	8.836364746	1.321411133	1.399230957	0.030900157	0.732305109	-0.034524249	-0.902099609	0.467529297	-0.233398438	891.52	20.57652751	-63.43190608	-123.8162938	-54
54602	0	0.350348473	0.048880577	0.050505638	0.999876022	0.001210213	0.015654564	-0.001098633	8.758711815	1.222014427	1.262640953	0.060513134	0.782760517	-0.054933909	-0.896728516	0.46484375	-0.262207031	891.52	19.79285958	-61.73990829	-122.8129572	-55
54603	0	0.334777832	0.050842285	0.05090332	0.999844551	0.0014534	0.017518044	-0.001277924	8.369445801	1.271057129	1.272583008	0.072673746	0.875947529	-0.063899488	-0.888671875	0.462158203	-0.297119141	891.56	19.05388476	-59.83751153	-121.803547	-56
54604	0	0.316353798	0.043305397	0.052617073	0.999819756	0.001307487	0.018783569	-0.002191544	7.908844948	1.082634926	1.315426826	0.06537829	0.939234722	-0.109583742	-0.880859375	0.457275391	-0.329101563	891.58	18.49146361	-57.76254987	-121.006465	-55
54605	0	0.296142578	0.036621094	0.044677734	0.999785423	0.002494812	0.020241737	-0.003475189	7.403564453	0.915527344	1.116943359	0.124749501	1.012159083	-0.173771859	-0.873046875	0.454345703	-0.366699219	891.5	18.27692829	-55.4841417	-120.4421555	-56
54606	0	0.26811409	0.04079628	0.027464867	0.999734879	0.001633644	0.022601128	-0.00392437	6.702852249	1.019906998	0.686621666	0.081689407	1.130156016	-0.196235791	-0.862548828	0.447021484	-0.404296875	891.48	17.9741946	-52.93589821	-119.8853342	-59
54607	0	0.229675293	0.052612305	0.028625488	0.999705315	0.002601624	0.023766518	-0.004127502	5.741882324	1.315307617	0.715637207	0.130093942	1.188442498	-0.206395375	-0.849609375	0.4375	-0.438964844	891.5	17.81871935	-50.25568316	-119.3845745	-61
54608	0	0.174141884	0.034980774	0.044163704	0.99963665	0.003180504	0.026411057	-0.004127502	4.353547096	0.874519348	1.104092598	0.159044406	1.320712378	-0.206400057	-0.833984375	0.427734375	-0.488037109	891.52	17.67631635	-47.28778454	-118.7938749	-60
54609	0	0.06652832	0.007568359	0.040222168	0.999657631	0.001285553	0.025773048	-0.004245758	1.663208008	0.189208984	1.005554199	0.064284978	1.288799356	-0.212312109	-0.818603516	0.420166016	-0.531738281	891.52	17.41250805	-44.38303659	-118.3231455	-63
54610	0	-0.028581619	0.006853104	0.026866913	0.999659538	-0.004123688	0.025426865	-0.003994942	-0.714540482	0.171327591	0.671672821	-0.206207744	1.271487253	-0.199769714	-0.801269531	0.417236328	-0.572998047	891.56	16.57939899	-41.51710504	-117.9088137	-68
54611	0	-0.085144043	0.00982666	0.025085449	0.999459267	-0.012180328	0.030331612	-0.003547668	-2.128601074	0.245666504	0.62713623	-0.609126192	1.51685394	-0.177415396	-0.779052734	0.418212891	-0.614746094	891.56	14.74961661	-38.10924937	-117.3843877	-64
54612	0	-0.104146957	-0.028430939	-0.022005081	0.999052048	-0.021869659	0.037364006	-0.004426003	-2.603673935	-0.710773468	-0.550127029	-1.093828431	1.868790515	-0.22137004	-0.753173828	0.437011719	-0.65234375	891.52	11.90284723	-33.86967967	-117.0495205	-60
54613	0	0.156433105	-0.025512695	0.150146484	0.996814728	-0.020125389	0.076931	-0.006057739	3.910827637	-0.637817383	3.753662109	-1.007339183	3.850639113	-0.303208951	-0.710693359	0.466308594	-0.706298828	891.48	9.083623038	-25.11162936	-116.6750044	-67
54614	0	0.520173073	0.122990608	1.532427788	0.994524956	-0.018915176	0.102752686	0.001514435	13.00432682	3.074765205	38.31069469	-0.947488327	5.147029457	0.075860213	-0.590332031	0.481201172	-0.829833984	891.68	6.29767956	-13.47988818	-115.6472442	-65
54615	0	-0.070617676	0.15838623	2.169189453	0.998657227	-0.006293297	0.048412323	-0.017284393	-1.765441895	3.959655762	54.22973633	-0.314805672	2.421699517	-0.864606454	-0.449951172	0.511230469	-0.923828125	891.62	5.831301036	-7.757882087	-117.1906287	-72
54616	0	-0.101707458	0.278900146	0.98033905	0.998950958	-0.011951447	0.041638374	-0.014793396	-2.542686462	6.972503662	24.50847626	-0.597781219	2.082646491	-0.739928365	-0.408691406	0.505126953	-0.954589844	891.6	4.581459485	-2.845245321	-118.577101	-82
54617	0	0.073425293	0.128662109	0.460144043	0.998892784	-0.029708862	0.033589363	0.014217377	1.835632324	3.216552734	11.50360107	-1.485991541	1.680088215	0.711131288	-0.355224609	0.532226563	-0.959716797	891.68	1.151383692	0.920661512	-116.846804	-74
54618	0	-0.003631592	0.035587311	0.290229797	0.999064445	-0.030527115	0.029558182	0.007953644	-0.090789795	0.88968277	7.255744934	-1.526831566	1.478369808	0.397806162	-0.273193359	0.602783203	-0.944091797	891.74	-2.301310006	4.318249197	-115.9867753	-76
54619	0	-0.172302246	-0.091247559	0.223999023	0.999686241	-0.023868561	0.007302284	0.001655579	-4.307556152	-2.281188965	5.599975586	-1.193552544	0.365152303	0.082787567	-0.233154297	0.656982422	-0.918945313	891.6	-5.022893226	5.173624395	-115.8553745	-70
54620	0	-0.242437363	-0.101844788	0.216646194	0.999914169	-0.01089859	0.007008553	-0.001412392	-6.060934067	-2.54611969	5.416154861	-0.544944936	0.350437551	-0.070621583	-0.23046875	0.692626953	-0.887451172	891.62	-6.296984905	5.97583416	-116.1069681	-68
54621	0	-0.211364746	-0.078735352	0.290710449	0.999946594	0.001461983	0.010196686	0.000797272	-5.284118652	-1.968383789	7.26776123	0.073100437	0.50984336	0.039864296	-0.216796875	0.701171875	-0.880371094	891.6	-6.137755822	7.17490216	-116.1546164	-68
54622	0	-0.184772491	-0.015247345	0.321051598	0.999990463	0.001738548	0.002282143	-0.003126144	-4.619312286	-0.381183624	8.02628994	0.086927675	0.114107474	-0.156307689	-0.20703125	0.698486328	-0.889160156	891.62	-5.991082498	7.431313304	-116.5527909	-68
54623	0	-0.179382324	-0.073425293	0.392700195	0.99997139	0.003876686	-0.003627777	-0.005214691	-4.484558105	-1.835632324	9.817504883	0.193836094	-0.181390529	-0.260736965	-0.211181641	0.691894531	-0.897216797	891.64	-5.621953292	6.997144846	-117.1207809	-68
54624	0	-0.134427071	-0.074717522	0.434986115	0.999967575	0.002019882	-0.004393578	-0.006373405	-3.360676765	-1.867938042	10.87465286	0.100995187	-0.219681222	-0.318673672	-0.225097656	0.681396484	-0.892578125	891.64	-5.477587976	6.468399861	-117.8157705	-68
54625	0	-0.081115723	-0.024597168	0.444030762	0.999908447	-0.005969048	-0.0115242	-0.003807068	-2.027893066	-0.614929199	11.10076904	-0.298461477	-0.576227591	-0.190359198	-0.243896484	0.677490234	-0.891357422	891.64	-6.198312675	5.153650691	-118.1297675	-69
54626	0	0.014004707	-0.105016708	0.41678524	0.99988842	-0.008659363	-0.011768341	0.002973557	0.350117683	-2.625417709	10.419631	-0.432984184	-0.588438858	0.148683335	-0.266357422	0.694091797	-0.874023438	891.62	-7.160356842	3.893395847	-117.6468069	-69
54627	0	0.002319336	-0.085510254	0.386352539	0.99995327	-0.00213623	-0.009238243	0.001857758	0.057983398	-2.137756348	9.658813477	-0.106813185	-0.461919343	0.092889324	-0.276611328	0.707763672	-0.863037109	891.52	-7.394790032	2.907282497	-117.3130899	-70
54628	0	-0.036282539	-0.046113014	0.298620224	0.999976158	0.006421089	-0.001968384	-0.001166344	-0.907063484	-1.152825356	7.4655056	0.321056945	-0.098419952	-0.058317636	-0.288818359	0.708251953	-0.850830078	891.6	-6.674258709	2.704299141	-117.4305275	-70
54629	0	0.015808105	-0.036010742	0.361816406	0.999960899	0.008495331	0.001767159	-0.001567841	0.395202637	-0.900268555	9.045410156	0.424772045	0.08835907	-0.078393045	-0.287841797	0.694824219	-0.8671875	891.58	-5.720359627	2.921026407	-117.6436555	-69
54630	0	0.056350708	-0.046916008	0.386369705	0.999986649	0.004975319	-0.00093174	0.000706673	1.4087677	-1.1729002	9.65924263	0.248767028	-0.046587193	0.035333787	-0.284667969	0.678955078	-0.877685547	891.62	-5.155775224	2.852655079	-117.5654245	-69
54631	0	0.07598877	-0.037902832	0.43951416	0.999985695	0.001777649	-0.002734184	0.004180908	1.899719238	-0.947570801	10.987854	0.088882863	-0.136709854	0.20904639	-0.286621094	0.674560547	-0.885742188	891.56	-4.937778329	2.607357283	-117.0732277	-69
54632	0	0.02536869	-0.032666206	0.448655128	0.999991417	0.001458168	-0.002061844	0.00316143	0.634217262	-0.816655159	11.21637821	0.0729086	-0.103092475	0.158071949	-0.284423828	0.672363281	-0.879882813	891.58	-4.76308873	2.424399353	-116.7045417	-69
54633	0	-0.023864746	-0.024475098	0.406005859	0.999984741	0.005139351	0.001480103	0.000839233	-0.596618652	-0.611877441	10.15014648	0.2569688	0.074005488	0.041961875	-0.281982422	0.672363281	-0.885742188	891.64	-4.17896141	2.622751307	-116.633969	-69
54634	0	-0.048224449	-0.002860069	0.391021729	0.999980927	0.005896568	0.00130558	-0.000494003	-1.205611229	-0.071501732	9.775543213	0.294830219	0.065279406	-0.024700316	-0.28125	0.663330078	-0.893798828	891.6	-3.513427057	2.791145695	-116.7128553	-70
54635	0	-0.04095459	0.003723145	0.382019043	0.999997139	0.00207901	-0.000510216	-0.000663757	-1.023864746	0.093078613	9.550476074	0.103950588	-0.025510809	-0.033187894	-0.280761719	0.652099609	-0.901611328	891.52	-3.284266329	2.751874278	-116.7979736	-70
54636	0	-0.025999069	-0.022891045	0.389590263	0.999999046	-0.000281334	-0.001140594	0.000131607	-0.64997673	-0.572276115	9.739756584	-0.014066699	-0.057029737	0.006580354	-0.282958984	0.649902344	-0.901367188	891.52	-3.32096808	2.645705859	-116.7880863	-70
54637	0	-0.024658203	-0.030334473	0.40020752	0.999998093	-0.000948906	-0.001213074	0.000679016	-0.616455078	-0.758361816	10.00518799	-0.04744532	-0.060653715	0.033950822	-0.285400391	0.650146484	-0.898193359	891.62	-3.431608114	2.534736126	-116.7149884	-70
54638	0	-0.019424438	-0.026877403	0.411252022	0.999996185	-0.001770973	-0.001852989	0.00062561	-0.485610962	-0.671935081	10.28130054	-0.088548763	-0.092649567	0.031280554	-0.285644531	0.654541016	-0.901611328	891.58	-3.636718552	2.349937439	-116.6426704	-70
54639	0	-0.00567627	-0.034851074	0.41204834	0.999996185	-0.002242088	-0.001361847	-0.000228882	-0.141906738	-0.871276855	10.3012085	-0.112104545	-0.068092425	-0.011444105	-0.290527344	0.656982422	-0.8984375	891.56	-3.900393527	2.214077384	-116.6713765	-70
54640	0	0.000338554	-0.044192314	0.408558846	0.999999046	-0.000714302	-0.000606537	-0.000256538	0.00846386	-1.104807854	10.21397114	-0.035715109	-0.030326848	-0.012826922	-0.293212891	0.661621094	-0.890136719	891.62	-3.99005379	2.162956337	-116.7084159	-69
54641	0	0.001342773	-0.04498291	0.395507813	0.999998093	0.001431465	-0.00012207	0.000495911	0.033569336	-1.124572754	9.887695313	0.071573285	-0.006103518	0.024795542	-0.293212891	0.661621094	-0.890136719	891.64	-3.831495331	2.171850378	-116.6630322	-69
54642	0	-0.004026413	-0.032553673	0.396518707	0.999996185	0.002205849	0.000256538	0.000983238	-0.100660324	-0.81384182	9.912967682	0.110292543	0.012826932	0.049161959	-0.29296875	0.659179688	-0.892822266	891.62	-3.582312083	2.226514972	-116.5648638	-69
54643	0	-0.014160156	-0.021118164	0.398132324	0.999997139	0.00182724	0.000195503	0.000831604	-0.354003906	-0.527954102	9.953308105	0.091362061	0.009775168	0.041580228	-0.290283203	0.654785156	-0.901367188	891.6	-3.376746997	2.272294607	-116.483428	-70
54644	0	-0.021183014	-0.017172813	0.40203476	0.999999046	0.00114727	-7.25E-05	0.000682831	-0.529575348	-0.429320335	10.05086899	0.057363527	-0.003623963	0.034141551	-0.290283203	0.654785156	-0.8984375	891.58	-3.249193102	2.286077895	-116.4170816	-70
54645	0	-0.018066406	-0.014831543	0.40032959	0.999999046	0.000732422	4.77E-06	0.000320435	-0.451660156	-0.370788574	10.00823975	0.036621098	0.000238419	0.01602173	-0.287841797	0.65234375	-0.898193359	891.58	-3.170325166	2.3059783	-116.39254	-70
54646	0	-0.012099266	-0.016680717	0.399437904	0.999999046	0.000259399	0.000196457	0.000102043	-0.302481651	-0.417017937	9.985947609	0.012969971	0.009822846	0.005102158	-0.290039063	0.650146484	-0.900878906	891.64	-3.146341412	2.345834254	-116.3948095	-69
54647	0	-0.00793457	-0.021118164	0.402770996	0.999999046	-8.39E-05	0.000424385	2.67E-05	-0.198364258	-0.527954102	10.0692749	-0.004196167	0.021219254	0.001335144	-0.287841797	0.650146484	-0.901123047	891.62	-3.161994332	2.410500009	-116.4068071	-70
54648	0	-0.006996155	-0.021063805	0.403066635	0.999999046	7.34E-05	0.000656128	-0.000404358	-0.17490387	-0.526595116	10.07666588	0.003671646	0.0328064	-0.020217898	-0.285400391	0.65234375	-0.907226563	891.6	-3.161684804	2.498108666	-116.4692304	-70
54649	0	-0.012695313	-0.019470215	0.403076172	0.999999046	6.87E-05	0.000527382	-0.000499725	-0.317382813	-0.486755371	10.0769043	0.003433228	0.026369097	-0.024986269	-0.285400391	0.650146484	-0.901123047	891.58	-3.162253375	2.56981694	-116.5419952	-70
54650	0	-0.013525009	-0.022418976	0.402942657	0.999999046	-5.53E-05	0.00053215	-0.000344276	-0.338125229	-0.560474396	10.07356644	-0.002765656	0.026607515	-0.017213823	-0.285400391	0.650146484	-0.901123047	891.58	-3.176264508	2.642512698	-116.5970959	-70
54651	0	-0.014099121	-0.022094727	0.401855469	0.999999046	-0.000144958	0.000535011	-0.000335693	-0.352478027	-0.552368164	10.04638672	-0.007247925	0.026750566	-0.016784669	-0.28515625	0.647705078	-0.903808594	891.56	-3.200505118	2.715058975	-116.6515189	-70
54652	0	-0.015975952	-0.021855354	0.39902401	0.999999046	-0.000309944	0.000436783	-0.000252724	-0.399398804	-0.546383858	9.975600243	-0.015497209	0.021839143	-0.012636185	-0.282958984	0.649902344	-0.901367188	891.62	-3.243153575	2.776445263	-116.6953194	-70
54653	0	-0.016296387	-0.024169922	0.39831543	0.999999046	-0.000579834	0.000115395	-0.000144958	-0.407409668	-0.604248047	9.957885742	-0.028991701	0.00576973	-0.007247925	-0.285400391	0.649902344	-0.906982422	891.68	-3.316081625	2.801311799	-116.7253383	-70
54654	0	-0.014549255	-0.02756691	0.398768425	0.999999046	-0.000205994	6.10E-05	-9.54E-05	-0.363731384	-0.689172745	9.969210625	-0.010299683	0.003051758	-0.004768372	-0.285400391	0.65234375	-0.901367188	891.62	-3.346054773	2.819761578	-116.7489601	-70
54655	0	-0.01373291	-0.028503418	0.399841309	0.999999046	3.81E-05	8.87E-05	0.00018692	-0.343322754	-0.712585449	9.996032715	0.001907349	0.004434586	0.009346008	-0.282958984	0.649902344	-0.904052734	891.62	-3.346665441	2.842719269	-116.74035	-70
54656	0	-0.013508797	-0.028285027	0.400572777	0.999999046	0.000294685	0.000188828	0.0001297	-0.337719917	-0.707125664	10.01431942	0.014734269	0.009441376	0.006484986	-0.282958984	0.652099609	-0.904296875	891.64	-3.318407724	2.876204394	-116.7388403	-70
54657	0	-0.014160156	-0.024536133	0.399353027	0.999999046	0.000175476	0.000439644	3.05E-05	-0.354003906	-0.61340332	9.983825684	0.008773804	0.021982194	0.001525879	-0.282958984	0.649902344	-0.906982422	891.58	-3.304459866	2.937219227	-116.750724	-70
54658	0	-0.015550613	-0.021160126	0.400689125	0.999999046	0.000169754	0.000419617	0.000110626	-0.388765335	-0.529003143	10.01722813	0.008487702	0.020980836	0.005531311	-0.282958984	0.649902344	-0.906982422	891.62	-3.290519506	2.996024419	-116.7533316	-70
54659	0	-0.015808105	-0.018798828	0.398071289	0.999999046	0.000171661	0.000405312	-5.34E-05	-0.395202637	-0.469970703	9.951782227	0.008583069	0.02026558	-0.002670288	-0.282958984	0.649902344	-0.909912109	891.64	-3.27706866	3.05167788	-116.774638	-70
54660	0	-0.017168999	-0.019151688	0.401481628	0.999999046	4.86E-05	0.000328064	9.82E-05	-0.429224968	-0.478792191	10.03704071	0.00243187	0.016403199	0.004911423	-0.280517578	0.649902344	-0.907226563	891.56	-3.276515957	3.099101997	-116.7776542	-70
54661	0	-0.016174316	-0.021972656	0.401977539	0.999999046	7.63E-06	4.67E-05	0.00012207	-0.40435791	-0.549316406	10.04943848	0.00038147	0.002336502	0.006103516	-0.280517578	0.647705078	-0.904052734	891.64	-3.280302774	3.114052498	-116.7763103	-70
54662	0	-0.015973091	-0.023305893	0.398008347	0.999999046	-0.00030899	0.000118256	-5.82E-05	-0.399327278	-0.582647324	9.950208664	-0.015449524	0.005912781	-0.002908707	-0.280517578	0.649902344	-0.904296875	891.56	-3.321492116	3.135559692	-116.7959494	-70
54663	0	-0.016174316	-0.022521973	0.399536133	0.999999046	-0.00018692	9.25E-05	4.20E-05	-0.40435791	-0.563049316	9.98840332	-0.009346008	0.00462532	0.002098084	-0.280517578	0.649902344	-0.907226563	891.58	-3.347972541	3.154349743	-116.8040729	-70
54664	0	-0.015884399	-0.024929047	0.400134087	0.999999046	-0.000155449	0.00019455	3.81E-06	-0.397109985	-0.623226166	10.00335217	-0.007772446	0.009727478	0.000190735	-0.280517578	0.649902344	-0.907226563	891.64	-3.371153713	3.184114682	-116.8173175	-70
54665	0	-0.015563965	-0.024963379	0.40032959	0.999999046	-0.000102997	0.000119209	-2.29E-05	-0.389099121	-0.624084473	10.00823975	-0.005149841	0.005960465	-0.001144409	-0.278076172	0.649902344	-0.904296875	891.52	-3.388490205	3.204621006	-116.8326659	-70
54666	0	-0.017306328	-0.024925232	0.400442123	0.999999046	2.10E-05	0.000217438	-2.67E-05	-0.432658195	-0.623130798	10.01105309	0.001049042	0.010871887	-0.001335144	-0.278076172	0.649658203	-0.907226563	891.64	-3.391695517	3.235973354	-116.8493295	-70
54667	0	-0.017211914	-0.025695801	0.40045166	0.999999046	0.000133514	0.000237465	0.000114441	-0.430297852	-0.64239502	10.0112915	0.00667572	0.011873245	0.005722046	-0.278076172	0.649658203	-0.907226563	891.62	-3.381148823	3.270205153	-116.8500626	-70
54668	0	-0.017711639	-0.022656441	0.398434639	0.999999046	0.000178337	0.000116348	0.000125885	-0.442790985	-0.566411018	9.960865974	0.008916855	0.005817413	0.006294251	-0.278076172	0.649658203	-0.907226563	891.58	-3.365241806	3.290319981	-116.8486881	-70
54669	0	-0.017089844	-0.02142334	0.400146484	0.999999046	0.000110626	6.20E-05	0.000141144	-0.427246094	-0.535583496	10.00366211	0.005531311	0.003099442	0.00705719	-0.278320313	0.652099609	-0.907470703	891.68	-3.356810671	3.303944261	-116.8450268	-70
54670	0	-0.016778946	-0.02132988	0.401918411	0.999999046	0.000221252	6.68E-05	6.48E-05	-0.419473648	-0.533246994	10.04796028	0.011062622	0.00333786	0.003242493	-0.278076172	0.651855469	-0.910400391	891.62	-3.336044363	3.317212704	-116.8501823	-70
54671	0	-0.017211914	-0.022705078	0.40020752	0.999999046	6.48E-05	0.000145912	-3.81E-06	-0.430297852	-0.567626953	10.00518799	0.003242493	0.007295609	-0.000190735	-0.275634766	0.647460938	-0.907226563	891.62	-3.333612018	3.338722104	-116.8637011	-70
54672	0	-0.017816544	-0.023691177	0.400876045	0.999999046	-2.19E-05	0.000200272	-5.44E-05	-0.445413589	-0.592279434	10.02190113	-0.001096725	0.01001358	-0.002717972	-0.275878906	0.649658203	-0.904541016	891.62	-3.341463904	3.365785046	-116.8832295	-70
54673	0	-0.017150879	-0.022644043	0.397583008	0.999999046	6.10E-05	0.0004282	-8.01E-05	-0.428771973	-0.566101074	9.939575195	0.003051758	0.021409989	-0.004005432	-0.278076172	0.649658203	-0.91015625	891.72	-3.340014227	3.418397569	-116.9079133	-70
54674	0	-0.019200325	-0.021438599	0.401352882	0.999999046	8.58E-05	0.000282288	6.10E-05	-0.480008125	-0.535964966	10.03382206	0.004291534	0.01411438	0.003051758	-0.275634766	0.647460938	-0.91015625	891.68	-3.334571812	3.454991987	-116.9151635	-70
54675	0	-0.018615723	-0.023986816	0.401062012	0.999999046	7.63E-05	-3.34E-05	5.72E-05	-0.465393066	-0.59967041	10.02655029	0.003814697	-0.00166893	0.002861023	-0.2734375	0.649658203	-0.907470703	891.62	-3.330117731	3.455146413	-116.9199619	-70
54676	0	-0.020238876	-0.023862839	0.400822639	0.999999046	-8.49E-05	-2.10E-05	-7.25E-05	-0.505971909	-0.596570969	10.02056599	-0.004243851	-0.001049042	-0.003623962	-0.2734375	0.649658203	-0.910400391	891.56	-3.345022337	3.455641353	-116.9398936	-70
54677	0	-0.019042969	-0.022521973	0.401733398	0.999999046	3.43E-05	-6.39E-05	3.43E-05	-0.476074219	-0.563049316	10.04333496	0.001716614	-0.003194809	0.001716614	-0.2734375	0.649658203	-0.907470703	891.58	-3.345424739	3.451668128	-116.9473117	-70
54678	0	-0.017771721	-0.021821976	0.401431084	0.999999046	0.000143051	-0.000196457	9.44E-05	-0.444293022	-0.545549393	10.03577709	0.007152557	-0.009822846	0.004720688	-0.275634766	0.649658203	-0.910400391	891.52	-3.332781812	3.4326074	-116.9474824	-70
54679	0	-0.018737793	-0.023132324	0.40222168	0.999999046	-2.29E-05	-0.000273705	0.000167847	-0.468444824	-0.578308105	10.05554199	-0.001144409	-0.013685227	0.008392334	-0.275634766	0.649658203	-0.910400391	891.56	-3.338574513	3.404936508	-116.9386337	-70
54680	0	-0.019684792	-0.021740913	0.40155983	0.999999046	2.77E-05	-0.000196457	0.000136375	-0.492119789	-0.543522835	10.03899574	0.001382828	-0.009822846	0.006818771	-0.273193359	0.649658203	-0.913330078	891.64	-3.338706187	3.385696749	-116.9333732	-70
54681	0	-0.019470215	-0.02142334	0.401489258	0.999999046	-0.000110626	-0.000506401	0.00018692	-0.486755371	-0.535583496	10.03723145	-0.005531311	-0.025320054	0.009346009	-0.275878906	0.649658203	-0.907470703	891.56	-3.354096309	3.331145008	-116.9207074	-70
54682	0	-0.017791748	-0.023763657	0.400586128	0.999999046	-0.000150681	-0.000602722	0.000156403	-0.444793701	-0.594091415	10.01465321	-0.007534028	-0.03013611	0.00782013	-0.278076172	0.647460938	-0.904296875	891.62	-3.374242681	3.26512143	-116.9114007	-70
54683	0	-0.017822266	-0.0234375	0.399536133	0.999999046	-0.000640869	-0.000601768	2.29E-05	-0.445556641	-0.5859375	9.98840332	-0.032043461	-0.030088429	0.001144409	-0.278076172	0.651855469	-0.910400391	891.64	-3.451400798	3.198086653	-116.916721	-70
54684	0	-0.017219543	-0.022484779	0.400016785	0.999999046	-0.000458717	-0.000350952	-9.54E-05	-0.430488586	-0.562119484	10.00041962	-0.022935869	-0.017547608	-0.004768372	-0.278320313	0.652099609	-0.907470703	891.58	-3.508417038	3.158691153	-116.93716	-70
54685	0	-0.015686035	-0.024841309	0.398376465	0.999999046	-0.000328064	-0.000357628	0.000110626	-0.392150879	-0.621032715	9.959411621	-0.016403199	-0.017881394	0.005531311	-0.278320313	0.652099609	-0.901611328	891.62	-3.549150763	3.119693826	-116.9337986	-70
54686	0	-0.016809464	-0.026077271	0.400201797	0.999999046	-0.00021553	-0.000179291	-9.92E-05	-0.420236588	-0.651931763	10.00504494	-0.01077652	-0.008964539	-0.004959107	-0.280761719	0.652099609	-0.904541016	891.58	-3.578404571	3.099399881	-116.9563671	-70
54687	0	-0.01574707	-0.023803711	0.396057129	0.999999046	-4.20E-05	-0.000144005	-1.53E-05	-0.393676758	-0.595092773	9.901428223	-0.002098084	-0.007200241	-0.000762939	-0.280761719	0.654296875	-0.904541016	891.56	-3.587184712	3.083504105	-116.9691268	-70
54688	0	-0.018194199	-0.025547028	0.400393486	0.999999046	4.67E-05	-0.000326157	0.000144005	-0.454854965	-0.63867569	10.00983715	0.002336502	-0.016307831	0.007200241	-0.280761719	0.652099609	-0.901611328	891.72	-3.584752209	3.047810332	-116.9624698	-70
54689	0	-0.016601563	-0.026977539	0.400146484	0.999999046	-0.000141144	-0.000323296	0.000221252	-0.415039063	-0.674438477	10.00366211	-0.00705719	-0.01616478	0.011062622	-0.280761719	0.654296875	-0.904541016	891.62	-3.603462284	3.012828562	-116.9466983	-70
54690	0	-0.016658783	-0.025313377	0.401064873	0.999999046	-3.62E-05	-0.000350952	1.43E-05	-0.416469574	-0.632834435	10.02662182	-0.001811981	-0.017547608	0.000715256	-0.280761719	0.652099609	-0.901611328	891.58	-3.611368477	2.97304165	-116.9545404	-70
54691	0	-0.016601563	-0.024475098	0.400085449	0.999999046	-5.72E-05	-0.00026226	0.000110626	-0.415039063	-0.611877441	10.00213623	-0.002861023	-0.013113022	0.005531311	-0.280761719	0.654296875	-0.901855469	891.64	-3.621075584	2.943956774	-116.9516015	-70
54692	0	-0.015604019	-0.024884224	0.399724007	0.999999046	-4.77E-06	-0.000333786	1.43E-05	-0.390100479	-0.622105598	9.993100166	-0.000238419	-0.016689301	0.000715256	-0.280761719	0.654296875	-0.904541016	891.64	-3.625268186	2.90582318	-116.9591394	-70
54693	0	-0.014953613	-0.024963379	0.399536133	0.999999046	-8.01E-05	-0.000247002	2.67E-05	-0.373840332	-0.624084473	9.98840332	-0.004005432	-0.012350083	0.001335144	-0.280761719	0.654296875	-0.898925781	891.68	-3.638011646	2.877517016	-116.9657184	-70
54694	0	-0.015856743	-0.023501396	0.39838028	0.999999046	0.000101089	-0.00015831	1.43E-05	-0.396418571	-0.587534904	9.959506989	0.005054474	-0.007915497	0.000715256	-0.283203125	0.652099609	-0.901367188	891.64	-3.629981522	2.859141184	-116.9754939	-70
54695	0	-0.01574707	-0.025024414	0.400878906	0.999999046	0.0001297	-0.000319481	0.000148773	-0.393676758	-0.625610352	10.02197266	0.006484986	-0.015974045	0.00743866	-0.280761719	0.652099609	-0.904541016	891.62	-3.617809916	2.82318444	-116.9677821	-70
54696	0	-0.016108513	-0.025038719	0.400223732	0.999999046	4.48E-05	-0.000343323	8.01E-05	-0.402712822	-0.625967979	10.0055933	0.002241135	-0.017166138	0.004005432	-0.283203125	0.652099609	-0.901367188	891.68	-3.615718488	2.783915563	-116.9683396	-70
54697	0	-0.016113281	-0.024902344	0.398925781	0.999999046	-0.000156403	-0.00032711	9.16E-05	-0.402832031	-0.622558594	9.973144531	-0.00782013	-0.016355515	0.004577637	-0.285644531	0.654541016	-0.901611328	891.58	-3.636598622	2.74651508	-116.967946	-70
54698	0	-0.014759064	-0.024780273	0.396730423	0.999999046	-0.000301361	-3.81E-05	2.29E-05	-0.368976593	-0.619506836	9.918260574	-0.015068054	-0.001907349	0.001144409	-0.285644531	0.65234375	-0.8984375	891.62	-3.674531901	2.741541806	-116.9778181	-70
54699	0	-0.014160156	-0.025817871	0.396911621	0.999999046	-0.000484467	-0.000132561	-3.43E-05	-0.354003906	-0.645446777	9.922790527	-0.024223329	-0.006628037	-0.001716614	-0.283203125	0.654541016	-0.895751953	891.58	-3.733726179	2.725197604	-116.9921806	-70
54700	0	-0.014479637	-0.026143074	0.397072792	0.999999046	-0.000353813	9.54E-06	4.96E-05	-0.361990929	-0.653576851	9.926819801	-0.017690659	0.000476837	0.002479553	-0.283203125	0.654541016	-0.901611328	891.62	-3.777539349	2.725600339	-116.9983928	-70
54701	0	-0.013427734	-0.025878906	0.400085449	0.999999046	-0.000141144	8.49E-05	5.72E-05	-0.335693359	-0.646972656	10.00213623	-0.00705719	0.004243851	0.002861023	-0.285644531	0.656738281	-0.901611328	891.56	-3.796929899	2.734496295	-117.004906	-70
54702	0	-0.015756607	-0.025868416	0.40056324	0.999999046	8.20E-05	0.000192642	0.000133514	-0.393915176	-0.646710396	10.014081	0.0041008	0.009632111	0.00667572	-0.285644531	0.654541016	-0.898681641	891.56	-3.790323867	2.756235028	-117.0039259	-70
54703	0	-0.017822266	-0.027587891	0.402160645	0.999999046	0.000148773	9.25E-05	9.54E-05	-0.445556641	-0.689697266	10.05401611	0.00743866	0.00462532	0.004768372	-0.283447266	0.656738281	-0.898925781	891.62	-3.776276346	2.766273114	-117.0052302	-70
54704	0	-0.016069412	-0.025452614	0.399112701	0.999999046	-9.44E-05	-7.82E-05	-9.92E-05	-0.401735306	-0.636315346	9.977817535	-0.004720688	-0.003910065	-0.004959106	-0.283203125	0.654541016	-0.898681641	891.56	-3.791049905	2.755272693	-117.0278203	-70
54705	0	-0.015869141	-0.02532959	0.398376465	0.999999046	-0.000148773	-2.86E-06	7.25E-05	-0.396728516	-0.633239746	9.959411621	-0.00743866	-0.000143051	0.003623962	-0.285400391	0.654541016	-0.904296875	891.62	-3.811070741	2.754132168	-117.0324569	-70
54706	0	-0.014405251	-0.024958611	0.400016785	0.999999046	-0.000144958	6.29E-05	8.39E-05	-0.360131264	-0.623965263	10.00041962	-0.007247925	0.003147125	0.004196167	-0.283447266	0.656738281	-0.895996094	891.62	-3.830519376	2.760473597	-117.0347905	-70
54707	0	-0.014465332	-0.025268555	0.401367188	0.999999046	-0.000408173	-5.63E-05	9.54E-05	-0.361633301	-0.631713867	10.03417969	-0.020408631	-0.002813339	0.004768372	-0.283447266	0.658935547	-0.902099609	891.62	-3.879936455	2.753144798	-117.03488	-70
54708	0	-0.015829086	-0.02602005	0.399699211	0.999999046	-0.000273705	6.10E-05	-2.29E-05	-0.395727158	-0.650501251	9.992480278	-0.013685227	0.003051758	-0.001144409	-0.281005859	0.656494141	-0.898925781	891.68	-3.914579562	2.758257298	-117.0490373	-70
54709	0	-0.016113281	-0.026916504	0.399841309	0.999999046	0.000118256	1.24E-05	6.48E-05	-0.402832031	-0.672912598	9.996032715	0.005912781	0.000619888	0.003242493	-0.283447266	0.656738281	-0.898925781	891.56	-3.903783821	2.758456995	-117.0538142	-70
54710	0	-0.016126633	-0.02761364	0.39948082	0.999999046	0.000108719	-7.25E-05	8.39E-05	-0.403165817	-0.690340996	9.987020493	0.005435944	-0.003623962	0.004196167	-0.281005859	0.658691406	-0.899169922	891.58	-3.893957318	2.749070628	-117.0542208	-70
54711	0	-0.015808105	-0.027282715	0.39855957	0.999999046	6.87E-05	-1.43E-05	4.96E-05	-0.395202637	-0.682067871	9.963989258	0.003433228	-0.000715256	0.002479553	-0.283447266	0.656738281	-0.898925781	891.62	-3.888940154	2.746026336	-117.0606121	-70
54712	0	-0.015005112	-0.02606678	0.399356842	0.999999046	0.000172615	1.34E-05	7.53E-05	-0.375127792	-0.651669502	9.983921051	0.008630753	0.000667572	0.003767014	-0.280761719	0.654296875	-0.898925781	891.64	-3.871821947	2.746262754	-117.0635974	-70
54713	0	-0.015014648	-0.02722168	0.400939941	0.999999046	0.000171661	0.000206947	8.77E-05	-0.375366211	-0.680541992	10.02349854	0.008583069	0.010347366	0.004386902	-0.283447266	0.656738281	-0.898925781	891.58	-3.854823195	2.768646238	-117.0674264	-70
54714	0	-0.016283989	-0.026959419	0.400697708	0.999999046	0.000240326	0.000261307	-7.63E-06	-0.407099724	-0.673985481	10.0174427	0.012016297	0.013065338	-0.00038147	-0.285644531	0.656738281	-0.904541016	891.68	-3.830507058	2.796489177	-117.0837684	-70
54715	0	-0.016052246	-0.026123047	0.398986816	0.999999046	0.000190735	0.000260353	1.14E-05	-0.401306152	-0.653076172	9.97467041	0.009536743	0.013017655	0.000572205	-0.283203125	0.656738281	-0.901855469	891.58	-3.811738824	2.82433357	-117.0966101	-71
54716	0	-0.016199112	-0.024810791	0.399415016	0.999999046	0.000250816	0.000282288	1.91E-05	-0.404977798	-0.620269775	9.985375404	0.012540818	0.01411438	0.000953674	-0.283447266	0.658935547	-0.902099609	891.64	-3.785964253	2.854705536	-117.1083774	-70
54717	0	-0.017333984	-0.026550293	0.402099609	0.999999046	0.000144958	7.72E-05	9.16E-05	-0.433349609	-0.663757324	10.05249023	0.007247925	0.003862381	0.004577637	-0.278564453	0.654296875	-0.898925781	891.58	-3.771829311	2.862182319	-117.1090945	-70
54718	0	-0.017766953	-0.026492119	0.399968147	0.999999046	-5.34E-05	3.24E-05	-5.82E-05	-0.444173813	-0.662302971	9.999203682	-0.002670288	0.001621246	-0.002908707	-0.280761719	0.654296875	-0.901855469	891.56	-3.781275985	2.863426076	-117.1278825	-70
54719	0	-0.017211914	-0.026062012	0.399841309	0.999999046	-1.14E-05	7.72E-05	4.20E-05	-0.430297852	-0.651550293	9.996032715	-0.000572205	0.003862381	0.002098083	-0.278320313	0.654296875	-0.901855469	891.58	-3.785340085	2.870543756	-117.1344677	-70
54720	0	-0.016116142	-0.025765419	0.40014267	0.999999046	-5.63E-05	0.000148773	6.77E-05	-0.402903557	-0.644135475	10.00356674	-0.002813339	0.00743866	0.003385544	-0.280761719	0.656494141	-0.904785156	891.64	-3.794390602	2.885968413	-117.1396723	-70
54721	0	-0.016235352	-0.026062012	0.399963379	0.999999046	-6.10E-05	0.000164986	6.10E-05	-0.405883789	-0.651550293	9.999084473	-0.003051758	0.008249283	0.003051758	-0.278564453	0.658691406	-0.90234375	891.56	-3.804010882	2.903133248	-117.1442322	-70
54722	0	-0.01636982	-0.025925636	0.399161339	0.999999046	4.77E-05	0.000169754	7.63E-05	-0.409245491	-0.648140907	9.97903347	0.002384186	0.008487701	0.003814697	-0.280761719	0.654296875	-0.898925781	891.68	-3.801066699	2.920900127	-117.149484	-70
54723	0	-0.01739502	-0.025390625	0.399780273	0.999999046	0.000202179	0.000206947	1.53E-05	-0.434875488	-0.634765625	9.994506836	0.010108948	0.010347366	0.000762939	-0.278564453	0.656494141	-0.902099609	891.64	-3.780733602	2.942446465	-117.1604144	-71
54724	0	-0.017805099	-0.025838852	0.400454521	0.999999046	3.34E-05	-8.01E-05	1.14E-05	-0.445127487	-0.645971298	10.01136303	0.00166893	-0.004005432	0.000572205	-0.276123047	0.654052734	-0.902099609	891.62	-3.779628458	2.931143193	-117.1689857	-70
54725	0	-0.018371582	-0.026794434	0.398681641	0.999999046	4.96E-05	5.05E-05	1.91E-05	-0.459289551	-0.66986084	9.967041016	0.002479553	0.002527237	0.000953674	-0.278320313	0.654296875	-0.907714844	891.58	-3.776703867	2.934873333	-117.1791243	-70
54726	0	-0.017558098	-0.025411606	0.398620605	1	6.68E-06	6.96E-05	1.81E-05	-0.438952446	-0.635290146	9.965515137	0.000333786	0.003480911	0.000905991	-0.278564453	0.656494141	-0.905029297	891.56	-3.778669685	2.940770865	-117.1889367	-71
54727	0	-0.017150879	-0.025024414	0.400268555	0.999999046	0.000102997	6.20E-05	7.63E-05	-0.428771973	-0.625610352	10.00671387	0.005149841	0.003099442	0.003814697	-0.278320313	0.654296875	-0.904785156	891.62	-3.769190875	2.946201848	-117.1925778	-71
54728	0	-0.017448425	-0.025855064	0.400942802	0.999999046	0.000130653	8.20E-05	-1.24E-05	-0.436210632	-0.64637661	10.02357006	0.006532669	0.0041008	-0.000619888	-0.278320313	0.654296875	-0.901855469	891.58	-3.757053472	2.953235352	-117.2063281	-70
54729	0	-0.018676758	-0.026306152	0.400634766	0.999999046	0.0001297	0.000180244	1.14E-05	-0.466918945	-0.657653809	10.01586914	0.006484985	0.009012222	0.000572205	-0.278564453	0.656494141	-0.899169922	891.68	-3.744932887	2.97172278	-117.2175339	-71
54730	0	-0.016867638	-0.025165558	0.397705078	0.999999046	3.62E-05	0.000217438	8.30E-05	-0.421690941	-0.629138947	9.942626953	0.001811981	0.010871887	0.004148483	-0.278564453	0.656494141	-0.902099609	891.56	-3.743080815	2.99494795	-117.2212445	-70
54731	0	-0.019042969	-0.024475098	0.401245117	0.999999046	1.53E-05	0.000287056	7.25E-05	-0.476074219	-0.611877441	10.03112793	0.000762939	0.014352799	0.003623962	-0.276123047	0.654052734	-0.902099609	891.62	-3.74364496	3.026097968	-117.2263482	-71
54732	0	-0.019825935	-0.026535988	0.400867462	0.999999046	0.00014019	4.01E-05	0.000167847	-0.495648384	-0.663399696	10.02168655	0.007009506	0.002002716	0.008392334	-0.275878906	0.654052734	-0.904785156	891.52	-3.729248898	3.029787381	-117.2187847	-71
54733	0	-0.019775391	-0.025634766	0.401245117	0.999999046	-0.000106812	-3.72E-05	4.58E-05	-0.494384766	-0.640869141	10.03112793	-0.005340576	-0.001859665	0.002288818	-0.276123047	0.656494141	-0.902099609	891.64	-3.743849186	3.02379642	-117.223935	-71
54734	0	-0.018832207	-0.025047302	0.398982048	0.999999046	-2.29E-05	-3.24E-05	8.68E-05	-0.470805168	-0.626182556	9.974551201	-0.001144409	-0.001621246	0.004339218	-0.278564453	0.656494141	-0.902099609	891.62	-3.748548178	3.018678758	-117.2259658	-70
54735	0	-0.018127441	-0.025390625	0.400085449	0.999999046	3.81E-05	3.15E-05	-1.14E-05	-0.453186035	-0.634765625	10.00213623	0.001907349	0.001573563	-0.000572205	-0.276123047	0.656494141	-0.902099609	891.58	-3.746838429	3.020117547	-117.2381661	-71
54736	0	-0.017969131	-0.025300026	0.399414063	0.999999046	7.15E-05	4.58E-05	5.63E-05	-0.449228287	-0.632500648	9.985351563	0.003576279	0.002288818	0.002813339	-0.275878906	0.654052734	-0.907714844	891.62	-3.740873694	3.023678117	-117.2437582	-70
54737	0	-0.018981934	-0.024291992	0.400634766	0.999999046	0.000133514	-4.48E-05	0.000148773	-0.47454834	-0.607299805	10.01586914	0.00667572	-0.002241135	0.00743866	-0.276123047	0.65625	-0.905029297	891.52	-3.727128384	3.017596912	-117.2373125	-70
54738	0	-0.020051956	-0.025033951	0.401679993	0.999999046	0.000125885	-1.53E-05	0.000185966	-0.501298904	-0.62584877	10.04199982	0.006294251	-0.000762939	0.009298325	-0.276123047	0.65625	-0.905029297	891.62	-3.714005955	3.015250812	-117.2269243	-71
54739	0	-0.019042969	-0.02557373	0.401489258	0.999999046	0.000114441	-0.000189781	2.29E-05	-0.476074219	-0.639343262	10.03723145	0.005722046	-0.00948906	0.001144409	-0.275878906	0.654052734	-0.904785156	891.64	-3.703101978	2.991764194	-117.2342263	-71
54740	0	-0.019380569	-0.025115967	0.399792671	0.999999046	-6.68E-06	-0.000202179	3.43E-05	-0.484514236	-0.62789917	9.99481678	-0.000333786	-0.010108948	0.001716614	-0.275878906	0.654052734	-0.904785156	891.62	-3.705979655	2.967001932	-117.239911	-71
54741	0	-0.018615723	-0.025695801	0.401123047	0.999999046	1.53E-05	-2.96E-05	6.48E-05	-0.465393066	-0.64239502	10.02807617	0.000762939	-0.001478195	0.003242493	-0.273681641	0.654052734	-0.902099609	891.58	-3.706228315	2.962226711	-117.2417968	-71
54742	0	-0.019083023	-0.025559425	0.400452614	0.999999046	0.000144958	8.20E-05	7.15E-05	-0.477075577	-0.638985634	10.01131535	0.007247925	0.0041008	0.003576279	-0.273681641	0.65625	-0.905273438	891.52	-3.691616311	2.970309241	-117.2433311	-70
54743	0	-0.018798828	-0.02520752	0.401000977	0.999999046	-2.67E-05	-1.81E-05	3.05E-05	-0.469970703	-0.630187988	10.02502441	-0.001335144	-0.000905991	0.001525879	-0.273681641	0.65625	-0.905273438	891.48	-3.696865445	2.966666596	-117.2489952	-70
54744	0	-0.019823074	-0.026082993	0.400938988	0.999999046	0.000113487	-5.72E-06	1.05E-05	-0.495576859	-0.652074814	10.02347469	0.005674362	-0.000286102	0.000524521	-0.273681641	0.654052734	-0.905029297	891.62	-3.686202375	2.964374741	-117.2578864	-71
54745	0	-0.019226074	-0.02545166	0.398864746	0.999999046	4.20E-05	1.62E-05	-1.91E-05	-0.480651855	-0.636291504	9.971618652	0.002098083	0.000810623	-0.000953674	-0.273681641	0.654052734	-0.902099609	891.62	-3.683923679	2.964429508	-117.2701717	-71
54746	0	-0.019359589	-0.024076462	0.400635719	0.999999046	0.000120163	0.000209808	4.86E-05	-0.483989716	-0.601911545	10.01589298	0.006008148	0.010490418	0.00243187	-0.273681641	0.654052734	-0.902099609	891.62	-3.672289114	2.987177989	-117.2764099	-71
54747	0	-0.020202637	-0.02532959	0.402893066	0.999999046	8.39E-05	-7.92E-05	0.000110626	-0.505065918	-0.633239746	10.07232666	0.004196167	-0.003957748	0.005531311	-0.271240234	0.654052734	-0.907958984	891.68	-3.664318773	2.977420593	-117.2720243	-70
54748	0	-0.020449638	-0.025197029	0.399420738	0.999999046	-3.53E-05	-0.000141144	5.72E-05	-0.511240959	-0.629925728	9.985518456	-0.001764297	-0.00705719	0.002861023	-0.273681641	0.654052734	-0.905029297	891.58	-3.670306742	2.960287602	-117.2749481	-70
54749	0	-0.020629883	-0.024719238	0.40032959	0.999999046	-7.63E-06	-3.72E-05	0.000114441	-0.51574707	-0.617980957	10.00823975	-0.00038147	-0.001859665	0.005722046	-0.2734375	0.651855469	-0.904785156	891.56	-3.672799136	2.955576855	-117.272865	-71
54750	0	-0.019994736	-0.02240181	0.402222633	0.999999046	-1.34E-05	-0.000284195	0.000136375	-0.499868393	-0.560045242	10.05556583	-0.000667572	-0.014209748	0.006818771	-0.273681641	0.654052734	-0.907958984	891.62	-3.675572353	2.922858775	-117.2656985	-71
54751	0	-0.019592285	-0.025085449	0.402160645	0.999999046	9.54E-05	-0.000411034	0.000202179	-0.489807129	-0.62713623	10.05401611	0.004768372	-0.020551682	0.010108948	-0.275878906	0.654052734	-0.904785156	891.62	-3.66545322	2.876183927	-117.2511636	-70
54752	0	-0.020676613	-0.025610924	0.400961876	0.999999046	-0.000119209	-0.000408173	6.10E-05	-0.516915321	-0.640273094	10.0240469	-0.005960465	-0.020408631	0.003051758	-0.276123047	0.654052734	-0.902099609	891.62	-3.680760903	2.8289402	-117.2523696	-71
54753	0	-0.020690918	-0.024536133	0.400817871	0.999999046	-0.000164032	-0.000418663	0.000221252	-0.517272949	-0.61340332	10.02044678	-0.008201599	-0.020933152	0.011062623	-0.275878906	0.654052734	-0.904785156	891.58	-3.700262667	2.781831704	-117.234918	-70
54754	0	-0.017986298	-0.025941849	0.400579453	0.999999046	-0.00022316	-0.000534058	9.16E-05	-0.44965744	-0.648546219	10.01448631	-0.01115799	-0.026702882	0.004577637	-0.276123047	0.654052734	-0.902099609	891.52	-3.72725383	2.720601303	-117.2309849	-70
54755	0	-0.018615723	-0.02557373	0.399475098	0.999999046	-0.000152588	-0.000655174	0.000114441	-0.465393066	-0.639343262	9.986877441	-0.007629395	-0.032758715	0.005722046	-0.276123047	0.65625	-0.907958984	891.64	-3.745995259	2.645779113	-117.2222811	-70
54756	0	-0.017425537	-0.025753021	0.400161743	0.999999046	-0.000208855	-0.000553131	0.000106812	-0.435638428	-0.643825531	10.00404358	-0.010442734	-0.027656557	0.005340576	-0.278320313	0.654296875	-0.901855469	891.64	-3.77127149	2.582616551	-117.217056	-70
54757	0	-0.016906738	-0.025512695	0.399169922	0.999999046	-2.67E-05	-0.000468254	0.000205994	-0.422668457	-0.637817383	9.979248047	-0.001335144	-0.023412705	0.010299683	-0.278320313	0.654296875	-0.904785156	891.64	-3.775185376	2.529952808	-117.2008645	-70
54758	0	-0.017152786	-0.025160789	0.399977684	0.999999046	-2.29E-05	-0.000368118	0.000183105	-0.428819656	-0.629019737	9.999442101	-0.001144409	-0.018405915	0.009155274	-0.278564453	0.656494141	-0.905029297	891.62	-3.778784125	2.488640342	-117.1869673	-70
54759	0	-0.017822266	-0.026000977	0.400390625	0.999999046	-0.0001297	-0.000437737	0.000263214	-0.445556641	-0.650024414	10.00976563	-0.006484986	-0.021886827	0.013160706	-0.278564453	0.656494141	-0.902099609	891.62	-3.794219038	2.440094351	-117.1630329	-70
54760	0	-0.016815186	-0.027256012	0.399971008	0.999999046	-6.20E-05	-0.000421524	0.000136375	-0.420379639	-0.681400299	9.999275208	-0.003099442	-0.021076203	0.006818772	-0.281005859	0.656494141	-0.901855469	891.62	-3.802596949	2.392525023	-117.1554976	-70
54761	0	-0.016174316	-0.026367188	0.3984375	0.999999046	-7.63E-05	-0.000288963	8.77E-05	-0.40435791	-0.659179688	9.9609375	-0.003814697	-0.014448166	0.004386902	-0.281005859	0.656494141	-0.898925781	891.58	-3.812909271	2.359811702	-117.154029	-70
54762	0	-0.014848709	-0.025632858	0.399967194	0.999999046	-4.77E-05	-0.000133514	-0.000125885	-0.371217728	-0.640821457	9.99917984	-0.002384186	-0.00667572	-0.006294251	-0.283203125	0.658935547	-0.904785156	891.58	-3.82096751	2.34324969	-117.1790154	-70
54763	0	-0.016845703	-0.026977539	0.400756836	0.999999046	0.00012207	-0.000315666	0.000198364	-0.421142578	-0.674438477	10.0189209	0.006103516	-0.01578331	0.009918213	-0.278564453	0.656494141	-0.899169922	891.62	-3.808028732	2.308448367	-117.1617264	-70
54764	0	-0.016724586	-0.026324272	0.400650978	0.999999046	-9.63E-05	-0.000400543	0.000110626	-0.418114662	-0.658106804	10.01627445	-0.004816055	-0.020027161	0.005531311	-0.281005859	0.656494141	-0.901855469	891.64	-3.8205102	2.263388593	-117.1559968	-70
54765	0	-0.017089844	-0.02557373	0.399719238	0.999999046	1.14E-05	-0.000266075	4.96E-05	-0.427246094	-0.639343262	9.992980957	0.000572205	-0.013303757	0.002479553	-0.283203125	0.654541016	-0.895751953	891.56	-3.820929705	2.233386583	-117.1604708	-70
54766	0	-0.015719414	-0.025502205	0.400643349	0.999999046	-4.39E-05	-0.000362396	3.05E-05	-0.392985344	-0.637555122	10.01608372	-0.002193451	-0.018119812	0.001525879	-0.281005859	0.656494141	-0.898925781	891.58	-3.827695862	2.192312184	-117.1629831	-70
54767	0	-0.01550293	-0.026794434	0.400634766	0.999999046	-0.000125885	-0.000296593	-4.58E-05	-0.387573242	-0.66986084	10.01586914	-0.006294251	-0.014829636	-0.002288818	-0.283203125	0.656738281	-0.901855469	891.62	-3.844234282	2.158260962	-117.1765127	-70
54768	0	-0.014103889	-0.025309563	0.399782181	0.999999046	-0.000113487	-0.000368118	2.19E-05	-0.352597237	-0.632739067	9.99455452	-0.005674362	-0.018405915	0.001096725	-0.283447266	0.658935547	-0.899169922	891.56	-3.858975505	2.116576858	-117.1801676	-70
54769	0	-0.015869141	-0.025756836	0.400024414	0.999999046	0.000141144	-0.000216484	-1.14E-05	-0.396728516	-0.643920898	10.00061035	0.00705719	-0.010824204	-0.000572205	-0.283447266	0.656738281	-0.895996094	891.56	-3.844681883	2.092102619	-117.1892374	-70
54770	0	-0.015632629	-0.027719498	0.402358055	0.999999046	8.39E-05	-0.000362396	4.58E-05	-0.390815735	-0.692987442	10.05895138	0.004196167	-0.018119812	0.002288818	-0.285644531	0.656738281	-0.898681641	891.58	-3.836725733	2.051505257	-117.192378	-70
54771	0	-0.016296387	-0.026672363	0.399780273	0.999999046	6.10E-05	-0.000445366	0.000144958	-0.407409668	-0.666809082	9.994506836	0.003051758	-0.022268296	0.007247925	-0.283447266	0.656738281	-0.895996094	891.56	-3.83097984	2.002351968	-117.1804904	-70
54772	0	-0.014178276	-0.025155067	0.398880005	0.999999046	-4.77E-06	-0.00028038	-8.01E-05	-0.354456902	-0.628876686	9.972000122	-0.000238419	-0.014019013	-0.004005432	-0.283447266	0.658935547	-0.902099609	891.62	-3.833660862	1.97041492	-117.1943294	-70
54773	0	-0.013671875	-0.026306152	0.40020752	0.999999046	6.48E-05	-0.000193596	1.91E-05	-0.341796875	-0.657653809	10.00518799	0.003242493	-0.009679794	0.000953674	-0.288085938	0.656738281	-0.895751953	891.58	-3.827997921	1.94921524	-117.2027272	-70
54774	0	-0.014005661	-0.02680397	0.399971962	0.999999046	0.000144958	-0.000173569	4.86E-05	-0.350141525	-0.670099258	9.999299049	0.007247925	-0.008678436	0.00243187	-0.285644531	0.658935547	-0.901855469	891.64	-3.813066174	1.930614777	-117.2040939	-70
54775	0	-0.014404297	-0.027160645	0.398376465	0.999999046	-9.16E-05	-0.000121117	8.01E-05	-0.360107422	-0.679016113	9.959411621	-0.004577637	-0.006055832	0.004005432	-0.285888672	0.656738281	-0.895996094	891.58	-3.825186198	1.918359203	-117.2034043	-70
54776	0	-0.014372826	-0.026010513	0.396665573	0.999999046	-1.43E-05	8.39E-05	-1.14E-05	-0.359320641	-0.650262833	9.916639328	-0.000715256	0.004196167	-0.000572205	-0.285644531	0.656738281	-0.898681641	891.58	-3.828856869	1.928957385	-117.2148599	-70
54777	0	-0.013244629	-0.025756836	0.397949219	0.999999046	4.58E-05	0.000161171	-7.63E-05	-0.331115723	-0.643920898	9.948730469	0.002288818	0.008058548	-0.003814697	-0.285644531	0.656738281	-0.898681641	891.64	-3.825896873	1.947936425	-117.2344515	-70
54778	0	-0.014895439	-0.027004242	0.400631905	0.999999046	6.29E-05	8.01E-05	1.91E-05	-0.372385979	-0.675106049	10.01579762	0.003147125	0.004005432	0.000953674	-0.283203125	0.654541016	-0.901611328	891.62	-3.820616331	1.958493747	-117.2414703	-70
54779	0	-0.015197754	-0.02722168	0.399963379	0.999999046	8.39E-05	2.00E-05	3.43E-05	-0.379943848	-0.680541992	9.999084473	0.004196167	0.001001358	0.001716614	-0.283203125	0.656738281	-0.901855469	891.62	-3.812905657	1.962425069	-117.2450611	-70
54780	0	-0.01521492	-0.026116371	0.400881767	0.999999046	-6.39E-05	0.000118256	0.000113487	-0.380373001	-0.652909279	10.02204418	-0.003194809	0.005912781	0.005674362	-0.285644531	0.654541016	-0.895751953	891.58	-3.82184737	1.978309832	-117.244511	-70
54781	0	-0.015258789	-0.026916504	0.399108887	0.999999046	8.01E-05	0.000203133	9.92E-05	-0.381469727	-0.672912598	9.977722168	0.004005432	0.010156632	0.004959106	-0.283447266	0.658935547	-0.902099609	891.58	-3.814397205	2.003908161	-117.242033	-70
54782	0	-0.015730858	-0.025445938	0.39892292	0.999999046	0.000165939	0.000219345	0.000137329	-0.393271446	-0.636148453	9.973073006	0.008296967	0.010967255	0.006866455	-0.283203125	0.654541016	-0.901611328	891.56	-3.796930498	2.031778459	-117.2382631	-70
54783	0	-0.014709473	-0.025634766	0.400085449	0.999999046	0.000125885	1.24E-05	8.39E-05	-0.367736816	-0.640869141	10.00213623	0.006294251	0.000619888	0.004196167	-0.285644531	0.656738281	-0.898681641	891.62	-3.784191944	2.035642146	-117.2402397	-70
54784	0	-0.01557827	-0.025409698	0.399053574	0.999999046	0.000187874	0.000108719	-9.54E-07	-0.389456749	-0.635242462	9.97633934	0.009393692	0.005435944	-4.77E-05	-0.283447266	0.658935547	-0.902099609	891.64	-3.764691349	2.049985953	-117.248932	-70
54785	0	-0.015869141	-0.025817871	0.40057373	0.999999046	-9.16E-05	3.53E-05	4.58E-05	-0.396728516	-0.645446777	10.01434326	-0.004577637	0.001764297	0.002288818	-0.283447266	0.656738281	-0.898925781	891.62	-3.777000148	2.056394344	-117.2531906	-70
54786	0	-0.016448975	-0.025218964	0.399102211	0.999999046	9.35E-05	-4.39E-05	4.86E-05	-0.411224365	-0.630474091	9.977555275	0.004673004	-0.002193451	0.00243187	-0.280761719	0.656494141	-0.904785156	891.58	-3.768039077	2.053909917	-117.2539018	-70
54787	0	-0.016174316	-0.026184082	0.398254395	0.999999046	-4.58E-05	0.000130653	6.10E-05	-0.40435791	-0.654602051	9.956359863	-0.002288818	0.006532669	0.003051758	-0.283203125	0.656738281	-0.901855469	891.58	-3.775057061	2.071593881	-117.2576039	-70
54788	0	-0.01554966	-0.026158333	0.399712563	1	3.24E-05	2.86E-06	0	-0.388741493	-0.653958321	9.992814064	0.001621246	0.000143051	0	-0.280761719	0.654296875	-0.898925781	891.56	-3.773344358	2.074282239	-117.2656782	-70
54789	0	-0.014953613	-0.027038574	0.401733398	0.999999046	9.92E-05	0.000107765	6.48E-05	-0.373840332	-0.675964355	10.04333496	0.004959106	0.00538826	0.003242493	-0.283447266	0.658935547	-0.896240234	891.58	-3.763794984	2.089494799	-117.2674275	-70
54790	0	-0.015836716	-0.027079582	0.399599075	0.999999046	6.48E-05	0.000137329	6.77E-05	-0.395917892	-0.676989555	9.989976883	0.003242493	0.006866455	0.003385544	-0.283203125	0.654296875	-0.904541016	891.56	-3.758244865	2.108190552	-117.2729539	-70
54791	0	-0.016113281	-0.025634766	0.398742676	0.999999046	1.91E-05	8.87E-05	5.72E-05	-0.402832031	-0.640869141	9.968566895	0.000953674	0.004434586	0.002861023	-0.281005859	0.654296875	-0.895996094	891.56	-3.757961808	2.121336321	-117.2760038	-70
54792	0	-0.016247749	-0.025252342	0.39922905	0.999999046	4.67E-05	0.000391006	2.96E-05	-0.406193733	-0.631308556	9.980726242	0.002336502	0.019550324	0.001478195	-0.281005859	0.658691406	-0.902099609	891.58	-3.754686777	2.168931316	-117.2829799	-70
54793	0	-0.01739502	-0.026794434	0.401611328	0.999999046	0.000160217	0.000283241	7.63E-05	-0.434875488	-0.66986084	10.0402832	0.008010864	0.014162064	0.003814697	-0.281005859	0.656494141	-0.901855469	891.64	-3.738227001	2.204676985	-117.2859105	-70
54794	0	-0.018602371	-0.025321007	0.401669502	0.999999046	-0.000143051	0	0.000113487	-0.46505928	-0.633025169	10.04173756	-0.007152557	0	0.005674362	-0.278564453	0.656494141	-0.905029297	891.62	-3.756247232	2.208481589	-117.2800793	-70
54795	0	-0.016723633	-0.02545166	0.399047852	0.999999046	-4.20E-05	0.000153542	4.20E-05	-0.41809082	-0.636291504	9.976196289	-0.002098084	0.007677078	0.002098084	-0.280761719	0.656494141	-0.904785156	891.58	-3.763032169	2.22937593	-117.2869748	-70
54796	0	-0.016177177	-0.025239944	0.400016785	0.999999046	7.34E-05	7.06E-05	-3.81E-05	-0.404429436	-0.630998611	10.00041962	0.003671646	0.003528595	-0.001907349	-0.278320313	0.654296875	-0.901855469	891.62	-3.75689504	2.240214229	-117.3004378	-70
54797	0	-0.017456055	-0.025695801	0.400024414	0.999999046	8.01E-05	0.000103951	-3.81E-05	-0.436401367	-0.64239502	10.00061035	0.004005432	0.005197525	-0.001907349	-0.281005859	0.656494141	-0.901855469	891.64	-3.750002503	2.254963286	-117.3162027	-70
54798	0	-0.017292976	-0.026244164	0.398376465	0.999999046	0.000108719	8.77E-05	6.87E-05	-0.432324409	-0.656104088	9.959411621	0.005435944	0.004386902	0.003433228	-0.278564453	0.656494141	-0.905029297	891.64	-3.739375588	2.268741199	-117.3168719	-70
54799	0	-0.017578125	-0.025817871	0.401123047	0.999999046	6.48E-05	0.000161171	7.25E-05	-0.439453125	-0.645446777	10.02807617	0.003242493	0.008058548	0.003623962	-0.278564453	0.656494141	-0.899169922	891.56	-3.733783648	2.291027015	-117.3175737	-70
54800	0	-0.017954826	-0.026190758	0.400265694	0.999999046	0.000132561	-1.72E-05	4.20E-05	-0.448870659	-0.654768944	10.00664234	0.006628037	-0.000858307	0.002098084	-0.278564453	0.656494141	-0.902099609	891.58	-3.720546044	2.292786028	-117.3206583	-70
54801	0	-0.018493652	-0.026245117	0.399230957	0.999999046	9.54E-05	-2.96E-05	-3.43E-05	-0.462341309	-0.65612793	9.980773926	0.004768372	-0.001478195	-0.001716614	-0.276123047	0.654052734	-0.902099609	891.64	-3.71195058	2.292681479	-117.3306299	-70
54802	0	-0.017430305	-0.025987625	0.398443222	0.999999046	1.14E-05	6.10E-05	0.000109673	-0.435757637	-0.649690628	9.961080551	0.000572205	0.003051758	0.005483627	-0.278320313	0.656494141	-0.907958984	891.64	-3.712369493	2.304069318	-117.3270969	-70
54803	0	-0.016540527	-0.025268555	0.400268555	0.999999046	7.63E-05	0.000138283	-7.63E-06	-0.413513184	-0.631713867	10.00671387	0.003814697	0.006914139	-0.00038147	-0.278564453	0.656494141	-0.902099609	891.64	-3.705906427	2.323429894	-117.3375329	-70
54804	0	-0.017505646	-0.025940895	0.400816917	0.999999046	0.000136375	0.000110626	3.81E-05	-0.437641144	-0.648522377	10.02042294	0.006818771	0.005531311	0.001907349	-0.276123047	0.65625	-0.905029297	891.62	-3.692358088	2.340019045	-117.3398134	-70
54805	0	-0.018676758	-0.025634766	0.402404785	0.999999046	0.000125885	8.49E-05	3.43E-05	-0.466918945	-0.640869141	10.06011963	0.006294251	0.004243851	0.001716614	-0.276123047	0.656494141	-0.902099609	891.68	-3.680026735	2.353736082	-117.342072	-70
54806	0	-0.018685341	-0.025837898	0.400515556	0.999999046	9.54E-05	0.000202179	7.15E-05	-0.467133522	-0.645947456	10.01288891	0.004768372	0.010108948	0.003576279	-0.276123047	0.65625	-0.905029297	891.58	-3.671080063	2.381237177	-117.3420996	-70
54807	0	-0.017883301	-0.024841309	0.400268555	0.999999046	0.00018692	0.000229836	-3.43E-05	-0.44708252	-0.621032715	10.00671387	0.009346008	0.011491776	-0.001716614	-0.278564453	0.656494141	-0.902099609	891.64	-3.652139176	2.411169862	-117.3577182	-70
54808	0	-0.019530296	-0.025731087	0.401123047	0.999999046	0.000128746	0.000179291	0.000132561	-0.488257408	-0.643277168	10.02807617	0.006437302	0.008964539	0.006628037	-0.276123047	0.65625	-0.907958984	891.62	-3.639073635	2.436656635	-117.3517357	-70
54809	0	-0.019836426	-0.025756836	0.401672363	0.999999046	8.77E-05	0.000184059	0.000156403	-0.495910645	-0.643920898	10.04180908	0.004386902	0.009202957	0.007820129	-0.273681641	0.654052734	-0.905029297	891.62	-3.630619476	2.462976917	-117.3416694	-70
54810	0	-0.020662308	-0.026107788	0.399410248	1	4.48E-05	-1.62E-05	3.05E-05	-0.516557693	-0.652694702	9.985256195	0.002241135	-0.000810623	0.001525879	-0.276123047	0.65625	-0.905029297	891.54	-3.627697633	2.46562915	-117.3464543	-70
54811	0	-0.019348145	-0.024291992	0.400512695	0.999999046	8.77E-05	2.00E-05	-7.63E-06	-0.483703613	-0.607299805	10.01281738	0.004386902	0.001001358	-0.00038147	-0.273681641	0.654296875	-0.905273438	891.58	-3.620017297	2.472226602	-117.3537924	-70
54812	0	-0.01802063	-0.024222374	0.400393486	0.999999046	0.000178337	6.87E-05	5.63E-05	-0.450515747	-0.605559349	10.00983715	0.008916855	0.003433228	0.002813339	-0.273681641	0.654296875	-0.905273438	891.58	-3.601617718	2.484854785	-117.3543045	-70
54813	0	-0.018310547	-0.024230957	0.400817871	0.999999046	3.81E-05	-3.34E-05	0.000118256	-0.457763672	-0.605773926	10.02044678	0.001907349	-0.00166893	0.005912781	-0.273681641	0.654296875	-0.905273438	891.62	-3.598912015	2.486273252	-117.3472201	-70
54814	0	-0.021401405	-0.02382946	0.402956963	0.999999046	0.000123978	-5.15E-05	0.000178337	-0.535035133	-0.595736504	10.07392406	0.006198883	-0.002574921	0.008916855	-0.273681641	0.652099609	-0.905029297	891.68	-3.586011101	2.486214913	-117.3350862	-70
54815	0	-0.020690918	-0.023742676	0.402954102	0.999999046	8.01E-05	-0.000239372	0.00025177	-0.517272949	-0.593566895	10.07385254	0.004005432	-0.011968613	0.012588501	-0.273681641	0.654296875	-0.908203125	891.68	-3.577660179	2.465318503	-117.3116131	-70
54816	0	-0.020876884	-0.025255203	0.402357101	0.999999046	-0.000153542	-0.000328064	0.000240326	-0.521922112	-0.631380081	10.05892754	-0.007677078	-0.016403199	0.012016297	-0.275878906	0.652099609	-0.907714844	891.58	-3.596152387	2.434336034	-117.294025	-70
54817	0	-0.020385742	-0.02532959	0.400512695	0.999999046	-0.000118256	-0.000502586	6.10E-05	-0.509643555	-0.633239746	10.01281738	-0.005912781	-0.025129319	0.003051758	-0.276123047	0.656494141	-0.90234375	891.64	-3.611448341	2.382234601	-117.29061	-70
54818	0	-0.017788887	-0.025483131	0.400096893	0.999999046	-0.000165939	-0.000579834	1.53E-05	-0.444722176	-0.637078285	10.00242233	-0.008296967	-0.028991701	0.000762939	-0.275878906	0.654296875	-0.910888672	891.52	-3.632432273	2.320976646	-117.2931439	-70
54819	0	-0.017150879	-0.025512695	0.399658203	0.999999046	-5.72E-05	-0.000479698	0.000205994	-0.428771973	-0.637817383	9.991455078	-0.002861023	-0.02398491	0.010299683	-0.276123047	0.654296875	-0.905029297	891.62	-3.640131999	2.272554942	-117.2735671	-70
54820	0	-0.016899109	-0.024697304	0.400465012	0.999999046	4.10E-05	-0.000471115	0.000182152	-0.422477722	-0.617432594	10.01162529	0.0020504	-0.023555757	0.00910759	-0.278564453	0.654296875	-0.905029297	891.64	-3.636679597	2.224944032	-117.2598264	-70
54821	0	-0.017822266	-0.025817871	0.400146484	0.999999046	4.20E-05	-0.000349998	3.43E-05	-0.445556641	-0.645446777	10.00366211	0.002098084	-0.017499924	0.001716614	-0.276123047	0.654296875	-0.902099609	891.52	-3.633847183	2.190177416	-117.2585834	-70
54822	0	-0.017664909	-0.025661469	0.400893211	0.999999046	-3.81E-05	-0.000370026	9.16E-05	-0.441622734	-0.641536713	10.02233028	-0.001907349	-0.018501282	0.004577637	-0.278564453	0.654296875	-0.905029297	891.58	-3.639969715	2.153603785	-117.2543535	-69
54823	0	-0.017700195	-0.026428223	0.401306152	0.999999046	-0.000190735	-0.000464439	7.63E-05	-0.442504883	-0.660705566	10.03265381	-0.009536744	-0.023221971	0.003814697	-0.278564453	0.654541016	-0.896240234	891.52	-3.663679198	2.106202678	-117.2491316	-70
54824	0	-0.016415596	-0.026213646	0.401677132	0.999999046	-7.15E-05	-0.000463486	0.000132561	-0.4103899	-0.655341148	10.04192829	-0.003576279	-0.023174287	0.006628037	-0.281005859	0.656738281	-0.902099609	891.58	-3.673537087	2.059352051	-117.2394524	-69
54825	0	-0.016052246	-0.026367188	0.399902344	0.999999046	-0.00018692	-0.000308037	9.16E-05	-0.401306152	-0.659179688	9.997558594	-0.009346009	-0.015401841	0.004577637	-0.281005859	0.654541016	-0.899169922	891.54	-3.696881891	2.030007307	-117.236937	-70
54826	0	-0.015932083	-0.02572155	0.40057373	0.999999046	-1.91E-05	-0.000314713	0.000132561	-0.398302078	-0.64303875	10.01434326	-0.000953674	-0.015735627	0.006628037	-0.281005859	0.656738281	-0.905029297	891.64	-3.700830252	2.000235196	-117.2278047	-69
54827	0	-0.016174316	-0.026550293	0.400817871	0.999999046	-7.63E-06	-0.000372887	0.000179291	-0.40435791	-0.663757324	10.02044678	-0.00038147	-0.018644333	0.008964539	-0.278564453	0.656738281	-0.899414063	891.52	-3.703310765	1.964211453	-117.2074826	-69
54828	0	-0.015763283	-0.027222633	0.399607658	0.999999046	9.44E-05	-0.000276566	5.63E-05	-0.394082069	-0.680565834	9.99019146	0.004720688	-0.013828278	0.002813339	-0.281005859	0.656738281	-0.902099609	891.62	-3.694692359	1.938338003	-117.2058117	-69
54829	0	-0.015319824	-0.025512695	0.399414063	0.999999046	8.77E-05	-0.000170708	-6.48E-05	-0.382995605	-0.637817383	9.985351563	0.004386902	-0.008535385	-0.003242493	-0.281005859	0.656738281	-0.902099609	891.68	-3.687327002	1.923709543	-117.2179986	-69
54830	0	-0.015301704	-0.025139809	0.401010513	0.999999046	2.29E-05	-0.000133514	8.01E-05	-0.38254261	-0.628495216	10.02526283	0.001144409	-0.00667572	0.004005432	-0.281005859	0.656738281	-0.902099609	891.62	-3.686817888	1.914437115	-117.2137478	-69
54831	0	-0.016113281	-0.026489258	0.403015137	0.999999046	-1.14E-05	-0.000349998	0.000148773	-0.402832031	-0.662231445	10.07537842	-0.000572205	-0.017499924	0.00743866	-0.283203125	0.656738281	-0.904785156	891.56	-3.689969997	1.880987729	-117.2037052	-69
54832	0	-0.016511917	-0.02606678	0.400950432	0.999999046	1.43E-05	-0.00028038	6.39E-05	-0.412797928	-0.651669502	10.0237608	0.000715256	-0.014019013	0.003194809	-0.283447266	0.656738281	-0.899169922	891.62	-3.690528528	1.854980965	-117.2029298	-69
54833	0	-0.016113281	-0.026062012	0.402038574	0.999999046	1.14E-05	-0.000201225	8.77E-05	-0.402832031	-0.651550293	10.05096436	0.000572205	-0.010061264	0.004386902	-0.283447266	0.654541016	-0.898925781	891.68	-3.691362845	1.838293089	-117.201743	-69
54834	0	-0.014980316	-0.026416779	0.40027523	0.999999046	-0.00015831	-0.000255585	7.63E-05	-0.374507904	-0.660419464	10.00688076	-0.007915497	-0.012779236	0.003814697	-0.283447266	0.656738281	-0.896240234	891.52	-3.711714865	1.815345008	-117.1986889	-69
54835	0	-0.015014648	-0.026245117	0.400390625	0.999999046	-0.000232697	-5.63E-05	2.67E-05	-0.375366211	-0.65612793	10.00976563	-0.011634827	-0.002813339	0.001335144	-0.281005859	0.656738281	-0.896240234	891.54	-3.740835302	1.814868415	-117.198729	-69
54836	0	-0.014360428	-0.026003838	0.400013924	0.999999046	-7.72E-05	-0.00022316	2.57E-05	-0.359010696	-0.65009594	10.00034809	-0.003862381	-0.01115799	0.00128746	-0.283447266	0.656738281	-0.902099609	891.58	-3.752109878	1.795312792	-117.2025201	-69
54837	0	-0.01550293	-0.026184082	0.400634766	0.999999046	0.0001297	-0.00014782	1.91E-05	-0.387573242	-0.654602051	10.01586914	0.006484985	-0.007390976	0.000953674	-0.283447266	0.656738281	-0.896240234	891.62	-3.739711566	1.78440132	-117.2062717	-69
54838	0	-0.015750885	-0.027422905	0.401683807	0.999999046	0	-0.000228882	0.000106812	-0.393772125	-0.685572624	10.04209518	0	-0.011444092	0.005340576	-0.283447266	0.656738281	-0.899169922	891.64	-3.741910698	1.764968805	-117.1993922	-70
54839	0	-0.016418457	-0.02722168	0.399475098	0.999999046	2.67E-05	-0.00026226	0.000125885	-0.410461426	-0.680541992	9.986877441	0.001335144	-0.013113022	0.006294251	-0.285888672	0.659179688	-0.896240234	891.64	-3.741038489	1.74199543	-117.1913788	-70
54840	0	-0.014933586	-0.026647568	0.398568153	0.999999046	-6.20E-05	-0.000118256	4.20E-05	-0.373339653	-0.666189194	9.964203835	-0.003099442	-0.005912781	0.002098084	-0.283447266	0.656738281	-0.899169922	891.64	-3.750686797	1.734924892	-117.1921797	-69
54841	0	-0.013427734	-0.026367188	0.398681641	0.999999046	-0.000102997	9.63E-05	9.16E-05	-0.335693359	-0.659179688	9.967041016	-0.005149841	0.004816055	0.004577637	-0.285888672	0.656982422	-0.898925781	891.58	-3.764931525	1.752749106	-117.1942361	-69
54842	0	-0.013264656	-0.026386261	0.397025108	0.999999046	-9.54E-06	6.29E-05	0.000114441	-0.331616402	-0.659656525	9.925627708	-0.000476837	0.003147125	0.005722046	-0.285888672	0.659179688	-0.899169922	891.58	-3.768393339	1.766905361	-117.1917216	-69
54843	0	-0.014099121	-0.025939941	0.399108887	0.999999046	0.000160217	-4.86E-05	0.000144958	-0.352478027	-0.648498535	9.977722168	0.008010864	-0.00243187	0.007247925	-0.285888672	0.656982422	-0.895996094	891.62	-3.752255601	1.768543578	-117.186739	-69
54844	0	-0.014861107	-0.025929451	0.401315689	0.999999046	7.72E-05	-5.34E-05	0.000232697	-0.371527672	-0.648236275	10.03289223	0.003862381	-0.002670288	0.011634827	-0.285888672	0.659179688	-0.899169922	891.62	-3.745295222	1.770338845	-117.1701317	-69
54845	0	-0.015258789	-0.026489258	0.401489258	0.999999046	6.87E-05	4.67E-05	4.96E-05	-0.381469727	-0.662231445	10.03723145	0.003433228	0.002336502	0.002479553	-0.285888672	0.656982422	-0.895996094	891.64	-3.740005005	1.782276778	-117.177315	-69
54846	0	-0.015909195	-0.027226448	0.400697708	0.999999046	-3.81E-06	0.000362396	4.86E-05	-0.397729874	-0.680661201	10.0174427	-0.000190735	0.018119812	0.00243187	-0.283447266	0.656738281	-0.899169922	891.56	-3.743154736	1.830395577	-117.1841761	-69
54847	0	-0.013671875	-0.026611328	0.397033691	0.999999046	5.72E-05	0.000287056	-6.87E-05	-0.341796875	-0.665283203	9.925842285	0.002861023	0.014352799	-0.003433228	-0.283447266	0.656738281	-0.902099609	891.48	-3.739767884	1.868987029	-117.2049816	-69
54848	0	-0.014142036	-0.026201248	0.40117836	0.999999046	1.05E-05	0.000225067	0.00014019	-0.353550911	-0.655031204	10.029459	0.000524521	0.011253357	0.007009506	-0.283447266	0.656738281	-0.902099609	891.62	-3.740949435	1.902021053	-117.2026572	-69
54849	0	-0.015930176	-0.026855469	0.401611328	0.999999046	0.000102997	8.11E-05	0.000144958	-0.398254395	-0.671386719	10.0402832	0.005149841	0.004053116	0.007247925	-0.283203125	0.656738281	-0.904785156	891.52	-3.731506497	1.918672077	-117.1990952	-69
