Counter	Temperature	VelInc_X	VelInc_Y	VelInc_Z	OriInc_w	OriInc_x	OriInc_y	OriInc_z	Acc_X	Acc_Y	Acc_Z	Gyr_X	Gyr_Y	Gyr_Z	Mag_X	Mag_Y	Mag_Z	Pressure	Roll	Pitch	Yaw	RSSI
55438	0	0.387425423	0.06026268	0.04109478	0.999999046	-3.81E-06	0.000310898	3.43E-05	9.685635567	1.506567001	1.027369499	-0.000190735	0.015544892	0.001716614	-0.917236328	0.481445313	0.026611328	891.5	53.85063156	-79.77922412	-157.6148805	-51
55439	0	0.388244629	0.058532715	0.039855957	0.999999046	-7.63E-05	0.00036335	0.000190735	9.706115723	1.463317871	0.996398926	-0.003814697	0.018167496	0.009536743	-0.914794922	0.481201172	0.029296875	891.5	53.61939942	-79.75529358	-157.4000468	-51
55440	0	0.38860321	0.059659004	0.041671753	0.999999046	6.96E-05	0.000413895	4.58E-05	9.715080261	1.491475105	1.041793823	0.003480911	0.020694733	0.002288818	-0.914794922	0.479003906	0.029541016	891.56	53.43495511	-79.71442638	-157.2185568	-51
55441	0	0.388427734	0.059509277	0.04095459	0.999999046	9.92E-05	0.0001688	0.000289917	9.710693359	1.487731934	1.023864746	0.004959107	0.008440018	0.01449585	-0.917236328	0.479003906	0.026855469	891.56	53.28740789	-79.71271871	-157.0667037	-51
55442	0	0.387410164	0.058865547	0.041560173	0.999999046	0.000274658	0.000574112	0.000250816	9.685254097	1.47163868	1.039004326	0.013732911	0.028705599	0.012540818	-0.914794922	0.481201172	0.026367188	891.52	52.97076542	-79.67949025	-156.7230794	-51
55443	0	0.387023926	0.05859375	0.042724609	0.999999046	0.000152588	0.000218391	0.000171661	9.675598145	1.46484375	1.068115234	0.007629395	0.010919571	0.008583069	-0.914794922	0.481201172	0.026367188	891.48	52.84998614	-79.6633989	-156.5938126	-51
55444	0	0.388978958	0.059692383	0.04086113	0.999999046	-5.82E-05	0.000106812	0.000163078	9.724473953	1.49230957	1.021528244	-0.002908707	0.005340576	0.008153915	-0.914794922	0.479003906	0.023681641	891.52	52.76497726	-79.65427457	-156.5207788	-50
55445	0	0.387084961	0.059448242	0.043457031	0.999999046	0.000114441	8.87E-05	0.000286102	9.677124023	1.486206055	1.086425781	0.005722046	0.004434586	0.014305115	-0.917236328	0.481201172	0.023681641	891.56	52.66201884	-79.65758041	-156.4097558	-51
55446	0	0.388697624	0.058868408	0.042229652	0.999999046	-1.72E-05	-8.39E-05	0.000183105	9.717440605	1.471710205	1.05574131	-0.000858307	-0.004196167	0.009155273	-0.916992188	0.479003906	0.020996094	891.42	52.66947257	-79.66353623	-156.4210667	-51
55447	0	0.387695313	0.06060791	0.041381836	0.999999046	-1.91E-05	0.000306129	0.000263214	9.692382813	1.515197754	1.034545898	-0.000953674	0.015306473	0.013160706	-0.912353516	0.481201172	0.0234375	891.56	52.4522247	-79.64960941	-156.20897	-50
55448	0	0.386113167	0.059792519	0.043755531	0.999999046	-0.000103951	0.000274658	0.000292778	9.65282917	1.494812965	1.093888283	-0.005197525	0.013732911	0.014638901	-0.914794922	0.483398438	0.0234375	891.48	52.23007417	-79.64036651	-156.0023961	-51
55449	0	0.387817383	0.057861328	0.044433594	0.999999046	-0.000198364	0.000348091	0.000228882	9.69543457	1.446533203	1.110839844	-0.009918213	0.017404557	0.011444092	-0.912353516	0.481201172	0.0234375	891.56	51.98548008	-79.62004572	-155.7852711	-50
55450	0	0.38811779	0.05784893	0.043931961	0.999999046	-0.000162125	0.000165939	0.000216484	9.702944756	1.446223259	1.098299026	-0.008106232	0.008296967	0.010824204	-0.914794922	0.481201172	0.023681641	891.48	51.83994466	-79.61139328	-155.6658924	-50
55451	0	0.385803223	0.058410645	0.044677734	0.999999046	-2.29E-05	4.29E-05	8.77E-05	9.645080566	1.460266113	1.116943359	-0.001144409	0.002145767	0.004386902	-0.917236328	0.483642578	0.0234375	891.54	51.82045296	-79.59980441	-155.6575392	-50
55452	0	0.386846542	0.056203842	0.045627594	0.999999046	-8.30E-05	0.000370026	-5.34E-05	9.671163559	1.405096054	1.14068985	-0.004148483	0.018501282	-0.002670288	-0.917236328	0.481201172	0.020751953	891.52	51.68780138	-79.55236158	-155.5374528	-50
55453	0	0.387634277	0.055114746	0.045043945	0.999999046	2.67E-05	0.000203133	-0.000118256	9.690856934	1.377868652	1.126098633	0.001335144	0.010156632	-0.005912781	-0.916992188	0.481201172	0.017822266	891.6	51.67392101	-79.51105704	-155.5199087	-50
55454	0	0.389739037	0.05710125	0.043732643	0.999999046	0.000123978	0.000370026	-3.43E-05	9.743475914	1.427531242	1.093316078	0.006198883	0.018501282	-0.001716614	-0.912353516	0.481201172	0.017578125	891.5	51.55839707	-79.46554509	-155.3879153	-51
55455	0	0.389465332	0.05670166	0.042663574	0.999999046	0.000110626	0.000519753	0.000255585	9.736633301	1.417541504	1.066589355	0.005531311	0.025987627	0.012779237	-0.914794922	0.481201172	0.020751953	891.56	51.25949246	-79.43540235	-155.0803326	-50
55456	0	0.389144897	0.059685707	0.044213295	0.999999046	-0.000193596	0.000442505	0.000216484	9.728622437	1.492142677	1.105332375	-0.009679795	0.022125245	0.010824204	-0.912353516	0.481201172	0.017578125	891.5	50.97972817	-79.40706708	-154.8218978	-50
55457	0	0.387084961	0.058959961	0.045776367	0.999999046	-0.000480652	0.000267982	0.000190735	9.677124023	1.473999023	1.14440918	-0.024032594	0.013399125	0.009536744	-0.914794922	0.481201172	0.017822266	891.48	50.76109791	-79.38885203	-154.6602167	-50
55458	0	0.386899948	0.060599327	0.045552254	0.999999046	-0.000432968	5.34E-05	3.72E-05	9.672498703	1.514983177	1.138806343	-0.021648408	0.002670288	0.001859665	-0.912353516	0.481201172	0.017578125	891.52	50.7097287	-79.3724496	-154.6614346	-50
55459	0	0.385070801	0.058776855	0.04699707	0.999999046	-0.000434875	-2.19E-05	0.000179291	9.62677002	1.469421387	1.174926758	-0.021743775	-0.001096726	0.008964539	-0.912353516	0.481201172	0.020507813	891.56	50.6385832	-79.37407155	-154.6479302	-50
55460	0	0.387106895	0.057743073	0.046113968	0.999999046	-0.000466347	-0.000320435	-4.29E-05	9.677672386	1.443576813	1.152849197	-0.023317338	-0.016021729	-0.002145767	-0.914550781	0.479003906	0.020751953	891.5	50.79071233	-79.3776918	-154.8646477	-50
55461	0	0.388305664	0.059570313	0.046386719	0.999999046	-0.000137329	-0.000159264	-8.01E-05	9.707641602	1.489257813	1.159667969	-0.006866455	-0.007963181	-0.004005432	-0.914550781	0.479003906	0.020751953	891.5	50.91852677	-79.36622799	-155.0171874	-50
55462	0	0.387639046	0.059313774	0.045667648	0.999999046	-0.000192642	4.39E-05	-7.63E-05	9.690976143	1.482844353	1.141691208	-0.009632111	0.002193451	-0.003814697	-0.917236328	0.481201172	0.023681641	891.44	50.94213746	-79.34040249	-155.0754885	-50
55463	0	0.385314941	0.057922363	0.048461914	0.999999046	0.000156403	0.000237465	-0.0001297	9.632873535	1.448059082	1.211547852	0.00782013	0.011873245	-0.006484985	-0.916992188	0.479003906	0.020996094	891.5	50.93393073	-79.29580645	-155.0568232	-50
55464	0	0.385458946	0.059867859	0.04789257	0.999999046	-0.000136375	-4.39E-05	-7.72E-05	9.636473656	1.496696472	1.197314262	-0.006818771	-0.002193451	-0.003862381	-0.916992188	0.479003906	0.020996094	891.5	51.00419608	-79.27610585	-155.1515263	-50
55465	0	0.385986328	0.06060791	0.046813965	0.999999046	-0.000175476	-0.000117302	9.92E-05	9.649658203	1.515197754	1.170349121	-0.008773804	-0.005865097	0.004959106	-0.916992188	0.481201172	0.017822266	891.48	51.03724785	-79.2773411	-155.2048136	-50
55466	0	0.388449669	0.056851387	0.047107697	0.999999046	-0.000207901	-0.000160217	1.81E-05	9.711241722	1.421284676	1.177692413	-0.01039505	-0.008010864	0.000905991	-0.916992188	0.479003906	0.020996094	891.48	51.11693645	-79.27452955	-155.3156784	-50
55467	0	0.388977051	0.056640625	0.046325684	0.999999046	-5.72E-05	-0.000227928	9.54E-05	9.72442627	1.416015625	1.15814209	-0.002861023	-0.011396408	0.004768372	-0.916992188	0.476806641	0.023925781	891.56	51.21595986	-79.2835847	-155.4344504	-50
55468	0	0.386994362	0.057964325	0.046521187	0.999999046	0.000256538	3.62E-05	0.000201225	9.674859047	1.449108124	1.163029671	0.01282692	0.001811981	0.010061264	-0.916992188	0.476806641	0.021240234	891.44	51.18581803	-79.28317011	-155.3802939	-50
55469	0	0.385559082	0.056335449	0.048278809	0.999999046	0.000644684	0.000100136	0.00031662	9.638977051	1.40838623	1.206970215	0.032234195	0.005006791	0.015830995	-0.917236328	0.481201172	0.023681641	891.62	51.12517869	-79.28850222	-155.2551296	-50
55470	0	0.386928558	0.057799339	0.047670364	0.999999046	0.000680923	-3.62E-05	0.000213623	9.673213959	1.444983482	1.191759109	0.034046176	-0.001811981	0.010681153	-0.916992188	0.481201172	0.017822266	891.52	51.17157431	-79.29446832	-155.223879	-50
55471	0	0.388183594	0.058349609	0.046386719	0.999999046	0.000591278	-1.81E-05	0.000270844	9.704589844	1.458740234	1.159667969	0.029563906	-0.000905991	0.013542176	-0.916992188	0.479003906	0.018066406	891.5	51.17718993	-79.3042953	-155.1641822	-50
55472	0	0.388460159	0.058376312	0.046484947	0.999999046	0.000683784	0.000114441	0.000365257	9.711503983	1.459407806	1.16212368	0.034189228	0.005722046	0.018262865	-0.916992188	0.481201172	0.017822266	891.5	51.09451081	-79.31305184	-155.0046253	-50
55473	0	0.388305664	0.059997559	0.046936035	0.999999046	0.000564575	0.000145912	0.000209808	9.707641602	1.499938965	1.173400879	0.028228762	0.007295609	0.010490418	-0.914794922	0.481201172	0.017822266	891.48	51.04255873	-79.3056124	-154.8915898	-50
55474	0	0.387888908	0.059094429	0.047286034	0.999999046	0.000421524	4.20E-05	0.000213623	9.69722271	1.477360725	1.182150841	0.021076203	0.002098084	0.010681153	-0.914550781	0.481201172	0.014892578	891.6	51.02166452	-79.30597657	-154.8219237	-50
55475	0	0.387023926	0.058105469	0.048034668	0.999999046	0.000457764	-3.72E-05	0.000148773	9.675598145	1.452636719	1.200866699	0.022888184	-0.001859665	0.00743866	-0.912353516	0.483398438	0.014648438	891.44	51.06649413	-79.30625913	-154.8141833	-50
55476	0	0.388997078	0.057237625	0.045937538	0.999999046	0.000409126	0.000246048	0.000136375	9.724926949	1.430940628	1.148438454	0.020456315	0.012302399	0.006818772	-0.914794922	0.481201172	0.017822266	891.48	50.97677882	-79.28512964	-154.6847079	-50
55477	0	0.387939453	0.060058594	0.045043945	0.999999046	0.000354767	0.000382423	2.67E-05	9.698486328	1.501464844	1.126098633	0.017738343	0.019121171	0.001335144	-0.914550781	0.481201172	0.014892578	891.5	50.85972133	-79.24437091	-154.5296953	-50
55478	0	0.386624336	0.060498238	0.047492981	0.999999046	0.000463486	0.000305176	0.000286102	9.665608406	1.51245594	1.187324524	0.023174287	0.01525879	0.014305116	-0.912109375	0.480957031	0.009033203	891.5	50.69330533	-79.23209718	-154.3016607	-50
55479	0	0.385437012	0.05847168	0.047607422	0.999999046	0.000354767	0.0002985	0.000171661	9.635925293	1.461791992	1.190185547	0.017738343	0.014925004	0.008583069	-0.914550781	0.481201172	0.014892578	891.56	50.5615147	-79.21006133	-154.1358865	-50
55480	0	0.384269714	0.059654236	0.046816826	0.999999046	0.000107765	7.06E-05	-3.05E-05	9.606742859	1.491355896	1.170420647	0.00538826	0.003528595	-0.001525879	-0.912109375	0.480957031	0.006103516	891.52	50.5849311	-79.18666532	-154.1389982	-50
55481	0	0.387329102	0.059875488	0.045166016	0.999999046	-4.20E-05	-0.000163078	0.000164032	9.683227539	1.496887207	1.129150391	-0.002098084	-0.008153915	0.008201599	-0.914794922	0.483398438	0.014648438	891.52	50.62591439	-79.19754168	-154.1941029	-50
55482	0	0.387606621	0.05736351	0.046935081	0.999999046	3.62E-05	-0.000257492	0.000109673	9.69016552	1.434087753	1.173377037	0.001811981	-0.012874603	0.005483627	-0.916992188	0.483398438	0.014892578	891.5	50.74028012	-79.21053522	-154.3147807	-50
55483	0	0.387512207	0.058410645	0.046264648	0.999999046	0	-0.000357628	0.000171661	9.687805176	1.460266113	1.156616211	0	-0.017881394	0.008583069	-0.916992188	0.481201172	0.012207031	891.52	50.87397578	-79.23630735	-154.4533445	-50
55484	0	0.387503624	0.057910919	0.045375824	0.999999046	0.000103951	-0.000230789	0.000304222	9.687590599	1.44777298	1.134395599	0.005197525	-0.01153946	0.015211106	-0.914550781	0.481201172	0.014892578	891.52	50.91030243	-79.26476298	-154.4851869	-50
55485	0	0.388000488	0.057617188	0.046447754	0.999999046	0.000240326	-0.000243187	0.000259399	9.700012207	1.440429688	1.161193848	0.012016297	-0.012159348	0.012969971	-0.912109375	0.480957031	0.011962891	891.56	50.98514598	-79.29019517	-154.5337019	-50
55486	0	0.388113022	0.057010651	0.04592514	0.999999046	0.000289917	-0.000200272	0.00026226	9.702825546	1.425266266	1.14812851	0.01449585	-0.010013581	0.013113022	-0.914550781	0.483398438	0.01171875	891.62	51.04436708	-79.31288133	-154.5597651	-50
55487	0	0.387634277	0.057189941	0.047363281	0.999999046	0.000247955	-9.06E-05	0.000270844	9.690856934	1.429748535	1.184082031	0.012397766	-0.004529953	0.013542176	-0.912353516	0.483398438	0.01171875	891.56	51.04325087	-79.32846534	-154.5293305	-50
55488	0	0.387368202	0.057186127	0.046591759	0.999999046	0.000311852	-0.000162125	0.000244141	9.684205055	1.429653168	1.164793968	0.015592576	-0.008106232	0.012207032	-0.912353516	0.483154297	0.008789063	891.5	51.09316563	-79.34687545	-154.5378169	-50
55489	0	0.387329102	0.055603027	0.04473877	0.999999046	0.000465393	-0.000182152	0.000247955	9.683227539	1.390075684	1.118469238	0.023269655	-0.00910759	0.012397767	-0.914794922	0.483398438	0.017578125	891.48	51.16861811	-79.36722394	-154.573067	-50
55490	0	0.388289452	0.056917191	0.04588604	0.999999046	0.000331879	-0.000141144	0.000270844	9.70723629	1.422929764	1.147150993	0.016593934	-0.00705719	0.013542176	-0.914550781	0.483398438	0.01171875	891.52	51.20034938	-79.3867431	-154.5676832	-50
55491	0	0.390075684	0.055908203	0.044555664	0.999999046	7.63E-05	-4.10E-05	0.000175476	9.75189209	1.397705078	1.113891602	0.003814697	-0.0020504	0.008773804	-0.912353516	0.483398438	0.014648438	891.56	51.19145161	-79.39071755	-154.5563965	-50
55492	0	0.388695717	0.059196472	0.045307159	0.999999046	0.000519753	0.000299454	0.000102043	9.717392921	1.479911804	1.132678986	0.025987627	0.014972688	0.005102158	-0.912353516	0.483398438	0.014648438	891.56	51.09976462	-79.3636543	-154.4112527	-50
55493	0	0.387512207	0.058532715	0.046875	0.999999046	2.29E-05	6.58E-05	4.96E-05	9.687805176	1.463317871	1.171875	0.001144409	0.003290176	0.002479553	-0.914550781	0.483398438	0.01171875	891.56	51.08233654	-79.34867316	-154.3943013	-50
55494	0	0.385863304	0.058312416	0.045212746	0.999999046	0.000112534	-0.000200272	-0.000106812	9.646582603	1.457810402	1.130318642	0.005626679	-0.01001358	-0.005340576	-0.912353516	0.483154297	0.008789063	891.56	51.26118076	-79.33887173	-154.5597513	-50
55495	0	0.387084961	0.057006836	0.044677734	0.999999046	0.000144958	1.62E-05	-1.53E-05	9.677124023	1.425170898	1.116943359	0.007247925	0.000810623	-0.000762939	-0.912353516	0.483398438	0.01171875	891.56	51.30581635	-79.32177821	-154.5911001	-50
55496	0	0.387996674	0.058252335	0.044916153	0.999999046	0.000260353	-9.92E-05	-3.05E-05	9.69991684	1.456308365	1.122903824	0.013017655	-0.004959107	-0.001525879	-0.914794922	0.483398438	0.014648438	891.48	51.42415646	-79.31162278	-154.6904272	-50
55497	0	0.389526367	0.059143066	0.045837402	0.999999046	8.77E-05	-0.000174522	-7.63E-06	9.73815918	1.47857666	1.145935059	0.004386902	-0.00872612	-0.00038147	-0.914550781	0.483398438	0.009033203	891.56	51.54970064	-79.30887114	-154.8052743	-50
55498	0	0.386733055	0.059461594	0.04526329	0.999999046	-0.000108719	-6.29E-05	-7.25E-05	9.668326378	1.486539841	1.13158226	-0.005435944	-0.003147125	-0.003623962	-0.916992188	0.481201172	0.012207031	891.5	51.62415918	-79.29230193	-154.8981703	-50
55499	0	0.38482666	0.059204102	0.046081543	0.999999046	-0.000144958	-7.92E-05	-6.87E-05	9.620666504	1.480102539	1.152038574	-0.007247925	-0.003957748	-0.003433228	-0.914550781	0.483398438	0.01171875	891.48	51.70037704	-79.27716732	-154.9942537	-50
55500	0	0.387022018	0.059243202	0.044998169	0.999999046	-0.000113487	-0.0001297	-7.34E-05	9.675550461	1.481080055	1.124954224	-0.005674362	-0.006484985	-0.003671646	-0.914550781	0.481201172	0.011962891	891.66	51.80585498	-79.26518148	-155.1169067	-50
55501	0	0.388183594	0.059448242	0.043884277	0.999999046	-0.00025177	-0.000273705	7.63E-06	9.704589844	1.486206055	1.097106934	-0.012588501	-0.013685227	0.00038147	-0.914550781	0.481201172	0.011962891	891.52	51.93388824	-79.27070639	-155.2771397	-50
55502	0	0.389000893	0.059480667	0.043334007	0.999999046	-0.000274658	-0.000104904	4.96E-05	9.725022316	1.487016678	1.083350182	-0.01373291	-0.005245209	0.002479553	-0.914794922	0.481201172	0.017822266	891.48	51.96375293	-79.26813257	-155.3510153	-50
55503	0	0.388061523	0.059570313	0.044067383	0.999999046	-0.000183105	-1.81E-05	-8.01E-05	9.701538086	1.489257813	1.10168457	-0.009155273	-0.000905991	-0.004005432	-0.914550781	0.481201172	0.014892578	891.52	52.01122272	-79.2477619	-155.4255246	-51
55504	0	0.386343956	0.058943748	0.04468441	0.999999046	-0.000504494	3.24E-05	1.91E-05	9.6585989	1.473593712	1.117110252	-0.025224687	0.001621246	0.000953674	-0.914550781	0.481201172	0.011962891	891.52	51.96088674	-79.23281939	-155.431196	-50
55505	0	0.386474609	0.058532715	0.044250488	0.999999046	-0.00030899	-2.19E-05	4.96E-05	9.661865234	1.463317871	1.106262207	-0.015449524	-0.001096725	0.002479553	-0.914550781	0.479003906	0.015136719	891.58	51.94746953	-79.22454441	-155.4581441	-50
55506	0	0.387947083	0.058527946	0.043902397	0.999999046	-0.000337601	-6.10E-05	4.86E-05	9.698677063	1.463198662	1.097559929	-0.016880036	-0.003051758	0.00243187	-0.914550781	0.481201172	0.014892578	891.5	51.94975427	-79.2190456	-155.5022662	-50
55507	0	0.387756348	0.057922363	0.044250488	0.999999046	-0.000209808	0.000199318	-1.91E-05	9.693908691	1.448059082	1.106262207	-0.010490418	0.009965897	-0.000953674	-0.912353516	0.481201172	0.017578125	891.52	51.86852156	-79.18915085	-155.4516849	-51
55508	0	0.388102531	0.059017181	0.044001579	0.999999046	-0.00017643	1.72E-05	0.000105858	9.702563286	1.475429535	1.100039482	-0.008821487	0.000858307	0.005292892	-0.914550781	0.481201172	0.011962891	891.58	51.8312024	-79.18348572	-155.4307767	-51
55509	0	0.387207031	0.058898926	0.044555664	0.999999046	4.96E-05	-1.05E-05	0.000358582	9.680175781	1.472473145	1.113891602	0.002479553	-0.000524521	0.017929078	-0.914550781	0.481201172	0.014892578	891.66	51.73906891	-79.20259707	-155.3339616	-50
55510	0	0.386210442	0.056062698	0.046554565	0.999999046	0.000164032	0.000196457	0.000296593	9.65526104	1.401567459	1.163864136	0.008201599	0.009822846	0.014829636	-0.914794922	0.483398438	0.017578125	891.58	51.58452643	-79.20148407	-155.1661538	-50
55511	0	0.387023926	0.056152344	0.046325684	0.999999046	3.81E-06	-0.000144005	0.000221252	9.675598145	1.403808594	1.15814209	0.000190735	-0.007200241	0.011062622	-0.912353516	0.481201172	0.017578125	891.48	51.59939686	-79.21791124	-155.1893202	-50
55512	0	0.389625549	0.058115959	0.044075966	0.999999046	0.000395775	-0.000337601	0.000117302	9.740638733	1.452898979	1.101899147	0.019788743	-0.016880036	0.005865097	-0.914550781	0.481201172	0.014892578	891.56	51.78984424	-79.23885334	-155.3400177	-50
55513	0	0.387939453	0.059326172	0.04675293	0.999999046	0.00069809	-0.000308037	0.000259399	9.698486328	1.483154297	1.168823242	0.034904484	-0.015401842	0.012969972	-0.914550781	0.481201172	0.014892578	891.52	51.94834471	-79.27038742	-155.42332	-50
55514	0	0.38696003	0.05967617	0.045025826	0.999999046	0.00028038	-0.000274658	0.000137329	9.67400074	1.491904259	1.125645638	0.014019013	-0.013732911	0.006866455	-0.914794922	0.481201172	0.017822266	891.58	52.0892583	-79.28848187	-155.5428985	-50
55515	0	0.387084961	0.057556152	0.044677734	0.999999046	5.72E-05	-0.00014019	1.91E-05	9.677124023	1.438903809	1.116943359	0.002861023	-0.007009506	0.000953674	-0.916992188	0.483398438	0.011962891	891.48	52.18431322	-79.28644753	-155.6292981	-50
55516	0	0.387771606	0.057729721	0.047124863	0.999999046	0.000187874	-0.00019455	0.000163078	9.694290161	1.443243027	1.178121567	0.009393692	-0.009727478	0.008153916	-0.914550781	0.481201172	0.011962891	891.56	52.26619984	-79.30123922	-155.6872596	-50
55517	0	0.388916016	0.060913086	0.046142578	0.999999046	-7.63E-06	-6.77E-05	0.000278473	9.722900391	1.522827148	1.153564453	-0.00038147	-0.003385544	0.013923645	-0.914550781	0.479003906	0.015136719	891.62	52.22202165	-79.31748471	-155.6468278	-50
55518	0	0.386452675	0.060513496	0.045235634	0.999999046	0.000293732	0.000150681	5.25E-05	9.661316872	1.51283741	1.130890846	0.014686585	0.007534027	0.002622604	-0.914794922	0.483398438	0.014648438	891.5	52.1917755	-79.29784184	-155.5841217	-50
55519	0	0.385864258	0.058532715	0.046630859	0.999999046	4.96E-05	-6.77E-05	4.58E-05	9.646606445	1.463317871	1.165771484	0.002479553	-0.003385544	0.002288818	-0.912353516	0.483398438	0.01171875	891.56	52.24021878	-79.29288952	-155.6235923	-50
55520	0	0.386790276	0.060637474	0.043030739	0.999999046	6.01E-05	-9.35E-05	-2.00E-05	9.669756889	1.515936852	1.075768471	0.003004074	-0.004673004	-0.001001358	-0.912353516	0.481201172	0.014648438	891.5	52.32715214	-79.28376437	-155.7074198	-50
55521	0	0.387634277	0.059570313	0.044921875	0.999999046	0.000144958	-7.53E-05	9.16E-05	9.690856934	1.489257813	1.123046875	0.007247925	-0.003767014	0.004577637	-0.912353516	0.481201172	0.014648438	891.5	52.37375279	-79.28346954	-155.7403541	-50
55522	0	0.387590408	0.058718681	0.046066284	0.999999046	0.000240326	2.48E-05	0.000117302	9.689760208	1.467967033	1.151657104	0.012016297	0.001239777	0.005865097	-0.914794922	0.481201172	0.017822266	891.52	52.37333217	-79.27849477	-155.7216809	-50
55523	0	0.387023926	0.059875488	0.045715332	0.999999046	1.91E-05	-8.30E-05	0.000102997	9.675598145	1.496887207	1.142883301	0.000953674	-0.004148483	0.005149841	-0.914794922	0.483398438	0.014648438	891.44	52.40437502	-79.27971336	-155.7534425	-50
55524	0	0.388934135	0.05857563	0.041802406	0.999999046	4.67E-05	7.82E-05	0.000117302	9.723353386	1.464390755	1.045060158	0.002336502	0.003910065	0.005865097	-0.914550781	0.481201172	0.011962891	891.62	52.35654012	-79.27110143	-155.6974896	-50
55525	0	0.38861084	0.059082031	0.042480469	0.999999046	5.72E-05	0.000130653	0.000179291	9.715270996	1.477050781	1.062011719	0.002861023	0.006532669	0.008964539	-0.914550781	0.481201172	0.014892578	891.62	52.26241826	-79.26452156	-155.5997767	-50
55526	0	0.387521744	0.059130669	0.04483223	0.999999046	-0.000226974	-0.000228882	0.000296593	9.688043594	1.478266716	1.12080574	-0.011348725	-0.011444092	0.014829636	-0.914550781	0.481201172	0.014892578	891.56	52.2642379	-79.29378631	-155.6317503	-51
55527	0	0.388427734	0.057556152	0.044311523	0.999999046	-0.000679016	-0.00039959	0.00056076	9.710693359	1.438903809	1.107788086	-0.033950811	-0.01997948	0.028038029	-0.912353516	0.483398438	0.017578125	891.5	52.19776529	-79.35905241	-155.6487646	-50
55528	0	0.387675285	0.058524132	0.045240402	0.999999046	-0.00045681	-0.000246048	0.000534058	9.691882133	1.463103294	1.131010056	-0.022840502	-0.0123024	0.026702883	-0.912353516	0.483398438	0.01171875	891.58	52.09198175	-79.41110003	-155.5868308	-50
55529	0	0.384765625	0.058349609	0.045410156	0.999999046	-0.000587463	-0.000342369	0.000205994	9.619140625	1.458740234	1.135253906	-0.029373171	-0.017118455	0.010299683	-0.912353516	0.483398438	0.017578125	891.48	52.1409603	-79.44019431	-155.7071642	-50
55530	0	0.387137413	0.058017731	0.04258728	0.999999046	-0.000665665	-0.000576019	0.000227928	9.678435326	1.450443268	1.064682007	-0.033283238	-0.028800968	0.01139641	-0.915039063	0.485595703	0.020263672	891.58	52.28747362	-79.48769997	-155.9376103	-50
55531	0	0.387695313	0.055236816	0.039733887	0.999999046	-0.000221252	-0.000426292	0.00025177	9.692382813	1.38092041	0.993347168	-0.011062623	-0.021314622	0.012588502	-0.912597656	0.485595703	0.020263672	891.48	52.40450161	-79.52703421	-156.0839801	-50
55532	0	0.388185501	0.055937767	0.041440964	0.999999046	0.000100136	-0.000398636	0.000239372	9.704637527	1.398444176	1.036024094	0.00500679	-0.019931794	0.011968613	-0.912353516	0.483398438	0.020263672	891.62	52.5505538	-79.56339899	-156.2220472	-50
55533	0	0.388305664	0.056518555	0.044189453	0.999999046	0.000171661	-0.000285149	0.000244141	9.707641602	1.412963867	1.104736328	0.008583069	-0.014257431	0.012207032	-0.912353516	0.483398438	0.017578125	891.56	52.64722949	-79.59227342	-156.2957419	-50
55534	0	0.387687683	0.05616188	0.046145439	0.999999046	4.01E-05	-0.000640869	0.000427246	9.692192078	1.404047012	1.153635979	0.002002716	-0.03204346	0.021362307	-0.912353516	0.483398438	0.020263672	891.56	52.83646924	-79.66245521	-156.4824239	-50
55535	0	0.385498047	0.057250977	0.045227051	0.999999046	-0.000114441	-0.000727654	0.000343323	9.637451172	1.431274414	1.13067627	-0.005722047	-0.036382679	0.01716614	-0.912597656	0.485595703	0.023193359	891.5	53.08565497	-79.73072553	-156.7505499	-51
55536	0	0.385474205	0.054901123	0.041625977	0.999999046	0.000311852	-0.000593185	0.000113487	9.636855125	1.372528076	1.040649414	0.015592576	-0.029659274	0.005674363	-0.91015625	0.485595703	0.025878906	891.62	53.40554648	-79.76852159	-157.0443217	-50
55537	0	0.389770508	0.054870605	0.039001465	0.999999046	0.000823975	-0.000887871	4.58E-05	9.744262695	1.371765137	0.975036621	0.041198741	-0.04439355	0.002288819	-0.912597656	0.485595703	0.023193359	891.5	53.96387826	-79.81985915	-157.5141138	-50
55538	0	0.390331268	0.056606293	0.037969589	0.999999046	0.000961304	-0.000579834	0.000132561	9.758281708	1.415157318	0.949239731	0.048065196	-0.028991705	0.006628038	-0.912841797	0.487792969	0.028564453	891.52	54.35080221	-79.85802761	-157.8035429	-50
55539	0	0.390075684	0.055297852	0.040405273	0.999999046	0.000843048	-0.000449181	-1.91E-05	9.75189209	1.382446289	1.010131836	0.042152411	-0.022459034	-0.000953674	-0.91015625	0.485595703	0.025878906	891.58	54.7141248	-79.87312723	-158.0776258	-50
55540	0	0.387548447	0.055202484	0.043136597	0.999998093	0.001522064	-0.000563622	0.000185966	9.688711166	1.380062103	1.078414917	0.076103244	-0.028181089	0.009298329	-0.912597656	0.485595703	0.028808594	891.64	55.13991298	-79.91465309	-158.3433384	-50
55541	0	0.385742188	0.056091309	0.046081543	0.999998093	0.001374245	-0.000801086	4.58E-05	9.643554688	1.402282715	1.152038574	0.068712263	-0.040054338	0.002288819	-0.91015625	0.485595703	0.020019531	891.52	55.72769833	-79.95783431	-158.7726482	-50
55542	0	0.388924599	0.055922508	0.040299416	0.999998093	0.001423836	-0.000933647	0.000118256	9.723114967	1.398062706	1.00748539	0.071191822	-0.04668238	0.005912784	-0.912597656	0.485595703	0.020263672	891.56	56.37045286	-80.01559549	-159.2524789	-51
55543	0	0.391235352	0.05847168	0.036376953	0.999999046	0.001224518	-0.000555992	0.000148773	9.780883789	1.461791992	0.909423828	0.06122591	-0.027799615	0.007438662	-0.91015625	0.485595703	0.020019531	891.64	56.77969811	-80.05168889	-159.5181529	-50
55544	0	0.3897686	0.059607506	0.03738308	0.999999046	0.000685692	-0.000188828	-2.00E-05	9.744215012	1.490187645	0.934576988	0.034284595	-0.009441377	-0.001001358	-0.912597656	0.485595703	0.020263672	891.52	56.98841794	-80.04827031	-159.6445648	-50
55545	0	0.388977051	0.056030273	0.037353516	0.999999046	0.000469208	2.00E-05	-6.48E-05	9.72442627	1.400756836	0.933837891	0.023460389	0.001001358	-0.003242493	-0.912597656	0.485595703	0.023193359	891.52	57.0733587	-80.02753813	-159.6774198	-50
55546	0	0.388845444	0.056847572	0.037558556	0.999999046	0.000612259	0.000371933	-0.00011158	9.721136093	1.421189308	0.93896389	0.030612948	0.018596651	-0.005578995	-0.910400391	0.487792969	0.022705078	891.58	56.99884393	-79.98041473	-159.5322117	-50
55547	0	0.38873291	0.058349609	0.039428711	0.999999046	0.000423431	0.000489235	-3.81E-05	9.718322754	1.458740234	0.985717773	0.021171571	0.024461748	-0.001907349	-0.912597656	0.485595703	0.020263672	891.56	56.81397498	-79.93288949	-159.2956441	-50
55548	0	0.389484406	0.057861328	0.038172722	0.999999046	8.87E-05	0.000528336	-0.000100136	9.737110138	1.446533203	0.954318047	0.004434586	0.02641678	-0.00500679	-0.912353516	0.483398438	0.020263672	891.52	56.59359645	-79.87684597	-159.0646449	-50
55549	0	0.387451172	0.057800293	0.035583496	0.999999046	3.81E-05	0.000573158	-0.00012207	9.686279297	1.445007324	0.889587402	0.001907349	0.028657915	-0.006103516	-0.912597656	0.485595703	0.017333984	891.4	56.35438871	-79.81580595	-158.8158973	-50
55550	0	0.387576103	0.059545517	0.037792206	0.999999046	8.58E-05	0.000801086	5.34E-05	9.68940258	1.488637924	0.944805145	0.004291535	0.040054326	0.002670288	-0.912353516	0.483398438	0.014648438	891.58	55.94180415	-79.75665583	-158.3838723	-50
55551	0	0.385864258	0.058288574	0.039855957	0.999999046	-3.81E-06	0.000542641	8.39E-05	9.646606445	1.457214355	0.996398926	-0.000190735	0.027132036	0.004196167	-0.914794922	0.485595703	0.014404297	891.52	55.64723495	-79.71656513	-158.0834672	-51
55552	0	0.385705948	0.05797863	0.042531967	0.999999046	-1.81E-05	0.000461578	-5.82E-05	9.642648697	1.449465752	1.063299179	-0.000905991	0.023078919	-0.002908707	-0.914794922	0.485595703	0.017333984	891.62	55.4452426	-79.66800763	-157.88628	-50
55553	0	0.386291504	0.058349609	0.041809082	0.999999046	1.91E-05	0.000283241	-7.63E-05	9.657287598	1.458740234	1.045227051	0.000953674	0.014162064	-0.003814697	-0.914794922	0.483398438	0.017578125	891.58	55.34713775	-79.62921575	-157.7924688	-50
55554	0	0.386075974	0.058287621	0.040437698	0.999999046	0.000125885	-8.77E-05	-3.81E-06	9.651899338	1.457190514	1.010942459	0.006294251	-0.004386902	-0.000190735	-0.912109375	0.480957031	0.011962891	891.62	55.4267587	-79.62142282	-157.8559225	-51
55555	0	0.389221191	0.059631348	0.041015625	0.999999046	0.000305176	-0.00014019	0.000114441	9.730529785	1.490783691	1.025390625	0.015258789	-0.007009506	0.005722046	-0.912353516	0.483398438	0.014648438	891.52	55.51189642	-79.62815863	-157.9089517	-50
55556	0	0.3881464	0.059260368	0.039099693	0.999999046	9.82E-05	-6.68E-05	-2.67E-05	9.703660011	1.481509209	0.977492332	0.004911423	-0.00333786	-0.001335144	-0.914794922	0.485595703	0.014404297	891.5	55.58573555	-79.61681794	-157.9737246	-50
55557	0	0.38885498	0.057800293	0.040649414	1	4.77E-06	1.53E-05	-1.14E-05	9.721374512	1.445007324	1.016235352	0.000238419	0.000762939	-0.000572205	-0.912353516	0.483398438	0.017578125	891.52	55.60073142	-79.60165968	-157.9962596	-50
55558	0	0.388302803	0.057747841	0.041331291	0.999999046	0.000413895	8.39E-05	0.000171661	9.707570076	1.443696022	1.03328228	0.020694733	0.004196167	0.008583069	-0.912353516	0.483398438	0.014648438	891.58	55.56213696	-79.5994061	-157.9119697	-51
55559	0	0.387573242	0.057739258	0.042480469	0.999999046	0.000324249	-0.00014019	0.000205994	9.689331055	1.443481445	1.062011719	0.016212464	-0.007009506	0.010299683	-0.912353516	0.483398438	0.014648438	891.56	55.61588795	-79.61491648	-157.9322895	-50
55560	0	0.387242317	0.058278084	0.041966438	0.999999046	5.25E-05	-9.92E-05	4.58E-05	9.68105793	1.456952095	1.049160957	0.002622604	-0.004959106	0.002288818	-0.914550781	0.481201172	0.014892578	891.56	55.67342655	-79.61260142	-157.9894292	-50
55561	0	0.388916016	0.058410645	0.039489746	0.999999046	-5.72E-05	8.49E-05	7.25E-05	9.722900391	1.460266113	0.987243652	-0.002861023	0.004243851	0.003623962	-0.912353516	0.483398438	0.01171875	891.5	55.61407905	-79.600978	-157.9333814	-50
55562	0	0.389832497	0.057372093	0.039561272	0.999999046	0.000137329	0.000253677	-7.63E-06	9.745812416	1.43430233	0.989031792	0.006866455	0.012683869	-0.00038147	-0.912109375	0.480957031	0.009033203	891.62	55.51855546	-79.5709529	-157.8145694	-50
55563	0	0.38885498	0.057800293	0.04095459	0.999999046	-9.54E-05	5.82E-05	-0.000114441	9.721374512	1.445007324	1.023864746	-0.004768372	0.002908707	-0.005722046	-0.914550781	0.483398438	0.01171875	891.52	55.53426744	-79.54356375	-157.8410256	-50
55564	0	0.387371063	0.059467316	0.040582657	0.999999046	-0.000100136	0.000101089	6.10E-05	9.684276581	1.486682892	1.014566422	-0.00500679	0.005054474	0.003051758	-0.914550781	0.481201172	0.009033203	891.52	55.46586316	-79.52996049	-157.7781631	-50
55565	0	0.388427734	0.058105469	0.040161133	0.999999046	-9.16E-05	0.0001688	0.000144958	9.710693359	1.452636719	1.00402832	-0.004577637	0.008440018	0.007247925	-0.914550781	0.483398438	0.01171875	891.52	55.33449388	-79.51992802	-157.6555845	-50
55566	0	0.386599541	0.05981636	0.041949272	0.999999046	-0.00018692	0.000183105	7.92E-05	9.664988518	1.495409012	1.048731804	-0.009346008	0.009155274	0.003957748	-0.914550781	0.481201172	0.006103516	891.52	55.20825357	-79.50265923	-157.5393159	-50
55567	0	0.387329102	0.059814453	0.041748047	0.999999046	-0.000576019	5.05E-05	0.000114441	9.683227539	1.495361328	1.043701172	-0.028800966	0.002527237	0.005722046	-0.912109375	0.480957031	0.009033203	891.58	55.09247052	-79.49731079	-157.4839426	-51
55568	0	0.386910439	0.059188843	0.04203701	0.999999046	-0.000412941	-1.91E-05	5.63E-05	9.672760963	1.479721069	1.050925255	-0.02064705	-0.000953674	0.002813339	-0.914550781	0.483398438	0.009033203	891.64	55.05111027	-79.49103124	-157.4841808	-50
55569	0	0.388305664	0.058959961	0.040771484	0.999999046	-0.000514984	-0.000182152	0.000175476	9.707641602	1.473999023	1.019287109	-0.025749208	-0.00910759	0.008773804	-0.914794922	0.483398438	0.017578125	891.58	55.03856936	-79.50669304	-157.5412606	-50
55570	0	0.387486458	0.060673714	0.0403862	0.999999046	-0.000230789	-0.000154495	0.000136375	9.687161446	1.516842842	1.009654999	-0.011539459	-0.007724762	0.006818771	-0.912353516	0.483398438	0.017578125	891.58	55.05894988	-79.51683305	-157.5972461	-51
55571	0	0.387084961	0.060058594	0.042785645	0.999999046	-0.00025177	3.91E-05	0.000183105	9.677124023	1.501464844	1.069641113	-0.012588501	0.001955032	0.009155274	-0.914794922	0.483398438	0.014648438	891.58	54.96187938	-79.51856264	-157.5305005	-50
55572	0	0.387469292	0.061175346	0.043883324	0.999999046	-0.000430107	4.96E-05	-4.77E-06	9.686732292	1.529383659	1.097083092	-0.021505357	0.002479553	-0.000238419	-0.912353516	0.483398438	0.01171875	891.44	54.90565345	-79.50181002	-157.519241	-51
55573	0	0.387878418	0.061218262	0.042724609	0.999999046	-0.000621796	6.20E-05	0	9.696960449	1.530456543	1.068115234	-0.031089785	0.003099442	0	-0.914794922	0.481201172	0.017822266	891.58	54.81967056	-79.48457398	-157.5124539	-50
55574	0	0.387628555	0.060189247	0.041992188	0.999999046	-0.000356674	6.29E-05	0.00012207	9.690713882	1.504731178	1.049804688	-0.01783371	0.003147125	0.006103516	-0.914550781	0.479003906	0.015136719	891.58	54.72037426	-79.47865808	-157.4561462	-50
55575	0	0.386230469	0.059875488	0.04309082	0.999999046	-0.000347137	-0.000124931	6.87E-05	9.655761719	1.496887207	1.077270508	-0.017356873	-0.006246567	0.003433228	-0.912353516	0.481201172	0.017578125	891.56	54.735696	-79.48010077	-157.5179741	-50
55576	0	0.386797905	0.058753967	0.043460846	0.999999046	-0.000378609	-4.20E-05	-3.43E-05	9.669947624	1.468849182	1.086521149	-0.018930436	-0.002098084	-0.001716614	-0.912353516	0.481201172	0.017578125	891.46	54.74181965	-79.46638847	-157.5731655	-50
55577	0	0.388061523	0.058898926	0.041870117	0.999999046	-4.96E-05	0.000164986	-7.25E-05	9.701538086	1.472473145	1.04675293	-0.002479553	0.008249283	-0.003623962	-0.912353516	0.481201172	0.020507813	891.62	54.69511182	-79.43544296	-157.5424851	-50
55578	0	0.388586998	0.057973862	0.044322014	0.999999046	-4.58E-05	-0.00028801	5.63E-05	9.71467495	1.449346542	1.108050346	-0.002288818	-0.014400482	0.002813339	-0.914550781	0.479003906	0.018066406	891.52	54.82980157	-79.44651594	-157.6909313	-50
55579	0	0.388305664	0.059692383	0.042236328	0.999999046	-5.72E-05	-0.000243187	0.00030899	9.707641602	1.49230957	1.055908203	-0.002861023	-0.012159348	0.015449524	-0.914794922	0.481201172	0.017822266	891.52	54.85131592	-79.47826669	-157.723567	-51
55580	0	0.386651993	0.057800293	0.040588379	0.999999046	4.48E-05	-4.01E-05	-2.38E-05	9.66629982	1.445007324	1.014709473	0.002241135	-0.002002716	-0.001192093	-0.912353516	0.481201172	0.020507813	891.46	54.9003383	-79.46551938	-157.7771276	-50
55581	0	0.388366699	0.059631348	0.041137695	0.999999046	3.43E-05	-8.68E-05	0.000137329	9.70916748	1.490783691	1.028442383	0.001716614	-0.004339218	0.006866455	-0.914794922	0.481201172	0.023681641	891.62	54.91475997	-79.47097731	-157.8031353	-50
55582	0	0.390708923	0.060380936	0.0400877	0.999999046	4.58E-05	1.72E-05	0.000128746	9.767723083	1.509523392	1.002192497	0.002288818	0.000858307	0.006437302	-0.914794922	0.481201172	0.020751953	891.5	54.88165282	-79.46882176	-157.7736313	-50
55583	0	0.387329102	0.059326172	0.044311523	0.999999046	-0.000263214	0.000187874	0.000190735	9.683227539	1.483154297	1.107788086	-0.013160706	0.009393692	0.009536743	-0.912353516	0.481201172	0.017578125	891.52	54.70462492	-79.46111069	-157.6272742	-50
55584	0	0.387272835	0.058177948	0.044730186	0.999999046	-0.000613213	0.00018692	0.000102043	9.681820869	1.4544487	1.118254662	-0.030660631	0.009346009	0.005102158	-0.912353516	0.483398438	0.014648438	891.56	54.5190896	-79.44506146	-157.5060755	-51
55585	0	0.387939453	0.057495117	0.043762207	0.999999046	-0.000576019	0.000229836	0.0001297	9.698486328	1.43737793	1.094055176	-0.028800966	0.011491776	0.006484986	-0.912353516	0.481201172	0.017578125	891.58	54.30636155	-79.42869046	-157.3594501	-51
55586	0	0.386347771	0.059724808	0.04364109	0.999999046	-0.000431061	0.000183105	4.58E-05	9.658694267	1.493120193	1.09102726	-0.02155304	0.009155274	0.002288818	-0.912353516	0.481201172	0.014648438	891.58	54.16400665	-79.40750269	-157.2615838	-50
55587	0	0.38671875	0.059509277	0.042114258	0.999999046	-0.000534058	6.58E-05	3.81E-06	9.66796875	1.487731934	1.052856445	-0.026702882	0.003290177	0.000190735	-0.914550781	0.479003906	0.020751953	891.56	54.08373066	-79.39026657	-157.2514783	-50
55588	0	0.387506485	0.059218407	0.040822983	0.999999046	-0.000559807	0.000179291	-6.87E-05	9.687662125	1.480460167	1.02057457	-0.027990343	0.008964539	-0.003433228	-0.914550781	0.479003906	0.015136719	891.5	53.97110568	-79.35873452	-157.1996901	-50
55589	0	0.386169434	0.058959961	0.042602539	0.999999046	-0.000659943	-0.000315666	-3.05E-05	9.65423584	1.473999023	1.065063477	-0.032997134	-0.015783311	-0.001525879	-0.912353516	0.481201172	0.014648438	891.58	54.07784714	-79.36408145	-157.378321	-50
55590	0	0.387411118	0.057893753	0.039442062	0.999999046	-0.00079155	-0.000259399	-8.39E-05	9.685277939	1.447343826	0.986051559	-0.039577489	-0.012969972	-0.004196167	-0.914794922	0.481201172	0.020751953	891.58	54.1614405	-79.36079919	-157.5589048	-50
55591	0	0.388122559	0.060180664	0.039855957	0.999999046	-0.000782013	-0.000239372	1.14E-05	9.703063965	1.504516602	0.996398926	-0.039100651	-0.011968614	0.000572205	-0.912353516	0.479003906	0.023681641	891.58	54.20297285	-79.36506474	-157.6994169	-50
55592	0	0.388631821	0.05809021	0.042811394	0.999999046	-0.0010252	-0.000265121	0.000148773	9.715795517	1.452255249	1.070284843	-0.051260004	-0.013256076	0.007438661	-0.914794922	0.481201172	0.026367188	891.58	54.18025112	-79.3838801	-157.804896	-50
55593	0	0.388061523	0.058166504	0.041809082	0.999999046	-0.000652313	-0.000193596	4.58E-05	9.701538086	1.454162598	1.045227051	-0.032615664	-0.009679795	0.002288819	-0.914794922	0.481201172	0.020751953	891.58	54.20177991	-79.38840898	-157.8987262	-50
55594	0	0.38838768	0.057648659	0.041488647	0.999999046	-0.000776291	-0.000198364	4.20E-05	9.709692001	1.441216469	1.037216187	-0.038814549	-0.009918214	0.002098084	-0.914794922	0.479003906	0.026611328	891.5	54.2129012	-79.39300417	-158.0068285	-50
55595	0	0.388549805	0.058654785	0.04309082	0.999999046	-0.000587463	-0.000224113	9.92E-05	9.713745117	1.466369629	1.077270508	-0.029373171	-0.011205674	0.004959107	-0.917236328	0.479248047	0.029541016	891.58	54.23787548	-79.40465502	-158.1111714	-50
55596	0	0.387785912	0.057795525	0.042251587	0.999999046	-0.000447273	-0.000185013	7.53E-05	9.694647789	1.444888115	1.056289673	-0.022363664	-0.009250641	0.003767014	-0.912353516	0.481201172	0.026367188	891.5	54.26797952	-79.41152897	-158.1949409	-50
55597	0	0.389526367	0.056884766	0.040100098	0.999999046	-0.000434875	-0.000132561	4.20E-05	9.73815918	1.422119141	1.002502441	-0.021743775	-0.006628037	0.002098084	-0.914794922	0.479003906	0.026611328	891.5	54.28558562	-79.41195882	-158.2650065	-51
55598	0	0.38722229	0.058463097	0.041511536	0.999999046	-0.000255585	-5.91E-05	0.000202179	9.680557251	1.461577415	1.037788391	-0.012779236	-0.00295639	0.010108948	-0.914794922	0.481201172	0.026367188	891.5	54.22993681	-79.42242488	-158.2377795	-50
55599	0	0.389099121	0.059143066	0.043334961	0.999999046	-0.000305176	3.91E-05	0.000217438	9.727478027	1.47857666	1.083374023	-0.015258789	0.001955032	0.010871887	-0.914794922	0.479003906	0.032470703	891.56	54.11397708	-79.42768869	-158.1677249	-50
55600	0	0.387473106	0.05815506	0.042240143	0.999999046	-0.000439644	-0.000164032	0.000109673	9.68682766	1.453876495	1.056003571	-0.021982194	-0.008201599	0.005483628	-0.914794922	0.479003906	0.029541016	891.56	54.12238184	-79.43661046	-158.2325035	-50
55601	0	0.388977051	0.057495117	0.039611816	0.999999046	-0.000232697	-0.000235558	7.63E-05	9.72442627	1.43737793	0.99029541	-0.011634827	-0.011777878	0.003814697	-0.914794922	0.479003906	0.035400391	891.52	54.20271252	-79.44736651	-158.356609	-50
55602	0	0.389920235	0.059002876	0.040308952	0.999999046	-0.000148773	7.44E-05	0.000156403	9.748005867	1.475071907	1.007723808	-0.00743866	0.00371933	0.007820129	-0.914794922	0.479003906	0.032470703	891.54	54.10981444	-79.4448352	-158.2887441	-50
55603	0	0.387878418	0.057678223	0.041564941	0.999999046	2.29E-05	8.11E-05	4.20E-05	9.696960449	1.441955566	1.039123535	0.001144409	0.004053116	0.002098083	-0.912597656	0.481201172	0.032226563	891.56	54.07460592	-79.43128154	-158.2580599	-50
55604	0	0.386960983	0.058989525	0.04199028	0.999999046	-0.000161171	-4.20E-05	0.000155449	9.674024582	1.474738121	1.049757004	-0.008058548	-0.002098084	0.007772446	-0.912353516	0.479003906	0.023681641	891.62	54.03877662	-79.43652202	-158.2316526	-50
55605	0	0.387817383	0.058227539	0.04119873	0.999999046	-8.39E-05	-0.000105858	7.63E-05	9.69543457	1.455688477	1.029968262	-0.004196167	-0.005292892	0.003814697	-0.914794922	0.479003906	0.029541016	891.54	54.07235217	-79.43876809	-158.2785547	-50
55606	0	0.389238358	0.05919838	0.039904594	0.999999046	4.58E-05	7.82E-05	0.000106812	9.730958939	1.479959488	0.997614861	0.002288818	0.003910065	0.005340576	-0.914794922	0.479003906	0.026611328	891.5	54.0188699	-79.43152584	-158.2163797	-51
55607	0	0.387207031	0.059875488	0.041442871	0.999999046	0.000118256	0.000210762	0.000183105	9.680175781	1.496887207	1.036071777	0.005912781	0.010538101	0.009155274	-0.914794922	0.479003906	0.029541016	891.5	53.88085374	-79.42236621	-158.0667787	-50
55608	0	0.385378838	0.057912827	0.04323864	0.999999046	4.86E-05	1.14E-05	0.000152588	9.63447094	1.447820663	1.080965996	0.00243187	0.000572205	0.007629395	-0.917236328	0.479003906	0.026855469	891.54	53.8445449	-79.42379535	-158.0240222	-50
55609	0	0.387145996	0.058349609	0.043945313	0.999999046	6.48E-05	6.58E-05	1.53E-05	9.678649902	1.458740234	1.098632813	0.003242493	0.003290176	0.000762939	-0.912353516	0.476806641	0.029541016	891.52	53.83255677	-79.40880317	-158.0099693	-51
55610	0	0.386226654	0.059990883	0.042156219	0.999999046	0.000364304	-5.72E-06	-7.63E-06	9.655666351	1.499772072	1.053905487	0.01821518	-0.000286102	-0.00038147	-0.912597656	0.479003906	0.032226563	891.54	53.89885508	-79.39647407	-158.0457117	-51
55611	0	0.387084961	0.058776855	0.041625977	0.999999046	0.000541687	-0.00039196	-0.000160217	9.677124023	1.469421387	1.040649414	0.027084353	-0.019598009	-0.008010865	-0.915039063	0.477050781	0.032714844	891.52	54.23169493	-79.39596978	-158.3333632	-50
55612	0	0.388073921	0.059921265	0.040584564	0.999999046	0.000706673	-0.000232697	-3.53E-05	9.70184803	1.498031616	1.014614105	0.035333637	-0.011634828	-0.001764298	-0.915283203	0.481445313	0.03515625	891.52	54.46016393	-79.39622745	-158.4989721	-51
55613	0	0.386352539	0.059692383	0.0390625	0.999999046	0.000686646	-7.53E-05	0.00018692	9.658813477	1.49230957	0.9765625	0.034332278	-0.003767014	0.009346009	-0.915039063	0.481445313	0.026367188	891.46	54.52967522	-79.40672553	-158.4885989	-51
55614	0	0.387417793	0.058812141	0.042523384	0.999999046	0.000659943	-6.29E-05	0.000170708	9.685444832	1.470303535	1.063084602	0.032997134	-0.003147125	0.008535386	-0.915039063	0.479248047	0.029541016	891.62	54.59553124	-79.41488242	-158.4860178	-51
55615	0	0.38885498	0.05847168	0.040710449	0.999999046	0.000732422	-7.92E-05	0.0001297	9.721374512	1.461791992	1.01776123	0.036621097	-0.003957749	0.006484986	-0.912597656	0.479003906	0.029296875	891.52	54.69252515	-79.42035639	-158.5069923	-51
55616	0	0.388021469	0.058857918	0.040988922	0.999999046	0.000668526	1.14E-05	0.000208855	9.700536728	1.471447945	1.024723053	0.033426288	0.000572205	0.010442735	-0.915039063	0.477050781	0.029785156	891.5	54.70885646	-79.42726809	-158.4568282	-51
55617	0	0.387084961	0.059997559	0.040649414	0.999999046	0.000663757	-4.48E-05	7.63E-05	9.677124023	1.499938965	1.016235352	0.033187869	-0.002241135	0.003814698	-0.917480469	0.481445313	0.029541016	891.52	54.8001557	-79.42549332	-158.4826458	-51
55618	0	0.387219429	0.059746742	0.040167809	0.999999046	0.000518799	-1.91E-05	6.39E-05	9.680485725	1.493668556	1.004195213	0.025939943	-0.000953674	0.003194809	-0.915039063	0.479248047	0.029541016	891.46	54.86664184	-79.42086773	-158.5013537	-51
55619	0	0.388305664	0.060424805	0.041992188	0.999999046	0.000312805	0.000103951	3.81E-06	9.707641602	1.510620117	1.049804688	0.015640259	0.005197525	0.000190735	-0.915039063	0.479248047	0.026611328	891.62	54.8690308	-79.40244389	-158.4738056	-50
55620	0	0.387076378	0.060447693	0.042704582	0.999999046	9.82E-05	-7.63E-06	0.000114441	9.676909447	1.511192322	1.067614555	0.004911423	-0.00038147	0.005722046	-0.912597656	0.479003906	0.029296875	891.46	54.86361525	-79.40166514	-158.4685269	-51
55621	0	0.388244629	0.058532715	0.040466309	0.999999046	-6.48E-05	-3.34E-05	-8.01E-05	9.706115723	1.463317871	1.011657715	-0.003242493	-0.00166893	-0.004005432	-0.917236328	0.479248047	0.020996094	891.52	54.92093959	-79.38442401	-158.5296792	-50
55622	0	0.389884949	0.060482025	0.039958954	0.999999046	1.34E-05	0.000207901	2.29E-05	9.747123718	1.512050629	0.998973846	0.000667572	0.01039505	0.001144409	-0.914794922	0.476806641	0.023925781	891.54	54.83087595	-79.36096191	-158.4390217	-51
55623	0	0.388000488	0.060424805	0.039672852	0.999999046	6.87E-05	0.000382423	4.20E-05	9.700012207	1.510620117	0.991821289	0.003433228	0.019121171	0.002098084	-0.914794922	0.474609375	0.027099609	891.52	54.65472187	-79.3277316	-158.2629614	-51
55624	0	0.384859085	0.059848785	0.043192863	0.999999046	0.000109673	0.000188828	6.48E-05	9.621477127	1.496219635	1.079821587	0.005483627	0.009441376	0.003242493	-0.912597656	0.479003906	0.026611328	891.54	54.57165656	-79.30934332	-158.1745812	-50
55625	0	0.38659668	0.061218262	0.044006348	0.999999046	-0.000133514	-6.68E-06	5.34E-05	9.664916992	1.530456543	1.100158691	-0.00667572	-0.000333786	0.002670288	-0.914794922	0.477050781	0.026855469	891.54	54.56138097	-79.30273952	-158.1898156	-51
55626	0	0.387885094	0.06140995	0.04041481	0.999999046	-0.000185013	7.63E-06	-6.87E-05	9.697127342	1.535248756	1.010370255	-0.009250641	0.00038147	-0.003433228	-0.914794922	0.476806641	0.020996094	891.48	54.58163188	-79.2837809	-158.2299346	-51
55627	0	0.389465332	0.060913086	0.041381836	0.999999046	-0.000148773	-8.68E-05	3.81E-06	9.736633301	1.522827148	1.034545898	-0.00743866	-0.004339218	0.000190735	-0.915039063	0.479248047	0.026611328	891.54	54.62740437	-79.27786013	-158.3015468	-51
55628	0	0.387336731	0.060957909	0.041941643	0.999999046	-0.000315666	-0.000150681	0.000133514	9.683418274	1.523947716	1.048541069	-0.01578331	-0.007534027	0.00667572	-0.914794922	0.476806641	0.023925781	891.46	54.6403038	-79.28826161	-158.3535134	-51
55629	0	0.38671875	0.060424805	0.041564941	0.999999046	3.43E-05	-0.000102043	0.000144958	9.66796875	1.510620117	1.039123535	0.001716614	-0.005102158	0.007247925	-0.917236328	0.477050781	0.026855469	891.5	54.66547124	-79.29649883	-158.3830612	-51
55630	0	0.387476921	0.060925484	0.04178524	0.999999046	0.000125885	9.35E-05	0.000105858	9.686923027	1.523137093	1.044631004	0.006294251	0.004673004	0.005292892	-0.914794922	0.476806641	0.020996094	891.46	54.61837536	-79.28809175	-158.3169151	-51
55631	0	0.388183594	0.061889648	0.041870117	0.999999046	0.000164032	0.000218391	0.000232697	9.704589844	1.547241211	1.04675293	0.008201599	0.010919571	0.011634827	-0.914794922	0.476806641	0.020996094	891.54	54.46988821	-79.28314183	-158.1445041	-51
55632	0	0.387887955	0.060502052	0.042872429	0.999999046	2.38E-05	0.000171661	0.000159264	9.697198868	1.512551308	1.071810722	0.001192093	0.008583069	0.007963181	-0.917236328	0.479248047	0.020996094	891.52	54.35428467	-79.27436215	-158.0222228	-51
55633	0	0.38848877	0.060852051	0.04095459	0.999999046	0.000225067	4.29E-05	0.000183105	9.712219238	1.52130127	1.023864746	0.011253357	0.002145767	0.009155274	-0.914794922	0.479003906	0.018066406	891.54	54.31715311	-79.27639536	-157.9509628	-51
55634	0	0.387103081	0.060790062	0.042424202	0.999999046	0.000114441	0.000263214	0.000235558	9.677577019	1.519751549	1.060605049	0.005722046	0.013160706	0.011777878	-0.914794922	0.476806641	0.020996094	891.5	54.14078828	-79.26849281	-157.7591214	-51
55635	0	0.386779785	0.060668945	0.041625977	0.999999046	-0.000106812	0.000191689	0.000270844	9.669494629	1.516723633	1.040649414	-0.005340576	0.009584427	0.013542176	-0.914794922	0.479003906	0.020751953	891.54	53.96207638	-79.26856001	-157.5900546	-51
55636	0	0.386978149	0.058801651	0.042334557	0.999999046	0.000109673	9.73E-05	0.00018692	9.674453735	1.470041275	1.058363914	0.005483627	0.004863739	0.009346008	-0.915039063	0.479248047	0.023681641	891.56	53.8841166	-79.26720661	-157.5048068	-51
55637	0	0.387939453	0.058044434	0.04296875	0.999999046	8.77E-05	0.000126839	0.000133514	9.698486328	1.45111084	1.07421875	0.004386902	0.006341934	0.00667572	-0.914794922	0.476806641	0.020996094	891.5	53.80799315	-79.25896239	-157.4201367	-51
55638	0	0.389104843	0.060754776	0.039515495	0.999999046	-0.000291824	0.000160217	0.000277519	9.727621078	1.5188694	0.987887383	-0.014591217	0.008010865	0.013875962	-0.914794922	0.476806641	0.020996094	891.52	53.62166831	-79.26179574	-157.2677396	-51
55639	0	0.388000488	0.060913086	0.03918457	0.999999046	-0.000270844	-1.05E-05	0.000385284	9.700012207	1.522827148	0.979614258	-0.013542176	-0.000524521	0.019264222	-0.915039063	0.479248047	0.023681641	891.52	53.4829079	-79.28616843	-157.165443	-51
55640	0	0.387802124	0.059187889	0.041404724	0.999999046	-0.000292778	8.96E-05	0.000473022	9.695053101	1.479697227	1.035118103	-0.014638902	0.00448227	0.023651124	-0.914794922	0.481201172	0.017822266	891.62	53.26080861	-79.31175862	-156.9683666	-51
55641	0	0.387023926	0.06048584	0.042358398	0.999999046	-0.00044632	0.000267982	0.000263214	9.675598145	1.512145996	1.058959961	-0.02231598	0.013399125	0.013160706	-0.915039063	0.481445313	0.023681641	891.48	53.01056565	-79.30566658	-156.7726508	-50
55642	0	0.387886047	0.058533669	0.04335022	0.999999046	-0.000383377	5.53E-05	0.000308037	9.697151184	1.463341713	1.083755493	-0.019168855	0.002765656	0.015401841	-0.915039063	0.481445313	0.023681641	891.52	52.85413823	-79.3182487	-156.6646382	-51
55643	0	0.386230469	0.057556152	0.042419434	0.999999046	3.43E-05	0.000138283	0.000205994	9.655761719	1.438903809	1.06048584	0.001716614	0.006914139	0.010299683	-0.915039063	0.481445313	0.020751953	891.52	52.74271947	-79.3157856	-156.5484627	-50
55644	0	0.386486053	0.057094574	0.043314934	0.999999046	-0.00020504	0.000102997	5.25E-05	9.662151337	1.427364349	1.082873344	-0.010251999	0.005149841	0.002622604	-0.915039063	0.481445313	0.023681641	891.52	52.67726846	-79.30179978	-156.5128193	-50
55645	0	0.390258789	0.058532715	0.040405273	0.999999046	-0.000133514	9.25E-05	0.000110626	9.756469727	1.463317871	1.010131836	-0.00667572	0.00462532	0.005531311	-0.915039063	0.479248047	0.023681641	891.54	52.60448164	-79.29396131	-156.4622272	-50
55646	0	0.389836311	0.056908607	0.041589737	0.999999046	0.000106812	0.00041008	8.77E-05	9.745907784	1.422715187	1.039743423	0.005340576	0.020503998	0.004386902	-0.915039063	0.483642578	0.020507813	891.54	52.41552961	-79.26202233	-156.2588703	-50
55647	0	0.389160156	0.057128906	0.043212891	0.999999046	0.00012207	0.000657082	0.000152588	9.729003906	1.428222656	1.080322266	0.006103516	0.032854083	0.007629395	-0.914794922	0.481201172	0.017822266	891.52	52.08799259	-79.21855829	-155.9109169	-50
55648	0	0.387408257	0.056105614	0.045782089	0.999999046	7.34E-05	0.000679016	0.000136375	9.685206413	1.402640343	1.144552231	0.003671646	0.033950808	0.006818772	-0.915039063	0.481445313	0.020751953	891.54	51.75259733	-79.17176236	-155.5691239	-50
55649	0	0.387634277	0.056640625	0.044616699	0.999999046	-9.16E-05	0.00067234	4.96E-05	9.690856934	1.416015625	1.11541748	-0.004577637	0.033617022	0.002479553	-0.915039063	0.483642578	0.017578125	891.58	51.43643579	-79.11736344	-155.2610253	-50
55650	0	0.389169693	0.058241844	0.042708397	0.999999046	-0.000137329	0.000869751	4.86E-05	9.729242325	1.456046104	1.067709923	-0.006866456	0.043487554	0.00243187	-0.917480469	0.483642578	0.017822266	891.52	51.02804058	-79.04846043	-154.8680319	-51
55651	0	0.388366699	0.05847168	0.043212891	0.999999046	-0.000377655	0.000950813	0.000114441	9.70916748	1.461791992	1.080322266	-0.018882755	0.047540673	0.005722047	-0.914794922	0.481201172	0.017822266	891.56	50.53640634	-78.97903906	-154.4213176	-50
55652	0	0.387928009	0.057372093	0.045274734	0.999999046	-0.000622749	0.001161575	0.000266075	9.698200226	1.43430233	1.131868362	-0.031137476	0.058078783	0.013303761	-0.914794922	0.481201172	0.009033203	891.54	49.87150154	-78.90673583	-153.8120779	-50
55653	0	0.388977051	0.058532715	0.044799805	0.999998093	-0.00070858	0.0014534	6.48E-05	9.72442627	1.463317871	1.119995117	-0.035429016	0.072670015	0.003242494	-0.914794922	0.483398438	0.009033203	891.58	49.15384895	-78.79389468	-153.1620325	-50
55654	0	0.386903763	0.058908463	0.044421196	0.999998093	-0.000918388	0.001072884	-7.72E-05	9.67259407	1.472711563	1.1105299	-0.045919434	0.053644198	-0.003862382	-0.917236328	0.481445313	0.012207031	891.62	48.64428146	-78.69623384	-152.7580187	-50
55655	0	0.38873291	0.057189941	0.039123535	0.999998093	-0.001383781	0.001110077	-0.000190735	9.718322754	1.429748535	0.978088379	-0.069189108	0.055503875	-0.009536748	-0.912353516	0.481201172	0.011962891	891.62	48.1186036	-78.58570685	-152.3913213	-50
55656	0	0.389661789	0.057413101	0.039536476	0.999997139	-0.001252174	0.001626968	-0.000141144	9.741544724	1.43532753	0.988411903	-0.062608763	0.081348477	-0.007057195	-0.916992188	0.479003906	0.006591797	891.52	47.38559134	-78.43918654	-151.7917675	-50
55657	0	0.388427734	0.059692383	0.042480469	0.999997139	-0.001346588	0.001812935	0.000152588	9.710693359	1.49230957	1.062011719	-0.067329464	0.090646821	0.007629401	-0.916992188	0.479003906	0.006591797	891.54	46.4740418	-78.3012769	-151.0246295	-50
55658	0	0.387070656	0.058177948	0.043063164	0.999996185	-0.001730919	0.001774788	-6.58E-05	9.676766396	1.4544487	1.076579094	-0.086546033	0.088739486	-0.00329018	-0.916748047	0.479003906	-0.002197266	891.62	45.63848596	-78.14636822	-150.3649992	-50
55659	0	0.388671875	0.056030273	0.042602539	0.999996185	-0.001952171	0.001918793	-0.000175476	9.716796875	1.400756836	1.065063477	-0.097608689	0.095939757	-0.008773815	-0.914550781	0.479003906	0.003417969	891.54	44.78572602	-77.9694764	-149.7269607	-51
55660	0	0.389105797	0.057044983	0.041510582	0.999996185	-0.001844406	0.001908302	-0.000167847	9.72764492	1.426124573	1.037764549	-0.092220415	0.095415228	-0.008392344	-0.916992188	0.481201172	0.000488281	891.54	43.97008236	-77.7926999	-149.1105049	-50
55661	0	0.388244629	0.057434082	0.041870117	0.999995232	-0.001831055	0.002369881	-0.000209808	9.706115723	1.435852051	1.04675293	-0.091552872	0.118494212	-0.010490433	-0.919189453	0.476806641	-0.001953125	891.48	43.03009897	-77.57285863	-148.3670365	-49
55662	0	0.387051582	0.05598259	0.041589737	0.999994278	-0.001936913	0.002430916	-0.000248909	9.676289558	1.399564743	1.039743423	-0.096845784	0.121545989	-0.01244547	-0.916748047	0.476806641	-0.004882813	891.54	42.10362686	-77.34296428	-147.647282	-49
55663	0	0.388000488	0.054931641	0.042480469	0.999994278	-0.00178051	0.00271225	-9.54E-05	9.700012207	1.373291016	1.062011719	-0.089025654	0.135612726	-0.00476838	-0.916503906	0.474609375	-0.007568359	891.54	41.0758126	-77.09877504	-146.8062146	-49
55664	0	0.386720657	0.056013107	0.043740273	0.999994278	-0.001331329	0.003041267	-0.000185966	9.668016434	1.400327682	1.093506813	-0.06656659	0.15206365	-0.009298342	-0.921386719	0.476806641	-0.007568359	891.52	40.06611352	-76.81666841	-145.9381653	-50
55665	0	0.38671875	0.05657959	0.043457031	0.999993324	-0.001422882	0.003193855	-0.000270844	9.66796875	1.414489746	1.086425781	-0.07114425	0.159693092	-0.013542203	-0.921142578	0.474609375	-0.010253906	891.52	39.07370231	-76.512302	-145.101259	-49
55666	0	0.385754585	0.056243896	0.04229641	0.999992371	-0.001198769	0.003645897	-0.000189781	9.643864632	1.406097412	1.05741024	-0.059938578	0.182295294	-0.009489083	-0.918701172	0.474365234	-0.024902344	891.52	37.99037333	-76.17066601	-144.1237014	-50
55667	0	0.385742188	0.056396484	0.041625977	0.999990463	-0.001070976	0.004135132	-0.000198364	9.643554688	1.409912109	1.040649414	-0.053548976	0.206757222	-0.009918243	-0.918701172	0.474609375	-0.021972656	891.54	36.84402512	-75.7806053	-143.0825605	-51
55668	0	0.384362221	0.055855751	0.040287018	0.999988556	-0.000940323	0.004574776	-0.000216484	9.609055519	1.396393776	1.007175446	-0.047016315	0.228739618	-0.010824243	-0.920898438	0.474609375	-0.030517578	891.52	35.66816545	-75.34487249	-141.9911881	-51
55669	0	0.386535645	0.057373047	0.041564941	0.999984741	-0.000823021	0.00535202	-0.000320435	9.663391113	1.434326172	1.039123535	-0.041151249	0.267602326	-0.016021807	-0.920654297	0.472167969	-0.041992188	891.44	34.42436074	-74.8250212	-140.8083865	-51
55670	0	0.383605957	0.057366371	0.044241905	0.999982834	-0.000893593	0.005764961	-0.000309944	9.590148926	1.434159279	1.10604763	-0.044679896	0.288249702	-0.015497296	-0.920410156	0.472167969	-0.053466797	891.48	33.16059837	-74.26130882	-139.6056135	-51
55671	0	0.380187988	0.05657959	0.046264648	0.999979973	-0.00113678	0.00615406	-0.000480652	9.504699707	1.414489746	1.156616211	-0.056839362	0.307705039	-0.024032751	-0.920410156	0.472167969	-0.056396484	891.54	31.93379555	-73.64407925	-138.4802547	-51
55672	0	0.375478745	0.059277534	0.048093796	0.999977112	-0.000482559	0.006661415	-0.000499725	9.386968613	1.481938362	1.202344894	-0.024128141	0.333073245	-0.024986454	-0.920166016	0.471923828	-0.067871094	891.58	30.77847443	-72.97105794	-137.3466226	-51
55673	0	0.372802734	0.058349609	0.049316406	0.999977112	-0.000254631	0.006660461	-0.00050354	9.320068359	1.458740234	1.232910156	-0.012731647	0.333025551	-0.025177189	-0.919677734	0.469726563	-0.085205078	891.54	29.74059651	-72.29329509	-136.2930917	-51
55674	0	0.37597847	0.056812286	0.048437119	0.999972343	0.000986099	0.007259369	-0.000507355	9.399461746	1.420307159	1.210927963	0.049305405	0.362971707	-0.025367965	-0.919433594	0.469482422	-0.096679688	891.54	28.82395447	-71.55208067	-135.2176549	-51
55675	0	0.375061035	0.062683105	0.048828125	0.999966621	0.001285553	0.008000374	-0.000118256	9.376525879	1.567077637	1.220703125	0.064278352	0.400023071	-0.005912845	-0.921630859	0.467285156	-0.104980469	891.54	27.7943839	-70.75361539	-133.9992443	-50
55676	0	0.36948967	0.064545631	0.052565575	0.999960899	0.000384331	0.008747101	-0.000390053	9.237241745	1.613640785	1.314139366	0.019216783	0.437360641	-0.019502889	-0.918945313	0.467041016	-0.125488281	891.52	26.72852764	-69.85952411	-132.8342719	-50
55677	0	0.366271973	0.059753418	0.051574707	0.999954224	0.000309944	0.009456635	-0.000659943	9.156799316	1.493835449	1.289367676	0.01549744	0.472838816	-0.032997626	-0.918457031	0.464599609	-0.145507813	891.54	25.73328421	-68.87409237	-131.7414488	-50
55678	0	0.360861778	0.057516098	0.05629921	0.99994278	0.001477242	0.010525703	-0.000397682	9.021544456	1.437902451	1.40748024	0.073863469	0.526295095	-0.019884484	-0.915771484	0.462158203	-0.159912109	891.54	24.77082685	-67.78647708	-130.5451932	-50
55679	0	0.35723877	0.057128906	0.05657959	0.999934196	0.001438141	0.011330605	-0.000358582	8.930969238	1.428222656	1.414489746	0.071908608	0.566542558	-0.017929467	-0.912841797	0.461914063	-0.186035156	891.62	23.8117957	-66.61179755	-129.3363303	-52
55680	0	0.360856056	0.059114456	0.052576065	0.999903679	0.000872612	0.013774872	-0.000979424	9.021401405	1.477861404	1.314401627	0.043631992	0.688765572	-0.048972739	-0.912353516	0.461914063	-0.206298828	891.54	22.8030764	-65.14683231	-128.1447725	-52
55681	0	0.34552002	0.060668945	0.046203613	0.999867439	0.001678467	0.016152382	-0.000686646	8.638000488	1.516723633	1.155090332	0.083927036	0.80765466	-0.034333787	-0.909423828	0.459228516	-0.235351563	891.54	21.74351448	-63.43708683	-126.7845144	-55
55682	0	0.338648796	0.056277275	0.049411774	0.999840736	0.002080917	0.017677307	-0.000466347	8.466219902	1.406931877	1.235294342	0.104051366	0.883912066	-0.023318569	-0.899414063	0.458740234	-0.26171875	891.52	20.71957941	-61.56653979	-125.4038792	-56
55683	0	0.321716309	0.057739258	0.047424316	0.999807358	0.001408577	0.019515991	-0.001422882	8.042907715	1.443481445	1.18560791	0.070433367	0.975862166	-0.071148668	-0.896240234	0.453857422	-0.302001953	891.58	19.82975975	-59.45342508	-124.2349452	-56
55684	0	0.296382904	0.051795959	0.044294357	0.999773979	-6.77E-05	0.021038055	-0.002775192	7.409572601	1.294898987	1.107358932	-0.003385798	1.051981733	-0.138770029	-0.885742188	0.448730469	-0.336914063	891.62	19.05458995	-57.11964296	-123.3759186	-57
55685	0	0.279968262	0.042480469	0.044128418	0.999746323	-0.001944542	0.022079468	-0.003814697	6.999206543	1.062011719	1.103210449	-0.097235295	1.104066481	-0.190750947	-0.873046875	0.445800781	-0.372070313	891.52	18.29034555	-54.6324192	-122.7640929	-60
55686	0	0.248921394	0.053281784	0.008523941	0.999673843	-6.39E-05	0.025118828	-0.004406929	6.223034859	1.332044601	0.213098526	-0.003195155	1.256077571	-0.220370343	-0.865234375	0.440917969	-0.409667969	891.44	17.77558807	-51.79368802	-122.197145	-63
55687	0	0.195678711	0.034973145	0.03314209	0.999629974	0.004342079	0.026493073	-0.004169464	4.891967773	0.874328613	0.828552246	0.217130675	1.324816639	-0.20849886	-0.854248047	0.431152344	-0.458740234	891.52	17.74480515	-48.81433433	-121.590329	-63
55688	0	0.103010178	0.025895119	0.038132668	0.999596596	0.000128746	0.027999878	-0.004615784	2.57525444	0.647377968	0.953316689	0.006438166	1.400181871	-0.230820172	-0.831787109	0.423583984	-0.505615234	891.52	17.29583559	-45.65316856	-121.036867	-62
55689	0	-0.025817871	0.026611328	0.041931152	0.999569893	-0.007270813	0.02777195	-0.005889893	-0.645446777	0.665283203	1.048278809	-0.363592707	1.388796328	-0.294536799	-0.814208984	0.420410156	-0.552490234	891.54	16.23188044	-42.46498498	-120.7746559	-65
55690	0	-0.114571571	-0.018901825	0.020440102	0.999334335	-0.011292458	0.034155846	-0.006046295	-2.864289284	-0.472545624	0.511002541	-0.564748178	1.708171269	-0.302381847	-0.796875	0.419433594	-0.588134766	891.48	14.64562148	-38.55484146	-120.484379	-63
55691	0	-0.082519531	-0.025512695	-0.040283203	0.998706818	-0.018168449	0.046966553	-0.00686264	-2.062988281	-0.637817383	-1.007080078	-0.908814008	2.349339786	-0.343279912	-0.765380859	0.428955078	-0.642822266	891.58	12.23434505	-33.1801977	-120.1768084	-60
55692	0	0.100246429	-0.021429062	0.133777618	0.997254372	-0.023259163	0.070291519	-0.001220703	2.506160736	-0.535726547	3.34444046	-1.164023599	3.517795867	-0.061091074	-0.712890625	0.451171875	-0.714111328	891.44	8.833639039	-25.27286064	-119.1772406	-66
55693	0	0.530212402	0.031555176	1.353515625	0.994748116	-0.017181396	0.100899696	0.000461578	13.25531006	0.788879395	33.83789063	-0.860576899	5.053835285	0.023119406	-0.600830078	0.486572266	-0.821533203	891.62	6.299615034	-13.83652903	-118.1578725	-65
55694	0	-0.013306618	0.050537109	2.220438004	0.998831749	0.006362915	0.040279388	-0.02589798	-0.332665443	1.263427734	55.51095009	0.318269621	2.014753552	-1.29540315	-0.466552734	0.501220703	-0.922607422	891.62	7.501108693	-8.906418645	-120.5669156	-69
55695	0	-0.139099121	0.358459473	1.060974121	0.998425484	-0.00995636	0.052815437	-0.016044617	-3.477478027	8.961486816	26.52435303	-0.498079388	2.642158487	-0.802652072	-0.435791016	0.466552734	-0.961914063	891.58	6.471013356	-2.667481489	-121.7727428	-83
55696	0	0.0840168	0.105985641	0.454112053	0.998951912	-0.01982975	0.039031982	0.013318062	2.100419998	2.649641037	11.35280132	-0.991833873	1.9522809	0.66613572	-0.362548828	0.481689453	-0.981689453	891.56	4.182498459	1.646863484	-119.8963817	-79
55697	0	-0.010925293	0.085632324	0.317016602	0.999177933	-0.025359154	0.031524658	0.00227356	-0.273132324	2.140808105	7.925415039	-1.268304954	1.576664607	0.113709113	-0.276855469	0.534179688	-0.982177734	891.54	1.305800477	5.243704649	-119.4757871	-79
55698	0	-0.155766487	-0.011849403	0.209432602	0.999744415	-0.020573616	0.009345055	-3.43E-05	-3.894162178	-0.296235085	5.235815048	-1.028768363	0.467292504	-0.00171676	-0.236328125	0.579589844	-0.965087891	891.58	-1.048757146	6.32143067	-119.483795	-75
55699	0	-0.254150391	-0.052062988	0.210998535	0.999897957	-0.01279068	0.006360054	0.000171661	-6.353759766	-1.301574707	5.274963379	-0.639555751	0.318013518	0.008583361	-0.231201172	0.614990234	-0.942382813	891.52	-2.514078668	7.068570341	-119.4973272	-70
55700	0	-0.252173424	-0.029371262	0.288210869	0.999956131	-0.006786346	0.005618095	0.00292778	-6.304335594	-0.73428154	7.205271721	-0.339322196	0.280908805	0.146391111	-0.217773438	0.632324219	-0.935791016	891.64	-3.252468966	7.756789431	-119.2035664	-70
55701	0	-0.199645996	0.020019531	0.334716797	0.999970436	-0.007587433	0.000302315	-0.000713348	-4.991149902	0.500488281	8.367919922	-0.379375321	0.015115884	-0.035667765	-0.211425781	0.645507813	-0.92578125	891.64	-4.131537515	7.821359693	-119.2993088	-72
55702	0	-0.198834419	-0.071878433	0.433777809	0.99998188	0.000530243	-0.005413055	-0.002543449	-4.970860481	-1.796960831	10.84444523	0.026512305	-0.270654397	-0.127173234	-0.216552734	0.654785156	-0.917480469	891.58	-4.103639811	7.223088896	-119.5580945	-72
55703	0	-0.163452148	-0.107727051	0.43762207	0.999975204	-2.86E-06	-0.005256653	-0.004566193	-4.086303711	-2.69317627	10.94055176	-0.000143052	-0.262834765	-0.228311476	-0.230957031	0.655273438	-0.919677734	891.54	-4.166525077	6.630352541	-120.0517298	-72
55704	0	-0.024413109	-0.088262558	0.405555725	0.999945641	-0.006422997	-0.004188538	-0.007066727	-0.610327721	-2.20656395	10.13889313	-0.321155646	-0.209430675	-0.353342738	-0.247558594	0.651367188	-0.915527344	891.64	-4.996332414	6.130638198	-120.8387995	-73
55705	0	0.026550293	-0.028564453	0.383605957	0.999936104	-0.009037018	-0.006716728	0.000576019	0.663757324	-0.714111328	9.590148926	-0.451860464	-0.335843526	0.028801575	-0.260253906	0.665283203	-0.895751953	891.68	-6.025418201	5.409544597	-120.7118499	-73
55706	0	0.005543709	-0.065638542	0.385554314	0.999923706	-0.006350517	-0.008875847	0.005684853	0.13859272	-1.640963554	9.638857841	-0.317533878	-0.443803544	0.284249804	-0.268310547	0.681152344	-0.885009766	891.54	-6.695612531	4.506311992	-119.961954	-73
55707	0	-0.058532715	-0.111083984	0.381774902	0.999970436	-0.001037598	-0.00681591	0.003360748	-1.463317871	-2.777099609	9.544372559	-0.051880391	-0.340798858	0.168039062	-0.276367188	0.694824219	-0.868408203	891.62	-6.791119851	3.811894545	-119.4988871	-72
55708	0	-0.056732178	-0.0508461	0.309654236	0.99998188	0.004099846	-0.003442764	-0.002420425	-1.418304443	-1.271152496	7.741355896	0.204993474	-0.172139204	-0.121021967	-0.281005859	0.692871094	-0.870849609	891.52	-6.347283603	3.425240092	-119.7414626	-71
55709	0	0.024841309	-0.022155762	0.393798828	0.999979019	0.005059242	0.000320435	-0.003959656	0.621032715	-0.553894043	9.844970703	0.252963857	0.016021839	-0.197984153	-0.290039063	0.686523438	-0.875488281	891.58	-5.805147139	3.447403524	-120.2097607	-70
55710	0	0.055722237	0.000732422	0.402821541	0.999983788	0.005098343	-0.001602173	-0.001565933	1.393055916	0.018310547	10.07053852	0.254918462	-0.080109057	-0.078297066	-0.294189453	0.673339844	-0.880126953	891.54	-5.238571167	3.276256826	-120.3835756	-69
55711	0	0.061218262	-0.022827148	0.448669434	0.999958038	0.006432533	-0.00586319	0.002723694	1.530456543	-0.570678711	11.21673584	0.321631122	-0.293163549	0.13618658	-0.298583984	0.666748047	-0.887939453	891.54	-4.489465218	2.657158062	-120.0272779	-70
55712	0	-0.013730049	-0.042961121	0.40702343	0.999961853	0.006944656	-0.00423336	0.003072739	-0.343251228	-1.074028015	10.17558575	0.347237193	-0.211670681	0.153638868	-0.304931641	0.653564453	-0.895019531	891.52	-3.684526983	2.221646988	-119.6537539	-70
55713	0	-0.030578613	-0.036682129	0.385925293	0.999997139	0.001766205	-0.000956535	1.53E-05	-0.764465332	-0.917053223	9.648132324	0.088310301	-0.047826799	0.00076294	-0.306884766	0.649169922	-0.900390625	891.64	-3.489487974	2.136010912	-119.6576991	-70
55714	0	-0.014354706	-0.052508354	0.409639359	0.999988556	0.004244804	0.002070427	-0.000645638	-0.358867645	-1.312708855	10.24098396	0.212241023	0.103521739	-0.032281998	-0.306884766	0.64453125	-0.900146484	891.62	-3.015517637	2.391822906	-119.7575705	-71
55715	0	-0.006530762	-0.040344238	0.405700684	0.999988556	0.003949165	0.002151489	0.001209259	-0.163269043	-1.008605957	10.14251709	0.197458981	0.107574852	0.06046317	-0.306396484	0.635742188	-0.907958984	891.54	-2.567257012	2.667011521	-119.6439869	-71
55716	0	-0.020256042	-0.021235466	0.396763802	0.999996185	0.001533508	0.00105381	0.001624107	-0.506401062	-0.53088665	9.919095039	0.076675493	0.05269056	0.081205451	-0.298828125	0.628662109	-0.913574219	891.58	-2.392746347	2.817570911	-119.4756824	-71
55717	0	-0.031860352	0.002075195	0.390808105	0.999997139	0.001529694	-3.72E-05	0.001255035	-0.796508789	0.051879883	9.770202637	0.07648473	-0.001859666	0.062751811	-0.293945313	0.628662109	-0.913818359	891.58	-2.219082644	2.841153344	-119.3437042	-71
55718	0	-0.029302597	0.010632515	0.399019241	0.999995232	0.002859116	-9.54E-05	0.000579834	-0.732564926	0.265812874	9.975481033	0.142955983	-0.004768378	0.02899174	-0.293701172	0.624023438	-0.919433594	891.7	-1.895368424	2.854709434	-119.289028	-71
55719	0	-0.02722168	0.010009766	0.409240723	0.999999046	0.001220703	0.000100136	-6.48E-05	-0.680541992	0.250244141	10.23101807	0.061035172	0.005006791	-0.003242493	-0.293701172	0.621826172	-0.919189453	891.58	-1.761815805	2.887925529	-119.3090516	-71
55720	0	-0.015828133	0.003421783	0.4025774	0.999998093	-0.001373291	-0.000157356	-0.000423431	-0.395703316	0.085544586	10.06443501	-0.068664575	-0.007867816	-0.021171577	-0.293457031	0.619628906	-0.927734375	891.54	-1.926688385	2.889599546	-119.3694666	-71
55721	0	-0.005981445	-0.01348877	0.401916504	0.999997139	-0.002033234	-0.000174522	-0.000328064	-0.149536133	-0.337219238	10.0479126	-0.101661755	-0.008726126	-0.01640321	-0.295898438	0.621826172	-0.921875	891.52	-2.166604414	2.888290249	-119.4189286	-71
55722	0	-0.004910469	-0.022826195	0.404147148	0.999999046	-0.000741959	-0.000202179	-0.000378609	-0.122761726	-0.570654869	10.1036787	-0.037097935	-0.010108949	-0.018930437	-0.296142578	0.626464844	-0.916503906	891.54	-2.259194756	2.882226319	-119.4735921	-71
55723	0	-0.009765625	-0.020935059	0.401489258	0.999999046	0.000465393	2.00E-05	-0.000255585	-0.244140625	-0.523376465	10.03723145	0.023269654	0.001001358	-0.012779236	-0.298583984	0.628662109	-0.922363281	891.6	-2.21299833	2.901199009	-119.5152471	-71
55724	0	-0.020266533	-0.024662971	0.399497032	0.999999046	0.000288963	0.000198364	0.000216484	-0.506663322	-0.616574287	9.987425804	0.014448166	0.009918213	0.010824204	-0.296142578	0.626464844	-0.919433594	891.52	-2.184735176	2.942318352	-119.503464	-71
55725	0	-0.0234375	-0.025634766	0.398620605	0.999999046	-0.000118256	-5.63E-05	0.000461578	-0.5859375	-0.640869141	9.965515137	-0.005912781	-0.002813339	0.023078919	-0.296142578	0.626464844	-0.916503906	891.54	-2.202077469	2.955138806	-119.462556	-71
55726	0	-0.017062187	-0.018816948	0.397641182	0.999999046	-0.000219345	-0.000225067	0.000288963	-0.42655468	-0.470423698	9.941029549	-0.010967255	-0.011253357	0.014448166	-0.296142578	0.626464844	-0.919433594	891.58	-2.232072437	2.947344935	-119.4407352	-71
55727	0	-0.013366699	-0.016967773	0.396118164	0.999999046	8.01E-05	-0.000369072	0.000160217	-0.33416748	-0.424194336	9.902954102	0.004005432	-0.018453599	0.008010864	-0.296142578	0.626464844	-0.916503906	891.64	-2.228473842	2.921786891	-119.4329281	-71
55728	0	-0.012040138	-0.016350746	0.39875412	0.999999046	0.000430107	-0.000482559	8.68E-05	-0.301003456	-0.408768654	9.968852997	0.021505357	-0.024127962	0.004339218	-0.296142578	0.626464844	-0.916503906	891.52	-2.185134519	2.882153327	-119.4329392	-71
55729	0	-0.014892578	-0.015136719	0.400878906	0.999999046	0.000968933	-0.000247002	0.000144958	-0.372314453	-0.378417969	10.02197266	0.048446664	-0.012350084	0.007247926	-0.296142578	0.626220703	-0.922363281	891.58	-2.079678382	2.869161967	-119.4273278	-71
55730	0	-0.01518631	-0.013682365	0.401950836	0.999999046	0.001037598	-0.000164032	0.000208855	-0.379657745	-0.342059135	10.0487709	0.051879893	-0.008201601	0.010442736	-0.298583984	0.624267578	-0.919189453	891.6	-1.965877073	2.865372907	-119.4150562	-71
55731	0	-0.015625	-0.011413574	0.401000977	0.999999046	0.000587463	2.00E-05	0.000175476	-0.390625	-0.285339355	10.02502441	0.029373171	0.001001358	0.008773804	-0.296142578	0.621826172	-0.916259766	891.58	-1.903687629	2.882007185	-119.407115	-71
55732	0	-0.015155792	-0.009899139	0.401438713	0.999999046	5.05E-05	5.72E-05	4.48E-05	-0.378894806	-0.247478485	10.03596783	0.002527237	0.002861023	0.002241135	-0.295898438	0.621826172	-0.918945313	891.58	-1.903537787	2.901874032	-119.4143279	-71
55733	0	-0.01550293	-0.010314941	0.399719238	0.999999046	-0.000282288	0.0002985	-4.20E-05	-0.387573242	-0.257873535	9.992980957	-0.01411438	0.014925003	-0.002098084	-0.295898438	0.621826172	-0.921875	891.54	-1.94187221	2.948541201	-119.4325505	-71
55734	0	-0.015006065	-0.009869576	0.397079468	0.999999046	-0.000205994	0.000537872	-0.000247955	-0.375151634	-0.246739388	9.926986694	-0.010299683	0.026893617	-0.012397767	-0.296142578	0.624023438	-0.922119141	891.6	-1.972525505	3.021285937	-119.4752973	-71
55735	0	-0.015686035	-0.013549805	0.399902344	0.999999046	-3.43E-05	0.000546455	-0.000209808	-0.392150879	-0.338745117	9.997558594	-0.001716614	0.027322771	-0.010490418	-0.295898438	0.621826172	-0.924804688	891.58	-1.983271506	3.094645761	-119.513929	-71
55736	0	-0.014955521	-0.018405914	0.4001894	0.999999046	0.000126839	0.000385284	-0.000156403	-0.373888016	-0.460147858	10.00473499	0.006341934	0.019264222	-0.00782013	-0.293701172	0.621826172	-0.919189453	891.58	-1.975408236	3.149204742	-119.5454413	-71
55737	0	-0.015930176	-0.018676758	0.399597168	0.999999046	-0.000209808	0.000317574	-3.81E-06	-0.398254395	-0.466918945	9.989929199	-0.010490418	0.015878678	-0.000190735	-0.296142578	0.624023438	-0.922119141	891.64	-2.005359308	3.196104911	-119.5594968	-71
55738	0	-0.016794205	-0.016892433	0.399640083	0.999999046	-0.000116348	0.000360489	0.000125885	-0.419855118	-0.422310829	9.991002083	-0.005817413	0.018024445	0.006294251	-0.293701172	0.624023438	-0.925048828	891.7	-2.023873064	3.247970638	-119.558652	-71
55739	0	-0.017700195	-0.016418457	0.399475098	0.999999046	7.25E-05	0.000214577	0.000213623	-0.442504883	-0.410461426	9.986877441	0.003623962	0.010728836	0.010681153	-0.291259766	0.624023438	-0.919433594	891.58	-2.020193197	3.283056187	-119.5469027	-71
55740	0	-0.016717911	-0.015621185	0.399103165	0.999999046	0.000582695	0.000211716	0.000259399	-0.417947769	-0.390529633	9.977579117	0.029134753	0.010585786	0.012969972	-0.293457031	0.621826172	-0.922119141	891.62	-1.957744137	3.317515737	-119.5304315	-71
55741	0	-0.018310547	-0.014038086	0.399414063	0.999999046	0.001163483	0.000153542	0.000240326	-0.457763672	-0.350952148	9.985351563	0.058174147	0.00767708	0.012016299	-0.288574219	0.621582031	-0.927978516	891.6	-1.828797423	3.344816753	-119.515168	-71
55742	0	-0.017219543	-0.013220787	0.400355339	0.999999046	0.001163483	0.000135422	0.000213623	-0.430488586	-0.330519676	10.00888348	0.058174147	0.006771089	0.010681155	-0.291015625	0.621582031	-0.927978516	891.54	-1.699970663	3.3694632	-119.5032099	-71
55743	0	-0.019104004	-0.010437012	0.400268555	0.999999046	0.000595093	7.72E-05	0.000244141	-0.477600098	-0.260925293	10.00671387	0.029754641	0.003862381	0.012207032	-0.291015625	0.619384766	-0.924804688	891.64	-1.635912531	3.387174886	-119.487644	-71
55744	0	-0.01856041	-0.010562897	0.39978981	0.999999046	-9.54E-07	-1.53E-05	6.10E-05	-0.464010239	-0.264072418	9.994745255	-4.77E-05	-0.000762939	0.003051758	-0.290771484	0.6171875	-0.930419922	891.54	-1.641271545	3.393306307	-119.4929349	-71
55745	0	-0.017578125	-0.009643555	0.40020752	0.999999046	1.91E-05	-1.43E-05	1.91E-05	-0.439453125	-0.241088867	10.00518799	0.000953674	-0.000715256	0.000953674	-0.291015625	0.6171875	-0.924804688	891.54	-1.644471332	3.398988343	-119.5029308	-71
55746	0	-0.017627716	-0.010604858	0.399536133	0.999999046	-0.000114441	4.77E-05	-4.20E-05	-0.440692902	-0.26512146	9.98840332	-0.005722046	0.002384186	-0.002098084	-0.288574219	0.6171875	-0.927734375	891.54	-1.663303502	3.411160121	-119.5198211	-71
55747	0	-0.017028809	-0.01171875	0.400146484	0.999999046	7.63E-05	0.00024128	-1.53E-05	-0.425720215	-0.29296875	10.00366211	0.003814697	0.01206398	-0.000762939	-0.288574219	0.6171875	-0.927734375	891.58	-1.660094928	3.445161377	-119.5343905	-71
55748	0	-0.018503189	-0.013062477	0.399711609	0.999999046	0.000102043	0.000343323	9.82E-05	-0.462579727	-0.326561928	9.992790222	0.005102158	0.017166138	0.004911423	-0.290771484	0.6171875	-0.927490234	891.58	-1.653201911	3.4908725	-119.5366811	-71
55749	0	-0.020935059	-0.013793945	0.402282715	0.999999046	0.000221252	0.000161171	0.000236511	-0.523376465	-0.344848633	10.05706787	0.011062622	0.008058548	0.011825562	-0.288574219	0.6171875	-0.927734375	891.58	-1.631701802	3.515926308	-119.522144	-71
55750	0	-0.019788742	-0.013791084	0.401061058	0.999999046	0.000146866	-0.000101089	0.000141144	-0.494718552	-0.344777107	10.02652645	0.007343292	-0.005054474	0.00705719	-0.288330078	0.614990234	-0.930419922	891.64	-1.61940712	3.51032157	-119.5178517	-71
55751	0	-0.019775391	-0.010803223	0.401550293	0.999999046	0.000106812	-0.000163078	0.000190735	-0.494384766	-0.270080566	10.03875732	0.005340576	-0.008153916	0.009536743	-0.288574219	0.6171875	-0.930664063	891.54	-1.611259887	3.497479078	-119.5074566	-71
55752	0	-0.018732071	-0.009978294	0.401435852	0.999999046	0.000218391	-0.000150681	0.000189781	-0.468301773	-0.249457359	10.0358963	0.010919571	-0.007534027	0.00948906	-0.288574219	0.6171875	-0.930664063	891.6	-1.590218032	3.485714535	-119.4971922	-71
55753	0	-0.019042969	-0.010437012	0.401855469	0.999999046	0.00012207	-0.000311852	7.25E-05	-0.476074219	-0.260925293	10.04638672	0.006103516	-0.015592575	0.003623962	-0.288330078	0.614990234	-0.927490234	891.58	-1.580914893	3.454804626	-119.499924	-71
55754	0	-0.018733978	-0.009604454	0.39997673	0.999999046	5.53E-05	-0.00037384	7.63E-05	-0.468349457	-0.240111351	9.999418259	0.002765656	-0.018692017	0.003814697	-0.288330078	0.614990234	-0.927490234	891.62	-1.579101565	3.416506265	-119.5019281	-71
55755	0	-0.019226074	-0.009033203	0.400634766	0.999999046	-3.05E-05	-0.000388145	0.000133514	-0.480651855	-0.225830078	10.01586914	-0.001525879	-0.019407273	0.00667572	-0.290771484	0.614990234	-0.930419922	891.68	-1.586583222	3.376495211	-119.4976826	-71
55756	0	-0.018123627	-0.010518074	0.400831223	0.999999046	-4.77E-06	-0.00053215	0.000102043	-0.453090668	-0.262951851	10.02078056	-0.000238419	-0.026607515	0.005102158	-0.290771484	0.614990234	-0.927490234	891.58	-1.591231638	3.319598349	-119.4963416	-71
55757	0	-0.018310547	-0.010681152	0.400512695	0.999999046	-3.05E-05	-0.000559807	7.63E-06	-0.457763672	-0.267028809	10.01281738	-0.001525879	-0.027990343	0.00038147	-0.290771484	0.6171875	-0.927490234	891.52	-1.599386711	3.258979712	-119.5053576	-71
55758	0	-0.01682663	-0.011499405	0.398882866	0.999999046	-0.000127792	-0.000617981	-2.29E-05	-0.420665741	-0.287485123	9.972071648	-0.006389618	-0.03089905	-0.001144409	-0.290771484	0.614990234	-0.927490234	891.64	-1.618844553	3.191302277	-119.5178011	-71
55759	0	-0.016113281	-0.011901855	0.400146484	0.999999046	-0.00018692	-0.00039196	6.87E-05	-0.402832031	-0.297546387	10.00366211	-0.009346009	-0.019598008	0.003433228	-0.293212891	0.617431641	-0.924560547	891.58	-1.644517423	3.149505574	-119.5205764	-71
55760	0	-0.016349792	-0.013148308	0.400642395	0.999999046	-0.000172615	-0.000339508	3.81E-05	-0.408744812	-0.328707695	10.01605988	-0.008630753	-0.016975403	0.001907349	-0.293212891	0.617431641	-0.927490234	891.6	-1.668795476	3.113345518	-119.5269987	-70
55761	0	-0.015869141	-0.012817383	0.397033691	0.999999046	4.58E-05	-0.000174522	0	-0.396728516	-0.32043457	9.925842285	0.002288818	-0.00872612	0	-0.293212891	0.617431641	-0.924560547	891.64	-1.668336238	3.095691043	-119.5382524	-71
55762	0	-0.016522408	-0.010705948	0.399481773	0.999999046	2.67E-05	-4.58E-05	0.000155449	-0.413060188	-0.267648697	9.987044334	0.001335144	-0.002288818	0.007772446	-0.293212891	0.6171875	-0.930419922	891.58	-1.669035218	3.093078176	-119.532266	-71
55763	0	-0.017150879	-0.012756348	0.402709961	0.999999046	0.000102997	-0.000277519	0.00025177	-0.428771973	-0.318908691	10.06774902	0.005149841	-0.013875962	0.012588501	-0.293212891	0.617431641	-0.924560547	891.58	-1.660373826	3.064047162	-119.5143073	-71
55764	0	-0.017362595	-0.012421608	0.399852753	0.999999046	-4.29E-05	-0.000415802	0.000118256	-0.434064865	-0.310540199	9.996318817	-0.002145767	-0.020790101	0.005912781	-0.295654297	0.617431641	-0.924560547	891.54	-1.669237819	3.018572808	-119.5116043	-71
55765	0	-0.017150879	-0.011047363	0.399780273	0.999999046	-0.000263214	-0.000407219	-1.91E-05	-0.428771973	-0.276184082	9.994506836	-0.013160706	-0.020360947	-0.000953674	-0.293212891	0.614990234	-0.927246094	891.54	-1.704104176	2.973468899	-119.5243372	-71
55766	0	-0.01554203	-0.011564255	0.400580406	0.999999046	-0.000221252	-0.000448227	0.000117302	-0.388550758	-0.289106369	10.01451015	-0.011062623	-0.022411347	0.005865097	-0.295654297	0.617431641	-0.924560547	891.58	-1.733284889	2.923915384	-119.521366	-70
55767	0	-0.015014648	-0.01171875	0.400512695	0.999999046	-0.000228882	-0.000494957	2.67E-05	-0.375366211	-0.29296875	10.01281738	-0.011444092	-0.02474785	0.001335144	-0.298095703	0.619628906	-0.924560547	891.6	-1.763803685	2.868476912	-119.5286977	-70
55768	0	-0.015169144	-0.011473656	0.399179459	0.999999046	-0.000164986	-0.000476837	-8.58E-06	-0.379228592	-0.286841393	9.979486465	-0.008249283	-0.023841859	-0.000429153	-0.298095703	0.619628906	-0.924560547	891.58	-1.78712145	2.814804172	-119.5399266	-71
55769	0	-0.015258789	-0.012207031	0.399841309	0.999999046	-3.05E-05	-0.000121117	7.63E-05	-0.381469727	-0.305175781	9.996032715	-0.001525879	-0.006055832	0.003814697	-0.298339844	0.619628906	-0.921630859	891.54	-1.794563956	2.802020938	-119.5426775	-71
55770	0	-0.015529633	-0.013755798	0.399904251	0.999999046	8.20E-05	-0.000310898	6.77E-05	-0.388240814	-0.343894958	9.997606277	0.0041008	-0.015544892	0.003385544	-0.295654297	0.619628906	-0.927490234	891.58	-1.789156482	2.767338229	-119.5451155	-70
55771	0	-0.015686035	-0.013061523	0.3984375	0.999999046	-3.43E-05	-7.15E-05	0.000171661	-0.392150879	-0.326538086	9.9609375	-0.001716614	-0.003576279	0.008583069	-0.295654297	0.617431641	-0.927246094	891.54	-1.796548281	2.760340649	-119.5369443	-70
55772	0	-0.014472961	-0.012290955	0.398072243	0.999999046	0.000340462	0.000295639	6.39E-05	-0.361824036	-0.307273865	9.951806068	0.017023087	0.014781952	0.003194809	-0.298095703	0.617431641	-0.924316406	891.6	-1.761612511	2.794851858	-119.5430238	-71
55773	0	-0.014221191	-0.013000488	0.400390625	0.999999046	0.000156403	0.00011158	0.000175476	-0.355529785	-0.325012207	10.00976563	0.007820129	0.005578995	0.008773804	-0.295654297	0.617431641	-0.927246094	891.64	-1.747117964	2.808488758	-119.5351156	-71
55774	0	-0.015108109	-0.0128088	0.401367188	0.999999046	0.000144958	0.000181198	6.01E-05	-0.377702713	-0.320219994	10.03417969	0.007247925	0.009059906	0.003004074	-0.298095703	0.617431641	-0.924316406	891.6	-1.734594968	2.829552678	-119.5412637	-71
55775	0	-0.015258789	-0.011962891	0.399536133	0.999999046	0.000205994	0.000466347	5.34E-05	-0.381469727	-0.299072266	9.98840332	0.010299683	0.023317338	0.002670288	-0.295654297	0.617431641	-0.927246094	891.58	-1.715131026	2.883120594	-119.5486934	-71
55776	0	-0.017342567	-0.010697365	0.400988579	0.999999046	0.000231743	0.000354767	0.000141144	-0.433564186	-0.26743412	10.02471447	0.011587143	0.017738343	0.00705719	-0.295654297	0.617431641	-0.924560547	891.7	-1.692097345	2.924161084	-119.5457444	-71
55777	0	-0.017700195	-0.012451172	0.402526855	0.999999046	9.16E-05	7.72E-05	0.000190735	-0.442504883	-0.311279297	10.06317139	0.004577637	0.003862381	0.009536743	-0.293212891	0.614990234	-0.927246094	891.54	-1.684790218	2.933533061	-119.5360076	-71
55778	0	-0.016606331	-0.01170063	0.399657249	0.999999046	-3.81E-06	7.82E-05	-4.29E-05	-0.415158272	-0.292515755	9.991431236	-0.000190735	0.003910065	-0.002145767	-0.293212891	0.617431641	-0.924560547	891.6	-1.689753711	2.942127772	-119.5527069	-71
55779	0	-0.016174316	-0.011291504	0.399780273	0.999999046	-6.87E-05	8.87E-05	9.92E-05	-0.40435791	-0.282287598	9.994506836	-0.003433228	0.004434586	0.004959106	-0.295654297	0.617431641	-0.924560547	891.58	-1.701264927	2.952282874	-119.5539167	-71
55780	0	-0.015637398	-0.011160851	0.400629997	0.999999046	2.86E-06	-7.44E-05	0.000117302	-0.390934944	-0.279021263	10.01574993	0.000143051	-0.00371933	0.005865097	-0.295654297	0.617431641	-0.924560547	891.6	-1.704382991	2.943669944	-119.5524262	-71
55781	0	-0.016113281	-0.012207031	0.399841309	0.999999046	-9.92E-05	0.000100136	0.0001297	-0.402832031	-0.305175781	9.996032715	-0.004959106	0.00500679	0.006484985	-0.293212891	0.617431641	-0.924560547	891.58	-1.719144389	2.954972396	-119.5495337	-71
55782	0	-0.016256332	-0.011916161	0.397089005	0.999999046	-1.91E-05	0.000171661	-7.63E-06	-0.40640831	-0.297904015	9.927225113	-0.000953674	0.008583069	-0.00038147	-0.295654297	0.617431641	-0.924560547	891.6	-1.72553131	2.97389128	-119.5634206	-71
55783	0	-0.01776123	-0.011108398	0.402282715	0.999999046	0.000213623	0.000229836	0.000125885	-0.444030762	-0.277709961	10.05706787	0.010681153	0.011491776	0.006294251	-0.295654297	0.617431641	-0.927246094	891.6	-1.704397356	2.999888031	-119.5622422	-71
55784	0	-0.01782608	-0.011238098	0.401180267	0.999999046	0.000159264	3.43E-05	0.000125885	-0.445652008	-0.280952454	10.02950668	0.007963181	0.001716614	0.006294251	-0.293212891	0.6171875	-0.930419922	891.64	-1.689400474	3.003444213	-119.5597086	-71
55785	0	-0.017700195	-0.010803223	0.400146484	0.999999046	2.67E-05	3.53E-05	6.10E-05	-0.442504883	-0.270080566	10.00366211	0.001335144	0.001764297	0.003051758	-0.290771484	0.6171875	-0.927490234	891.6	-1.689913421	3.006839727	-119.5638925	-71
55786	0	-0.017058372	-0.01084137	0.400267601	0.999999046	4.58E-05	0.000116348	5.25E-05	-0.426459312	-0.271034241	10.00669003	0.002288818	0.005817413	0.002622604	-0.290771484	0.6171875	-0.927490234	891.58	-1.688241873	3.019408117	-119.5695308	-71
55787	0	-0.016113281	-0.011413574	0.399291992	0.999999046	0.00012207	0.000210762	3.05E-05	-0.402832031	-0.285339355	9.982299805	0.006103516	0.010538101	0.001525879	-0.293212891	0.617431641	-0.924560547	891.54	-1.677947574	3.042586876	-119.5787973	-71
55788	0	-0.017686844	-0.012230873	0.401057243	0.999999046	7.53E-05	0.000167847	6.77E-05	-0.442171097	-0.305771828	10.02643108	0.003767014	0.008392334	0.003385544	-0.290771484	0.6171875	-0.927490234	891.64	-1.672785441	3.060915329	-119.5830679	-71
55789	0	-0.016845703	-0.011352539	0.398925781	0.999999046	7.63E-05	0.000325203	-3.05E-05	-0.421142578	-0.283813477	9.973144531	0.003814697	0.016260147	-0.001525879	-0.290771484	0.6171875	-0.927490234	891.64	-1.668119906	3.096837741	-119.5993148	-71
55790	0	-0.018875122	-0.009889603	0.400562286	0.999999046	8.96E-05	0.000282288	0.0001297	-0.471878052	-0.247240067	10.01405716	0.004482269	0.01411438	0.006484985	-0.290771484	0.614990234	-0.927490234	891.58	-1.660825221	3.128365542	-119.5976334	-71
55791	0	-0.019470215	-0.012573242	0.401489258	0.999999046	0.000156403	8.49E-05	0.000167847	-0.486755371	-0.314331055	10.03723145	0.007820129	0.004243851	0.008392334	-0.290771484	0.614990234	-0.933105469	891.54	-1.645642032	3.137409831	-119.591038	-71
55792	0	-0.018748283	-0.011527061	0.399719238	0.999999046	6.01E-05	4.58E-05	0.000201225	-0.468707085	-0.288176537	9.992980957	0.003004074	0.002288818	0.010061264	-0.290771484	0.614990234	-0.927490234	891.64	-1.641269783	3.142051851	-119.580356	-71
55793	0	-0.018676758	-0.010864258	0.399719238	0.999999046	8.39E-05	6.20E-05	-7.63E-06	-0.466918945	-0.271606445	9.992980957	0.004196167	0.003099442	-0.00038147	-0.288330078	0.614990234	-0.927490234	891.66	-1.635438613	3.147829264	-119.5927983	-71
55794	0	-0.017505646	-0.010187149	0.39990139	0.999999046	0.000131607	7.25E-05	3.72E-05	-0.437641144	-0.254678726	9.997534752	0.006580353	0.003623962	0.001859665	-0.290771484	0.6171875	-0.930419922	891.58	-1.623791314	3.154858719	-119.6006564	-71
55795	0	-0.018005371	-0.010620117	0.399658203	0.999999046	1.53E-05	4.67E-05	0.000102997	-0.450134277	-0.26550293	9.991455078	0.000762939	0.002336502	0.005149841	-0.290771484	0.6171875	-0.933349609	891.58	-1.62501248	3.159081754	-119.6009974	-71
55796	0	-0.018776894	-0.010543823	0.399412155	0.999999046	0.000103951	0.000185013	5.72E-05	-0.46942234	-0.263595581	9.985303879	0.005197525	0.009250641	0.002861023	-0.290771484	0.614990234	-0.927490234	891.68	-1.616338742	3.178964907	-119.6073801	-71
55797	0	-0.01965332	-0.011352539	0.400634766	0.999999046	0.000179291	4.29E-05	8.01E-05	-0.491333008	-0.283813477	10.01586914	0.008964539	0.002145767	0.004005432	-0.288330078	0.614990234	-0.933349609	891.58	-1.598855891	3.182649953	-119.6098707	-71
55798	0	-0.019505501	-0.011145592	0.398683548	0.999999046	0.000219345	-3.81E-06	0.000144958	-0.48763752	-0.278639793	9.967088699	0.010967255	-0.000190735	0.007247925	-0.288330078	0.614990234	-0.927490234	891.58	-1.576356679	3.181189325	-119.6046306	-71
55799	0	-0.018981934	-0.009887695	0.399169922	0.999999046	0.000114441	3.53E-05	0.000102997	-0.47454834	-0.247192383	9.979248047	0.005722046	0.001764297	0.005149841	-0.288330078	0.614990234	-0.933349609	891.52	-1.56609184	3.184047202	-119.6045431	-71
55800	0	-0.018096924	-0.010158539	0.400635719	0.999999046	1.24E-05	6.48E-05	7.92E-05	-0.452423096	-0.25396347	10.01589298	0.000619888	0.003242493	0.003957748	-0.288330078	0.614990234	-0.933349609	891.52	-1.567633146	3.190140348	-119.6073672	-71
55801	0	-0.017883301	-0.010498047	0.400939941	0.999999046	0.000102997	4.29E-05	0.000156403	-0.44708252	-0.262451172	10.02349854	0.005149841	0.002145767	0.007820129	-0.288330078	0.614990234	-0.927490234	891.64	-1.558268489	3.193874206	-119.6011695	-71
55802	0	-0.018408775	-0.010532379	0.398925781	1	3.72E-05	-4.77E-06	-3.81E-06	-0.460219383	-0.263309479	9.973144531	0.001859665	-0.000238419	-0.000190735	-0.288330078	0.614990234	-0.927490234	891.54	-1.557440952	3.191591264	-119.6131797	-71
55803	0	-0.019348145	-0.010742188	0.399963379	0.999999046	0.000110626	0.000195503	9.16E-05	-0.483703613	-0.268554688	9.999084473	0.005531311	0.009775162	0.004577637	-0.288330078	0.614990234	-0.933349609	891.6	-1.547615786	3.21253845	-119.6151661	-71
55804	0	-0.01926136	-0.009490967	0.398492813	0.999999046	0.000100136	0.000257492	2.19E-05	-0.481534004	-0.23727417	9.962320328	0.00500679	0.012874603	0.001096725	-0.288330078	0.612792969	-0.930175781	891.54	-1.53938796	3.240356276	-119.6258258	-71
55805	0	-0.020568848	-0.009887695	0.401062012	0.999999046	-8.01E-05	6.20E-05	0.000160217	-0.514221191	-0.247192383	10.02655029	-0.004005432	0.003099442	0.008010864	-0.285888672	0.612548828	-0.933349609	891.52	-1.550839139	3.246240424	-119.6192744	-71
55806	0	-0.020682335	-0.010800362	0.401240349	0.999999046	5.15E-05	-5.15E-05	0.000121117	-0.517058372	-0.270009041	10.03100872	0.002574921	-0.002574921	0.006055832	-0.288330078	0.614746094	-0.936279297	891.64	-1.54744304	3.239039995	-119.6174072	-71
55807	0	-0.020324707	-0.010498047	0.400390625	0.999999046	9.16E-05	-4.10E-05	6.10E-05	-0.508117676	-0.262451172	10.00976563	0.004577637	-0.0020504	0.003051758	-0.285888672	0.614746094	-0.936279297	891.58	-1.539831132	3.232878077	-119.6213706	-71
55808	0	-0.019438744	-0.009690285	0.400332451	1	-3.81E-06	-1.43E-05	4.96E-05	-0.48596859	-0.242257118	10.00831127	-0.000190735	-0.000715256	0.002479553	-0.285888672	0.612548828	-0.933349609	891.64	-1.543173914	3.229718713	-119.627236	-71
55809	0	-0.019104004	-0.010253906	0.399902344	0.999999046	4.20E-05	-0.000170708	8.01E-05	-0.477600098	-0.256347656	9.997558594	0.002098084	-0.008535385	0.004005432	-0.285888672	0.614746094	-0.933349609	891.64	-1.541021326	3.208702571	-119.6285021	-71
55810	0	-0.019334793	-0.009485245	0.399298668	0.999999046	3.24E-05	-0.000112534	5.63E-05	-0.483369827	-0.237131119	9.982466698	0.001621246	-0.005626678	0.002813339	-0.285888672	0.614746094	-0.933349609	891.64	-1.540063497	3.19426364	-119.6326928	-71
55811	0	-0.020263672	-0.00970459	0.399658203	0.999999046	-1.91E-05	5.44E-05	0.00012207	-0.506591797	-0.242614746	9.991455078	-0.000953674	0.002717972	0.006103516	-0.285888672	0.612548828	-0.930419922	891.58	-1.544568131	3.199183182	-119.630479	-71
55812	0	-0.019699097	-0.010264397	0.400143623	0.999999046	6.39E-05	-4.01E-05	0.000164032	-0.492477417	-0.256609917	10.00359058	0.003194809	-0.002002716	0.008201599	-0.283447266	0.614746094	-0.93359375	891.6	-1.539257996	3.193423001	-119.6217328	-71
55813	0	-0.020629883	-0.010742188	0.399780273	0.999999046	3.81E-06	-9.06E-05	5.34E-05	-0.51574707	-0.268554688	9.994506836	0.000190735	-0.004529953	0.002670288	-0.285888672	0.614746094	-0.933349609	891.6	-1.541540621	3.181587109	-119.6266702	-71
55814	0	-0.01964283	-0.010127068	0.399905205	0.999999046	-0.00012207	-0.000114441	4.96E-05	-0.491070747	-0.253176689	9.997630119	-0.006103516	-0.005722046	0.002479553	-0.285888672	0.612548828	-0.930419922	891.6	-1.558242735	3.167015157	-119.6324383	-72
55815	0	-0.019226074	-0.010375977	0.400085449	0.999999046	1.14E-05	-2.57E-05	0.000144958	-0.480651855	-0.259399414	10.00213623	0.000572205	-0.00128746	0.007247925	-0.285888672	0.614746094	-0.933349609	891.58	-1.55903644	3.162890523	-119.6271027	-71
55816	0	-0.01939106	-0.009812355	0.400208473	0.999999046	8.11E-05	1.91E-06	0.000155449	-0.484776497	-0.245308876	10.00521183	0.004053116	9.54E-05	0.007772446	-0.285888672	0.614746094	-0.933349609	891.6	-1.551745063	3.161967188	-119.6207149	-71
55817	0	-0.01953125	-0.010925293	0.399902344	0.999999046	3.05E-05	2.00E-05	6.10E-05	-0.48828125	-0.273132324	9.997558594	0.001525879	0.001001358	0.003051758	-0.286132813	0.614746094	-0.927734375	891.64	-1.550860463	3.162835356	-119.6251788	-71
55818	0	-0.019792557	-0.010166168	0.399962425	0.999999046	6.10E-05	0.000116348	-9.54E-07	-0.494813919	-0.254154205	9.999060631	0.003051758	0.005817413	-4.77E-05	-0.283691406	0.614746094	-0.930664063	891.54	-1.54686164	3.174567518	-119.6360748	-71
55819	0	-0.018676758	-0.010009766	0.39855957	0.999999046	-3.05E-05	0.000248909	-1.91E-05	-0.466918945	-0.250244141	9.963989258	-0.001525879	0.01244545	-0.000953674	-0.285888672	0.614746094	-0.930664063	891.58	-1.553469762	3.201391858	-119.6507931	-71
55820	0	-0.020218849	-0.009119987	0.401599884	0.999999046	0.000185966	9.73E-05	0.000221252	-0.50547123	-0.227999687	10.0399971	0.009298325	0.004863739	0.011062622	-0.285888672	0.614746094	-0.933349609	891.52	-1.533627571	3.211615349	-119.6376473	-72
55821	0	-0.020751953	-0.010070801	0.401000977	0.999999046	1.53E-05	-3.34E-05	7.63E-05	-0.518798828	-0.25177002	10.02502441	0.000762939	-0.00166893	0.003814697	-0.288330078	0.614746094	-0.936279297	891.6	-1.534236603	3.206474746	-119.6419715	-71
55822	0	-0.021092415	-0.010421753	0.401185036	1	-8.58E-06	-2.96E-05	7.53E-05	-0.527310371	-0.260543823	10.02962589	-0.000429153	-0.001478195	0.003767014	-0.285888672	0.612548828	-0.936279297	891.54	-1.537579101	3.201835486	-119.6456681	-71
55823	0	-0.020446777	-0.00970459	0.402404785	0.999999046	0.000102997	-0.000231743	9.92E-05	-0.511169434	-0.242614746	10.06011963	0.005149841	-0.011587143	0.004959107	-0.285888672	0.614746094	-0.933349609	891.54	-1.5279032	3.174140976	-119.6449429	-71
55824	0	-0.019956589	-0.009069443	0.402049065	0.999999046	-7.34E-05	-9.16E-05	-4.20E-05	-0.498914719	-0.226736069	10.05122662	-0.003671646	-0.004577637	-0.002098084	-0.288330078	0.614990234	-0.933349609	891.58	-1.539295153	3.162087999	-119.6619216	-71
55825	0	-0.020629883	-0.00970459	0.400512695	0.999999046	-4.20E-05	-0.000247002	0.000102997	-0.51574707	-0.242614746	10.01281738	-0.002098084	-0.012350083	0.005149841	-0.285888672	0.614746094	-0.933349609	891.58	-1.546094256	3.132731957	-119.6603362	-71
55826	0	-0.02025032	-0.00839138	0.400155067	0.999999046	1.91E-06	-0.000352859	2.57E-05	-0.506258011	-0.209784508	10.00387669	9.54E-05	-0.017642975	0.00128746	-0.285888672	0.612548828	-0.927490234	891.58	-1.548224724	3.091059888	-119.6674192	-71
55827	0	-0.020202637	-0.010131836	0.400695801	0.999999046	-4.96E-05	-0.000422478	9.16E-05	-0.505065918	-0.253295898	10.01739502	-0.002479553	-0.021123887	0.004577637	-0.288330078	0.614990234	-0.930419922	891.66	-1.555819622	3.041674989	-119.6670891	-71
55828	0	-0.019316673	-0.010229111	0.399795532	0.999999046	-1.24E-05	-0.000511169	6.68E-06	-0.482916832	-0.255727768	9.994888306	-0.000619888	-0.025558473	0.000333786	-0.288330078	0.612548828	-0.933105469	891.58	-1.559637847	2.981897968	-119.6765417	-71
55829	0	-0.019042969	-0.010070801	0.398620605	0.999999046	-0.00012207	-0.000540733	5.34E-05	-0.476074219	-0.25177002	9.965515137	-0.006103516	-0.027036668	0.002670288	-0.288330078	0.614990234	-0.933349609	891.6	-1.575710312	2.918921571	-119.6792608	-71
55830	0	-0.017696381	-0.010106087	0.399125099	0.999999046	-0.000106812	-0.000432968	9.16E-05	-0.442409515	-0.252652168	9.97812748	-0.005340576	-0.021648408	0.004577637	-0.285888672	0.614746094	-0.930664063	891.58	-1.589799598	2.868403097	-119.6762636	-71
55831	0	-0.017333984	-0.010375977	0.399108887	0.999999046	-6.48E-05	-0.000384331	-3.81E-05	-0.433349609	-0.259399414	9.977722168	-0.003242493	-0.019216538	-0.001907349	-0.290771484	0.614990234	-0.933105469	891.54	-1.599816679	2.823033792	-119.6908886	-71
55832	0	-0.018185616	-0.010368347	0.399853706	0.999999046	-7.92E-05	-0.000494003	7.15E-05	-0.454640388	-0.259208679	9.996342659	-0.003957749	-0.024700166	0.003576279	-0.290771484	0.614990234	-0.930419922	891.54	-1.610808729	2.765502008	-119.6920152	-71
55833	0	-0.01739502	-0.010925293	0.399230957	0.999999046	1.91E-05	-0.000491142	5.34E-05	-0.434875488	-0.273132324	9.980773926	0.000953674	-0.024557115	0.002670288	-0.290527344	0.612792969	-0.933105469	891.66	-1.610649531	2.708270185	-119.6954337	-71
55834	0	-0.0172472	-0.01054287	0.40004158	0.999999046	-9.92E-05	-0.000411987	0.000110626	-0.43118	-0.263571739	10.00103951	-0.004959107	-0.020599366	0.005531311	-0.29296875	0.614990234	-0.933105469	891.6	-1.623729398	2.660330524	-119.6929445	-71
55835	0	-0.016845703	-0.010498047	0.399475098	0.999999046	-0.0001297	-0.000407219	-2.67E-05	-0.421142578	-0.262451172	9.986877441	-0.006484986	-0.020360947	-0.001335144	-0.29296875	0.612792969	-0.929931641	891.6	-1.641013472	2.612527103	-119.7064099	-71
55836	0	-0.016641617	-0.010663986	0.399607658	0.999999046	-6.01E-05	-0.000406265	7.92E-05	-0.416040421	-0.266599655	9.99019146	-0.003004074	-0.020313264	0.003957749	-0.293212891	0.614990234	-0.927246094	891.6	-1.649741025	2.565221921	-119.7065892	-71
55837	0	-0.015869141	-0.010742188	0.398986816	0.999999046	-6.48E-05	-0.000357628	0.000102997	-0.396728516	-0.268554688	9.97467041	-0.003242493	-0.017881394	0.005149841	-0.293212891	0.614990234	-0.930175781	891.66	-1.658885009	2.523587454	-119.7040599	-71
55838	0	-0.015707016	-0.01140213	0.400522232	0.999999046	-0.000162125	-0.000213623	-7.63E-06	-0.3926754	-0.285053253	10.0130558	-0.008106232	-0.010681152	-0.00038147	-0.295654297	0.615234375	-0.927246094	891.54	-1.67976876	2.498101524	-119.7159118	-71
55839	0	-0.015808105	-0.012023926	0.398620605	0.999999046	-5.72E-05	-2.96E-05	-8.39E-05	-0.395202637	-0.300598145	9.965515137	-0.002861023	-0.001478195	-0.004196167	-0.293212891	0.614990234	-0.927246094	891.7	-1.689072752	2.493480206	-119.7355032	-70
55840	0	-0.014622688	-0.01072979	0.397643089	0.999999046	-6.20E-05	0.000127792	-7.63E-05	-0.365567207	-0.268244743	9.941077232	-0.003099442	0.006389618	-0.003814697	-0.295654297	0.615234375	-0.924316406	891.52	-1.698883155	2.506888187	-119.7562901	-71
55841	0	-0.016784668	-0.011230469	0.402038574	0.999999046	-2.29E-05	-0.000136375	0.000167847	-0.419616699	-0.280761719	10.05096436	-0.001144409	-0.006818771	0.008392334	-0.293212891	0.617431641	-0.927490234	891.6	-1.70293699	2.490946631	-119.7458216	-71
55842	0	-0.01722908	-0.012647629	0.399845123	0.999999046	5.53E-05	-0.000318527	1.05E-05	-0.430727005	-0.31619072	9.996128082	0.002765656	-0.015926361	0.000524521	-0.295654297	0.615234375	-0.924316406	891.58	-1.698850603	2.453715136	-119.7547997	-71
55843	0	-0.016479492	-0.011474609	0.399108887	0.999999046	-0.000106812	-0.000174522	4.96E-05	-0.411987305	-0.286865234	9.977722168	-0.005340576	-0.00872612	0.002479553	-0.295654297	0.617431641	-0.930175781	891.66	-1.713169338	2.433195275	-119.7590206	-71
55844	0	-0.016645432	-0.011376381	0.400271416	0.999999046	7.72E-05	-0.000169754	0.000128746	-0.416135788	-0.284409523	10.00678539	0.003862381	-0.008487701	0.006437302	-0.295654297	0.615234375	-0.924316406	891.58	-1.706004112	2.41358669	-119.7546743	-70
55845	0	-0.015563965	-0.010925293	0.399719238	0.999999046	-8.39E-05	-9.44E-05	5.34E-05	-0.389099121	-0.273132324	9.992980957	-0.004196167	-0.004720688	0.002670288	-0.295654297	0.615234375	-0.924316406	891.7	-1.717654905	2.402395747	-119.7591818	-71
55846	0	-0.015062332	-0.012089729	0.399291992	0.999999046	-0.000139236	-6.87E-05	3.81E-06	-0.376558304	-0.302243233	9.982299805	-0.006961823	-0.003433228	0.000190735	-0.295410156	0.615234375	-0.930175781	891.58	-1.735913306	2.394005504	-119.7695205	-70
55847	0	-0.015197754	-0.011230469	0.398010254	0.999999046	-3.81E-06	3.15E-05	1.53E-05	-0.379943848	-0.280761719	9.950256348	-0.000190735	0.001573563	0.000762939	-0.295654297	0.615234375	-0.924316406	891.6	-1.738591989	2.397158557	-119.7788282	-71
55848	0	-0.016077042	-0.012026787	0.398130417	0.999999046	4.86E-05	2.10E-05	0.000171661	-0.401926041	-0.30066967	9.953260422	0.00243187	0.001049042	0.008583069	-0.295654297	0.617431641	-0.924560547	891.64	-1.734527549	2.399731928	-119.7693743	-71
55849	0	-0.016174316	-0.012268066	0.399902344	0.999999046	8.77E-05	-7.15E-05	4.96E-05	-0.40435791	-0.30670166	9.997558594	0.004386902	-0.003576279	0.002479553	-0.295654297	0.617431641	-0.921630859	891.58	-1.726584633	2.391362916	-119.7733395	-71
55850	0	-0.015629768	-0.011464119	0.399173737	0.999999046	3.62E-05	-4.77E-05	3.43E-05	-0.390744209	-0.286602974	9.979343414	0.001811981	-0.002384186	0.001716614	-0.293212891	0.614990234	-0.927246094	891.54	-1.724610137	2.385724258	-119.7785424	-70
55851	0	-0.015686035	-0.011108398	0.401428223	0.999999046	0.00018692	-1.81E-05	9.92E-05	-0.392150879	-0.277709961	10.03570557	0.009346008	-0.000905991	0.004959106	-0.293212891	0.617431641	-0.927490234	891.64	-1.705033672	2.383746322	-119.7752735	-71
55852	0	-0.015978813	-0.010955811	0.400882721	0.999999046	0.000157356	1.72E-05	4.10E-05	-0.399470329	-0.273895264	10.02206802	0.007867813	0.000858307	0.0020504	-0.295654297	0.617431641	-0.927246094	891.58	-1.689102999	2.385677322	-119.7807386	-71
55853	0	-0.016540527	-0.011291504	0.399902344	0.999999046	6.87E-05	5.82E-05	-1.91E-05	-0.413513184	-0.282287598	9.997558594	0.003433228	0.002908707	-0.000953674	-0.295654297	0.617431641	-0.927246094	891.6	-1.683626206	2.392197937	-119.7932059	-71
55854	0	-0.015731812	-0.010505676	0.400816917	0.999999046	8.96E-05	-9.16E-05	8.77E-05	-0.393295288	-0.262641907	10.02042294	0.004482269	-0.004577637	0.004386902	-0.295654297	0.615234375	-0.924316406	891.54	-1.675172843	2.381974468	-119.7936979	-71
55855	0	-0.016113281	-0.011291504	0.400695801	0.999999046	-6.10E-05	6.20E-05	7.63E-06	-0.402832031	-0.282287598	10.01739502	-0.003051758	0.003099442	0.00038147	-0.295654297	0.615234375	-0.924316406	891.58	-1.684392452	2.389136771	-119.8039875	-71
55856	0	-0.014759064	-0.010790825	0.39837265	0.999999046	7.53E-05	0.000226974	0.000110626	-0.368976593	-0.269770622	9.959316254	0.003767014	0.011348724	0.005531311	-0.293212891	0.617431641	-0.927490234	891.7	-1.677489946	2.415543876	-119.8003843	-71
55857	0	-0.016296387	-0.010864258	0.400146484	0.999999046	9.16E-05	0.000309944	0.000167847	-0.407409668	-0.271606445	10.00366211	0.004577637	0.015497208	0.008392334	-0.293212891	0.6171875	-0.933349609	891.64	-1.668446065	2.451709939	-119.7915955	-71
55858	0	-0.017708778	-0.012005806	0.401540756	0.999999046	0.000230789	2.48E-05	0.000137329	-0.44271946	-0.300145149	10.03851891	0.011539459	0.001239777	0.006866455	-0.293212891	0.617431641	-0.927490234	891.54	-1.643594612	2.455229757	-119.7849207	-71
55859	0	-0.017150879	-0.011230469	0.40032959	0.999999046	2.29E-05	5.82E-05	-1.53E-05	-0.428771973	-0.280761719	10.00823975	0.001144409	0.002908707	-0.000762939	-0.293212891	0.614990234	-0.930175781	891.58	-1.643334664	2.462158549	-119.7973187	-71
55860	0	-0.016708374	-0.010786057	0.400022507	0.999999046	3.34E-05	0.000127792	1.05E-05	-0.417709351	-0.269651413	10.00056267	0.00166893	0.006389618	0.000524521	-0.290771484	0.614990234	-0.927490234	891.66	-1.641743636	2.477209679	-119.8048055	-71
55861	0	-0.015930176	-0.010864258	0.40032959	0.999999046	3.05E-05	7.72E-05	-5.34E-05	-0.398254395	-0.271606445	10.00823975	0.001525879	0.003862381	-0.002670288	-0.293212891	0.6171875	-0.930419922	891.66	-1.640787121	2.486276117	-119.8207461	-71
55862	0	-0.016234398	-0.010537148	0.400022507	0.999999046	2.10E-05	7.25E-05	0.000151634	-0.405859947	-0.263428688	10.00056267	0.001049042	0.003623962	0.007581711	-0.293212891	0.6171875	-0.930419922	891.58	-1.639881845	2.495496486	-119.813475	-71
55863	0	-0.016540527	-0.010986328	0.400085449	0.999999046	5.72E-05	8.11E-05	-3.05E-05	-0.413513184	-0.274658203	10.00213623	0.002861023	0.004053116	-0.001525879	-0.293212891	0.614990234	-0.927246094	891.6	-1.635737576	2.505141489	-119.828132	-71
55864	0	-0.017092705	-0.010759354	0.400083542	0.999999046	0.000132561	0.000244141	0.000102043	-0.427317619	-0.268983841	10.00208855	0.006628037	0.012207031	0.005102158	-0.293212891	0.614990234	-0.930175781	891.58	-1.622311823	2.53396277	-119.8286337	-71
55865	0	-0.01739502	-0.010253906	0.399780273	0.999999046	8.01E-05	2.77E-05	0.000167847	-0.434875488	-0.256347656	9.994506836	0.004005432	0.001382828	0.008392334	-0.290771484	0.614990234	-0.930419922	891.6	-1.61450062	2.538267162	-119.8186931	-71
55866	0	-0.017420769	-0.010367393	0.40020752	0.999999046	0.000133514	0.000101089	2.57E-05	-0.435519218	-0.259184837	10.00518799	0.00667572	0.005054474	0.00128746	-0.290771484	0.614990234	-0.930419922	891.64	-1.601282148	2.550588266	-119.8253535	-71
55867	0	-0.018005371	-0.010192871	0.400024414	0.999999046	0.000110626	7.72E-05	0.000144958	-0.450134277	-0.254821777	10.00061035	0.005531311	0.003862381	0.007247925	-0.290771484	0.612792969	-0.927246094	891.6	-1.590052973	2.560647715	-119.8195463	-71
55868	0	-0.017032623	-0.010527611	0.39990139	0.999999046	7.34E-05	7.44E-05	7.53E-05	-0.425815582	-0.263190269	9.997534752	0.003671646	0.00371933	0.003767014	-0.288574219	0.6171875	-0.924804688	891.64	-1.583435299	2.570192286	-119.8170149	-71
55869	0	-0.017944336	-0.010314941	0.399719238	0.999999046	0.000141144	0.000123024	0.000144958	-0.448608398	-0.257873535	9.992980957	0.00705719	0.006151199	0.007247925	-0.290771484	0.614990234	-0.933105469	891.6	-1.568701784	2.585601312	-119.811027	-71
55870	0	-0.01786232	-0.010868073	0.400999069	0.999999046	0.000118256	0.000143051	6.77E-05	-0.446557999	-0.271701813	10.02497673	0.005912781	0.007152557	0.003385544	-0.290771484	0.612792969	-0.930175781	891.64	-1.557016557	2.603121841	-119.815233	-71
55871	0	-0.018066406	-0.010253906	0.399902344	0.999999046	3.81E-05	0.0001688	0.000133514	-0.451660156	-0.256347656	9.997558594	0.001907349	0.008440018	0.00667572	-0.288330078	0.614990234	-0.930419922	891.6	-1.554164504	2.623864057	-119.8085845	-71
55872	0	-0.017456055	-0.010986328	0.3984375	0.999999046	1.24E-05	0.000312805	2.29E-05	-0.436401367	-0.274658203	9.9609375	0.000619888	0.015640259	0.001144409	-0.288574219	0.6171875	-0.930664063	891.58	-1.554902826	2.660786876	-119.8146706	-71
55873	0	-0.017552376	-0.010355949	0.399147987	0.999998093	4.48E-05	0.000432968	4.10E-05	-0.438809395	-0.258898735	9.978699684	0.002241135	0.021648408	0.0020504	-0.288330078	0.612792969	-0.930175781	891.58	-1.55185807	2.711547813	-119.8222973	-71
55874	0	-0.019357681	-0.009986877	0.402493477	0.999999046	0.000211716	0.000207901	0.00018692	-0.483942032	-0.249671936	10.06233692	0.010585785	0.01039505	0.009346008	-0.288330078	0.612548828	-0.933105469	891.6	-1.528845764	2.737061623	-119.8131773	-71
55875	0	-0.020385742	-0.010681152	0.401794434	0.999999046	0.000179291	8.87E-05	6.48E-05	-0.509643555	-0.267028809	10.04486084	0.008964539	0.004434586	0.003242493	-0.285888672	0.614746094	-0.933349609	891.66	-1.510219327	2.748672981	-119.8136985	-71
55876	0	-0.020824432	-0.009924889	0.400938988	0.999999046	9.82E-05	0.000164032	0.000185966	-0.520610809	-0.248122215	10.02347469	0.004911423	0.008201599	0.009298325	-0.285888672	0.614746094	-0.933349609	891.66	-1.500219412	2.769422877	-119.801109	-71
55877	0	-0.020019531	-0.009399414	0.40032959	0.999999046	0.000152588	6.20E-05	6.10E-05	-0.500488281	-0.234985352	10.00823975	0.007629395	0.003099442	0.003051758	-0.285888672	0.612548828	-0.930419922	891.64	-1.484638745	2.77820028	-119.8037741	-72
55878	0	-0.018727303	-0.00872612	0.399902344	0.999999046	6.29E-05	2.67E-05	0.000155449	-0.468182564	-0.218153	9.997558594	0.003147125	0.001335144	0.007772446	-0.288330078	0.612792969	-0.930175781	891.6	-1.478746854	2.783237417	-119.7982041	-71
55879	0	-0.019165039	-0.00958252	0.398803711	0.999999046	3.81E-06	8.58E-06	0.000164032	-0.479125977	-0.239562988	9.970092773	0.000190735	0.000429153	0.008201599	-0.285888672	0.612548828	-0.936279297	891.6	-1.479570447	2.786269271	-119.7896352	-72
55880	0	-0.019784927	-0.009695053	0.39977932	0.999999046	5.05E-05	0.000150681	4.86E-05	-0.494623184	-0.242376328	9.994482994	0.002527237	0.007534027	0.00243187	-0.285888672	0.612548828	-0.930419922	891.64	-1.47570038	2.805309207	-119.794564	-72
55881	0	-0.020141602	-0.010192871	0.400268555	0.999999046	6.87E-05	1.24E-05	2.29E-05	-0.503540039	-0.254821777	10.00671387	0.003433228	0.000619888	0.001144409	-0.285888672	0.614746094	-0.930664063	891.64	-1.469901131	2.808513345	-119.8005288	-71
55882	0	-0.020274162	-0.009527206	0.399963379	0.999999046	-5.91E-05	-2.29E-05	0.000160217	-0.506854057	-0.238180161	9.999084473	-0.00295639	-0.001144409	0.008010864	-0.285888672	0.612548828	-0.933349609	891.64	-1.477961561	2.808163141	-119.792605	-71
55883	0	-0.020812988	-0.00970459	0.399169922	0.999999046	5.72E-05	-0.000151634	7.63E-05	-0.520324707	-0.242614746	9.979248047	0.002861023	-0.007581711	0.003814697	-0.281005859	0.612304688	-0.93359375	891.54	-1.473135888	2.792930239	-119.7881361	-72
55884	0	-0.02038765	-0.009839058	0.40003109	0.999999046	7.72E-05	-9.92E-05	0.000178337	-0.509691238	-0.245976448	10.00077724	0.003862381	-0.004959106	0.008916855	-0.285888672	0.614746094	-0.933349609	891.6	-1.465462019	2.784094293	-119.7762859	-71
55885	0	-0.019836426	-0.009338379	0.401184082	0.999999046	-5.34E-05	-0.00014782	6.48E-05	-0.495910645	-0.233459473	10.02960205	-0.002670288	-0.007390976	0.003242493	-0.285888672	0.614746094	-0.930664063	891.64	-1.473366495	2.769413141	-119.7769617	-71
55886	0	-0.0200243	-0.009195328	0.400577545	0.999998093	4.77E-06	-0.000256538	0.000121117	-0.500607491	-0.229883194	10.01443863	0.000238419	-0.01282692	0.006055832	-0.285644531	0.610351563	-0.936035156	891.58	-1.474251969	2.742516883	-119.773669	-71
55887	0	-0.020629883	-0.009094238	0.40246582	0.999999046	-7.25E-05	-0.000361443	0.000137329	-0.51574707	-0.227355957	10.06164551	-0.003623962	-0.018072129	0.006866455	-0.285888672	0.612548828	-0.933349609	891.6	-1.483851712	2.703760561	-119.7662024	-71
55888	0	-0.020953178	-0.010123253	0.400587082	0.999999046	-9.25E-05	-0.000431061	8.39E-05	-0.52382946	-0.253081322	10.01467705	-0.004625321	-0.02155304	0.004196167	-0.285888672	0.612548828	-0.933349609	891.64	-1.496043609	2.657011296	-119.7639366	-71
55889	0	-0.018676758	-0.00982666	0.398193359	0.999999046	-3.43E-05	-0.000227928	-0.000118256	-0.466918945	-0.245666504	9.954833984	-0.001716614	-0.011396408	-0.005912781	-0.285888672	0.612548828	-0.930419922	891.66	-1.502666314	2.632968609	-119.7845352	-71
55890	0	-0.017943382	-0.009309769	0.397894859	0.999999046	-0.000110626	-0.000265121	5.72E-05	-0.448584557	-0.232744217	9.947371483	-0.005531311	-0.013256073	0.002861023	-0.288330078	0.612792969	-0.930175781	891.76	-1.517069619	2.605204063	-119.7874118	-71
55891	0	-0.018737793	-0.009338379	0.401184082	0.999999046	-4.20E-05	-0.000296593	0.000209808	-0.468444824	-0.233459473	10.02960205	-0.002098084	-0.014829636	0.010490418	-0.288330078	0.612548828	-0.933105469	891.7	-1.522772491	2.574353445	-119.7728063	-71
55892	0	-0.020274162	-0.011134148	0.401316643	0.999999046	-9.54E-07	-0.000303268	6.01E-05	-0.506854057	-0.278353691	10.03291607	-4.77E-05	-0.015163422	0.003004074	-0.288330078	0.614990234	-0.930419922	891.7	-1.524602447	2.542426625	-119.7726866	-71
55893	0	-0.020141602	-0.010742188	0.400085449	0.999999046	-6.87E-05	-0.000369072	4.96E-05	-0.503540039	-0.268554688	10.00213623	-0.003433228	-0.018453598	0.002479553	-0.290771484	0.614990234	-0.927490234	891.72	-1.534269195	2.503075652	-119.7758123	-71
55894	0	-0.018565178	-0.010551453	0.400525093	0.999999046	-0.000219345	-0.000415802	5.34E-05	-0.464129448	-0.263786316	10.01312733	-0.010967255	-0.020790101	0.002670288	-0.290771484	0.614990234	-0.933105469	891.6	-1.561193269	2.458458023	-119.7781636	-71
55895	0	-0.017028809	-0.010986328	0.399780273	0.999999046	-0.000167847	-0.000300407	-6.48E-05	-0.425720215	-0.274658203	9.994506836	-0.008392334	-0.015020371	-0.003242493	-0.290771484	0.614990234	-0.930419922	891.64	-1.582838139	2.426698857	-119.7935603	-71
55896	0	-0.016726494	-0.010085106	0.399298668	0.999999046	-1.62E-05	-0.000205994	-0.000100136	-0.418162346	-0.252127647	9.982466698	-0.000810623	-0.010299683	-0.00500679	-0.290771484	0.614990234	-0.927490234	891.6	-1.58726012	2.405649257	-119.8123612	-71
55897	0	-0.01776123	-0.010131836	0.400268555	0.999999046	0.0001297	-0.000197411	0.000144958	-0.444030762	-0.253295898	10.00671387	0.006484985	-0.009870529	0.007247925	-0.290771484	0.6171875	-0.927490234	891.54	-1.573758526	2.386427706	-119.8010118	-71
55898	0	-0.018277168	-0.012403488	0.401499748	0.999999046	0.000150681	-0.000421524	0.000114441	-0.456929207	-0.310087204	10.03749371	0.007534027	-0.021076203	0.005722046	-0.293212891	0.614990234	-0.927246094	891.58	-1.558072233	2.341532207	-119.7964734	-71
55899	0	-0.018798828	-0.011230469	0.401306152	0.999999046	0.00012207	-0.000590324	8.77E-05	-0.469970703	-0.280761719	10.03265381	0.006103516	-0.029516222	0.004386902	-0.290771484	0.614990234	-0.927490234	891.6	-1.545809163	2.277355084	-119.7896714	-71
55900	0	-0.016923904	-0.009848595	0.399924278	0.999999046	-0.000142097	-0.000511169	0	-0.42309761	-0.246214867	9.998106956	-0.007104874	-0.025558473	0	-0.293212891	0.614990234	-0.927246094	891.6	-1.564200302	2.22203524	-119.7955167	-71
55901	0	-0.016479492	-0.00958252	0.400390625	0.999999046	-6.48E-05	-0.000426292	-7.63E-06	-0.411987305	-0.239562988	10.00976563	-0.003242493	-0.021314622	-0.00038147	-0.293212891	0.614990234	-0.927246094	891.54	-1.573730169	2.176469962	-119.8015046	-71
55902	0	-0.016138077	-0.00890255	0.400219917	0.999999046	-0.000144958	-0.000444412	1.91E-05	-0.40345192	-0.222563744	10.00549793	-0.007247925	-0.022220612	0.000953674	-0.29296875	0.612792969	-0.929931641	891.58	-1.592233844	2.128966545	-119.8051887	-71
55903	0	-0.015991211	-0.010375977	0.400146484	0.999999046	-7.25E-05	-0.000277519	-5.72E-05	-0.399780273	-0.259399414	10.00366211	-0.003623962	-0.013875962	-0.002861023	-0.297851563	0.615234375	-0.927001953	891.54	-1.602761413	2.100397371	-119.82206	-71
55904	0	-0.016012192	-0.011473656	0.399481773	0.999999046	-8.87E-05	-0.000167847	-9.54E-05	-0.400304794	-0.286841393	9.987044334	-0.004434586	-0.008392334	-0.004768372	-0.295654297	0.615234375	-0.927246094	891.6	-1.615354552	2.084340189	-119.8399281	-70
55905	0	-0.014953613	-0.010803223	0.398986816	0.999999046	-4.58E-05	-0.000117302	7.63E-06	-0.373840332	-0.270080566	9.97467041	-0.002288818	-0.005865097	0.00038147	-0.295654297	0.615234375	-0.924316406	891.6	-1.622607339	2.074427997	-119.8457096	-71
55906	0	-0.015226364	-0.011633873	0.399965286	0.999999046	-9.16E-05	-3.62E-05	4.96E-05	-0.380659103	-0.290846825	9.999132156	-0.004577637	-0.001811981	0.002479553	-0.295654297	0.615234375	-0.924316406	891.64	-1.634983577	2.073976177	-119.8471204	-71
55907	0	-0.015625	-0.012634277	0.40222168	0.999999046	1.91E-05	-0.000193596	-7.63E-06	-0.390625	-0.315856934	10.05554199	0.000953674	-0.009679794	-0.00038147	-0.295410156	0.615234375	-0.930175781	891.58	-1.634984823	2.055367697	-119.8541044	-71
55908	0	-0.016385078	-0.010788918	0.399970055	0.999999046	-6.39E-05	-0.000257492	6.10E-05	-0.409626961	-0.269722939	9.999251366	-0.003194809	-0.012874603	0.003051758	-0.295410156	0.613037109	-0.924072266	891.52	-1.644194073	2.029767577	-119.8540117	-71
55909	0	-0.016052246	-0.011779785	0.400024414	0.999999046	4.58E-05	-0.000227928	0.000102997	-0.401306152	-0.294494629	10.00061035	0.002288818	-0.011396408	0.005149841	-0.295654297	0.615234375	-0.924316406	891.54	-1.640706857	2.007784424	-119.8471854	-71
55910	0	-0.014831543	-0.010986328	0.399719238	0.999999046	-1.53E-05	-0.00025177	0.0001297	-0.370788574	-0.274658203	9.992980957	-0.000762939	-0.012588501	0.006484985	-0.297851563	0.615234375	-0.927001953	891.64	-1.644106276	1.98319382	-119.8404251	-70
55911	0	-0.014699936	-0.010852814	0.399066925	0.999997139	-3.43E-05	-0.000197411	2.29E-05	-0.367498398	-0.271320343	9.976673126	-0.001716614	-0.009870529	0.001144409	-0.297851563	0.615234375	-0.929931641	891.6	-1.650113446	1.964517108	-119.8458299	-70
55912	0	-0.014909744	-0.011043549	0.396382332	0.999999046	1.05E-05	-0.000207901	-2.38E-05	-0.372743607	-0.276088715	9.909558296	0.000524521	-0.01039505	-0.001192093	-0.300292969	0.615234375	-0.927001953	891.6	-1.651168882	1.944543352	-119.8593696	-71
55913	0	-0.015808105	-0.011413574	0.396911621	0.999999046	-3.43E-05	8.87E-05	-1.91E-05	-0.395202637	-0.285339355	9.922790527	-0.001716614	0.004434586	-0.000953674	-0.298095703	0.615234375	-0.924072266	891.64	-1.657395458	1.958668077	-119.8698587	-70
55914	0	-0.016182899	-0.011442184	0.398799896	0.999999046	7.44E-05	-0.000104904	0.000128746	-0.404572487	-0.286054611	9.969997406	0.00371933	-0.005245209	0.006437302	-0.297851563	0.615234375	-0.927001953	891.6	-1.650582865	1.951224344	-119.8624838	-71
55915	0	-0.014892578	-0.01171875	0.39855957	0.999999046	0.000209808	-4.10E-05	0.000156403	-0.372314453	-0.29296875	9.963989258	0.010490418	-0.0020504	0.007820129	-0.295410156	0.613037109	-0.924072266	891.64	-1.628184988	1.951241812	-119.8499918	-71
55916	0	-0.015412331	-0.011363029	0.400396347	0.999999046	0.000119209	0.000221252	0.000136375	-0.385308266	-0.284075737	10.00990868	0.005960465	0.011062622	0.006818771	-0.298095703	0.615234375	-0.924072266	891.66	-1.616297369	1.981306567	-119.8436604	-71
55917	0	-0.016174316	-0.010986328	0.402526855	0.999999046	5.34E-05	1.24E-05	0.0001297	-0.40435791	-0.274658203	10.06317139	0.002670288	0.000619888	0.006484985	-0.295654297	0.615234375	-0.924316406	891.64	-1.611952905	1.987522671	-119.8337656	-71
