Counter	Temperature	VelInc_X	VelInc_Y	VelInc_Z	OriInc_w	OriInc_x	OriInc_y	OriInc_z	Acc_X	Acc_Y	Acc_Z	Gyr_X	Gyr_Y	Gyr_Z	Mag_X	Mag_Y	Mag_Z	Pressure	Roll	Pitch	Yaw	RSSI
57227	0	0.389038086	0.047363281	0.05090332	0.999999046	-0.000236511	0.000252724	1.14E-05	9.725952148	1.184082031	1.272583008	-0.011825562	0.012636185	0.000572205	-0.894775391	0.505371094	-0.022949219	891.54	42.2842844	-79.56893963	-144.4741476	-55
57228	0	0.388217926	0.045680046	0.054354668	0.999999046	-0.000189781	0.000505447	1.14E-05	9.705448151	1.142001152	1.358866692	-0.00948906	0.025272371	0.000572205	-0.896972656	0.507568359	-0.031738281	891.44	42.06908892	-79.51707371	-144.2676399	-55
57229	0	0.388793945	0.047668457	0.05291748	0.999999046	-0.000167847	0.000409126	0	9.719848633	1.191711426	1.322937012	-0.008392334	0.020456315	0	-0.897216797	0.507568359	-0.025878906	891.52	41.90345659	-79.47243125	-144.1207944	-55
57230	0	0.387776375	0.048139572	0.049526215	0.999999046	-0.000652313	-1.91E-05	-0.00011158	9.69440937	1.203489304	1.238155365	-0.032615664	-0.000953674	-0.005578995	-0.896972656	0.505371094	-0.028564453	891.68	41.9113718	-79.45585813	-144.2013455	-55
57231	0	0.389038086	0.044372559	0.048950195	0.999999046	-0.000518799	5.82E-05	-6.48E-05	9.725952148	1.109313965	1.223754883	-0.025939943	0.002908707	-0.003242493	-0.899414063	0.505371094	-0.025634766	891.48	41.88156626	-79.43656589	-144.2331049	-55
57232	0	0.387560844	0.045102119	0.050993919	0.999999046	6.20E-05	-9.16E-05	-0.000161171	9.689021111	1.127552986	1.274847984	0.003099442	-0.004577637	-0.008058548	-0.899414063	0.505371094	-0.025634766	891.38	42.02361902	-79.42282362	-144.3716752	-55
57233	0	0.388244629	0.049133301	0.052246094	0.999999046	0.000453949	0.000138283	3.81E-05	9.706115723	1.22833252	1.306152344	0.02269745	0.006914139	0.001907349	-0.897216797	0.507568359	-0.025878906	891.56	42.02570531	-79.40477367	-144.3218507	-56
57234	0	0.389087677	0.04969883	0.051757813	0.999999046	-2.10E-05	7.63E-05	5.25E-05	9.727191925	1.242470741	1.293945313	-0.001049042	0.003814697	0.002622604	-0.896972656	0.503173828	-0.022705078	891.64	41.99309394	-79.39311014	-144.2995251	-55
57235	0	0.389038086	0.049377441	0.052978516	0.999999046	2.29E-05	-8.68E-05	0.000225067	9.725952148	1.234436035	1.324462891	0.001144409	-0.004339218	0.011253357	-0.897216797	0.505371094	-0.022949219	891.52	41.9541846	-79.40854704	-144.264346	-55
57236	0	0.387116432	0.049021721	0.054189682	0.999999046	1.62E-05	9.54E-06	0.000124931	9.677910805	1.225543022	1.35474205	0.000810623	0.000476837	0.006246567	-0.896972656	0.503173828	-0.025634766	891.48	41.92077198	-79.40802541	-144.2312489	-56
57237	0	0.387084961	0.050415039	0.054931641	0.999999046	7.63E-06	1.62E-05	0.000240326	9.677124023	1.260375977	1.373291016	0.00038147	0.000810623	0.012016297	-0.896972656	0.505371094	-0.025634766	891.62	41.83126707	-79.41560797	-144.1415886	-55
57238	0	0.387961388	0.049801826	0.054942131	0.999999046	-2.67E-05	0.000118256	5.63E-05	9.699034691	1.245045662	1.373553276	-0.001335144	0.005912781	0.002813339	-0.896972656	0.505371094	-0.028564453	891.54	41.78039749	-79.40027684	-144.0901055	-56
57239	0	0.38873291	0.048339844	0.056152344	0.999999046	2.29E-05	-2.86E-06	-0.000102997	9.718322754	1.208496094	1.403808594	0.001144409	-0.000143051	-0.005149841	-0.896972656	0.505371094	-0.028564453	891.58	41.85697802	-79.38302464	-144.1625361	-56
57240	0	0.389088631	0.048299789	0.053461075	0.999999046	0.000384331	6.10E-05	4.10E-05	9.727215767	1.207494736	1.336526871	0.019216538	0.003051758	0.0020504	-0.896972656	0.503173828	-0.028564453	891.58	41.88336851	-79.37133721	-144.143528	-56
57241	0	0.387634277	0.049682617	0.055236816	0.999999046	0.000518799	0.000294685	7.63E-05	9.690856934	1.24206543	1.38092041	0.025939943	0.014734269	0.003814697	-0.899414063	0.505371094	-0.025634766	891.58	41.81423676	-79.34229624	-144.019112	-56
57242	0	0.38602066	0.049803734	0.056815147	0.999999046	0.00056076	0.000356674	5.63E-05	9.65051651	1.245093346	1.420378685	0.028038027	0.017833711	0.002813339	-0.899414063	0.505371094	-0.028564453	891.52	41.73433334	-79.30622605	-143.8754916	-56
57243	0	0.387390137	0.050048828	0.056396484	0.999999046	0.000419617	0.00042057	8.77E-05	9.684753418	1.251220703	1.409912109	0.020980836	0.02102852	0.004386902	-0.89453125	0.502929688	-0.031494141	891.48	41.59916761	-79.26689915	-143.6884451	-55
57244	0	0.387900352	0.050027847	0.056923866	0.999999046	0.0002985	0.00047493	2.57E-05	9.697508812	1.250696182	1.423096657	0.014925004	0.023746492	0.00128746	-0.899169922	0.503173828	-0.028320313	891.52	41.45760258	-79.21798743	-143.5183509	-56
57245	0	0.388977051	0.050048828	0.056396484	0.999999046	0.000152588	0.000432014	4.20E-05	9.72442627	1.251220703	1.409912109	0.007629395	0.021600724	0.002098084	-0.896972656	0.503173828	-0.028564453	891.58	41.31057488	-79.17383036	-143.3603933	-56
57246	0	0.387530327	0.049788475	0.054700851	0.999999046	0.000255585	0.000349045	3.05E-05	9.688258171	1.244711876	1.367521286	0.012779236	0.017452241	0.001525879	-0.896972656	0.505371094	-0.028564453	891.56	41.21475617	-79.13588536	-143.2433763	-56
57247	0	0.388977051	0.048095703	0.0546875	0.999999046	6.87E-05	0.000401497	0.000102997	9.72442627	1.202392578	1.3671875	0.003433228	0.020074845	0.005149841	-0.899169922	0.503173828	-0.034179688	891.54	41.0453918	-79.09890002	-143.0650644	-56
57248	0	0.389918327	0.050524712	0.056091309	0.999999046	0.000180244	0.000501633	9.16E-05	9.747958183	1.26311779	1.402282715	0.009012223	0.025081636	0.004577637	-0.899169922	0.503173828	-0.037109375	891.54	40.85665552	-79.05225016	-142.850429	-56
57249	0	0.386962891	0.050964355	0.056884766	0.999999046	-1.91E-05	0.000546455	0.000286102	9.674072266	1.274108887	1.422119141	-0.000953674	0.027322771	0.014305116	-0.896728516	0.502929688	-0.037109375	891.56	40.54282355	-79.01598111	-142.5332622	-56
57250	0	0.38466835	0.049581528	0.059075356	0.999999046	-3.81E-06	0.000459671	0.000144958	9.616708755	1.239538193	1.476883888	-0.000190735	0.022983552	0.007247925	-0.896728516	0.505126953	-0.040283203	891.54	40.32901152	-78.97638151	-142.3109654	-56
57251	0	0.38671875	0.049499512	0.05682373	0.999999046	-0.000301361	0.00023365	8.01E-05	9.66796875	1.237487793	1.420593262	-0.015068055	0.011682511	0.004005432	-0.896728516	0.502929688	-0.034179688	891.52	40.19755221	-78.95161352	-142.2204876	-56
57252	0	0.385784149	0.050806046	0.057765961	0.999999046	-7.53E-05	0.00028801	5.72E-05	9.644603729	1.270151138	1.444149017	-0.003767014	0.014400482	0.002861023	-0.896728516	0.500732422	-0.036865234	891.52	40.08265914	-78.92026679	-142.1167042	-56
57253	0	0.386108398	0.04901123	0.058654785	0.999999046	-4.58E-05	3.15E-05	7.63E-06	9.652709961	1.225280762	1.466369629	-0.002288818	0.001573563	0.00038147	-0.896728516	0.502929688	-0.040039063	891.54	40.09025569	-78.90768599	-142.1271884	-56
57254	0	0.387448311	0.049243927	0.058438301	0.999999046	-1.91E-06	-8.58E-05	0.000117302	9.686207771	1.231098175	1.460957527	-9.54E-05	-0.004291534	0.005865097	-0.899169922	0.503173828	-0.040039063	891.52	40.09801329	-78.91345534	-142.133122	-56
57255	0	0.386169434	0.049865723	0.057006836	0.999999046	8.01E-05	-0.000109673	0.000164032	9.65423584	1.246643066	1.425170898	0.004005432	-0.005483627	0.008201599	-0.896728516	0.502929688	-0.040039063	891.52	40.10364739	-78.92475787	-142.1267362	-56
57256	0	0.386442184	0.050052643	0.058133125	0.999999046	8.11E-05	-0.000108719	0.000178337	9.661054611	1.251316071	1.453328133	0.004053116	-0.005435944	0.008916855	-0.896728516	0.505126953	-0.040283203	891.44	40.10285066	-78.93697689	-142.112428	-56
57257	0	0.385375977	0.050537109	0.059265137	0.999999046	0.000164032	-0.000178337	0.000179291	9.634399414	1.263427734	1.481628418	0.008201599	-0.008916855	0.008964539	-0.896728516	0.505126953	-0.040283203	891.52	40.13758484	-78.95523961	-142.1245735	-56
57258	0	0.386512756	0.050233841	0.058377266	0.999999046	-3.24E-05	-0.000312805	0.000225067	9.662818909	1.255846024	1.459431648	-0.001621246	-0.015640259	0.011253357	-0.899169922	0.505371094	-0.040039063	891.48	40.18053749	-78.98858322	-142.1681535	-57
57259	0	0.386474609	0.05090332	0.058837891	0.999999046	-0.00031662	-0.000445366	0.000202179	9.661865234	1.272583008	1.470947266	-0.015830995	-0.022268297	0.010108948	-0.899414063	0.505371094	-0.031494141	891.58	40.25234672	-79.03169969	-142.289672	-56
57260	0	0.38819313	0.049305916	0.056996346	0.999999046	-0.000451088	-0.000766754	4.48E-05	9.704828262	1.232647896	1.424908638	-0.022554401	-0.038337713	0.002241135	-0.896972656	0.505371094	-0.031494141	891.52	40.50462758	-79.09112956	-142.6061705	-56
57261	0	0.389221191	0.048522949	0.055236816	0.999999046	-0.000278473	-0.000769615	3.81E-05	9.730529785	1.21307373	1.38092041	-0.013923647	-0.038480763	0.001907349	-0.896972656	0.505371094	-0.034423828	891.58	40.78420615	-79.15011535	-142.9208254	-56
57262	0	0.388333321	0.048461914	0.055397034	0.999999046	-1.53E-05	-0.000841141	0.00014019	9.708333015	1.211547852	1.384925842	-0.00076294	-0.042057042	0.007009507	-0.899169922	0.503173828	-0.034179688	891.52	41.07942384	-79.22269722	-143.2195319	-56
57263	0	0.387207031	0.049743652	0.055908203	0.999999046	0.000213623	-0.000628471	0.000179291	9.680175781	1.243591309	1.397705078	0.010681153	-0.031423571	0.008964539	-0.896972656	0.503173828	-0.03125	891.48	41.30232007	-79.2795795	-143.4216894	-56
57264	0	0.387537956	0.048711777	0.054971695	0.999999046	0.000124931	-0.000551224	8.39E-05	9.688448906	1.217794418	1.374292374	0.006246567	-0.027561189	0.004196167	-0.899169922	0.503173828	-0.03125	891.46	41.52962815	-79.32244532	-143.6374914	-56
57265	0	0.389831543	0.049682617	0.053771973	0.999999046	0.000156403	-0.000441551	0.000114441	9.745788574	1.24206543	1.344299316	0.00782013	-0.022077561	0.005722046	-0.896972656	0.503173828	-0.025634766	891.68	41.70432136	-79.35811656	-143.8059271	-55
57266	0	0.388299942	0.048876762	0.050726891	0.999999046	0.000335693	-0.000219345	0.00014019	9.70749855	1.22191906	1.268172264	0.016784668	-0.010967255	0.007009506	-0.899169922	0.503173828	-0.028320313	891.52	41.79908294	-79.37681869	-143.8669174	-56
57267	0	0.388305664	0.047912598	0.054138184	0.999999046	0.000522614	-0.000266075	0.000198364	9.707641602	1.197814941	1.35345459	0.026130678	-0.013303758	0.009918214	-0.896972656	0.505371094	-0.028564453	891.48	41.90797072	-79.40396625	-143.9188507	-56
57268	0	0.388291359	0.047935486	0.05272007	0.999999046	0.000376701	-0.000299454	5.72E-05	9.707283974	1.198387146	1.318001747	0.018835068	-0.014972687	0.002861023	-0.896972656	0.505371094	-0.025634766	891.48	42.07869382	-79.42318257	-144.0564849	-56
57269	0	0.388549805	0.04888916	0.053161621	0.999999046	0.000484467	-0.000197411	0.000137329	9.713745117	1.222229004	1.329040527	0.024223329	-0.00987053	0.006866455	-0.896972656	0.503173828	-0.03125	891.48	42.18381506	-79.43984149	-144.1041356	-56
57270	0	0.388401031	0.047186852	0.054731369	0.999999046	0.00060463	-0.000230789	0.000151634	9.710025787	1.179671288	1.368284225	0.030231478	-0.01153946	0.007581711	-0.896972656	0.503173828	-0.025634766	891.52	42.30972953	-79.46042243	-144.1713145	-55
57271	0	0.388122559	0.049255371	0.053100586	0.999999046	0.000434875	-0.000117302	8.39E-05	9.703063965	1.231384277	1.327514648	0.021743775	-0.005865097	0.004196167	-0.896972656	0.503173828	-0.03125	891.52	42.40032067	-79.46613201	-144.2109091	-56
57272	0	0.388020515	0.049295425	0.05137825	0.999999046	0.000584602	-0.000125885	0.000136375	9.700512886	1.232385635	1.284456253	0.02923012	-0.006294251	0.006818772	-0.899169922	0.505371094	-0.034423828	891.54	42.4882831	-79.47665849	-144.2243469	-56
57273	0	0.387878418	0.049255371	0.052062988	0.999999046	0.000541687	-0.000151634	9.16E-05	9.696960449	1.231384277	1.301574707	0.027084352	-0.007581711	0.004577637	-0.896728516	0.500976563	-0.028320313	891.46	42.60285562	-79.48589626	-144.284559	-57
57274	0	0.388757706	0.050704002	0.051339149	0.999999046	0.000484467	-5.34E-05	0.00014019	9.718942642	1.26760006	1.283478737	0.024223329	-0.002670288	0.007009507	-0.896972656	0.505371094	-0.028564453	891.54	42.64843512	-79.49061124	-144.2800243	-56
57275	0	0.388244629	0.050842285	0.049987793	0.999999046	0.000148773	8.58E-06	2.29E-05	9.706115723	1.271057129	1.249694824	0.00743866	0.000429153	0.001144409	-0.899414063	0.503173828	-0.025390625	891.54	42.6837903	-79.48103209	-144.3125909	-56
57276	0	0.386170387	0.050168037	0.051626205	0.999999046	0.000159264	-0.000183105	0.000110626	9.654259682	1.254200935	1.290655136	0.007963181	-0.009155274	0.005531311	-0.899169922	0.503173828	-0.034179688	891.48	42.76118828	-79.49438997	-144.3673536	-56
57277	0	0.386535645	0.049682617	0.050598145	0.999999046	-0.000205994	-0.000552177	3.05E-05	9.663391113	1.24206543	1.264953613	-0.010299683	-0.027608873	0.001525879	-0.896972656	0.505371094	-0.031494141	891.52	42.98935995	-79.53250123	-144.6199845	-55
57278	0	0.389158249	0.050187111	0.050615311	0.999999046	-0.000123978	-0.000408173	-3.15E-05	9.728956223	1.254677773	1.265382767	-0.006198883	-0.020408631	-0.001573563	-0.896972656	0.503173828	-0.022705078	891.48	43.19597779	-79.55355839	-144.8589101	-57
57279	0	0.389404297	0.050048828	0.047912598	0.999999046	-0.000167847	-0.000372887	1.91E-05	9.735107422	1.251220703	1.197814941	-0.008392334	-0.018644333	0.000953674	-0.899414063	0.503173828	-0.022460938	891.52	43.36134967	-79.57563292	-145.0600061	-57
57280	0	0.389258385	0.051421165	0.047698975	0.999999046	-9.06E-05	-0.000146866	9.16E-05	9.731459618	1.285529137	1.192474365	-0.004529953	-0.007343292	0.004577637	-0.899169922	0.503173828	-0.03125	891.46	43.40760935	-79.5845977	-145.1110402	-57
57281	0	0.388427734	0.049743652	0.048828125	0.999999046	-3.43E-05	-0.00014782	0.000160217	9.710693359	1.243591309	1.220703125	-0.001716614	-0.007390976	0.008010864	-0.896972656	0.503173828	-0.022705078	891.48	43.43026012	-79.59912051	-145.1489879	-56
57282	0	0.386871338	0.050287247	0.050912857	0.999999046	-4.01E-05	-0.000164032	0.00014782	9.671783447	1.257181168	1.272821426	-0.002002716	-0.008201599	0.007390976	-0.899414063	0.503173828	-0.025390625	891.46	43.46512592	-79.61397318	-145.1939757	-56
57283	0	0.387268066	0.050842285	0.051635742	0.999999046	-0.000141144	-0.000170708	9.54E-05	9.68170166	1.271057129	1.290893555	-0.00705719	-0.008535385	0.004768372	-0.896972656	0.503173828	-0.028564453	891.54	43.51535258	-79.62515333	-145.2578897	-57
57284	0	0.387476921	0.04941082	0.049929619	0.999999046	-0.000226021	-0.000221252	5.72E-05	9.686923027	1.2352705	1.248240471	-0.011301041	-0.011062622	0.002861023	-0.896972656	0.503173828	-0.025634766	891.54	43.59531972	-79.63753069	-145.3670239	-56
57285	0	0.389282227	0.05065918	0.04888916	0.999999046	-0.000293732	-0.000109673	-1.91E-05	9.732055664	1.266479492	1.222229004	-0.014686585	-0.005483627	-0.000953674	-0.896972656	0.503173828	-0.022705078	891.46	43.65464573	-79.6346283	-145.4682733	-56
57286	0	0.389533997	0.050340652	0.046756744	0.999999046	-0.00043869	2.10E-05	3.81E-05	9.738349915	1.258516312	1.16891861	-0.02193451	0.001049042	0.001907349	-0.899414063	0.503173828	-0.022460938	891.48	43.61583177	-79.62553353	-145.4867372	-57
57287	0	0.388916016	0.048828125	0.049072266	0.999999046	-0.000530243	9.25E-05	0.000118256	9.722900391	1.220703125	1.226806641	-0.026512147	0.004625321	0.005912781	-0.899414063	0.503173828	-0.025390625	891.48	43.49956243	-79.61691241	-145.4298817	-57
57288	0	0.389284134	0.048134804	0.04864502	0.999999046	-0.000349998	0.000169754	9.54E-05	9.732103348	1.203370094	1.216125488	-0.017499924	0.008487702	0.004768372	-0.896972656	0.503173828	-0.025634766	891.44	43.38143022	-79.60016876	-145.3489671	-56
57289	0	0.38885498	0.050537109	0.049194336	0.999999046	-6.10E-05	0.000580788	0.000125885	9.721374512	1.263427734	1.229858398	-0.003051758	0.029039385	0.006294251	-0.896972656	0.503173828	-0.022705078	891.48	43.10827238	-79.55148898	-145.0854009	-56
57290	0	0.386301994	0.04902935	0.053859711	0.999999046	-0.000165939	0.000556946	0.00026226	9.657549858	1.225733757	1.346492767	-0.008296967	0.027847292	0.013113023	-0.899414063	0.503173828	-0.025390625	891.48	42.773161	-79.51509826	-144.7676553	-56
57291	0	0.386108398	0.049621582	0.051269531	0.999999046	-0.000148773	0.000329018	0.000240326	9.652709961	1.240539551	1.281738281	-0.00743866	0.016450882	0.012016297	-0.899414063	0.505371094	-0.025634766	891.48	42.54753078	-79.49591651	-144.5589321	-57
57292	0	0.38927269	0.048931122	0.049586296	0.999999046	-0.000164986	0.000329971	0.000285149	9.731817245	1.223278046	1.239657402	-0.008249283	0.016498566	0.014257432	-0.896972656	0.503173828	-0.028564453	891.58	42.30040575	-79.48007148	-144.3251037	-57
57293	0	0.389709473	0.04888916	0.050231934	0.999999046	-1.14E-05	0.000309944	0.000190735	9.742736816	1.222229004	1.25579834	-0.000572205	0.015497208	0.009536743	-0.896972656	0.503173828	-0.025634766	891.52	42.1233802	-79.45859666	-144.1524763	-57
57294	0	0.389635086	0.049043655	0.051083565	0.999999046	9.35E-05	0.000291824	0.000228882	9.740877151	1.226091385	1.277089119	0.004673004	0.014591217	0.011444092	-0.896972656	0.505371094	-0.025634766	891.44	41.94937325	-79.44155529	-143.9712323	-57
57295	0	0.386962891	0.04901123	0.052062988	0.999999046	0.000419617	0.000386238	0.000293732	9.674072266	1.225280762	1.301574707	0.020980836	0.019311906	0.014686585	-0.896972656	0.505371094	-0.025634766	891.54	41.74516992	-79.42130815	-143.7237863	-56
57296	0	0.386400223	0.048278809	0.053357124	0.999999046	0.000311852	0.000247955	0.000350952	9.660005569	1.206970215	1.333928108	0.015592576	0.012397767	0.017547608	-0.896972656	0.505371094	-0.028564453	891.48	41.55925192	-79.41708659	-143.5027968	-56
57297	0	0.387634277	0.049377441	0.05480957	0.999999046	0.000255585	7.34E-05	0.000328064	9.690856934	1.234436035	1.370239258	0.012779236	0.003671646	0.016403199	-0.896972656	0.505371094	-0.025634766	891.48	41.44824574	-79.42590633	-143.3720871	-57
57298	0	0.389428139	0.048049927	0.053437233	0.999999046	0.000202179	0.00021553	0.000224113	9.735703468	1.201248169	1.335930824	0.010108948	0.01077652	0.011205673	-0.899414063	0.505371094	-0.031494141	891.46	41.32111204	-79.41460017	-143.2200906	-57
57299	0	0.388916016	0.048217773	0.054992676	0.999999046	5.72E-05	-1.43E-05	9.92E-05	9.722900391	1.205444336	1.374816895	0.002861023	-0.000715256	0.004959106	-0.899414063	0.507568359	-0.034423828	891.52	41.32776428	-79.41354493	-143.2138749	-57
57300	0	0.388010979	0.048939705	0.051312447	0.999999046	9.63E-05	0.000165939	2.57E-05	9.700274467	1.223492622	1.282811165	0.004816055	0.008296967	0.00128746	-0.896972656	0.505371094	-0.034423828	891.48	41.30030316	-79.39148186	-143.1695471	-57
57301	0	0.387756348	0.048156738	0.053466797	0.999999046	7.25E-05	0.000245094	0.000106812	9.693908691	1.203918457	1.336669922	0.003623962	0.012254715	0.005340576	-0.896972656	0.505371094	-0.028564453	891.48	41.2011443	-79.3687257	-143.0693815	-57
57302	0	0.388349533	0.048874855	0.054808617	0.999999046	0.000228882	0.000204086	3.43E-05	9.708738327	1.221871376	1.370215416	0.011444092	0.010204315	0.001716614	-0.899169922	0.505371094	-0.034423828	891.48	41.16987896	-79.34396435	-143.0087228	-57
57303	0	0.38873291	0.049499512	0.055480957	0.999999046	0.00025177	0.000275612	5.72E-05	9.718322754	1.237487793	1.387023926	0.012588501	0.013780594	0.002861023	-0.896972656	0.505371094	-0.031494141	891.54	41.10231348	-79.31466345	-142.9161141	-57
57304	0	0.388829231	0.04917717	0.055485725	0.999999046	0.000214577	0.00028038	5.25E-05	9.720730782	1.229429245	1.387143135	0.010728836	0.014019013	0.002622604	-0.896972656	0.507568359	-0.031738281	891.48	41.03108902	-79.28451135	-142.8242274	-56
57305	0	0.38861084	0.048522949	0.054992676	0.999999046	0.000225067	0.000161171	0.000125885	9.715270996	1.21307373	1.374816895	0.011253357	0.008058548	0.006294251	-0.896972656	0.505371094	-0.031494141	891.52	40.97509185	-79.27016049	-142.7491031	-57
57306	0	0.389214516	0.047107697	0.057109833	0.999999046	0.000198364	0.000356674	1.43E-05	9.730362892	1.177692413	1.427745819	0.009918213	0.01783371	0.000715256	-0.896728516	0.505371094	-0.037353516	891.54	40.88908865	-79.23045815	-142.6350887	-57
57307	0	0.389404297	0.047424316	0.055480957	0.999999046	0.000419617	0.000454903	-8.39E-05	9.735107422	1.18560791	1.387023926	0.020980836	0.022745134	-0.004196167	-0.896972656	0.507568359	-0.034667969	891.48	40.83482256	-79.1748899	-142.5355352	-57
57308	0	0.385622025	0.048694611	0.055606842	0.999999046	0.000449181	0.000728607	-3.91E-05	9.640550613	1.217365265	1.390171051	0.022459033	0.036430363	-0.001955033	-0.896972656	0.505371094	-0.034423828	891.54	40.658082	-79.09884635	-142.3129486	-57
57309	0	0.385620117	0.048828125	0.059509277	0.999999046	0.000724792	0.000969887	8.39E-05	9.64050293	1.220703125	1.487731934	0.036239633	0.048494351	0.004196168	-0.896728516	0.505371094	-0.037353516	891.54	40.36726244	-79.01061234	-141.9407087	-57
57310	0	0.386910439	0.046960831	0.062753677	0.999999046	0.000818253	0.000692368	7.63E-05	9.672760963	1.174020767	1.568841934	0.040912636	0.034618384	0.003814698	-0.899169922	0.503173828	-0.040039063	891.44	40.19909122	-78.94561822	-141.6824539	-57
57311	0	0.386474609	0.049560547	0.061767578	0.999999046	0.000892639	0.000267982	0.000160217	9.661865234	1.239013672	1.544189453	0.044631965	0.013399126	0.008010865	-0.898925781	0.502929688	-0.045654297	891.54	40.16322492	-78.92370303	-141.5407577	-56
57312	0	0.38523674	0.049666405	0.060235977	0.999999046	0.00067234	0.000207901	0.000102043	9.630918503	1.241660118	1.505899429	0.033617022	0.010395051	0.005102158	-0.896728516	0.505126953	-0.048828125	891.36	40.15068177	-78.90260413	-141.4424424	-57
57313	0	0.385803223	0.048156738	0.059570313	0.999999046	0.000591278	0.000119209	2.29E-05	9.645080566	1.203918457	1.489257813	0.029563906	0.005960465	0.001144409	-0.896728516	0.505126953	-0.043212891	891.54	40.19713133	-78.8833764	-141.4283357	-57
57314	0	0.387133598	0.049184799	0.058627129	0.999999046	0.000402451	9.16E-05	0.000239372	9.678339958	1.22961998	1.465678215	0.020122529	0.004577637	0.011968613	-0.898925781	0.505126953	-0.048828125	891.58	40.13567995	-78.8825493	-141.3156683	-57
57315	0	0.387451172	0.049926758	0.058288574	0.999999046	0.000553131	-8.68E-05	0.000110626	9.686279297	1.248168945	1.457214355	0.027656557	-0.004339218	0.005531311	-0.896728516	0.505126953	-0.046142578	891.48	40.21599765	-78.88779142	-141.3363508	-57
57316	0	0.387044907	0.050761223	0.059933662	0.999999046	0.000292778	-0.000183105	9.54E-05	9.676122665	1.269030571	1.49834156	0.014638901	-0.009155274	0.004768372	-0.899169922	0.505371094	-0.04296875	891.48	40.30957451	-78.90019453	-141.4086693	-57
57317	0	0.387023926	0.049926758	0.060913086	0.999999046	6.10E-05	-0.000189781	3.81E-06	9.675598145	1.248168945	1.522827148	0.003051758	-0.00948906	0.000190735	-0.896728516	0.505126953	-0.048828125	891.52	40.41953986	-78.90622963	-141.5100666	-57
57318	0	0.386619568	0.049686432	0.060026169	0.999999046	-0.000150681	-0.000406265	-2.67E-05	9.665489197	1.242160797	1.500654221	-0.007534027	-0.020313264	-0.001335144	-0.899169922	0.505371094	-0.045898438	891.54	40.60090884	-78.92870272	-141.7142596	-57
57319	0	0.386962891	0.049926758	0.059204102	0.999999046	-0.000110626	-0.000338554	-1.14E-05	9.674072266	1.248168945	1.480102539	-0.005531311	-0.016927719	-0.000572205	-0.898925781	0.502929688	-0.048583984	891.48	40.75464591	-78.94624055	-141.8786924	-57
57320	0	0.385964394	0.049921989	0.059684753	0.999999046	-0.000226021	-0.000198364	-0.00019455	9.64910984	1.248049736	1.492118835	-0.011301041	-0.009918213	-0.009727478	-0.898925781	0.503173828	-0.042724609	891.44	40.92257296	-78.93770084	-142.0828621	-56
57321	0	0.385681152	0.04901123	0.057189941	0.999999046	-0.000465393	-0.000121117	-0.000286102	9.642028809	1.225280762	1.429748535	-0.023269655	-0.006055832	-0.014305115	-0.896484375	0.502929688	-0.045898438	891.52	41.07323673	-78.91551166	-142.2876919	-57
57322	0	0.389205933	0.049365044	0.05500412	0.999999046	-7.25E-05	-0.000171661	-0.000191689	9.730148315	1.234126091	1.375102997	-0.003623962	-0.008583069	-0.009584427	-0.896484375	0.502929688	-0.045898438	891.46	41.24638462	-78.90482118	-142.4686022	-57
57323	0	0.390319824	0.05255127	0.053710938	0.999999046	0.000209808	-0.000388145	-2.29E-05	9.757995605	1.313781738	1.342773438	0.010490418	-0.019407273	-0.001144409	-0.898925781	0.500976563	-0.036865234	891.46	41.46236492	-78.92549152	-142.6810188	-57
57324	0	0.387551308	0.051492691	0.054303169	0.999999046	0.000126839	-0.000358582	5.34E-05	9.688782692	1.287317276	1.357579231	0.006341934	-0.017929078	0.002670288	-0.901367188	0.503173828	-0.042724609	891.54	41.62518752	-78.94936342	-142.8340501	-56
57325	0	0.385009766	0.05279541	0.058410645	0.999999046	-0.0001297	-0.000102043	5.72E-05	9.625244141	1.319885254	1.460266113	-0.006484985	-0.005102158	0.002861023	-0.899169922	0.503173828	-0.040039063	891.48	41.65735882	-78.951336	-142.8886892	-57
57326	0	0.384355545	0.050538063	0.05919838	0.999999046	-0.000478745	-0.000221252	2.67E-05	9.608888626	1.263451576	1.479959488	-0.023937226	-0.011062623	0.001335144	-0.898925781	0.503173828	-0.042724609	891.54	41.70892693	-78.96105287	-142.9956159	-56
57327	0	0.38470459	0.048400879	0.057189941	0.999999046	-0.00019455	-0.00032711	-4.20E-05	9.617614746	1.210021973	1.429748535	-0.009727478	-0.016355515	-0.002098084	-0.898925781	0.500976563	-0.039794922	891.52	41.86420714	-78.97455393	-143.180739	-57
57328	0	0.387298584	0.051280022	0.054391861	0.999999046	0.000161171	-0.000494003	0.000163078	9.6824646	1.282000542	1.359796524	0.008058548	-0.024700166	0.008153916	-0.899169922	0.503173828	-0.037109375	891.46	42.03721905	-79.01793451	-143.3461451	-57
57329	0	0.383789063	0.051818848	0.05255127	0.999999046	0.000419617	-0.000994682	0.000423431	9.594726563	1.295471191	1.313781738	0.02098084	-0.049734127	0.021171575	-0.896728516	0.502929688	-0.037109375	891.46	42.32765164	-79.1237906	-143.5974485	-57
57330	0	0.386307716	0.053056717	0.046792984	0.999998093	-0.000657082	-0.001414299	0.00055027	9.657692909	1.326417923	1.1698246	-0.032854095	-0.070714983	0.027513517	-0.901367188	0.500976563	-0.036621094	891.48	42.61644458	-79.27489467	-143.9687576	-57
57331	0	0.390075684	0.052307129	0.045349121	0.999998093	-0.000956535	-0.001159668	0.000289917	9.75189209	1.307678223	1.133728027	-0.047826786	-0.057983421	0.014495855	-0.896972656	0.505371094	-0.031494141	891.48	42.89254592	-79.38423096	-144.3640304	-57
57332	0	0.390529633	0.04911232	0.051556587	0.999999046	-0.000416756	-0.001153946	0.00020504	9.763240814	1.227807999	1.28891468	-0.020837789	-0.057697311	0.010252002	-0.899169922	0.503173828	-0.034179688	891.46	43.27350577	-79.48612365	-144.7926337	-57
57333	0	0.387695313	0.049438477	0.053527832	0.999999046	0.000335693	-0.001101494	0.000362396	9.692382813	1.235961914	1.338195801	0.016784672	-0.055074705	0.018119816	-0.896972656	0.503173828	-0.025634766	891.46	43.65510582	-79.59546828	-145.1497039	-56
57334	0	0.383152008	0.053285599	0.053195953	0.999999046	0.000247955	-0.001037598	0.000476837	9.578800201	1.332139969	1.329898834	0.012397769	-0.051879895	0.023841863	-0.896972656	0.505371094	-0.025634766	891.54	43.95467997	-79.70798016	-145.4292199	-57
57335	0	0.38671875	0.050048828	0.048461914	0.999998093	-0.000418663	-0.001773834	0.000423431	9.66796875	1.251220703	1.211547852	-0.020933163	-0.088691763	0.021171582	-0.897216797	0.505371094	-0.022949219	891.4	44.53821708	-79.87630676	-146.0729979	-56
57336	0	0.393131256	0.046689987	0.040881157	0.999998093	-0.000425339	-0.001769066	0.000133514	9.828281403	1.16724968	1.022028923	-0.021266949	-0.088453342	0.006675724	-0.897216797	0.505371094	-0.020019531	891.48	45.27358513	-80.0198875	-146.8699203	-57
57337	0	0.394165039	0.048522949	0.039245605	0.999999046	0.000213623	-0.000681877	0.000240326	9.854125977	1.21307373	0.981140137	0.010681153	-0.03409386	0.012016298	-0.897216797	0.505371094	-0.020019531	891.48	45.54442635	-80.08384739	-147.1184573	-57
57338	0	0.390953064	0.048231125	0.044244766	0.999999046	0.000701904	4.77E-05	0.000452995	9.773826599	1.205778122	1.106119156	0.035095219	0.002384186	0.022649768	-0.897216797	0.505371094	-0.014160156	891.54	45.43391635	-80.10664634	-146.9386637	-56
57339	0	0.386413574	0.04888916	0.047912598	0.999999046	0.000751495	-3.34E-05	0.000354767	9.660339355	1.222229004	1.197814941	0.037574772	-0.00166893	0.017738344	-0.895019531	0.507568359	-0.014404297	891.52	45.41153962	-80.1278414	-146.8422621	-57
57340	0	0.386329651	0.049176216	0.048666	0.999999046	0.000452995	-8.39E-05	0.000217438	9.658241272	1.229405403	1.216650009	0.022649766	-0.004196167	0.010871888	-0.895019531	0.509765625	-0.020507813	891.48	45.44160344	-80.14178555	-146.8196014	-57
57341	0	0.391357422	0.047973633	0.044189453	0.999999046	0.000198364	-0.000117302	8.39E-05	9.783935547	1.19934082	1.104736328	0.009918213	-0.005865097	0.004196167	-0.895019531	0.509765625	-0.020507813	891.54	45.52031203	-80.14763534	-146.8759459	-57
57342	0	0.389788628	0.050182343	0.042123795	0.999999046	0.000202179	7.25E-05	0.000170708	9.744715691	1.254558563	1.053094864	0.010108948	0.003623962	0.008535385	-0.897216797	0.507568359	-0.017333984	891.54	45.47124476	-80.14543157	-146.8115956	-56
57343	0	0.389587402	0.046813965	0.044616699	0.999999046	0.000282288	-6.39E-05	1.14E-05	9.739685059	1.170349121	1.11541748	0.01411438	-0.003194809	0.000572205	-0.894775391	0.507568359	-0.020263672	891.6	45.5690709	-80.14129577	-146.8799088	-56
57344	0	0.388861656	0.046830177	0.04582119	0.999999046	0.000481606	0.000205994	0.000136375	9.721541405	1.170754433	1.145529747	0.024080278	0.010299683	0.006818772	-0.894775391	0.505371094	-0.014404297	891.54	45.50477799	-80.12578812	-146.7767129	-56
57345	0	0.389465332	0.049133301	0.044128418	0.999999046	0.000347137	0.00017643	9.92E-05	9.736633301	1.22833252	1.103210449	0.017356873	0.008821488	0.004959107	-0.894775391	0.505371094	-0.022949219	891.52	45.45686103	-80.10967044	-146.6873526	-57
57346	0	0.390862465	0.047255516	0.044903755	0.999999046	0.00044632	0.00041008	-2.00E-05	9.771561623	1.181387901	1.12259388	0.02231598	0.020503999	-0.001001358	-0.894775391	0.507568359	-0.020263672	891.54	45.36643064	-80.06513219	-146.5513083	-56
57347	0	0.388793945	0.049133301	0.045471191	0.999999046	0.000652313	0.000496864	1.53E-05	9.719848633	1.22833252	1.136779785	0.032615665	0.024843219	0.00076294	-0.894775391	0.507568359	-0.020263672	891.58	45.24455598	-80.01645992	-146.3626897	-56
57348	0	0.387835503	0.048812866	0.044815063	0.999999046	0.000357628	0.000404358	5.63E-05	9.695887566	1.220321655	1.120376587	0.017881394	0.020217897	0.002813339	-0.896972656	0.505371094	-0.025634766	891.54	45.11458501	-79.97859496	-146.1913393	-56
57349	0	0.388671875	0.049499512	0.044799805	0.999999046	0.00025177	0.000107765	8.77E-05	9.716796875	1.237487793	1.119995117	0.012588501	0.00538826	0.004386902	-0.894775391	0.505371094	-0.022949219	891.52	45.09551924	-79.96730078	-146.1515346	-57
57350	0	0.3901968	0.048598289	0.043637276	0.999999046	7.25E-05	0.000190735	0.00014782	9.754920006	1.214957237	1.090931892	0.003623962	0.009536743	0.007390976	-0.897216797	0.505371094	-0.022949219	891.52	44.99115069	-79.95430788	-146.0473726	-55
57351	0	0.389953613	0.047180176	0.045043945	0.999999046	-4.96E-05	0.000508308	6.87E-05	9.748840332	1.179504395	1.126098633	-0.002479553	0.025415422	0.003433228	-0.897216797	0.507568359	-0.025878906	891.58	44.76493792	-79.90922751	-145.8279036	-56
57352	0	0.388446808	0.049014091	0.047883987	0.999999046	9.06E-05	0.000570297	0.000125885	9.711170197	1.225352287	1.197099686	0.004529953	0.028514864	0.006294251	-0.896972656	0.505371094	-0.031494141	891.58	44.50262614	-79.86352461	-145.5457301	-56
57353	0	0.386230469	0.049560547	0.047607422	0.999999046	-0.000217438	0.000355721	0.000133514	9.655761719	1.239013672	1.190185547	-0.010871888	0.017786027	0.00667572	-0.89453125	0.505126953	-0.028808594	891.52	44.2998442	-79.83577805	-145.3666334	-56
57354	0	0.387065887	0.047911644	0.044789314	0.999999046	-0.000572205	1.14E-05	-5.05E-05	9.676647186	1.1977911	1.119732857	-0.028610231	0.000572205	-0.002527237	-0.896972656	0.505371094	-0.031494141	891.44	44.29523003	-79.8216318	-145.4230598	-56
57355	0	0.389892578	0.04876709	0.043823242	0.999999046	-0.000598907	1.24E-05	-7.63E-05	9.747314453	1.219177246	1.095581055	-0.029945375	0.000619888	-0.003814697	-0.897216797	0.507568359	-0.025878906	891.58	44.29964109	-79.80552208	-145.5025657	-56
57356	0	0.389334679	0.047614098	0.043950081	0.999999046	-0.000401497	0.000160217	-0.000171661	9.733366966	1.19035244	1.098752022	-0.020074845	0.008010865	-0.008583069	-0.899414063	0.505371094	-0.028564453	891.54	44.30475346	-79.76986788	-145.554334	-57
57357	0	0.389526367	0.04888916	0.047302246	0.999999046	-0.00043869	-6.01E-05	-0.000114441	9.73815918	1.222229004	1.182556152	-0.02193451	-0.003004074	-0.005722046	-0.896972656	0.505371094	-0.028564453	891.54	44.37719416	-79.7569004	-145.6767759	-57
57358	0	0.388788223	0.049851418	0.047358513	0.999999046	-0.00028038	0.000175476	-0.000141144	9.719705582	1.246285439	1.183962822	-0.014019013	0.008773804	-0.00705719	-0.896972656	0.505371094	-0.028564453	891.48	44.37550613	-79.7225018	-145.7053464	-57
57359	0	0.387451172	0.049804688	0.045654297	0.999999046	-0.000549316	0.000130653	-9.54E-05	9.686279297	1.245117188	1.141357422	-0.027465822	0.006532669	-0.004768372	-0.899169922	0.503173828	-0.028320313	891.48	44.34268193	-79.6955222	-145.7346447	-57
57360	0	0.387307167	0.049034119	0.046113014	0.999999046	-0.000687599	0.000324249	-0.000152588	9.682679176	1.225852966	1.152825356	-0.034379963	0.016212465	-0.007629395	-0.896728516	0.500976563	-0.028320313	891.48	44.23517773	-79.6481841	-145.7038875	-57
57361	0	0.388305664	0.049255371	0.047607422	0.999999046	-0.000286102	0.000500679	-0.000167847	9.707641602	1.231384277	1.190185547	-0.014305116	0.025033952	-0.008392334	-0.896972656	0.503173828	-0.03125	891.54	44.10443936	-79.58517486	-145.5963828	-56
57362	0	0.388789177	0.050517082	0.048817635	0.999999046	-0.000303268	0.000207901	-6.58E-05	9.719729424	1.262927055	1.220440865	-0.015163422	0.01039505	-0.003290176	-0.896972656	0.503173828	-0.028564453	891.58	44.05405668	-79.55436716	-145.5789067	-57
57363	0	0.388916016	0.050415039	0.048522949	0.999999046	-0.000457764	-5.63E-05	-2.29E-05	9.722900391	1.260375977	1.21307373	-0.022888184	-0.002813339	-0.001144409	-0.896972656	0.503173828	-0.025634766	891.48	44.0812756	-79.54874865	-145.6636925	-57
57364	0	0.388430595	0.048923492	0.048461914	0.999999046	-0.000275612	0.000286102	-0.000225067	9.710764885	1.223087311	1.211547852	-0.013780594	0.014305115	-0.011253357	-0.899169922	0.503173828	-0.028320313	891.48	44.07148233	-79.49889999	-145.6841337	-57
57365	0	0.388427734	0.048950195	0.052001953	0.999999046	7.63E-06	0.000279427	-0.000125885	9.710693359	1.223754883	1.300048828	0.00038147	0.013971329	-0.006294251	-0.899169922	0.503173828	-0.028320313	891.58	44.05224754	-79.45746658	-145.6629568	-57
57366	0	0.3893013	0.050391197	0.051301956	0.999999046	0.00015831	0.000263214	9.92E-05	9.732532501	1.25977993	1.282548904	0.007915497	0.013160706	0.004959107	-0.899169922	0.498779297	-0.025146484	891.58	43.95762122	-79.43524028	-145.5580203	-57
57367	0	0.386962891	0.05090332	0.051208496	0.999999046	0.000263214	0.000542641	1.53E-05	9.674072266	1.272583008	1.280212402	0.013160706	0.027132036	0.000762939	-0.899169922	0.500976563	-0.025146484	891.46	43.79391706	-79.38315439	-145.3722607	-57
57368	0	0.386967659	0.049575806	0.052883148	0.999999046	6.77E-05	0.000484467	1.43E-05	9.674191475	1.239395142	1.322078705	0.003385544	0.024223329	0.000715256	-0.896728516	0.500976563	-0.028320313	891.52	43.63377625	-79.33565148	-145.20678	-57
57369	0	0.389160156	0.05065918	0.051574707	0.999999046	3.81E-05	0.000489235	-9.54E-05	9.729003906	1.266479492	1.289367676	0.001907349	0.024461747	-0.004768372	-0.899169922	0.500976563	-0.033935547	891.46	43.51776297	-79.27900576	-145.0791364	-57
57370	0	0.388245583	0.051163673	0.051644325	0.999999046	0.000181198	0.000804901	-2.67E-05	9.706139565	1.279091835	1.291108131	0.009059907	0.040245061	-0.001335144	-0.899169922	0.500976563	-0.031005859	891.52	43.25904089	-79.20138092	-144.8000141	-57
57371	0	0.388916016	0.051574707	0.05291748	0.999999046	5.72E-05	0.000641823	-1.53E-05	9.722900391	1.289367676	1.322937012	0.002861023	0.032091143	-0.00076294	-0.899169922	0.500976563	-0.031005859	891.54	43.05136752	-79.13802412	-144.5898309	-57
57372	0	0.386894226	0.054094315	0.052369118	0.999999046	-0.000163078	0.000356674	-0.000206947	9.672355652	1.352357864	1.309227943	-0.008153916	0.01783371	-0.010347367	-0.896728516	0.500732422	-0.034179688	891.54	43.02029309	-79.08336861	-144.5778798	-57
57373	0	0.387390137	0.052185059	0.052429199	0.999999046	-0.000377655	0.000603676	-0.000312805	9.684753418	1.304626465	1.31072998	-0.018882753	0.030183795	-0.01564026	-0.898925781	0.498779297	-0.036621094	891.52	42.91147574	-78.99971081	-144.50874	-57
57374	0	0.38753891	0.052449226	0.052081108	0.999999046	-0.000200272	0.000835419	-0.000328064	9.688472748	1.311230659	1.302027702	-0.010013582	0.041770941	-0.016403201	-0.901367188	0.498779297	-0.036621094	891.54	42.73911145	-78.89537051	-144.3574321	-57
57375	0	0.387023926	0.055725098	0.054260254	0.999999046	-0.000423431	0.000912666	-0.000190735	9.675598145	1.393127441	1.356506348	-0.021171574	0.045633324	-0.009536745	-0.901123047	0.496582031	-0.036376953	891.46	42.45620035	-78.79490487	-144.123331	-57
57376	0	0.387149811	0.055644989	0.053181648	0.999999046	-0.000611305	0.00078392	-0.000149727	9.67874527	1.391124725	1.329541206	-0.030565267	0.039196021	-0.007486345	-0.901367188	0.498779297	-0.036621094	891.48	42.18956034	-78.70822959	-143.9278129	-57
57377	0	0.387329102	0.054016113	0.054870605	0.999999046	-0.000534058	0.000714302	-7.25E-05	9.683227539	1.350402832	1.371765137	-0.026702884	0.035715108	-0.003623963	-0.901367188	0.498779297	-0.039550781	891.54	41.9294267	-78.63319497	-143.7245638	-57
57378	0	0.385592461	0.05395031	0.056698799	0.999999046	-0.000261307	0.000627518	7.63E-05	9.639811516	1.348757744	1.417469978	-0.013065339	0.031375887	0.003814698	-0.903564453	0.496582031	-0.0390625	891.46	41.67335853	-78.5766669	-143.4981701	-57
57379	0	0.384521484	0.053649902	0.058410645	0.999999046	-0.000160217	0.000790596	9.92E-05	9.613037109	1.341247559	1.460266113	-0.008010865	0.039529805	0.004959107	-0.898681641	0.494140625	-0.041992188	891.58	41.36057586	-78.50753006	-143.1976804	-57
57380	0	0.385416031	0.052333832	0.058241844	0.999999046	-0.000206947	0.000680923	0.000144005	9.635400772	1.308345795	1.456046104	-0.010347367	0.034046176	0.007200242	-0.901123047	0.498779297	-0.042236328	891.52	41.06729274	-78.45087328	-142.9231922	-57
57381	0	0.383789063	0.053283691	0.057800293	0.999999046	-4.20E-05	0.000561714	0.000400543	9.594726563	1.332092285	1.445007324	-0.002098084	0.028085711	0.020027162	-0.901123047	0.496582031	-0.039306641	891.52	40.73068103	-78.42343025	-142.5953041	-57
57382	0	0.383581161	0.051567078	0.058844566	0.999999046	-0.000181198	0.000366211	0.000395775	9.589529037	1.289176941	1.471114159	-0.009059906	0.018310548	0.019788743	-0.898681641	0.496337891	-0.045166016	891.58	40.45226076	-78.41225631	-142.3301488	-57
57383	0	0.383850098	0.052124023	0.06036377	0.999999046	-2.29E-05	0.000126839	0.00037384	9.596252441	1.303100586	1.509094238	-0.001144409	0.006341934	0.018692017	-0.901123047	0.498535156	-0.048095703	891.52	40.28793258	-78.42005434	-142.1568589	-57
57384	0	0.384178162	0.051650047	0.0594244	0.999999046	-7.72E-05	0	0.000403404	9.604454041	1.291251183	1.485610008	-0.003862381	0	0.020170212	-0.898681641	0.496337891	-0.042236328	891.58	40.15012143	-78.44100194	-142.0309813	-57
57385	0	0.386108398	0.049865723	0.059631348	0.999999046	-3.43E-05	-0.000426292	0.000217438	9.652709961	1.246643066	1.490783691	-0.001716614	-0.021314622	0.010871888	-0.901367188	0.500976563	-0.042480469	891.48	40.25051852	-78.48551708	-142.1397329	-57
57386	0	0.388011932	0.049570084	0.059973717	0.999999046	0.000171661	-0.00060463	0.000319481	9.700298309	1.23925209	1.499342918	0.00858307	-0.030231478	0.015974046	-0.901367188	0.500976563	-0.045410156	891.58	40.3960792	-78.55315472	-142.2617821	-57
57387	0	0.388000488	0.051147461	0.057861328	0.999999046	0.000232697	-0.000376701	0.000465393	9.700012207	1.278686523	1.446533203	0.011634827	-0.018835069	0.023269655	-0.901123047	0.498779297	-0.045166016	891.46	40.40290898	-78.61172796	-142.2359974	-57
57388	0	0.386993408	0.050448418	0.059253693	0.999999046	0.000260353	-0.000196457	0.000330925	9.674835205	1.261210442	1.481342316	0.013017655	-0.009822846	0.01654625	-0.898925781	0.500732422	-0.042724609	891.52	40.4042379	-78.64454768	-142.2056932	-57
57389	0	0.387634277	0.050598145	0.05871582	0.999999046	-7.63E-06	-7.15E-05	0.000328064	9.690856934	1.264953613	1.467895508	-0.00038147	-0.003576279	0.016403199	-0.898925781	0.500732422	-0.045654297	891.6	40.32943541	-78.66622105	-142.1222717	-57
57390	0	0.387675285	0.050281525	0.058842659	0.999999046	7.82E-05	-0.000230789	0.000380516	9.691882133	1.257038116	1.471066475	0.003910065	-0.01153946	0.019025803	-0.898925781	0.500732422	-0.045654297	891.46	40.29995911	-78.70565889	-142.0747508	-57
57391	0	0.386291504	0.049255371	0.058898926	0.999999046	0.000205994	-0.000273705	0.000225067	9.657287598	1.231384277	1.472473145	0.010299683	-0.013685227	0.011253357	-0.901367188	0.503173828	-0.039794922	891.54	40.36862879	-78.73729098	-142.1252842	-57
57392	0	0.386651039	0.049593925	0.059947014	0.999999046	0.000302315	5.72E-06	0.00026989	9.666275978	1.239848137	1.498675346	0.015115738	0.000286102	0.013494492	-0.899169922	0.503173828	-0.040039063	891.52	40.32400948	-78.74776263	-142.0486667	-57
57393	0	0.386413574	0.04901123	0.058654785	0.999999046	0.000434875	-0.000136375	0.000221252	9.660339355	1.225280762	1.466369629	0.021743775	-0.006818772	0.011062623	-0.898925781	0.500976563	-0.039794922	891.54	40.36837732	-78.76701954	-142.0491893	-57
57394	0	0.388281822	0.049193382	0.056979179	0.999999046	0.000423431	-0.000116348	0.000201225	9.707045555	1.229834557	1.424479485	0.021171571	-0.005817414	0.010061264	-0.898925781	0.500732422	-0.042724609	891.54	40.41261691	-78.78309907	-142.0447416	-57
57395	0	0.386291504	0.050048828	0.05847168	0.999999046	0.000350952	8.87E-05	8.77E-05	9.657287598	1.251220703	1.461791992	0.017547608	0.004434586	0.004386902	-0.896484375	0.502929688	-0.045898438	891.52	40.42141322	-78.77280601	-142.0048757	-57
57396	0	0.385374069	0.050204277	0.058381081	0.999999046	0.000214577	0.000135422	-4.67E-05	9.63435173	1.255106926	1.459527016	0.010728836	0.006771088	-0.002336502	-0.896484375	0.500732422	-0.045654297	891.48	40.45592146	-78.74838113	-142.0097191	-57
57397	0	0.38671875	0.050720215	0.057617188	0.999999046	0.000133514	-0.000247002	-7.63E-05	9.66796875	1.268005371	1.440429688	0.00667572	-0.012350083	-0.003814697	-0.896728516	0.502929688	-0.040039063	891.52	40.63709814	-78.75501754	-142.1849573	-57
57398	0	0.389058113	0.051832199	0.056738853	0.999999046	0.000125885	-0.000534058	3.05E-05	9.726452827	1.295804977	1.418471336	0.006294251	-0.026702882	0.001525879	-0.898925781	0.502929688	-0.045654297	891.6	40.87964909	-78.79443475	-142.4092035	-56
57399	0	0.387084961	0.052307129	0.057373047	0.999999046	-0.000205994	-0.000452995	8.01E-05	9.677124023	1.307678223	1.434326172	-0.010299683	-0.022649766	0.004005432	-0.901367188	0.500976563	-0.039550781	891.54	41.03339151	-78.83031477	-142.5950809	-57
57400	0	0.385499001	0.05063343	0.060033798	0.999999046	-0.000355721	-0.00031662	2.29E-05	9.637475014	1.265835762	1.500844955	-0.017786027	-0.015830994	0.001144409	-0.898925781	0.500732422	-0.042724609	891.54	41.14317277	-78.84987493	-142.743417	-57
57401	0	0.387573242	0.049072266	0.057128906	0.999999046	-0.000358582	-0.000529289	-4.58E-05	9.689331055	1.226806641	1.428222656	-0.017929078	-0.026464464	-0.002288819	-0.898925781	0.500976563	-0.036865234	891.52	41.36453065	-78.88249964	-143.0162062	-57
57402	0	0.387870789	0.049921989	0.055288315	0.999999046	-8.01E-05	-0.000383377	1.05E-05	9.696769714	1.248049736	1.38220787	-0.004005432	-0.019168854	0.000524521	-0.896484375	0.500732422	-0.039794922	891.48	41.53798319	-78.90674044	-143.1983189	-57
57403	0	0.388793945	0.051391602	0.054931641	0.999999046	0.000144958	-0.000460625	9.16E-05	9.719848633	1.284790039	1.373291016	0.007247925	-0.023031236	0.004577637	-0.901367188	0.500976563	-0.039550781	891.48	41.73295994	-78.94367249	-143.376428	-56
57404	0	0.388180733	0.050908089	0.053764343	0.999999046	0.000102043	-0.000556946	0.000110626	9.704518318	1.272702217	1.344108582	0.005102158	-0.027847292	0.005531311	-0.896728516	0.500732422	-0.036865234	891.48	41.95409688	-78.99021596	-143.589199	-57
57405	0	0.387084961	0.050842285	0.053710938	0.999999046	-0.000255585	-0.000384331	0.000106812	9.677124023	1.271057129	1.342773438	-0.012779236	-0.019216538	0.005340576	-0.899169922	0.500976563	-0.033935547	891.54	42.06944919	-79.02168162	-143.7411378	-57
57406	0	0.387441635	0.050487518	0.053925514	0.999999046	-0.000270844	-0.000192642	0.000190735	9.686040878	1.262187958	1.348137856	-0.013542176	-0.009632111	0.009536743	-0.899169922	0.503173828	-0.037109375	891.46	42.07081281	-79.04329103	-143.7690816	-57
57407	0	0.387573242	0.050109863	0.055236816	0.999999046	-0.000213623	-1.05E-05	1.91E-05	9.689331055	1.252746582	1.38092041	-0.010681152	-0.000524521	0.000953674	-0.901367188	0.500976563	-0.033935547	891.52	42.08167757	-79.03620788	-143.8084179	-56
57408	0	0.387698174	0.050376892	0.053479195	0.999999046	-0.000252724	-0.000146866	0.000113487	9.692454338	1.259422302	1.336979866	-0.012636185	-0.007343292	0.005674362	-0.899169922	0.500976563	-0.033935547	891.6	42.10078976	-79.04802	-143.8588909	-57
57409	0	0.388427734	0.050720215	0.051574707	0.999999046	-8.01E-05	-0.000113487	1.91E-05	9.710693359	1.268005371	1.289367676	-0.004005432	-0.005674362	0.000953674	-0.899169922	0.500976563	-0.031005859	891.48	42.16847039	-79.04983549	-143.9446853	-57
57410	0	0.386976242	0.050513268	0.052592278	0.999999046	0.00012207	-0.000139236	0.000281334	9.674406052	1.262831688	1.314806938	0.006103516	-0.006961823	0.014066696	-0.899169922	0.500976563	-0.036865234	891.48	42.15460488	-79.07407058	-143.9100431	-56
57411	0	0.386230469	0.049926758	0.052734375	0.999999046	0.000240326	-0.000285149	0.000125885	9.655761719	1.248168945	1.318359375	0.012016297	-0.014257431	0.006294251	-0.899414063	0.500976563	-0.033935547	891.58	42.28114376	-79.09877992	-144.0109643	-57
57412	0	0.387248993	0.050403595	0.052549362	0.999999046	0.000212669	-0.000400543	0.000114441	9.681224823	1.260089874	1.313734055	0.010633469	-0.020027161	0.005722046	-0.899414063	0.500976563	-0.033935547	891.48	42.45667905	-79.13237353	-144.1638395	-57
57413	0	0.38848877	0.051513672	0.053039551	0.999999046	0.000282288	-0.000433922	0.000202179	9.712219238	1.287841797	1.32598877	0.014114381	-0.021696092	0.010108948	-0.899414063	0.500976563	-0.031005859	891.48	42.61633735	-79.17548618	-144.2981499	-56
57414	0	0.389225006	0.049859047	0.051268578	0.999999046	0.00028801	-0.000486374	8.39E-05	9.730625153	1.246476173	1.281714439	0.014400483	-0.024318696	0.004196167	-0.899414063	0.503173828	-0.034179688	891.52	42.85160099	-79.2138432	-144.4990117	-57
57415	0	0.388305664	0.050537109	0.051757813	0.999999046	0.000488281	-0.000304222	0.000171661	9.707641602	1.263427734	1.293945313	0.024414064	-0.015211106	0.008583069	-0.899414063	0.503173828	-0.034179688	891.52	42.9978517	-79.24367349	-144.5859238	-57
57416	0	0.38762188	0.050331116	0.05122757	0.999999046	0.000477791	-0.000205994	0.000227928	9.690546989	1.258277893	1.28068924	0.023889543	-0.010299683	0.011396409	-0.896972656	0.500976563	-0.03125	891.52	43.07827546	-79.26968749	-144.6145684	-56
57417	0	0.388000488	0.050170898	0.05291748	0.999999046	0.000537872	-5.63E-05	0.000160217	9.700012207	1.254272461	1.322937012	0.026893617	-0.002813339	0.008010865	-0.901611328	0.501220703	-0.033935547	891.54	43.13354321	-79.27785538	-144.6065516	-57
57418	0	0.388448715	0.050223351	0.051231384	0.999999046	0.000484467	-6.10E-05	0.000225067	9.71121788	1.255583763	1.280784607	0.024223329	-0.003051758	0.011253357	-0.899414063	0.503417969	-0.03125	891.48	43.15610852	-79.29155002	-144.5772073	-56
57419	0	0.388000488	0.050048828	0.052185059	0.999999046	0.00030899	2.38E-05	5.72E-05	9.700012207	1.251220703	1.304626465	0.015449524	0.001192093	0.002861023	-0.899414063	0.503173828	-0.034179688	891.48	43.1973917	-79.2850056	-144.5814113	-57
57420	0	0.388735771	0.050340652	0.051438332	0.999999046	0.000445366	-5.53E-05	6.48E-05	9.718394279	1.258516312	1.28595829	0.022268296	-0.002765656	0.003242493	-0.899414063	0.503173828	-0.037109375	891.48	43.28375286	-79.28570366	-144.609636	-57
57421	0	0.387512207	0.05078125	0.050354004	0.999999046	0.000156403	-0.000182152	3.81E-06	9.687805176	1.26953125	1.258850098	0.007820129	-0.00910759	0.000190735	-0.899169922	0.500976563	-0.039794922	891.48	43.41693855	-79.29220422	-144.7135272	-57
57422	0	0.387713432	0.049939156	0.049890518	0.999999046	0.000148773	6.87E-05	0.000212669	9.692835808	1.248478889	1.247262955	0.00743866	0.003433228	0.010633469	-0.899414063	0.503417969	-0.03125	891.52	43.3531046	-79.294323	-144.6375806	-57
57423	0	0.387756348	0.050415039	0.05065918	0.999999046	-3.81E-05	0.000187874	1.14E-05	9.693908691	1.260375977	1.266479492	-0.001907349	0.009393692	0.000572205	-0.899414063	0.503173828	-0.037109375	891.54	43.30712053	-79.27071578	-144.5886705	-57
57424	0	0.388775826	0.05137825	0.051296234	0.999999046	-0.00011158	0.000242233	0.000132561	9.719395638	1.284456253	1.282405853	-0.005578995	0.012111664	0.006628037	-0.899169922	0.500976563	-0.036865234	891.58	43.1774011	-79.252068	-144.4654303	-56
57425	0	0.385986328	0.049438477	0.054199219	0.999999046	-0.000148773	9.54E-07	0.000228882	9.649658203	1.235961914	1.354980469	-0.00743866	4.77E-05	0.011444092	-0.899414063	0.500976563	-0.033935547	891.58	43.10018266	-79.26104243	-144.4066926	-57
57426	0	0.386191368	0.049734116	0.051466942	0.999999046	-0.00028801	-9.92E-05	0.000170708	9.654784203	1.24335289	1.286673546	-0.014400482	-0.004959107	0.008535385	-0.899414063	0.503173828	-0.037109375	891.48	43.07387117	-79.2738698	-144.4067349	-57
57427	0	0.387084961	0.050292969	0.05279541	0.999999046	-0.000202179	-8.30E-05	0.000221252	9.677124023	1.257324219	1.319885254	-0.010108948	-0.004148483	0.011062622	-0.899414063	0.500976563	-0.033935547	891.52	43.0281398	-79.28925729	-144.3847171	-57
57428	0	0.388640404	0.04900074	0.05116272	0.999999046	-0.00020504	-5.15E-05	0.000343323	9.716010094	1.225018501	1.279067993	-0.010251999	-0.002574921	0.017166138	-0.899414063	0.500976563	-0.031005859	891.52	42.91464813	-79.31161329	-144.3003886	-57
57429	0	0.38873291	0.050231934	0.05279541	0.999999046	-0.000209808	-2.57E-05	0.000232697	9.718322754	1.25579834	1.319885254	-0.010490418	-0.00128746	0.011634827	-0.899414063	0.500976563	-0.033935547	891.54	42.83873145	-79.32312768	-144.2475173	-57
57430	0	0.387965202	0.051310539	0.051940918	0.999999046	-0.000274658	-7.63E-06	0.000263214	9.699130058	1.282763481	1.298522949	-0.01373291	-0.00038147	0.013160706	-0.899414063	0.503417969	-0.03125	891.46	42.7344083	-79.3354315	-144.1779702	-57
57431	0	0.388671875	0.049133301	0.051757813	0.999999046	-0.000324249	2.77E-05	0.000156403	9.716796875	1.22833252	1.293945313	-0.016212464	0.001382828	0.00782013	-0.896972656	0.500976563	-0.03125	891.54	42.65737121	-79.33648001	-144.14172	-57
57432	0	0.388195992	0.050258636	0.052542686	0.999999046	-0.000208855	6.68E-05	0.000202179	9.704899788	1.256465912	1.313567162	-0.010442734	0.00333786	0.010108948	-0.899414063	0.503173828	-0.034179688	891.48	42.55692513	-79.3377405	-144.0609651	-57
57433	0	0.387512207	0.050598145	0.054199219	0.999999046	-0.000240326	0.000164986	0.000171661	9.687805176	1.264953613	1.354980469	-0.012016297	0.008249283	0.008583069	-0.899414063	0.505615234	-0.034423828	891.48	42.42601518	-79.32819933	-143.9515616	-57
57434	0	0.389220238	0.050559998	0.053435326	0.999999046	-0.000516891	-2.29E-05	8.68E-05	9.730505943	1.263999939	1.335883141	-0.025844575	-0.001144409	0.004339218	-0.896972656	0.503173828	-0.037109375	891.54	42.37867597	-79.32790859	-143.9524739	-57
57435	0	0.389526367	0.049255371	0.051757813	0.999999046	-0.000232697	0.000256538	-0.000160217	9.73815918	1.231384277	1.293945313	-0.011634827	0.01282692	-0.008010864	-0.899414063	0.505615234	-0.034423828	891.52	42.36041061	-79.28493476	-143.9561193	-57
57436	0	0.388811111	0.05014801	0.053627014	0.999999046	-5.82E-05	0.000490189	3.81E-06	9.720277786	1.253700256	1.340675354	-0.002908707	0.024509431	0.000190735	-0.896972656	0.505371094	-0.037353516	891.54	42.19406568	-79.23475948	-143.7833305	-56
57437	0	0.387634277	0.050598145	0.054443359	0.999999046	-0.000293732	0.000504494	-2.67E-05	9.690856934	1.264953613	1.361083984	-0.014686585	0.025224687	-0.001335144	-0.899414063	0.503417969	-0.03125	891.54	42.01009057	-79.18084405	-143.6371126	-57
57438	0	0.389348984	0.050588608	0.05175209	0.999999046	-0.000413895	0.000730515	8.01E-05	9.733724594	1.264715195	1.293802261	-0.020694735	0.036525731	0.004005433	-0.899414063	0.503173828	-0.034179688	891.54	41.67719501	-79.11573114	-143.3485519	-57
57439	0	0.389526367	0.051696777	0.049804688	0.999999046	-0.000629425	0.001172066	7.25E-05	9.73815918	1.292419434	1.245117188	-0.031471262	0.058603304	0.003623963	-0.899414063	0.503417969	-0.03125	891.58	41.15567057	-79.01180313	-142.9028763	-57
57440	0	0.386669159	0.051454544	0.050652504	0.999999046	-0.000725746	0.000993729	0.000121117	9.666728973	1.286363602	1.266312599	-0.036287317	0.049686445	0.006055833	-0.899414063	0.503173828	-0.040039063	891.48	40.67979017	-78.92632748	-142.4969624	-57
57441	0	0.386047363	0.049865723	0.053283691	0.999999046	-0.000972748	0.000779152	6.87E-05	9.651184082	1.246643066	1.332092285	-0.048637403	0.038957606	0.003433228	-0.899414063	0.503173828	-0.040039063	891.54	40.28674797	-78.85514919	-142.2052972	-57
57442	0	0.386521339	0.049405098	0.052699089	0.999998093	-0.001486778	0.000592232	-0.000222206	9.663033485	1.235127449	1.317477226	-0.074338945	0.0296116	-0.011110311	-0.899414063	0.503173828	-0.034179688	891.54	40.03802294	-78.77866614	-142.1329074	-57
57443	0	0.389892578	0.049804688	0.049377441	0.999998093	-0.001387596	0.000743866	-0.00030899	9.747314453	1.245117188	1.234436035	-0.069379836	0.037193314	-0.015449531	-0.896728516	0.500976563	-0.042724609	891.58	39.78650046	-78.68272234	-142.0259979	-57
57444	0	0.3897295	0.050402641	0.047410965	0.999998093	-0.001405716	0.000971794	-0.000221252	9.743237495	1.260066032	1.185274124	-0.070285832	0.04858973	-0.011062628	-0.899169922	0.500976563	-0.036865234	891.54	39.41680527	-78.57334562	-141.8153907	-57
57445	0	0.390014648	0.050109863	0.045471191	0.999997139	-0.001628876	0.001271248	-0.000392914	9.750366211	1.252746582	1.136779785	-0.081443847	0.06356244	-0.019645705	-0.899169922	0.500976563	-0.042724609	891.54	38.99795638	-78.42516863	-141.5680689	-57
57446	0	0.390042305	0.049717903	0.046073914	0.999997139	-0.001195908	0.001577377	-0.000258446	9.751057625	1.242947578	1.151847839	-0.059795419	0.078868918	-0.012922296	-0.903808594	0.501220703	-0.042480469	891.58	38.47510842	-78.25942016	-141.1690938	-57
57447	0	0.389831543	0.048461914	0.048583984	0.999997139	-0.00120163	0.001923561	-0.000217438	9.745788574	1.211547852	1.214599609	-0.060081534	0.096178138	-0.010871897	-0.901611328	0.500976563	-0.042480469	891.48	37.83249891	-78.06510066	-140.6524236	-57
57448	0	0.388648033	0.04985714	0.048976898	0.999996185	-0.001153946	0.002303123	-0.000164032	9.716200829	1.24642849	1.224422455	-0.05769736	0.115156302	-0.008201608	-0.901367188	0.498779297	-0.042236328	891.48	37.07062668	-77.83919808	-140.0158177	-57
57449	0	0.388549805	0.047424316	0.048217773	0.999995232	-0.001167297	0.002625465	-0.00019455	9.713745117	1.18560791	1.205444336	-0.058364949	0.131273451	-0.009727491	-0.901367188	0.498779297	-0.051025391	891.46	36.24751217	-77.58042885	-139.305022	-57
57450	0	0.387980461	0.048381805	0.047681808	0.999995232	-0.001012802	0.002693176	-0.000190735	9.699511528	1.209545135	1.192045212	-0.050640176	0.134659	-0.009536756	-0.901367188	0.498779297	-0.051025391	891.48	35.45334632	-77.31428015	-138.6133808	-57
57451	0	0.388122559	0.048278809	0.045837402	0.999995232	-0.000892639	0.002934456	-0.000205994	9.703063965	1.206970215	1.145935059	-0.044632028	0.146723025	-0.010299699	-0.903564453	0.496582031	-0.056640625	891.5	34.64339532	-77.02331426	-137.8892066	-56
57452	0	0.388197899	0.049149513	0.047225952	0.999993324	-0.000748634	0.00330925	-0.000137329	9.704947472	1.228737831	1.180648804	-0.037431789	0.165462812	-0.006866468	-0.900878906	0.494140625	-0.062255859	891.54	33.75661526	-76.69980833	-137.0671549	-56
57453	0	0.388000488	0.048706055	0.048034668	0.999993324	-0.000728607	0.003563881	-0.000205994	9.700012207	1.217651367	1.200866699	-0.036430439	0.17819444	-0.010299705	-0.903320313	0.496582031	-0.065185547	891.48	32.87672791	-76.34574272	-136.2540569	-56
57454	0	0.387838364	0.050447464	0.046905518	0.999991417	-0.000648499	0.004058838	-0.000343323	9.695959091	1.2611866	1.172637939	-0.032425019	0.20294247	-0.017166186	-0.900878906	0.496337891	-0.068359375	891.58	31.98453697	-75.93354697	-135.4237244	-56
57455	0	0.385070801	0.049377441	0.047912598	0.999988556	-0.000910759	0.004570007	-0.000247955	9.62677002	1.234436035	1.197814941	-0.045538114	0.228501196	-0.012397811	-0.903076172	0.496337891	-0.076904297	891.5	30.96134387	-75.47495121	-134.4848439	-55
57456	0	0.384618759	0.049238205	0.048589706	0.999987602	-0.000605583	0.004749298	-0.000308037	9.615468979	1.230955124	1.214742661	-0.030279276	0.237465816	-0.015401899	-0.902832031	0.496337891	-0.085449219	891.48	30.01919461	-74.99249235	-133.5891457	-56
57457	0	0.384765625	0.050476074	0.052612305	0.999988556	-0.000742912	0.004669189	-0.00056076	9.619140625	1.261901855	1.315307617	-0.037145755	0.233460355	-0.028038131	-0.902587891	0.494140625	-0.096923828	891.54	29.22875819	-74.50150874	-132.8558355	-54
57458	0	0.384799957	0.052116394	0.05066967	0.999986649	-0.001469612	0.004862785	-0.000434875	9.619998932	1.302909851	1.266741753	-0.073480924	0.24314032	-0.021743869	-0.902587891	0.493896484	-0.102783203	891.5	28.32463888	-73.99663972	-132.0917445	-54
57459	0	0.384399414	0.045715332	0.048156738	0.999979973	-0.001605988	0.006062508	-0.000480652	9.609985352	1.142883301	1.203918457	-0.080299907	0.30312738	-0.024032751	-0.90234375	0.491699219	-0.111083984	891.54	27.26079712	-73.3660056	-131.1780624	-54
57460	0	0.382236481	0.04592514	0.051293373	0.999972343	-0.001038551	0.007324219	-0.000426292	9.555912018	1.14812851	1.282334328	-0.051928042	0.366214289	-0.021314816	-0.902099609	0.491699219	-0.116943359	891.58	26.11175275	-72.60592263	-130.1183973	-52
57461	0	0.377929688	0.051757813	0.055358887	0.999964714	-0.00082016	0.00830555	-0.000259399	9.448242188	1.293945313	1.383972168	-0.041008472	0.415282307	-0.012970121	-0.901855469	0.491455078	-0.128662109	891.48	24.88517872	-71.7478663	-128.9518055	-52
57462	0	0.372018814	0.047829628	0.059853554	0.999960899	-0.000543594	0.008731842	-9.73E-05	9.300470352	1.1957407	1.496338844	-0.027180065	0.436597672	-0.004863801	-0.901611328	0.489257813	-0.148681641	891.48	23.69352338	-70.84717549	-127.7717968	-52
57463	0	0.371704102	0.04486084	0.062927246	0.999958992	-1.53E-05	0.009022713	-0.000175476	9.292602539	1.121520996	1.573181152	-0.00076295	0.451141759	-0.008773923	-0.896728516	0.491210938	-0.160644531	891.52	22.65656077	-69.90698267	-126.6912072	-51
57464	0	0.36788559	0.048588753	0.065120697	0.999951363	0.000565529	0.009819031	-0.000365257	9.19713974	1.214718819	1.628017426	0.0282769	0.490959465	-0.018263158	-0.896240234	0.488769531	-0.180908203	891.58	21.74635347	-68.86993171	-125.6638008	-52
57465	0	0.363220215	0.04675293	0.068786621	0.999945641	0.000801086	0.010361671	-0.000534058	9.080505371	1.168823242	1.719665527	0.040055044	0.518092923	-0.026703363	-0.893310547	0.488525391	-0.201171875	891.5	20.9447382	-67.76464143	-124.7119029	-52
57466	0	0.361141205	0.041257858	0.066574097	0.99993515	0.0016222	0.011208534	-0.000709534	9.028530121	1.031446457	1.664352417	0.081111741	0.56043874	-0.035477446	-0.890625	0.486083984	-0.221435547	891.5	20.28513076	-66.55954119	-123.8072704	-52
57467	0	0.354370117	0.048583984	0.06439209	0.999920845	0.002025604	0.012406349	-0.000530243	8.85925293	1.214599609	1.609802246	0.101282885	0.620333826	-0.026512846	-0.887695313	0.483642578	-0.241699219	891.58	19.60689588	-65.23104673	-122.834087	-55
57468	0	0.349360466	0.047782898	0.061411858	0.999897957	0.002295494	0.014034271	-0.000840187	8.73401165	1.194572449	1.53529644	0.114778586	0.701737298	-0.042010775	-0.882324219	0.480957031	-0.270751953	891.6	18.99127541	-63.71335185	-121.8771868	-55
57469	0	0.346984863	0.044921875	0.058288574	0.999873161	0.001960754	0.015709877	-0.001182556	8.674621582	1.123046875	1.457214355	0.098041838	0.785526851	-0.059130292	-0.877197266	0.48046875	-0.291259766	891.5	18.38322301	-62.00039472	-120.9846278	-55
57470	0	0.344846725	0.046801567	0.058227539	0.999848366	0.001579285	0.017240524	-0.001527786	8.621168137	1.170039177	1.455688477	0.078968209	0.862069618	-0.076393159	-0.866943359	0.477783203	-0.323486328	891.5	17.79580589	-60.10804032	-120.1422602	-55
57471	0	0.328125	0.040405273	0.055664063	0.999822617	0.002343178	0.018489838	-0.002407074	8.203125	1.010131836	1.391601563	0.117165787	0.924546306	-0.120360784	-0.861328125	0.470703125	-0.354980469	891.48	17.46924768	-58.04959713	-119.4994121	-55
57472	0	0.297471046	0.035242081	0.055800438	0.999785423	0.003373146	0.020051956	-0.003862381	7.436776161	0.881052017	1.395010948	0.168669347	1.002669404	-0.19313284	-0.850830078	0.465576172	-0.392822266	891.5	17.47973895	-55.77329361	-119.0943675	-55
57473	0	0.276794434	0.043151855	0.055664063	0.999717712	0.004731178	0.02274704	-0.004928589	6.91986084	1.078796387	1.391601563	0.23658116	1.137458947	-0.246452618	-0.842773438	0.456054688	-0.427246094	891.46	17.70606089	-53.16980375	-118.7882448	-57
57474	0	0.237411499	0.043738365	0.063451767	0.999627113	0.007923126	0.025560379	-0.005373001	5.935287476	1.093459129	1.586294174	0.396205515	1.278177687	-0.268683423	-0.829589844	0.444335938	-0.473144531	891.58	18.24274658	-50.24818811	-118.4168834	-58
57475	0	0.156738281	0.04309082	0.057617188	0.999669075	0.007041931	0.023823738	-0.006671906	3.918457031	1.077270508	1.440429688	0.352135398	1.191318307	-0.333632075	-0.811279297	0.427734375	-0.524902344	891.5	18.91348684	-47.4721668	-118.3022711	-61
57476	0	0.07703495	0.046327591	0.035981178	0.99957943	-0.003066063	0.02722168	-0.009487152	1.925873756	1.158189774	0.899529457	-0.153324628	1.361274705	-0.474424074	-0.795654297	0.411376953	-0.564941406	891.5	18.61810041	-44.22305595	-118.469673	-68
57477	0	-0.025268555	0.032165527	0.031738281	0.999524117	-0.010101318	0.027409554	-0.009845734	-0.631713867	0.804138184	0.793457031	-0.505145943	1.370694821	-0.492364682	-0.780273438	0.403808594	-0.605712891	891.5	17.57756169	-40.93725982	-118.7377035	-75
57478	0	-0.093079567	-0.023991585	0.018805504	0.999284744	-0.018609047	0.031847954	-0.008252144	-2.326989174	-0.599789619	0.470137596	-0.930674044	1.592777107	-0.412705504	-0.763183594	0.407470703	-0.641845703	891.46	15.36502986	-37.21396571	-118.7773751	-65
57479	0	-0.047241211	-0.060974121	-0.046264648	0.998671532	-0.025478363	0.043839455	-0.009155273	-1.181030273	-1.524353027	-1.156616211	-1.274482506	2.192943791	-0.457966464	-0.732421875	0.428222656	-0.679931641	891.54	12.33599568	-32.12740573	-118.8839224	-63
57480	0	0.087544441	-0.020794868	0.127505302	0.997819901	-0.017368317	0.063483238	-0.004701614	2.188611031	-0.519871712	3.187632561	-0.869047234	3.176469758	-0.23525164	-0.680175781	0.452636719	-0.737060547	891.46	9.884410333	-24.92297066	-118.4780918	-72
57481	0	0.553955078	0.160522461	1.35345459	0.995490074	-0.014701843	0.093693733	-0.001880646	13.84887695	4.013061523	33.83636475	-0.736199068	4.691740884	-0.094173882	-0.579101563	0.470703125	-0.842529297	891.6	7.694254151	-14.30105484	-117.7675989	-66
57482	0	-0.070002556	0.042160034	2.218408585	0.998718262	0.006236076	0.045294762	-0.021681786	-1.750063896	1.054000854	55.46021461	0.311937039	2.265705714	-1.084552467	-0.449707031	0.485595703	-0.934814453	891.6	8.751311045	-8.813569282	-119.5284865	-68
57483	0	-0.112426758	0.389648438	1.088989258	0.998250008	-0.002464294	0.056633949	-0.016819	-2.810668945	9.741210938	27.22473145	-0.123286635	2.833350169	-0.841440828	-0.404785156	0.454833984	-0.981201172	891.54	8.55954554	-2.096270435	-120.6101368	-85
57484	0	0.132296562	0.108462334	0.432283401	0.999513626	-0.015935898	0.025448799	0.008310318	3.307414055	2.711558342	10.80708504	-0.79692385	1.272645897	0.41558315	-0.328125	0.454101563	-1.008544922	891.58	6.718310686	0.66874007	-119.3184037	-78
57485	0	0.075317383	0.079467773	0.332824707	0.99938488	-0.019348145	0.029229164	0.000709534	1.88293457	1.986694336	8.320617676	-0.967605525	1.461757776	0.035483957	-0.272949219	0.494628906	-1.000488281	891.58	4.519910623	3.990931636	-118.9289538	-72
57486	0	-0.099496841	0.009451866	0.223430634	0.999835968	-0.014555931	0.010546684	-0.001787186	-2.487421036	0.236296654	5.585765839	-0.727836141	0.527362896	-0.089364144	-0.236572266	0.529052734	-0.990722656	891.64	2.843653813	5.210580686	-119.0625963	-70
57487	0	-0.250488281	0.026245117	0.225830078	0.999882698	-0.011898041	0.009289742	-0.002368927	-6.262207031	0.65612793	5.645751953	-0.59492519	0.464505152	-0.11845096	-0.230712891	0.555664063	-0.976074219	891.6	1.459571233	6.296425712	-119.3065692	-66
57488	0	-0.25229454	0.007185936	0.256479263	0.999904633	-0.008592606	0.010790825	7.82E-05	-6.30736351	0.179648399	6.411981583	-0.429643906	0.539558357	0.003910189	-0.21484375	0.570556641	-0.972412109	891.64	0.481058442	7.555405207	-119.2888106	-68
57489	0	-0.23614502	0.037353516	0.29901123	0.999927521	-0.011946678	-9.92E-05	0.000736237	-5.903625488	0.933837891	7.475280762	-0.597348173	-0.004959225	0.036812708	-0.203857422	0.588134766	-0.959960938	891.6	-0.87253082	7.576198537	-119.2148475	-70
57490	0	-0.213123322	-0.042999268	0.348536491	0.99998188	-0.004646301	-0.002130508	-0.003127098	-5.328083038	-1.074981689	8.713412285	-0.232316454	-0.106526059	-0.15635584	-0.209716797	0.610595703	-0.949951172	891.6	-1.449189796	7.364225809	-119.5818032	-70
57491	0	-0.177490234	-0.081604004	0.474365234	0.999986649	-0.00146389	-0.001438141	-0.004653931	-4.437255859	-2.040100098	11.85913086	-0.073194819	-0.071907354	-0.232697537	-0.219482422	0.611083984	-0.946533203	891.64	-1.686436369	7.229180811	-120.1266583	-69
57492	0	-0.077466965	-0.062908173	0.431745529	0.999939919	-0.007660866	-0.005548477	-0.005529404	-1.936674118	-1.572704315	10.79363823	-0.383050954	-0.27742941	-0.276475716	-0.229248047	0.615722656	-0.943359375	891.64	-2.643079263	6.614150963	-120.7525541	-67
57493	0	-0.019592285	-0.066467285	0.408935547	0.999912262	-0.009070396	-0.008911133	0.003700256	-0.489807129	-1.661682129	10.22338867	-0.453533078	-0.445569665	0.185018225	-0.244384766	0.634277344	-0.9296875	891.54	-3.638124704	5.659378037	-120.2837138	-67
57494	0	-0.033143997	-0.05910778	0.406320572	0.999958038	2.86E-06	-0.007029533	0.005764961	-0.82859993	-1.477694511	10.1580143	0.000143053	-0.351481511	0.288252033	-0.252441406	0.647949219	-0.915771484	891.6	-3.58017015	4.937217585	-119.5829533	-67
57495	0	-0.08984375	-0.063720703	0.35736084	0.999991417	-0.000507355	-0.003993034	0.000869751	-2.24609375	-1.593017578	8.934020996	-0.025367809	-0.199652282	0.043487672	-0.254882813	0.650146484	-0.913085938	891.58	-3.637487914	4.529081787	-119.4662385	-68
57496	0	-0.036870956	-0.049235344	0.346385002	0.99998188	-0.001233101	-0.00500679	-0.002859116	-0.921773911	-1.230883598	8.659625053	-0.061655402	-0.250340959	-0.142956608	-0.259765625	0.650390625	-0.909912109	891.54	-3.811334282	3.976937292	-119.767982	-69
57497	0	0.036010742	-0.019836426	0.342773438	0.999970436	0.003948212	-0.004939079	-0.00421524	0.900268555	-0.495910645	8.569335938	0.197412484	-0.246956341	-0.210764053	-0.271728516	0.650878906	-0.903564453	891.56	-3.398585669	3.419286386	-120.2260731	-71
57498	0	0.072390556	0.001788139	0.413795471	0.999966621	0.006011963	-0.005279541	-0.001317978	1.809763908	0.044703484	10.34488678	0.300601439	-0.263979944	-0.065899617	-0.285644531	0.642333984	-0.907714844	891.6	-2.725544958	2.838902576	-120.3564569	-71
57499	0	0.072998047	-0.014038086	0.442565918	0.999967575	0.004479408	-0.005355835	0.003864288	1.824951172	-0.350952148	11.06414795	0.22397279	-0.26779459	0.193216467	-0.294433594	0.629394531	-0.912109375	891.58	-2.200089489	2.271138495	-119.9001551	-71
57500	0	0.000927925	-0.043931007	0.450498581	0.999985695	0.004042625	-0.002058029	0.002554893	0.023198128	-1.098275185	11.26246452	0.202132185	-0.102901924	0.127745252	-0.296630859	0.625	-0.914306641	891.6	-1.735221405	2.070470108	-119.6118099	-70
57501	0	-0.018371582	-0.004455566	0.396118164	0.999987602	0.004760742	0.000435829	-0.000816345	-0.459289551	-0.11138916	9.902954102	0.238038043	0.021791544	-0.040817421	-0.298583984	0.618408203	-0.919433594	891.6	-1.202352162	2.142716146	-119.7190212	-70
57502	0	-0.015627861	0.019865036	0.390255928	0.999982834	0.005385399	0.0016222	-0.001531601	-0.390696526	0.4966259	9.756398201	0.269271468	0.08111046	-0.076580481	-0.298095703	0.607177734	-0.924560547	891.6	-0.599917202	2.350120066	-119.9099005	-69
57503	0	-0.029724121	0.019165039	0.392333984	0.999996185	0.001908302	0.001899719	-0.000255585	-0.743103027	0.479125977	9.808349609	0.095415232	0.094986078	-0.012779251	-0.297607422	0.598144531	-0.932373047	891.56	-0.389057106	2.592056512	-119.9541102	-69
57504	0	-0.041692734	0.010055542	0.385611534	0.999999046	-0.000201225	-0.000333786	0.00113678	-1.042318344	0.25138855	9.640288353	-0.010061266	-0.016689305	0.056839003	-0.294921875	0.595947266	-0.938232422	891.5	-0.411967735	2.57991814	-119.8361088	-69
57505	0	-0.033813477	-0.00567627	0.398254395	0.999998093	-0.000258446	-0.001647949	0.000888824	-0.845336914	-0.141906738	9.956359863	-0.012922295	-0.08239751	0.04444125	-0.292724609	0.595703125	-0.932373047	891.58	-0.442850426	2.417280241	-119.7447031	-69
57506	0	-0.018574715	-0.019467354	0.411978722	0.999999046	-0.000221252	-0.000606537	0.000423431	-0.464367867	-0.486683846	10.29946804	-0.011062623	-0.030326846	0.021171572	-0.295166016	0.598144531	-0.932617188	891.54	-0.472644523	2.373100379	-119.7077201	-69
57507	0	-0.012329102	-0.008483887	0.411804199	0.999999046	-0.00069046	-0.000468254	0.000137329	-0.308227539	-0.212097168	10.29510498	-0.034523014	-0.023412707	0.006866456	-0.295166016	0.600341797	-0.935546875	891.54	-0.557758952	2.343714193	-119.7034711	-69
57508	0	-0.000600815	-0.00293541	0.40203476	0.999999046	3.34E-05	-0.00047493	4.86E-05	-0.01502037	-0.073385239	10.05086899	0.00166893	-0.023746491	0.00243187	-0.297607422	0.600341797	-0.9296875	891.6	-0.560214302	2.312126241	-119.7095739	-70
57509	0	0.002746582	-0.008178711	0.393676758	0.999999046	0.000602722	-0.000315666	0.000354767	0.068664551	-0.204467773	9.841918945	0.030136111	-0.015783311	0.017738344	-0.297607422	0.598144531	-0.935302734	891.6	-0.496165922	2.297670203	-119.6807906	-69
57510	0	-0.007208824	-0.011915207	0.389911652	0.999999046	0.00037384	0.000675201	0.00064373	-0.180220604	-0.297880173	9.74779129	0.01869202	0.033760076	0.032186514	-0.297607422	0.600341797	-0.935546875	891.7	-0.457345954	2.396120867	-119.6198139	-69
57511	0	-0.015075684	-0.00769043	0.390014648	0.999998093	0.000714302	0.000839233	0.00094986	-0.37689209	-0.192260742	9.750366211	0.035715116	0.041961685	0.047492998	-0.295410156	0.600341797	-0.929931641	891.6	-0.378011559	2.513064594	-119.5236524	-69
57512	0	-0.024306297	0.000507355	0.408771515	0.999994278	0.002336502	0.000441551	0.001221657	-0.607657433	0.012683868	10.21928787	0.116825243	0.022077587	0.061082913	-0.292480469	0.595703125	-0.938232422	891.64	-0.110923715	2.584180403	-119.3958095	-69
57513	0	-0.023925781	-0.003417969	0.411621094	0.999996185	0.002434731	-0.000427246	0.000957489	-0.598144531	-0.085449219	10.29052734	0.121736669	-0.02136233	0.047874507	-0.290039063	0.593505859	-0.941162109	891.6	0.166105697	2.554999316	-119.2975894	-69
57514	0	-0.017789841	-0.001371384	0.401027679	0.999999046	0.000883102	-0.000495911	0.000553131	-0.444746017	-0.034284592	10.02569199	0.044155131	-0.024795538	0.027656561	-0.290039063	0.593505859	-0.938232422	891.7	0.263196452	2.517384151	-119.245911	-69
57515	0	-0.012329102	0.005737305	0.400817871	0.999999046	-3.81E-05	-0.000159264	2.29E-05	-0.308227539	0.143432617	10.02044678	-0.001907349	-0.007963181	0.001144409	-0.292236328	0.591308594	-0.940917969	891.58	0.252334241	2.517903753	-119.2555568	-69
57516	0	-0.007134438	0.00894165	0.40210247	0.999999046	5.63E-05	-3.43E-05	-0.000172615	-0.178360939	0.22354126	10.05256176	0.002813339	-0.001716614	-0.008630753	-0.290039063	0.591308594	-0.940917969	891.54	0.251740339	2.531905554	-119.2870692	-69
57517	0	-0.009521484	0.007873535	0.399902344	0.999999046	5.34E-05	0.000187874	-0.000148773	-0.238037109	0.196838379	9.997558594	0.002670288	0.009393692	-0.00743866	-0.290039063	0.591308594	-0.943847656	891.58	0.251304459	2.57057385	-119.3158434	-69
57518	0	-0.01449585	0.006324768	0.401360512	0.999999046	-7.44E-05	0.000432968	0.000201225	-0.36239624	0.158119202	10.03401279	-0.00371933	0.021648408	0.010061264	-0.290039063	0.591308594	-0.940917969	891.6	0.238320223	2.636627119	-119.3045521	-69
57519	0	-0.016723633	0.003967285	0.399597168	0.999999046	-0.000167847	0.000329018	0.000133514	-0.41809082	0.099182129	9.989929199	-0.008392334	0.016450882	0.00667572	-0.289794922	0.588867188	-0.946533203	891.58	0.214449781	2.690386759	-119.301408	-69
57520	0	-0.019062996	-0.002142906	0.401230812	0.999998093	7.63E-06	1.43E-05	0.000209808	-0.476574898	-0.053572655	10.0307703	0.00038147	0.000715256	0.010490418	-0.287597656	0.588867188	-0.940917969	891.66	0.210960585	2.707743276	-119.2891649	-69
57521	0	-0.016479492	-0.00378418	0.401916504	0.999999046	-3.43E-05	-0.000266075	0.000232697	-0.411987305	-0.094604492	10.0479126	-0.001716614	-0.013303757	0.011634827	-0.287597656	0.591064453	-0.943847656	891.58	0.202570146	2.692525016	-119.2742395	-69
57522	0	-0.013584137	-0.006308556	0.399664879	0.999999046	-1.91E-05	-7.06E-05	0.000141144	-0.339603424	-0.15771389	9.991621971	-0.000953674	-0.003528595	0.00705719	-0.292236328	0.591308594	-0.946533203	891.7	0.195109564	2.699188627	-119.2705351	-69
57523	0	-0.014038086	-0.003234863	0.400024414	0.999999046	9.92E-05	0.000279427	-3.05E-05	-0.350952148	-0.080871582	10.00061035	0.004959107	0.013971329	-0.001525879	-0.287597656	0.593261719	-0.944091797	891.48	0.200102129	2.745496589	-119.2853104	-69
57524	0	-0.012611389	-0.000655174	0.397087097	0.999999046	7.92E-05	0.000333786	-2.38E-05	-0.315284729	-0.016379356	9.927177429	0.003957748	0.016689301	-0.001192093	-0.287597656	0.591064453	-0.938232422	891.56	0.202792671	2.797435175	-119.2996874	-69
57525	0	-0.01361084	0.00201416	0.400512695	0.999999046	0.000453949	0.000489235	0.00018692	-0.340270996	0.050354004	10.01281738	0.022697451	0.024461748	0.009346009	-0.287353516	0.588867188	-0.943847656	891.64	0.249719932	2.866539942	-119.2901224	-69
57526	0	-0.016505241	0.003543854	0.401836395	0.999999046	0.000730515	0.000253677	0.000247955	-0.412631035	0.088596344	10.04590988	0.03652573	0.01268387	0.012397767	-0.289794922	0.586669922	-0.940673828	891.5	0.328864408	2.908182369	-119.2741198	-69
57527	0	-0.018249512	0.004150391	0.401000977	0.999999046	0.000484467	0.000195503	0.000179291	-0.456237793	0.103759766	10.02502441	0.024223329	0.009775162	0.008964539	-0.284912109	0.586425781	-0.952392578	891.64	0.37958272	2.942849191	-119.2650596	-69
57528	0	-0.018037796	0.004300117	0.400562286	0.999999046	0.000210762	0.000272751	6.01E-05	-0.450944901	0.107502937	10.01405716	0.010538101	0.013637543	0.003004074	-0.284912109	0.588867188	-0.946777344	891.5	0.398386313	2.986104181	-119.2694423	-69
57529	0	-0.017211914	0.004272461	0.401000977	0.999999046	5.72E-05	0.000454903	1.53E-05	-0.430297852	0.106811523	10.02502441	0.002861023	0.022745133	0.000762939	-0.284912109	0.588867188	-0.949707031	891.56	0.39946286	3.049868796	-119.2790773	-69
57530	0	-0.016049385	0.004379272	0.400375366	0.999999046	0.000207901	0.000356674	4.58E-05	-0.401234627	0.109481812	10.00938416	0.01039505	0.01783371	0.002288818	-0.284912109	0.588623047	-0.952636719	891.54	0.41811603	3.101885142	-119.2854157	-69
57531	0	-0.016906738	0.001525879	0.399780273	0.999999046	0.00025177	0.000443459	-4.96E-05	-0.422668457	0.038146973	9.994506836	0.012588502	0.022172929	-0.002479553	-0.282470703	0.586425781	-0.943847656	891.64	0.441176515	3.163500495	-119.3023744	-69
57532	0	-0.017382622	0.000869751	0.399336815	0.999999046	0.000229836	0.000291824	-0.000125885	-0.434565544	0.021743774	9.983420372	0.011491776	0.014591217	-0.006294251	-0.282470703	0.586425781	-0.949707031	891.5	0.46115365	3.207401226	-119.3283091	-69
57533	0	-0.018920898	0.002258301	0.399902344	0.999999046	0.000217438	0.000164986	0.000102997	-0.473022461	0.05645752	9.997558594	0.010871887	0.008249283	0.005149841	-0.282470703	0.588623047	-0.949707031	891.58	0.48116843	3.236218092	-119.3279125	-69
57534	0	-0.0188694	0.003534317	0.401053429	0.999999046	-1.72E-05	-0.000135422	-1.91E-05	-0.471735001	0.088357925	10.02633572	-0.000858307	-0.006771088	-0.000953674	-0.282470703	0.586425781	-0.949707031	891.6	0.47355651	3.230378795	-119.342028	-69
57535	0	-0.01739502	0.002075195	0.404296875	0.999999046	0.000179291	-0.000349998	2.67E-05	-0.434875488	0.051879883	10.10742188	0.008964539	-0.017499924	0.001335144	-0.282226563	0.584228516	-0.952392578	891.6	0.488731981	3.199486227	-119.3511295	-69
57536	0	-0.020469666	0.003013611	0.402357101	0.999999046	-0.000569344	-0.000505447	-0.000144958	-0.511741638	0.075340271	10.05892754	-0.028467181	-0.025272372	-0.007247926	-0.282470703	0.584228516	-0.943603516	891.6	0.41705942	3.150692787	-119.3798944	-69
57537	0	-0.016723633	0.00378418	0.394226074	0.999999046	-0.000675201	-0.000460625	4.58E-05	-0.41809082	0.094604492	9.855651855	-0.033760075	-0.023031237	0.002288819	-0.287353516	0.586669922	-0.943603516	891.66	0.334578999	3.106471484	-119.387317	-69
57538	0	-0.018000603	0.003608704	0.401816368	0.999999046	-1.14E-05	-0.000268936	0.000227928	-0.450015068	0.09021759	10.0454092	-0.000572205	-0.013446808	0.011396408	-0.28515625	0.588867188	-0.943847656	891.58	0.329414458	3.08377574	-119.3728163	-69
57539	0	-0.01763916	0.001281738	0.40625	0.999999046	5.34E-05	-0.000658989	0.000244141	-0.440979004	0.032043457	10.15625	0.002670288	-0.03294945	0.012207032	-0.284912109	0.588867188	-0.946777344	891.64	0.33174998	3.016047549	-119.3565641	-69
57540	0	-0.016235352	0.002502441	0.39831543	0.999999046	-0.00052166	-0.000835419	3.81E-05	-0.405883789	0.062561035	9.957885742	-0.026082997	-0.041770942	0.001907349	-0.287353516	0.588867188	-0.943847656	891.54	0.266995461	2.927891225	-119.364393	-69
57541	0	-0.016052246	0.003356934	0.399291992	0.999999046	-0.000453949	-0.000563622	7.63E-06	-0.401306152	0.08392334	9.982299805	-0.022697451	-0.028181079	0.00038147	-0.287353516	0.588867188	-0.943847656	891.6	0.209965743	2.870570747	-119.3753725	-69
57542	0	-0.015843391	0.002199173	0.40132618	0.999999046	-0.000274658	-0.000562668	6.39E-05	-0.396084785	0.054979324	10.03315449	-0.013732911	-0.028133394	0.003194809	-0.290039063	0.591308594	-0.940917969	891.56	0.173894571	2.813026542	-119.3799799	-69
57543	0	-0.015380859	0.001464844	0.401123047	0.999999046	-0.000221252	-0.000544548	7.25E-05	-0.384521484	0.036621094	10.02807617	-0.011062623	-0.027227403	0.003623963	-0.290039063	0.591308594	-0.943847656	891.54	0.144050788	2.757256428	-119.3834284	-70
57544	0	-0.014151573	0.000740051	0.399978638	0.999999046	-0.000355721	-0.000385284	-0.000118256	-0.35378933	0.018501282	9.999465942	-0.017786027	-0.019264222	-0.005912781	-0.290039063	0.591308594	-0.937988281	891.6	0.097784581	2.719451411	-119.4085151	-69
57545	0	-0.014221191	-0.000366211	0.40057373	0.999999046	-0.000144958	-0.000384331	6.87E-05	-0.355529785	-0.009155273	10.01434326	-0.007247925	-0.019216538	0.003433228	-0.292480469	0.593505859	-0.940917969	891.6	0.076683376	2.681404049	-119.4123938	-70
57546	0	-0.014279366	-0.000724792	0.401011467	0.999999046	-0.000209808	-0.000509262	9.92E-05	-0.356984138	-0.018119812	10.02528667	-0.010490418	-0.025463106	0.004959107	-0.292236328	0.591308594	-0.940917969	891.56	0.048291587	2.62875466	-119.4128642	-69
57547	0	-0.014831543	0.000183105	0.400268555	0.999999046	-0.000244141	-0.000491142	7.63E-05	-0.370788574	0.004577637	10.00671387	-0.012207032	-0.024557115	0.003814697	-0.294677734	0.591308594	-0.940673828	891.6	0.01588052	2.577958395	-119.4163679	-70
57548	0	-0.013949394	0.00011158	0.400281906	0.999999046	-0.000412941	-0.00043869	2.67E-05	-0.348734856	0.002789497	10.00704765	-0.02064705	-0.021934511	0.001335144	-0.294677734	0.591308594	-0.943603516	891.56	-0.036083985	2.532923557	-119.4253374	-70
57549	0	-0.011962891	0.000244141	0.399353027	0.999999046	-0.000312805	-0.000170708	2.67E-05	-0.299072266	0.006103516	9.983825684	-0.015640259	-0.008535385	0.001335144	-0.294921875	0.593505859	-0.937988281	891.54	-0.07650593	2.518267856	-119.4339006	-70
57550	0	-0.011521339	0.000116348	0.399051666	1	-2.77E-05	-2.86E-06	-1.14E-05	-0.288033485	0.002908707	9.976291656	-0.001382828	-0.000143051	-0.000572205	-0.294677734	0.591308594	-0.940673828	891.6	-0.084375547	2.522506159	-119.4471372	-70
57551	0	-0.012451172	0.000305176	0.399414063	0.999999046	-3.05E-05	-6.01E-05	5.72E-05	-0.311279297	0.007629395	9.985351563	-0.001525879	-0.003004074	0.002861023	-0.294921875	0.593505859	-0.937988281	891.54	-0.09214622	2.519920906	-119.4521252	-69
57552	0	-0.0145998	-0.000756264	0.403321266	0.999999046	-5.44E-05	-0.000160217	6.68E-06	-0.364995003	-0.018906593	10.08303165	-0.002717972	-0.008010864	0.000333786	-0.297363281	0.59375	-0.937744141	891.6	-0.102874174	2.505682735	-119.46344	-70
57553	0	-0.013916016	-0.000244141	0.399597168	0.999999046	-0.000297546	-0.000254631	3.81E-06	-0.347900391	-0.006103516	9.989929199	-0.01487732	-0.012731552	0.000190735	-0.294921875	0.591308594	-0.934814453	891.54	-0.141422131	2.480434943	-119.4745852	-70
57554	0	-0.014139175	-0.001581192	0.399541855	0.999999046	-0.000247955	-0.000139236	1.14E-05	-0.353479385	-0.0395298	9.988546371	-0.012397766	-0.006961823	0.000572205	-0.292480469	0.593505859	-0.940917969	891.64	-0.174245557	2.468245843	-119.4839327	-70
57555	0	-0.012207031	-0.001342773	0.401306152	0.999999046	-0.00030899	-0.000247002	0.000133514	-0.305175781	-0.033569336	10.03265381	-0.015449524	-0.012350083	0.00667572	-0.294921875	0.595947266	-0.935302734	891.6	-0.213433488	2.44349627	-119.4796493	-70
57556	0	-0.012376785	-0.002684593	0.397708893	0.999999046	-0.000372887	-0.000144958	9.92E-05	-0.309419632	-0.06711483	9.942722321	-0.018644333	-0.007247925	0.004959107	-0.294921875	0.595947266	-0.935302734	891.54	-0.260144395	2.430206047	-119.4795014	-70
57557	0	-0.010620117	-0.002197266	0.396057129	0.999999046	0.000270844	-9.82E-05	0.00012207	-0.26550293	-0.054931641	9.901428223	0.013542176	-0.004911423	0.006103516	-0.295166016	0.598144531	-0.938232422	891.6	-0.232968176	2.421986017	-119.476452	-70
57558	0	-0.011823654	-0.002466202	0.40008831	0.999999046	0.000202179	-3.43E-05	0.000201225	-0.295591354	-0.061655045	10.00220776	0.010108948	-0.001716614	0.010061264	-0.297363281	0.595947266	-0.935058594	891.56	-0.213291399	2.420890369	-119.4654462	-69
57559	0	-0.012329102	-0.004150391	0.40020752	0.999999046	0.00025177	1.24E-05	0.000225067	-0.308227539	-0.103759766	10.00518799	0.012588501	0.000619888	0.011253357	-0.294921875	0.595947266	-0.935302734	891.6	-0.18792026	2.424954122	-119.4509109	-70
57560	0	-0.014109612	-0.000951767	0.401428223	0.999999046	0.000235558	-2.10E-05	0.000171661	-0.352740288	-0.023794174	10.03570557	0.011777878	-0.001049042	0.008583069	-0.297363281	0.598144531	-0.938232422	891.54	-0.164613208	2.425059318	-119.4429276	-70
57561	0	-0.013305664	0.000549316	0.399169922	0.999999046	0.000118256	-5.63E-05	4.96E-05	-0.332641602	0.01373291	9.979248047	0.005912781	-0.002813339	0.002479553	-0.294921875	0.595947266	-0.938232422	891.6	-0.155220509	2.420936969	-119.4484655	-70
57562	0	-0.013015747	0.000156403	0.400208473	0.999999046	0.000270844	0.000116348	7.53E-05	-0.325393677	0.003910065	10.00521183	0.013542176	0.005817413	0.003767014	-0.294921875	0.595947266	-0.938232422	891.6	-0.128127608	2.436449757	-119.4511507	-70
57563	0	-0.013549805	6.10E-05	0.399475098	0.999999046	0.000102997	0.000206947	2.67E-05	-0.338745117	0.001525879	9.986877441	0.005149841	0.010347366	0.001335144	-0.294921875	0.593505859	-0.937988281	891.54	-0.120433883	2.462206507	-119.4600082	-69
57564	0	-0.011820793	-0.000528336	0.395564079	0.999999046	1.43E-05	0.000221252	4.10E-05	-0.295519829	-0.013208389	9.889101982	0.000715256	0.011062622	0.0020504	-0.294921875	0.595947266	-0.938232422	891.54	-0.122795691	2.489394377	-119.4668539	-70
57565	0	-0.014160156	-0.001586914	0.401672363	0.999999046	0.000267029	0.000321388	0.000217438	-0.354003906	-0.039672852	10.04180908	0.013351441	0.016069413	0.010871888	-0.292480469	0.593505859	-0.943847656	891.5	-0.095329266	2.527986691	-119.4534152	-70
57566	0	-0.015028954	-0.002648354	0.400565147	0.999999046	8.20E-05	-8.39E-05	9.92E-05	-0.375723839	-0.066208839	10.01412868	0.0041008	-0.004196167	0.004959106	-0.294921875	0.593505859	-0.940917969	891.5	-0.089731288	2.520033952	-119.4541996	-70
57567	0	-0.015319824	-0.001159668	0.399475098	0.999999046	-8.01E-05	-4.86E-05	3.43E-05	-0.382995605	-0.028991699	9.986877441	-0.004005432	-0.00243187	0.001716614	-0.294921875	0.593505859	-0.937988281	891.6	-0.103038735	2.516059393	-119.4622741	-70
57568	0	-0.014365196	-0.001833916	0.400513649	0.999999046	5.05E-05	5.91E-05	9.16E-05	-0.359129906	-0.045847893	10.01284122	0.002527237	0.00295639	0.004577637	-0.292480469	0.593505859	-0.940917969	891.64	-0.101115662	2.52434391	-119.4629913	-70
57569	0	-0.013061523	-0.001281738	0.398498535	0.999999046	4.96E-05	2.38E-05	5.72E-05	-0.326538086	-0.032043457	9.962463379	0.002479553	0.001192093	0.002861023	-0.294921875	0.593505859	-0.937988281	891.6	-0.099478816	2.528415784	-119.4685001	-70
57570	0	-0.013690948	-0.000142097	0.400389671	0.999999046	0.000154495	4.39E-05	0.000152588	-0.342273712	-0.003552437	10.00974178	0.007724762	0.002193451	0.007629395	-0.292480469	0.595703125	-0.941162109	891.5	-0.085280787	2.534668526	-119.461782	-69
57571	0	-0.013427734	0.000305176	0.398376465	0.999999046	0.000148773	4.29E-05	8.77E-05	-0.335693359	0.007629395	9.959411621	0.00743866	0.002145767	0.004386902	-0.292480469	0.593505859	-0.937988281	891.54	-0.071996721	2.540660884	-119.4630068	-70
57572	0	-0.015293121	-0.000245094	0.400205612	1	-2.67E-05	2.38E-05	4.10E-05	-0.382328033	-0.006127357	10.0051403	-0.001335144	0.001192093	0.0020504	-0.292480469	0.593505859	-0.943847656	891.56	-0.079021478	2.544413088	-119.4697504	-69
57573	0	-0.015136719	0.000366211	0.400085449	0.999999046	8.39E-05	-3.72E-05	0.000141144	-0.378417969	0.009155273	10.00213623	0.004196167	-0.001859665	0.00705719	-0.292480469	0.593505859	-0.935302734	891.54	-0.072789515	2.541130986	-119.4648657	-69
57574	0	-0.015229225	-0.000478745	0.399537086	0.999999046	6.87E-05	2.67E-05	0.000166893	-0.380730629	-0.011968613	9.988427162	0.003433228	0.001335144	0.00834465	-0.292480469	0.591308594	-0.937988281	891.5	-0.068154196	2.545127576	-119.4576373	-70
57575	0	-0.014465332	-0.000671387	0.401672363	0.999999046	3.81E-06	4.29E-05	8.01E-05	-0.361633301	-0.016784668	10.04180908	0.000190735	0.002145767	0.004005432	-0.294921875	0.593505859	-0.940917969	891.56	-0.071382526	2.550879475	-119.4608673	-69
57576	0	-0.013706207	-0.000910759	0.399534225	0.999999046	-0.000123024	-7.63E-06	2.57E-05	-0.342655182	-0.022768974	9.988355637	-0.006151199	-0.00038147	0.00128746	-0.290039063	0.595703125	-0.94140625	891.54	-0.089418519	2.550706088	-119.4678672	-70
57577	0	-0.01361084	-0.000671387	0.399536133	0.999999046	1.14E-05	0.000119209	0.000102997	-0.340270996	-0.016784668	9.98840332	0.000572205	0.005960465	0.005149841	-0.292480469	0.595703125	-0.944091797	891.6	-0.091636891	2.564954678	-119.4673775	-70
57578	0	-0.013949394	-0.001209259	0.397945404	0.999999046	0.000228882	0.000299454	8.39E-05	-0.348734856	-0.030231476	9.948635101	0.011444092	0.014972687	0.004196167	-0.290039063	0.593505859	-0.938232422	891.56	-0.069046807	2.599748474	-119.4686895	-69
57579	0	-0.015808105	0.000183105	0.400634766	0.999999046	0.000137329	0.000222206	0.000102997	-0.395202637	0.004577637	10.01586914	0.006866455	0.011110306	0.005149841	-0.290039063	0.593505859	-0.947021484	891.62	-0.056795084	2.62566575	-119.468184	-69
57580	0	-0.015863419	-0.000864029	0.399223328	0.999999046	0.000178337	-8.01E-05	0.000198364	-0.396585464	-0.021600723	9.980583191	0.008916855	-0.004005432	0.009918213	-0.292480469	0.593505859	-0.943847656	891.64	-0.039349483	2.616919602	-119.4576214	-69
57581	0	-0.015686035	0.000671387	0.398925781	0.999999046	0.000156403	-6.68E-06	2.29E-05	-0.392150879	0.016784668	9.973144531	0.007820129	-0.000333786	0.001144409	-0.290039063	0.593505859	-0.938232422	891.56	-0.025268055	2.616539322	-119.4658891	-70
57582	0	-0.015192032	0.001285553	0.400755882	0.999999046	5.72E-05	2.29E-05	8.30E-05	-0.379800797	0.032138824	10.01889706	0.002861023	0.001144409	0.004148483	-0.290039063	0.593505859	-0.938232422	891.56	-0.022146085	2.619488192	-119.4673596	-70
57583	0	-0.014587402	0.001281738	0.400024414	0.999999046	9.54E-05	-6.68E-06	0.00012207	-0.364685059	0.032043457	10.00061035	0.004768372	-0.000333786	0.006103516	-0.290039063	0.593505859	-0.938232422	891.64	-0.014360417	2.61895979	-119.4644	-69
57584	0	-0.014947891	0.000811577	0.400450706	0.999999046	-2.86E-06	1.14E-05	0.000105858	-0.373697281	0.020289421	10.01126766	-0.000143051	0.000572205	0.005292892	-0.292480469	0.593505859	-0.937988281	891.54	-0.017859869	2.620435953	-119.4644506	-69
57585	0	-0.015625	0.000976563	0.398376465	0.999999046	7.25E-05	-2.57E-05	3.43E-05	-0.390625	0.024414063	9.959411621	0.003623962	-0.00128746	0.001716614	-0.290283203	0.595703125	-0.938476563	891.56	-0.013030278	2.617617208	-119.4710263	-69
57586	0	-0.016235352	0.000183105	0.401000977	0.999999046	0.000125885	3.81E-06	0.00012207	-0.405883789	0.004577637	10.02502441	0.006294251	0.000190735	0.006103516	-0.290039063	0.595703125	-0.94140625	891.48	-0.001597932	2.618184686	-119.4675736	-70
57587	0	-0.016257286	0.000648499	0.398314476	0.999998093	0.00014019	-5.34E-05	8.30E-05	-0.406432152	0.016212463	9.9578619	0.007009506	-0.002670288	0.004148483	-0.290039063	0.593505859	-0.941162109	891.56	0.011309605	2.612198291	-119.4691757	-69
57588	0	-0.015259743	0.000155449	0.398378372	0.999999046	-0.000134468	-6.48E-05	7.25E-05	-0.381493568	0.003886223	9.959459305	-0.006723404	-0.003242493	0.003623962	-0.290039063	0.591308594	-0.943847656	891.54	-0.007301124	2.604854948	-119.472694	-70
57589	0	-0.014709473	0.000427246	0.398193359	0.999999046	5.34E-05	8.49E-05	0	-0.367736816	0.010681152	9.954833984	0.002670288	0.004243851	0	-0.290039063	0.593505859	-0.938232422	891.54	-0.004728329	2.614598645	-119.4837582	-70
57590	0	-0.014777184	-0.000385284	0.400326729	0.999999046	0.000112534	6.48E-05	5.34E-05	-0.369429588	-0.009632111	10.00816822	0.005626678	0.003242493	0.002670288	-0.287597656	0.593261719	-0.941162109	891.6	0.004889299	2.621976545	-119.4876515	-69
57591	0	-0.015075684	-0.00012207	0.399475098	0.999999046	0.000171661	0.000306129	8.01E-05	-0.37689209	-0.003051758	9.986877441	0.008583069	0.015306473	0.004005432	-0.287597656	0.593261719	-0.944091797	891.6	0.021419743	2.656947761	-119.4888934	-69
57592	0	-0.015686035	-0.000165939	0.399038315	0.999999046	0.000306129	0.000349045	3.43E-05	-0.392150879	-0.004148483	9.97595787	0.015306473	0.017452241	0.001716614	-0.290039063	0.593505859	-0.944091797	891.6	0.053100892	2.696806162	-119.4967882	-70
57593	0	-0.016723633	0.000366211	0.401184082	0.999999046	0.000263214	0.000119209	0.0001297	-0.41809082	0.009155273	10.02960205	0.013160706	0.005960465	0.006484985	-0.287597656	0.591064453	-0.941162109	891.54	0.080384472	2.710318198	-119.4931015	-69
57594	0	-0.017002106	0.000154495	0.402461052	0.999999046	9.35E-05	-0.000179291	6.10E-05	-0.425052643	0.003862381	10.0615263	0.004673004	-0.008964539	0.003051758	-0.287597656	0.591064453	-0.943847656	891.54	0.087828395	2.689641076	-119.497194	-69
57595	0	-0.016784668	0.000915527	0.400390625	0.999999046	-7.63E-05	-0.000113487	4.20E-05	-0.419616699	0.022888184	10.00976563	-0.003814697	-0.005674362	0.002098084	-0.287597656	0.593261719	-0.941162109	891.5	0.075743823	2.676514481	-119.5026767	-69
57596	0	-0.015960693	0.001404762	0.39984417	0.999999046	-4.10E-05	-9.73E-05	9.06E-05	-0.399017334	0.035119057	9.99610424	-0.0020504	-0.004863739	0.004529953	-0.290039063	0.591308594	-0.940917969	891.54	0.068011051	2.665207962	-119.5045729	-69
57597	0	-0.015380859	0.001220703	0.400695801	0.999999046	-7.63E-05	-4.48E-05	4.96E-05	-0.384521484	0.030517578	10.01739502	-0.003814697	-0.002241135	0.002479553	-0.28515625	0.591064453	-0.944091797	891.5	0.056065753	2.659861682	-119.5085067	-69
57598	0	-0.015283585	0.000855446	0.398011208	1	-2.77E-05	9.54E-07	-3.43E-05	-0.382089615	0.021386147	9.95028019	-0.001382828	4.77E-05	-0.001716614	-0.285400391	0.593261719	-0.94140625	891.56	0.049277053	2.659718002	-119.5215242	-69
57599	0	-0.016174316	0.000854492	0.398620605	0.999999046	-8.77E-05	0.000134468	-2.67E-05	-0.40435791	0.021362305	9.965515137	-0.004386902	0.006723404	-0.001335144	-0.28515625	0.593261719	-0.944335938	891.6	0.035672222	2.674864635	-119.5339281	-70
57600	0	-0.016052246	0	0.40057373	0.999999046	2.77E-05	1.14E-05	0.000167847	-0.401306152	0	10.01434326	0.001382828	0.000572205	0.008392334	-0.285400391	0.593261719	-0.94140625	891.56	0.036318871	2.675876182	-119.5243599	-69
57601	0	-0.016458511	0.000372887	0.400257111	0.999998093	0.000119209	-0.000108719	0.000141144	-0.411462784	0.009322166	10.00642776	0.005960465	-0.005435944	0.00705719	-0.287597656	0.591064453	-0.943847656	891.56	0.047316276	2.663118675	-119.5200036	-69
57602	0	-0.016448975	0.000972748	0.400510788	0.999999046	-5.72E-06	-9.16E-05	0.000137329	-0.411224365	0.024318695	10.0127697	-0.000286102	-0.004577637	0.006866455	-0.287597656	0.591064453	-0.946777344	891.6	0.044011079	2.652331445	-119.5160877	-69
57603	0	-0.016479492	0.001403809	0.401672363	0.999999046	-2.29E-05	-0.000330925	0.000190735	-0.411987305	0.035095215	10.04180908	-0.001144409	-0.01654625	0.009536743	-0.28515625	0.591064453	-0.947021484	891.6	0.039078015	2.614116187	-119.5042882	-69
57604	0	-0.016517639	0.00090313	0.402781487	0.999999046	-6.96E-05	-0.000404358	0.000102997	-0.412940979	0.022578239	10.06953716	-0.003480911	-0.020217896	0.005149841	-0.287597656	0.591064453	-0.946777344	891.5	0.028356309	2.567511625	-119.5037943	-69
57605	0	-0.016845703	0.000244141	0.400390625	0.999999046	-0.000282288	-0.000414848	4.96E-05	-0.421142578	0.006103516	10.00976563	-0.01411438	-0.020742417	0.002479553	-0.287597656	0.591064453	-0.943847656	891.56	-0.007004299	2.519763067	-119.509037	-69
57606	0	-0.015782356	0.000508308	0.398694992	0.999999046	-5.72E-05	-0.000417709	8.30E-05	-0.394558907	0.01270771	9.967374802	-0.002861023	-0.020885468	0.004148483	-0.287597656	0.593261719	-0.941162109	891.54	-0.016371348	2.471707582	-119.5091856	-69
57607	0	-0.014526367	0.000854492	0.399291992	0.999999046	-0.000160217	-0.000227928	9.54E-05	-0.36315918	0.021362305	9.982299805	-0.008010864	-0.011396408	0.004768372	-0.287597656	0.591064453	-0.941162109	891.48	-0.037432772	2.445372718	-119.5087358	-69
57608	0	-0.015197754	0.001216888	0.401129723	0.999999046	-1.62E-05	-0.000303268	0.000113487	-0.379943848	0.030422211	10.02824306	-0.000810623	-0.015163422	0.005674362	-0.290039063	0.595703125	-0.94140625	891.6	-0.041830693	2.410419415	-119.5058447	-69
57609	0	-0.016113281	-0.001037598	0.400817871	0.999999046	-0.000267029	-0.000494957	0.000179291	-0.402832031	-0.025939941	10.02044678	-0.013351441	-0.02474785	0.008964539	-0.290039063	0.593505859	-0.944091797	891.6	-0.074700751	2.353580884	-119.4960762	-69
57610	0	-0.015289307	-8.68E-05	0.400039673	0.999999046	-0.000417709	-0.000469208	-1.14E-05	-0.382232666	-0.002169609	10.00099182	-0.020885469	-0.02346039	-0.000572205	-0.292480469	0.593505859	-0.940917969	891.64	-0.125716921	2.299711792	-119.5093656	-69
57611	0	-0.014770508	-0.000732422	0.399902344	0.999999046	-0.00030899	-0.000349998	5.72E-05	-0.369262695	-0.018310547	9.997558594	-0.015449524	-0.017499924	0.002861023	-0.290039063	0.595703125	-0.94140625	891.56	-0.16394138	2.259556474	-119.512055	-69
57612	0	-0.013148308	-0.000795364	0.399483681	0.999999046	-0.000378609	-0.000400543	1.91E-05	-0.328707695	-0.019884109	9.987092018	-0.018930436	-0.020027162	0.000953674	-0.292480469	0.593505859	-0.940917969	891.54	-0.210299841	2.213564628	-119.5214515	-69
57613	0	-0.012695313	-0.001586914	0.398925781	0.999999046	-7.25E-05	-0.000353813	-0.000106812	-0.317382813	-0.039672852	9.973144531	-0.003623962	-0.017690659	-0.005340576	-0.292480469	0.595703125	-0.938232422	891.54	-0.222130366	2.172838328	-119.5437476	-69
57614	0	-0.013572693	-0.001037598	0.398752213	0.999999046	4.96E-05	-0.000120163	0.00014019	-0.339317322	-0.025939941	9.968805313	0.002479553	-0.006008148	0.007009506	-0.294921875	0.595947266	-0.938232422	891.56	-0.218875775	2.15902213	-119.5393855	-69
57615	0	-0.014404297	-0.002746582	0.400695801	0.999999046	7.63E-06	-0.00032711	0.000102997	-0.360107422	-0.068664551	10.01739502	0.00038147	-0.016355515	0.005149841	-0.294921875	0.595947266	-0.941162109	891.54	-0.220653691	2.121547309	-119.538853	-69
57616	0	-0.013836861	-0.001395226	0.400521278	0.999999046	-0.000100136	-0.000331879	-4.20E-05	-0.345921516	-0.034880638	10.01303196	-0.00500679	-0.016593933	-0.002098084	-0.294921875	0.595947266	-0.935302734	891.62	-0.235384247	2.083515117	-119.5542887	-69
57617	0	-0.013671875	-0.00201416	0.399536133	0.999999046	-0.000190735	-0.000288963	-1.14E-05	-0.341796875	-0.050354004	9.98840332	-0.009536743	-0.014448166	-0.000572205	-0.292724609	0.597900391	-0.935546875	891.62	-0.260376795	2.050471472	-119.5635804	-69
57618	0	-0.011975288	-0.001130104	0.399663925	0.999999046	-6.87E-05	-0.000139236	3.34E-05	-0.29938221	-0.028252602	9.991598129	-0.003433228	-0.006961823	0.00166893	-0.295166016	0.598144531	-0.932617188	891.48	-0.271165626	2.03458844	-119.5694584	-69
57619	0	-0.012207031	-0.000610352	0.399719238	0.999999046	1.91E-05	-0.000319481	1.91E-05	-0.305175781	-0.015258789	9.992980957	0.000953674	-0.015974045	0.000953674	-0.294921875	0.595947266	-0.938232422	891.6	-0.271890107	1.998044219	-119.5773729	-69
57620	0	-0.013111115	-0.002120972	0.400154114	0.999999046	-6.77E-05	-0.000209808	0.0001297	-0.327777863	-0.053024292	10.00385284	-0.003385544	-0.010490418	0.006484985	-0.295166016	0.598144531	-0.938232422	891.68	-0.282131606	1.974187983	-119.5717954	-69
57621	0	-0.012695313	-0.002624512	0.40057373	0.999999046	-0.000240326	-3.34E-05	3.43E-05	-0.317382813	-0.065612793	10.01434326	-0.012016297	-0.00166893	0.001716614	-0.294921875	0.595947266	-0.935302734	891.68	-0.312573531	1.970537854	-119.5781808	-69
57622	0	-0.012729645	-0.001899719	0.398436546	0.999999046	-0.000106812	6.29E-05	3.05E-05	-0.318241119	-0.047492981	9.960913658	-0.005340576	0.003147125	0.001525879	-0.295166016	0.598144531	-0.935546875	891.6	-0.327721607	1.977970342	-119.5844757	-69
57623	0	-0.012817383	-0.001953125	0.399536133	0.999999046	3.81E-06	0.0001688	4.96E-05	-0.32043457	-0.048828125	9.98840332	0.000190735	0.008440018	0.002479553	-0.295166016	0.598144531	-0.935546875	891.56	-0.330108819	1.997593251	-119.5889669	-69
57624	0	-0.014235497	-0.004512787	0.403315544	0.999999046	1.05E-05	-0.000104904	0.0001297	-0.355887413	-0.112819672	10.0828886	0.000524521	-0.005245209	0.006484985	-0.295166016	0.598144531	-0.935546875	891.6	-0.331521541	1.986011266	-119.5840758	-69
57625	0	-0.013427734	-0.004333496	0.399597168	0.999999046	-0.00012207	-0.000178337	-1.14E-05	-0.335693359	-0.108337402	9.989929199	-0.006103516	-0.008916855	-0.000572205	-0.295166016	0.598144531	-0.935546875	891.56	-0.348785285	1.96599211	-119.5951308	-69
57626	0	-0.012857437	-0.004247665	0.399354935	0.999998093	1.24E-05	-4.29E-05	6.01E-05	-0.321435928	-0.106191635	9.983873367	0.000619888	-0.002145767	0.003004074	-0.295166016	0.598144531	-0.935546875	891.6	-0.350449972	1.96158828	-119.5980722	-69
57627	0	-0.012145996	-0.003234863	0.398498535	0.999999046	9.54E-05	-7.15E-05	6.10E-05	-0.303649902	-0.080871582	9.962463379	0.004768372	-0.003576279	0.003051758	-0.297363281	0.598144531	-0.938232422	891.6	-0.3426419	1.953921399	-119.6027092	-69
57628	0	-0.011844635	-0.002242088	0.397706985	0.999999046	-2.19E-05	0.000106812	2.57E-05	-0.296115875	-0.056052208	9.942674637	-0.001096725	0.005340576	0.00128746	-0.295166016	0.598144531	-0.938232422	891.62	-0.348403313	1.966669945	-119.6097326	-69
57629	0	-0.011779785	-0.00177002	0.39831543	0.999999046	0.000141144	0.000210762	-4.58E-05	-0.294494629	-0.044250488	9.957885742	0.00705719	0.010538101	-0.002288818	-0.295166016	0.595947266	-0.932373047	891.5	-0.335729349	1.99127591	-119.6260593	-69
57630	0	-0.013291359	-0.002573967	0.400934219	0.999999046	0.000226974	0.000225067	7.25E-05	-0.332283974	-0.064349174	10.02335548	0.011348725	0.011253357	0.003623962	-0.295166016	0.598144531	-0.938232422	891.66	-0.312759414	2.017661449	-119.62808	-69
57631	0	-0.014099121	-0.002441406	0.402038574	0.999999046	0.000148773	0.000199318	-1.91E-05	-0.352478027	-0.061035156	10.05096436	0.00743866	0.009965897	-0.000953674	-0.295166016	0.598144531	-0.938232422	891.66	-0.299131764	2.041127629	-119.6406953	-69
57632	0	-0.015295982	-0.00073719	0.399102211	0.999999046	5.63E-05	4.20E-05	8.77E-05	-0.382399559	-0.018429756	9.977555275	0.002813339	0.002098084	0.004386902	-0.294921875	0.595947266	-0.938232422	891.6	-0.295596882	2.0467692	-119.6419803	-68
57633	0	-0.01348877	-0.00201416	0.398681641	0.999999046	-8.01E-05	3.91E-05	0.000137329	-0.337219238	-0.050354004	9.967041016	-0.004005432	0.001955032	0.006866455	-0.294921875	0.595947266	-0.938232422	891.56	-0.307482649	2.052157556	-119.6378241	-69
57634	0	-0.013154984	-0.003356934	0.400144577	0.999999046	0.000106812	4.39E-05	3.43E-05	-0.328874588	-0.08392334	10.00361443	0.005340576	0.002193451	0.001716614	-0.295166016	0.598144531	-0.935546875	891.56	-0.298429877	2.058052624	-119.6443426	-69
57635	0	-0.013122559	-0.003967285	0.399963379	0.999999046	0.000221252	0.000126839	0.000148773	-0.328063965	-0.099182129	9.999084473	0.011062622	0.006341934	0.00743866	-0.294921875	0.595947266	-0.941162109	891.62	-0.275887613	2.073540805	-119.6391067	-69
57636	0	-0.013651848	-0.001894951	0.399655342	0.999999046	0.000351906	0.000257492	0.000151634	-0.341296196	-0.047373772	9.991383553	0.017595292	0.012874604	0.007581711	-0.292724609	0.597900391	-0.938476563	891.56	-0.238349709	2.10404002	-119.6305086	-69
57637	0	-0.013549805	-0.000610352	0.399597168	0.999999046	0.000232697	0.000332832	5.72E-05	-0.338745117	-0.015258789	9.989929199	0.011634827	0.016641617	0.002861023	-0.292480469	0.595703125	-0.941162109	891.6	-0.214814012	2.143148957	-119.6343057	-69
57638	0	-0.014793396	0.000187874	0.401906013	0.999999046	0.000150681	0.000347137	0.000117302	-0.3698349	0.004696846	10.04765034	0.007534027	0.017356873	0.005865097	-0.290039063	0.595703125	-0.94140625	891.54	-0.200327	2.183991386	-119.6294213	-69
57639	0	-0.015319824	-0.002380371	0.401062012	0.999999046	0.000217438	6.20E-05	9.92E-05	-0.382995605	-0.059509277	10.02655029	0.010871887	0.003099442	0.004959106	-0.292480469	0.593505859	-0.940917969	891.5	-0.178317867	2.192228704	-119.6302089	-69
57640	0	-0.016162872	-0.000494957	0.399717331	0.999999046	4.10E-05	-0.000102997	2.67E-05	-0.404071808	-0.012373924	9.992933273	0.0020504	-0.005149841	0.001335144	-0.292480469	0.595703125	-0.938232422	891.56	-0.176797183	2.181654399	-119.6375405	-69
57641	0	-0.014892578	0	0.400146484	0.999999046	9.16E-05	0.000138283	9.54E-05	-0.372314453	0	10.00366211	0.004577637	0.006914139	0.004768372	-0.290039063	0.595703125	-0.944091797	891.48	-0.169119645	2.198808358	-119.6351004	-69
57642	0	-0.014636993	-4.67E-05	0.400507927	0.999999046	-1.53E-05	0.000179291	6.77E-05	-0.365924835	-0.001168251	10.01269817	-0.000762939	0.008964539	0.003385544	-0.292480469	0.595703125	-0.941162109	891.54	-0.17375116	2.220684533	-119.6387216	-69
57643	0	-0.014526367	-0.000732422	0.400390625	0.999999046	7.25E-05	0.000119209	8.39E-05	-0.36315918	-0.018310547	10.00976563	0.003623962	0.005960465	0.004196167	-0.292480469	0.595703125	-0.941162109	891.56	-0.168233797	2.23570084	-119.6406333	-70
57644	0	-0.015415192	-0.000977516	0.399044037	0.999999046	0.000130653	0.000211716	8.68E-05	-0.385379791	-0.024437904	9.976100922	0.006532669	0.010585785	0.004339218	-0.290283203	0.595703125	-0.938476563	891.6	-0.156028208	2.261380843	-119.6401276	-69
57645	0	-0.015808105	-0.000854492	0.399902344	0.999999046	0.000282288	0.000115395	0.000171661	-0.395202637	-0.021362305	9.997558594	0.01411438	0.00576973	0.008583069	-0.287841797	0.593261719	-0.938232422	891.56	-0.12604963	2.276116993	-119.6288997	-69
57646	0	-0.015961647	-0.000989914	0.400691986	0.999999046	0.000188828	-2.48E-05	3.43E-05	-0.399041176	-0.024747849	10.01729965	0.009441376	-0.001239777	0.001716614	-0.287597656	0.593261719	-0.944091797	891.54	-0.107411447	2.274821123	-119.6331954	-69
57647	0	-0.01574707	-0.00012207	0.3984375	0.999999046	0.000141144	3.53E-05	0.0001297	-0.393676758	-0.003051758	9.9609375	0.00705719	0.001764297	0.006484985	-0.290039063	0.593505859	-0.938232422	891.56	-0.093777179	2.280490942	-119.6289286	-69
57648	0	-0.014676094	-6.68E-05	0.400266647	0.999999046	6.20E-05	6.48E-05	0.000136375	-0.366902351	-0.00166893	10.00666618	0.003099442	0.003242493	0.006818771	-0.287597656	0.593261719	-0.947021484	891.54	-0.089153485	2.289548511	-119.6220011	-69
57649	0	-0.015625	-6.10E-05	0.400634766	0.999999046	0.000118256	2.77E-05	7.63E-05	-0.390625	-0.001525879	10.01586914	0.005912781	0.001382828	0.003814697	-0.287597656	0.593261719	-0.944091797	891.54	-0.078332043	2.294376337	-119.6218764	-69
57650	0	-0.015891075	-0.00014782	0.400816917	0.999999046	0.000112534	1.91E-05	9.16E-05	-0.397276878	-0.003695488	10.02042294	0.005626678	0.000953674	0.004577637	-0.28515625	0.593261719	-0.944335938	891.5	-0.068077123	2.298277398	-119.6173828	-69
57651	0	-0.016174316	0.000366211	0.398132324	0.999999046	0.000160217	0.000267982	7.25E-05	-0.40435791	0.009155273	9.953308105	0.008010864	0.013399124	0.003623962	-0.287597656	0.593261719	-0.947021484	891.54	-0.052414482	2.330768335	-119.618572	-69
57652	0	-0.015593529	0.000739098	0.39775753	0.999999046	0.000123024	0.000391006	4.86E-05	-0.389838219	0.01847744	9.943938255	0.0061512	0.019550324	0.00243187	-0.287597656	0.593261719	-0.944091797	891.5	-0.041078986	2.377383336	-119.6230855	-70
57653	0	-0.016418457	0.000976563	0.400756836	0.999999046	0.000137329	0.000206947	0.000106812	-0.410461426	0.024414063	10.0189209	0.006866455	0.010347366	0.005340576	-0.287597656	0.593261719	-0.947021484	891.54	-0.027772324	2.402958355	-119.6214346	-69
57654	0	-0.016767502	-0.000191689	0.400810242	0.999999046	6.68E-05	-1.91E-05	9.16E-05	-0.419187546	-0.004792213	10.02025604	0.00333786	-0.000953674	0.004577637	-0.287597656	0.593261719	-0.947021484	891.6	-0.022633671	2.402686186	-119.6214741	-69
57655	0	-0.017028809	0.000305176	0.401062012	0.999999046	7.25E-05	9.54E-07	8.77E-05	-0.425720215	0.007629395	10.02655029	0.003623962	4.77E-05	0.004386902	-0.28515625	0.591064453	-0.944091797	891.56	-0.016840813	2.404774584	-119.620443	-70
57656	0	-0.017089844	0.001280785	0.400084496	0.999999046	2.96E-05	-2.29E-05	0.000170708	-0.427246094	0.032019615	10.00211239	0.001478195	-0.001144409	0.008535385	-0.287597656	0.593261719	-0.947021484	891.56	-0.01550635	2.404200979	-119.6116086	-70
57657	0	-0.016357422	0.001098633	0.399291992	0.999999046	2.29E-05	-6.77E-05	6.87E-05	-0.408935547	0.02746582	9.982299805	0.001144409	-0.003385544	0.003433228	-0.287597656	0.593261719	-0.947021484	891.6	-0.01537668	2.398518665	-119.6143337	-69
57658	0	-0.016058922	0.000630379	0.399110794	1	-1.24E-05	-2.00E-05	-5.34E-05	-0.401473045	0.015759468	9.977769852	-0.000619888	-0.001001358	-0.002670288	-0.285400391	0.593261719	-0.94140625	891.56	-0.019846871	2.398314428	-119.6280091	-69
57659	0	-0.016601563	0.000549316	0.398498535	0.999999046	0	0.000100136	5.72E-05	-0.415039063	0.01373291	9.962463379	0	0.00500679	0.002861023	-0.287597656	0.591064453	-0.946777344	891.56	-0.022348716	2.411927596	-119.6337386	-69
57660	0	-0.016741753	0.000489235	0.399288177	0.999999046	5.63E-05	0.000135422	9.54E-05	-0.418543816	0.012230873	9.982204437	0.002813339	0.006771088	0.004768372	-0.287597656	0.591064453	-0.941162109	891.66	-0.01819961	2.429630994	-119.6350424	-69
57661	0	-0.016723633	0.000488281	0.39855957	0.999999046	0.000209808	-5.25E-05	4.58E-05	-0.41809082	0.012207031	9.963989258	0.010490418	-0.002622604	0.002288818	-0.28515625	0.591064453	-0.944091797	891.56	0.00332459	2.425844444	-119.6387716	-69
57662	0	-0.016559601	0.000351906	0.399537086	0.999999046	-3.05E-05	-8.01E-05	0.000175476	-0.413990021	0.008797646	9.988427162	-0.001525879	-0.004005432	0.008773804	-0.28515625	0.591064453	-0.944091797	891.6	-0.002058913	2.418917485	-119.6277951	-69
57663	0	-0.017272949	0.000610352	0.401550293	0.999999046	1.91E-05	-6.68E-06	0.000106812	-0.43182373	0.015258789	10.03875732	0.000953674	-0.000333786	0.005340576	-0.282958984	0.593261719	-0.944335938	891.66	-0.00207102	2.420468536	-119.6206208	-70
57664	0	-0.016901016	0.001849174	0.403625488	0.999999046	2.96E-05	-0.000207901	0.000179291	-0.422525406	0.046229362	10.09063721	0.001478195	-0.01039505	0.008964539	-0.28515625	0.591064453	-0.944091797	891.54	-0.000456063	2.398995748	-119.6093322	-69
57665	0	-0.017822266	0.001220703	0.403503418	0.999999046	-0.000270844	-0.000380516	0.000125885	-0.445556641	0.030517578	10.08758545	-0.013542176	-0.019025803	0.006294251	-0.28515625	0.591064453	-0.947021484	891.56	-0.033478535	2.357833319	-119.6040034	-70
57666	0	-0.017394066	0.000274658	0.402296066	0.999999046	-0.000352859	-0.000534058	7.15E-05	-0.434851646	0.006866455	10.05740166	-0.017642976	-0.026702883	0.003576279	-0.287597656	0.593261719	-0.947021484	891.6	-0.076146316	2.299155082	-119.6056966	-69
57667	0	-0.01776123	-0.000488281	0.401245117	0.999999046	-0.000263214	-0.000472069	4.96E-05	-0.444030762	-0.012207031	10.03112793	-0.013160706	-0.02360344	0.002479553	-0.287597656	0.591064453	-0.943847656	891.48	-0.108653563	2.247696413	-119.6106072	-70
57668	0	-0.014638901	-0.00039196	0.39771843	0.999999046	-0.000407219	-0.000347137	6.48E-05	-0.365972519	-0.009799004	9.942960739	-0.020360948	-0.017356873	0.003242493	-0.287597656	0.593261719	-0.944091797	891.6	-0.157587364	2.210540686	-119.6119468	-70
57669	0	-0.014892578	0.001037598	0.399475098	0.999999046	-0.000225067	-0.000338554	0.00012207	-0.372314453	0.025939941	9.986877441	-0.011253357	-0.01692772	0.006103516	-0.285400391	0.595458984	-0.941650391	891.6	-0.185298247	2.174396271	-119.6018098	-70
57670	0	-0.015475273	-0.001459122	0.401193619	0.999999046	-6.68E-05	-0.000349045	0.000105858	-0.386881828	-0.036478043	10.02984047	-0.00333786	-0.01745224	0.005292893	-0.287597656	0.593261719	-0.944091797	891.6	-0.194971689	2.137090836	-119.5977953	-69
57671	0	-0.015869141	-0.001342773	0.401184082	0.999999046	-0.000213623	-0.000376701	8.77E-05	-0.396728516	-0.033569336	10.02960205	-0.010681153	-0.018835068	0.004386902	-0.287597656	0.593261719	-0.941162109	891.56	-0.221568892	2.096689044	-119.5952427	-70
57672	0	-0.015872955	-0.001450539	0.399547577	0.999999046	-0.000222206	-0.000370026	-2.29E-05	-0.396823883	-0.036263466	9.988689423	-0.011110306	-0.018501282	-0.001144409	-0.290039063	0.593505859	-0.941162109	891.66	-0.249624117	2.057094169	-119.6078159	-70
57673	0	-0.013916016	-0.00177002	0.398925781	0.999999046	-0.000179291	-0.000487328	0	-0.347900391	-0.044250488	9.973144531	-0.008964539	-0.02436638	0	-0.290283203	0.595703125	-0.938476563	891.68	-0.272672113	2.004073096	-119.6151358	-70
57674	0	-0.013098717	-0.001608849	0.399487495	0.999999046	-3.43E-05	-0.000352859	6.68E-06	-0.327467918	-0.040221214	9.987187386	-0.001716614	-0.017642975	0.000333786	-0.292480469	0.593505859	-0.937988281	891.6	-0.279082115	1.966445186	-119.6256352	-70
57675	0	-0.013122559	-0.001037598	0.399597168	0.999999046	-6.48E-05	-0.000185966	6.87E-05	-0.328063965	-0.025939941	9.989929199	-0.003242493	-0.009298325	0.003433228	-0.292480469	0.593505859	-0.935302734	891.6	-0.28871542	1.947975171	-119.6286125	-70
57676	0	-0.014377594	-0.002918243	0.400211334	0.999998093	-6.68E-05	-0.000237465	0.00014782	-0.35943985	-0.072956085	10.00528336	-0.00333786	-0.011873245	0.007390976	-0.290283203	0.597900391	-0.938476563	891.66	-0.298316955	1.923720695	-119.6157438	-70
57677	0	-0.014831543	-0.002685547	0.400756836	0.999999046	-6.48E-05	-0.000414848	3.81E-06	-0.370788574	-0.067138672	10.0189209	-0.003242493	-0.020742417	0.000190735	-0.294921875	0.595947266	-0.938232422	891.56	-0.308301027	1.879148728	-119.6265083	-70
57678	0	-0.014866829	-0.001700401	0.39887619	0.999999046	-0.000141144	-0.000444412	1.91E-05	-0.371670723	-0.042510033	9.971904755	-0.00705719	-0.022220612	0.000953674	-0.294921875	0.595947266	-0.938232422	891.54	-0.32695339	1.831312314	-119.6344539	-70
57679	0	-0.013366699	-0.001464844	0.399536133	0.999999046	-7.63E-05	-0.000311852	4.58E-05	-0.33416748	-0.036621094	9.98840332	-0.003814697	-0.015592575	0.002288818	-0.295166016	0.598144531	-0.935546875	891.56	-0.338045976	1.798734705	-119.6371001	-69
57680	0	-0.012324333	-0.001402855	0.399725914	0.999999046	6.01E-05	-0.000268936	-2.38E-05	-0.30810833	-0.035071373	9.99314785	0.003004074	-0.013446808	-0.001192093	-0.294921875	0.595947266	-0.935302734	891.56	-0.333725674	1.771036985	-119.6483257	-70
57681	0	-0.012329102	-0.000671387	0.40020752	0.999999046	-3.81E-05	-0.000212669	3.81E-06	-0.308227539	-0.016784668	10.00518799	-0.001907349	-0.010633469	0.000190735	-0.297363281	0.595947266	-0.937988281	891.6	-0.340494729	1.749822917	-119.6595713	-70
57682	0	-0.012280464	-0.002961159	0.400151253	0.999999046	-8.20E-05	-0.000217438	-4.20E-05	-0.307011604	-0.074028969	10.00378132	-0.0041008	-0.010871887	-0.002098084	-0.294921875	0.595947266	-0.938232422	891.62	-0.352490888	1.728053479	-119.6717476	-70
57683	0	-0.012695313	-0.002441406	0.3984375	0.999999046	-4.58E-05	-0.000189781	-0.000110626	-0.317382813	-0.061035156	9.9609375	-0.002288818	-0.00948906	-0.005531311	-0.297363281	0.595947266	-0.935058594	891.66	-0.360584548	1.709454667	-119.6945835	-70
57684	0	-0.011352539	-0.002075195	0.396240234	0.999999046	0.000206947	-8.39E-05	4.58E-05	-0.283813477	-0.051879883	9.906005859	0.010347366	-0.004196167	0.002288818	-0.297363281	0.595947266	-0.940917969	891.62	-0.339177058	1.703092794	-119.699276	-70
57685	0	-0.012207031	-0.001647949	0.400512695	0.999999046	0.000247955	8.58E-06	9.92E-05	-0.305175781	-0.04119873	10.01281738	0.012397766	0.000429153	0.004959107	-0.295166016	0.598144531	-0.938232422	891.56	-0.312866291	1.707403875	-119.6922163	-70
57686	0	-0.012824059	-0.002789497	0.401490211	0.999999046	2.48E-05	-0.000230789	-1.91E-05	-0.320601463	-0.069737434	10.03725529	0.001239777	-0.011539459	-0.000953674	-0.294921875	0.595947266	-0.938232422	891.56	-0.312573615	1.684272054	-119.6994706	-70
57687	0	-0.01361084	-0.000915527	0.399414063	0.999999046	-2.29E-05	-0.000208855	0	-0.340270996	-0.022888184	9.985351563	-0.001144409	-0.010442734	0	-0.294921875	0.595947266	-0.935302734	891.66	-0.317628461	1.663776077	-119.7038843	-70
57688	0	-0.012955666	-0.002338409	0.399357796	0.999999046	-4.86E-05	-0.000143051	4.96E-05	-0.32389164	-0.058460236	9.983944893	-0.00243187	-0.007152557	0.002479553	-0.294921875	0.595947266	-0.938232422	891.54	-0.325491744	1.650932888	-119.702655	-70
57689	0	-0.012451172	-0.002502441	0.399536133	0.999999046	0	-0.000185966	0.000110626	-0.311279297	-0.062561035	9.98840332	0	-0.009298325	0.005531311	-0.294921875	0.595947266	-0.935302734	891.54	-0.327607704	1.633269692	-119.6940387	-70
57690	0	-0.01144886	-0.002622604	0.398990631	0.999999046	-3.24E-05	-0.00019455	-7.25E-05	-0.286221504	-0.065565109	9.974765778	-0.001621246	-0.009727478	-0.003623962	-0.297363281	0.595947266	-0.937988281	891.66	-0.334070778	1.614513888	-119.709815	-70
57691	0	-0.01159668	-0.001525879	0.396118164	0.999999046	-2.67E-05	-2.86E-06	-7.63E-05	-0.289916992	-0.038146973	9.902954102	-0.001335144	-0.000143051	-0.003814697	-0.297363281	0.598144531	-0.941162109	891.62	-0.339865633	1.61775048	-119.7240749	-70
57692	0	-0.012448311	-0.003746986	0.398314476	0.999999046	8.68E-05	0.000156403	-2.29E-05	-0.311207771	-0.09367466	9.9578619	0.004339218	0.007820129	-0.001144409	-0.299804688	0.595947266	-0.935058594	891.56	-0.33258032	1.639340646	-119.7383324	-70
57693	0	-0.012634277	-0.003051758	0.397460938	0.999999046	6.87E-05	2.00E-05	0.000137329	-0.315856934	-0.076293945	9.936523438	0.003433228	0.001001358	0.006866455	-0.297363281	0.598144531	-0.938232422	891.56	-0.326893467	1.645482483	-119.7283592	-70
57694	0	-0.011979103	-0.002994537	0.39788723	0.999999046	0.000207901	-5.91E-05	0.000144958	-0.299477577	-0.074863434	9.947180748	0.01039505	-0.00295639	0.007247925	-0.299804688	0.595947266	-0.932128906	891.6	-0.305278167	1.642588541	-119.7230967	-70
57695	0	-0.011108398	-0.002197266	0.399780273	0.999999046	0.000148773	-6.39E-05	0.000171661	-0.277709961	-0.054931641	9.994506836	0.00743866	-0.003194809	0.008583069	-0.297363281	0.595947266	-0.937988281	891.56	-0.290362982	1.639148849	-119.7108725	-70
57696	0	-0.012887955	-0.00091362	0.403078079	0.999999046	0.000107765	1.91E-05	0.000193596	-0.322198868	-0.0228405	10.07695198	0.00538826	0.000953674	0.009679794	-0.297363281	0.598144531	-0.941162109	891.6	-0.280028549	1.645300356	-119.6945317	-70
57697	0	-0.012817383	-0.001037598	0.400939941	0.999999046	5.34E-05	6.20E-05	2.67E-05	-0.32043457	-0.025939941	10.02349854	0.002670288	0.003099442	0.001335144	-0.297363281	0.595947266	-0.940917969	891.6	-0.276440567	1.656342888	-119.6996757	-70
57698	0	-0.01329422	-0.000994682	0.398496628	0.999999046	0.000104904	0.000116348	3.72E-05	-0.332355499	-0.024867058	9.962415695	0.005245209	0.005817413	0.001859665	-0.297363281	0.595947266	-0.937988281	891.6	-0.266885346	1.673711353	-119.7037045	-70
57699	0	-0.011230469	-0.001342773	0.397583008	0.999999046	0.000102997	0.000199318	0.000106812	-0.280761719	-0.033569336	9.939575195	0.005149841	0.009965897	0.005340576	-0.292480469	0.593505859	-0.937988281	891.72	-0.257302357	1.700604406	-119.6945816	-70
57700	0	-0.013037682	-0.00058651	0.400140762	0.999999046	0.00020504	5.53E-05	0.000202179	-0.325942039	-0.014662743	10.00351906	0.010251999	0.002765656	0.010108948	-0.294921875	0.593505859	-0.940917969	891.56	-0.235654175	1.71109878	-119.6792079	-70
57701	0	-0.01373291	-0.002563477	0.400878906	0.999999046	-2.29E-05	-4.86E-05	8.77E-05	-0.343322754	-0.064086914	10.02197266	-0.001144409	-0.00243187	0.004386902	-0.294921875	0.595947266	-0.935302734	891.56	-0.240574002	1.709711718	-119.6742026	-70
57702	0	-0.01381588	-0.001603127	0.399903297	0.999999046	6.48E-05	7.06E-05	3.72E-05	-0.345396996	-0.040078163	9.997582436	0.003242493	0.003528595	0.001859665	-0.294921875	0.593505859	-0.940917969	891.66	-0.235627392	1.722050213	-119.6781044	-70
57703	0	-0.013061523	-0.000610352	0.399658203	0.999999046	-3.43E-05	0.000119209	-7.63E-06	-0.326538086	-0.015258789	9.991455078	-0.001716614	0.005960464	-0.00038147	-0.294921875	0.595947266	-0.935302734	891.6	-0.242163605	1.739986511	-119.6847245	-70
57704	0	-0.012363434	-0.000638962	0.399959564	0.999999046	-9.54E-07	-2.10E-05	0.000201225	-0.309085846	-0.015974045	9.998989105	-4.77E-05	-0.001049042	0.010061264	-0.292480469	0.593505859	-0.935302734	891.6	-0.244108073	1.741961075	-119.6660628	-70
57705	0	-0.012573242	-0.000549316	0.40020752	0.999999046	4.96E-05	0.000123024	0.000167847	-0.314331055	-0.01373291	10.00518799	0.002479553	0.006151199	0.008392334	-0.294677734	0.593505859	-0.943847656	891.6	-0.240337886	1.760431172	-119.6565217	-70
57706	0	-0.013463974	-7.82E-05	0.398311615	0.999999046	0.000263214	0.000295639	0.000156403	-0.33659935	-0.001955032	9.957790375	0.013160706	0.014781952	0.00782013	-0.294921875	0.598144531	-0.944091797	891.68	-0.212060821	1.798727433	-119.64472	-70
