Counter	Temperature	VelInc_X	VelInc_Y	VelInc_Z	OriInc_w	OriInc_x	OriInc_y	OriInc_z	Acc_X	Acc_Y	Acc_Z	Gyr_X	Gyr_Y	Gyr_Z	Mag_X	Mag_Y	Mag_Z	Pressure	Roll	Pitch	Yaw	RSSI
11910	0	0.390796661	0.028513908	0.067109108	0.999999046	0.000226974	-0.000513077	0.000281334	9.769916534	0.71284771	1.677727699	0.011348725	-0.025653841	0.014066697	-0.44921875	-0.806884766	-0.469482422	891.7	35.43747032	-81.08153946	33.43300559	-72
11911	0	0.389282227	0.030761719	0.067199707	0.999999046	0.000267029	-0.00032711	0.000492096	9.732055664	0.769042969	1.679992676	0.013351441	-0.016355516	0.024604799	-0.44921875	-0.808837891	-0.466308594	891.7	35.24399736	-81.11557243	33.65891089	-72
11912	0	0.385449409	0.029808044	0.06802845	0.999999046	0.000256538	-0.000320435	0.000533104	9.636235237	0.745201111	1.70071125	0.012826921	-0.01602173	0.026655199	-0.449462891	-0.804443359	-0.4609375	891.66	35.01772767	-81.15135648	33.91711888	-73
11913	0	0.387634277	0.029602051	0.06829834	0.999999046	-0.000236511	-0.000418663	0.000305176	9.690856934	0.74005127	1.707458496	-0.011825562	-0.020933152	0.01525879	-0.451904297	-0.806640625	-0.463623047	891.66	34.91013856	-81.18108668	33.99735104	-72
11914	0	0.387892723	0.030430794	0.068230629	0.999999046	-0.000333786	-0.000335693	0.000152588	9.697318077	0.760769844	1.705765724	-0.016689301	-0.016784669	0.007629395	-0.451904297	-0.804443359	-0.463867188	891.7	34.84619033	-81.19279157	34.02193431	-73
11915	0	0.388183594	0.028442383	0.06829834	0.999999046	-0.000366211	-0.000475883	0.00012207	9.704589844	0.71105957	1.707458496	-0.018310548	-0.023794176	0.006103516	-0.449462891	-0.806640625	-0.4609375	891.64	34.85356577	-81.21553854	33.97166421	-73
11916	0	0.385814667	0.028723717	0.069355011	0.999999046	-0.000388145	-0.00066185	0.000231743	9.645366669	0.718092918	1.733875275	-0.019407274	-0.033092502	0.011587144	-0.454101563	-0.804443359	-0.466552734	891.7	34.86809854	-81.26272203	33.90971441	-73
11917	0	0.385864258	0.02923584	0.067565918	0.999999046	-0.000484467	-0.000483513	0.000267029	9.646606445	0.730895996	1.689147949	-0.02422333	-0.024175646	0.013351442	-0.451904297	-0.804443359	-0.466552734	891.72	34.77165529	-81.29527729	33.94960244	-73
11918	0	0.390093803	0.02676487	0.066968918	0.999999046	-0.000371933	-0.000469208	8.68E-05	9.752345085	0.669121742	1.674222946	-0.01859665	-0.02346039	0.004339218	-0.451904297	-0.804443359	-0.466552734	891.66	34.78990471	-81.31465101	33.88687653	-74
11919	0	0.390197754	0.027404785	0.06463623	0.999999046	-3.81E-05	-0.000224113	5.34E-05	9.754943848	0.685119629	1.615905762	-0.001907349	-0.011205673	0.002670288	-0.451660156	-0.804443359	-0.469482422	891.66	34.76020016	-81.30878492	33.91064946	-74
11920	0	0.388092995	0.030653954	0.064463615	0.999999046	5.25E-05	-0.000188828	-4.29E-05	9.702324867	0.766348839	1.611590385	0.002622604	-0.009441376	-0.002145767	-0.454101563	-0.802246094	-0.469482422	891.72	34.78411691	-81.29320894	33.89086371	-74
11921	0	0.387207031	0.029724121	0.065734863	0.999999046	-0.000125885	-0.000330925	-2.29E-05	9.680175781	0.743103027	1.643371582	-0.006294251	-0.01654625	-0.001144409	-0.454345703	-0.802246094	-0.463867188	891.66	34.83436031	-81.29220192	33.8256991	-74
11922	0	0.389504433	0.028688431	0.060966492	0.999999046	6.29E-05	-0.000328064	-0.000203133	9.737610817	0.71721077	1.524162292	0.003147125	-0.016403199	-0.010156632	-0.451904297	-0.804443359	-0.466552734	891.66	35.01467231	-81.27920347	33.64947877	-74
11923	0	0.390319824	0.027282715	0.063171387	0.999999046	0.000556946	-0.000201225	-0.000190735	9.757995605	0.682067871	1.579284668	0.027847292	-0.010061265	-0.009536744	-0.451904297	-0.804443359	-0.466552734	891.66	35.18739643	-81.25512196	33.53793621	-74
11924	0	0.387891769	0.030736923	0.064200401	0.999999046	0.001049995	-0.000228882	-6.20E-05	9.697294235	0.76842308	1.605010033	0.052499781	-0.011444094	-0.003099442	-0.451904297	-0.804443359	-0.466552734	891.66	35.3488216	-81.24199796	33.49453498	-75
11925	0	0.383056641	0.034667969	0.065185547	0.999999046	0.001106262	-0.000281334	0.000125885	9.576416016	0.866699219	1.629638672	0.055313123	-0.014066699	0.006294252	-0.451904297	-0.806640625	-0.463623047	891.64	35.42525461	-81.24593787	33.5444978	-75
11926	0	0.385723114	0.03397274	0.060619354	0.999999046	0.00043869	-6.10E-05	0.000105858	9.64307785	0.849318504	1.515483856	0.02193451	-0.003051758	0.005292893	-0.451904297	-0.808837891	-0.457763672	891.66	35.34322934	-81.22792312	33.67913108	-75
11927	0	0.388000488	0.030334473	0.061279297	0.999999046	0.000789642	0.000264168	-1.91E-05	9.700012207	0.758361816	1.531982422	0.039482121	0.013208391	-0.000953674	-0.44921875	-0.808837891	-0.463623047	891.7	35.23828962	-81.17123559	33.87436572	-75
11928	0	0.390469551	0.029892921	0.059545517	0.999998093	0.001873016	-7.34E-05	-8.77E-05	9.761738777	0.747323036	1.488637924	0.093650873	-0.003671648	-0.004386904	-0.451660156	-0.811035156	-0.454589844	891.6	35.44316017	-81.14174438	33.88459148	-75
11929	0	0.392028809	0.031555176	0.060546875	0.999996185	0.002621651	-0.00037384	8.77E-05	9.800720215	0.788879395	1.513671875	0.131082688	-0.018692038	0.004386907	-0.451904297	-0.811035156	-0.451660156	891.66	35.75710401	-81.15200187	33.86968076	-75
11930	0	0.387809753	0.033470154	0.063804626	0.999995232	0.003044128	-0.000270844	0.000185966	9.695243835	0.836753845	1.595115662	0.152206659	-0.013542196	0.009298339	-0.451660156	-0.817626953	-0.448486328	891.7	36.01702585	-81.15908737	33.95844012	-75
11931	0	0.384033203	0.036132813	0.06628418	0.999995232	0.003025055	-0.000369072	0.00018692	9.600830078	0.903320313	1.657104492	0.151252982	-0.018453627	0.009346023	-0.451660156	-0.819824219	-0.4453125	891.72	36.31752775	-81.1749785	34.00323065	-75
11932	0	0.385681152	0.038570404	0.063323975	0.999997139	0.002041817	-0.000156403	0.000277519	9.642028809	0.964260101	1.583099365	0.102090908	-0.007820135	0.013875971	-0.453857422	-0.821777344	-0.439208984	891.6	36.36016463	-81.17708606	34.19631084	-75
11933	0	0.387878418	0.037658691	0.063537598	0.999999046	0.000831604	-0.000132561	0.0001297	9.696960449	0.941467285	1.588439941	0.041580205	-0.006628037	0.006484986	-0.451416016	-0.823974609	-0.436279297	891.72	36.34250806	-81.16671332	34.31027823	-75
11934	0	0.389612198	0.034791946	0.0620327	0.999999046	0.000516891	-0.000139236	-0.000209808	9.740304947	0.86979866	1.55081749	0.025844575	-0.006961823	-0.010490418	-0.453857422	-0.823974609	-0.436279297	891.6	36.49321066	-81.1338291	34.21651259	-75
11935	0	0.389099121	0.034301758	0.061889648	0.999999046	0.000366211	-5.25E-05	-0.000247955	9.727478027	0.857543945	1.547241211	0.018310547	-0.002622604	-0.012397767	-0.453857422	-0.826171875	-0.438964844	891.7	36.61033301	-81.09030647	34.13830396	-75
11936	0	0.387623787	0.03301239	0.06176281	0.999999046	0.000777245	0.000167847	-7.34E-05	9.690594673	0.825309753	1.544070244	0.038862233	0.008392335	-0.003671647	-0.451416016	-0.823974609	-0.436279297	891.7	36.57576271	-81.03846052	34.26189851	-74
11937	0	0.388000488	0.032348633	0.061706543	0.999999046	0.001262665	0.000164986	-0.000160217	9.700012207	0.80871582	1.542663574	0.063133257	0.008249285	-0.008010866	-0.451660156	-0.823974609	-0.43359375	891.7	36.64877553	-80.98101088	34.33321052	-74
11938	0	0.388395309	0.034948349	0.061989784	0.999998093	0.001704216	0.0002985	-0.000115395	9.709882736	0.873708725	1.549744606	0.085210843	0.014925011	-0.005769733	-0.44921875	-0.826416016	-0.433349609	891.72	36.68965503	-80.91433977	34.48754625	-74
11939	0	0.386108398	0.037719727	0.062255859	0.999998093	0.001389503	8.77E-05	-3.43E-05	9.652709961	0.942993164	1.556396484	0.069475196	0.004386903	-0.001716614	-0.451416016	-0.830566406	-0.430175781	891.6	36.7396643	-80.87248377	34.5973331	-73
11940	0	0.387681961	0.03736496	0.060693741	0.999999046	0.000819206	0.000152588	9.82E-05	9.692049026	0.934123993	1.517343521	0.040960317	0.007629395	0.004911423	-0.448974609	-0.830810547	-0.433105469	891.64	36.62280066	-80.83373216	34.80805821	-73
11941	0	0.388671875	0.037597656	0.060791016	0.999999046	0.000976563	0.000138283	1.91E-05	9.716796875	0.939941406	1.519775391	0.048828133	0.00691414	0.000953674	-0.448974609	-0.833007813	-0.432861328	891.7	36.5773687	-80.79086008	34.96523727	-73
11942	0	0.388045311	0.037763596	0.061494827	0.999999046	0.000310898	-4.58E-05	0.000331879	9.701132774	0.94408989	1.537370682	0.015544892	-0.002288818	0.016593934	-0.448974609	-0.832763672	-0.427246094	891.7	36.3571075	-80.78619984	35.22450668	-72
11943	0	0.388793945	0.036315918	0.063354492	0.999999046	4.58E-05	-0.000498772	0.000133514	9.719848633	0.907897949	1.583862305	0.002288818	-0.024938584	0.006675721	-0.448730469	-0.835205078	-0.432617188	891.64	36.40940662	-80.80978175	35.17427721	-72
11944	0	0.387154579	0.034020424	0.060705185	0.999999046	0.000704765	-0.000871658	2.96E-05	9.678864479	0.850510597	1.517629623	0.035238273	-0.043582925	0.001478196	-0.448730469	-0.835205078	-0.432617188	891.72	36.75510482	-80.86069425	34.90325003	-72
11945	0	0.386108398	0.037414551	0.061035156	0.999998093	0.001317024	-0.000648499	6.10E-05	9.652709961	0.93536377	1.525878906	0.065851235	-0.032424938	0.003051759	-0.451171875	-0.837158203	-0.426757813	891.66	37.06127799	-80.89305484	34.74538073	-72
11946	0	0.385336876	0.038075447	0.060190201	0.999999046	0.001228333	-0.000354767	0.000277519	9.633421898	0.951886177	1.50475502	0.061416643	-0.017738347	0.013875965	-0.451171875	-0.834960938	-0.424072266	891.7	37.10916483	-80.91340824	34.83806564	-71
11947	0	0.389770508	0.037597656	0.059692383	0.999999046	0.000835419	-0.000601768	0.000213623	9.744262695	0.939941406	1.49230957	0.041770943	-0.03008843	0.010681154	-0.451416016	-0.837158203	-0.41796875	891.6	37.25670804	-80.95194541	34.7859558	-70
11948	0	0.389490128	0.0366745	0.058672905	0.999999046	0.001048088	-0.000654221	-0.000222206	9.737253189	0.916862488	1.466822624	0.052404417	-0.032711038	-0.011110309	-0.450927734	-0.839355469	-0.426513672	891.6	37.70295248	-80.96491507	34.45127992	-70
11949	0	0.385681152	0.038391113	0.061157227	0.999999046	0.000686646	-0.000403404	-0.000305176	9.642028809	0.959777832	1.528930664	0.03433228	-0.020170214	-0.015258791	-0.451171875	-0.841552734	-0.417724609	891.64	38.04518158	-80.9488987	34.18454723	-70
11950	0	0.385462761	0.038221359	0.060609818	0.999999046	0.000293732	-0.000459671	-0.000205994	9.636569023	0.955533981	1.515245438	0.014686585	-0.022983552	-0.010299683	-0.451171875	-0.839355469	-0.420654297	891.66	38.31094267	-80.94470357	33.94699856	-69
11951	0	0.387939453	0.036987305	0.059936523	0.999999046	0.000701904	-0.000716209	-7.63E-05	9.698486328	0.924682617	1.498413086	0.035095221	-0.035810477	-0.003814698	-0.451171875	-0.841552734	-0.420654297	891.64	38.6656849	-80.972603	33.66686231	-69
11952	0	0.388628006	0.037372589	0.058227539	0.999999046	0.000464439	-0.000795364	-0.000225067	9.71570015	0.934314728	1.455688477	0.023221973	-0.039768225	-0.011253359	-0.448730469	-0.84375	-0.417724609	891.66	39.11529837	-80.99663159	33.26432701	-69
11953	0	0.390563965	0.037963867	0.058044434	0.999999046	0.00025177	-0.000475883	-0.00030899	9.764099121	0.94909668	1.45111084	0.012588502	-0.023794176	-0.015449525	-0.448730469	-0.84375	-0.420654297	891.66	39.44309022	-80.98589043	32.95886802	-69
11954	0	0.390227318	0.039514542	0.056674957	0.999999046	0.000228882	-0.000385284	-0.000107765	9.755682945	0.987863541	1.416873932	0.011444092	-0.019264222	-0.00538826	-0.448730469	-0.84375	-0.417724609	891.7	39.61499914	-80.98169556	32.81010822	-69
11955	0	0.387573242	0.039306641	0.057373047	0.999999046	3.81E-06	-0.000510216	0.000179291	9.689331055	0.982666016	1.434326172	0.000190735	-0.025510789	0.008964539	-0.448974609	-0.841552734	-0.412109375	891.72	39.65975679	-81.00951023	32.76546952	-69
11956	0	0.388134003	0.038434982	0.057951927	0.999999046	-3.15E-05	-0.000553131	0.000141144	9.703350067	0.960874557	1.44879818	-0.001573563	-0.027656557	0.00705719	-0.448730469	-0.84375	-0.414794922	891.72	39.74228061	-81.038364	32.67667974	-69
11957	0	0.389160156	0.042053223	0.057189941	0.999999046	-9.92E-05	-0.000590324	0.000293732	9.729003906	1.051330566	1.429748535	-0.004959107	-0.029516222	0.014686586	-0.448730469	-0.84375	-0.414794922	891.76	39.75075112	-81.08162475	32.65497747	-69
11958	0	0.388395309	0.041386604	0.055151939	0.999999046	0.000114441	-3.24E-05	0.000132561	9.709882736	1.034665108	1.378798485	0.005722046	-0.001621246	0.006628037	-0.448730469	-0.84375	-0.417724609	891.76	39.61560713	-81.06393789	32.80239323	-69
11959	0	0.387939453	0.039428711	0.058288574	0.999999046	-0.000167847	-5.63E-05	-0.000305176	9.698486328	0.985717773	1.457214355	-0.008392334	-0.002813339	-0.015258789	-0.448730469	-0.84375	-0.417724609	891.7	39.70510033	-81.01631149	32.69044	-68
11960	0	0.387735367	0.045017242	0.056916237	0.999999046	-0.000731468	-0.000120163	-0.000335693	9.693384171	1.125431061	1.422905922	-0.036573414	-0.006008149	-0.01678467	-0.448730469	-0.841552734	-0.417724609	891.58	39.77748839	-80.97193645	32.53081095	-69
11961	0	0.383911133	0.039611816	0.056640625	0.999999046	-0.000579834	-0.000197411	-0.000324249	9.59777832	0.99029541	1.416015625	-0.028991702	-0.00987053	-0.016212465	-0.446289063	-0.843994141	-0.414794922	891.64	39.8959188	-80.93521646	32.34376589	-69
11962	0	0.387142181	0.038333893	0.055188179	0.999999046	-7.25E-05	-0.000152588	-0.000187874	9.678554535	0.958347321	1.379704475	-0.003623962	-0.007629395	-0.009393692	-0.446289063	-0.841796875	-0.420898438	891.64	39.976268	-80.90473985	32.25070083	-69
11963	0	0.388122559	0.043029785	0.055603027	0.999999046	-2.29E-05	0.000123024	-0.000144958	9.703063965	1.075744629	1.390075684	-0.001144409	0.006151199	-0.007247925	-0.446289063	-0.843994141	-0.417724609	891.72	39.91375098	-80.85322063	32.31060449	-69
11964	0	0.386997223	0.044176102	0.054600716	0.999999046	-0.00032711	-5.53E-05	-8.49E-05	9.674930573	1.104402542	1.365017891	-0.016355515	-0.002765656	-0.004243851	-0.446289063	-0.841796875	-0.420898438	891.66	39.86750846	-80.82183071	32.31711889	-69
11965	0	0.387145996	0.041137695	0.051391602	0.999999046	-0.000160217	0.000123024	-0.000175476	9.678649902	1.028442383	1.284790039	-0.008010864	0.006151199	-0.008773804	-0.443847656	-0.841796875	-0.423828125	891.7	39.81093082	-80.7683756	32.35307549	-69
11966	0	0.389740944	0.045529366	0.05192852	0.999999046	-6.29E-05	0.000181198	-2.29E-05	9.743523598	1.138234138	1.298213005	-0.003147125	0.009059906	-0.001144409	-0.441650391	-0.841796875	-0.423828125	891.7	39.66054308	-80.72109887	32.49623107	-69
11967	0	0.391296387	0.045227051	0.05291748	0.999999046	-0.000511169	2.77E-05	4.20E-05	9.782409668	1.13067627	1.322937012	-0.025558473	0.001382828	0.002098084	-0.444091797	-0.839599609	-0.418212891	891.66	39.49628156	-80.69218901	32.60382699	-70
11968	0	0.390930176	0.042208672	0.05444622	0.999999046	-0.000727654	0.000825882	0.000148773	9.773254395	1.055216789	1.36115551	-0.036382683	0.041294106	0.007438661	-0.441650391	-0.841796875	-0.423828125	891.64	38.90189203	-80.60021951	33.12026942	-70
11969	0	0.386291504	0.042175293	0.056213379	0.999999046	-0.000797272	0.000557899	9.92E-05	9.657287598	1.054382324	1.405334473	-0.039863593	0.027894978	0.004959107	-0.441650391	-0.83984375	-0.427001953	891.66	38.45244311	-80.52803314	33.48135832	-71
11970	0	0.383854866	0.039871216	0.057620049	0.999999046	-0.000570297	0.000295639	0.000212669	9.596371651	0.996780396	1.440501213	-0.028514864	0.014781953	0.010633469	-0.439453125	-0.837646484	-0.427246094	891.64	38.08498638	-80.48721129	33.78620472	-71
11971	0	0.383300781	0.039611816	0.05859375	0.999999046	-0.000530243	9.25E-05	0.000232697	9.582519531	0.99029541	1.46484375	-0.026512148	0.004625321	0.011634827	-0.439208984	-0.835449219	-0.433105469	891.7	37.799349	-80.46598866	34.0111241	-72
11972	0	0.3852005	0.040774345	0.05779171	0.999999046	-0.000248909	-0.000244141	3.72E-05	9.630012512	1.019358635	1.444792747	-0.01244545	-0.012207032	0.001859665	-0.437011719	-0.837646484	-0.430175781	891.72	37.79364633	-80.4615378	33.98722244	-72
11973	0	0.38659668	0.039306641	0.055908203	0.999999046	0.000160217	-2.57E-05	-0.000144958	9.664916992	0.982666016	1.397705078	0.008010864	-0.00128746	-0.007247925	-0.439453125	-0.837646484	-0.427246094	891.7	37.84251979	-80.42476246	33.95617304	-72
11974	0	0.386099815	0.039680481	0.057522774	0.999999046	-0.000173569	8.96E-05	-0.000229836	9.652495384	0.992012024	1.438069344	-0.008678436	0.004482269	-0.011491776	-0.437011719	-0.835449219	-0.427490234	891.7	37.85099168	-80.37175097	33.92640463	-72
11975	0	0.388366699	0.040710449	0.055847168	0.999999046	-0.000110626	-0.000319481	-7.63E-05	9.70916748	1.01776123	1.396179199	-0.005531311	-0.015974045	-0.003814697	-0.437011719	-0.835449219	-0.424804688	891.72	37.95542313	-80.36677749	33.80735045	-73
11976	0	0.389431953	0.040146828	0.053774834	0.999999046	-4.48E-05	-0.000486374	0.000220299	9.735798836	1.003670692	1.344370842	-0.002241135	-0.024318696	0.011014939	-0.437011719	-0.835449219	-0.430419922	891.7	37.98020729	-80.39812748	33.77445442	-73
11977	0	0.389648438	0.039733887	0.053710938	0.999999046	-2.29E-05	-0.000479698	0.000514984	9.741210938	0.993347168	1.342773438	-0.001144409	-0.023984911	0.025749209	-0.437011719	-0.833251953	-0.43359375	891.66	37.84806069	-80.4499762	33.90285055	-74
11978	0	0.388401031	0.041466713	0.054864883	0.999999046	-0.000322342	-0.000579834	0.000434875	9.710025787	1.036667824	1.371622086	-0.016117098	-0.028991702	0.021743777	-0.437255859	-0.831054688	-0.427978516	891.66	37.76703149	-80.50541955	33.94721862	-74
11979	0	0.389343262	0.038452148	0.05456543	0.999999046	-0.000465393	-0.000479698	0.000476837	9.733581543	0.961303711	1.364135742	-0.023269656	-0.023984912	0.023841861	-0.437255859	-0.833251953	-0.427734375	891.66	37.60456251	-80.55500972	34.05762908	-74
11980	0	0.390136719	0.037719727	0.0546875	0.999999046	-0.000544548	-6.48E-05	0.000205994	9.753417969	0.942993164	1.3671875	-0.027227403	-0.003242493	0.010299683	-0.437255859	-0.833251953	-0.427734375	891.7	37.40644149	-80.54824088	34.19486378	-75
11981	0	0.390930176	0.038635254	0.056518555	0.999999046	-0.00082016	0.000351906	0.000148773	9.773254395	0.965881348	1.412963867	-0.041008001	0.017595294	0.007438661	-0.434814453	-0.831298828	-0.430908203	891.66	37.03600284	-80.49957684	34.47384605	-74
11982	0	0.389987946	0.038552284	0.05410862	0.999999046	-0.000736237	0.000667572	0.000102997	9.749698639	0.963807106	1.352715492	-0.036811835	0.033378607	0.005149842	-0.437255859	-0.828857422	-0.433837891	891.7	36.57624123	-80.41879153	34.85301333	-74
11983	0	0.388122559	0.03692627	0.055419922	0.999999046	-0.000442505	0.00086689	7.25E-05	9.703063965	0.923156738	1.385498047	-0.022125248	0.043344505	0.003623963	-0.434814453	-0.829101563	-0.431152344	891.64	36.09506937	-80.31732599	35.28962226	-75
11984	0	0.387910843	0.037065506	0.05490303	0.999999046	-3.91E-05	0.000654221	0.000141144	9.697771072	0.92663765	1.37257576	-0.001955032	0.032711032	0.00705719	-0.432617188	-0.824707031	-0.437255859	891.66	35.7155882	-80.24003105	35.66760392	-74
11985	0	0.388305664	0.038757324	0.056518555	0.999999046	0.00019455	0.000157356	0.000110626	9.707641602	0.968933105	1.412963867	0.009727478	0.007867813	0.005531311	-0.432617188	-0.826904297	-0.434326172	891.7	35.57728258	-80.20691735	35.82994852	-74
11986	0	0.387868881	0.037776947	0.054671288	0.999999046	-1.91E-06	9.54E-05	0.000258446	9.696722031	0.944423676	1.366782188	-9.54E-05	0.004768372	0.012922287	-0.432373047	-0.829101563	-0.439941406	891.64	35.36264316	-80.1896967	36.04559844	-74
11987	0	0.386535645	0.036743164	0.056091309	0.999999046	-3.05E-05	0.000267982	0.000247955	9.663391113	0.918579102	1.402282715	-0.001525879	0.013399124	0.012397766	-0.432617188	-0.826904297	-0.439941406	891.7	35.08625117	-80.15577964	36.32111536	-73
11988	0	0.384081841	0.037769318	0.057518959	0.999999046	-9.63E-05	0.000183105	0.000208855	9.602046013	0.944232941	1.437973976	-0.004816055	0.009155274	0.010442734	-0.432617188	-0.824707031	-0.437255859	891.64	34.85807201	-80.12726147	36.54095806	-73
11989	0	0.386108398	0.038146973	0.055236816	0.999999046	-0.000205994	-0.000292778	0.000274658	9.652709961	0.953674316	1.38092041	-0.010299683	-0.014638901	0.013732911	-0.432617188	-0.824707031	-0.437255859	891.7	34.76264142	-80.14803507	36.61319505	-73
11990	0	0.388968468	0.03717804	0.055145264	0.999999046	-0.000263214	-0.000217438	0.000267029	9.724211693	0.929450989	1.378631592	-0.013160706	-0.010871888	0.013351441	-0.432617188	-0.822509766	-0.4375	891.72	34.63718764	-80.16155382	36.70898318	-73
11991	0	0.387878418	0.037353516	0.055847168	0.999999046	-0.000324249	-9.44E-05	0.000179291	9.696960449	0.933837891	1.396179199	-0.016212464	-0.004720688	0.008964539	-0.432617188	-0.824707031	-0.440185547	891.66	34.50712338	-80.15802942	36.80215204	-72
11992	0	0.389428139	0.037359238	0.056712151	0.999999046	-0.000275612	-0.000202179	8.68E-05	9.735703468	0.933980942	1.417803764	-0.013780594	-0.010108948	0.004339218	-0.432617188	-0.824707031	-0.440185547	891.7	34.47422927	-80.15893263	36.80263788	-72
11993	0	0.389282227	0.03717041	0.055480957	0.999999046	-0.000171661	-0.00026226	0.000205994	9.732055664	0.929260254	1.387023926	-0.008583069	-0.013113022	0.010299683	-0.432861328	-0.822509766	-0.434570313	891.64	34.41178557	-80.1735585	36.84631557	-72
11994	0	0.387680054	0.037478447	0.057852745	0.999999046	-0.00022316	-0.000312805	0.000167847	9.692001343	0.936961174	1.446318626	-0.01115799	-0.015640259	0.008392334	-0.430419922	-0.822509766	-0.437744141	891.72	34.38371657	-80.19067982	36.84781711	-72
11995	0	0.386413574	0.037780762	0.058532715	0.999999046	-0.000228882	-0.00052166	0.000148773	9.660339355	0.944519043	1.463317871	-0.011444092	-0.026082994	0.00743866	-0.435058594	-0.822509766	-0.434570313	891.7	34.44451818	-80.22643147	36.7594092	-72
11996	0	0.38984108	0.037088394	0.057226181	0.999999046	-0.000401497	-0.000400543	7.25E-05	9.746026993	0.927209854	1.430654526	-0.020074845	-0.020027162	0.003623963	-0.430419922	-0.822509766	-0.437744141	891.72	34.48284086	-80.24600212	36.6726961	-72
11997	0	0.390014648	0.038085938	0.056884766	0.999999046	-0.000301361	-0.000201225	-3.05E-05	9.750366211	0.952148438	1.422119141	-0.015068055	-0.010061264	-0.001525879	-0.432861328	-0.822509766	-0.434570313	891.64	34.51507048	-80.24024237	36.60484764	-72
11998	0	0.38795948	0.038441658	0.056078911	0.999999046	-0.000431061	-0.000371933	9.06E-05	9.698987007	0.961041451	1.401972771	-0.021553041	-0.01859665	0.004529953	-0.432617188	-0.822509766	-0.440429688	891.76	34.53152676	-80.25866128	36.53650489	-72
11999	0	0.387939453	0.03717041	0.056213379	0.999999046	-0.000537872	-0.00026989	0.000160217	9.698486328	0.929260254	1.405334473	-0.026893617	-0.013494492	0.008010865	-0.432861328	-0.8203125	-0.434814453	891.72	34.45966145	-80.2721747	36.54696437	-72
12000	0	0.387737274	0.036984444	0.056775093	0.999999046	-0.000569344	-0.000423431	3.34E-05	9.693431854	0.924611092	1.419377327	-0.028467181	-0.021171572	0.00166893	-0.430419922	-0.8203125	-0.437744141	891.7	34.51285085	-80.29215093	36.42596736	-72
12001	0	0.388305664	0.036865234	0.054626465	0.999999046	-0.000583649	-0.000403404	-8.39E-05	9.707641602	0.921630859	1.365661621	-0.029182437	-0.020170214	-0.004196167	-0.430419922	-0.8203125	-0.440673828	891.7	34.62277664	-80.3028573	36.24543512	-72
12002	0	0.389074326	0.036746025	0.052461624	0.999999046	-0.000450134	-0.000440598	6.77E-05	9.726858139	0.918650627	1.311540604	-0.022506715	-0.022029878	0.003385544	-0.430419922	-0.8203125	-0.443603516	891.7	34.68006861	-80.32727027	36.13365935	-72
12003	0	0.389343262	0.036865234	0.055480957	0.999999046	-0.000461578	-0.000323296	-4.96E-05	9.733581543	0.921630859	1.387023926	-0.02307892	-0.016164781	-0.002479553	-0.432617188	-0.8203125	-0.443359375	891.76	34.75698216	-80.3331692	36.00123642	-72
12004	0	0.389251709	0.036548615	0.053491592	0.999999046	-0.00039196	-0.000322342	-2.38E-05	9.731292725	0.913715363	1.33728981	-0.019598008	-0.016117097	-0.001192093	-0.432861328	-0.818115234	-0.443603516	891.66	34.82830786	-80.34093332	35.88249817	-72
12005	0	0.388793945	0.036682129	0.055786133	0.999999046	-0.000339508	-0.000430107	-8.39E-05	9.719848633	0.917053223	1.39465332	-0.016975404	-0.021505357	-0.004196167	-0.432861328	-0.818115234	-0.440673828	891.7	34.98111384	-80.35502581	35.68786042	-72
12006	0	0.38749218	0.036587715	0.054682732	0.999999046	-0.000335693	-0.000440598	3.72E-05	9.687304497	0.914692879	1.367068291	-0.016784669	-0.022029878	0.001859665	-0.432617188	-0.8203125	-0.443359375	891.66	35.07259296	-80.37821166	35.55531937	-72
12007	0	0.389648438	0.036804199	0.051330566	0.999999046	-0.000179291	-0.000491142	0	9.741210938	0.92010498	1.28326416	-0.008964539	-0.024557115	0	-0.432861328	-0.818115234	-0.443603516	891.72	35.22411923	-80.40398293	35.37988278	-72
12008	0	0.388965607	0.03660202	0.05059433	0.999999046	-4.10E-05	-0.000333786	2.86E-06	9.724140167	0.915050507	1.264858246	-0.0020504	-0.016689301	0.000143051	-0.432861328	-0.815917969	-0.446777344	891.72	35.33017539	-80.41551967	35.26605575	-72
12009	0	0.388183594	0.03692627	0.052307129	0.999999046	2.67E-05	-0.00045681	-3.05E-05	9.704589844	0.923156738	1.307678223	0.001335144	-0.022840501	-0.001525879	-0.432861328	-0.818115234	-0.443603516	891.7	35.51225658	-80.436531	35.08408438	-72
12010	0	0.38969326	0.037135124	0.051947594	0.999999046	0.00019455	-0.00037384	6.39E-05	9.742331505	0.928378105	1.298689842	0.009727478	-0.018692017	0.003194809	-0.432861328	-0.818115234	-0.437988281	891.7	35.63015109	-80.45628149	34.98735814	-73
12011	0	0.38873291	0.038024902	0.050720215	0.999999046	0.000118256	-0.00045681	-4.20E-05	9.718322754	0.950622559	1.268005371	0.005912781	-0.022840501	-0.002098084	-0.432861328	-0.818115234	-0.443603516	891.76	35.83287937	-80.47688985	34.79427261	-72
12012	0	0.38871479	0.040021896	0.051208496	0.999999046	7.34E-05	-0.000350952	7.63E-05	9.717869759	1.000547409	1.280212402	0.003671646	-0.017547608	0.003814697	-0.435302734	-0.818115234	-0.437744141	891.7	35.92499235	-80.49569032	34.70943196	-73
12013	0	0.387390137	0.037414551	0.049621582	0.999999046	8.01E-05	-0.00039196	-1.14E-05	9.684753418	0.93536377	1.240539551	0.004005432	-0.019598008	-0.000572205	-0.435058594	-0.8203125	-0.440429688	891.7	36.08465464	-80.51264419	34.55620114	-73
12014	0	0.387125015	0.037430763	0.052118301	0.999999046	-0.000213623	-0.000497818	-1.14E-05	9.678125381	0.935769081	1.302957535	-0.010681153	-0.024890901	-0.000572205	-0.4375	-0.820068359	-0.434570313	891.6	36.25492806	-80.5394837	34.35902462	-73
12015	0	0.389038086	0.037231445	0.049926758	0.999999046	8.01E-05	-0.000624657	-9.16E-05	9.725952148	0.930786133	1.248168945	0.004005432	-0.031232836	-0.004577637	-0.435058594	-0.818115234	-0.443603516	891.66	36.55736425	-80.57271725	34.05995785	-73
12016	0	0.389945984	0.037187576	0.048456192	0.999999046	0.000306129	-0.000366211	5.25E-05	9.748649597	0.929689407	1.2114048	0.015306473	-0.018310548	0.002622604	-0.435058594	-0.8203125	-0.440429688	891.7	36.70212174	-80.59215163	33.94815855	-73
12017	0	0.389221191	0.038085938	0.049316406	0.999999046	0.000450134	-0.000220299	0.000144958	9.730529785	0.952148438	1.232910156	0.022506715	-0.011014939	0.007247925	-0.4375	-0.820068359	-0.434570313	891.64	36.75323793	-80.60472003	33.94873361	-74
12018	0	0.38882637	0.038809776	0.048498154	0.999999046	0.000349045	-0.000188828	4.20E-05	9.720659256	0.970244408	1.212453842	0.01745224	-0.009441376	0.002098084	-0.4375	-0.820068359	-0.434570313	891.7	36.83836413	-80.60756073	33.90262771	-74
12019	0	0.389465332	0.038024902	0.047912598	0.999999046	0.000350952	5.82E-05	0.000171661	9.736633301	0.950622559	1.197814941	0.017547608	0.002908707	0.008583069	-0.4375	-0.822265625	-0.434326172	891.66	36.75063441	-80.59691301	34.03195697	-74
12020	0	0.389595032	0.038901329	0.048967361	0.999999046	0.000329018	9.16E-05	0.000163078	9.739875793	0.972533226	1.224184036	0.016450882	0.004577637	0.008153916	-0.439697266	-0.824462891	-0.434082031	891.7	36.65293217	-80.58277859	34.16891292	-74
12021	0	0.388366699	0.039672852	0.049926758	0.999999046	0.000297546	6.20E-05	0.000232697	9.70916748	0.991821289	1.248168945	0.01487732	0.003099442	0.011634827	-0.4375	-0.824462891	-0.431396484	891.7	36.52682154	-80.57620316	34.33121715	-74
12022	0	0.387645721	0.038484573	0.051293373	0.999999046	0.000116348	-0.000133514	0.000232697	9.691143036	0.962114334	1.282334328	0.005817413	-0.00667572	0.011634827	-0.439941406	-0.824462891	-0.431152344	891.72	36.46103847	-80.58769598	34.41117181	-74
12023	0	0.387023926	0.038757324	0.052429199	0.999999046	-7.63E-06	-0.00033474	0.000198364	9.675598145	0.968933105	1.31072998	-0.00038147	-0.016736985	0.009918213	-0.437255859	-0.824462891	-0.437011719	891.7	36.48335145	-80.61542615	34.38657445	-74
12024	0	0.388110161	0.037686348	0.051009178	0.999999046	-2.00E-05	-0.000545502	0.000205994	9.702754021	0.942158699	1.275229454	-0.001001358	-0.027275087	0.010299683	-0.439941406	-0.824462891	-0.431152344	891.7	36.58808342	-80.66319983	34.27813446	-73
12025	0	0.390197754	0.039978027	0.047729492	0.999999046	0.000312805	-0.000361443	0.0001297	9.754943848	0.999450684	1.193237305	0.015640259	-0.018072129	0.006484986	-0.442138672	-0.824462891	-0.434082031	891.66	36.69973128	-80.68898943	34.20073616	-73
12026	0	0.388839722	0.039175034	0.049070358	0.999999046	4.58E-05	-0.000869751	0.000415802	9.720993042	0.979375839	1.226758957	0.002288819	-0.043487556	0.020790103	-0.442138672	-0.824462891	-0.434082031	891.7	36.83556319	-80.78116689	34.06795387	-73
12027	0	0.387390137	0.04095459	0.047973633	0.999999046	-0.000312805	-0.001009941	0.000534058	9.684753418	1.023864746	1.19934082	-0.015640262	-0.050497067	0.026702887	-0.442138672	-0.826660156	-0.433837891	891.72	36.92733515	-80.89435578	33.93855981	-72
12028	0	0.388506889	0.038555145	0.048676491	0.999999046	-0.00039959	-0.000934601	0.000511169	9.712672234	0.963878632	1.21691227	-0.019979481	-0.046730052	0.025558477	-0.444580078	-0.82421875	-0.430908203	891.76	36.99325644	-80.99912561	33.82558513	-72
12029	0	0.387084961	0.038085938	0.048217773	0.999999046	-0.000244141	-0.000845909	0.00037384	9.677124023	0.952148438	1.205444336	-0.012207033	-0.042295462	0.018692019	-0.44921875	-0.82421875	-0.43359375	891.66	37.1210401	-81.08634034	33.66763881	-72
12030	0	0.388482094	0.039357185	0.050447464	0.999999046	-9.35E-05	-0.001031876	0.000266075	9.712052345	0.983929634	1.2611866	-0.004673005	-0.05159379	0.013303759	-0.44921875	-0.82421875	-0.43359375	891.66	37.41626182	-81.18285608	33.35782852	-72
12031	0	0.389648438	0.038635254	0.050048828	0.999999046	-4.96E-05	-0.00096035	0.000408173	9.741210938	0.965881348	1.251220703	-0.002479554	-0.048017511	0.020408634	-0.44921875	-0.826416016	-0.430664063	891.7	37.60703436	-81.28250691	33.15939186	-72
12032	0	0.389104843	0.038189888	0.050341606	0.999999046	-1.24E-05	-0.000883102	0.000372887	9.727621078	0.9547472	1.258540154	-0.000619888	-0.044155128	0.018644336	-0.451660156	-0.826171875	-0.430419922	891.7	37.79210084	-81.37247189	32.97090406	-72
12033	0	0.391784668	0.037963867	0.046691895	0.999999046	-1.91E-05	-0.000384331	0.000301361	9.794616699	0.94909668	1.167297363	-0.000953674	-0.019216538	0.015068055	-0.453857422	-0.826171875	-0.430419922	891.66	37.79107617	-81.41224087	32.9698699	-72
12034	0	0.391540527	0.04010582	0.048832893	0.999999046	7.25E-05	-5.91E-05	0.000315666	9.788513184	1.002645493	1.220822334	0.003623962	-0.00295639	0.01578331	-0.456298828	-0.825927734	-0.427246094	891.72	37.64156011	-81.42339662	33.13006312	-72
12035	0	0.389770508	0.038696289	0.05078125	0.999999046	-0.000152588	0.000172615	0.000209808	9.744262695	0.967407227	1.26953125	-0.007629395	0.008630753	0.010490418	-0.453857422	-0.826171875	-0.427490234	891.64	37.42284345	-81.4058422	33.3340189	-72
12036	0	0.387266159	0.0379076	0.050131798	0.999999046	-0.000182152	0.000274658	5.72E-05	9.681653976	0.94769001	1.253294945	-0.00910759	0.01373291	0.002861023	-0.454101563	-0.823974609	-0.427734375	891.72	37.24695901	-81.36814095	33.49111058	-72
12037	0	0.388671875	0.038146973	0.051147461	0.999999046	-0.000247955	0.000172615	5.34E-05	9.716796875	0.953674316	1.278686523	-0.012397766	0.008630753	0.002670288	-0.454101563	-0.823974609	-0.430419922	891.72	37.11367535	-81.3392675	33.59729819	-72
12038	0	0.390184402	0.037898064	0.048126221	0.999999046	-0.00015831	0.000101089	0.000117302	9.754610062	0.947451591	1.203155518	-0.007915497	0.005054474	0.005865097	-0.454101563	-0.821777344	-0.43359375	891.64	36.98616443	-81.32131023	33.7077786	-72
12039	0	0.389648438	0.03729248	0.048034668	0.999999046	-9.16E-05	0.000340462	-4.20E-05	9.741210938	0.932312012	1.200866699	-0.004577637	0.017023087	-0.002098084	-0.453857422	-0.826171875	-0.427490234	891.66	36.85531693	-81.2704413	33.83074424	-72
12040	0	0.387719154	0.037071228	0.050196648	0.999999046	-4.67E-05	0.000524521	0.000110626	9.692978859	0.926780701	1.254916191	-0.002336502	0.026226045	0.005531311	-0.454101563	-0.823974609	-0.430419922	891.7	36.55887856	-81.21299146	34.1256449	-72
12041	0	0.387756348	0.037414551	0.050354004	0.999999046	-7.63E-06	8.87E-05	0	9.693908691	0.93536377	1.258850098	-0.00038147	0.004434586	0	-0.451660156	-0.823974609	-0.430664063	891.66	36.52755498	-81.18793736	34.15685918	-72
12042	0	0.388723373	0.037108421	0.049385071	0.999999046	0.000246048	-0.000160217	8.39E-05	9.718084335	0.927710533	1.23462677	0.012302399	-0.008010864	0.004196167	-0.451660156	-0.823974609	-0.427734375	891.7	36.58549163	-81.1915385	34.12749399	-72
12043	0	0.389160156	0.036804199	0.047180176	0.999999046	0.000221252	-0.000285149	6.10E-05	9.729003906	0.92010498	1.179504395	0.011062622	-0.014257431	0.003051758	-0.451660156	-0.823974609	-0.430664063	891.64	36.71017755	-81.2051738	34.02715039	-72
12044	0	0.390228271	0.036959648	0.04681778	0.999999046	0.000229836	-0.000183105	0.000197411	9.755706787	0.923991203	1.170444489	0.011491776	-0.009155274	0.009870529	-0.454101563	-0.821777344	-0.43359375	891.72	36.71065177	-81.21889059	34.05318389	-72
12045	0	0.390441895	0.036071777	0.047912598	0.999999046	0.00025177	6.58E-05	0.000274658	9.761047363	0.901794434	1.197814941	0.012588501	0.003290176	0.01373291	-0.456298828	-0.823730469	-0.427490234	891.66	36.55771843	-81.21509638	34.23817049	-73
12046	0	0.389966965	0.037041664	0.048920631	0.999999046	0.000202179	0.00015831	0.000117302	9.749174118	0.926041603	1.223015785	0.010108948	0.007915497	0.005865097	-0.451660156	-0.826171875	-0.424804688	891.64	36.45277804	-81.19201841	34.36893936	-72
12047	0	0.389404297	0.035095215	0.048095703	0.999999046	0.000297546	0.000325203	8.77E-05	9.735107422	0.877380371	1.202392578	0.01487732	0.016260148	0.004386902	-0.451660156	-0.823974609	-0.430664063	891.64	36.30414456	-81.15161946	34.55377344	-72
12048	0	0.389987946	0.036948204	0.049791336	0.999999046	0.000748634	0.000589371	0.0001297	9.749698639	0.923705101	1.244783401	0.037431723	0.029468541	0.006484986	-0.454101563	-0.823974609	-0.427734375	891.7	36.07021388	-81.08954346	34.87790364	-72
12049	0	0.389526367	0.037597656	0.04901123	0.999999046	0.000610352	0.000409126	0.000232697	9.73815918	0.939941406	1.225280762	0.030517581	0.020456316	0.011634828	-0.454101563	-0.823974609	-0.427734375	891.7	35.84096834	-81.05095963	35.18122585	-72
12050	0	0.388954163	0.036987305	0.048733711	0.999999046	0.000125885	0.000362396	0.000144005	9.723854065	0.924682617	1.218342781	0.006294251	0.018119813	0.007200241	-0.44921875	-0.826171875	-0.424804688	891.66	35.63123375	-81.01068881	35.40912982	-73
12051	0	0.388671875	0.036071777	0.051086426	0.999999046	0.000289917	0.0002985	0.000125885	9.716796875	0.901794434	1.277160645	0.01449585	0.014925004	0.006294251	-0.451660156	-0.823974609	-0.424804688	891.64	35.47955916	-80.97507951	35.59694413	-73
12052	0	0.389749527	0.035147667	0.049832344	0.999999046	0.000197411	0.000213623	0.000212669	9.743738174	0.878691673	1.245808601	0.009870529	0.010681153	0.010633469	-0.451660156	-0.826171875	-0.427490234	891.64	35.30299843	-80.95320057	35.79896848	-73
12053	0	0.391296387	0.035217285	0.049255371	0.999999046	0.000495911	0.000500679	3.05E-05	9.782409668	0.880432129	1.231384277	0.024795534	0.025033953	0.001525879	-0.449462891	-0.823974609	-0.425048828	891.76	35.15015803	-80.89248431	36.01181802	-73
12054	0	0.390332222	0.036585808	0.050584793	0.999999046	0.00053978	0.00063324	4.10E-05	9.75830555	0.914645195	1.264619827	0.026988986	0.031661991	0.0020504	-0.44921875	-0.823974609	-0.427978516	891.64	34.94515861	-80.81999566	36.28222233	-73
12055	0	0.388793945	0.036743164	0.050476074	0.999999046	0.000617981	0.000641823	0.000118256	9.719848633	0.918579102	1.261901855	0.030899052	0.032091145	0.005912782	-0.44921875	-0.828369141	-0.421875	891.64	34.70521829	-80.75167327	36.5982983	-73
12056	0	0.389041901	0.036530495	0.05092907	0.999999046	0.000481606	0.000650406	1.05E-05	9.726047516	0.913262367	1.273226738	0.024080279	0.032520298	0.000524521	-0.447021484	-0.826416016	-0.425048828	891.7	34.51286056	-80.67544055	36.84942911	-73
12057	0	0.388305664	0.037109375	0.051147461	0.999999046	0.000488281	0.000424385	-9.92E-05	9.707641602	0.927734375	1.278686523	0.024414064	0.021219255	-0.004959107	-0.447021484	-0.82421875	-0.430908203	891.66	34.47655074	-80.61345081	36.94249822	-73
12058	0	0.387094498	0.036685944	0.051317215	0.999999046	0.000421524	0.000183105	6.87E-05	9.677362442	0.91714859	1.282930374	0.021076203	0.009155274	0.003433228	-0.444580078	-0.826416016	-0.425048828	891.66	34.43247168	-80.58523437	37.0369947	-73
12059	0	0.389160156	0.03704834	0.049865723	0.999999046	0.000423431	0.000134468	3.81E-05	9.729003906	0.926208496	1.246643066	0.021171571	0.006723404	0.001907349	-0.444580078	-0.828613281	-0.424804688	891.64	34.42612076	-80.55981593	37.0933789	-73
12060	0	0.387928009	0.037243843	0.050486565	0.999999046	0.00033474	-7.06E-05	-2.29E-05	9.698200226	0.931096077	1.262164116	0.016736985	-0.003528595	-0.001144409	-0.444580078	-0.828613281	-0.424804688	891.66	34.52492597	-80.54996132	37.03268123	-73
12061	0	0.389709473	0.037536621	0.049072266	0.999999046	0.000156403	-0.000124931	-4.96E-05	9.742736816	0.938415527	1.226806641	0.007820129	-0.006246567	-0.002479553	-0.444580078	-0.828613281	-0.424804688	891.66	34.64050945	-80.54369248	36.93422848	-73
12062	0	0.388924599	0.037528992	0.049755096	0.999999046	-5.91E-05	-9.73E-05	-3.81E-05	9.723114967	0.938224792	1.243877411	-0.00295639	-0.004863739	-0.001907349	-0.444580078	-0.826416016	-0.425048828	891.66	34.71477687	-80.53571015	36.85252655	-73
12063	0	0.389770508	0.038208008	0.050476074	0.999999046	1.53E-05	-0.00026226	-2.67E-05	9.744262695	0.955200195	1.261901855	0.000762939	-0.013113022	-0.001335144	-0.444580078	-0.828613281	-0.424804688	891.64	34.85656429	-80.54410496	36.71124718	-73
12064	0	0.388939857	0.03725338	0.049781799	0.999999046	0.000184059	-0.000358582	5.25E-05	9.723496437	0.931334496	1.244544983	0.009202957	-0.017929078	0.002622604	-0.444580078	-0.828613281	-0.424804688	891.7	35.01197265	-80.56685431	36.57566928	-74
12065	0	0.388793945	0.037475586	0.048950195	0.999999046	0.000221252	-0.000281334	-9.92E-05	9.719848633	0.936889648	1.223754883	0.011062622	-0.014066696	-0.004959107	-0.444580078	-0.828613281	-0.424804688	891.64	35.2279672	-80.57248103	36.38295925	-74
12066	0	0.38985157	0.037146568	0.049017906	0.999999046	0.000232697	-0.000328064	-8.01E-05	9.746289253	0.928664207	1.225447655	0.011634827	-0.016403199	-0.004005432	-0.444580078	-0.828613281	-0.419189453	891.64	35.45408197	-80.58381164	36.18197128	-74
12067	0	0.390808105	0.038513184	0.049133301	0.999999046	0.000450134	-0.000109673	-0.00012207	9.770202637	0.96282959	1.22833252	0.022506715	-0.005483628	-0.006103516	-0.444335938	-0.830810547	-0.427490234	891.66	35.64204698	-80.57201658	36.04360645	-73
12068	0	0.388367653	0.039018631	0.04943943	0.999999046	0.000355721	-0.000211716	-0.000110626	9.709191322	0.975465775	1.235985756	0.017786027	-0.010585785	-0.005531311	-0.444335938	-0.830810547	-0.421875	891.6	35.85439499	-80.57049484	35.87060455	-74
12069	0	0.388427734	0.038269043	0.04876709	0.999999046	0.00031662	-0.00014782	-4.20E-05	9.710693359	0.956726074	1.219177246	0.015830994	-0.007390976	-0.002098084	-0.442138672	-0.830810547	-0.421875	891.64	35.99860297	-80.56772069	35.76188771	-73
12070	0	0.389292717	0.039004326	0.049419403	0.999999046	0.000450134	-0.000255585	-5.72E-05	9.732317924	0.975108147	1.235485077	0.022506715	-0.012779236	-0.002861023	-0.442138672	-0.830810547	-0.421875	891.72	36.21103833	-80.57394037	35.59940706	-73
12071	0	0.389404297	0.040283203	0.04888916	0.999999046	0.000339508	-2.57E-05	-3.43E-05	9.735107422	1.007080078	1.222229004	0.016975403	-0.00128746	-0.001716614	-0.444335938	-0.833007813	-0.424560547	891.64	36.30532272	-80.56048387	35.54369974	-74
12072	0	0.391051292	0.040829659	0.04731369	0.999999046	1.05E-05	0.000326157	-0.000248909	9.77628231	1.020741463	1.182842255	0.000524521	0.016307831	-0.01244545	-0.442138672	-0.833007813	-0.418945313	891.7	36.33853812	-80.5001067	35.51261513	-73
12073	0	0.390075684	0.04083252	0.049255371	0.999999046	7.25E-05	0.00061512	-0.000289917	9.75189209	1.020812988	1.231384277	0.003623963	0.030755999	-0.014495851	-0.441894531	-0.835205078	-0.424560547	891.7	36.28548738	-80.4103416	35.57540798	-73
12074	0	0.3879776	0.039599419	0.049725533	0.999999046	-0.000131607	0.000673294	-0.000115395	9.699440002	0.989985466	1.243138313	-0.006580353	0.033664706	-0.00576973	-0.439697266	-0.833251953	-0.421875	891.64	36.09296459	-80.32708636	35.75645045	-74
12075	0	0.388061523	0.038818359	0.050231934	0.999999046	0.000152588	0.00086689	-3.43E-05	9.701538086	0.970458984	1.25579834	0.007629396	0.043344503	-0.001716614	-0.437255859	-0.833251953	-0.419189453	891.64	35.81701056	-80.2313401	36.05547651	-74
12076	0	0.38669014	0.041544914	0.050216675	0.999999046	0.000189781	0.000587463	3.43E-05	9.667253494	1.038622856	1.25541687	0.00948906	0.029373171	0.001716614	-0.439453125	-0.833251953	-0.424804688	891.72	35.62232647	-80.16605387	36.27558888	-74
12077	0	0.388244629	0.041442871	0.050720215	0.999999046	-0.000198364	0.000523567	4.96E-05	9.706115723	1.036071777	1.268005371	-0.009918213	0.026178361	0.002479553	-0.439453125	-0.833251953	-0.424804688	891.64	35.40315558	-80.10769849	36.47586758	-74
12078	0	0.387890816	0.041322708	0.049921036	0.999999046	-0.000246048	0.000528336	7.92E-05	9.697270393	1.033067703	1.248025894	-0.012302399	0.02641678	0.003957749	-0.439697266	-0.833251953	-0.421875	891.7	35.16453581	-80.05086018	36.69095684	-74
12079	0	0.389465332	0.041015625	0.051086426	0.999999046	-0.000415802	0.000626564	0.000198364	9.736633301	1.025390625	1.277160645	-0.020790102	0.031328204	0.009918214	-0.437255859	-0.833251953	-0.424804688	891.72	34.80996641	-79.99257833	37.0036284	-74
12080	0	0.388803482	0.04179287	0.053926468	0.999999046	-0.000258446	0.000555038	0.000148773	9.720087051	1.044821739	1.348161697	-0.012922288	0.027751924	0.00743866	-0.437255859	-0.831054688	-0.427978516	891.64	34.53047231	-79.93751017	37.2581031	-74
12081	0	0.388671875	0.041381836	0.053649902	0.999999046	-0.000431061	0.00049305	0.000148773	9.716796875	1.034545898	1.341247559	-0.021553041	0.024652483	0.00743866	-0.437255859	-0.833251953	-0.422119141	891.72	34.25730055	-79.88813411	37.48736384	-74
12082	0	0.386675835	0.040242195	0.055163383	0.999999046	-0.000341415	0.000417709	0.000125885	9.666895866	1.006054878	1.379084587	-0.017070771	0.020885469	0.006294251	-0.437255859	-0.833251953	-0.427734375	891.64	34.03614484	-79.84427421	37.67323088	-74
12083	0	0.386291504	0.039489746	0.054992676	0.999999046	-0.000450134	0.000157356	0.000106812	9.657287598	0.987243652	1.374816895	-0.022506715	0.007867813	0.005340576	-0.434814453	-0.831298828	-0.430908203	891.58	33.90710946	-79.82389012	37.75258709	-74
12084	0	0.38725853	0.040271759	0.05618763	0.999999046	-0.000370979	-1.91E-06	0.00014019	9.681463242	1.006793976	1.404690742	-0.018548966	-9.54E-05	0.007009506	-0.437255859	-0.833251953	-0.424804688	891.56	33.82661995	-79.82075816	37.7931008	-74
12085	0	0.387817383	0.040039063	0.053222656	0.999999046	-0.000427246	-9.82E-05	0.0001297	9.69543457	1.000976563	1.330566406	-0.021362305	-0.004911423	0.006484986	-0.437255859	-0.831054688	-0.425048828	891.7	33.78012671	-79.82625825	37.792041	-74
12086	0	0.388081551	0.039832115	0.052569389	0.999999046	-0.000205994	-2.10E-05	8.77E-05	9.702038765	0.995802879	1.314234734	-0.010299683	-0.001049042	0.004386902	-0.434814453	-0.831054688	-0.427978516	891.72	33.75453811	-79.82189549	37.79501754	-74
12087	0	0.386901855	0.040588379	0.053039551	0.999999046	-0.000270844	-0.000170708	0.000236511	9.672546387	1.014709473	1.32598877	-0.013542176	-0.008535385	0.011825562	-0.437255859	-0.831054688	-0.430908203	891.7	33.69640613	-79.84137978	37.82338953	-74
12088	0	0.389074326	0.038788795	0.052376747	0.999999046	-0.000432014	-0.000209808	0.000263214	9.726858139	0.969719887	1.309418678	-0.021600724	-0.010490418	0.013160706	-0.437255859	-0.828857422	-0.428222656	891.72	33.61974491	-79.86648458	37.85232735	-74
12089	0	0.389038086	0.038208008	0.053283691	0.999999046	-8.01E-05	-0.000243187	0.000221252	9.725952148	0.955200195	1.332092285	-0.004005432	-0.012159348	0.011062622	-0.434814453	-0.831298828	-0.430908203	891.64	33.61773328	-79.89227463	37.84606041	-74
12090	0	0.388898849	0.039552689	0.054625511	0.999999046	0	-0.000326157	0.000361443	9.722471237	0.988817215	1.365637779	0	-0.016307831	0.018072129	-0.439697266	-0.828857422	-0.427978516	891.64	33.57953559	-79.93492837	37.8862374	-73
12091	0	0.388305664	0.0390625	0.054260254	0.999999046	2.67E-05	-2.96E-05	0.000228882	9.707641602	0.9765625	1.356506348	0.001335144	-0.001478195	0.011444092	-0.439453125	-0.831054688	-0.436523438	891.66	33.50982092	-79.94091945	37.96048274	-73
12092	0	0.388142586	0.038459778	0.054477692	0.999999046	4.29E-05	0.000108719	0.000342369	9.703564644	0.961494446	1.361942291	0.002145767	0.005435944	0.017118454	-0.437255859	-0.828857422	-0.430908203	891.64	33.33156699	-79.9408832	38.14788651	-73
12093	0	0.389282227	0.037658691	0.052490234	0.999999046	8.39E-05	0.000199318	0.000263214	9.732055664	0.941467285	1.312255859	0.004196167	0.009965897	0.013160706	-0.441894531	-0.828857422	-0.430664063	891.72	33.16906983	-79.92727832	38.32403866	-73
12094	0	0.390562057	0.038621902	0.05507946	0.999999046	0.000202179	0.00021553	0.000221252	9.764051437	0.965547562	1.376986504	0.010108948	0.01077652	0.011062622	-0.437255859	-0.828857422	-0.430908203	891.64	33.03767012	-79.90946928	38.48216029	-73
12095	0	0.38671875	0.038085938	0.055358887	0.999999046	0.000213623	0.00011158	0.000366211	9.66796875	0.952148438	1.383972168	0.010681153	0.005578995	0.018310547	-0.439697266	-0.828857422	-0.427978516	891.64	32.86605046	-79.91064726	38.68284274	-73
12096	0	0.386734009	0.038191795	0.055183411	0.999999046	0.000197411	-4.01E-05	0.000202179	9.66835022	0.954794884	1.379585266	0.009870529	-0.002002716	0.010108948	-0.439453125	-0.831054688	-0.430664063	891.64	32.83435446	-79.91619815	38.73904993	-73
12097	0	0.385253906	0.037841797	0.057189941	0.999999046	0.000144958	-0.00064373	0.000171661	9.631347656	0.946044922	1.429748535	0.007247925	-0.032186511	0.00858307	-0.441894531	-0.828857422	-0.430664063	891.66	33.02487991	-79.97786269	38.56331068	-73
12098	0	0.384362221	0.037969589	0.055583954	0.999999046	-0.000162125	-0.001106262	0.000102997	9.609055519	0.949239731	1.389598846	-0.008106233	-0.055313122	0.005149842	-0.441894531	-0.830810547	-0.427734375	891.64	33.38583935	-80.07939192	38.17936957	-73
12099	0	0.389892578	0.037719727	0.052001953	0.999999046	-9.54E-05	-0.000979424	0.000141144	9.747314453	0.942993164	1.300048828	-0.004768372	-0.048971184	0.007057191	-0.442138672	-0.828613281	-0.425048828	891.64	33.694924	-80.17098106	37.85593713	-73
12100	0	0.390799522	0.038819313	0.05197525	0.999999046	-0.000124931	-0.000444412	0.000293732	9.76998806	0.970482826	1.299381256	-0.006246567	-0.022220613	0.014686585	-0.444335938	-0.828613281	-0.427734375	891.82	33.72398314	-80.2212015	37.81281972	-72
12101	0	0.390014648	0.038513184	0.052307129	0.999999046	-0.000110626	-0.000239372	0.000278473	9.750366211	0.96282959	1.307678223	-0.005531311	-0.011968613	0.013923645	-0.444335938	-0.828613281	-0.430664063	891.64	33.68788871	-80.25096435	37.83719173	-73
12102	0	0.388595581	0.037063599	0.052433014	0.999999046	-0.000278473	-0.000137329	0.000236511	9.714889526	0.926589966	1.310825348	-0.013923645	-0.006866455	0.011825562	-0.446777344	-0.828613281	-0.424804688	891.64	33.61789343	-80.26839261	37.87770144	-72
12103	0	0.387878418	0.037231445	0.055786133	0.999999046	-0.000377655	-0.000231743	0.000293732	9.696960449	0.930786133	1.39465332	-0.018882752	-0.011587143	0.014686585	-0.446777344	-0.830810547	-0.427490234	891.76	33.53881055	-80.29835676	37.91533105	-72
12104	0	0.388839722	0.03720665	0.052519798	0.999999046	-0.000237465	-0.000350952	0.000155449	9.720993042	0.930166245	1.312994957	-0.011873246	-0.017547608	0.007772446	-0.446533203	-0.830810547	-0.430419922	891.78	33.59732441	-80.33098692	37.82909994	-72
12105	0	0.389282227	0.037475586	0.052246094	0.999999046	-0.000141144	-0.000250816	0.000205994	9.732055664	0.936889648	1.306152344	-0.00705719	-0.012540818	0.010299683	-0.444580078	-0.826416016	-0.427978516	891.66	33.6017326	-80.35729828	37.80919665	-72
12106	0	0.389385223	0.038154602	0.052365303	0.999999046	-9.54E-05	-3.62E-05	0.000160217	9.734630585	0.953865051	1.309132576	-0.004768372	-0.001811981	0.008010864	-0.446777344	-0.828613281	-0.430419922	891.76	33.55734218	-80.3602323	37.84399239	-72
12107	0	0.389831543	0.037231445	0.052490234	0.999999046	-3.81E-05	-3.72E-05	0.000164032	9.745788574	0.930786133	1.312255859	-0.001907349	-0.001859665	0.008201599	-0.446777344	-0.828613281	-0.430419922	891.6	33.51774988	-80.36352677	37.88069706	-72
12108	0	0.389725685	0.037770271	0.052096367	0.999999046	-8.87E-05	-6.10E-05	5.25E-05	9.743142128	0.944256783	1.302409172	-0.004434586	-0.003051758	0.002622604	-0.444335938	-0.828613281	-0.430664063	891.64	33.54429274	-80.36206587	37.84444194	-72
12109	0	0.389282227	0.037353516	0.053588867	0.999999046	-5.72E-05	0.000164986	0.000144958	9.732055664	0.933837891	1.33972168	-0.002861023	0.008249283	0.007247925	-0.446777344	-0.828613281	-0.430419922	891.72	33.43821134	-80.34483259	37.94657123	-72
12110	0	0.389153481	0.037600517	0.051706314	0.999999046	7.44E-05	1.72E-05	0.00012207	9.728837013	0.940012932	1.292657852	0.00371933	0.000858307	0.006103516	-0.446777344	-0.828613281	-0.427734375	891.66	33.41546216	-80.340327	37.97993167	-72
12111	0	0.389038086	0.038879395	0.053344727	0.999999046	-8.39E-05	0.00017643	7.63E-05	9.725952148	0.971984863	1.333618164	-0.004196167	0.008821487	0.003814697	-0.446777344	-0.828613281	-0.424804688	891.66	33.34179916	-80.31763721	38.04695936	-73
12112	0	0.388597488	0.040092468	0.052816391	0.999999046	-0.000239372	6.87E-05	6.68E-06	9.71493721	1.002311707	1.320409775	-0.011968613	0.003433228	0.000333786	-0.446777344	-0.828613281	-0.430419922	891.6	33.33012164	-80.30081258	38.03165335	-72
12113	0	0.388916016	0.039367676	0.052429199	0.999999046	-0.000339508	0.000164986	8.39E-05	9.722900391	0.984191895	1.31072998	-0.016975403	0.008249283	0.004196167	-0.446777344	-0.828613281	-0.430419922	891.78	33.22905821	-80.27960653	38.09581007	-73
12114	0	0.38841629	0.038351059	0.052581787	0.999999046	-0.000282288	9.54E-05	-3.53E-05	9.710407257	0.958776474	1.314544678	-0.01411438	0.004768372	-0.001764298	-0.444335938	-0.828613281	-0.430664063	891.7	33.22731852	-80.25759082	38.06594108	-72
12115	0	0.388977051	0.037780762	0.050720215	0.999999046	-0.000320435	0.000119209	1.91E-05	9.72442627	0.944519043	1.268005371	-0.016021729	0.005960465	0.000953674	-0.444580078	-0.826416016	-0.427978516	891.6	33.18271743	-80.2368242	38.07568863	-72
12116	0	0.38896656	0.037733078	0.050164223	0.999999046	-0.000119209	0.000104904	0.000125885	9.724164009	0.94332695	1.254105568	-0.005960465	0.005245209	0.006294251	-0.444335938	-0.828613281	-0.43359375	891.76	33.10762794	-80.22427377	38.13861922	-72
12117	0	0.388549805	0.037841797	0.051025391	0.999999046	6.10E-05	6.20E-05	9.54E-05	9.713745117	0.946044922	1.275634766	0.003051758	0.003099442	0.004768372	-0.444335938	-0.828613281	-0.43359375	891.6	33.08641773	-80.21403484	38.16810205	-73
12118	0	0.389710426	0.039970398	0.049419403	0.999999046	-5.72E-05	0.00031662	0.000212669	9.742760658	0.999259949	1.235485077	-0.002861023	0.015830994	0.010633469	-0.444580078	-0.82421875	-0.428222656	891.74	32.89589437	-80.18676354	38.35676285	-73
12119	0	0.387939453	0.040588379	0.049255371	0.999999046	-0.000183105	0.000336647	8.01E-05	9.698486328	1.014709473	1.231384277	-0.009155274	0.016832352	0.004005432	-0.444335938	-0.826416016	-0.43359375	891.7	32.76003342	-80.14935021	38.47424018	-73
12120	0	0.388948441	0.040201187	0.051911354	0.999999046	-0.000330925	0.00038147	-2.77E-05	9.723711014	1.005029678	1.297783852	-0.01654625	0.019073487	-0.001382828	-0.442138672	-0.826660156	-0.433837891	891.7	32.65296595	-80.10092526	38.5457	-73
12121	0	0.388244629	0.03918457	0.050415039	0.999999046	-0.000495911	0.000260353	8.77E-05	9.706115723	0.979614258	1.260375977	-0.024795534	0.013017655	0.004386902	-0.441894531	-0.826660156	-0.436767578	891.72	32.50790199	-80.07141757	38.63622921	-73
12122	0	0.389262199	0.039492607	0.050533295	0.999999046	-0.000419617	0.00044632	3.81E-05	9.731554985	0.987315178	1.263332367	-0.020980836	0.02231598	0.001907349	-0.439697266	-0.824462891	-0.437011719	891.66	32.33573429	-80.02096275	38.76335586	-73
12123	0	0.388000488	0.039367676	0.049560547	0.999999046	-0.000228882	0.000531197	0.000160217	9.700012207	0.984191895	1.239013672	-0.011444092	0.026559831	0.008010865	-0.442138672	-0.824462891	-0.436767578	891.72	32.0918694	-79.96983892	38.98603906	-73
12124	0	0.388206482	0.039037704	0.047914505	0.999999046	-0.000210762	0.000230789	0.00020504	9.705162048	0.975942612	1.197862625	-0.010538101	0.011539459	0.010251999	-0.442138672	-0.824462891	-0.434082031	891.72	31.93181246	-79.95077298	39.12655349	-73
12125	0	0.386108398	0.039611816	0.050109863	0.999999046	-0.000259399	0.000199318	0.000164032	9.652709961	0.99029541	1.252746582	-0.012969971	0.009965897	0.008201599	-0.439941406	-0.820068359	-0.434570313	891.76	31.80121735	-79.93237741	39.23067102	-73
12126	0	0.388176918	0.039458275	0.048635483	0.999999046	-0.000360489	-0.000104904	0.000239372	9.704422951	0.986456871	1.21588707	-0.018024445	-0.005245209	0.011968613	-0.439697266	-0.824462891	-0.434082031	891.7	31.72278667	-79.94837332	39.27084788	-73
12127	0	0.391235352	0.038635254	0.046325684	0.999999046	-3.81E-06	0.000367165	0.000312805	9.780883789	0.965881348	1.15814209	-0.000190735	0.018358231	0.015640259	-0.439697266	-0.822265625	-0.437255859	891.66	31.4865023	-79.92307082	39.51161336	-73
12128	0	0.389270782	0.039733887	0.049235344	0.999999046	0.000193596	0.0004673	0.000450134	9.731769562	0.993347168	1.230883598	0.009679795	0.023365023	0.022506716	-0.439697266	-0.822265625	-0.437255859	891.7	31.16654622	-79.89615433	39.8606156	-73
12129	0	0.388549805	0.039001465	0.049316406	0.999999046	-0.000148773	0.000660896	0.000492096	9.713745117	0.975036621	1.232910156	-0.007438661	0.033044819	0.0246048	-0.439941406	-0.822265625	-0.434326172	891.72	30.72394097	-79.85250201	40.29559126	-72
12130	0	0.387608528	0.038726807	0.048557281	0.999999046	0.000125885	0.001008987	0.000453949	9.690213203	0.968170166	1.213932037	0.006294252	0.050449382	0.022697453	-0.442138672	-0.824462891	-0.439697266	891.72	30.22733059	-79.77190051	40.81627526	-72
12131	0	0.386291504	0.039306641	0.046875	0.999999046	-0.000133514	0.000599861	0.000419617	9.657287598	0.982666016	1.171875	-0.006675721	0.02999306	0.020980837	-0.439941406	-0.820068359	-0.434570313	891.64	29.85814664	-79.72956133	41.17867276	-72
12132	0	0.386816025	0.039700508	0.04850769	0.999999046	0.000130653	0.000780106	0.000350952	9.67040062	0.992512703	1.212692261	0.00653267	0.039005284	0.01754761	-0.442138672	-0.820068359	-0.440185547	891.66	29.50583059	-79.66524869	41.55302363	-72
12133	0	0.389465332	0.040405273	0.046508789	0.999999046	4.20E-05	0.000309944	0.000644684	9.736633301	1.010131836	1.162719727	0.002098084	0.015497209	0.032234195	-0.444580078	-0.822021484	-0.437011719	891.64	29.13294319	-79.66435836	41.93989672	-71
12134	0	0.391622543	0.039110184	0.047296524	0.999999046	-0.000167847	0.000518799	0.000700951	9.790563583	0.977754593	1.182413101	-0.008392335	0.025939945	0.035047536	-0.442138672	-0.822265625	-0.434082031	891.78	28.64420565	-79.64550429	42.4212012	-71
12135	0	0.392333984	0.037353516	0.053833008	0.999998093	-0.000128746	0.00138855	0.000656128	9.808349609	0.933837891	1.345825195	-0.006437304	0.069427518	0.032806409	-0.444580078	-0.819824219	-0.439941406	891.7	27.93231185	-79.53569861	43.13159945	-71
12136	0	0.389793396	0.037560463	0.053826332	0.999997139	8.87E-05	0.001939774	0.000663757	9.7448349	0.939011574	1.345658302	0.004434589	0.096988746	0.03318789	-0.444580078	-0.819824219	-0.437011719	891.6	27.10283606	-79.36871922	43.98938371	-71
12137	0	0.386047363	0.037780762	0.055664063	0.999996185	0.000611305	0.002281189	0.000846863	9.651184082	0.944519043	1.391601563	0.030565294	0.114059568	0.042343184	-0.442138672	-0.820068359	-0.440185547	891.64	26.17089492	-79.17388611	45.01152483	-72
12138	0	0.384260178	0.037688255	0.058652878	0.999998093	-0.000161171	0.001320839	0.000974655	9.60650444	0.942206383	1.466321945	-0.008058552	0.066041976	0.04873278	-0.444824219	-0.817626953	-0.437255859	891.7	25.36090126	-79.08167978	45.82165697	-72
12139	0	0.384460449	0.036682129	0.059326172	0.999999046	-0.000431061	0.000645638	0.000713348	9.61151123	0.917053223	1.483154297	-0.021553044	0.032281882	0.035667426	-0.447021484	-0.817626953	-0.439941406	891.6	24.84148115	-79.04511094	46.30362681	-73
12140	0	0.388580322	0.033877373	0.061138153	0.999999046	-0.000178337	0.000852585	0.000900269	9.714508057	0.846934319	1.528453827	-0.008916857	0.042629253	0.04501344	-0.447021484	-0.817626953	-0.437255859	891.72	24.20385258	-78.99500325	46.93736421	-75
12141	0	0.385009766	0.037109375	0.061096191	0.999998093	0.000477791	0.001068115	0.000915527	9.625244141	0.927734375	1.527404785	0.02388955	0.053405781	0.045776384	-0.449462891	-0.815429688	-0.437255859	891.64	23.58950422	-78.92170202	47.62325702	-75
12142	0	0.379695892	0.036472321	0.06223774	0.999999046	0.000181198	0.000705719	0.000937462	9.492397308	0.911808014	1.555943489	0.009059908	0.035285958	0.046873104	-0.451904297	-0.815185547	-0.442871094	891.64	23.02150875	-78.88611298	48.22411089	-77
12143	0	0.38269043	0.035949707	0.064941406	0.999999046	-0.00056839	0.001114845	0.000564575	9.567260742	0.898742676	1.623535156	-0.028419504	0.055742281	0.028228769	-0.451904297	-0.812988281	-0.442871094	891.72	22.48164466	-78.78949233	48.71001313	-76
12144	0	0.380626678	0.032514572	0.066497803	0.999999046	-0.000849724	0.000598907	0.000247002	9.515666962	0.812864304	1.662445068	-0.042486199	0.029945379	0.012350085	-0.451904297	-0.812988281	-0.440185547	891.72	22.19890836	-78.73290234	48.90437139	-75
12145	0	0.38458252	0.023864746	0.059997559	0.999997139	-0.000923157	0.001866341	-0.00038147	9.614562988	0.596618652	1.499938965	-0.046157871	0.093317102	-0.019073501	-0.454345703	-0.812988281	-0.437011719	891.66	21.9702836	-78.51487953	49.03951805	-72
12146	0	0.385293961	0.027211189	0.066184998	0.999988556	-0.001360893	0.004143715	-0.001612663	9.632349014	0.680279732	1.654624939	-0.068044908	0.207186492	-0.080633454	-0.451904297	-0.810791016	-0.446044922	891.72	21.85882461	-78.0021098	48.99983681	-71
12147	0	0.39074707	0.039978027	0.067626953	0.999986649	-0.002566338	0.003917694	-0.00214386	9.768676758	0.999450684	1.690673828	-0.128317447	0.195885571	-0.107193467	-0.444824219	-0.811279297	-0.44921875	891.7	21.91509135	-77.49069678	48.65047592	-69
12148	0	0.392385483	0.034453392	0.062149048	0.999987602	-0.003697395	0.003004074	-0.001422882	9.80963707	0.861334801	1.553726196	-0.184870528	0.150204324	-0.071144397	-0.4375	-0.811523438	-0.461181641	891.76	21.66624346	-77.10785274	48.477315	-68
12149	0	0.386535645	0.028686523	0.056396484	0.999990463	-0.004015923	0.001319885	-0.000236511	9.663391113	0.717163086	1.409912109	-0.200796727	0.06599446	-0.011825597	-0.435058594	-0.809326172	-0.467285156	891.72	21.14519991	-76.95556601	48.547186	-67
12150	0	0.403616905	0.028094292	0.044870377	0.999987602	-0.003904343	0.003002167	0.000296593	10.09042263	0.702357292	1.121759415	-0.195217925	0.150108946	0.014829696	-0.435302734	-0.802978516	-0.473388672	891.7	20.11501439	-76.645986	49.15472772	-68
12151	0	0.398254395	0.023986816	0.054138184	0.999993324	-0.002792358	0.001465797	0.001434326	9.956359863	0.59967041	1.35345459	-0.139618199	0.073290018	0.071716452	-0.4375	-0.802734375	-0.476074219	891.7	18.97786998	-76.54483253	50.00869626	-69
12152	0	0.387680054	0.011317253	0.059063911	0.999994278	-0.001340866	0.001254082	0.00249958	9.692001343	0.282931328	1.476597786	-0.067043412	0.062704187	0.12497922	-0.442382813	-0.798339844	-0.484863281	891.6	17.56642365	-76.50195358	51.30807908	-71
12153	0	0.382507324	0.011962891	0.063293457	0.999992371	8.49E-05	0.002105713	0.003093719	9.562683105	0.299072266	1.582336426	0.004243861	0.10528589	0.154686335	-0.444824219	-0.796142578	-0.487792969	891.66	15.94184679	-76.37826194	52.99312867	-72
12154	0	0.377690315	0.012686729	0.063416481	0.999995232	0.000675201	0.000921249	0.002545357	9.442257881	0.317168236	1.585412025	0.033760115	0.046062529	0.127268003	-0.451904297	-0.793701172	-0.484863281	891.64	14.80260719	-76.36027186	54.25289718	-69
12155	0	0.388000488	0.005859375	0.054870605	0.999996185	0.00118351	0.00050354	0.002220154	9.700012207	0.146484375	1.371765137	0.059175556	0.02517703	0.111007812	-0.456787109	-0.793457031	-0.481689453	891.76	13.91817809	-76.37576428	55.31380571	-69
12156	0	0.391940117	0.003679276	0.046770096	0.999994278	0.002500534	0.000203133	0.002129555	9.798502922	0.091981888	1.169252396	0.125026929	0.01015665	0.10647793	-0.463623047	-0.795410156	-0.481201172	891.72	13.25394242	-76.42091365	56.29921505	-72
12157	0	0.397094727	0.001953125	0.043273926	0.999993324	0.003379822	0.000473976	0.001041412	9.927368164	0.048828125	1.081848145	0.168991447	0.023698857	0.052070728	-0.470703125	-0.799560547	-0.471679688	891.7	13.15801593	-76.40803068	56.81739046	-73
12158	0	0.40672493	0.007537842	0.030787468	0.999987602	0.004859924	0.000629425	0.000499725	10.16812325	0.188446045	0.769686699	0.242997199	0.03147138	0.024986368	-0.475341797	-0.805908203	-0.462402344	891.68	13.46376594	-76.36655625	57.10698234	-71
12159	0	0.40222168	0.006652832	0.020629883	0.999976158	0.00642395	0.002232552	0.000907898	10.05554199	0.166320801	0.51574707	0.32120003	0.111628455	0.045395254	-0.479980469	-0.814453125	-0.449951172	891.66	13.58698523	-76.16088352	57.79007127	-73
12160	0	0.399140358	0.004379272	0.022901535	0.999966621	0.00723362	0.003404617	0.001504898	9.978508949	0.109481812	0.572538376	0.361684974	0.170232743	0.075245734	-0.484619141	-0.820800781	-0.437744141	891.64	13.41975812	-75.84363436	58.88949985	-72
12161	0	0.401672363	0.005859375	0.013916016	0.999951363	0.008277893	0.005253792	0.000854492	10.04180908	0.146484375	0.347900391	0.413901335	0.262693831	0.042725299	-0.493896484	-0.829101563	-0.419189453	891.7	13.49110553	-75.30640816	59.92715353	-69
12162	0	0.394405365	0.024492264	0.01783371	0.99991703	0.009815216	0.008296967	0.000497818	9.860134125	0.612306595	0.445842743	0.490774335	0.414859766	0.024891586	-0.49609375	-0.83984375	-0.403808594	891.54	13.62264707	-74.42420996	61.14573314	-75
12163	0	0.376281738	0.032470703	0.027526855	0.999941826	0.008827209	0.00615406	0.000320435	9.407043457	0.811767578	0.688171387	0.441368999	0.307708962	0.016022038	-0.500976563	-0.848388672	-0.3828125	891.76	13.95321394	-73.7794566	62.13563155	-69
12164	0	0.383793831	0.017140388	0.022488594	0.999961853	0.008054733	0.003298759	-0.000266075	9.594845772	0.428509712	0.562214851	0.402741754	0.164940058	-0.013303925	-0.5078125	-0.854736328	-0.370361328	891.64	14.69103756	-73.44023466	62.64779045	-74
12165	0	0.434509277	0.05267334	0.083190918	0.999950409	0.008049965	0.00535965	0.002239227	10.86273193	1.316833496	2.079772949	0.402504856	0.267986884	0.111963204	-0.512939453	-0.854248047	-0.347167969	891.68	14.31388507	-72.94512653	64.4121595	-75
12166	0	0.403365135	0.076025963	0.154234886	0.999958038	0.0042696	-0.004088402	0.006906509	10.08412838	1.900649071	3.855872154	0.213482936	-0.204422906	0.345330227	-0.527832031	-0.851318359	-0.318115234	891.78	12.63572314	-73.61736137	67.15913369	-76
12167	0	0.326477051	0.024169922	0.138549805	0.999944687	0.000702858	-0.008018494	0.006629944	8.16192627	0.604248047	3.463745117	0.035143536	-0.400931949	0.331503201	-0.552490234	-0.834960938	-0.295166016	891.68	10.77962341	-74.70031079	69.56747166	-80
12168	0	0.334652901	-0.016523361	0.119483948	0.999967575	0.005296707	-0.000966072	0.005981445	8.366322517	-0.41308403	2.987098694	0.264838216	-0.048304126	0.299075494	-0.577148438	-0.81640625	-0.272216797	891.7	8.986822771	-74.95382527	72.28302792	-75
12169	0	0.420532227	0.043945313	0.110595703	0.999965668	0.006070137	0.001487732	0.00535965	10.51330566	1.098632813	2.764892578	0.30351028	0.074387437	0.267985511	-0.590087891	-0.798095703	-0.255859375	891.64	7.359374289	-74.89800513	74.7705424	-84
12170	0	0.413554192	0.065820694	0.105818748	0.99998188	0.000837326	-0.005811691	-7.06E-05	10.33885479	1.645517349	2.645468712	0.041866543	-0.290586234	-0.003528615	-0.602783203	-0.784423828	-0.241943359	891.72	7.855163122	-75.58159349	74.38216242	-78
12171	0	0.364440918	0.055297852	0.085021973	0.999980927	-0.000426292	-0.003433228	-0.004989624	9.111022949	1.382446289	2.125549316	-0.021314752	-0.171662432	-0.249482734	-0.608398438	-0.768798828	-0.228515625	891.72	10.32089704	-75.90322552	71.8002971	-76
12172	0	0.371584892	0.048616409	0.085073471	0.999972343	-0.000811577	0.000986099	-0.007325172	9.289622307	1.215410233	2.126836777	-0.040579216	0.049305417	-0.366261996	-0.601806641	-0.7578125	-0.221191406	891.66	13.43576917	-75.64160541	68.50254024	-77
12173	0	0.364807129	0.053344727	0.072021484	0.999961853	-0.004656792	0.002464294	-0.00692749	9.120178223	1.333618164	1.800537109	-0.232842524	0.123216277	-0.346378885	-0.592773438	-0.749511719	-0.228271484	891.66	15.65260283	-75.18948825	65.66822706	-70
12174	0	0.338960648	0.051013947	0.055046082	0.999933243	-0.008851051	0.002640724	-0.006926537	8.47401619	1.275348663	1.376152039	-0.442562399	0.132039142	-0.346334522	-0.578857422	-0.739013672	-0.241210938	891.64	17.22767544	-74.69470162	62.99304746	-72
12175	0	0.355224609	0.021362305	0.045837402	0.999914169	-0.010516167	0.000804901	-0.007766724	8.880615234	0.534057617	1.145935059	-0.52582337	0.040246207	-0.388347286	-0.567138672	-0.728515625	-0.254150391	891.62	19.05434743	-74.35068422	59.85353212	-72
12176	0	0.353933334	0.025818825	0.044399261	0.999949455	-0.007803917	-0.001565933	-0.006123543	8.848333359	0.645470619	1.109981537	-0.390202405	-0.078297977	-0.306182286	-0.555908203	-0.711425781	-0.2734375	891.66	20.81479774	-74.30157164	57.09067268	-74
12177	0	0.362670898	0.037719727	0.030761719	0.99997139	-0.006094933	-0.002826691	-0.003242493	9.066772461	0.942993164	0.769042969	-0.304749455	-0.141335845	-0.162126138	-0.546875	-0.694335938	-0.289794922	891.7	21.87101739	-74.49078152	55.25616068	-73
12178	0	0.414917946	0.052344322	0.036546707	0.999974251	-0.006702423	0.00087738	-0.002326012	10.37294865	1.308608055	0.913667679	-0.335124009	0.043869392	-0.116301573	-0.542724609	-0.674560547	-0.297363281	891.64	21.95540158	-74.32242811	54.36747167	-73
12179	0	0.454345703	0.058654785	0.040893555	0.999985695	-0.004886627	0.000542641	-0.001926422	11.35864258	1.466369629	1.022338867	-0.244332495	0.02713216	-0.096321554	-0.536376953	-0.652832031	-0.313720703	891.7	22.14661808	-74.20838125	53.57332971	-74
12180	0	0.438959122	0.043218613	0.023046494	0.999983788	-0.00401783	-0.003322601	-0.001941681	10.97397804	1.080465317	0.576162338	-0.200892531	-0.166130923	-0.097084546	-0.532226563	-0.631103516	-0.330322266	891.7	23.05773884	-74.50361203	52.1218142	-72
12181	0	0.500976563	0.056762695	0.136474609	0.999951363	-0.00894165	0.002274513	-0.003261566	12.52441406	1.419067383	3.411865234	-0.447089656	0.113727477	-0.163080911	-0.528076172	-0.609375	-0.349365234	891.7	23.01035915	-74.14464377	51.08685785	-70
12182	0	0.438838005	0.022143364	0.145029068	0.999893188	-0.004656792	-0.011178017	-0.008126259	10.97095013	0.553584099	3.6257267	-0.232847838	-0.558920645	-0.406327346	-0.519287109	-0.585693359	-0.372070313	891.72	27.61536714	-74.92886131	45.70738447	-72
12183	0	0.309448242	0.035644531	0.136352539	0.999912262	-0.005095482	-0.009105682	-0.008117676	7.736206055	0.891113281	3.408813477	-0.254781516	-0.455297382	-0.405895613	-0.517333984	-0.574951172	-0.381591797	891.66	32.15579769	-75.38786361	40.37504712	-71
12184	0	0.342336655	0.071569443	0.118932724	0.999887466	-0.008317947	0.004336357	-0.011684418	8.558416367	1.789236069	2.9733181	-0.415912934	0.21682597	-0.58424275	-0.510253906	-0.56640625	-0.402832031	891.62	34.43774767	-74.24893267	37.00694127	-70
12185	0	0.413208008	0.07434082	0.134460449	0.999940872	-0.006911278	0.003952026	-0.007400513	10.3302002	1.858520508	3.36151123	-0.345570694	0.19760521	-0.370032922	-0.488769531	-0.55859375	-0.438964844	891.64	35.25901676	-73.40078729	35.30180919	-69
12186	0	0.361625671	0.02666378	0.102995872	0.999958992	-0.006195068	-0.005270004	0.003879547	9.040641785	0.666594505	2.574896812	-0.30975761	-0.26350378	0.193979981	-0.484130859	-0.545654297	-0.460449219	891.72	34.58147116	-74.15815092	35.24535894	-67
12187	0	0.335693359	-0.025817871	0.081787109	0.999950409	-0.003035545	-0.005470276	0.0076828	8.392333984	-0.645446777	2.044677734	-0.151779751	-0.273518269	0.3841463	-0.49609375	-0.530029297	-0.484130859	891.72	32.92071855	-75.17821873	36.58325534	-66
12188	0	0.328181267	-0.009494781	0.068697929	0.999970436	0.001643181	-0.003665924	0.006480217	8.20453167	-0.237369537	1.717448235	0.082159838	-0.18329798	0.324013988	-0.506103516	-0.512207031	-0.496337891	891.66	31.62103293	-75.94136223	38.10031327	-67
12189	0	0.346069336	0.035644531	0.040527344	0.999972343	0.003635406	-0.000819206	0.006343842	8.651733398	0.891113281	1.013183594	0.181771965	-0.040960681	0.317194939	-0.515625	-0.503173828	-0.510986328	891.64	29.77328983	-76.40637731	40.41433079	-68
12190	0	0.336550713	0.018467903	0.029145241	0.999961853	0.005923271	-0.000414848	0.006328583	8.413767815	0.461697578	0.72863102	0.296167276	-0.020742677	0.31643311	-0.518066406	-0.498779297	-0.519775391	891.66	27.95940919	-76.8137685	42.96053411	-67
12191	0	0.326171875	-0.002807617	0.019165039	0.999931335	0.010643959	-0.000164032	0.004829407	8.154296875	-0.07019043	0.479125977	0.532210073	-0.008201786	0.241475836	-0.52734375	-0.496337891	-0.533935547	891.66	27.17193397	-77.1050577	44.99757385	-68
12192	0	0.373078346	0.013726234	0.019631386	0.999883652	0.014335632	0.003487587	0.003634453	9.326958656	0.343155861	0.490784645	0.716809201	0.17438606	0.181729634	-0.529052734	-0.505126953	-0.547363281	891.72	26.48635886	-76.9576293	47.35961583	-69
12193	0	0.429260254	0.027526855	0.043884277	0.999889374	0.013165474	0.003299713	0.005966187	10.73150635	0.688171387	1.097106934	0.658297815	0.164991702	0.298320256	-0.528320313	-0.518554688	-0.554931641	891.7	24.69257164	-76.93529032	50.72542055	-72
12194	0	0.448442459	0.032055855	0.014621735	0.999940872	0.007616997	-0.001273155	0.007554054	11.21106148	0.80139637	0.365543365	0.380857246	-0.063658999	0.37771006	-0.534667969	-0.531494141	-0.567871094	891.62	22.39167906	-77.44203738	53.95229491	-75
12195	0	0.459594727	0.011779785	0.0078125	0.999946594	0.008255959	-0.00302887	0.005290985	11.48986816	0.294494629	0.1953125	0.412805175	-0.15144614	0.2645539	-0.545898438	-0.542236328	-0.577880859	891.76	21.40339642	-78.02136964	55.89846458	-72
12196	0	0.570487976	0.077753067	0.17010498	0.999849319	0.013961792	0.007271767	0.00723362	14.2621994	1.943826675	4.252624512	0.698124525	0.363606523	0.361699079	-0.553955078	-0.568603516	-0.586669922	891.78	18.14689239	-77.54437071	60.8422253	-72
12197	0	0.374023438	0.126342773	0.174316406	0.999803543	0.003323555	-0.011405945	0.01581955	9.350585938	3.158569336	4.357910156	0.166188592	-0.57033445	0.791029085	-0.569580078	-0.58984375	-0.581298828	891.72	11.66906484	-79.29799052	67.82610562	-71
12198	0	0.339758873	0.041000366	0.140007019	0.999915123	-0.006116867	0.003831863	0.010760307	8.493971825	1.025009155	3.500175476	-0.305851912	0.191598531	0.538030421	-0.604980469	-0.591064453	-0.58203125	891.82	4.307308296	-79.05117941	74.61558815	-74
12199	0	0.453308105	-0.002502441	0.10736084	0.999982834	0.002835274	0.00377655	0.003211975	11.33270264	-0.062561035	2.684020996	0.141764458	0.188828541	0.160599628	-0.614013672	-0.594970703	-0.584228516	891.72	2.671243495	-78.65762568	76.61901971	-79
12200	0	0.366094589	0.028943062	0.106601715	0.999984741	0.002807617	-0.003390312	-0.003237724	9.152364731	0.723576546	2.665042877	0.140381558	-0.169516453	-0.161887021	-0.622802734	-0.614501953	-0.58203125	891.66	5.047223589	-79.03388821	74.52707486	-84
12201	0	0.296875	0.109313965	0.068054199	0.999949455	-0.003398895	-0.004488945	-0.008304596	7.421875	2.732849121	1.70135498	-0.169947615	-0.224451016	-0.415236765	-0.631591797	-0.636230469	-0.565429688	891.66	10.05433781	-79.43030414	69.04483716	-84
12202	0	0.299533844	0.062714577	0.05325985	0.999913216	-0.008073807	2.10E-05	-0.01039505	7.4883461	1.567864418	1.331496239	-0.403701995	0.001049072	-0.519767511	-0.633300781	-0.653808594	-0.561035156	891.6	15.3794054	-79.17388393	62.69782032	-81
12203	0	0.331726074	0.030395508	0.046142578	0.999920845	-0.009471893	0.005097389	-0.006526947	8.293151855	0.759887695	1.153564453	-0.473607162	0.254876186	-0.326355962	-0.630371094	-0.664794922	-0.563232422	891.82	17.1926413	-78.41043117	59.75835986	-77
12204	0	0.330793381	0.032044411	0.036784172	0.999919891	-0.012018204	0.003565788	-0.001718521	8.269834518	0.801110268	0.919604301	-0.600926223	0.178294171	-0.085928349	-0.627685547	-0.665039063	-0.577636719	891.66	16.25751673	-77.96994117	59.31849573	-72
12205	0	0.330993652	0.040344238	0.015930176	0.999874115	-0.015486717	-0.000804901	-0.00315094	8.274841309	1.008605957	0.398254395	-0.774368182	-0.040246736	-0.157553573	-0.635009766	-0.653808594	-0.595458984	891.62	16.34036907	-77.9661442	57.42710154	-71
12206	0	0.36022377	0.034417152	0.014616966	0.999871254	-0.015439987	-0.001806259	-0.003900528	9.005594254	0.86042881	0.365424156	-0.772032414	-0.090316825	-0.195034748	-0.642089844	-0.647216797	-0.604248047	891.7	16.98523666	-78.0468393	54.9699815	-72
12207	0	0.441772461	0.023193359	0.06640625	0.999889374	-0.014346123	0.003040314	-0.002422333	11.04431152	0.579833984	1.66015625	-0.717332551	0.152021284	-0.121121098	-0.651611328	-0.633789063	-0.627685547	891.72	16.23309622	-77.64428917	54.06421597	-72
12208	0	0.468549728	-0.004321098	0.018324852	0.99998951	0.00092411	-0.001960754	-0.00396347	11.71374321	-0.108027458	0.4581213	0.046205678	-0.098038053	-0.198174197	-0.658691406	-0.626953125	-0.645019531	891.72	18.75058444	-77.73591379	51.58560312	-69
12209	0	0.504577637	0.026306152	0.108581543	0.999986649	-0.002467155	0.000823975	-0.004295349	12.61444092	0.657653809	2.714538574	-0.123358291	0.041198904	-0.214768359	-0.667724609	-0.642089844	-0.62890625	891.72	20.54710504	-77.49369747	49.4698643	-66
12210	0	0.519680977	0.045035362	0.165315628	0.999926567	-0.000265121	-0.00699234	-0.009810448	12.99202442	1.125884056	4.132890701	-0.013256394	-0.349625466	-0.490534257	-0.669921875	-0.644287109	-0.637207031	891.66	26.79746405	-77.78361778	43.03485085	-65
12211	0	0.342590332	-0.014038086	0.145446777	0.999816895	0.00042057	-0.008907318	-0.016899109	8.564758301	-0.350952148	3.636169434	0.021029798	-0.445393011	-0.845006868	-0.673828125	-0.670410156	-0.614746094	891.76	36.97211958	-77.62782584	32.67788125	-66
12212	0	0.374548912	0.057196617	0.132876396	0.999773979	0.000891685	0.014083862	-0.015871048	9.363722801	1.429915428	3.321909904	0.044587627	0.704246063	-0.793612065	-0.65625	-0.699462891	-0.616210938	891.72	38.97450286	-75.23179257	30.73565582	-66
12213	0	0.418945313	0.127624512	0.122619629	0.999977112	-0.000704765	0.002807617	-0.00598526	10.47363281	3.190612793	3.065490723	-0.035238526	0.140381894	-0.299265205	-0.626708984	-0.720458984	-0.627685547	891.62	40.16184168	-74.53850177	29.42702811	-66
12214	0	0.320269585	0.038866043	0.092551231	0.999969482	-0.0016222	-0.004981041	0.005732536	8.006739616	0.971651077	2.313780785	-0.081110816	-0.249054551	0.286629697	-0.624267578	-0.724853516	-0.624511719	891.72	39.52163057	-75.38869383	29.90156886	-67
12215	0	0.309631348	-0.065429688	0.065673828	0.999928474	0.003837585	-0.004683495	0.010242462	7.740783691	-1.635742188	1.641845703	0.1918838	-0.234180254	0.512135192	-0.645751953	-0.719726563	-0.620849609	891.72	37.67698159	-76.53553003	32.25837599	-69
12216	0	0.316699028	-0.03668499	0.064490318	0.999886513	0.012436867	-0.002248764	0.008103371	7.9174757	-0.917124748	1.612257957	0.621866701	-0.112442426	0.405183756	-0.667236328	-0.721191406	-0.602294922	891.72	36.61810511	-77.29932374	34.81137746	-73
12217	0	0.325927734	0.054443359	0.036682129	0.999881744	0.014004707	0.001319885	0.00617981	8.148193359	1.361083984	0.917053223	0.70026292	0.065996859	0.309002637	-0.686035156	-0.727050781	-0.589355469	891.72	35.28637282	-77.5907875	37.82197617	-72
12218	0	0.325963974	0.064774513	-0.002233505	0.999887466	0.012763023	0.002690315	0.007292747	8.14909935	1.619362831	-0.055837631	0.638174923	0.134520769	0.364650948	-0.6953125	-0.741943359	-0.570556641	891.72	32.8304622	-77.8035877	41.83727033	-71
12219	0	0.318237305	0.02130127	-0.007141113	0.999921799	0.011170387	0.001087189	0.005455017	7.955932617	0.532531738	-0.178527832	0.55853386	0.054360847	0.272757934	-0.711425781	-0.754394531	-0.557128906	891.68	31.37932292	-78.03381796	44.63541038	-69
12220	0	0.35786438	0.024430275	0.038954735	0.999891281	0.012615204	0.006670952	0.003605843	8.946609497	0.610756874	0.97386837	0.63078297	0.333559637	0.18029864	-0.722900391	-0.767333984	-0.543945313	891.82	29.43198379	-77.5884939	48.11337954	-69
12221	0	0.463562012	0.067382813	0.081481934	0.999967575	0.002953529	0.006156921	0.004180908	11.58905029	1.684570313	2.03704834	0.147678046	0.307849359	0.209047644	-0.726806641	-0.7890625	-0.5390625	891.66	26.44810117	-77.19454166	51.52841941	-69
12222	0	0.437098503	0.069077492	0.00886631	0.999928474	-0.004598618	-0.010038376	0.004517555	10.92746258	1.726937294	0.221657753	-0.229936332	-0.501930699	0.22588312	-0.738037109	-0.795410156	-0.546386719	891.74	26.19850444	-78.4630623	51.2475263	-69
12223	0	0.603637695	-0.032897949	0.119689941	0.999891281	0.011349678	0.006752014	0.006450653	15.09094238	-0.82244873	2.992248535	0.567504335	0.337612864	0.322544267	-0.756835938	-0.803466797	-0.533203125	891.72	22.75541784	-78.0740662	56.09964779	-72
12224	0	0.486708641	0.101455688	0.193770409	0.999528885	0.013277054	-0.016306877	0.022320747	12.16771603	2.536392212	4.844260216	0.663956785	-0.815471704	1.116212365	-0.780517578	-0.813476563	-0.508300781	891.74	14.5784352	-80.67659804	65.96190351	-75
12225	0	0.300415039	0.074951172	0.155883789	0.999845505	-0.002970695	-0.000133514	0.017284393	7.510375977	1.873779297	3.897094727	-0.148542391	-0.006676062	0.864263976	-0.841064453	-0.795410156	-0.448974609	891.72	2.150551942	-80.98031943	78.22405907	-76
12226	0	0.450388908	0.007333755	0.101349831	0.999977112	0.000897408	0.006196022	0.002352715	11.25972271	0.183343887	2.533745766	0.044870711	0.309803411	0.117636604	-0.858398438	-0.775146484	-0.452636719	891.68	0.579050516	-80.27497421	79.92955834	-79
12227	0	0.369262695	0.031921387	0.099731445	0.999967575	0.00395298	-0.005554199	-0.004165649	9.231567383	0.798034668	2.493286133	0.197651105	-0.277712915	-0.208284686	-0.86328125	-0.777099609	-0.434814453	891.72	4.135818442	-80.88734215	76.78689215	-75
12228	0	0.29020977	0.110302925	0.056521416	0.999938965	-0.005121231	-0.007409096	-0.006370544	7.255244255	2.757573128	1.413035393	-0.256066748	-0.370462303	-0.318533683	-0.863525391	-0.785644531	-0.399658203	891.62	9.013170902	-81.64177656	71.2645745	-71
12229	0	0.301818848	0.062133789	0.031433105	0.99985981	-0.013118744	-0.001059532	-0.010326385	7.545471191	1.553344727	0.785827637	-0.655967794	-0.05297908	-0.516343361	-0.856933594	-0.783447266	-0.388916016	891.66	15.62079214	-81.49943966	63.07084619	-69
12230	0	0.348130226	0.025178909	0.035605431	0.999834061	-0.014092445	0.006802559	-0.009325027	8.703255653	0.629472733	0.890135765	-0.704661243	0.340146758	-0.466277163	-0.835449219	-0.782226563	-0.398681641	891.78	19.07686302	-80.42610135	57.94129314	-72
12231	0	0.340820313	0.029602051	0.038818359	0.999842644	-0.015544891	0.006653786	-0.005355835	8.520507813	0.74005127	0.970458984	-0.777285327	0.332706732	-0.267805791	-0.813964844	-0.776367188	-0.428955078	891.68	19.26333343	-79.49429207	55.94467243	-72
12232	0	0.324807167	0.047072411	0.018255234	0.999782562	-0.020000458	0.000218391	-0.00588131	8.120179176	1.176810265	0.456380844	-1.000095347	0.010920362	-0.294086783	-0.802490234	-0.759521484	-0.454101563	891.72	20.41290028	-79.23266882	52.4433111	-72
12233	0	0.35546875	0.02166748	0.011962891	0.999767303	-0.020785332	-0.003433228	-0.004447937	8.88671875	0.541687012	0.299072266	-1.039346904	-0.171674643	-0.222414038	-0.793701172	-0.739990234	-0.473388672	891.72	21.41384508	-79.41058006	49.00103292	-73
12234	0	0.453035355	0.00820446	0.039112091	0.99985218	-0.016845703	0.002096176	-0.002604485	11.32588387	0.205111504	0.977802277	-0.842326568	0.10481396	-0.13023063	-0.791748047	-0.720458984	-0.498046875	891.76	20.60517297	-79.07328263	47.85934594	-79
12235	0	0.462097168	-0.003356934	0.003234863	0.99998951	-0.00176239	-0.002264977	-0.003353119	11.5524292	-0.08392334	0.080871582	-0.088119793	-0.113249193	-0.167656489	-0.784912109	-0.703125	-0.514160156	891.72	22.86614297	-79.16989302	45.34570275	-87
12236	0	0.4997015	0.00607872	0.142101288	0.999979973	-0.004555702	0.002195358	-0.003698349	12.4925375	0.151968002	3.552532196	-0.227786601	0.109768632	-0.18491866	-0.790039063	-0.702880859	-0.499511719	891.74	23.91474371	-78.76577545	43.74959681	-77
12237	0	0.495422363	0.032043457	0.156433105	0.999861717	0.000564575	-0.009638786	-0.013496399	12.38555908	0.801086426	3.910827637	0.028230056	-0.481961438	-0.674850922	-0.780761719	-0.698974609	-0.503417969	891.66	33.66098504	-78.98028482	33.87851159	-72
12238	0	0.328598022	-0.000235558	0.125591278	0.999833107	0.002958298	-0.001689911	-0.017900467	8.214950562	-0.005888939	3.139781952	0.147923073	-0.084500221	-0.895072883	-0.773681641	-0.714355469	-0.468017578	891.78	42.50930061	-77.85079677	25.19606342	-69
12239	0	0.42590332	0.090270996	0.113342285	0.999812126	0.00170517	0.014206886	-0.013053894	10.64758301	2.256774902	2.833557129	0.085263816	0.710388736	-0.652735518	-0.741943359	-0.737548828	-0.476318359	891.68	42.72685755	-75.62314965	25.17545255	-70
12240	0	0.383367538	0.123130798	0.113667488	0.999999046	-0.000245094	-0.000799179	-0.000609398	9.584188461	3.078269958	2.841687202	-0.012254717	-0.039958961	-0.0304699	-0.72265625	-0.742431641	-0.482910156	891.82	43.17017566	-75.6225164	24.68696808	-69
12241	0	0.315124512	-0.011352539	0.07623291	0.99995327	-0.001579285	-0.004633904	0.008220673	7.878112793	-0.283813477	1.905822754	-0.078965438	-0.23169871	0.411039902	-0.728027344	-0.729248047	-0.480712891	891.72	41.63903778	-76.63178183	26.07627859	-69
12242	0	0.307409286	-0.081887245	0.070505142	0.999925613	0.007473946	-0.003447533	0.008921623	7.685232162	-2.047181129	1.762628555	0.373706458	-0.172380866	0.446092117	-0.745605469	-0.704345703	-0.470458984	891.76	40.24618621	-77.58614702	28.38307558	-72
12243	0	0.32244873	-0.009521484	0.058166504	0.999867439	0.014690399	-0.000964165	0.006954193	8.061218262	-0.238037109	1.454162598	0.734552416	-0.048210367	0.34772502	-0.760498047	-0.692626953	-0.456054688	891.66	39.39342268	-78.16882485	30.97706476	-73
12244	0	0.33371067	0.064125061	0.012363434	0.999860764	0.013710022	0.003346443	0.008876801	8.342766762	1.603126526	0.309085846	0.68553286	0.167329911	0.443860591	-0.773193359	-0.683349609	-0.438964844	891.72	35.93046342	-78.47523486	36.11871052	-77
12245	0	0.325500488	0.042419434	-0.003479004	0.999857903	0.012905121	0.005288124	0.009376526	8.137512207	1.06048584	-0.086975098	0.645286419	0.264418652	0.468848365	-0.780761719	-0.671875	-0.436767578	891.72	31.3616934	-78.55658687	42.29076382	-75
12246	0	0.331768036	0.017309189	0.021663666	0.999850273	0.014984131	0.007146835	0.00472641	8.294200897	0.432729721	0.541591644	0.749243751	0.357359513	0.236332232	-0.788085938	-0.662841797	-0.437011719	891.66	28.83308593	-78.11172994	46.62653223	-71
12247	0	0.40447998	0.070251465	0.053039551	0.999909401	0.011726379	0.00584507	0.002944946	10.11199951	1.756286621	1.32598877	0.586336594	0.292262279	0.147251741	-0.787841797	-0.667480469	-0.439453125	891.76	27.34215568	-77.67217656	49.52601122	-69
12248	0	0.434260368	0.071733475	0.028211594	0.99998188	0.000887871	-0.004009247	0.004187584	10.85650921	1.793336868	0.705289841	0.044393794	-0.200463491	0.209380397	-0.789550781	-0.676269531	-0.450195313	891.72	26.44655009	-78.2934907	50.54511561	-73
12249	0	0.471130371	0.016845703	0.039794922	0.999987602	0.003105164	0.000321388	0.003871918	11.77825928	0.421142578	0.994873047	0.155258819	0.016069478	0.193596684	-0.803710938	-0.673583984	-0.455322266	891.66	24.81826141	-78.44953989	52.57134868	-78
12250	0	0.614267349	0.047832489	0.202660561	0.999743462	0.017311096	0.003282547	0.014175415	15.35668373	1.195812225	5.066514015	0.865628599	0.164141342	0.708831176	-0.800537109	-0.687011719	-0.46875	891.7	18.6688062	-78.69596261	60.86613877	-79
12251	0	0.352050781	0.162719727	0.19519043	0.999679565	0.002617836	-0.008144379	0.023799896	8.801269531	4.067993164	4.879760742	0.130905757	-0.407262356	1.190121706	-0.836914063	-0.678955078	-0.438720703	891.72	5.765043233	-80.18178693	74.29484517	-72
12252	0	0.427121162	0.012802124	0.132658005	0.999908447	-0.007074356	0.007071495	0.009016037	10.67802906	0.320053101	3.316450119	-0.353728495	0.35358544	0.450815475	-0.863769531	-0.653808594	-0.447998047	891.66	-0.890732623	-79.40066919	80.2358715	-68
12253	0	0.438781738	-0.025817871	0.086364746	0.999976158	0.006084442	-0.002543449	-0.001667023	10.96954346	-0.645446777	2.159118652	0.304224453	-0.127173451	-0.083351778	-0.870361328	-0.658203125	-0.461669922	891.68	0.916362132	-79.67825161	79.10479612	-67
12254	0	0.311849594	0.070747375	0.084600449	0.999949455	0.003257751	-0.008060455	-0.005033493	7.796239853	1.768684387	2.115011215	0.162890313	-0.403029545	-0.251678885	-0.869628906	-0.682128906	-0.442382813	891.72	4.9643957	-80.55563894	75.37350431	-67
12255	0	0.262145996	0.071105957	0.051940918	0.999907494	-0.006233215	-0.004641533	-0.01109314	6.553649902	1.777648926	1.298522949	-0.311670297	-0.232083741	-0.554673943	-0.871337891	-0.701904297	-0.426269531	891.68	12.54728563	-80.87034446	66.96696438	-66
12256	0	0.288783073	0.033581734	0.042071342	0.999857903	-0.008574486	0.006895065	-0.012711525	7.219576836	0.839543343	1.051783562	-0.428744488	0.344769508	-0.635606193	-0.855957031	-0.726806641	-0.439453125	891.74	18.62155511	-79.69527457	59.80845455	-64
12257	0	0.330688477	0.033813477	0.05267334	0.999943733	-0.004371643	0.008713722	-0.004051208	8.267211914	0.845336914	1.316833496	-0.218586214	0.435694205	-0.202564188	-0.833496094	-0.749755859	-0.464599609	891.66	18.82545168	-78.57944324	59.08960478	-65
12258	0	0.325619698	0.042142868	0.036618233	0.99990654	-0.01346302	-0.00051403	-0.001871109	8.140492439	1.053571701	0.915455818	-0.673171775	-0.025702315	-0.093558336	-0.822998047	-0.756835938	-0.49609375	891.7	18.46540312	-78.54662618	57.87968379	-66
12259	0	0.341674805	0.019042969	0.004943848	0.999854088	-0.01587677	-0.005164146	-0.003570557	8.541870117	0.476074219	0.123596191	-0.793877072	-0.258219867	-0.178536506	-0.8203125	-0.754882813	-0.528076172	891.82	19.65052335	-78.95524821	54.81138843	-67
12260	0	0.432253838	0.01925087	0.040613174	0.999922752	-0.012051582	-5.91E-05	-0.002709389	10.80634594	0.481271744	1.015329361	-0.602594442	-0.002956466	-0.135472882	-0.819580078	-0.759521484	-0.55078125	891.68	19.85764097	-78.84114917	53.18989482	-65
12261	0	0.479309082	0.007202148	0.020874023	0.99998951	-0.001838684	-0.002211571	-0.003536224	11.98272705	0.180053711	0.521850586	-0.091934522	-0.11057892	-0.176811831	-0.813964844	-0.770996094	-0.584472656	891.78	22.11822006	-78.92046064	50.66522666	-65
12262	0	0.508475304	-0.00012207	0.14618206	0.999980927	-0.003239632	-0.000571251	-0.005113602	12.71188259	-0.003051758	3.654551506	-0.161982581	-0.028562722	-0.25568166	-0.8125	-0.799804688	-0.590820313	891.68	24.666309	-78.73322525	47.68768006	-64
12263	0	0.523986816	0.038574219	0.156494141	0.999807358	0.001126289	-0.010448456	-0.016559601	13.09967041	0.964355469	3.912353516	0.056318079	-0.522456289	-0.828033132	-0.798828125	-0.833496094	-0.614501953	891.78	36.14529986	-78.78718924	36.10997527	-64
12264	0	0.328687668	0.033499718	0.132002831	0.99974823	0.000846863	-0.004622459	-0.021931648	8.217191696	0.837492943	3.300070763	0.042346691	-0.231142354	-1.096674379	-0.782470703	-0.895507813	-0.598876953	891.66	46.90015742	-77.4893729	25.21964114	-64
12265	0	0.434143066	0.116699219	0.117858887	0.999780655	-0.002978325	0.014736176	-0.014530182	10.85357666	2.917480469	2.946472168	-0.148927096	0.73686247	-0.726562037	-0.736816406	-0.958984375	-0.627685547	891.66	46.22395485	-75.09329519	25.56374124	-67
12266	0	0.396269798	0.119265556	0.110414505	0.999988556	-0.00383091	-0.002356529	-0.001331329	9.906744957	2.981638908	2.760362625	-0.191546189	-0.117826894	-0.066566711	-0.701171875	-1.004394531	-0.666015625	891.72	46.91668645	-75.13976472	24.38640283	-69
12267	0	0.3046875	-0.004516602	0.078125	0.999937057	-0.00662899	-0.005695343	0.007019043	7.6171875	-0.112915039	1.953125	-0.33145645	-0.284773115	0.350959498	-0.70703125	-1.032958984	-0.672119141	891.66	45.82048317	-76.14590412	24.7323711	-74
12268	0	0.284391403	-0.059090614	0.070349693	0.999949455	-0.00048542	-0.004888535	0.008713722	7.10978508	-1.477265358	1.758742332	-0.024271416	-0.244430804	0.435693378	-0.731689453	-1.052001953	-0.686279297	891.66	44.43210728	-77.22596881	26.09998357	-72
12269	0	0.31842041	-0.000854492	0.045654297	0.999961853	0.005391121	-0.000923157	0.006710052	7.960510254	-0.021362305	1.141357422	0.269559412	-0.046158413	0.335506815	-0.758789063	-1.086181641	-0.673339844	891.74	42.82560576	-77.81237777	28.37992572	-76
12270	0	0.344587326	0.04528141	0.008495331	0.999926567	0.008413315	0.005571365	0.006649971	8.614683151	1.132035255	0.21238327	0.420675981	0.278575049	0.332506644	-0.775634766	-1.134033203	-0.668457031	891.72	39.15892268	-77.8111982	33.1210946	-83
12271	0	0.319091797	0.010192871	0.004089355	0.999879837	0.012795448	0.003116608	0.008125305	7.977294922	0.254821777	0.102233887	0.639797951	0.155836603	0.406281474	-0.785644531	-1.186279297	-0.649414063	891.84	36.12997688	-78.08087743	37.72261431	-72
12272	0	0.31744194	0.006353378	0.004741669	0.999817848	0.017977715	0.002008438	0.005979538	7.936048508	0.158834457	0.118541718	0.898940116	0.100427982	0.298994989	-0.807128906	-1.249267578	-0.608398438	891.82	34.87002202	-78.27784638	41.1220156	-69
12273	0	0.427856445	0.053161621	0.042358398	0.999815941	0.017154694	0.006783485	0.0051651	10.69641113	1.329040527	1.058959961	0.85778715	0.339195019	0.258270803	-0.82421875	-1.320800781	-0.535644531	891.72	32.44038783	-77.94587415	45.62767995	-71
12274	0	0.446615219	0.090536118	0.020824432	0.999941826	0.001996994	-0.006700516	0.00818634	11.16538048	2.263402939	0.520610809	0.09985163	-0.335032259	0.409324924	-0.841552734	-1.383544922	-0.475097656	891.72	30.7276378	-79.08018391	47.62661926	-70
12275	0	0.471679688	0.004577637	0.052185059	0.99996376	0.005433083	0.003868103	0.005115509	11.79199219	0.114440918	1.304626465	0.271657328	0.193407429	0.255778463	-0.883544922	-1.414794922	-0.418457031	891.74	27.60490555	-78.96973335	51.46059257	-72
12276	0	0.614955902	0.077245712	0.174550056	0.999712944	0.019309044	-0.000341415	0.014158249	15.37389755	1.931142807	4.363751411	0.965544485	-0.017072402	0.707980117	-0.902099609	-1.453125	-0.342529297	891.74	22.10087524	-79.67607404	59.32880997	-71
12277	0	0.338256836	0.181396484	0.192443848	0.999697685	0.001121521	-0.008597374	0.022979736	8.456420898	4.534912109	4.811096191	0.056081689	-0.429911929	1.149102367	-0.982421875	-1.442871094	-0.227050781	891.78	8.650384008	-81.31498986	73.11850327	-73
12278	0	0.408289909	0.015511513	0.141328812	0.99988842	-0.008644104	0.008209229	0.008973122	10.20724773	0.387787819	3.533220291	-0.432221239	0.410476657	0.448672731	-1.057861328	-1.400390625	-0.186279297	891.72	0.874178237	-80.4385583	80.01980993	-70
12279	0	0.433288574	-0.05291748	0.078430176	0.999979019	0.005135536	-0.002876282	-0.002342224	10.83221436	-1.322937012	1.960754395	0.256778527	-0.143815049	-0.117111989	-1.082763672	-1.377441406	-0.163818359	891.62	3.223871175	-80.73644111	78.24826	-69
12280	0	0.332448959	0.069714546	0.074165344	0.999970436	0.004538536	-0.003623962	-0.004889488	8.311223984	1.742863655	1.854133606	0.226928984	-0.181199861	-0.24447676	-1.089111328	-1.365722656	-0.098388672	891.78	7.561268399	-81.07385675	74.39824135	-69
12281	0	0.274108887	0.089233398	0.044067383	0.999938965	-0.004137993	0.000682831	-0.010158539	6.852722168	2.230834961	1.10168457	-0.206903808	0.034142228	-0.507937166	-1.083251953	-1.359130859	-0.053466797	891.76	14.24578593	-80.75087612	67.16728157	-73
12282	0	0.304986954	0.033243179	0.044368744	0.999863625	-0.008834839	0.008493423	-0.011035919	7.624673843	0.831079483	1.109218597	-0.44176197	0.424690426	-0.551820976	-1.055419922	-1.351074219	-0.052734375	891.6	18.68078997	-79.43103568	61.65297261	-73
12283	0	0.334472656	0.033874512	0.048706055	0.999928474	-0.009746552	0.005860329	-0.00365448	8.361816406	0.846862793	1.217651367	-0.487339166	0.293023403	-0.182728345	-1.029541016	-1.336669922	-0.075439453	891.66	18.57550921	-78.63442771	60.63055427	-74
12284	0	0.320038795	0.044099808	0.029925346	0.999872208	-0.015705109	-0.001538277	-0.002240181	8.000969887	1.102495193	0.748133659	-0.785288683	-0.07691709	-0.112013791	-1.016357422	-1.308837891	-0.092773438	891.78	18.34370546	-78.69530632	59.03793115	-79
12285	0	0.328369141	0.032104492	-0.005310059	0.99981308	-0.017104149	-0.00818634	-0.003734589	8.209228516	0.802612305	-0.132751465	-0.855260691	-0.409342502	-0.186741057	-1.000732422	-1.280761719	-0.110351563	891.78	20.15508455	-79.41820983	55.20028815	-76
12286	0	0.424922943	0.049999237	0.034455299	0.999866486	-0.015917778	-0.001988411	-0.003022194	10.62307358	1.249980927	0.861382484	-0.795924251	-0.099424963	-0.151116407	-0.982666016	-1.255126953	-0.127685547	891.72	20.59039892	-79.49043471	52.90619965	-72
12287	0	0.478088379	0.018676758	0.004943848	0.999961853	-0.006468773	-0.003704071	-0.004428864	11.95220947	0.466918945	0.123596191	-0.323442697	-0.185205873	-0.221445951	-0.962158203	-1.229492188	-0.148193359	891.82	23.36395951	-79.67693999	49.33122081	-71
12288	0	0.501789093	-0.012904167	0.140267372	0.999966621	-0.005635262	0.000278473	-0.005806923	12.54472733	-0.322604179	3.506684303	-0.281766155	0.013923797	-0.290349318	-0.939697266	-1.206054688	-0.145751953	891.72	25.97705866	-79.35056181	46.01892785	-68
12289	0	0.522888184	0.009765625	0.151000977	0.999857903	0.001434326	-0.008810997	-0.014286041	13.07220459	0.244140625	3.775024414	0.071719701	-0.44057069	-0.714335852	-0.912109375	-1.185058594	-0.154541016	891.74	36.41382728	-79.34395476	35.56202884	-69
12290	0	0.330852509	0.002925873	0.138238907	0.999759674	0.002396584	-0.005999565	-0.020938873	8.271312714	0.07314682	3.455972672	0.11983877	-0.300002268	-1.047027469	-0.867919922	-1.188476563	-0.119384766	891.62	47.98145897	-78.21098248	24.05071324	-71
12291	0	0.423400879	0.108520508	0.110961914	0.99979496	-0.000656128	0.013699532	-0.014839172	10.58502197	2.713012695	2.774047852	-0.032808629	0.6850232	-0.742009119	-0.811035156	-1.192626953	-0.125	891.72	47.77757392	-75.86907882	24.18330213	-75
12292	0	0.41382885	0.116731644	0.108308792	0.99998951	-0.00375843	-0.001115799	-0.002365112	10.34572124	2.918291092	2.707719803	-0.187922181	-0.055790142	-0.118256028	-0.780517578	-1.185058594	-0.147460938	891.74	48.41520301	-75.72281046	23.07481545	-69
12293	0	0.323242188	0.005126953	0.066223145	0.99995327	-0.003959656	-0.005393028	0.006950378	8.081054688	0.128173828	1.655578613	-0.197985859	-0.269655596	0.347524312	-0.774414063	-1.158935547	-0.152832031	891.72	47.62956994	-76.70055088	23.41025806	-68
12294	0	0.291106224	-0.067915916	0.062927246	0.99993515	0.003640175	-0.00303936	0.010352135	7.277655602	-1.697897911	1.573181152	0.182012677	-0.151971286	0.517617921	-0.792236328	-1.12109375	-0.172119141	891.72	45.50828168	-77.77801908	26.0021963	-71
12295	0	0.32421875	-0.024047852	0.052612305	0.999914169	0.010457039	0.000850677	0.007831573	8.10546875	-0.601196289	1.315307617	0.522866882	0.04253509	0.391589862	-0.810058594	-1.091552734	-0.156494141	891.78	43.29034692	-78.31494728	29.48781821	-67
12296	0	0.339686394	0.043789864	0.016027451	0.999899864	0.011536598	0.004476547	0.006761551	8.492159843	1.09474659	0.400686264	0.576849029	0.223834781	0.338088751	-0.818359375	-1.069335938	-0.143554688	891.68	40.08844136	-78.42651686	34.10262127	-69
12297	0	0.325073242	0.01953125	-0.005310059	0.999863625	0.014129639	0.004124641	0.007461548	8.126831055	0.48828125	-0.132751465	0.706514004	0.206241433	0.373094328	-0.826416016	-1.049072266	-0.133300781	891.68	36.93050799	-78.57071819	38.97392696	-70
12298	0	0.311486244	0.000518799	-0.003800392	0.999824524	0.017497063	0.00477314	0.00462532	7.787156105	0.012969971	-0.095009804	0.874904223	0.238670934	0.231279527	-0.832275391	-1.033203125	-0.114013672	891.68	35.21247455	-78.4249887	42.77074408	-70
12299	0	0.409118652	0.055114746	0.043518066	0.999798775	0.017478943	0.009064674	0.003746033	10.22796631	1.377868652	1.08795166	0.874005667	0.453264069	0.187314178	-0.830810547	-1.022216797	-0.094970703	891.66	32.74401323	-77.78774639	47.33919953	-69
12300	0	0.445513725	0.083694458	0.056642532	0.999969482	0.000415802	-0.003443718	0.006942749	11.13784313	2.09236145	1.416063309	0.020790309	-0.172187626	0.347140936	-0.831298828	-1.011230469	-0.087402344	891.72	30.53935984	-78.52589981	49.64036859	-66
12301	0	0.440551758	0.028930664	0.024902344	0.999988556	-0.001818657	-0.002361298	0.003665924	11.01379395	0.723266602	0.622558594	-0.090933184	-0.11806532	0.183296886	-0.846191406	-0.992919922	-0.085205078	891.66	29.17399866	-78.95716943	50.82126119	-67
12302	0	0.612771988	0.025940895	0.156757355	0.999856949	0.013890266	0.003834724	0.008839607	15.3192997	0.648522377	3.918933868	0.694546405	0.191745355	0.442001416	-0.846435547	-0.982177734	-0.097412109	891.72	25.08838275	-79.01378152	56.60154129	-67
12303	0	0.389038086	0.131652832	0.173400879	0.99969101	0.002114296	-0.013706207	0.020614624	9.725952148	3.291320801	4.335021973	0.105725677	-0.68538089	1.030837275	-0.883300781	-0.956298828	-0.071777344	891.72	15.72768149	-81.29653799	66.34341726	-66
12304	0	0.387508392	0.053545952	0.13843441	0.99987793	-0.006677628	0.009675026	0.010257721	9.687709808	1.338648796	3.460860252	-0.333894925	0.483770925	0.512906857	-0.927734375	-0.915527344	-0.072753906	891.74	6.506396295	-80.40784758	74.91275084	-69
12305	0	0.44934082	0.004150391	0.110595703	0.999999046	1.53E-05	-0.000292778	0.00056839	11.23352051	0.103759766	2.764892578	0.00076294	-0.014638902	0.028419497	-0.94921875	-0.897460938	-0.104736328	891.72	6.196762787	-80.42268362	75.22516583	-74
12306	0	0.339719772	0.056684494	0.095745087	0.999969482	-0.002488136	-0.006056786	-0.004211426	8.492994308	1.41711235	2.393627167	-0.124408071	-0.302842339	-0.210573416	-0.956542969	-0.892578125	-0.101806641	891.72	9.479250262	-81.01692549	71.60850273	-70
12307	0	0.298217773	0.08203125	0.055725098	0.999909401	-0.00901413	-0.003523827	-0.009296417	7.455444336	2.05078125	1.393127441	-0.450720011	-0.176196619	-0.464834815	-0.961181641	-0.892578125	-0.1015625	891.74	15.71071131	-81.14960852	64.25728319	-71
12308	0	0.310382843	0.047763824	0.04354763	0.999832153	-0.014028549	0.004218102	-0.010996819	7.759571075	1.194095612	1.088690758	-0.70146669	0.210916871	-0.549871679	-0.948486328	-0.90625	-0.124023438	891.62	20.56520032	-80.26628591	57.71264533	-72
12309	0	0.337036133	0.050354004	0.035888672	0.99981308	-0.017188072	0.006290436	-0.006099701	8.42590332	1.258850098	0.897216797	-0.859456932	0.314541304	-0.305003969	-0.935546875	-0.913818359	-0.172851563	891.72	20.86265984	-79.31476249	55.40900279	-69
12310	0	0.337048531	0.048988342	0.023938179	0.999709129	-0.023666382	0.002685547	-0.003642082	8.426213264	1.224708557	0.598454475	-1.183433623	0.13429034	-0.182121736	-0.927978516	-0.907714844	-0.216796875	891.72	19.6839052	-78.85324223	53.84807613	-69
12311	0	0.322021484	0.009643555	0.002746582	0.999639511	-0.025485039	-0.006137848	-0.005649567	8.050537109	0.241088867	0.068664551	-1.274404702	-0.306929187	-0.282512197	-0.922607422	-0.899414063	-0.26953125	891.66	21.22678624	-79.26131366	49.29900183	-64
12312	0	0.372567177	-0.017893791	0.004548073	0.999740601	-0.022109985	-0.003745079	-0.003987312	9.31417942	-0.44734478	0.11370182	-1.105594874	-0.187270146	-0.199382858	-0.917724609	-0.888916016	-0.302246094	891.74	21.84028489	-79.47171366	46.09581896	-68
12313	0	0.465026855	-0.007324219	0.026733398	0.999928474	-0.011062622	0.002358437	-0.003677368	11.62567139	-0.183105469	0.668334961	-0.553144146	0.11792461	-0.183872744	-0.912841797	-0.878417969	-0.337890625	891.74	22.13552125	-79.04559596	44.50356171	-65
12314	0	0.449381828	-0.022403717	0.028936386	0.999982834	0.004277229	-0.002636909	-0.00300312	11.23454571	-0.560092926	0.723409653	0.213862687	-0.131846227	-0.150156879	-0.905517578	-0.876464844	-0.349853516	891.68	24.91739718	-79.17114805	42.16690447	-63
12315	0	0.524902344	0.026000977	0.158081055	0.999985695	-0.001785278	0.003487587	-0.003383636	13.12255859	0.650024414	3.952026367	-0.089264315	0.174380128	-0.169182579	-0.903320313	-0.876464844	-0.344238281	891.82	25.64064905	-78.62720691	41.22179107	-64
12316	0	0.458781242	0.05692482	0.143111229	0.999777794	0.002135277	-0.014240265	-0.015384674	11.46953106	1.423120499	3.577780724	0.106771742	-0.712065948	-0.769290642	-0.896240234	-0.881103516	-0.341308594	891.68	37.8675783	-79.06946267	29.00647444	-62
12317	0	0.32232666	0.04675293	0.118713379	0.999885559	0.00111866	0.002094269	-0.01493454	8.058166504	1.168823242	2.967834473	0.055935131	0.104717431	-0.746755453	-0.874511719	-0.903564453	-0.309082031	891.68	43.53344635	-77.74743754	23.35579919	-64
12318	0	0.419496536	0.095973015	0.119299889	0.999896049	-0.004833221	0.010339737	-0.008775711	10.48741341	2.399325371	2.982497215	-0.241669421	0.517004709	-0.438800713	-0.845214844	-0.920166016	-0.323730469	891.84	42.62621941	-76.17005512	23.72012011	-61
12319	0	0.386169434	0.063476563	0.123962402	0.999987602	-0.004402161	-0.002047539	0.000934601	9.65423584	1.586914063	3.099060059	-0.220108929	-0.102377355	0.046730232	-0.830810547	-0.916503906	-0.347900391	891.72	42.41226971	-76.3886704	23.41633737	-64
12320	0	0.316380501	-0.039251328	0.085095406	0.999961853	-0.002035141	-0.005843163	0.006119728	7.90951252	-0.981283188	2.127385139	-0.101758334	-0.292161815	0.305990267	-0.836425781	-0.896484375	-0.346191406	891.74	41.81879278	-77.33136528	23.78075252	-62
12321	0	0.318847656	-0.039489746	0.068115234	0.999957085	0.005771637	-0.00266552	0.006641388	7.971191406	-0.987243652	1.702880859	0.288585914	-0.133277863	0.332074075	-0.851806641	-0.875976563	-0.335693359	891.72	40.70836305	-78.04108699	25.58841238	-63
12322	0	0.345018387	0.03660202	0.060705185	0.999949455	0.007539749	-8.58E-05	0.00655365	8.625459671	0.915050507	1.517629623	0.376993728	-0.004291606	0.327687946	-0.864257813	-0.862304688	-0.318847656	891.68	38.74492013	-78.50660695	28.47251307	-66
12323	0	0.321105957	0.053588867	0.031799316	0.999921799	0.008419991	-0.002925873	0.008758545	8.027648926	1.33972168	0.79498291	0.421010486	-0.146297448	0.437938645	-0.877197266	-0.843994141	-0.302490234	891.72	36.63019566	-79.36350218	31.60672206	-61
12324	0	0.331492424	0.006601334	0.014442444	0.99990654	0.012168884	-0.002449989	0.005707741	8.2873106	0.16503334	0.361061096	0.608463144	-0.122503277	0.285395918	-0.892578125	-0.825683594	-0.27734375	891.66	35.98158272	-79.95679211	33.68072502	-70
12325	0	0.357666016	0.016235352	0.026123047	0.999898911	0.014035225	0.001209259	0.001785278	8.941650391	0.405883789	0.653076172	0.701784831	0.060464984	0.089266916	-0.895751953	-0.816650391	-0.249023438	891.66	36.13248907	-79.94629204	35.15991882	-66
12326	0	0.384439468	0.047483444	0.053004265	0.999912262	0.012459755	0.003560066	0.002646446	9.61098671	1.187086105	1.325106621	0.623005911	0.178008501	0.132326169	-0.896728516	-0.803222656	-0.227294922	891.74	34.79914387	-79.77058566	37.96462225	-66
12327	0	0.400939941	0.056030273	0.015441895	0.99998188	0.004249573	-0.003359795	0.002456665	10.02349854	1.400756836	0.386047363	0.212479891	-0.167990721	0.122833976	-0.897460938	-0.787597656	-0.219970703	891.66	35.18760589	-80.22937545	38.06286406	-68
12328	0	0.507481575	0.031929016	0.033845901	0.999948502	0.008512497	0.004876137	0.002571106	12.68703938	0.798225403	0.846147537	0.425632144	0.243811018	0.128557502	-0.898681641	-0.767822266	-0.20703125	891.8	32.94232701	-79.91535839	41.33241395	-66
12329	0	0.56652832	0.101928711	0.141113281	0.99980545	0.013295174	-0.005111694	0.013637543	14.16320801	2.548217773	3.527832031	0.664801774	-0.255601285	0.681921338	-0.899414063	-0.75	-0.211425781	891.62	28.13261043	-81.19567458	47.74669196	-64
12330	0	0.361831665	0.03896904	0.125317574	0.999787331	0.003499985	-0.010913849	0.01708889	9.045791626	0.974225998	3.132939339	0.175011588	-0.545730958	0.854504809	-0.925292969	-0.705078125	-0.182128906	891.68	19.1224106	-83.10854457	57.24275115	-64
12331	0	0.373840332	0.022705078	0.118041992	0.999904633	0.005673409	0.009010315	0.008705139	9.346008301	0.567626953	2.951049805	0.283679369	0.450529951	0.435270681	-0.943603516	-0.662597656	-0.184570313	891.78	10.17007985	-82.33090004	66.92207091	-65
12332	0	0.464435577	0.028788567	0.091752052	0.999937057	0.009782791	0.003550529	0.004013062	11.61088943	0.719714165	2.293801308	0.4891497	0.177530155	0.200657237	-0.948974609	-0.640380859	-0.206298828	891.78	7.575187192	-81.97045205	70.66583277	-63
12333	0	0.369567871	0.06072998	0.075744629	0.999982834	0.004654884	-0.003364563	-0.000263214	9.239196777	1.518249512	1.893615723	0.232745499	-0.168229076	-0.013160778	-0.946777344	-0.629638672	-0.210205078	891.68	8.782679642	-82.31751549	69.97786312	-64
12334	0	0.313176155	0.091335297	0.042760849	0.999973297	-0.000794411	-0.001109123	-0.007171631	7.829403877	2.283382416	1.069021225	-0.039720888	-0.055456654	-0.358584728	-0.939941406	-0.627685547	-0.210693359	891.6	14.90022642	-82.24199804	63.70913612	-66
12335	0	0.323242188	0.059509277	0.053405762	0.999949455	-0.002815247	0.004780769	-0.008327484	8.081054688	1.487731934	1.335144043	-0.140764678	0.239042457	-0.416381155	-0.927246094	-0.641357422	-0.227539063	891.66	19.84719554	-81.40052956	58.3834011	-65
12336	0	0.352292061	0.030852318	0.042531013	0.99996376	-0.004302979	0.006804466	-0.002698898	8.807301521	0.771307945	1.063275337	-0.215151511	0.340227401	-0.134946537	-0.912353516	-0.650878906	-0.253417969	891.72	19.58817157	-80.52973582	58.14405722	-67
12337	0	0.334533691	0.02545166	0.02557373	0.999977112	-0.00606823	0.002979279	-0.00019455	8.363342285	0.636291504	0.639343262	-0.303413797	0.148965064	-0.009727552	-0.904785156	-0.649169922	-0.285400391	891.72	18.4223415	-80.16910715	58.61672524	-66
12338	0	0.327260971	0.040235519	0.020627975	0.999970436	-0.005767822	-0.004852295	-0.001095772	8.181524277	1.005887985	0.515699387	-0.288393902	-0.242617092	-0.054789119	-0.902099609	-0.647216797	-0.305908203	891.72	19.60164713	-80.62510157	56.74470482	-64
12339	0	0.356140137	0.048034668	0.012329102	0.999934196	-0.009578705	-0.006243706	-0.000789642	8.903503418	1.200866699	0.308227539	-0.478945728	-0.312192123	-0.039482981	-0.899658203	-0.643066406	-0.320800781	891.74	20.65895545	-81.23873982	54.55845635	-63
12340	0	0.436839104	0.061218262	0.021105766	0.999943733	-0.01034832	-0.000152588	-0.002130508	10.92097759	1.530456543	0.527644157	-0.517425629	-0.007629537	-0.106527404	-0.899414063	-0.638671875	-0.341064453	891.78	21.0792219	-81.14245345	52.9316122	-64
12341	0	0.458618164	0.044799805	0.01940918	0.999990463	-0.000151634	0.001522064	-0.003910065	11.4654541	1.119995117	0.485229492	-0.007581733	0.076103434	-0.195503809	-0.891601563	-0.641357422	-0.370117188	891.74	23.35323486	-80.78771987	50.60798967	-68
12342	0	0.423060417	0.032835007	0.052261353	0.999993324	-0.003089905	-0.000932693	-0.001276016	10.57651043	0.820875168	1.306533813	-0.154495549	-0.046634768	-0.06380094	-0.886230469	-0.652832031	-0.383789063	891.74	24.1837752	-80.80310333	49.40669056	-68
12343	0	0.494628906	0.045715332	0.124267578	0.999951363	-0.006549835	-0.001238823	-0.007213593	12.36572266	1.142883301	3.106689453	-0.327497026	-0.061942143	-0.360685426	-0.883300781	-0.657470703	-0.412353516	891.72	28.40797078	-80.53738066	44.36206362	-69
12344	0	0.39988327	-0.020051956	0.134340286	0.999789238	0.000405312	-0.012554169	-0.016183853	9.997081757	-0.501298904	3.358507156	0.020266997	-0.62775235	-0.80924927	-0.874755859	-0.684326172	-0.427734375	891.66	42.63628522	-80.60176644	29.9793654	-64
12345	0	0.295898438	0.022705078	0.120544434	0.999914169	-0.001597404	0.000156403	-0.012947083	7.397460938	0.567626953	3.01361084	-0.07987249	0.007820351	-0.647372491	-0.861328125	-0.722167969	-0.425292969	891.74	48.28706949	-79.49832248	24.05413681	-65
12346	0	0.399905205	0.097951889	0.102290154	0.999843597	-0.008854866	0.009270668	-0.012105942	9.997630119	2.448797226	2.557253838	-0.442766247	0.463557424	-0.605328458	-0.840576172	-0.756103516	-0.452392578	891.74	47.91130473	-77.721726	23.40262143	-63
12347	0	0.432250977	0.065368652	0.102233887	0.999955177	-0.006847382	0.000756264	-0.006374359	10.80627441	1.634216309	2.555847168	-0.342374106	0.037813742	-0.318722636	-0.820068359	-0.78125	-0.488769531	891.62	48.96418215	-77.08270213	21.51432545	-70
12348	0	0.371557236	-0.020581245	0.083872795	0.99998951	-0.001217842	-0.004299164	0.000968933	9.288930893	-0.514531136	2.096819878	-0.060892317	-0.21495894	0.048446824	-0.812011719	-0.792724609	-0.511230469	891.66	50.10355799	-77.45525092	20.19253349	-63
12349	0	0.362670898	-0.040588379	0.081237793	0.999962807	0.006168365	-0.002635002	0.00541687	9.066772461	-1.014709473	2.030944824	0.308422095	-0.131751739	0.270846861	-0.821289063	-0.803466797	-0.504150391	891.66	49.95331431	-78.09680466	21.06173552	-63
12350	0	0.371087074	0.031570435	0.068375587	0.999950409	0.008000374	9.63E-05	0.005875587	9.277176857	0.789260864	1.709389687	0.400025262	0.004816134	0.293784198	-0.839599609	-0.813720703	-0.499267578	891.66	48.61040554	-78.57224356	23.36285343	-67
12351	0	0.356567383	0.075927734	0.046813965	0.999954224	0.006451607	-0.002788544	0.006435394	8.91418457	1.898193359	1.170349121	0.32258522	-0.139429295	0.321774585	-0.850830078	-0.826660156	-0.497558594	891.72	47.97376168	-79.30667326	24.7586204	-63
12352	0	0.325558662	0.02946949	0.02457428	0.999954224	0.006608963	-0.005145073	0.004542351	8.13896656	0.736737251	0.614356995	0.330453151	-0.257257539	0.227120975	-0.867431641	-0.834716797	-0.478759766	891.72	49.17878148	-80.05974528	24.30039086	-64
12353	0	0.335998535	0.013549805	0.007873535	0.999943733	0.010257721	-0.002436638	0.000392914	8.399963379	0.338745117	0.196838379	0.512895563	-0.121834154	0.019646055	-0.878662109	-0.854003906	-0.468017578	891.72	51.33235897	-80.24837658	23.30334382	-64
12354	0	0.388475418	0.050951004	0.012806892	0.999938965	0.010861397	0.001891136	-0.000336647	9.711885452	1.273775101	0.32017231	0.543080852	0.094558726	-0.016832693	-0.882568359	-0.880126953	-0.448486328	891.78	51.65273179	-80.06002024	24.24081114	-66
12355	0	0.385620117	0.061706543	0.060302734	0.999965668	0.007870674	0.00201416	0.001529694	9.64050293	1.542663574	1.507568359	0.393538189	0.100709155	0.076485551	-0.881347656	-0.908691406	-0.440429688	891.72	50.82080002	-80.0279349	26.00083393	-64
12356	0	0.358288765	0.037697792	0.026051521	0.999993324	0.002434731	-0.002103806	0.001718521	8.957219124	0.942444801	0.651288033	0.121736796	-0.10519051	0.085926246	-0.887939453	-0.928222656	-0.4296875	891.78	51.38900779	-80.30931874	25.70810026	-64
12357	0	0.443237305	0.013366699	0.021850586	0.999914169	0.011120796	0.006668091	0.001644135	11.08093262	0.33416748	0.546264648	0.556055644	0.333414035	0.082209067	-0.889648438	-0.945800781	-0.419677734	891.74	48.52835	-79.94092064	29.90533652	-64
12358	0	0.573970795	0.079649925	0.082364082	0.999850273	0.014326096	0.001451492	0.009506226	14.34926987	1.991248131	2.059102058	0.716340326	0.072578217	0.475334867	-0.893554688	-0.969726563	-0.408935547	891.66	45.04027536	-80.59930027	35.1073921	-68
12359	0	0.44342041	0.085449219	0.110290527	0.999876022	0.005753517	-0.009189606	0.011383057	11.08551025	2.136230469	2.757263184	0.287687708	-0.459499213	0.569176277	-0.924316406	-0.975097656	-0.380859375	891.74	44.38935016	-82.23944896	36.43161326	-65
12360	0	0.363717079	0.005452156	0.095523834	0.999983788	0.005084038	0.000778198	0.002168655	9.092926979	0.136303902	2.388095856	0.254203209	0.038910114	0.108433333	-0.953369141	-0.969482422	-0.354003906	891.74	43.08954587	-82.3195423	38.33486594	-69
12361	0	0.336853027	0.041931152	0.127624512	0.999818802	0.014676094	0.011894226	0.001911163	8.421325684	1.048278809	3.190612793	0.733848801	0.594747043	0.095563909	-0.955322266	-0.984863281	-0.341064453	891.74	37.35019483	-81.38607526	45.83475184	-65
12362	0	0.355591774	0.087323189	0.142446518	0.999842644	0.009967804	0.011196136	0.00942421	8.88979435	2.18307972	3.561162949	0.498416245	0.55983608	0.471235106	-0.959716797	-0.997802734	-0.333984375	891.74	28.16366192	-80.8498353	56.29378822	-64
12363	0	0.416992188	0.074279785	0.09564209	0.999985695	-0.000442505	0.003617287	0.003749847	10.42480469	1.856994629	2.391052246	-0.022125345	0.180865158	0.187493225	-0.978515625	-0.992919922	-0.339111328	891.72	24.6025137	-80.62712888	59.85526166	-64
12364	0	0.381848335	0.069696426	0.081926346	0.999984741	0.002340317	0.001469612	-0.004691124	9.546208382	1.74241066	2.048158646	0.117016417	0.073480969	-0.234557357	-0.980712891	-0.994873047	-0.344482422	891.8	27.28964597	-80.196835	57.40079172	-64
12365	0	0.379699707	0.069030762	0.094848633	0.999964714	0.004024506	0.005494118	-0.004890442	9.492492676	1.725769043	2.37121582	0.201227638	0.274709106	-0.24452496	-0.973144531	-1.010498047	-0.340820313	891.74	28.84130285	-79.33226969	56.29583578	-65
12366	0	0.371150017	0.055963516	0.087636948	0.999987602	0.001348495	0.003177643	-0.003499985	9.27875042	1.399087906	2.190923691	0.067425046	0.158882781	-0.174999942	-0.963134766	-1.026367188	-0.340087891	891.74	29.87121035	-78.77208634	55.40802495	-65
12367	0	0.34765625	0.059020996	0.070678711	0.999996185	0.000325203	0.000492096	-0.00239563	8.69140625	1.475524902	1.766967773	0.016260164	0.024604822	-0.119781616	-0.957763672	-1.035400391	-0.345458984	891.72	30.93864254	-78.53814306	54.35621108	-65
12368	0	0.351379395	0.073695183	0.078728676	0.999993324	-0.003115654	0.000135422	-0.001848221	8.784484863	1.84237957	1.968216896	-0.155783041	0.006771102	-0.092411244	-0.955322266	-1.041992188	-0.339111328	891.68	31.42501326	-78.36801365	53.50300371	-67
12369	0	0.36328125	0.06237793	0.076416016	0.99997139	-0.00694561	-0.001346588	-0.002376556	9.08203125	1.559448242	1.910400391	-0.347283726	-0.067330032	-0.118828923	-0.952636719	-1.044433594	-0.344970703	891.74	32.14038835	-78.30835136	51.96717132	-66
12370	0	0.383514404	0.049064636	0.074410439	0.999968529	-0.007453918	-7.82E-05	-0.002509117	9.587860107	1.226615906	1.860260963	-0.372699766	-0.003910105	-0.12545715	-0.947753906	-1.046875	-0.359375	891.66	32.46612612	-78.11539329	50.76586809	-64
12371	0	0.391662598	0.051452637	0.069396973	0.99998188	-0.005764008	-0.000948906	-0.001144409	9.791564941	1.286315918	1.734924316	-0.28820208	-0.047445577	-0.057220797	-0.940429688	-1.044921875	-0.368408203	891.68	32.5996435	-78.09047596	49.95639728	-63
12372	0	0.382273674	0.057806015	0.075318336	0.999986649	-0.00497818	-0.000481606	-1.34E-05	9.55684185	1.445150375	1.882958412	-0.248910034	-0.024080377	-0.000667575	-0.940429688	-1.044921875	-0.371337891	891.68	32.16891754	-78.09041498	49.81873551	-63
12373	0	0.375854492	0.052429199	0.082214355	0.999986649	-0.00506115	-0.000663757	-1.91E-05	9.396362305	1.31072998	2.055358887	-0.253058579	-0.03318801	-0.000953678	-0.938232422	-1.040771484	-0.380371094	891.84	31.7830675	-78.10792824	49.62269893	-63
12374	0	0.393546104	0.034716606	0.08699131	0.999980927	-0.005932808	-0.000805855	-0.001225471	9.838652611	0.867915154	2.174782753	-0.296642243	-0.040292991	-0.061273956	-0.938232422	-1.036376953	-0.383789063	891.68	31.88931188	-78.06691011	48.824371	-63
12375	0	0.388427734	0.028442383	0.080322266	0.999984741	-0.004000664	-0.002902985	-0.002239227	9.710693359	0.71105957	2.008056641	-0.20003417	-0.145149943	-0.111961914	-0.93359375	-1.034423828	-0.389892578	891.74	33.29092079	-78.16454045	46.92302091	-63
12376	0	0.365286827	0.054345131	0.070819855	0.99998951	-0.00108242	-0.004190445	-0.001368523	9.132170677	1.358628273	1.770496368	-0.054121203	-0.209522967	-0.068426367	-0.926269531	-1.036865234	-0.390136719	891.72	35.07234752	-78.42964168	44.97302783	-62
12377	0	0.353027344	0.057495117	0.0625	0.999987602	-0.002735138	-0.004027367	-0.0001297	8.825683594	1.43737793	1.5625	-0.136757438	-0.201369128	-0.006485011	-0.928955078	-1.034423828	-0.378662109	891.74	36.12449007	-78.75254621	43.58345523	-61
12378	0	0.369231224	0.042521477	0.06433773	0.999980927	-0.003920555	-0.004567146	0.000128746	9.230780602	1.063036919	1.60844326	-0.19602894	-0.228358695	0.006437341	-0.931396484	-1.034423828	-0.375488281	891.72	37.18245027	-79.13832802	42.05084132	-61
12379	0	0.398010254	0.02911377	0.064147949	0.999985695	-0.00151825	-0.005114555	-0.000240326	9.950256348	0.727844238	1.60369873	-0.075912836	-0.255728984	-0.012016354	-0.929199219	-1.030029297	-0.375976563	891.78	39.00211488	-79.54117559	40.0187176	-61
12380	0	0.392695427	0.033738136	0.064813614	0.999987602	0.000302315	-0.004747391	0.0008564	9.817385674	0.843453407	1.620340347	0.015115797	-0.237370462	0.042820144	-0.929443359	-1.029785156	-0.361816406	891.68	40.49125784	-79.98180236	38.54090361	-61
12381	0	0.379821777	0.052185059	0.059753418	0.999992371	-0.000819206	-0.00334549	0.001548767	9.495544434	1.304626465	1.493835449	-0.040960409	-0.167274873	0.077438539	-0.934326172	-1.029541016	-0.352783203	891.68	41.00758843	-80.34790451	37.92392852	-62
12382	0	0.38968277	0.05070591	0.053203583	0.999988556	-0.003983498	-0.0022192	0.000804901	9.742069244	1.267647743	1.330089569	-0.199175593	-0.110960403	0.0402452	-0.939208984	-1.025146484	-0.353027344	891.72	41.07188314	-80.56054525	37.39856761	-63
12383	0	0.39855957	0.033569336	0.049560547	0.999986649	-0.004500389	-0.002250671	6.87E-05	9.963989258	0.839233398	1.239013672	-0.225020405	-0.112534044	0.003433242	-0.937011719	-1.020751953	-0.353515625	891.78	41.49037265	-80.7210214	36.45435427	-63
12384	0	0.394647598	0.02675724	0.051506042	0.999991417	-0.003886223	-0.001056671	0.000606537	9.866189957	0.668931007	1.287651062	-0.194311679	-0.052833703	0.030326927	-0.937255859	-1.016357422	-0.356689453	891.72	41.14857517	-80.82051891	36.35110618	-63
12385	0	0.394897461	0.029541016	0.055847168	0.999995232	-0.00276947	-0.00014019	0.000728607	9.872436523	0.738525391	1.396179199	-0.1384737	-0.007009516	0.036430409	-0.937255859	-1.011962891	-0.359863281	891.68	40.43525852	-80.8506354	36.75301414	-63
12386	0	0.398685455	0.03372097	0.055007935	0.999998093	-0.000975609	-0.000113487	0.000975609	9.967136383	0.843024254	1.375198364	-0.048780457	-0.005674364	0.048780457	-0.9375	-1.007568359	-0.365966797	891.8	39.77478734	-80.89657897	37.30622529	-63
12387	0	0.388000488	0.037841797	0.051513672	0.999999046	-0.000499725	0.000199318	0.001174927	9.700012207	0.946044922	1.287841797	-0.024986274	0.009965899	0.058746354	-0.9375	-1.007568359	-0.365966797	891.68	38.91100847	-80.92863227	38.12216604	-63
